subjno	age	gender	isPractice	viewdist	CmToPixX	CmToPixY	SOA_frm	SOA_time	targNum	targID	targExample	targRace	targGender	firstTargPos	contrast	familiarity	curr_staircase	iStair	TrialNum	BlockNum	blktrl	sessionNum	TC_FIXATION	TC_RSVP_START	TC_RSVP_END	TC_BLANK	TC_RESPONSE_ONSET	RT2afc	resp_2afc	acc	RSVPOnsetVBL	RSVPOnsetTime	RSVPOffsetVBL	RSVPOffsetTime	startrt_2afc
13	21	0	0	90	36.1581920903955	36.241610738255	22	0.733481760174036	2	8	3	NaN	2	4	0.0528131511792984	0	1	NaN	1	1	1	1	120	220	320	NaN	520	0.50175319518894	2	1	NaN	2497001.5424872	NaN	2497002.5257629	2497003.0588741
13	21	0	0	90	36.1581920903955	36.241610738255	24	0.800161920189858	2	1	3	NaN	1	3	0.0528131511792984	0	1	NaN	2	1	2	1	120	220	320	NaN	520	0.39421934587881	2	0	NaN	2497004.625953	NaN	2497005.6093856	2497006.14250855
13	21	0	0	90	36.1581920903955	36.241610738255	6	0.200040480047464	2	6	3	NaN	1	5	0.0528131511792984	0	1	NaN	3	1	3	1	120	220	320	NaN	520	0.0771710937842727	1	1	NaN	2497007.3595108	NaN	2497008.342896	2497008.85943951
13	21	0	0	90	36.1581920903955	36.241610738255	21	0.700141680166125	2	4	2	NaN	1	5	0.0528131511792984	0	1	NaN	4	1	4	1	120	220	320	NaN	520	0.0610998435877264	1	1	NaN	2497009.7597606	NaN	2497010.7431311	2497011.25967626
13	21	0	0	90	36.1581920903955	36.241610738255	23	0.766821840181947	2	7	3	NaN	2	5	0.0528131511792984	0	1	NaN	5	1	5	1	120	220	320	NaN	520	0.349305394105613	1	0	NaN	2497012.1432181	NaN	2497013.1267094	2497013.64325141
13	21	0	0	90	36.1581920903955	36.241610738255	0	0	1	7	4	NaN	2	5	0.0528131511792984	0	1	NaN	6	1	6	1	110	210	310	NaN	510	0.146899595391005	2	1	NaN	2497014.8102275	NaN	2497015.7936264	2497016.3101824
13	21	0	0	90	36.1581920903955	36.241610738255	15	0.500101200118661	2	11	1	NaN	2	4	0.0528131511792984	0	1	NaN	7	1	7	1	120	220	320	NaN	520	0.0476700942963362	2	1	NaN	2497017.2771505	NaN	2497018.2605375	2497018.77708691
13	21	0	0	90	36.1581920903955	36.241610738255	17	0.566781360134482	2	1	1	NaN	1	4	0.0528131511792984	0	1	NaN	8	1	8	1	120	220	320	NaN	520	0.200658043846488	1	1	NaN	2497019.6439153	NaN	2497020.6273425	2497021.14398096
13	21	0	0	90	36.1581920903955	36.241610738255	24	0.800161920189858	2	11	4	NaN	2	4	0.0528131511792984	0	1	NaN	9	1	9	1	120	220	320	NaN	520	0.0104120941832662	2	1	NaN	2497022.1608359	NaN	2497023.1443504	2497023.66090471
13	21	0	0	90	36.1581920903955	36.241610738255	22	0.733481760174036	2	3	3	NaN	1	3	0.0528131511792984	0	1	NaN	10	1	10	1	120	220	320	NaN	520	0.174578344915062	1	1	NaN	2497024.4945073	NaN	2497025.4779092	2497025.99446236
13	21	0	0	90	36.1581920903955	36.241610738255	10	0.333400800079107	2	9	2	NaN	2	4	0.0528131511792984	0	1	NaN	11	1	11	1	120	220	320	NaN	520	0.297717694193125	2	1	NaN	2497026.9947755	NaN	2497027.9781811	2497028.49471521
13	21	0	0	90	36.1581920903955	36.241610738255	14	0.46676112011075	2	4	2	NaN	1	5	0.0528131511792984	0	1	NaN	12	1	12	1	120	220	320	NaN	520	0.193136645015329	1	1	NaN	2497029.6116976	NaN	2497030.5950924	2497031.11163265
13	21	0	0	90	36.1581920903955	36.241610738255	0	0	1	9	4	NaN	2	5	0.0528131511792984	0	1	NaN	13	1	13	1	110	210	310	NaN	510	0.22050369437784	2	1	NaN	2497032.1286513	NaN	2497033.11199	2497033.62854821
13	21	0	0	90	36.1581920903955	36.241610738255	24	0.800161920189858	2	5	1	NaN	1	5	0.0528131511792984	0	1	NaN	14	1	14	1	120	220	320	NaN	520	0.270940645132214	1	1	NaN	2497034.6621796	NaN	2497035.6455779	2497036.16213505
13	21	0	0	90	36.1581920903955	36.241610738255	22	0.733481760174036	2	11	4	NaN	2	3	0.0528131511792984	0	1	NaN	15	1	15	1	120	220	320	NaN	520	0.127279093954712	2	1	NaN	2497037.2457818	NaN	2497038.2291756	2497038.74571271
13	21	0	0	90	36.1581920903955	36.241610738255	6	0.200040480047464	2	11	6	NaN	2	3	0.0528131511792984	0	1	NaN	16	1	16	1	120	220	320	NaN	520	0.996632794383913	2	1	NaN	2497039.6959147	NaN	2497040.6794214	2497041.19595961
13	21	0	0	90	36.1581920903955	36.241610738255	13	0.433421040102839	2	5	1	NaN	1	4	0.0528131511792984	0	1	NaN	17	1	17	1	120	220	320	NaN	520	0.0103919450193644	1	1	NaN	2497043.0295665	NaN	2497044.0130835	2497044.52962926
13	21	0	0	90	36.1581920903955	36.241610738255	11	0.366740880087018	2	7	4	NaN	2	5	0.0528131511792984	0	1	NaN	18	1	18	1	120	220	320	NaN	520	0.297698345035315	2	1	NaN	2497045.3632712	NaN	2497046.34664	2497046.86318645
13	21	0	0	90	36.1581920903955	36.241610738255	25	0.833502000197768	2	2	1	NaN	1	5	0.0528131511792984	0	1	NaN	19	1	19	1	120	220	320	NaN	520	0.280993244610727	1	1	NaN	2497047.9801397	NaN	2497048.9635637	2497049.48011276
13	21	0	0	90	36.1581920903955	36.241610738255	21	0.700141680166125	2	5	5	NaN	1	5	0.0528131511792984	0	1	NaN	20	1	20	1	120	220	320	NaN	520	0.288363445084542	1	1	NaN	2497050.5804209	NaN	2497051.5638176	2497052.08035995
13	21	0	0	90	36.1581920903955	36.241610738255	16	0.533441280126572	2	7	4	NaN	2	3	0.0528131511792984	0	1	NaN	21	1	21	1	120	220	320	NaN	520	0.215751194395125	2	1	NaN	2497053.1973467	NaN	2497054.1807313	2497054.69728641
13	21	0	0	90	36.1581920903955	36.241610738255	9	0.300060720071197	2	11	1	NaN	2	5	0.0528131511792984	0	1	NaN	22	1	22	1	120	220	320	NaN	520	0.0103780953213573	2	1	NaN	2497055.7309965	NaN	2497056.7143127	2497057.23088
13	21	0	0	90	36.1581920903955	36.241610738255	24	0.800161920189858	2	9	3	NaN	2	4	0.0528131511792984	0	1	NaN	23	1	23	1	120	220	320	NaN	520	0.164448994211853	1	0	NaN	2497058.0644127	NaN	2497059.047885	2497059.56443091
13	21	0	0	90	36.1581920903955	36.241610738255	9	0.300060720071197	2	5	6	NaN	1	5	0.0528131511792984	0	1	NaN	24	1	24	1	120	220	320	NaN	520	0.0647800955921412	1	1	NaN	2497060.5480743	NaN	2497061.5314581	2497062.0480147
13	21	0	0	90	36.1581920903955	36.241610738255	11	0.366740880087018	2	6	3	NaN	1	4	0.0528131511792984	0	1	NaN	25	1	25	1	120	220	320	NaN	520	0.0572032439522445	1	1	NaN	2497062.931622	NaN	2497063.9150242	2497064.43157856
13	21	0	0	90	36.1581920903955	36.241610738255	25	0.833502000197768	2	10	2	NaN	2	4	0.0528131511792984	0	1	NaN	26	1	26	1	120	220	320	NaN	520	0.114288300275803	1	0	NaN	2497065.298407	NaN	2497066.2819312	2497066.7984875
13	21	0	0	90	36.1581920903955	36.241610738255	14	0.46676112011075	2	10	6	NaN	2	5	0.0528131511792984	0	1	NaN	27	1	27	1	120	220	320	NaN	520	0.0406218944117427	2	1	NaN	2497067.7321462	NaN	2497068.71551	2497069.23205031
13	21	0	0	90	36.1581920903955	36.241610738255	23	0.766821840181947	2	7	3	NaN	2	5	0.0528131511792984	0	1	NaN	28	1	28	1	120	220	320	NaN	520	0.218073044903576	2	1	NaN	2497070.0990016	NaN	2497071.082404	2497071.59895325
13	21	0	0	90	36.1581920903955	36.241610738255	8	0.266720640063286	2	7	6	NaN	2	5	0.0528131511792984	0	1	NaN	29	1	29	1	120	220	320	NaN	520	0.0122632938437164	2	1	NaN	2497072.6325821	NaN	2497073.6159752	2497074.13253861
13	21	0	0	90	36.1581920903955	36.241610738255	12	0.400080960094929	2	8	5	NaN	2	4	0.0528131511792984	0	1	NaN	30	1	30	1	120	220	320	NaN	520	0.158747944049537	2	1	NaN	2497074.9660407	NaN	2497075.9495662	2497076.46609106
13	21	0	0	90	36.1581920903955	36.241610738255	9	0.300060720071197	2	4	1	NaN	1	4	0.0528131511792984	0	1	NaN	31	1	31	1	120	220	320	NaN	520	0.115213944111019	1	1	NaN	2497077.4497177	NaN	2497078.4331338	2497078.94967856
13	21	0	0	90	36.1581920903955	36.241610738255	10	0.333400800079107	2	6	5	NaN	1	3	0.0528131511792984	0	1	NaN	32	1	32	1	120	220	320	NaN	520	0.169473995454609	1	1	NaN	2497079.8833025	NaN	2497080.8666995	2497081.3832564
13	21	0	0	90	36.1581920903955	36.241610738255	15	0.500101200118661	2	1	6	NaN	1	3	0.0528131511792984	0	1	NaN	33	1	33	1	120	220	320	NaN	520	0.142006794456393	2	0	NaN	2497082.3668759	NaN	2497083.3502818	2497083.86682471
13	21	0	0	90	36.1581920903955	36.241610738255	18	0.600121440142393	2	3	4	NaN	1	3	0.0528131511792984	0	1	NaN	34	1	34	1	120	220	320	NaN	520	0.298948245123029	2	0	NaN	2497084.8336434	NaN	2497085.8171821	2497086.33374126
13	21	0	0	90	36.1581920903955	36.241610738255	24	0.800161920189858	2	10	1	NaN	2	4	0.0528131511792984	0	1	NaN	35	1	35	1	120	220	320	NaN	520	0.20993694383651	1	0	NaN	2497087.4507269	NaN	2497088.434116	2497088.95065756
13	21	0	0	90	36.1581920903955	36.241610738255	11	0.366740880087018	2	11	1	NaN	2	3	0.0528131511792984	0	1	NaN	36	1	36	1	120	220	320	NaN	520	2.13238679431379	2	1	NaN	2497089.9843093	NaN	2497090.9676886	2497091.48423641
13	21	0	0	90	36.1581920903955	36.241610738255	9	0.300060720071197	2	2	1	NaN	1	5	0.0528131511792984	0	1	NaN	37	1	37	1	120	220	320	NaN	520	1.34616814414039	1	1	NaN	2497094.4347481	NaN	2497095.4181249	2497095.93467936
13	21	0	0	90	36.1581920903955	36.241610738255	16	0.533441280126572	2	9	6	NaN	2	5	0.0528131511792984	0	1	NaN	38	1	38	1	120	220	320	NaN	520	0.3995894449763	1	0	NaN	2497098.085127	NaN	2497099.068497	2497099.58503446
13	21	0	0	90	36.1581920903955	36.241610738255	19	0.633461520150304	2	12	2	NaN	2	3	0.0528131511792984	0	1	NaN	39	1	39	1	120	220	320	NaN	520	0.802650094497949	2	1	NaN	2497100.8018908	NaN	2497101.7854541	2497102.30196931
13	21	0	0	90	36.1581920903955	36.241610738255	22	0.733481760174036	2	10	5	NaN	2	5	0.0528131511792984	0	1	NaN	40	1	40	1	120	220	320	NaN	520	0.325813395902514	1	0	NaN	2497103.9188729	NaN	2497104.902393	2497105.4189459
13	21	0	0	90	36.1581920903955	36.241610738255	12	0.400080960094929	2	1	6	NaN	1	4	0.0528131511792984	0	1	NaN	41	1	41	1	120	220	320	NaN	520	0.268058944959193	2	0	NaN	2497106.5525786	NaN	2497107.5359674	2497108.05254186
13	21	0	0	90	36.1581920903955	36.241610738255	16	0.533441280126572	2	1	2	NaN	1	5	0.0528131511792984	0	1	NaN	42	1	42	1	120	220	320	NaN	520	0.180705145001411	1	1	NaN	2497109.1361735	NaN	2497110.1195764	2497110.63613096
13	21	0	0	90	36.1581920903955	36.241610738255	10	0.333400800079107	2	1	2	NaN	1	5	0.0528131511792984	0	1	NaN	43	1	43	1	120	220	320	NaN	520	0.256396144628525	1	1	NaN	2497111.6364297	NaN	2497112.6198305	2497113.13638696
13	21	0	0	90	36.1581920903955	36.241610738255	0	0	1	12	3	NaN	2	4	0.0528131511792984	0	1	NaN	44	1	44	1	110	210	310	NaN	510	0.0103944451548159	1	0	NaN	2497114.2032859	NaN	2497115.1867357	2497115.70328995
13	21	0	0	90	36.1581920903955	36.241610738255	23	0.766821840181947	2	12	4	NaN	2	3	0.0528131511792984	0	1	NaN	45	1	45	1	120	220	320	NaN	520	0.0104106944054365	2	1	NaN	2497116.5200881	NaN	2497117.5036688	2497118.02018571
13	21	0	0	90	36.1581920903955	36.241610738255	8	0.266720640063286	2	5	2	NaN	1	5	0.0528131511792984	0	1	NaN	46	1	46	1	120	220	320	NaN	520	0.42570029431954	1	1	NaN	2497119.1871411	NaN	2497120.1705706	2497120.68711851
13	21	0	0	90	36.1581920903955	36.241610738255	13	0.433421040102839	2	1	2	NaN	1	3	0.0528131511792984	0	1	NaN	47	1	47	1	120	220	320	NaN	520	0.319562094286084	1	1	NaN	2497122.237455	NaN	2497123.2208838	2497123.73742051
13	21	0	0	90	36.1581920903955	36.241610738255	8	0.266720640063286	2	9	4	NaN	2	5	0.0528131511792984	0	1	NaN	48	1	48	1	120	220	320	NaN	520	0.301873995456845	2	1	NaN	2497124.8710624	NaN	2497125.8544491	2497126.3710145
13	21	0	0	90	36.1581920903955	36.241610738255	24	0.800161920189858	2	11	3	NaN	2	3	0.0528131511792984	0	1	NaN	49	1	49	1	120	220	320	NaN	520	2.02881599403918	1	0	NaN	2497127.4878486	NaN	2497128.4713859	2497128.98792871
13	21	0	0	90	36.1581920903955	36.241610738255	12	0.400080960094929	2	2	4	NaN	1	5	0.0528131511792984	0	1	NaN	50	1	50	1	120	220	320	NaN	520	0.318443694151938	1	1	NaN	2497131.8384213	NaN	2497132.8218198	2497133.33835261
13	21	0	0	90	36.1581920903955	36.241610738255	19	0.633461520150304	2	1	6	NaN	1	4	0.0528131511792984	0	1	NaN	51	1	51	1	120	220	320	NaN	520	0.244947294238955	2	0	NaN	2497134.4719977	NaN	2497135.4553942	2497135.97194681
13	21	0	0	90	36.1581920903955	36.241610738255	18	0.600121440142393	2	8	3	NaN	2	5	0.0528131511792984	0	1	NaN	52	1	52	1	120	220	320	NaN	520	0.25449574412778	2	1	NaN	2497137.0222492	NaN	2497138.0056529	2497138.52220046
13	21	0	0	90	36.1581920903955	36.241610738255	13	0.433421040102839	2	6	3	NaN	1	4	0.0528131511792984	0	1	NaN	53	1	53	1	120	220	320	NaN	520	0.584022944793105	2	0	NaN	2497139.5891669	NaN	2497140.572562	2497141.08912366
13	21	0	0	90	36.1581920903955	36.241610738255	13	0.433421040102839	2	12	5	NaN	2	5	0.0528131511792984	0	1	NaN	54	1	54	1	120	220	320	NaN	520	0.259488494135439	2	1	NaN	2497142.4894633	NaN	2497143.4727869	2497143.98940271
13	21	0	0	90	36.1581920903955	36.241610738255	0	0	1	3	5	NaN	1	3	0.0528131511792984	0	1	NaN	55	1	55	1	110	210	310	NaN	510	0.0104225943796337	1	1	NaN	2497145.0563698	NaN	2497146.0397724	2497146.55632201
13	21	0	0	90	36.1581920903955	36.241610738255	22	0.733481760174036	2	10	3	NaN	2	3	0.0528131511792984	0	1	NaN	56	1	56	1	120	220	320	NaN	520	0.0103962449356914	1	0	NaN	2497147.3731455	NaN	2497148.3566715	2497148.87322016
13	21	0	0	90	36.1581920903955	36.241610738255	16	0.533441280126572	2	9	4	NaN	2	3	0.0528131511792984	0	1	NaN	57	1	57	1	120	220	320	NaN	520	0.01042774412781	1	0	NaN	2497149.7068489	NaN	2497150.6902241	2497151.20677656
13	21	0	0	90	36.1581920903955	36.241610738255	18	0.600121440142393	2	4	6	NaN	1	3	0.0528131511792984	0	1	NaN	58	1	58	1	120	220	320	NaN	520	0.493433345109224	1	1	NaN	2497152.0236041	NaN	2497153.0071258	2497153.52368046
13	21	0	0	90	36.1581920903955	36.241610738255	20	0.666801600158215	2	2	5	NaN	1	3	0.0528131511792984	0	1	NaN	59	1	59	1	120	220	320	NaN	520	0.269231194164604	2	0	NaN	2497154.8240225	NaN	2497155.807297	2497156.32395021
13	21	0	0	90	36.1581920903955	36.241610738255	25	0.833502000197768	2	9	1	NaN	2	4	0.0528131511792984	0	1	NaN	60	1	60	1	120	220	320	NaN	520	0.0773079437203705	2	1	NaN	2497157.407477	NaN	2497158.3909914	2497158.90754436
13	21	0	0	90	36.1581920903955	36.241610738255	12	0.400080960094929	2	7	6	NaN	2	3	0.0528131511792984	0	1	NaN	61	1	61	1	120	220	320	NaN	520	0.285790747497231	2	1	NaN	2497159.7911653	NaN	2497160.7745714	2497161.29111105
13	21	0	0	90	36.1581920903955	36.241610738255	24	0.800161920189858	2	6	5	NaN	1	4	0.0528131511792984	0	1	NaN	62	1	62	1	120	220	320	NaN	520	0.109563995152712	1	1	NaN	2497162.3914187	NaN	2497163.3748543	2497163.891365
13	21	0	0	90	36.1581920903955	36.241610738255	22	0.733481760174036	2	4	4	NaN	1	5	0.0528131511792984	0	1	NaN	63	1	63	1	120	220	320	NaN	520	0.262835945002735	2	0	NaN	2497165.1579575	NaN	2497166.1417536	2497166.65832226
13	21	0	0	90	36.1581920903955	36.241610738255	10	0.333400800079107	2	12	4	NaN	2	3	0.0528131511792984	0	1	NaN	64	2	1	1	120	220	320	NaN	520	0.442293494474143	2	1	NaN	2497173.0424533	NaN	2497174.0258532	2497174.54241031
13	21	0	0	90	36.1581920903955	36.241610738255	0	0	1	8	1	NaN	2	4	0.0528131511792984	0	1	NaN	65	2	2	1	110	210	310	NaN	510	0.163906395435333	1	0	NaN	2497175.8094061	NaN	2497176.7927989	2497177.3093466
13	21	0	0	90	36.1581920903955	36.241610738255	16	0.533441280126572	2	8	3	NaN	2	3	0.0528131511792984	0	1	NaN	66	2	3	1	120	220	320	NaN	520	0.320536594372243	1	0	NaN	2497178.2763156	NaN	2497179.2596845	2497179.77625511
13	21	0	0	90	36.1581920903955	36.241610738255	13	0.433421040102839	2	10	3	NaN	2	5	0.0528131511792984	0	1	NaN	67	2	4	1	120	220	320	NaN	520	0.167131044901907	2	1	NaN	2497180.9099122	NaN	2497181.8933005	2497182.40985746
13	21	0	0	90	36.1581920903955	36.241610738255	7	0.233380560055375	2	10	1	NaN	2	4	0.0528131511792984	0	1	NaN	68	2	5	1	120	220	320	NaN	520	0.299512644764036	2	1	NaN	2497183.3934676	NaN	2497184.376873	2497184.89342286
13	21	0	0	90	36.1581920903955	36.241610738255	21	0.700141680166125	2	10	3	NaN	2	3	0.0528131511792984	0	1	NaN	69	2	6	1	120	220	320	NaN	520	0.194343745242804	2	1	NaN	2497186.0104316	NaN	2497186.9938017	2497187.51035505
13	21	0	0	90	36.1581920903955	36.241610738255	24	0.800161920189858	2	2	5	NaN	1	4	0.0528131511792984	0	1	NaN	70	2	7	1	120	220	320	NaN	520	0.198183693457395	1	1	NaN	2497188.5106633	NaN	2497189.4940372	2497190.01059501
13	21	0	0	90	36.1581920903955	36.241610738255	15	0.500101200118661	2	9	6	NaN	2	3	0.0528131511792984	0	1	NaN	71	2	8	1	120	220	320	NaN	520	0.393905395176262	1	0	NaN	2497191.0275698	NaN	2497192.0109615	2497192.5275188
13	21	0	0	90	36.1581920903955	36.241610738255	25	0.833502000197768	2	12	4	NaN	2	4	0.0528131511792984	0	1	NaN	72	2	9	1	120	220	320	NaN	520	0.268587844911963	2	1	NaN	2497193.7445719	NaN	2497194.7278966	2497195.24445056
13	21	0	0	90	36.1581920903955	36.241610738255	21	0.700141680166125	2	6	3	NaN	1	5	0.0528131511792984	0	1	NaN	73	2	10	1	120	220	320	NaN	520	0.301230394281447	1	1	NaN	2497196.3280907	NaN	2497197.3114784	2497197.82803451
13	21	0	0	90	36.1581920903955	36.241610738255	10	0.333400800079107	2	8	2	NaN	2	4	0.0528131511792984	0	1	NaN	74	2	11	1	120	220	320	NaN	520	0.228070894256234	2	1	NaN	2497198.9448901	NaN	2497199.9284115	2497200.44495221
13	21	0	0	90	36.1581920903955	36.241610738255	18	0.600121440142393	2	2	6	NaN	1	3	0.0528131511792984	0	1	NaN	75	2	12	1	120	220	320	NaN	520	0.358654895331711	2	0	NaN	2497201.4785934	NaN	2497202.4620315	2497202.9785481
13	21	0	0	90	36.1581920903955	36.241610738255	0	0	1	7	3	NaN	2	5	0.0528131511792984	0	1	NaN	76	2	13	1	110	210	310	NaN	510	0.219378294423223	1	0	NaN	2497204.1455313	NaN	2497205.128937	2497205.64546461
13	21	0	0	90	36.1581920903955	36.241610738255	15	0.500101200118661	2	3	4	NaN	1	3	0.0528131511792984	0	1	NaN	77	2	14	1	120	220	320	NaN	520	0.317805648781359	2	0	NaN	2497206.679099	NaN	2497207.6625041	2497208.17905225
13	21	0	0	90	36.1581920903955	36.241610738255	11	0.366740880087018	2	4	2	NaN	1	3	0.0528131511792984	0	1	NaN	78	2	15	1	120	220	320	NaN	520	0.612289544660598	1	1	NaN	2497209.3127036	NaN	2497210.2961016	2497210.81264976
13	21	0	0	90	36.1581920903955	36.241610738255	7	0.233380560055375	2	5	6	NaN	1	5	0.0528131511792984	0	1	NaN	79	2	16	1	120	220	320	NaN	520	0.0104214940220118	1	1	NaN	2497212.2296471	NaN	2497213.2130522	2497213.72960251
13	21	0	0	90	36.1581920903955	36.241610738255	13	0.433421040102839	2	4	2	NaN	1	5	0.0528131511792984	0	1	NaN	80	2	17	1	120	220	320	NaN	520	0.786479894071817	1	1	NaN	2497214.5465524	NaN	2497215.5299451	2497216.04648901
13	21	0	0	90	36.1581920903955	36.241610738255	9	0.300060720071197	2	7	5	NaN	2	3	0.0528131511792984	0	1	NaN	81	2	18	1	120	220	320	NaN	520	0.0782429943792522	2	1	NaN	2497217.6468517	NaN	2497218.6302579	2497219.14679311
13	21	0	0	90	36.1581920903955	36.241610738255	15	0.500101200118661	2	4	4	NaN	1	5	0.0528131511792984	0	1	NaN	82	2	19	1	120	220	320	NaN	520	0.52619519457221	2	0	NaN	2497220.0471031	NaN	2497221.0304693	2497221.54702721
13	21	0	0	90	36.1581920903955	36.241610738255	25	0.833502000197768	2	11	6	NaN	2	3	0.0528131511792984	0	1	NaN	83	2	20	1	120	220	320	NaN	520	0.196258144918829	1	0	NaN	2497222.8807051	NaN	2497223.8640877	2497224.38064456
13	21	0	0	90	36.1581920903955	36.241610738255	6	0.200040480047464	2	8	1	NaN	2	4	0.0528131511792984	0	1	NaN	84	2	21	1	120	220	320	NaN	520	0.431441945023835	2	1	NaN	2497225.3975966	NaN	2497226.3810301	2497226.89757176
13	21	0	0	90	36.1581920903955	36.241610738255	22	0.733481760174036	2	5	3	NaN	1	4	0.0528131511792984	0	1	NaN	85	2	22	1	120	220	320	NaN	520	0.0924504953436553	1	1	NaN	2497228.2644919	NaN	2497229.2479602	2497229.764514
13	21	0	0	90	36.1581920903955	36.241610738255	23	0.766821840181947	2	5	4	NaN	1	4	0.0528131511792984	0	1	NaN	86	2	23	1	120	220	320	NaN	520	0.212336444761604	1	1	NaN	2497230.6647797	NaN	2497231.6481887	2497232.16474226
13	21	0	0	90	36.1581920903955	36.241610738255	12	0.400080960094929	2	7	1	NaN	2	5	0.0528131511792984	0	1	NaN	87	2	24	1	120	220	320	NaN	520	0.679316944908351	2	1	NaN	2497233.1816404	NaN	2497234.1651116	2497234.68165536
13	21	0	0	90	36.1581920903955	36.241610738255	11	0.366740880087018	2	2	6	NaN	1	5	0.0528131511792984	0	1	NaN	88	2	25	1	120	220	320	NaN	520	0.216082244645804	2	0	NaN	2497236.1653402	NaN	2497237.1487139	2497237.66529276
13	21	0	0	90	36.1581920903955	36.241610738255	9	0.300060720071197	2	11	2	NaN	2	3	0.0528131511792984	0	1	NaN	89	2	26	1	120	220	320	NaN	520	0.234473695978522	2	1	NaN	2497238.6989447	NaN	2497239.6823197	2497240.1988693
13	21	0	0	90	36.1581920903955	36.241610738255	6	0.200040480047464	2	4	5	NaN	1	4	0.0528131511792984	0	1	NaN	90	2	27	1	120	220	320	NaN	520	0.0104075940325856	1	1	NaN	2497241.2491847	NaN	2497242.2325703	2497242.74912431
13	21	0	0	90	36.1581920903955	36.241610738255	9	0.300060720071197	2	8	6	NaN	2	5	0.0528131511792984	0	1	NaN	91	2	28	1	120	220	320	NaN	520	0.190976795274764	1	0	NaN	2497243.5660835	NaN	2497244.549454	2497245.0660209
13	21	0	0	90	36.1581920903955	36.241610738255	18	0.600121440142393	2	6	1	NaN	1	4	0.0528131511792984	0	1	NaN	92	2	29	1	120	220	320	NaN	520	0.202562248334289	1	1	NaN	2497246.0662891	NaN	2497247.049716	2497247.56626205
13	21	0	0	90	36.1581920903955	36.241610738255	7	0.233380560055375	2	12	4	NaN	2	3	0.0528131511792984	0	1	NaN	93	2	30	1	120	220	320	NaN	520	0.0458333953283727	2	1	NaN	2497248.5832251	NaN	2497249.5666217	2497250.0831816
13	21	0	0	90	36.1581920903955	36.241610738255	10	0.333400800079107	2	2	4	NaN	1	4	0.0528131511792984	0	1	NaN	94	2	31	1	120	220	320	NaN	520	0.0104223946109414	2	0	NaN	2497250.9501221	NaN	2497251.9335359	2497252.45006821
13	21	0	0	90	36.1581920903955	36.241610738255	18	0.600121440142393	2	1	2	NaN	1	3	0.0528131511792984	0	1	NaN	95	2	32	1	120	220	320	NaN	520	1.75436694500968	2	0	NaN	2497253.2670572	NaN	2497254.2504211	2497254.76696206
13	21	0	0	90	36.1581920903955	36.241610738255	12	0.400080960094929	2	10	2	NaN	2	4	0.0528131511792984	0	1	NaN	96	2	33	1	120	220	320	NaN	520	0.0104073937982321	1	0	NaN	2497257.584098	NaN	2497258.5675138	2497259.08405301
13	21	0	0	90	36.1581920903955	36.241610738255	18	0.600121440142393	2	4	2	NaN	1	3	0.0528131511792984	0	1	NaN	97	2	34	1	120	220	320	NaN	520	0.227400744799525	1	1	NaN	2497260.2177036	NaN	2497261.2011014	2497261.71765886
13	21	0	0	90	36.1581920903955	36.241610738255	6	0.200040480047464	2	9	4	NaN	2	4	0.0528131511792984	0	1	NaN	98	2	35	1	120	220	320	NaN	520	0.445769493933767	2	1	NaN	2497262.7512923	NaN	2497263.7346939	2497264.25123061
13	21	0	0	90	36.1581920903955	36.241610738255	11	0.366740880087018	2	12	4	NaN	2	3	0.0528131511792984	0	1	NaN	99	2	36	1	120	220	320	NaN	520	0.0103328973054886	2	1	NaN	2497265.5182376	NaN	2497266.5016188	2497267.0181714
13	21	0	0	90	36.1581920903955	36.241610738255	20	0.666801600158215	2	12	3	NaN	2	3	0.0528131511792984	0	1	NaN	100	2	37	1	120	220	320	NaN	520	0.0740316938608885	2	1	NaN	2497267.8351151	NaN	2497268.8184975	2497269.33506081
13	21	0	0	90	36.1581920903955	36.241610738255	11	0.366740880087018	2	3	5	NaN	1	5	0.0528131511792984	0	1	NaN	101	2	38	1	120	220	320	NaN	520	0.0103774950839579	1	1	NaN	2497270.2185465	NaN	2497271.2020841	2497271.7186595
13	21	0	0	90	36.1581920903955	36.241610738255	12	0.400080960094929	2	1	5	NaN	1	4	0.0528131511792984	0	1	NaN	102	2	39	1	120	220	320	NaN	520	0.252827094402164	1	1	NaN	2497272.5522831	NaN	2497273.5356606	2497274.05220301
13	21	0	0	90	36.1581920903955	36.241610738255	7	0.233380560055375	2	10	6	NaN	2	5	0.0528131511792984	0	1	NaN	103	2	40	1	120	220	320	NaN	520	0.05394824501127	2	1	NaN	2497275.1191421	NaN	2497276.102573	2497276.61911895
13	21	0	0	90	36.1581920903955	36.241610738255	6	0.200040480047464	2	3	2	NaN	1	3	0.0528131511792984	0	1	NaN	104	2	41	1	120	220	320	NaN	520	0.0104072946123779	1	1	NaN	2497277.4859448	NaN	2497278.4694715	2497278.98601511
13	21	0	0	90	36.1581920903955	36.241610738255	12	0.400080960094929	2	9	4	NaN	2	4	0.0528131511792984	0	1	NaN	105	2	42	1	120	220	320	NaN	520	0.0420507448725402	2	1	NaN	2497279.8029415	NaN	2497280.7863452	2497281.30291326
13	21	0	0	90	36.1581920903955	36.241610738255	24	0.800161920189858	2	1	2	NaN	1	3	0.0528131511792984	0	1	NaN	106	2	43	1	120	220	320	NaN	520	0.284153345040977	1	1	NaN	2497282.1531712	NaN	2497283.1365718	2497283.65314256
13	21	0	0	90	36.1581920903955	36.241610738255	24	0.800161920189858	2	8	1	NaN	2	5	0.0528131511792984	0	1	NaN	107	2	44	1	120	220	320	NaN	520	0.262271494138986	1	0	NaN	2497285.0868228	NaN	2497286.0702207	2497286.58676261
13	21	0	0	90	36.1581920903955	36.241610738255	23	0.766821840181947	2	9	1	NaN	2	4	0.0528131511792984	0	1	NaN	108	2	45	1	120	220	320	NaN	520	0.383290945086628	2	1	NaN	2497287.6537678	NaN	2497288.6371324	2497289.15368765
13	21	0	0	90	36.1581920903955	36.241610738255	19	0.633461520150304	2	8	4	NaN	2	3	0.0528131511792984	0	1	NaN	109	2	46	1	120	220	320	NaN	520	0.880677494220436	1	0	NaN	2497290.6206881	NaN	2497291.6040906	2497292.12064591
13	21	0	0	90	36.1581920903955	36.241610738255	19	0.633461520150304	2	6	5	NaN	1	3	0.0528131511792984	0	1	NaN	110	2	47	1	120	220	320	NaN	520	0.261626393999904	1	1	NaN	2497293.8875581	NaN	2497294.871082	2497295.38762181
13	21	0	0	90	36.1581920903955	36.241610738255	25	0.833502000197768	2	1	4	NaN	1	4	0.0528131511792984	0	1	NaN	111	2	48	1	120	220	320	NaN	520	0.27082359790802	2	0	NaN	2497296.4546212	NaN	2497297.4380451	2497297.9545475
13	21	0	0	90	36.1581920903955	36.241610738255	20	0.666801600158215	2	7	5	NaN	2	3	0.0528131511792984	0	1	NaN	112	2	49	1	120	220	320	NaN	520	0.135127194225788	2	1	NaN	2497299.0382004	NaN	2497300.0215781	2497300.53813691
13	21	0	0	90	36.1581920903955	36.241610738255	6	0.200040480047464	2	8	1	NaN	2	5	0.0528131511792984	0	1	NaN	113	2	50	1	120	220	320	NaN	520	0.231172693893313	1	0	NaN	2497301.8216716	NaN	2497302.8051852	2497303.32173551
13	21	0	0	90	36.1581920903955	36.241610738255	20	0.666801600158215	2	1	5	NaN	1	3	0.0528131511792984	0	1	NaN	114	2	51	1	120	220	320	NaN	520	0.233916394412518	1	1	NaN	2497304.3552773	NaN	2497305.3387801	2497305.85532321
13	21	0	0	90	36.1581920903955	36.241610738255	21	0.700141680166125	2	4	6	NaN	1	3	0.0528131511792984	0	1	NaN	115	2	52	1	120	220	320	NaN	520	0.0915058441460133	1	1	NaN	2497306.9056417	NaN	2497307.8890262	2497308.40557106
13	21	0	0	90	36.1581920903955	36.241610738255	22	0.733481760174036	2	12	5	NaN	2	5	0.0528131511792984	0	1	NaN	116	2	53	1	120	220	320	NaN	520	0.267203045077622	2	1	NaN	2497309.3058962	NaN	2497310.2892681	2497310.80581266
13	21	0	0	90	36.1581920903955	36.241610738255	21	0.700141680166125	2	1	5	NaN	1	5	0.0528131511792984	0	1	NaN	117	2	54	1	120	220	320	NaN	520	1.38417184865102	2	0	NaN	2497312.1726859	NaN	2497313.1562361	2497313.67275975
13	21	0	0	90	36.1581920903955	36.241610738255	21	0.700141680166125	2	8	5	NaN	2	4	0.0528131511792984	0	1	NaN	118	2	55	1	120	220	320	NaN	520	0.564154794439673	1	0	NaN	2497315.8731837	NaN	2497316.8565676	2497317.37312121
13	21	0	0	90	36.1581920903955	36.241610738255	17	0.566781360134482	2	8	4	NaN	2	5	0.0528131511792984	0	1	NaN	119	2	56	1	120	220	320	NaN	520	0.0970173953101039	2	1	NaN	2497318.7401186	NaN	2497319.7235231	2497320.2400794
13	21	0	0	90	36.1581920903955	36.241610738255	10	0.333400800079107	2	7	6	NaN	2	5	0.0528131511792984	0	1	NaN	120	2	57	1	120	220	320	NaN	520	0.166238093748689	2	1	NaN	2497321.4070247	NaN	2497322.390434	2497322.90699471
13	21	0	0	90	36.1581920903955	36.241610738255	9	0.300060720071197	2	1	1	NaN	1	3	0.0528131511792984	0	1	NaN	121	2	58	1	120	220	320	NaN	520	0.050604545045644	1	1	NaN	2497323.8906398	NaN	2497324.8740322	2497325.39057226
13	21	0	0	90	36.1581920903955	36.241610738255	19	0.633461520150304	2	12	4	NaN	2	5	0.0528131511792984	0	1	NaN	122	2	59	1	120	220	320	NaN	520	0.283568591345102	2	1	NaN	2497326.2574429	NaN	2497327.2409937	2497327.75747531
13	21	0	0	90	36.1581920903955	36.241610738255	9	0.300060720071197	2	4	3	NaN	1	3	0.0528131511792984	0	1	NaN	123	2	60	1	120	220	320	NaN	520	0.275331845041364	2	0	NaN	2497328.8577938	NaN	2497329.8411619	2497330.35773996
13	21	0	0	90	36.1581920903955	36.241610738255	10	0.333400800079107	2	4	3	NaN	1	4	0.0528131511792984	0	1	NaN	124	2	61	1	120	220	320	NaN	520	0.0103941448032856	1	1	NaN	2497331.4412877	NaN	2497332.424772	2497332.94132516
13	21	0	0	90	36.1581920903955	36.241610738255	16	0.533441280126572	2	7	5	NaN	2	3	0.0528131511792984	0	1	NaN	125	2	62	1	120	220	320	NaN	520	0.0150495944544673	2	1	NaN	2497333.7582849	NaN	2497334.7416702	2497335.25821551
13	21	0	0	90	36.1581920903955	36.241610738255	0	0	1	6	2	NaN	1	3	0.0528131511792984	0	1	NaN	126	2	63	1	110	210	310	NaN	510	0.0103858453221619	1	1	NaN	2497336.591853	NaN	2497337.5752841	2497338.09183015
13	21	0	0	90	36.1581920903955	36.241610738255	8	0.266720640063286	2	6	4	NaN	1	3	0.0528131511792984	0	1	NaN	127	3	1	1	120	220	320	NaN	520	1.4591096942313	1	1	NaN	2497341.8422751	NaN	2497342.8257969	2497343.34234131
13	21	0	0	90	36.1581920903955	36.241610738255	22	0.733481760174036	2	5	1	NaN	1	3	0.0528131511792984	0	1	NaN	128	3	2	1	120	220	320	NaN	520	0.0104101942852139	2	0	NaN	2497345.6093821	NaN	2497346.5928318	2497347.10937461
13	21	0	0	90	36.1581920903955	36.241610738255	25	0.833502000197768	2	8	5	NaN	2	3	0.0528131511792984	0	1	NaN	129	3	3	1	120	220	320	NaN	520	0.214938794262707	2	1	NaN	2497347.9262066	NaN	2497348.9097307	2497349.42628161
13	21	0	0	90	36.1581920903955	36.241610738255	25	0.833502000197768	2	3	2	NaN	1	3	0.0528131511792984	0	1	NaN	130	3	4	1	120	220	320	NaN	520	0.185589245054871	1	1	NaN	2497350.4599168	NaN	2497351.4433132	2497351.95985745
13	21	0	0	90	36.1581920903955	36.241610738255	15	0.500101200118661	2	10	3	NaN	2	4	0.0528131511792984	0	1	NaN	131	3	5	1	120	220	320	NaN	520	0.196838094387203	2	1	NaN	2497352.9601651	NaN	2497353.943558	2497354.46009901
13	21	0	0	90	36.1581920903955	36.241610738255	17	0.566781360134482	2	3	2	NaN	1	5	0.0528131511792984	0	1	NaN	132	3	6	1	120	220	320	NaN	520	0.264925444964319	1	1	NaN	2497355.4604385	NaN	2497356.4438057	2497356.96034535
13	21	0	0	90	36.1581920903955	36.241610738255	10	0.333400800079107	2	7	5	NaN	2	3	0.0528131511792984	0	1	NaN	133	3	7	1	120	220	320	NaN	520	0.129973744507879	2	1	NaN	2497358.0272225	NaN	2497359.010728	2497359.52727196
13	21	0	0	90	36.1581920903955	36.241610738255	8	0.266720640063286	2	4	1	NaN	1	4	0.0528131511792984	0	1	NaN	134	3	8	1	120	220	320	NaN	520	0.512346544768661	1	1	NaN	2497360.4609937	NaN	2497361.4442917	2497361.96084786
13	21	0	0	90	36.1581920903955	36.241610738255	12	0.400080960094929	2	5	2	NaN	1	5	0.0528131511792984	0	1	NaN	135	3	9	1	120	220	320	NaN	520	0.103373294230551	1	1	NaN	2497363.2777655	NaN	2497364.2612447	2497364.77777691
13	21	0	0	90	36.1581920903955	36.241610738255	24	0.800161920189858	2	12	1	NaN	2	5	0.0528131511792984	0	1	NaN	136	3	10	1	120	220	320	NaN	520	0.518551445100456	2	1	NaN	2497365.6947332	NaN	2497366.678194	2497367.19469535
13	21	0	0	90	36.1581920903955	36.241610738255	17	0.566781360134482	2	2	2	NaN	1	4	0.0528131511792984	0	1	NaN	137	3	11	1	120	220	320	NaN	520	1.40484374482185	2	0	NaN	2497368.5283431	NaN	2497369.5117627	2497370.02830816
13	21	0	0	90	36.1581920903955	36.241610738255	24	0.800161920189858	2	9	2	NaN	2	5	0.0528131511792984	0	1	NaN	138	3	12	1	120	220	320	NaN	520	0.239633594639599	1	0	NaN	2497372.2452555	NaN	2497373.228783	2497373.74533571
13	21	0	0	90	36.1581920903955	36.241610738255	20	0.666801600158215	2	4	6	NaN	1	3	0.0528131511792984	0	1	NaN	139	3	13	1	120	220	320	NaN	520	0.361659194342792	1	1	NaN	2497374.7955378	NaN	2497375.7790316	2497376.29558091
13	21	0	0	90	36.1581920903955	36.241610738255	8	0.266720640063286	2	3	6	NaN	1	3	0.0528131511792984	0	1	NaN	140	3	14	1	120	220	320	NaN	520	0.0104073942638934	2	0	NaN	2497377.4624217	NaN	2497378.4459901	2497378.96250771
13	21	0	0	90	36.1581920903955	36.241610738255	17	0.566781360134482	2	10	1	NaN	2	5	0.0528131511792984	0	1	NaN	141	3	15	1	120	220	320	NaN	520	0.209724094253033	2	1	NaN	2497379.7794742	NaN	2497380.7628615	2497381.27940141
13	21	0	0	90	36.1581920903955	36.241610738255	8	0.266720640063286	2	9	3	NaN	2	3	0.0528131511792984	0	1	NaN	142	3	16	1	120	220	320	NaN	520	0.380907845217735	2	1	NaN	2497382.2963638	NaN	2497383.2797535	2497383.79631625
13	21	0	0	90	36.1581920903955	36.241610738255	18	0.600121440142393	2	3	5	NaN	1	5	0.0528131511792984	0	1	NaN	143	3	17	1	120	220	320	NaN	520	0.179305294062942	1	1	NaN	2497385.3298793	NaN	2497386.3134142	2497386.82995021
13	21	0	0	90	36.1581920903955	36.241610738255	22	0.733481760174036	2	2	5	NaN	1	3	0.0528131511792984	0	1	NaN	144	3	18	1	120	220	320	NaN	520	0.919110444840044	1	1	NaN	2497387.8302554	NaN	2497388.8137075	2497389.33020036
13	21	0	0	90	36.1581920903955	36.241610738255	17	0.566781360134482	2	5	4	NaN	1	5	0.0528131511792984	0	1	NaN	145	3	19	1	120	220	320	NaN	520	0.141708994284272	2	0	NaN	2497391.0639032	NaN	2497392.0473072	2497392.56384551
13	21	0	0	90	36.1581920903955	36.241610738255	17	0.566781360134482	2	8	4	NaN	2	5	0.0528131511792984	0	1	NaN	146	3	20	1	120	220	320	NaN	520	0.203164995182306	2	1	NaN	2497393.5141487	NaN	2497394.4975475	2497395.0140975
13	21	0	0	90	36.1581920903955	36.241610738255	18	0.600121440142393	2	12	1	NaN	2	4	0.0528131511792984	0	1	NaN	147	3	21	1	120	220	320	NaN	520	0.166246543638408	2	1	NaN	2497396.0310563	NaN	2497397.0144882	2497397.53099956
13	21	0	0	90	36.1581920903955	36.241610738255	21	0.700141680166125	2	11	4	NaN	2	3	0.0528131511792984	0	1	NaN	148	3	22	1	120	220	320	NaN	520	0.202488943934441	2	1	NaN	2497398.51464	NaN	2497399.4980309	2497400.01458136
13	21	0	0	90	36.1581920903955	36.241610738255	14	0.46676112011075	2	11	3	NaN	2	3	0.0528131511792984	0	1	NaN	149	3	23	1	120	220	320	NaN	520	0.213746143970639	2	1	NaN	2497401.0315466	NaN	2497402.0149412	2497402.53149866
13	21	0	0	90	36.1581920903955	36.241610738255	21	0.700141680166125	2	7	1	NaN	2	3	0.0528131511792984	0	1	NaN	150	3	24	1	120	220	320	NaN	520	0.400825344026089	2	1	NaN	2497403.5484535	NaN	2497404.5318624	2497405.04840236
13	21	0	0	90	36.1581920903955	36.241610738255	10	0.333400800079107	2	11	6	NaN	2	4	0.0528131511792984	0	1	NaN	151	3	25	1	120	220	320	NaN	520	0.300173594150692	2	1	NaN	2497406.2653965	NaN	2497407.2487961	2497407.76534151
13	21	0	0	90	36.1581920903955	36.241610738255	8	0.266720640063286	2	10	4	NaN	2	5	0.0528131511792984	0	1	NaN	152	3	26	1	120	220	320	NaN	520	0.0509563945233822	2	1	NaN	2497408.8823357	NaN	2497409.8657143	2497410.38226051
13	21	0	0	90	36.1581920903955	36.241610738255	13	0.433421040102839	2	9	4	NaN	2	5	0.0528131511792984	0	1	NaN	153	3	27	1	120	220	320	NaN	520	0.060198194347322	2	1	NaN	2497411.2492067	NaN	2497412.2326214	2497412.74916471
13	21	0	0	90	36.1581920903955	36.241610738255	19	0.633461520150304	2	5	5	NaN	1	5	0.0528131511792984	0	1	NaN	154	3	28	1	120	220	320	NaN	520	0.0104091945104301	1	1	NaN	2497413.6161037	NaN	2497414.5995196	2497415.11607281
13	21	0	0	90	36.1581920903955	36.241610738255	25	0.833502000197768	2	12	3	NaN	2	5	0.0528131511792984	0	1	NaN	155	3	29	1	120	220	320	NaN	520	0.360612543765455	2	1	NaN	2497415.933015	NaN	2497416.9164099	2497417.43296146
13	21	0	0	90	36.1581920903955	36.241610738255	10	0.333400800079107	2	4	4	NaN	1	4	0.0528131511792984	0	1	NaN	156	3	30	1	120	220	320	NaN	520	0.0287096435204148	1	1	NaN	2497418.6166142	NaN	2497419.6000049	2497420.11655486
13	21	0	0	90	36.1581920903955	36.241610738255	8	0.266720640063286	2	8	1	NaN	2	5	0.0528131511792984	0	1	NaN	157	3	31	1	120	220	320	NaN	520	0.359220944810659	1	0	NaN	2497420.9501867	NaN	2497421.9335729	2497422.45012576
13	21	0	0	90	36.1581920903955	36.241610738255	7	0.233380560055375	2	3	1	NaN	1	4	0.0528131511792984	0	1	NaN	158	3	32	1	120	220	320	NaN	520	0.0104062450118363	2	0	NaN	2497423.6171307	NaN	2497424.6005017	2497425.11705405
13	21	0	0	90	36.1581920903955	36.241610738255	18	0.600121440142393	2	5	5	NaN	1	4	0.0528131511792984	0	1	NaN	159	3	33	1	120	220	320	NaN	520	0.239622844848782	2	0	NaN	2497425.9338729	NaN	2497426.9173775	2497427.43395045
13	21	0	0	90	36.1581920903955	36.241610738255	14	0.46676112011075	2	6	2	NaN	1	5	0.0528131511792984	0	1	NaN	160	3	34	1	120	220	320	NaN	520	0.113124244846404	1	1	NaN	2497428.4842465	NaN	2497429.4676651	2497429.98419806
13	21	0	0	90	36.1581920903955	36.241610738255	13	0.433421040102839	2	6	1	NaN	1	4	0.0528131511792984	0	1	NaN	161	3	35	1	120	220	320	NaN	520	0.736309345345944	2	0	NaN	2497430.9010262	NaN	2497431.8844572	2497432.40110285
13	21	0	0	90	36.1581920903955	36.241610738255	10	0.333400800079107	2	11	1	NaN	2	3	0.0528131511792984	0	1	NaN	162	3	36	1	120	220	320	NaN	520	0.781895044725388	2	1	NaN	2497433.951448	NaN	2497434.9348507	2497435.45139606
13	21	0	0	90	36.1581920903955	36.241610738255	6	0.200040480047464	2	1	2	NaN	1	4	0.0528131511792984	0	1	NaN	163	3	37	1	120	220	320	NaN	520	0.210168445017189	1	1	NaN	2497437.034977	NaN	2497438.0184953	2497438.53504146
13	21	0	0	90	36.1581920903955	36.241610738255	7	0.233380560055375	2	8	3	NaN	2	4	0.0528131511792984	0	1	NaN	164	3	38	1	120	220	320	NaN	520	0.949630544986576	2	1	NaN	2497439.5520037	NaN	2497440.5354044	2497441.05195215
13	21	0	0	90	36.1581920903955	36.241610738255	21	0.700141680166125	2	10	5	NaN	2	5	0.0528131511792984	0	1	NaN	165	3	39	1	120	220	320	NaN	520	0.122535045724362	1	0	NaN	2497442.8189832	NaN	2497443.8023817	2497444.31895045
13	21	0	0	90	36.1581920903955	36.241610738255	15	0.500101200118661	2	12	5	NaN	2	3	0.0528131511792984	0	1	NaN	166	3	40	1	120	220	320	NaN	520	0.152881044894457	2	1	NaN	2497445.2525909	NaN	2497446.2359778	2497446.75250906
13	21	0	0	90	36.1581920903955	36.241610738255	24	0.800161920189858	2	7	2	NaN	2	4	0.0528131511792984	0	1	NaN	167	3	41	1	120	220	320	NaN	520	0.238183544948697	2	1	NaN	2497447.719465	NaN	2497448.7028672	2497449.21941896
13	21	0	0	90	36.1581920903955	36.241610738255	17	0.566781360134482	2	2	3	NaN	1	5	0.0528131511792984	0	1	NaN	168	3	42	1	120	220	320	NaN	520	0.239536143839359	1	1	NaN	2497450.2697494	NaN	2497451.2531028	2497451.76967086
13	21	0	0	90	36.1581920903955	36.241610738255	14	0.46676112011075	2	7	4	NaN	2	3	0.0528131511792984	0	1	NaN	169	3	43	1	120	220	320	NaN	520	0.769754845183343	2	1	NaN	2497452.8199675	NaN	2497453.8032679	2497454.31991995
13	21	0	0	90	36.1581920903955	36.241610738255	8	0.266720640063286	2	3	6	NaN	1	5	0.0528131511792984	0	1	NaN	170	3	44	1	120	220	320	NaN	520	0.222981793340296	2	0	NaN	2497456.0702889	NaN	2497457.0536877	2497457.57023941
13	21	0	0	90	36.1581920903955	36.241610738255	22	0.733481760174036	2	11	3	NaN	2	5	0.0528131511792984	0	1	NaN	171	3	45	1	120	220	320	NaN	520	0.257745094131678	1	0	NaN	2497458.603881	NaN	2497459.5871684	2497460.10382001
13	21	0	0	90	36.1581920903955	36.241610738255	23	0.766821840181947	2	2	4	NaN	1	3	0.0528131511792984	0	1	NaN	172	3	46	1	120	220	320	NaN	520	0.314715045038611	1	1	NaN	2497461.1707956	NaN	2497462.1542192	2497462.67073495
13	21	0	0	90	36.1581920903955	36.241610738255	7	0.233380560055375	2	4	4	NaN	1	5	0.0528131511792984	0	1	NaN	173	3	47	1	120	220	320	NaN	520	0.258816094137728	1	1	NaN	2497463.9543619	NaN	2497464.9377924	2497465.45434461
13	21	0	0	90	36.1581920903955	36.241610738255	13	0.433421040102839	2	9	2	NaN	2	4	0.0528131511792984	0	1	NaN	174	3	48	1	120	220	320	NaN	520	0.204113845247775	2	1	NaN	2497466.5213189	NaN	2497467.5047571	2497468.02126255
13	21	0	0	90	36.1581920903955	36.241610738255	20	0.666801600158215	2	4	5	NaN	1	3	0.0528131511792984	0	1	NaN	175	3	49	1	120	220	320	NaN	520	0.255149744916707	2	0	NaN	2497469.0381919	NaN	2497470.021635	2497470.53818486
13	21	0	0	90	36.1581920903955	36.241610738255	6	0.200040480047464	2	2	1	NaN	1	3	0.0528131511792984	0	1	NaN	176	3	50	1	120	220	320	NaN	520	1.27490919362754	1	1	NaN	2497471.9384838	NaN	2497472.9219093	2497473.43846031
13	21	0	0	90	36.1581920903955	36.241610738255	20	0.666801600158215	2	3	1	NaN	1	4	0.0528131511792984	0	1	NaN	177	3	51	1	120	220	320	NaN	520	0.0103965448215604	1	1	NaN	2497475.5222084	NaN	2497476.5056026	2497477.02215326
13	21	0	0	90	36.1581920903955	36.241610738255	18	0.600121440142393	2	10	5	NaN	2	5	0.0528131511792984	0	1	NaN	178	3	52	1	120	220	320	NaN	520	0.104869445320219	1	0	NaN	2497477.9724211	NaN	2497478.9558385	2497479.47239655
13	21	0	0	90	36.1581920903955	36.241610738255	7	0.233380560055375	2	7	3	NaN	2	5	0.0528131511792984	0	1	NaN	179	3	53	1	120	220	320	NaN	520	0.062123594339937	2	1	NaN	2497480.6393781	NaN	2497481.6226724	2497482.13931691
13	21	0	0	90	36.1581920903955	36.241610738255	20	0.666801600158215	2	8	1	NaN	2	4	0.0528131511792984	0	1	NaN	180	3	54	1	120	220	320	NaN	520	0.0103767951950431	1	0	NaN	2497483.3561745	NaN	2497484.3397026	2497484.8562594
13	21	0	0	90	36.1581920903955	36.241610738255	17	0.566781360134482	2	12	6	NaN	2	5	0.0528131511792984	0	1	NaN	181	3	55	1	120	220	320	NaN	520	0.219291193876415	2	1	NaN	2497485.6898884	NaN	2497486.6732984	2497487.18981841
13	21	0	0	90	36.1581920903955	36.241610738255	18	0.600121440142393	2	5	1	NaN	1	4	0.0528131511792984	0	1	NaN	182	3	56	1	120	220	320	NaN	520	0.0104240439832211	2	0	NaN	2497488.2235424	NaN	2497489.2068513	2497489.72339686
13	21	0	0	90	36.1581920903955	36.241610738255	12	0.400080960094929	2	5	6	NaN	1	5	0.0528131511792984	0	1	NaN	183	3	57	1	120	220	320	NaN	520	0.305143494158983	1	1	NaN	2497490.5404424	NaN	2497491.523746	2497492.04029291
13	21	0	0	90	36.1581920903955	36.241610738255	14	0.46676112011075	2	12	3	NaN	2	4	0.0528131511792984	0	1	NaN	184	3	58	1	120	220	320	NaN	520	0.240457094274461	2	1	NaN	2497493.1572865	NaN	2497494.1406344	2497494.65721771
13	21	0	0	90	36.1581920903955	36.241610738255	0	0	1	1	6	NaN	1	3	0.0528131511792984	0	1	NaN	185	3	59	1	110	210	310	NaN	510	0.0498908450827003	2	0	NaN	2497495.7075151	NaN	2497496.6909114	2497497.20747455
13	21	0	0	90	36.1581920903955	36.241610738255	7	0.233380560055375	2	9	4	NaN	2	4	0.0528131511792984	0	1	NaN	186	3	60	1	120	220	320	NaN	520	0.0103924446739256	2	1	NaN	2497498.0744222	NaN	2497499.0578206	2497499.57436976
13	21	0	0	90	36.1581920903955	36.241610738255	20	0.666801600158215	2	6	2	NaN	1	4	0.0528131511792984	0	1	NaN	187	3	61	1	120	220	320	NaN	520	0.269713845103979	1	1	NaN	2497500.407994	NaN	2497501.3913771	2497501.90793735
13	21	0	0	90	36.1581920903955	36.241610738255	18	0.600121440142393	2	7	3	NaN	2	5	0.0528131511792984	0	1	NaN	188	3	62	1	120	220	320	NaN	520	0.656554145272821	2	1	NaN	2497503.1248917	NaN	2497504.1082986	2497504.62486055
13	21	0	0	90	36.1581920903955	36.241610738255	17	0.566781360134482	2	6	3	NaN	1	5	0.0528131511792984	0	1	NaN	189	3	63	1	120	220	320	NaN	520	0.199508843943477	1	1	NaN	2497506.1418969	NaN	2497507.1252914	2497507.64182746
13	21	0	0	90	36.1581920903955	36.241610738255	6	0.200040480047464	2	5	6	NaN	1	5	0.0528131511792984	0	1	NaN	190	4	1	1	120	220	320	NaN	520	0.0102537986822426	1	1	NaN	2497528.5107553	NaN	2497529.4941447	2497530.0107002
13	21	0	0	90	36.1581920903955	36.241610738255	25	0.833502000197768	2	4	1	NaN	1	5	0.0528131511792984	0	1	NaN	191	4	2	1	120	220	320	NaN	520	0.233156744856387	1	1	NaN	2497530.8443024	NaN	2497531.8278306	2497532.34426206
13	21	0	0	90	36.1581920903955	36.241610738255	9	0.300060720071197	2	3	3	NaN	1	3	0.0528131511792984	0	1	NaN	192	4	3	1	120	220	320	NaN	520	0.92301699379459	1	1	NaN	2497533.394538	NaN	2497534.3779817	2497534.89450001
13	21	0	0	90	36.1581920903955	36.241610738255	14	0.46676112011075	2	2	2	NaN	1	4	0.0528131511792984	0	1	NaN	193	4	4	1	120	220	320	NaN	520	0.0412428448908031	1	1	NaN	2497536.6282275	NaN	2497537.6116007	2497538.12815666
13	21	0	0	90	36.1581920903955	36.241610738255	17	0.566781360134482	2	4	1	NaN	1	3	0.0528131511792984	0	1	NaN	194	4	5	1	120	220	320	NaN	520	0.225304694380611	2	0	NaN	2497539.4284574	NaN	2497540.4118884	2497540.92842701
13	21	0	0	90	36.1581920903955	36.241610738255	17	0.566781360134482	2	1	6	NaN	1	4	0.0528131511792984	0	1	NaN	195	4	6	1	120	220	320	NaN	520	0.635408543981612	2	0	NaN	2497541.9619488	NaN	2497542.9455483	2497543.46201196
13	21	0	0	90	36.1581920903955	36.241610738255	14	0.46676112011075	2	5	1	NaN	1	4	0.0528131511792984	0	1	NaN	196	4	7	1	120	220	320	NaN	520	0.0104107945226133	2	0	NaN	2497544.9123668	NaN	2497545.8957511	2497546.41230801
13	21	0	0	90	36.1581920903955	36.241610738255	13	0.433421040102839	2	8	6	NaN	2	5	0.0528131511792984	0	1	NaN	197	4	8	1	120	220	320	NaN	520	0.0103826955892146	1	0	NaN	2497547.229228	NaN	2497548.2126487	2497548.7292063
13	21	0	0	90	36.1581920903955	36.241610738255	20	0.666801600158215	2	10	4	NaN	2	5	0.0528131511792984	0	1	NaN	198	4	9	1	120	220	320	NaN	520	0.379747194238007	2	1	NaN	2497549.5461439	NaN	2497550.5295586	2497551.04609041
13	21	0	0	90	36.1581920903955	36.241610738255	7	0.233380560055375	2	2	4	NaN	1	3	0.0528131511792984	0	1	NaN	199	4	10	1	120	220	320	NaN	520	1.13492994522676	1	1	NaN	2497552.2463424	NaN	2497553.2298093	2497553.74635705
13	21	0	0	90	36.1581920903955	36.241610738255	11	0.366740880087018	2	9	5	NaN	2	5	0.0528131511792984	0	1	NaN	200	4	11	1	120	220	320	NaN	520	0.0104208439588547	2	1	NaN	2497555.6967876	NaN	2497556.6801611	2497557.19669616
13	21	0	0	90	36.1581920903955	36.241610738255	14	0.46676112011075	2	5	2	NaN	1	5	0.0528131511792984	0	1	NaN	201	4	12	1	120	220	320	NaN	520	0.71921459492296	2	0	NaN	2497558.0303107	NaN	2497559.0137192	2497559.530269
13	21	0	0	90	36.1581920903955	36.241610738255	10	0.333400800079107	2	3	5	NaN	1	5	0.0528131511792984	0	1	NaN	202	4	13	1	120	220	320	NaN	520	0.0855751940980554	1	1	NaN	2497561.0640082	NaN	2497562.0473767	2497562.56389061
13	21	0	0	90	36.1581920903955	36.241610738255	14	0.46676112011075	2	8	2	NaN	2	3	0.0528131511792984	0	1	NaN	203	4	14	1	120	220	320	NaN	520	0.0739762485027313	2	1	NaN	2497563.747522	NaN	2497564.730942	2497565.24749305
13	21	0	0	90	36.1581920903955	36.241610738255	9	0.300060720071197	2	8	3	NaN	2	5	0.0528131511792984	0	1	NaN	204	4	15	1	120	220	320	NaN	520	0.842915744986385	2	1	NaN	2497566.314426	NaN	2497567.2978658	2497567.81441576
13	21	0	0	90	36.1581920903955	36.241610738255	6	0.200040480047464	2	3	4	NaN	1	5	0.0528131511792984	0	1	NaN	205	4	16	1	120	220	320	NaN	520	0.418416345026344	1	1	NaN	2497569.5314464	NaN	2497570.5147377	2497571.03139395
13	21	0	0	90	36.1581920903955	36.241610738255	24	0.800161920189858	2	2	3	NaN	1	4	0.0528131511792984	0	1	NaN	206	4	17	1	120	220	320	NaN	520	0.380379245150834	1	1	NaN	2497572.2650693	NaN	2497573.2485029	2497573.76499945
13	21	0	0	90	36.1581920903955	36.241610738255	13	0.433421040102839	2	7	6	NaN	2	5	0.0528131511792984	0	1	NaN	207	4	18	1	120	220	320	NaN	520	0.865036894567311	1	0	NaN	2497574.948649	NaN	2497575.9320494	2497576.44859861
13	21	0	0	90	36.1581920903955	36.241610738255	17	0.566781360134482	2	4	5	NaN	1	5	0.0528131511792984	0	1	NaN	208	4	19	1	120	220	320	NaN	520	0.010386744979769	1	1	NaN	2497578.1323027	NaN	2497579.1156962	2497579.63224116
13	21	0	0	90	36.1581920903955	36.241610738255	8	0.266720640063286	2	5	1	NaN	1	5	0.0528131511792984	0	1	NaN	209	4	20	1	120	220	320	NaN	520	0.23569039395079	2	0	NaN	2497580.4658457	NaN	2497581.4492593	2497581.96579911
13	21	0	0	90	36.1581920903955	36.241610738255	12	0.400080960094929	2	3	6	NaN	1	4	0.0528131511792984	0	1	NaN	210	4	21	1	120	220	320	NaN	520	0.0104212942533195	1	1	NaN	2497583.0160937	NaN	2497583.9995055	2497584.51604951
13	21	0	0	90	36.1581920903955	36.241610738255	22	0.733481760174036	2	6	2	NaN	1	5	0.0528131511792984	0	1	NaN	211	4	22	1	120	220	320	NaN	520	0.263782645110041	1	1	NaN	2497585.3495838	NaN	2497586.3330903	2497586.84961685
13	21	0	0	90	36.1581920903955	36.241610738255	12	0.400080960094929	2	6	4	NaN	1	5	0.0528131511792984	0	1	NaN	212	4	23	1	120	220	320	NaN	520	0.377354045398533	1	1	NaN	2497587.9166217	NaN	2497588.8999837	2497589.41653735
13	21	0	0	90	36.1581920903955	36.241610738255	13	0.433421040102839	2	10	5	NaN	2	4	0.0528131511792984	0	1	NaN	213	4	24	1	120	220	320	NaN	520	0.221335443668067	1	0	NaN	2497590.6000766	NaN	2497591.5836047	2497592.10012696
13	21	0	0	90	36.1581920903955	36.241610738255	16	0.533441280126572	2	2	4	NaN	1	4	0.0528131511792984	0	1	NaN	214	4	25	1	120	220	320	NaN	520	0.208115794230253	1	1	NaN	2497593.1337362	NaN	2497594.1171681	2497594.63371471
13	21	0	0	90	36.1581920903955	36.241610738255	23	0.766821840181947	2	1	6	NaN	1	4	0.0528131511792984	0	1	NaN	215	4	26	1	120	220	320	NaN	520	0.0103942449204624	2	0	NaN	2497595.9502989	NaN	2497596.9341058	2497597.45065835
13	21	0	0	90	36.1581920903955	36.241610738255	19	0.633461520150304	2	1	1	NaN	1	3	0.0528131511792984	0	1	NaN	216	4	27	1	120	220	320	NaN	520	0.16220799414441	2	0	NaN	2497598.2676612	NaN	2497599.2509999	2497599.76754551
13	21	0	0	90	36.1581920903955	36.241610738255	17	0.566781360134482	2	10	1	NaN	2	5	0.0528131511792984	0	1	NaN	217	4	28	1	120	220	320	NaN	520	0.0543312449008226	2	1	NaN	2497600.7511788	NaN	2497601.7345845	2497602.25112456
13	21	0	0	90	36.1581920903955	36.241610738255	11	0.366740880087018	2	12	3	NaN	2	3	0.0528131511792984	0	1	NaN	218	4	29	1	120	220	320	NaN	520	0.343936444725841	2	1	NaN	2497603.1179517	NaN	2497604.1014819	2497604.61803056
13	21	0	0	90	36.1581920903955	36.241610738255	23	0.766821840181947	2	8	5	NaN	2	3	0.0528131511792984	0	1	NaN	219	4	30	1	120	220	320	NaN	520	0.367269694339484	2	1	NaN	2497606.1183484	NaN	2497607.1017705	2497607.61832791
13	21	0	0	90	36.1581920903955	36.241610738255	14	0.46676112011075	2	8	2	NaN	2	4	0.0528131511792984	0	1	NaN	220	4	31	1	120	220	320	NaN	520	0.0104326442815363	2	1	NaN	2497608.8019791	NaN	2497609.7853662	2497610.30193996
13	21	0	0	90	36.1581920903955	36.241610738255	21	0.700141680166125	2	3	4	NaN	1	4	0.0528131511792984	0	1	NaN	221	4	32	1	120	220	320	NaN	520	0.246889644768089	2	0	NaN	2497611.1188999	NaN	2497612.1022678	2497612.61880746
13	21	0	0	90	36.1581920903955	36.241610738255	15	0.500101200118661	2	2	2	NaN	1	4	0.0528131511792984	0	1	NaN	222	4	33	1	120	220	320	NaN	520	0.303814094047993	1	1	NaN	2497613.6857788	NaN	2497614.6691899	2497615.18573061
13	21	0	0	90	36.1581920903955	36.241610738255	6	0.200040480047464	2	5	4	NaN	1	3	0.0528131511792984	0	1	NaN	223	4	34	1	120	220	320	NaN	520	0.174875545315444	1	1	NaN	2497616.3026075	NaN	2497617.2861475	2497617.80265395
13	21	0	0	90	36.1581920903955	36.241610738255	21	0.700141680166125	2	8	6	NaN	2	4	0.0528131511792984	0	1	NaN	224	4	35	1	120	220	320	NaN	520	0.0104396436363459	2	1	NaN	2497618.7863032	NaN	2497619.7696827	2497620.28623656
13	21	0	0	90	36.1581920903955	36.241610738255	17	0.566781360134482	2	6	1	NaN	1	4	0.0528131511792984	0	1	NaN	225	4	36	1	120	220	320	NaN	520	1.70338054513559	2	0	NaN	2497621.4864211	NaN	2497622.4699562	2497622.98650126
13	21	0	0	90	36.1581920903955	36.241610738255	14	0.46676112011075	2	4	6	NaN	1	3	0.0528131511792984	0	1	NaN	226	4	37	1	120	220	320	NaN	520	0.214340794365853	1	1	NaN	2497625.5036108	NaN	2497626.4870275	2497627.00356561
13	21	0	0	90	36.1581920903955	36.241610738255	16	0.533441280126572	2	3	3	NaN	1	3	0.0528131511792984	0	1	NaN	227	4	38	1	120	220	320	NaN	520	0.16937739495188	1	1	NaN	2497628.0204583	NaN	2497629.0039378	2497629.520481
13	21	0	0	90	36.1581920903955	36.241610738255	13	0.433421040102839	2	11	4	NaN	2	4	0.0528131511792984	0	1	NaN	228	4	39	1	120	220	320	NaN	520	0.229429694358259	2	1	NaN	2497630.5040987	NaN	2497631.4875021	2497632.00405231
13	21	0	0	90	36.1581920903955	36.241610738255	17	0.566781360134482	2	3	6	NaN	1	4	0.0528131511792984	0	1	NaN	229	4	40	1	120	220	320	NaN	520	0.375551744829863	1	1	NaN	2497633.0543672	NaN	2497634.0377301	2497634.55430196
13	21	0	0	90	36.1581920903955	36.241610738255	21	0.700141680166125	2	12	3	NaN	2	3	0.0528131511792984	0	1	NaN	230	4	41	1	120	220	320	NaN	520	0.235299745108932	2	1	NaN	2497635.7546022	NaN	2497636.7380101	2497637.25457335
13	21	0	0	90	36.1581920903955	36.241610738255	11	0.366740880087018	2	5	3	NaN	1	3	0.0528131511792984	0	1	NaN	231	4	42	1	120	220	320	NaN	520	0.0925404448062181	1	1	NaN	2497638.3048812	NaN	2497639.2882673	2497639.80481756
13	21	0	0	90	36.1581920903955	36.241610738255	20	0.666801600158215	2	11	6	NaN	2	4	0.0528131511792984	0	1	NaN	232	4	43	1	120	220	320	NaN	520	0.212586098816246	2	1	NaN	2497640.7049843	NaN	2497641.6885034	2497642.205059
13	21	0	0	90	36.1581920903955	36.241610738255	12	0.400080960094929	2	11	5	NaN	2	5	0.0528131511792984	0	1	NaN	233	4	44	1	120	220	320	NaN	520	0.208044944796711	2	1	NaN	2497643.2220221	NaN	2497644.2053906	2497644.72196686
13	21	0	0	90	36.1581920903955	36.241610738255	9	0.300060720071197	2	5	2	NaN	1	4	0.0528131511792984	0	1	NaN	234	4	45	1	120	220	320	NaN	520	0.170982643961906	2	0	NaN	2497645.7389374	NaN	2497646.7223454	2497647.23887736
13	21	0	0	90	36.1581920903955	36.241610738255	0	0	1	2	6	NaN	1	5	0.0528131511792984	0	1	NaN	235	4	46	1	110	210	310	NaN	510	0.255393044091761	2	0	NaN	2497648.2225098	NaN	2497649.2059086	2497649.72245286
13	21	0	0	90	36.1581920903955	36.241610738255	11	0.366740880087018	2	10	4	NaN	2	4	0.0528131511792984	0	1	NaN	236	4	47	1	120	220	320	NaN	520	0.248173943720758	2	1	NaN	2497650.7893222	NaN	2497651.7728396	2497652.28937526
13	21	0	0	90	36.1581920903955	36.241610738255	15	0.500101200118661	2	5	4	NaN	1	5	0.0528131511792984	0	1	NaN	237	4	48	1	120	220	320	NaN	520	0.521078044082969	2	0	NaN	2497653.3563423	NaN	2497654.3397475	2497654.85630116
13	21	0	0	90	36.1581920903955	36.241610738255	16	0.533441280126572	2	4	1	NaN	1	4	0.0528131511792984	0	1	NaN	238	4	49	1	120	220	320	NaN	520	0.247838044073433	2	0	NaN	2497656.1899576	NaN	2497657.1733911	2497657.68991596
13	21	0	0	90	36.1581920903955	36.241610738255	6	0.200040480047464	2	11	2	NaN	2	4	0.0528131511792984	0	1	NaN	239	4	50	1	120	220	320	NaN	520	0.128796244971454	2	1	NaN	2497658.7569169	NaN	2497659.7402782	2497660.25682545
13	21	0	0	90	36.1581920903955	36.241610738255	11	0.366740880087018	2	11	3	NaN	2	4	0.0528131511792984	0	1	NaN	240	4	51	1	120	220	320	NaN	520	0.206403145100921	2	1	NaN	2497661.2071228	NaN	2497662.1905085	2497662.70707285
13	21	0	0	90	36.1581920903955	36.241610738255	8	0.266720640063286	2	10	3	NaN	2	4	0.0528131511792984	0	1	NaN	241	4	52	1	120	220	320	NaN	520	0.0176331447437406	1	0	NaN	2497663.7238961	NaN	2497664.7074291	2497665.22400736
13	21	0	0	90	36.1581920903955	36.241610738255	22	0.733481760174036	2	7	5	NaN	2	3	0.0528131511792984	0	1	NaN	242	4	53	1	120	220	320	NaN	520	0.010406494140625	2	1	NaN	2497666.0575924	NaN	2497667.0409921	2497667.55755211
13	21	0	0	90	36.1581920903955	36.241610738255	8	0.266720640063286	2	2	6	NaN	1	4	0.0528131511792984	0	1	NaN	243	4	54	1	120	220	320	NaN	520	0.0792315937578678	2	0	NaN	2497668.3745869	NaN	2497669.3578736	2497669.87444481
13	21	0	0	90	36.1581920903955	36.241610738255	0	0	1	9	5	NaN	2	3	0.0528131511792984	0	1	NaN	244	4	55	1	110	210	310	NaN	510	0.294927394017577	1	0	NaN	2497670.7747233	NaN	2497671.7581572	2497672.27468331
13	21	0	0	90	36.1581920903955	36.241610738255	16	0.533441280126572	2	2	2	NaN	1	5	0.0528131511792984	0	1	NaN	245	4	56	1	120	220	320	NaN	520	0.230761994142085	1	1	NaN	2497673.3749709	NaN	2497674.3582752	2497674.87492751
13	21	0	0	90	36.1581920903955	36.241610738255	11	0.366740880087018	2	8	4	NaN	2	5	0.0528131511792984	0	1	NaN	246	4	57	1	120	220	320	NaN	520	0.344417844898999	1	0	NaN	2497675.9251154	NaN	2497676.9086288	2497677.42518906
13	21	0	0	90	36.1581920903955	36.241610738255	11	0.366740880087018	2	5	3	NaN	1	3	0.0528131511792984	0	1	NaN	247	4	58	1	120	220	320	NaN	520	0.0103673962876201	1	1	NaN	2497678.5921781	NaN	2497679.5755629	2497680.0921165
13	21	0	0	90	36.1581920903955	36.241610738255	24	0.800161920189858	2	6	6	NaN	1	3	0.0528131511792984	0	1	NaN	248	4	59	1	120	220	320	NaN	520	0.383717094082385	1	1	NaN	2497680.9257585	NaN	2497681.9091556	2497682.42566931
13	21	0	0	90	36.1581920903955	36.241610738255	14	0.46676112011075	2	6	3	NaN	1	5	0.0528131511792984	0	1	NaN	249	4	60	1	120	220	320	NaN	520	0.16362884407863	1	1	NaN	2497683.6259643	NaN	2497684.6094586	2497685.12593216
13	21	0	0	90	36.1581920903955	36.241610738255	0	0	1	8	3	NaN	2	4	0.0528131511792984	0	1	NaN	250	4	61	1	110	210	310	NaN	510	0.136309444904327	2	1	NaN	2497686.109585	NaN	2497687.0929732	2497687.60952045
13	21	0	0	90	36.1581920903955	36.241610738255	7	0.233380560055375	2	5	2	NaN	1	4	0.0528131511792984	0	1	NaN	251	4	62	1	120	220	320	NaN	520	0.0138806952163577	1	1	NaN	2497688.5596755	NaN	2497689.5432053	2497690.0597632
13	21	0	0	90	36.1581920903955	36.241610738255	0	0	1	5	3	NaN	1	4	0.0528131511792984	0	1	NaN	252	4	63	1	110	210	310	NaN	510	0.42527329409495	2	0	NaN	2497690.8767134	NaN	2497691.8600874	2497692.37665741
13	21	0	0	90	36.1581920903955	36.241610738255	23	0.766821840181947	2	10	4	NaN	2	5	0.0528131511792984	0	1	NaN	253	5	1	1	120	220	320	NaN	520	0.862116594333202	2	1	NaN	2497697.5273384	NaN	2497698.5107791	2497699.02731221
13	21	0	0	90	36.1581920903955	36.241610738255	11	0.366740880087018	2	4	3	NaN	1	3	0.0528131511792984	0	1	NaN	254	5	2	1	120	220	320	NaN	520	0.159412445034832	2	0	NaN	2497700.6942055	NaN	2497701.6777401	2497702.19427925
13	21	0	0	90	36.1581920903955	36.241610738255	21	0.700141680166125	2	2	5	NaN	1	4	0.0528131511792984	0	1	NaN	255	5	3	1	120	220	320	NaN	520	0.252281044609845	1	1	NaN	2497703.1612509	NaN	2497704.1446554	2497704.66120066
13	21	0	0	90	36.1581920903955	36.241610738255	12	0.400080960094929	2	2	1	NaN	1	5	0.0528131511792984	0	1	NaN	256	5	4	1	120	220	320	NaN	520	0.293615845032036	1	1	NaN	2497705.7281789	NaN	2497706.7115416	2497707.22811595
13	21	0	0	90	36.1581920903955	36.241610738255	23	0.766821840181947	2	6	6	NaN	1	4	0.0528131511792984	0	1	NaN	257	5	5	1	120	220	320	NaN	520	0.249590394087136	1	1	NaN	2497708.628405	NaN	2497709.611851	2497710.12839811
13	21	0	0	90	36.1581920903955	36.241610738255	9	0.300060720071197	2	6	1	NaN	1	5	0.0528131511792984	0	1	NaN	258	5	6	1	120	220	320	NaN	520	0.210322745144367	1	1	NaN	2497711.1953917	NaN	2497712.1787687	2497712.69531215
13	21	0	0	90	36.1581920903955	36.241610738255	15	0.500101200118661	2	12	2	NaN	2	3	0.0528131511792984	0	1	NaN	259	5	7	1	120	220	320	NaN	520	0.0103935953229666	2	1	NaN	2497713.9122767	NaN	2497714.8956794	2497715.4122579
13	21	0	0	90	36.1581920903955	36.241610738255	0	0	1	10	1	NaN	2	5	0.0528131511792984	0	1	NaN	260	5	8	1	110	210	310	NaN	510	0.136526494286954	2	1	NaN	2497716.2290721	NaN	2497717.2125827	2497717.72915131
13	21	0	0	90	36.1581920903955	36.241610738255	23	0.766821840181947	2	5	3	NaN	1	3	0.0528131511792984	0	1	NaN	261	5	9	1	120	220	320	NaN	520	0.270634193904698	1	1	NaN	2497718.6794392	NaN	2497719.6628233	2497720.17937871
13	21	0	0	90	36.1581920903955	36.241610738255	6	0.200040480047464	2	12	2	NaN	2	5	0.0528131511792984	0	1	NaN	262	5	10	1	120	220	320	NaN	520	0.0103949452750385	2	1	NaN	2497721.263004	NaN	2497722.2464199	2497722.76297945
13	21	0	0	90	36.1581920903955	36.241610738255	0	0	1	3	2	NaN	1	5	0.0528131511792984	0	1	NaN	263	5	11	1	110	210	310	NaN	510	0.194078593980521	1	1	NaN	2497723.5799203	NaN	2497724.563329	2497725.07986871
13	21	0	0	90	36.1581920903955	36.241610738255	18	0.600121440142393	2	12	4	NaN	2	3	0.0528131511792984	0	1	NaN	264	5	12	1	120	220	320	NaN	520	0.197876145131886	2	1	NaN	2497726.0801665	NaN	2497727.0635654	2497727.58011115
13	21	0	0	90	36.1581920903955	36.241610738255	20	0.666801600158215	2	7	5	NaN	2	4	0.0528131511792984	0	1	NaN	265	5	13	1	120	220	320	NaN	520	0.240859293844551	2	1	NaN	2497728.5970901	NaN	2497729.5804736	2497730.09702731
13	21	0	0	90	36.1581920903955	36.241610738255	15	0.500101200118661	2	7	2	NaN	2	3	0.0528131511792984	0	1	NaN	266	5	14	1	120	220	320	NaN	520	0.250755148008466	2	1	NaN	2497731.1473414	NaN	2497732.1307356	2497732.64727995
13	21	0	0	90	36.1581920903955	36.241610738255	11	0.366740880087018	2	1	2	NaN	1	4	0.0528131511792984	0	1	NaN	267	5	15	1	120	220	320	NaN	520	0.451523594092578	1	1	NaN	2497733.7142509	NaN	2497734.6976637	2497735.21419191
13	21	0	0	90	36.1581920903955	36.241610738255	18	0.600121440142393	2	10	3	NaN	2	4	0.0528131511792984	0	1	NaN	268	5	16	1	120	220	320	NaN	520	0.0739393453113735	2	1	NaN	2497736.5478246	NaN	2497737.5312589	2497738.04781285
13	21	0	0	90	36.1581920903955	36.241610738255	10	0.333400800079107	2	10	2	NaN	2	5	0.0528131511792984	0	1	NaN	269	5	17	1	120	220	320	NaN	520	0.0483196941204369	1	0	NaN	2497739.1813313	NaN	2497740.1648409	2497740.68139781
13	21	0	0	90	36.1581920903955	36.241610738255	14	0.46676112011075	2	3	5	NaN	1	3	0.0528131511792984	0	1	NaN	270	5	18	1	120	220	320	NaN	520	0.0974747445434332	2	0	NaN	2497741.5483626	NaN	2497742.5317501	2497743.04829286
13	21	0	0	90	36.1581920903955	36.241610738255	21	0.700141680166125	2	9	3	NaN	2	5	0.0528131511792984	0	1	NaN	271	5	19	1	120	220	320	NaN	520	0.217278394382447	2	1	NaN	2497743.9486012	NaN	2497744.9319773	2497745.44853681
13	21	0	0	90	36.1581920903955	36.241610738255	22	0.733481760174036	2	12	2	NaN	2	5	0.0528131511792984	0	1	NaN	272	5	20	1	120	220	320	NaN	520	0.275860644876957	1	0	NaN	2497746.4821826	NaN	2497747.4655639	2497747.98211385
13	21	0	0	90	36.1581920903955	36.241610738255	23	0.766821840181947	2	9	5	NaN	2	5	0.0528131511792984	0	1	NaN	273	5	21	1	120	220	320	NaN	520	0.212367593776435	2	1	NaN	2497749.0657841	NaN	2497750.0491578	2497750.56570701
13	21	0	0	90	36.1581920903955	36.241610738255	22	0.733481760174036	2	1	4	NaN	1	4	0.0528131511792984	0	1	NaN	274	5	22	1	120	220	320	NaN	520	0.142447544727474	2	0	NaN	2497751.5993382	NaN	2497752.5827337	2497753.09929076
13	21	0	0	90	36.1581920903955	36.241610738255	19	0.633461520150304	2	8	2	NaN	2	4	0.0528131511792984	0	1	NaN	275	5	23	1	120	220	320	NaN	520	0.132112494204193	2	1	NaN	2497754.0495712	NaN	2497755.0330353	2497755.54952231
13	21	0	0	90	36.1581920903955	36.241610738255	12	0.400080960094929	2	6	1	NaN	1	3	0.0528131511792984	0	1	NaN	276	5	24	1	120	220	320	NaN	520	0.0736582446843386	2	0	NaN	2497756.4998312	NaN	2497757.4832234	2497757.99976306
13	21	0	0	90	36.1581920903955	36.241610738255	6	0.200040480047464	2	7	1	NaN	2	5	0.0528131511792984	0	1	NaN	277	5	25	1	120	220	320	NaN	520	0.0743916938081384	2	1	NaN	2497758.8834056	NaN	2497759.8667853	2497760.38333821
13	21	0	0	90	36.1581920903955	36.241610738255	22	0.733481760174036	2	9	6	NaN	2	4	0.0528131511792984	0	1	NaN	278	5	26	1	120	220	320	NaN	520	0.491229794919491	2	1	NaN	2497761.2669765	NaN	2497762.250343	2497762.766908
13	21	0	0	90	36.1581920903955	36.241610738255	20	0.666801600158215	2	9	3	NaN	2	5	0.0528131511792984	0	1	NaN	279	5	27	1	120	220	320	NaN	520	0.234430094249547	1	0	NaN	2497764.0671086	NaN	2497765.0506305	2497765.56717511
13	21	0	0	90	36.1581920903955	36.241610738255	18	0.600121440142393	2	11	4	NaN	2	3	0.0528131511792984	0	1	NaN	280	5	28	1	120	220	320	NaN	520	0.0762954452075064	2	1	NaN	2497766.6174714	NaN	2497767.6008813	2497768.11742245
13	21	0	0	90	36.1581920903955	36.241610738255	13	0.433421040102839	2	5	2	NaN	1	3	0.0528131511792984	0	1	NaN	281	5	29	1	120	220	320	NaN	520	0.28485664865002	1	1	NaN	2497769.0010275	NaN	2497769.9844347	2497770.50099535
13	21	0	0	90	36.1581920903955	36.241610738255	11	0.366740880087018	2	8	4	NaN	2	3	0.0528131511792984	0	1	NaN	282	5	30	1	120	220	320	NaN	520	0.756448995321989	2	1	NaN	2497771.6013467	NaN	2497772.5847	2497773.1012554
13	21	0	0	90	36.1581920903955	36.241610738255	16	0.533441280126572	2	1	6	NaN	1	3	0.0528131511792984	0	1	NaN	283	5	31	1	120	220	320	NaN	520	0.565358493942767	2	0	NaN	2497774.7682544	NaN	2497775.7516831	2497776.26822861
13	21	0	0	90	36.1581920903955	36.241610738255	12	0.400080960094929	2	3	3	NaN	1	3	0.0528131511792984	0	1	NaN	284	5	32	1	120	220	320	NaN	520	0.362030195072293	1	1	NaN	2497777.6519055	NaN	2497778.6352922	2497779.1518474
13	21	0	0	90	36.1581920903955	36.241610738255	12	0.400080960094929	2	12	2	NaN	2	5	0.0528131511792984	0	1	NaN	285	5	33	1	120	220	320	NaN	520	0.254520544782281	2	1	NaN	2497780.3354956	NaN	2497781.3188837	2497781.83544576
13	21	0	0	90	36.1581920903955	36.241610738255	0	0	1	11	6	NaN	2	4	0.0528131511792984	0	1	NaN	286	5	34	1	110	210	310	NaN	510	1.99141429364681	2	1	NaN	2497782.9024083	NaN	2497783.8858143	2497784.40235691
13	21	0	0	90	36.1581920903955	36.241610738255	18	0.600121440142393	2	8	5	NaN	2	5	0.0528131511792984	0	1	NaN	287	5	35	1	120	220	320	NaN	520	0.0103041478432715	2	1	NaN	2497787.2028451	NaN	2497788.1862431	2497788.70279685
13	21	0	0	90	36.1581920903955	36.241610738255	15	0.500101200118661	2	8	2	NaN	2	5	0.0528131511792984	0	1	NaN	288	5	36	1	120	220	320	NaN	520	0.0780105446465313	2	1	NaN	2497789.5196511	NaN	2497790.5031404	2497791.01968756
13	21	0	0	90	36.1581920903955	36.241610738255	9	0.300060720071197	2	10	2	NaN	2	5	0.0528131511792984	0	1	NaN	289	5	37	1	120	220	320	NaN	520	0.271252244710922	1	0	NaN	2497792.0865286	NaN	2497793.0700943	2497793.58660416
13	21	0	0	90	36.1581920903955	36.241610738255	13	0.433421040102839	2	4	4	NaN	1	4	0.0528131511792984	0	1	NaN	290	5	38	1	120	220	320	NaN	520	0.412630994338542	1	1	NaN	2497794.9535933	NaN	2497795.9369977	2497796.45354791
13	21	0	0	90	36.1581920903955	36.241610738255	25	0.833502000197768	2	9	6	NaN	2	3	0.0528131511792984	0	1	NaN	291	5	39	1	120	220	320	NaN	520	0.438271545339376	1	0	NaN	2497798.1038943	NaN	2497799.0873476	2497799.60386225
13	21	0	0	90	36.1581920903955	36.241610738255	15	0.500101200118661	2	3	3	NaN	1	3	0.0528131511792984	0	1	NaN	292	5	40	1	120	220	320	NaN	520	0.263942145276815	1	1	NaN	2497800.8541881	NaN	2497801.8376234	2497802.35413455
13	21	0	0	90	36.1581920903955	36.241610738255	25	0.833502000197768	2	1	3	NaN	1	5	0.0528131511792984	0	1	NaN	293	5	41	1	120	220	320	NaN	520	0.109960194211453	1	1	NaN	2497803.4876976	NaN	2497804.4711673	2497804.98771581
13	21	0	0	90	36.1581920903955	36.241610738255	9	0.300060720071197	2	2	6	NaN	1	3	0.0528131511792984	0	1	NaN	294	5	42	1	120	220	320	NaN	520	0.309935595374554	1	1	NaN	2497806.2880203	NaN	2497807.2714547	2497807.7879995
13	21	0	0	90	36.1581920903955	36.241610738255	23	0.766821840181947	2	12	1	NaN	2	5	0.0528131511792984	0	1	NaN	295	5	43	1	120	220	320	NaN	520	0.231813895516098	2	1	NaN	2497809.2382059	NaN	2497810.2218091	2497810.7382842
13	21	0	0	90	36.1581920903955	36.241610738255	23	0.766821840181947	2	11	4	NaN	2	4	0.0528131511792984	0	1	NaN	296	5	44	1	120	220	320	NaN	520	0.252263844944537	2	1	NaN	2497812.1219278	NaN	2497813.1053585	2497813.62190556
13	21	0	0	90	36.1581920903955	36.241610738255	19	0.633461520150304	2	2	2	NaN	1	3	0.0528131511792984	0	1	NaN	297	5	45	1	120	220	320	NaN	520	0.228284594137222	1	1	NaN	2497814.7055	NaN	2497815.6889661	2497816.20548701
13	21	0	0	90	36.1581920903955	36.241610738255	23	0.766821840181947	2	3	2	NaN	1	5	0.0528131511792984	0	1	NaN	298	5	46	1	120	220	320	NaN	520	0.398090244736522	1	1	NaN	2497817.2557903	NaN	2497818.2391823	2497818.75573796
13	21	0	0	90	36.1581920903955	36.241610738255	8	0.266720640063286	2	12	5	NaN	2	5	0.0528131511792984	0	1	NaN	299	5	47	1	120	220	320	NaN	520	0.0971561437472701	2	1	NaN	2497819.9727344	NaN	2497820.9560998	2497821.47266826
13	21	0	0	90	36.1581920903955	36.241610738255	24	0.800161920189858	2	5	5	NaN	1	4	0.0528131511792984	0	1	NaN	300	5	48	1	120	220	320	NaN	520	0.210907698608935	1	1	NaN	2497822.7229928	NaN	2497823.7063922	2497824.2229532
13	21	0	0	90	36.1581920903955	36.241610738255	12	0.400080960094929	2	4	2	NaN	1	4	0.0528131511792984	0	1	NaN	301	5	49	1	120	220	320	NaN	520	0.341893345117569	1	1	NaN	2497825.2397883	NaN	2497826.2233326	2497826.73986286
13	21	0	0	90	36.1581920903955	36.241610738255	7	0.233380560055375	2	11	2	NaN	2	4	0.0528131511792984	0	1	NaN	302	5	50	1	120	220	320	NaN	520	0.290280344896019	2	1	NaN	2497827.9234766	NaN	2497828.9068838	2497829.42346046
13	21	0	0	90	36.1581920903955	36.241610738255	6	0.200040480047464	2	1	4	NaN	1	5	0.0528131511792984	0	1	NaN	303	5	51	1	120	220	320	NaN	520	0.217260893899947	1	1	NaN	2497830.5403714	NaN	2497831.5238419	2497832.04037421
13	21	0	0	90	36.1581920903955	36.241610738255	16	0.533441280126572	2	6	5	NaN	1	3	0.0528131511792984	0	1	NaN	304	5	52	1	120	220	320	NaN	520	0.19449724489823	1	1	NaN	2497833.3073435	NaN	2497834.2907661	2497834.80731206
13	21	0	0	90	36.1581920903955	36.241610738255	24	0.800161920189858	2	4	3	NaN	1	3	0.0528131511792984	0	1	NaN	305	5	53	1	120	220	320	NaN	520	0.0104089942760766	1	1	NaN	2497835.9909564	NaN	2497836.9743679	2497837.49091191
13	21	0	0	90	36.1581920903955	36.241610738255	15	0.500101200118661	2	4	6	NaN	1	5	0.0528131511792984	0	1	NaN	306	5	54	1	120	220	320	NaN	520	0.0980537943542004	2	0	NaN	2497838.3077368	NaN	2497839.2912638	2497839.80779931
13	21	0	0	90	36.1581920903955	36.241610738255	14	0.46676112011075	2	10	5	NaN	2	3	0.0528131511792984	0	1	NaN	307	5	55	1	120	220	320	NaN	520	0.0577720939181745	1	0	NaN	2497840.7081047	NaN	2497841.6914918	2497842.20803951
13	21	0	0	90	36.1581920903955	36.241610738255	7	0.233380560055375	2	1	3	NaN	1	5	0.0528131511792984	0	1	NaN	308	5	56	1	120	220	320	NaN	520	0.178749794140458	1	1	NaN	2497843.0750362	NaN	2497844.0583925	2497844.57494851
13	21	0	0	90	36.1581920903955	36.241610738255	25	0.833502000197768	2	7	1	NaN	2	5	0.0528131511792984	0	1	NaN	309	5	57	1	120	220	320	NaN	520	0.423301444854587	2	1	NaN	2497845.558567	NaN	2497846.541972	2497847.05852266
13	21	0	0	90	36.1581920903955	36.241610738255	24	0.800161920189858	2	10	6	NaN	2	5	0.0528131511792984	0	1	NaN	310	5	58	1	120	220	320	NaN	520	0.0103908451274037	2	1	NaN	2497848.2921736	NaN	2497849.2755708	2497849.79212765
13	21	0	0	90	36.1581920903955	36.241610738255	20	0.666801600158215	2	3	1	NaN	1	4	0.0528131511792984	0	1	NaN	311	5	59	1	120	220	320	NaN	520	0.124922841787338	2	0	NaN	2497850.6089476	NaN	2497851.5924672	2497852.10901806
13	21	0	0	90	36.1581920903955	36.241610738255	7	0.233380560055375	2	6	5	NaN	1	4	0.0528131511792984	0	1	NaN	312	5	60	1	120	220	320	NaN	520	1.21918064542115	1	1	NaN	2497853.0426139	NaN	2497854.0260413	2497854.54259045
13	21	0	0	90	36.1581920903955	36.241610738255	9	0.300060720071197	2	3	6	NaN	1	3	0.0528131511792984	0	1	NaN	313	5	61	1	120	220	320	NaN	520	0.301481144037098	2	0	NaN	2497856.576337	NaN	2497857.5597359	2497858.07626526
13	21	0	0	90	36.1581920903955	36.241610738255	20	0.666801600158215	2	10	6	NaN	2	5	0.0528131511792984	0	1	NaN	314	5	62	1	120	220	320	NaN	520	0.133453744929284	2	1	NaN	2497859.3765713	NaN	2497860.3599979	2497860.87653896
13	21	0	0	90	36.1581920903955	36.241610738255	19	0.633461520150304	2	9	6	NaN	2	4	0.0528131511792984	0	1	NaN	315	5	63	1	120	220	320	NaN	520	0.0104225943796337	2	1	NaN	2497861.8268942	NaN	2497862.8102393	2497863.32678861
13	21	0	0	90	36.1581920903955	36.241610738255	11	0.366740880087018	2	2	5	NaN	1	3	0.0528131511792984	0	1	NaN	316	6	1	1	120	220	320	NaN	520	0.300998145248741	2	0	NaN	2497879.3452111	NaN	2497880.3286182	2497880.84517545
13	21	0	0	90	36.1581920903955	36.241610738255	20	0.666801600158215	2	8	4	NaN	2	4	0.0528131511792984	0	1	NaN	317	6	2	1	120	220	320	NaN	520	0.164115543942899	2	1	NaN	2497881.962181	NaN	2497882.9455466	2497883.46208936
13	21	0	0	90	36.1581920903955	36.241610738255	11	0.366740880087018	2	10	6	NaN	2	4	0.0528131511792984	0	1	NaN	318	6	3	1	120	220	320	NaN	520	0.240598394535482	2	1	NaN	2497884.4457475	NaN	2497885.4291891	2497885.94566901
13	21	0	0	90	36.1581920903955	36.241610738255	17	0.566781360134482	2	11	3	NaN	2	3	0.0528131511792984	0	1	NaN	319	6	4	1	120	220	320	NaN	520	0.313938144594431	2	1	NaN	2497886.9958447	NaN	2497887.9793741	2497888.49591696
13	21	0	0	90	36.1581920903955	36.241610738255	7	0.233380560055375	2	2	6	NaN	1	3	0.0528131511792984	0	1	NaN	320	6	5	1	120	220	320	NaN	520	0.241347543895245	2	0	NaN	2497889.6128698	NaN	2497890.5962825	2497891.11284516
13	21	0	0	90	36.1581920903955	36.241610738255	13	0.433421040102839	2	2	2	NaN	1	4	0.0528131511792984	0	1	NaN	321	6	6	1	120	220	320	NaN	520	0.265958494972438	1	1	NaN	2497892.1798368	NaN	2497893.1632598	2497893.6797743
13	21	0	0	90	36.1581920903955	36.241610738255	15	0.500101200118661	2	10	2	NaN	2	5	0.0528131511792984	0	1	NaN	322	6	7	1	120	220	320	NaN	520	0.21157149458304	1	0	NaN	2497894.7467554	NaN	2497895.7301198	2497896.24668851
13	21	0	0	90	36.1581920903955	36.241610738255	15	0.500101200118661	2	5	5	NaN	1	5	0.0528131511792984	0	1	NaN	323	6	8	1	120	220	320	NaN	520	0.0216788952238858	1	1	NaN	2497897.2803116	NaN	2497898.2637028	2497898.7802749
13	21	0	0	90	36.1581920903955	36.241610738255	9	0.300060720071197	2	1	4	NaN	1	5	0.0528131511792984	0	1	NaN	324	6	9	1	120	220	320	NaN	520	0.0103915445506573	1	1	NaN	2497899.6138916	NaN	2497900.5972845	2497901.11383496
13	21	0	0	90	36.1581920903955	36.241610738255	10	0.333400800079107	2	12	5	NaN	2	5	0.0528131511792984	0	1	NaN	325	6	10	1	120	220	320	NaN	520	0.131364195141941	2	1	NaN	2497901.9306509	NaN	2497902.9141737	2497903.4307241
13	21	0	0	90	36.1581920903955	36.241610738255	24	0.800161920189858	2	12	6	NaN	2	5	0.0528131511792984	0	1	NaN	326	6	11	1	120	220	320	NaN	520	0.257086948491633	2	1	NaN	2497904.3810188	NaN	2497905.3644301	2497905.88097475
13	21	0	0	90	36.1581920903955	36.241610738255	19	0.633461520150304	2	4	4	NaN	1	4	0.0528131511792984	0	1	NaN	327	6	12	1	120	220	320	NaN	520	0.154346243944019	2	0	NaN	2497906.9479479	NaN	2497907.9313283	2497908.44790236
13	21	0	0	90	36.1581920903955	36.241610738255	23	0.766821840181947	2	2	3	NaN	1	3	0.0528131511792984	0	1	NaN	328	6	13	1	120	220	320	NaN	520	0.223694093991071	2	0	NaN	2497909.7980909	NaN	2497910.7816083	2497911.29818781
13	21	0	0	90	36.1581920903955	36.241610738255	19	0.633461520150304	2	11	5	NaN	2	3	0.0528131511792984	0	1	NaN	329	6	14	1	120	220	320	NaN	520	0.314159944653511	2	1	NaN	2497912.3317876	NaN	2497913.315202	2497913.83175356
13	21	0	0	90	36.1581920903955	36.241610738255	0	0	1	4	5	NaN	1	3	0.0528131511792984	0	1	NaN	330	6	15	1	110	210	310	NaN	510	0.304644194431603	2	0	NaN	2497914.9653856	NaN	2497915.9487783	2497916.46534271
13	21	0	0	90	36.1581920903955	36.241610738255	8	0.266720640063286	2	6	4	NaN	1	4	0.0528131511792984	0	1	NaN	331	6	16	1	120	220	320	NaN	520	0.431633894331753	1	1	NaN	2497917.5823191	NaN	2497918.5657154	2497919.08225541
13	21	0	0	90	36.1581920903955	36.241610738255	0	0	1	10	4	NaN	2	3	0.0528131511792984	0	1	NaN	332	6	17	1	110	210	310	NaN	510	0.33635449456051	1	0	NaN	2497920.3659032	NaN	2497921.3493766	2497921.86587531
13	21	0	0	90	36.1581920903955	36.241610738255	19	0.633461520150304	2	10	6	NaN	2	3	0.0528131511792984	0	1	NaN	333	6	18	1	120	220	320	NaN	520	0.27841794397682	1	0	NaN	2497923.199507	NaN	2497924.1829331	2497924.69947736
13	21	0	0	90	36.1581920903955	36.241610738255	0	0	1	5	2	NaN	1	4	0.0528131511792984	0	1	NaN	334	6	19	1	110	210	310	NaN	510	0.26792329410091	2	0	NaN	2497925.8664335	NaN	2497926.8498418	2497927.36640351
13	21	0	0	90	36.1581920903955	36.241610738255	9	0.300060720071197	2	9	5	NaN	2	5	0.0528131511792984	0	1	NaN	335	6	20	1	120	220	320	NaN	520	0.321525994222611	1	0	NaN	2497928.9166335	NaN	2497929.9001654	2497930.41670391
13	21	0	0	90	36.1581920903955	36.241610738255	11	0.366740880087018	2	3	2	NaN	1	3	0.0528131511792984	0	1	NaN	336	6	21	1	120	220	320	NaN	520	0.0103898448869586	1	1	NaN	2497931.6836728	NaN	2497932.66714	2497933.18365226
13	21	0	0	90	36.1581920903955	36.241610738255	11	0.366740880087018	2	7	4	NaN	2	3	0.0528131511792984	0	1	NaN	337	6	22	1	120	220	320	NaN	520	0.189435448963195	2	1	NaN	2497934.0004857	NaN	2497934.9839945	2497935.50055165
13	21	0	0	90	36.1581920903955	36.241610738255	21	0.700141680166125	2	7	1	NaN	2	4	0.0528131511792984	0	1	NaN	338	6	23	1	120	220	320	NaN	520	0.240882545243949	2	1	NaN	2497936.5175057	NaN	2497937.5009109	2497938.01746105
13	21	0	0	90	36.1581920903955	36.241610738255	19	0.633461520150304	2	3	6	NaN	1	3	0.0528131511792984	0	1	NaN	339	6	24	1	120	220	320	NaN	520	0.298057144973427	1	1	NaN	2497939.0677869	NaN	2497940.0511504	2497940.56770666
13	21	0	0	90	36.1581920903955	36.241610738255	19	0.633461520150304	2	3	1	NaN	1	3	0.0528131511792984	0	1	NaN	340	6	25	1	120	220	320	NaN	520	0.22561804484576	2	0	NaN	2497941.684553	NaN	2497942.6680813	2497943.18463696
13	21	0	0	90	36.1581920903955	36.241610738255	12	0.400080960094929	2	9	2	NaN	2	4	0.0528131511792984	0	1	NaN	341	6	26	1	120	220	320	NaN	520	0.12360099516809	2	1	NaN	2497944.2182695	NaN	2497945.2016606	2497945.7182208
13	21	0	0	90	36.1581920903955	36.241610738255	7	0.233380560055375	2	12	6	NaN	2	5	0.0528131511792984	0	1	NaN	342	6	27	1	120	220	320	NaN	520	0.226222245022655	2	1	NaN	2497946.6518337	NaN	2497947.6352138	2497948.15178965
13	21	0	0	90	36.1581920903955	36.241610738255	17	0.566781360134482	2	12	1	NaN	2	5	0.0528131511792984	0	1	NaN	343	6	28	1	120	220	320	NaN	520	0.204859044868499	2	1	NaN	2497949.1854148	NaN	2497950.1688145	2497950.68537075
13	21	0	0	90	36.1581920903955	36.241610738255	16	0.533441280126572	2	11	4	NaN	2	5	0.0528131511792984	0	1	NaN	344	6	29	1	120	220	320	NaN	520	0.207608244847506	2	1	NaN	2497951.7023351	NaN	2497952.6857325	2497953.20228855
13	21	0	0	90	36.1581920903955	36.241610738255	6	0.200040480047464	2	2	4	NaN	1	3	0.0528131511792984	0	1	NaN	345	6	30	1	120	220	320	NaN	520	0.322802048642188	1	1	NaN	2497954.2191085	NaN	2497955.2026459	2497955.71920265
13	21	0	0	90	36.1581920903955	36.241610738255	15	0.500101200118661	2	8	6	NaN	2	3	0.0528131511792984	0	1	NaN	346	6	31	1	120	220	320	NaN	520	0.441552243661135	1	0	NaN	2497956.8528427	NaN	2497957.8362276	2497958.35278956
13	21	0	0	90	36.1581920903955	36.241610738255	13	0.433421040102839	2	11	5	NaN	2	5	0.0528131511792984	0	1	NaN	347	6	32	1	120	220	320	NaN	520	0.62684579519555	2	1	NaN	2497959.60311	NaN	2497960.5865059	2497961.1030632
13	21	0	0	90	36.1581920903955	36.241610738255	22	0.733481760174036	2	7	6	NaN	2	5	0.0528131511792984	0	1	NaN	348	6	33	1	120	220	320	NaN	520	0.010423393920064	2	1	NaN	2497962.6700837	NaN	2497963.6534748	2497964.17001991
13	21	0	0	90	36.1581920903955	36.241610738255	8	0.266720640063286	2	2	2	NaN	1	5	0.0528131511792984	0	1	NaN	349	6	34	1	120	220	320	NaN	520	0.267439395654947	1	1	NaN	2497964.9869659	NaN	2497965.9703675	2497966.4869139
13	21	0	0	90	36.1581920903955	36.241610738255	22	0.733481760174036	2	2	3	NaN	1	5	0.0528131511792984	0	1	NaN	350	6	35	1	120	220	320	NaN	520	0.899871094152331	1	1	NaN	2497967.570552	NaN	2497968.5539711	2497969.07050721
13	21	0	0	90	36.1581920903955	36.241610738255	21	0.700141680166125	2	11	3	NaN	2	3	0.0528131511792984	0	1	NaN	351	6	36	1	120	220	320	NaN	520	1.45084729418159	2	1	NaN	2497970.7875728	NaN	2497971.7709411	2497972.28749141
13	21	0	0	90	36.1581920903955	36.241610738255	0	0	1	6	6	NaN	1	3	0.0528131511792984	0	1	NaN	352	6	37	1	110	210	310	NaN	510	0.288872394245118	1	1	NaN	2497974.6212779	NaN	2497975.6046637	2497976.12119481
13	21	0	0	90	36.1581920903955	36.241610738255	12	0.400080960094929	2	10	5	NaN	2	3	0.0528131511792984	0	1	NaN	353	6	38	1	120	220	320	NaN	520	0.192448194604367	1	0	NaN	2497977.2215087	NaN	2497978.2049016	2497978.72145951
13	21	0	0	90	36.1581920903955	36.241610738255	16	0.533441280126572	2	12	5	NaN	2	4	0.0528131511792984	0	1	NaN	354	6	39	1	120	220	320	NaN	520	1.27522384515032	2	1	NaN	2497979.9549787	NaN	2497980.9385016	2497981.45506006
13	21	0	0	90	36.1581920903955	36.241610738255	17	0.566781360134482	2	11	6	NaN	2	4	0.0528131511792984	0	1	NaN	355	6	40	1	120	220	320	NaN	520	0.746616395190358	2	1	NaN	2497983.5554571	NaN	2497984.538862	2497985.055418
13	21	0	0	90	36.1581920903955	36.241610738255	25	0.833502000197768	2	10	3	NaN	2	4	0.0528131511792984	0	1	NaN	356	6	41	1	120	220	320	NaN	520	0.238275994546711	2	1	NaN	2497986.6556302	NaN	2497987.6391636	2497988.15571311
13	21	0	0	90	36.1581920903955	36.241610738255	16	0.533441280126572	2	5	4	NaN	1	3	0.0528131511792984	0	1	NaN	357	6	42	1	120	220	320	NaN	520	0.117265244945884	2	0	NaN	2497989.2726748	NaN	2497990.2560902	2497990.77263205
13	21	0	0	90	36.1581920903955	36.241610738255	23	0.766821840181947	2	1	5	NaN	1	4	0.0528131511792984	0	1	NaN	358	6	43	1	120	220	320	NaN	520	0.155849845148623	1	1	NaN	2497991.7062509	NaN	2497992.6896494	2497993.20621755
13	21	0	0	90	36.1581920903955	36.241610738255	8	0.266720640063286	2	1	4	NaN	1	5	0.0528131511792984	0	1	NaN	359	6	44	1	120	220	320	NaN	520	0.0809525451622903	2	0	NaN	2497994.1731886	NaN	2497995.1565721	2497995.67311775
13	21	0	0	90	36.1581920903955	36.241610738255	23	0.766821840181947	2	11	6	NaN	2	4	0.0528131511792984	0	1	NaN	360	6	45	1	120	220	320	NaN	520	1.40070099383593	2	1	NaN	2497996.5734374	NaN	2497997.5566905	2497998.07335061
13	21	0	0	90	36.1581920903955	36.241610738255	13	0.433421040102839	2	7	2	NaN	2	3	0.0528131511792984	0	1	NaN	361	6	46	1	120	220	320	NaN	520	0.468032194301486	2	1	NaN	2498000.290456	NaN	2498001.2738478	2498001.79038321
13	21	0	0	90	36.1581920903955	36.241610738255	14	0.46676112011075	2	2	3	NaN	1	4	0.0528131511792984	0	1	NaN	362	6	47	1	120	220	320	NaN	520	0.273716445080936	1	1	NaN	2498004.5408279	NaN	2498005.5242431	2498006.04081075
13	21	0	0	90	36.1581920903955	36.241610738255	9	0.300060720071197	2	10	5	NaN	2	4	0.0528131511792984	0	1	NaN	363	6	48	1	120	220	320	NaN	520	0.0103753949515522	1	0	NaN	2498007.1243369	NaN	2498008.1079032	2498008.6244009
13	21	0	0	90	36.1581920903955	36.241610738255	0	0	1	2	1	NaN	1	4	0.0528131511792984	0	1	NaN	364	6	49	1	110	210	310	NaN	510	0.612041694112122	1	1	NaN	2498009.4580024	NaN	2498010.4414089	2498010.95794841
13	21	0	0	90	36.1581920903955	36.241610738255	6	0.200040480047464	2	12	6	NaN	2	3	0.0528131511792984	0	1	NaN	365	6	50	1	120	220	320	NaN	520	6.91855514468625	2	1	NaN	2498012.3915704	NaN	2498013.3750327	2498013.89157266
13	21	0	0	90	36.1581920903955	36.241610738255	23	0.766821840181947	2	10	1	NaN	2	5	0.0528131511792984	0	1	NaN	366	6	51	1	120	220	320	NaN	520	0.204245794098824	2	1	NaN	2498021.6258726	NaN	2498022.6092735	2498023.12581301
13	21	0	0	90	36.1581920903955	36.241610738255	23	0.766821840181947	2	6	6	NaN	1	4	0.0528131511792984	0	1	NaN	367	6	52	1	120	220	320	NaN	520	0.273297344800085	1	1	NaN	2498024.2926489	NaN	2498025.276198	2498025.79274316
13	21	0	0	90	36.1581920903955	36.241610738255	9	0.300060720071197	2	12	5	NaN	2	4	0.0528131511792984	0	1	NaN	368	6	53	1	120	220	320	NaN	520	0.258121444843709	1	0	NaN	2498026.8762564	NaN	2498027.8597655	2498028.37633655
13	21	0	0	90	36.1581920903955	36.241610738255	8	0.266720640063286	2	12	3	NaN	2	5	0.0528131511792984	0	1	NaN	369	6	54	1	120	220	320	NaN	520	0.131275944877416	2	1	NaN	2498029.4433045	NaN	2498030.4267037	2498030.94324725
13	21	0	0	90	36.1581920903955	36.241610738255	24	0.800161920189858	2	8	2	NaN	2	3	0.0528131511792984	0	1	NaN	370	6	55	1	120	220	320	NaN	520	0.056588345207274	2	1	NaN	2498031.893541	NaN	2498032.8769547	2498033.39349895
13	21	0	0	90	36.1581920903955	36.241610738255	20	0.666801600158215	2	5	4	NaN	1	4	0.0528131511792984	0	1	NaN	371	6	56	1	120	220	320	NaN	520	0.121685745194554	1	1	NaN	2498034.2604435	NaN	2498035.2438385	2498035.76038685
13	21	0	0	90	36.1581920903955	36.241610738255	14	0.46676112011075	2	7	4	NaN	2	4	0.0528131511792984	0	1	NaN	372	6	57	1	120	220	320	NaN	520	0.144157194066793	2	1	NaN	2498036.6940551	NaN	2498037.677427	2498038.19396431
13	21	0	0	90	36.1581920903955	36.241610738255	14	0.46676112011075	2	9	6	NaN	2	3	0.0528131511792984	0	1	NaN	373	6	58	1	120	220	320	NaN	520	0.195176595356315	2	1	NaN	2498039.410921	NaN	2498040.3943269	2498040.9109033
13	21	0	0	90	36.1581920903955	36.241610738255	24	0.800161920189858	2	3	6	NaN	1	4	0.0528131511792984	0	1	NaN	374	6	59	1	120	220	320	NaN	520	0.164901095442474	2	0	NaN	2498042.3612395	NaN	2498043.3446388	2498043.8611944
13	21	0	0	90	36.1581920903955	36.241610738255	9	0.300060720071197	2	9	2	NaN	2	5	0.0528131511792984	0	1	NaN	375	6	60	1	120	220	320	NaN	520	0.161519444547594	2	1	NaN	2498044.8448267	NaN	2498045.8282156	2498046.34477246
13	21	0	0	90	36.1581920903955	36.241610738255	17	0.566781360134482	2	5	6	NaN	1	4	0.0528131511792984	0	1	NaN	376	6	61	1	120	220	320	NaN	520	0.219153693877161	1	1	NaN	2498047.7950769	NaN	2498048.7785348	2498049.29504931
13	21	0	0	90	36.1581920903955	36.241610738255	21	0.700141680166125	2	6	1	NaN	1	4	0.0528131511792984	0	1	NaN	377	6	62	1	120	220	320	NaN	520	0.189409093931317	1	1	NaN	2498050.3286979	NaN	2498051.3120609	2498051.82864041
13	21	0	0	90	36.1581920903955	36.241610738255	17	0.566781360134482	2	9	6	NaN	2	3	0.0528131511792984	0	1	NaN	378	6	63	1	120	220	320	NaN	520	0.137581043876708	1	0	NaN	2498052.8288257	NaN	2498053.8123372	2498054.32887706
13	21	0	0	90	36.1581920903955	36.241610738255	15	0.500101200118661	2	11	3	NaN	2	3	0.0528131511792984	0	1	NaN	379	7	1	1	120	220	320	NaN	520	0.339093445334584	2	1	NaN	2498067.5470631	NaN	2498068.5304418	2498069.04699075
13	21	0	0	90	36.1581920903955	36.241610738255	12	0.400080960094929	2	8	6	NaN	2	3	0.0528131511792984	0	1	NaN	380	7	2	1	120	220	320	NaN	520	0.0104058943688869	1	0	NaN	2498070.1973278	NaN	2498071.1807108	2498071.69725031
13	21	0	0	90	36.1581920903955	36.241610738255	25	0.833502000197768	2	5	3	NaN	1	4	0.0528131511792984	0	1	NaN	381	7	3	1	120	220	320	NaN	520	0.14464929420501	2	0	NaN	2498072.7974374	NaN	2498073.7810127	2498074.29750631
13	21	0	0	90	36.1581920903955	36.241610738255	0	0	1	12	1	NaN	2	5	0.0528131511792984	0	1	NaN	382	7	4	1	110	210	310	NaN	510	0.165864144917578	2	1	NaN	2498075.2645605	NaN	2498076.2478764	2498076.76441826
13	21	0	0	90	36.1581920903955	36.241610738255	8	0.266720640063286	2	1	3	NaN	1	4	0.0528131511792984	0	1	NaN	383	7	5	1	120	220	320	NaN	520	0.394655644893646	1	1	NaN	2498077.7313765	NaN	2498078.7147734	2498079.23133015
13	21	0	0	90	36.1581920903955	36.241610738255	20	0.666801600158215	2	12	6	NaN	2	3	0.0528131511792984	0	1	NaN	384	7	6	1	120	220	320	NaN	520	0.229920846410096	2	1	NaN	2498080.4483123	NaN	2498081.4317116	2498081.94826795
13	21	0	0	90	36.1581920903955	36.241610738255	20	0.666801600158215	2	1	1	NaN	1	5	0.0528131511792984	0	1	NaN	385	7	7	1	120	220	320	NaN	520	0.0956477448344231	2	0	NaN	2498082.9985646	NaN	2498083.981956	2498084.49851636
13	21	0	0	90	36.1581920903955	36.241610738255	10	0.333400800079107	2	3	4	NaN	1	4	0.0528131511792984	0	1	NaN	386	7	8	1	120	220	320	NaN	520	0.83191059390083	2	0	NaN	2498085.5821052	NaN	2498086.5655443	2498087.08211721
13	21	0	0	90	36.1581920903955	36.241610738255	19	0.633461520150304	2	9	1	NaN	2	5	0.0528131511792984	0	1	NaN	387	7	9	1	120	220	320	NaN	520	0.650145545136184	2	1	NaN	2498088.7324271	NaN	2498089.7158721	2498090.23241425
13	21	0	0	90	36.1581920903955	36.241610738255	9	0.300060720071197	2	7	2	NaN	2	5	0.0528131511792984	0	1	NaN	388	7	10	1	120	220	320	NaN	520	0.576894194353372	2	1	NaN	2498092.1494517	NaN	2498093.132888	2498093.64941911
13	21	0	0	90	36.1581920903955	36.241610738255	0	0	1	1	3	NaN	1	3	0.0528131511792984	0	1	NaN	389	7	11	1	110	210	310	NaN	510	0.193281045649201	1	1	NaN	2498095.1329697	NaN	2498096.1165289	2498096.63303555
13	21	0	0	90	36.1581920903955	36.241610738255	7	0.233380560055375	2	3	5	NaN	1	3	0.0528131511792984	0	1	NaN	390	7	12	1	120	220	320	NaN	520	0.581215145066381	1	1	NaN	2498097.6333509	NaN	2498098.6167426	2498099.13328535
13	21	0	0	90	36.1581920903955	36.241610738255	19	0.633461520150304	2	10	2	NaN	2	5	0.0528131511792984	0	1	NaN	391	7	13	1	120	220	320	NaN	520	0.0593250943347812	1	0	NaN	2498100.8669946	NaN	2498101.8503804	2498102.36693921
13	21	0	0	90	36.1581920903955	36.241610738255	24	0.800161920189858	2	7	3	NaN	2	4	0.0528131511792984	0	1	NaN	392	7	14	1	120	220	320	NaN	520	1.60419829422608	2	1	NaN	2498103.2338888	NaN	2498104.2172741	2498104.73384081
13	21	0	0	90	36.1581920903955	36.241610738255	19	0.633461520150304	2	5	5	NaN	1	5	0.0528131511792984	0	1	NaN	393	7	15	1	120	220	320	NaN	520	0.359222745057195	1	1	NaN	2498107.1509201	NaN	2498108.1343427	2498108.65089035
13	21	0	0	90	36.1581920903955	36.241610738255	25	0.833502000197768	2	5	1	NaN	1	3	0.0528131511792984	0	1	NaN	394	7	16	1	120	220	320	NaN	520	0.18805944500491	2	0	NaN	2498109.8345402	NaN	2498110.8179313	2498111.33448665
13	21	0	0	90	36.1581920903955	36.241610738255	16	0.533441280126572	2	8	3	NaN	2	4	0.0528131511792984	0	1	NaN	395	7	17	1	120	220	320	NaN	520	0.242744645103812	2	1	NaN	2498112.4514357	NaN	2498113.4348502	2498113.95141116
13	21	0	0	90	36.1581920903955	36.241610738255	13	0.433421040102839	2	3	3	NaN	1	5	0.0528131511792984	0	1	NaN	396	7	18	1	120	220	320	NaN	520	0.215510244015604	1	1	NaN	2498115.1349209	NaN	2498116.1184598	2498116.63499926
13	21	0	0	90	36.1581920903955	36.241610738255	21	0.700141680166125	2	3	1	NaN	1	3	0.0528131511792984	0	1	NaN	397	7	19	1	120	220	320	NaN	520	0.356101294513792	2	0	NaN	2498118.0020212	NaN	2498118.9854075	2498119.50194411
13	21	0	0	90	36.1581920903955	36.241610738255	25	0.833502000197768	2	2	1	NaN	1	5	0.0528131511792984	0	1	NaN	398	7	20	1	120	220	320	NaN	520	0.298673795070499	1	1	NaN	2498120.8355987	NaN	2498121.8190196	2498122.3355697
13	21	0	0	90	36.1581920903955	36.241610738255	24	0.800161920189858	2	4	3	NaN	1	3	0.0528131511792984	0	1	NaN	399	7	21	1	120	220	320	NaN	520	0.214999394491315	1	1	NaN	2498123.7192077	NaN	2498124.7026376	2498125.21917371
13	21	0	0	90	36.1581920903955	36.241610738255	22	0.733481760174036	2	8	5	NaN	2	4	0.0528131511792984	0	1	NaN	400	7	22	1	120	220	320	NaN	520	0.189757045358419	1	0	NaN	2498126.5528437	NaN	2498127.5362448	2498128.05279485
13	21	0	0	90	36.1581920903955	36.241610738255	15	0.500101200118661	2	1	1	NaN	1	3	0.0528131511792984	0	1	NaN	401	7	23	1	120	220	320	NaN	520	0.309275494422764	2	0	NaN	2498129.3530231	NaN	2498130.3365662	2498130.85307081
13	21	0	0	90	36.1581920903955	36.241610738255	20	0.666801600158215	2	6	4	NaN	1	5	0.0528131511792984	0	1	NaN	402	7	24	1	120	220	320	NaN	520	0.133602545130998	1	1	NaN	2498132.1365887	NaN	2498133.1201245	2498133.63667645
13	21	0	0	90	36.1581920903955	36.241610738255	14	0.46676112011075	2	1	4	NaN	1	4	0.0528131511792984	0	1	NaN	403	7	25	1	120	220	320	NaN	520	0.147653644904494	1	1	NaN	2498134.586828	NaN	2498135.5703532	2498136.08692075
13	21	0	0	90	36.1581920903955	36.241610738255	12	0.400080960094929	2	11	1	NaN	2	4	0.0528131511792984	0	1	NaN	404	7	26	1	120	220	320	NaN	520	0.152543744072318	2	1	NaN	2498137.0538895	NaN	2498138.0372758	2498138.55381446
13	21	0	0	90	36.1581920903955	36.241610738255	18	0.600121440142393	2	11	2	NaN	2	5	0.0528131511792984	0	1	NaN	405	7	27	1	120	220	320	NaN	520	0.0748429945670068	2	1	NaN	2498139.5874256	NaN	2498140.5708564	2498141.08740471
13	21	0	0	90	36.1581920903955	36.241610738255	7	0.233380560055375	2	6	5	NaN	1	5	0.0528131511792984	0	1	NaN	406	7	28	1	120	220	320	NaN	520	0.203360594343394	1	1	NaN	2498141.9710455	NaN	2498142.9544528	2498143.47096811
13	21	0	0	90	36.1581920903955	36.241610738255	10	0.333400800079107	2	9	1	NaN	2	3	0.0528131511792984	0	1	NaN	407	7	29	1	120	220	320	NaN	520	0.0156479449942708	2	1	NaN	2498144.6545008	NaN	2498145.6380192	2498146.15457006
13	21	0	0	90	36.1581920903955	36.241610738255	16	0.533441280126572	2	4	5	NaN	1	5	0.0528131511792984	0	1	NaN	408	7	30	1	120	220	320	NaN	520	0.142371895257384	1	1	NaN	2498147.0881631	NaN	2498148.0715858	2498148.5881424
13	21	0	0	90	36.1581920903955	36.241610738255	13	0.433421040102839	2	8	6	NaN	2	5	0.0528131511792984	0	1	NaN	409	7	31	1	120	220	320	NaN	520	0.483118194155395	1	0	NaN	2498149.5551126	NaN	2498150.5385078	2498151.05504431
13	21	0	0	90	36.1581920903955	36.241610738255	6	0.200040480047464	2	10	4	NaN	2	4	0.0528131511792984	0	1	NaN	410	7	32	1	120	220	320	NaN	520	0.576897643972188	2	1	NaN	2498152.6053776	NaN	2498153.5887948	2498154.10535276
13	21	0	0	90	36.1581920903955	36.241610738255	18	0.600121440142393	2	9	2	NaN	2	5	0.0528131511792984	0	1	NaN	411	7	33	1	120	220	320	NaN	520	0.230179994367063	1	0	NaN	2498156.6724427	NaN	2498157.6558667	2498158.17241111
13	21	0	0	90	36.1581920903955	36.241610738255	21	0.700141680166125	2	12	6	NaN	2	5	0.0528131511792984	0	1	NaN	412	7	34	1	120	220	320	NaN	520	0.194265745114535	2	1	NaN	2498159.7559828	NaN	2498160.7395033	2498161.25605355
13	21	0	0	90	36.1581920903955	36.241610738255	25	0.833502000197768	2	3	5	NaN	1	5	0.0528131511792984	0	1	NaN	413	7	35	1	120	220	320	NaN	520	0.187394494190812	1	1	NaN	2498162.5230162	NaN	2498163.5064361	2498164.02299151
13	21	0	0	90	36.1581920903955	36.241610738255	18	0.600121440142393	2	9	3	NaN	2	5	0.0528131511792984	0	1	NaN	414	7	36	1	120	220	320	NaN	520	0.0790470950305462	2	1	NaN	2498165.0231708	NaN	2498166.0066755	2498166.5232382
13	21	0	0	90	36.1581920903955	36.241610738255	17	0.566781360134482	2	7	3	NaN	2	3	0.0528131511792984	0	1	NaN	415	7	37	1	120	220	320	NaN	520	1.01538009382784	2	1	NaN	2498167.406858	NaN	2498168.390266	2498168.90680231
13	21	0	0	90	36.1581920903955	36.241610738255	13	0.433421040102839	2	3	3	NaN	1	4	0.0528131511792984	0	1	NaN	416	7	38	1	120	220	320	NaN	520	0.235774044878781	1	1	NaN	2498170.8903873	NaN	2498171.8739361	2498172.39049476
13	21	0	0	90	36.1581920903955	36.241610738255	0	0	1	11	1	NaN	2	5	0.0528131511792984	0	1	NaN	417	7	39	1	110	210	310	NaN	510	0.0103135975077748	2	1	NaN	2498173.440665	NaN	2498174.4241826	2498174.9407304
13	21	0	0	90	36.1581920903955	36.241610738255	10	0.333400800079107	2	2	3	NaN	1	5	0.0528131511792984	0	1	NaN	418	7	40	1	120	220	320	NaN	520	1.0565452449955	1	1	NaN	2498175.7576908	NaN	2498176.7410963	2498177.25763005
13	21	0	0	90	36.1581920903955	36.241610738255	25	0.833502000197768	2	7	4	NaN	2	4	0.0528131511792984	0	1	NaN	419	7	41	1	120	220	320	NaN	520	0.201877694111317	2	1	NaN	2498179.1245551	NaN	2498180.1080749	2498180.62462041
13	21	0	0	90	36.1581920903955	36.241610738255	6	0.200040480047464	2	6	3	NaN	1	4	0.0528131511792984	0	1	NaN	420	7	42	1	120	220	320	NaN	520	0.0103772953152657	2	0	NaN	2498181.6415814	NaN	2498182.6249798	2498183.1415332
13	21	0	0	90	36.1581920903955	36.241610738255	8	0.266720640063286	2	11	1	NaN	2	4	0.0528131511792984	0	1	NaN	421	7	43	1	120	220	320	NaN	520	0.999898344743997	2	1	NaN	2498183.9584905	NaN	2498184.9418817	2498185.45843736
13	21	0	0	90	36.1581920903955	36.241610738255	19	0.633461520150304	2	6	4	NaN	1	4	0.0528131511792984	0	1	NaN	422	7	44	1	120	220	320	NaN	520	0.330092145130038	1	1	NaN	2498187.4922015	NaN	2498188.4755608	2498188.99211275
13	21	0	0	90	36.1581920903955	36.241610738255	18	0.600121440142393	2	6	6	NaN	1	3	0.0528131511792984	0	1	NaN	423	7	45	1	120	220	320	NaN	520	0.304375545121729	1	1	NaN	2498190.7424824	NaN	2498191.7258744	2498192.24243606
13	21	0	0	90	36.1581920903955	36.241610738255	25	0.833502000197768	2	11	2	NaN	2	5	0.0528131511792984	0	1	NaN	424	7	46	1	120	220	320	NaN	520	0.230920248664916	2	1	NaN	2498193.3594127	NaN	2498194.3428065	2498194.85935635
13	21	0	0	90	36.1581920903955	36.241610738255	16	0.533441280126572	2	10	6	NaN	2	5	0.0528131511792984	0	1	NaN	425	7	47	1	120	220	320	NaN	520	0.0726320943795145	2	1	NaN	2498195.9096689	NaN	2498196.8930684	2498197.40961051
13	21	0	0	90	36.1581920903955	36.241610738255	6	0.200040480047464	2	7	2	NaN	2	3	0.0528131511792984	0	1	NaN	426	7	48	1	120	220	320	NaN	520	0.465561595279723	1	0	NaN	2498198.2932307	NaN	2498199.2766233	2498199.7931783
13	21	0	0	90	36.1581920903955	36.241610738255	19	0.633461520150304	2	2	6	NaN	1	4	0.0528131511792984	0	1	NaN	427	7	49	1	120	220	320	NaN	520	0.129606444854289	2	0	NaN	2498201.076822	NaN	2498202.0602337	2498202.57678166
13	21	0	0	90	36.1581920903955	36.241610738255	23	0.766821840181947	2	8	4	NaN	2	4	0.0528131511792984	0	1	NaN	428	7	50	1	120	220	320	NaN	520	0.0700645451433957	1	0	NaN	2498203.7603153	NaN	2498204.7438189	2498205.26037215
13	21	0	0	90	36.1581920903955	36.241610738255	14	0.46676112011075	2	11	5	NaN	2	4	0.0528131511792984	0	1	NaN	429	7	51	1	120	220	320	NaN	520	0.302381843794137	2	1	NaN	2498206.1440031	NaN	2498207.1274331	2498207.64393516
13	21	0	0	90	36.1581920903955	36.241610738255	22	0.733481760174036	2	3	2	NaN	1	5	0.0528131511792984	0	1	NaN	430	7	52	1	120	220	320	NaN	520	0.294793548528105	1	1	NaN	2498208.9275821	NaN	2498209.9109827	2498210.42754935
13	21	0	0	90	36.1581920903955	36.241610738255	14	0.46676112011075	2	1	4	NaN	1	3	0.0528131511792984	0	1	NaN	431	7	53	1	120	220	320	NaN	520	0.309924894012511	1	1	NaN	2498211.5445421	NaN	2498212.5279068	2498213.04447091
13	21	0	0	90	36.1581920903955	36.241610738255	8	0.266720640063286	2	8	5	NaN	2	3	0.0528131511792984	0	1	NaN	432	7	54	1	120	220	320	NaN	520	0.100394545122981	1	0	NaN	2498214.1781286	NaN	2498215.1615142	2498215.67807005
13	21	0	0	90	36.1581920903955	36.241610738255	15	0.500101200118661	2	2	1	NaN	1	3	0.0528131511792984	0	1	NaN	433	7	55	1	120	220	320	NaN	520	0.227662844583392	1	1	NaN	2498216.5950268	NaN	2498217.5784274	2498218.09497386
13	21	0	0	90	36.1581920903955	36.241610738255	7	0.233380560055375	2	1	5	NaN	1	5	0.0528131511792984	0	1	NaN	434	7	56	1	120	220	320	NaN	520	0.010371595621109	2	0	NaN	2498219.1284778	NaN	2498220.1120038	2498220.6285523
13	21	0	0	90	36.1581920903955	36.241610738255	8	0.266720640063286	2	7	5	NaN	2	4	0.0528131511792984	0	1	NaN	435	7	57	1	120	220	320	NaN	520	0.152980894315988	2	1	NaN	2498221.445361	NaN	2498222.4288973	2498222.94544061
13	21	0	0	90	36.1581920903955	36.241610738255	16	0.533441280126572	2	12	1	NaN	2	4	0.0528131511792984	0	1	NaN	436	7	58	1	120	220	320	NaN	520	0.34214384527877	2	1	NaN	2498223.9124031	NaN	2498224.8958057	2498225.41235645
13	21	0	0	90	36.1581920903955	36.241610738255	10	0.333400800079107	2	6	2	NaN	1	3	0.0528131511792984	0	1	NaN	437	7	59	1	120	220	320	NaN	520	0.155623094178736	1	1	NaN	2498226.5626561	NaN	2498227.5460662	2498228.06261471
13	21	0	0	90	36.1581920903955	36.241610738255	14	0.46676112011075	2	9	3	NaN	2	4	0.0528131511792984	0	1	NaN	438	7	60	1	120	220	320	NaN	520	0.314728194382042	2	1	NaN	2498229.1795845	NaN	2498230.1629907	2498230.67953291
13	21	0	0	90	36.1581920903955	36.241610738255	20	0.666801600158215	2	5	3	NaN	1	4	0.0528131511792984	0	1	NaN	439	7	61	1	120	220	320	NaN	520	0.129624047782272	2	0	NaN	2498231.8131815	NaN	2498232.7965749	2498233.31312835
13	21	0	0	90	36.1581920903955	36.241610738255	11	0.366740880087018	2	6	2	NaN	1	5	0.0528131511792984	0	1	NaN	440	7	62	1	120	220	320	NaN	520	0.289650995284319	1	1	NaN	2498234.3967552	NaN	2498235.3802065	2498235.8967216
13	21	0	0	90	36.1581920903955	36.241610738255	9	0.300060720071197	2	12	2	NaN	2	5	0.0528131511792984	0	1	NaN	441	7	63	1	120	220	320	NaN	520	0.497284894343466	2	1	NaN	2498236.9969836	NaN	2498237.9804343	2498238.49696521
13	21	0	0	90	36.1581920903955	36.241610738255	18	0.600121440142393	2	1	3	NaN	1	5	0.0528131511792984	0	1	NaN	442	8	1	1	120	220	320	NaN	520	0.166329994332045	2	0	NaN	2498251.8483783	NaN	2498252.831888	2498253.34843461
13	21	0	0	90	36.1581920903955	36.241610738255	13	0.433421040102839	2	2	5	NaN	1	5	0.0528131511792984	0	1	NaN	443	8	2	1	120	220	320	NaN	520	0.330332594458014	1	1	NaN	2498254.3320088	NaN	2498255.3154574	2498255.83201201
13	21	0	0	90	36.1581920903955	36.241610738255	22	0.733481760174036	2	1	1	NaN	1	3	0.0528131511792984	0	1	NaN	444	8	3	1	120	220	320	NaN	520	0.113112194463611	1	1	NaN	2498257.1656555	NaN	2498258.1489659	2498258.66561881
13	21	0	0	90	36.1581920903955	36.241610738255	20	0.666801600158215	2	2	4	NaN	1	5	0.0528131511792984	0	1	NaN	445	8	4	1	120	220	320	NaN	520	0.183582094032317	2	0	NaN	2498259.5992438	NaN	2498260.582641	2498261.09919941
13	21	0	0	90	36.1581920903955	36.241610738255	23	0.766821840181947	2	3	4	NaN	1	5	0.0528131511792984	0	1	NaN	446	8	5	1	120	220	320	NaN	520	0.251309244893491	2	0	NaN	2498262.0995289	NaN	2498263.0829255	2498263.59944146
13	21	0	0	90	36.1581920903955	36.241610738255	18	0.600121440142393	2	7	1	NaN	2	4	0.0528131511792984	0	1	NaN	447	8	6	1	120	220	320	NaN	520	0.0921913450583816	2	1	NaN	2498264.6664031	NaN	2498265.6498072	2498266.16635545
13	21	0	0	90	36.1581920903955	36.241610738255	24	0.800161920189858	2	3	1	NaN	1	4	0.0528131511792984	0	1	NaN	448	8	7	1	120	220	320	NaN	520	0.42812294466421	2	0	NaN	2498267.0665396	NaN	2498268.0500408	2498268.56659866
13	21	0	0	90	36.1581920903955	36.241610738255	25	0.833502000197768	2	4	6	NaN	1	5	0.0528131511792984	0	1	NaN	449	8	8	1	120	220	320	NaN	520	0.158249794505537	1	1	NaN	2498269.8001339	NaN	2498270.7836427	2498271.30018941
13	21	0	0	90	36.1581920903955	36.241610738255	17	0.566781360134482	2	9	3	NaN	2	4	0.0528131511792984	0	1	NaN	450	8	9	1	120	220	320	NaN	520	0.147327593993396	2	1	NaN	2498272.2671638	NaN	2498273.2505817	2498273.76710911
13	21	0	0	90	36.1581920903955	36.241610738255	13	0.433421040102839	2	12	1	NaN	2	4	0.0528131511792984	0	1	NaN	451	8	10	1	120	220	320	NaN	520	0.248807244934142	2	1	NaN	2498274.7340692	NaN	2498275.7174617	2498276.23400996
13	21	0	0	90	36.1581920903955	36.241610738255	20	0.666801600158215	2	11	5	NaN	2	3	0.0528131511792984	0	1	NaN	452	8	11	1	120	220	320	NaN	520	0.150177545379847	2	1	NaN	2498277.3842935	NaN	2498278.3677205	2498278.88427965
13	21	0	0	90	36.1581920903955	36.241610738255	7	0.233380560055375	2	11	5	NaN	2	5	0.0528131511792984	0	1	NaN	453	8	12	1	120	220	320	NaN	520	0.539950596634299	2	1	NaN	2498280.0344523	NaN	2498281.0179851	2498281.5345336
13	21	0	0	90	36.1581920903955	36.241610738255	17	0.566781360134482	2	7	2	NaN	2	5	0.0528131511792984	0	1	NaN	454	8	13	1	120	220	320	NaN	520	0.16154294507578	2	1	NaN	2498282.8848564	NaN	2498283.8682483	2498284.38482055
13	21	0	0	90	36.1581920903955	36.241610738255	11	0.366740880087018	2	1	3	NaN	1	5	0.0528131511792984	0	1	NaN	455	8	14	1	120	220	320	NaN	520	0.216726644895971	1	1	NaN	2498285.5017041	NaN	2498286.4851862	2498287.00174505
13	21	0	0	90	36.1581920903955	36.241610738255	22	0.733481760174036	2	4	1	NaN	1	3	0.0528131511792984	0	1	NaN	456	8	15	1	120	220	320	NaN	520	1.71581474458799	1	1	NaN	2498289.018771	NaN	2498290.0022033	2498290.51875606
13	21	0	0	90	36.1581920903955	36.241610738255	10	0.333400800079107	2	10	2	NaN	2	5	0.0528131511792984	0	1	NaN	457	8	16	1	120	220	320	NaN	520	0.207844045013189	1	0	NaN	2498293.1024049	NaN	2498294.0859168	2498294.60248095
13	21	0	0	90	36.1581920903955	36.241610738255	11	0.366740880087018	2	9	2	NaN	2	3	0.0528131511792984	0	1	NaN	458	8	17	1	120	220	320	NaN	520	0.283414994366467	1	0	NaN	2498295.8193175	NaN	2498296.8028762	2498297.31941531
