subjno	age	gender	isPractice	viewdist	CmToPixX	CmToPixY	SOA_frm	SOA_time	targNum	targID	targExample	targRace	targGender	firstTargPos	contrast	familiarity	curr_staircase	iStair	TrialNum	BlockNum	blktrl	sessionNum	TC_FIXATION	TC_RSVP_START	TC_RSVP_END	TC_BLANK	TC_RESPONSE_ONSET	RT2afc	resp_2afc	acc	RSVPOnsetVBL	RSVPOnsetTime	RSVPOffsetVBL	RSVPOffsetTime	startrt_2afc
103	19	0	0	90	36.1581920903955	36.241610738255	18	0.600040800198913	2	10	6	NaN	2	4	0.135790103959126	0	1	NaN	1	1	1	1	120	220	320	NaN	520	1.20800312701613	2	1	NaN	3623773.8398478	NaN	3623774.8231199	3623775.35623667
103	19	0	0	90	36.1581920903955	36.241610738255	15	0.50003400016576	2	10	3	NaN	2	3	0.135790103959126	0	1	NaN	2	1	2	1	120	220	320	NaN	520	6.57663452206179	2	1	NaN	3623777.4233583	NaN	3623778.406801	3623778.93992358
103	19	0	0	90	36.1581920903955	36.241610738255	21	0.700047600232065	2	7	1	NaN	2	4	0.135790103959126	0	1	NaN	3	1	3	1	120	220	320	NaN	520	0.851297094486654	2	1	NaN	3623786.3407208	NaN	3623787.3242658	3623787.84080471
103	19	0	0	90	36.1581920903955	36.241610738255	23	0.766718800254166	2	2	5	NaN	1	4	0.135790103959126	0	1	NaN	4	1	4	1	120	220	320	NaN	520	1.06773587455973	2	0	NaN	3623789.524482	NaN	3623790.5078884	3623791.02443613
103	19	0	0	90	36.1581920903955	36.241610738255	11	0.366691600121558	2	11	2	NaN	2	5	0.135790103959126	0	1	NaN	5	1	5	1	120	220	320	NaN	520	3.13146392256021	2	1	NaN	3623792.9248388	NaN	3623793.9082304	3623794.42478238
103	19	0	0	90	36.1581920903955	36.241610738255	6	0.200013600066304	2	11	1	NaN	2	5	0.135790103959126	0	1	NaN	6	1	6	1	120	220	320	NaN	520	0.816799521911889	2	1	NaN	3623798.3752451	NaN	3623799.3587322	3623799.87531538
103	19	0	0	90	36.1581920903955	36.241610738255	6	0.200013600066304	2	11	3	NaN	2	4	0.135790103959126	0	1	NaN	7	1	7	1	120	220	320	NaN	520	1.46752472175285	2	1	NaN	3623801.5088735	NaN	3623802.4923843	3623803.00895698
103	19	0	0	90	36.1581920903955	36.241610738255	8	0.266684800088406	2	4	3	NaN	1	3	0.135790103959126	0	1	NaN	8	1	8	1	120	220	320	NaN	520	1.05167796928436	1	1	NaN	3623805.2927191	NaN	3623806.2761293	3623806.79266003
103	19	0	0	90	36.1581920903955	36.241610738255	8	0.266684800088406	2	9	6	NaN	2	3	0.135790103959126	0	1	NaN	9	1	9	1	120	220	320	NaN	520	1.09289232175797	2	1	NaN	3623808.6597324	NaN	3623809.6430845	3623810.15966318
103	19	0	0	90	36.1581920903955	36.241610738255	17	0.566705200187862	2	2	2	NaN	1	4	0.135790103959126	0	1	NaN	10	1	10	1	120	220	320	NaN	520	0.843866563867778	1	1	NaN	3623812.0765828	NaN	3623813.0601039	3623813.57665194
103	19	0	0	90	36.1581920903955	36.241610738255	6	0.200013600066304	2	6	4	NaN	1	3	0.135790103959126	0	1	NaN	11	1	11	1	120	220	320	NaN	520	0.700374669861048	1	1	NaN	3623815.2437048	NaN	3623816.2270836	3623816.74363813
103	19	0	0	90	36.1581920903955	36.241610738255	15	0.50003400016576	2	3	5	NaN	1	5	0.135790103959126	0	1	NaN	12	1	12	1	120	220	320	NaN	520	0.891672916710377	1	1	NaN	3623818.2606593	NaN	3623819.2440613	3623819.76060528
103	19	0	0	90	36.1581920903955	36.241610738255	24	0.800054400265217	2	3	3	NaN	1	5	0.135790103959126	0	1	NaN	13	1	13	1	120	220	320	NaN	520	0.634578221943229	1	1	NaN	3623821.4775185	NaN	3623822.4610556	3623822.97758928
103	19	0	0	90	36.1581920903955	36.241610738255	9	0.300020400099456	2	5	2	NaN	1	4	0.135790103959126	0	1	NaN	14	1	14	1	120	220	320	NaN	520	1.39645827421919	1	1	NaN	3623824.4279924	NaN	3623825.4112967	3623825.92789543
103	19	0	0	90	36.1581920903955	36.241610738255	0	0	1	1	1	NaN	1	4	0.135790103959126	0	1	NaN	15	1	15	1	110	210	310	NaN	510	1.50347142200917	1	1	NaN	3623828.144959	NaN	3623829.1283527	3623829.64490598
103	19	0	0	90	36.1581920903955	36.241610738255	24	0.800054400265217	2	3	1	NaN	1	3	0.135790103959126	0	1	NaN	16	1	16	1	120	220	320	NaN	520	0.670414269436151	2	0	NaN	3623831.9619947	NaN	3623832.9453947	3623833.46194393
103	19	0	0	90	36.1581920903955	36.241610738255	16	0.533369600176811	2	1	2	NaN	1	4	0.135790103959126	0	1	NaN	17	1	17	1	120	220	320	NaN	520	1.62997366953641	1	1	NaN	3623834.962332	NaN	3623835.9456855	3623836.46223413
103	19	0	0	90	36.1581920903955	36.241610738255	18	0.600040800198913	2	8	6	NaN	2	3	0.135790103959126	0	1	NaN	18	1	18	1	120	220	320	NaN	520	2.19974086945876	2	1	NaN	3623838.9127121	NaN	3623839.8960656	3623840.41263263
103	19	0	0	90	36.1581920903955	36.241610738255	22	0.733383200243115	2	8	2	NaN	2	3	0.135790103959126	0	1	NaN	19	1	19	1	120	220	320	NaN	520	1.82638606941327	2	1	NaN	3623843.4298504	NaN	3623844.4131936	3623844.92973313
103	19	0	0	90	36.1581920903955	36.241610738255	16	0.533369600176811	2	1	4	NaN	1	3	0.135790103959126	0	1	NaN	20	1	20	1	120	220	320	NaN	520	1.65201442176476	1	1	NaN	3623847.5802095	NaN	3623848.5636148	3623849.08016318
103	19	0	0	90	36.1581920903955	36.241610738255	19	0.633376400209963	2	2	6	NaN	1	3	0.135790103959126	0	1	NaN	21	1	21	1	120	220	320	NaN	520	3.51691196952015	2	0	NaN	3623851.54727	NaN	3623852.53066	3623853.04719903
103	19	0	0	90	36.1581920903955	36.241610738255	13	0.433362800143659	2	1	5	NaN	1	3	0.135790103959126	0	1	NaN	22	1	22	1	120	220	320	NaN	520	2.09923301683739	2	0	NaN	3623857.3811341	NaN	3623858.3645621	3623858.88111078
103	19	0	0	90	36.1581920903955	36.241610738255	25	0.833390000276268	2	1	2	NaN	1	4	0.135790103959126	0	1	NaN	23	1	23	1	120	220	320	NaN	520	0.842023822013289	1	1	NaN	3623861.7982776	NaN	3623862.7816344	3623863.29821198
103	19	0	0	90	36.1581920903955	36.241610738255	10	0.333356000110507	2	6	1	NaN	1	5	0.135790103959126	0	1	NaN	24	1	24	1	120	220	320	NaN	520	1.38016736973077	1	1	NaN	3623864.9484536	NaN	3623865.9319703	3623866.44852043
103	19	0	0	90	36.1581920903955	36.241610738255	8	0.266684800088406	2	7	5	NaN	2	5	0.135790103959126	0	1	NaN	25	1	25	1	120	220	320	NaN	520	0.967395122162998	2	1	NaN	3623868.6488418	NaN	3623869.6323529	3623870.14888698
103	19	0	0	90	36.1581920903955	36.241610738255	18	0.600040800198913	2	10	5	NaN	2	3	0.135790103959126	0	1	NaN	26	1	26	1	120	220	320	NaN	520	0.85987696936354	1	0	NaN	3623871.932597	NaN	3623872.9159898	3623873.43253593
103	19	0	0	90	36.1581920903955	36.241610738255	21	0.700047600232065	2	3	2	NaN	1	5	0.135790103959126	0	1	NaN	27	1	27	1	120	220	320	NaN	520	0.732445321977139	2	0	NaN	3623875.1162467	NaN	3623876.0996494	3623876.61619188
103	19	0	0	90	36.1581920903955	36.241610738255	0	0	1	4	1	NaN	1	4	0.135790103959126	0	1	NaN	28	1	28	1	110	210	310	NaN	510	1.29784902231768	1	1	NaN	3623878.1664132	NaN	3623879.1499836	3623879.66649348
103	19	0	0	90	36.1581920903955	36.241610738255	8	0.266684800088406	2	10	5	NaN	2	3	0.135790103959126	0	1	NaN	29	1	29	1	120	220	320	NaN	520	1.65672112209722	1	0	NaN	3623881.7835682	NaN	3623882.766959	3623883.28350728
103	19	0	0	90	36.1581920903955	36.241610738255	21	0.700047600232065	2	9	6	NaN	2	4	0.135790103959126	0	1	NaN	30	1	30	1	120	220	320	NaN	520	1.00117426970974	2	1	NaN	3623885.7672817	NaN	3623886.7506799	3623887.26722953
103	19	0	0	90	36.1581920903955	36.241610738255	7	0.233349200077355	2	6	2	NaN	1	4	0.135790103959126	0	1	NaN	31	1	31	1	120	220	320	NaN	520	1.18843936966732	1	1	NaN	3623889.0842248	NaN	3623890.0676997	3623890.58422123
103	19	0	0	90	36.1581920903955	36.241610738255	12	0.400027200132608	2	10	6	NaN	2	5	0.135790103959126	0	1	NaN	32	1	32	1	120	220	320	NaN	520	1.50374112185091	1	0	NaN	3623892.5846485	NaN	3623893.5680186	3623894.08457068
103	19	0	0	90	36.1581920903955	36.241610738255	0	0	1	12	1	NaN	2	4	0.135790103959126	0	1	NaN	33	1	33	1	110	210	310	NaN	510	0.934688669163734	2	1	NaN	3623896.4016181	NaN	3623897.3850557	3623897.90160833
103	19	0	0	90	36.1581920903955	36.241610738255	16	0.533369600176811	2	8	1	NaN	2	4	0.135790103959126	0	1	NaN	34	1	34	1	120	220	320	NaN	520	0.916200421750546	2	1	NaN	3623899.6520136	NaN	3623900.6353797	3623901.15192898
103	19	0	0	90	36.1581920903955	36.241610738255	23	0.766718800254166	2	7	6	NaN	2	3	0.135790103959126	0	1	NaN	35	1	35	1	120	220	320	NaN	520	0.68280652211979	2	1	NaN	3623902.8855111	NaN	3623903.8690185	3623904.38558888
103	19	0	0	90	36.1581920903955	36.241610738255	11	0.366691600121558	2	11	1	NaN	2	3	0.135790103959126	0	1	NaN	36	1	36	1	120	220	320	NaN	520	1.03430362232029	2	1	NaN	3623905.8859381	NaN	3623906.869322	3623907.38588558
103	19	0	0	90	36.1581920903955	36.241610738255	18	0.600040800198913	2	2	2	NaN	1	3	0.135790103959126	0	1	NaN	37	1	37	1	120	220	320	NaN	520	0.556134869810194	1	1	NaN	3623909.2361483	NaN	3623910.2196604	3623910.73620393
103	19	0	0	90	36.1581920903955	36.241610738255	22	0.733383200243115	2	8	1	NaN	2	5	0.135790103959126	0	1	NaN	38	1	38	1	120	220	320	NaN	520	0.657560569699854	2	1	NaN	3623912.1032033	NaN	3623913.0866047	3623913.60315263
103	19	0	0	90	36.1581920903955	36.241610738255	6	0.200013600066304	2	4	4	NaN	1	4	0.135790103959126	0	1	NaN	39	1	39	1	120	220	320	NaN	520	0.706233121920377	1	1	NaN	3623915.0700437	NaN	3623916.0535679	3623916.57011758
103	19	0	0	90	36.1581920903955	36.241610738255	15	0.50003400016576	2	2	3	NaN	1	3	0.135790103959126	0	1	NaN	40	1	40	1	120	220	320	NaN	520	0.529395122081041	1	1	NaN	3623918.0871305	NaN	3623919.0705277	3623919.58707428
103	19	0	0	90	36.1581920903955	36.241610738255	16	0.533369600176811	2	5	2	NaN	1	4	0.135790103959126	0	1	NaN	41	1	41	1	120	220	320	NaN	520	1.13604521658272	1	1	NaN	3623920.9206714	NaN	3623921.9041447	3623922.42069358
103	19	0	0	90	36.1581920903955	36.241610738255	21	0.700047600232065	2	2	6	NaN	1	4	0.135790103959126	0	1	NaN	42	1	42	1	120	220	320	NaN	520	0.565797069575638	2	0	NaN	3623924.37108	NaN	3623925.3544746	3623925.87102703
103	19	0	0	90	36.1581920903955	36.241610738255	6	0.200013600066304	2	7	6	NaN	2	3	0.135790103959126	0	1	NaN	43	1	43	1	120	220	320	NaN	520	1.54605772253126	2	1	NaN	3623927.2546003	NaN	3623928.2381027	3623928.75464958
103	19	0	0	90	36.1581920903955	36.241610738255	17	0.566705200187862	2	1	5	NaN	1	5	0.135790103959126	0	1	NaN	44	1	44	1	120	220	320	NaN	520	0.606374469585717	2	0	NaN	3623931.1217416	NaN	3623932.1051373	3623932.62169833
103	19	0	0	90	36.1581920903955	36.241610738255	21	0.700047600232065	2	1	6	NaN	1	4	0.135790103959126	0	1	NaN	45	1	45	1	120	220	320	NaN	520	0.506420222111046	2	0	NaN	3623934.0386968	NaN	3623935.0221007	3623935.53864908
103	19	0	0	90	36.1581920903955	36.241610738255	10	0.333356000110507	2	5	4	NaN	1	3	0.135790103959126	0	1	NaN	46	1	46	1	120	220	320	NaN	520	0.569102622102946	1	1	NaN	3623936.8556458	NaN	3623937.8390274	3623938.35558708
103	19	0	0	90	36.1581920903955	36.241610738255	22	0.733383200243115	2	12	6	NaN	2	5	0.135790103959126	0	1	NaN	47	1	47	1	120	220	320	NaN	520	2.92549736937508	2	1	NaN	3623939.7392411	NaN	3623940.7226632	3623941.23920293
103	19	0	0	90	36.1581920903955	36.241610738255	21	0.700047600232065	2	1	5	NaN	1	5	0.135790103959126	0	1	NaN	48	1	48	1	120	220	320	NaN	520	6.35498106945306	1	1	NaN	3623944.9897695	NaN	3623945.9731769	3623946.48972463
103	19	0	0	90	36.1581920903955	36.241610738255	19	0.633376400209963	2	6	3	NaN	1	3	0.135790103959126	0	1	NaN	49	1	49	1	120	220	320	NaN	520	0.423283769749105	1	1	NaN	3623953.6571468	NaN	3623954.6406973	3623955.15723253
103	19	0	0	90	36.1581920903955	36.241610738255	10	0.333356000110507	2	1	1	NaN	1	3	0.135790103959126	0	1	NaN	50	1	50	1	120	220	320	NaN	520	1.37774982210249	1	1	NaN	3623956.3909316	NaN	3623957.3742914	3623957.89084208
103	19	0	0	90	36.1581920903955	36.241610738255	8	0.266684800088406	2	5	1	NaN	1	5	0.135790103959126	0	1	NaN	51	1	51	1	120	220	320	NaN	520	0.429718469735235	1	1	NaN	3623960.0745883	NaN	3623961.0580843	3623961.57453183
103	19	0	0	90	36.1581920903955	36.241610738255	13	0.433362800143659	2	10	4	NaN	2	4	0.135790103959126	0	1	NaN	52	1	52	1	120	220	320	NaN	520	0.655988169368356	2	1	NaN	3623962.8248523	NaN	3623963.808273	3623964.32481013
103	19	0	0	90	36.1581920903955	36.241610738255	7	0.233349200077355	2	9	4	NaN	2	3	0.135790103959126	0	1	NaN	53	1	53	1	120	220	320	NaN	520	0.896893521770835	2	1	NaN	3623965.7918474	NaN	3623966.7752094	3623967.29176518
103	19	0	0	90	36.1581920903955	36.241610738255	14	0.46669840015471	2	7	5	NaN	2	3	0.135790103959126	0	1	NaN	54	1	54	1	120	220	320	NaN	520	0.536106321960688	2	1	NaN	3623969.0088187	NaN	3623969.9921874	3623970.50875578
103	19	0	0	90	36.1581920903955	36.241610738255	25	0.833390000276268	2	9	5	NaN	2	3	0.135790103959126	0	1	NaN	55	1	55	1	120	220	320	NaN	520	1.10943772224709	2	1	NaN	3623971.8590769	NaN	3623972.8424727	3623973.35903408
103	19	0	0	90	36.1581920903955	36.241610738255	23	0.766718800254166	2	9	5	NaN	2	5	0.135790103959126	0	1	NaN	56	1	56	1	120	220	320	NaN	520	0.460510216653347	2	1	NaN	3623975.276084	NaN	3623976.2594587	3623976.77602298
103	19	0	0	90	36.1581920903955	36.241610738255	8	0.266684800088406	2	8	5	NaN	2	4	0.135790103959126	0	1	NaN	57	1	57	1	120	220	320	NaN	520	0.645435322076082	2	1	NaN	3623978.0428913	NaN	3623979.0264158	3623979.54296798
103	19	0	0	90	36.1581920903955	36.241610738255	8	0.266684800088406	2	4	5	NaN	1	5	0.135790103959126	0	1	NaN	58	1	58	1	120	220	320	NaN	520	1.04699386935681	1	1	NaN	3623981.0099578	NaN	3623981.9934919	3623982.50993063
103	19	0	0	90	36.1581920903955	36.241610738255	10	0.333356000110507	2	12	4	NaN	2	5	0.135790103959126	0	1	NaN	59	1	59	1	120	220	320	NaN	520	0.63198642199859	2	1	NaN	3623984.3602758	NaN	3623985.3436938	3623985.86026068
103	19	0	0	90	36.1581920903955	36.241610738255	11	0.366691600121558	2	3	6	NaN	1	3	0.135790103959126	0	1	NaN	60	1	60	1	120	220	320	NaN	520	0.490066269412637	1	1	NaN	3623987.3106109	NaN	3623988.2939966	3623988.81054513
103	19	0	0	90	36.1581920903955	36.241610738255	20	0.666712000221014	2	3	4	NaN	1	3	0.135790103959126	0	1	NaN	61	1	61	1	120	220	320	NaN	520	0.96973817422986	1	1	NaN	3623990.1108752	NaN	3623991.094281	3623991.61083003
103	19	0	0	90	36.1581920903955	36.241610738255	24	0.800054400265217	2	7	2	NaN	2	3	0.135790103959126	0	1	NaN	62	1	62	1	120	220	320	NaN	520	0.48610493214801	2	1	NaN	3623993.3944038	NaN	3623994.3779215	3623994.89447437
103	19	0	0	90	36.1581920903955	36.241610738255	22	0.733383200243115	2	11	2	NaN	2	5	0.135790103959126	0	1	NaN	63	1	63	1	120	220	320	NaN	520	0.45382276410237	2	1	NaN	3623996.1948309	NaN	3623997.1782361	3623997.69475184
103	19	0	0	90	36.1581920903955	36.241610738255	17	0.566705200187862	2	10	3	NaN	2	3	0.135790103959126	0	1	NaN	64	2	1	1	120	220	320	NaN	520	0.815613816957921	2	1	NaN	3624006.9291778	NaN	3624007.9125705	3624008.42913488
103	19	0	0	90	36.1581920903955	36.241610738255	7	0.233349200077355	2	8	1	NaN	2	5	0.135790103959126	0	1	NaN	65	2	2	1	120	220	320	NaN	520	3.29017826961353	2	1	NaN	3624010.0628332	NaN	3624011.0462508	3624011.56278043
103	19	0	0	90	36.1581920903955	36.241610738255	10	0.333356000110507	2	1	6	NaN	1	3	0.135790103959126	0	1	NaN	66	2	3	1	120	220	320	NaN	520	0.609288069419563	1	1	NaN	3624015.6633836	NaN	3624016.6467896	3624017.16333183
103	19	0	0	90	36.1581920903955	36.241610738255	20	0.666712000221014	2	11	4	NaN	2	4	0.135790103959126	0	1	NaN	67	2	4	1	120	220	320	NaN	520	0.34026572201401	2	1	NaN	3624018.580331	NaN	3624019.5637347	3624020.08028308
103	19	0	0	90	36.1581920903955	36.241610738255	13	0.433362800143659	2	1	1	NaN	1	3	0.135790103959126	0	1	NaN	68	2	5	1	120	220	320	NaN	520	0.289978364016861	1	1	NaN	3624021.2305869	NaN	3624022.2140137	3624022.73054214
103	19	0	0	90	36.1581920903955	36.241610738255	6	0.200013600066304	2	12	6	NaN	2	3	0.135790103959126	0	1	NaN	69	2	6	1	120	220	320	NaN	520	1.51366122253239	2	1	NaN	3624023.8308448	NaN	3624024.8142477	3624025.33080508
103	19	0	0	90	36.1581920903955	36.241610738255	17	0.566705200187862	2	4	6	NaN	1	5	0.135790103959126	0	1	NaN	70	2	7	1	120	220	320	NaN	520	1.11230712244287	2	0	NaN	3624027.6645548	NaN	3624028.6479678	3624029.16452148
103	19	0	0	90	36.1581920903955	36.241610738255	10	0.333356000110507	2	2	5	NaN	1	5	0.135790103959126	0	1	NaN	71	2	8	1	120	220	320	NaN	520	2.11027586925775	2	0	NaN	3624031.0982274	NaN	3624032.0816357	3624032.59818803
103	19	0	0	90	36.1581920903955	36.241610738255	6	0.200013600066304	2	2	6	NaN	1	3	0.135790103959126	0	1	NaN	72	2	9	1	120	220	320	NaN	520	1.62863452220336	1	1	NaN	3624035.5319953	NaN	3624036.5154012	3624037.03194708
103	19	0	0	90	36.1581920903955	36.241610738255	9	0.300020400099456	2	11	6	NaN	2	5	0.135790103959126	0	1	NaN	73	2	10	1	120	220	320	NaN	520	0.35819576960057	2	1	NaN	3624039.4823914	NaN	3624040.4657845	3624040.98234483
103	19	0	0	90	36.1581920903955	36.241610738255	15	0.50003400016576	2	4	1	NaN	1	3	0.135790103959126	0	1	NaN	74	2	11	1	120	220	320	NaN	520	0.675564222503453	1	1	NaN	3624042.1493105	NaN	3624043.1326246	3624043.64926968
103	19	0	0	90	36.1581920903955	36.241610738255	10	0.333356000110507	2	2	2	NaN	1	5	0.135790103959126	0	1	NaN	75	2	12	1	120	220	320	NaN	520	0.90005776938051	1	1	NaN	3624045.1329343	NaN	3624046.1163388	3624046.63288833
103	19	0	0	90	36.1581920903955	36.241610738255	17	0.566705200187862	2	5	5	NaN	1	4	0.135790103959126	0	1	NaN	76	2	13	1	120	220	320	NaN	520	3.97853572200984	1	1	NaN	3624048.3499309	NaN	3624049.3333113	3624049.84987748
103	19	0	0	90	36.1581920903955	36.241610738255	13	0.433362800143659	2	9	5	NaN	2	4	0.135790103959126	0	1	NaN	77	2	14	1	120	220	320	NaN	520	0.742037469521165	2	1	NaN	3624054.6503988	NaN	3624055.6339411	3624056.15049133
103	19	0	0	90	36.1581920903955	36.241610738255	12	0.400027200132608	2	10	4	NaN	2	4	0.135790103959126	0	1	NaN	78	2	15	1	120	220	320	NaN	520	1.42721566976979	2	1	NaN	3624057.7175167	NaN	3624058.7009159	3624059.21746563
103	19	0	0	90	36.1581920903955	36.241610738255	12	0.400027200132608	2	4	2	NaN	1	3	0.135790103959126	0	1	NaN	79	2	16	1	120	220	320	NaN	520	0.683280769269913	1	1	NaN	3624061.7011314	NaN	3624062.6846367	3624063.20118483
103	19	0	0	90	36.1581920903955	36.241610738255	22	0.733383200243115	2	1	3	NaN	1	3	0.135790103959126	0	1	NaN	80	2	17	1	120	220	320	NaN	520	0.563444879837334	2	0	NaN	3624064.7015317	NaN	3624065.6849375	3624066.20148322
103	19	0	0	90	36.1581920903955	36.241610738255	16	0.533369600176811	2	6	3	NaN	1	4	0.135790103959126	0	1	NaN	81	2	18	1	120	220	320	NaN	520	0.59139442211017	1	1	NaN	3624067.5851529	NaN	3624068.5685494	3624069.08509988
103	19	0	0	90	36.1581920903955	36.241610738255	10	0.333356000110507	2	4	4	NaN	1	3	0.135790103959126	0	1	NaN	82	2	19	1	120	220	320	NaN	520	0.979041121900082	2	0	NaN	3624070.4853438	NaN	3624071.4688452	3624071.98538828
103	19	0	0	90	36.1581920903955	36.241610738255	13	0.433362800143659	2	7	2	NaN	2	3	0.135790103959126	0	1	NaN	83	2	20	1	120	220	320	NaN	520	0.742773569654673	2	1	NaN	3624073.7857564	NaN	3624074.7691598	3624075.28570793
103	19	0	0	90	36.1581920903955	36.241610738255	10	0.333356000110507	2	11	2	NaN	2	5	0.135790103959126	0	1	NaN	84	2	21	1	120	220	320	NaN	520	0.756893216632307	2	1	NaN	3624076.8360692	NaN	3624077.8194809	3624078.33600338
103	19	0	0	90	36.1581920903955	36.241610738255	22	0.733383200243115	2	9	1	NaN	2	4	0.135790103959126	0	1	NaN	85	2	22	1	120	220	320	NaN	520	1.70562042202801	2	1	NaN	3624079.9030676	NaN	3624080.8864215	3624081.40297458
103	19	0	0	90	36.1581920903955	36.241610738255	20	0.666712000221014	2	11	4	NaN	2	3	0.135790103959126	0	1	NaN	86	2	23	1	120	220	320	NaN	520	0.648830469697714	2	1	NaN	3624083.9199697	NaN	3624084.9034932	3624085.42004783
103	19	0	0	90	36.1581920903955	36.241610738255	12	0.400027200132608	2	2	1	NaN	1	4	0.135790103959126	0	1	NaN	87	2	24	1	120	220	320	NaN	520	0.46545682195574	1	1	NaN	3624086.8870364	NaN	3624087.8704467	3624088.38699188
103	19	0	0	90	36.1581920903955	36.241610738255	24	0.800054400265217	2	11	6	NaN	2	3	0.135790103959126	0	1	NaN	88	2	25	1	120	220	320	NaN	520	0.377935422118753	2	1	NaN	3624089.6706427	NaN	3624090.6540514	3624091.17059858
103	19	0	0	90	36.1581920903955	36.241610738255	14	0.46669840015471	2	4	5	NaN	1	3	0.135790103959126	0	1	NaN	89	2	26	1	120	220	320	NaN	520	0.543066169600934	1	1	NaN	3624092.5376155	NaN	3624093.521023	3624094.03755813
103	19	0	0	90	36.1581920903955	36.241610738255	17	0.566705200187862	2	11	4	NaN	2	4	0.135790103959126	0	1	NaN	90	2	27	1	120	220	320	NaN	520	1.22884752228856	2	1	NaN	3624095.3878902	NaN	3624096.3713023	3624096.88784518
103	19	0	0	90	36.1581920903955	36.241610738255	23	0.766718800254166	2	7	4	NaN	2	3	0.135790103959126	0	1	NaN	91	2	28	1	120	220	320	NaN	520	0.846605969127268	1	0	NaN	3624098.9381267	NaN	3624099.9216244	3624100.43817713
103	19	0	0	90	36.1581920903955	36.241610738255	13	0.433362800143659	2	8	3	NaN	2	3	0.135790103959126	0	1	NaN	92	2	29	1	120	220	320	NaN	520	0.511451121885329	2	1	NaN	3624102.1052051	NaN	3624103.0885801	3624103.60516528
103	19	0	0	90	36.1581920903955	36.241610738255	11	0.366691600121558	2	10	5	NaN	2	3	0.135790103959126	0	1	NaN	93	2	30	1	120	220	320	NaN	520	0.694079169537872	2	1	NaN	3624104.9386994	NaN	3624105.9222185	3624106.43877653
103	19	0	0	90	36.1581920903955	36.241610738255	12	0.400027200132608	2	12	5	NaN	2	5	0.135790103959126	0	1	NaN	94	2	31	1	120	220	320	NaN	520	2.04476814204827	2	1	NaN	3624107.9557765	NaN	3624108.9391792	3624109.45573266
103	19	0	0	90	36.1581920903955	36.241610738255	10	0.333356000110507	2	8	2	NaN	2	5	0.135790103959126	0	1	NaN	95	2	32	1	120	220	320	NaN	520	1.0947371693328	2	1	NaN	3624112.3061193	NaN	3624113.2896034	3624113.80616853
103	19	0	0	90	36.1581920903955	36.241610738255	14	0.46669840015471	2	5	5	NaN	1	3	0.135790103959126	0	1	NaN	96	2	33	1	120	220	320	NaN	520	0.749759489670396	1	1	NaN	3624115.7232311	NaN	3624116.7066049	3624117.22316191
103	19	0	0	90	36.1581920903955	36.241610738255	24	0.800054400265217	2	10	2	NaN	2	5	0.135790103959126	0	1	NaN	97	2	34	1	120	220	320	NaN	520	2.03552556969225	2	1	NaN	3624118.773421	NaN	3624119.756913	3624120.27345753
103	19	0	0	90	36.1581920903955	36.241610738255	10	0.333356000110507	2	8	5	NaN	2	3	0.135790103959126	0	1	NaN	98	2	35	1	120	220	320	NaN	520	0.74873126950115	1	0	NaN	3624123.1238159	NaN	3624124.1073265	3624124.62388433
103	19	0	0	90	36.1581920903955	36.241610738255	20	0.666712000221014	2	6	5	NaN	1	4	0.135790103959126	0	1	NaN	99	2	36	1	120	220	320	NaN	520	1.66605086950585	1	1	NaN	3624126.1909084	NaN	3624127.1743034	3624127.69085423
103	19	0	0	90	36.1581920903955	36.241610738255	10	0.333356000110507	2	10	6	NaN	2	3	0.135790103959126	0	1	NaN	100	2	37	1	120	220	320	NaN	520	0.546264222357422	2	1	NaN	3624130.1746419	NaN	3624131.1580317	3624131.67458368
103	19	0	0	90	36.1581920903955	36.241610738255	14	0.46669840015471	2	11	2	NaN	2	4	0.135790103959126	0	1	NaN	101	2	38	1	120	220	320	NaN	520	0.807765922509134	2	1	NaN	3624133.0248769	NaN	3624134.0083168	3624134.52486298
103	19	0	0	90	36.1581920903955	36.241610738255	12	0.400027200132608	2	5	1	NaN	1	4	0.135790103959126	0	1	NaN	102	2	39	1	120	220	320	NaN	520	0.451157722156495	1	1	NaN	3624136.1417678	NaN	3624137.1253007	3624137.64184158
103	19	0	0	90	36.1581920903955	36.241610738255	24	0.800054400265217	2	5	6	NaN	1	3	0.135790103959126	0	1	NaN	103	2	40	1	120	220	320	NaN	520	0.636261569336057	1	1	NaN	3624138.9088612	NaN	3624139.8922152	3624140.40876813
103	19	0	0	90	36.1581920903955	36.241610738255	23	0.766718800254166	2	12	4	NaN	2	5	0.135790103959126	0	1	NaN	104	2	41	1	120	220	320	NaN	520	2.69356052670628	1	0	NaN	3624141.8590873	NaN	3624142.8424705	3624143.35906407
103	19	0	0	90	36.1581920903955	36.241610738255	0	0	1	5	3	NaN	1	5	0.135790103959126	0	1	NaN	105	2	42	1	110	210	310	NaN	510	2.85239491704851	1	1	NaN	3624146.8762737	NaN	3624147.8596543	3624148.37621628
103	19	0	0	90	36.1581920903955	36.241610738255	7	0.233349200077355	2	4	1	NaN	1	4	0.135790103959126	0	1	NaN	106	2	43	1	120	220	320	NaN	520	0.893208516761661	1	1	NaN	3624152.0434653	NaN	3624153.0268341	3624153.54339328
103	19	0	0	90	36.1581920903955	36.241610738255	8	0.266684800088406	2	3	5	NaN	1	5	0.135790103959126	0	1	NaN	107	2	44	1	120	220	320	NaN	520	0.437081969343126	1	1	NaN	3624155.2437612	NaN	3624156.2271627	3624156.74370753
103	19	0	0	90	36.1581920903955	36.241610738255	21	0.700047600232065	2	11	5	NaN	2	5	0.135790103959126	0	1	NaN	108	2	45	1	120	220	320	NaN	520	0.550764169543982	2	1	NaN	3624157.9939099	NaN	3624158.9774148	3624159.49397953
103	19	0	0	90	36.1581920903955	36.241610738255	9	0.300020400099456	2	1	2	NaN	1	4	0.135790103959126	0	1	NaN	109	2	46	1	120	220	320	NaN	520	0.371991822496057	1	1	NaN	3624160.8609844	NaN	3624161.8443837	3624162.36093758
103	19	0	0	90	36.1581920903955	36.241610738255	18	0.600040800198913	2	8	5	NaN	2	5	0.135790103959126	0	1	NaN	110	2	47	1	120	220	320	NaN	520	0.344109769910574	1	0	NaN	3624163.5444985	NaN	3624164.5279761	3624165.04452163
103	19	0	0	90	36.1581920903955	36.241610738255	11	0.366691600121558	2	12	2	NaN	2	5	0.135790103959126	0	1	NaN	111	2	48	1	120	220	320	NaN	520	0.454294121824205	2	1	NaN	3624166.1948574	NaN	3624167.17812	3624167.69478388
103	19	0	0	90	36.1581920903955	36.241610738255	0	0	1	7	1	NaN	2	3	0.135790103959126	0	1	NaN	112	2	49	1	110	210	310	NaN	510	1.19088617386296	1	0	NaN	3624168.9616995	NaN	3624169.9451675	3624170.46172783
103	19	0	0	90	36.1581920903955	36.241610738255	12	0.400027200132608	2	5	6	NaN	1	4	0.135790103959126	0	1	NaN	113	2	50	1	120	220	320	NaN	520	2.59487051703036	1	1	NaN	3624172.4620699	NaN	3624173.4455401	3624173.96207198
103	19	0	0	90	36.1581920903955	36.241610738255	22	0.733383200243115	2	6	2	NaN	1	4	0.135790103959126	0	1	NaN	114	2	51	1	120	220	320	NaN	520	0.533347222022712	1	1	NaN	3624177.3792767	NaN	3624178.362676	3624178.87922388
103	19	0	0	90	36.1581920903955	36.241610738255	9	0.300020400099456	2	3	4	NaN	1	5	0.135790103959126	0	1	NaN	115	2	52	1	120	220	320	NaN	520	0.603548016864806	1	1	NaN	3624180.2295542	NaN	3624181.2129657	3624181.72950578
103	19	0	0	90	36.1581920903955	36.241610738255	20	0.666712000221014	2	12	5	NaN	2	5	0.135790103959126	0	1	NaN	116	2	53	1	120	220	320	NaN	520	0.630548969376832	2	1	NaN	3624183.1466062	NaN	3624184.1298988	3624184.64644763
103	19	0	0	90	36.1581920903955	36.241610738255	19	0.633376400209963	2	5	1	NaN	1	4	0.135790103959126	0	1	NaN	117	2	54	1	120	220	320	NaN	520	0.440401464235038	1	1	NaN	3624186.0967997	NaN	3624187.0801939	3624187.59674504
103	19	0	0	90	36.1581920903955	36.241610738255	24	0.800054400265217	2	6	4	NaN	1	3	0.135790103959126	0	1	NaN	118	2	55	1	120	220	320	NaN	520	0.833748422097415	1	1	NaN	3624188.8469994	NaN	3624189.830493	3624190.34700898
103	19	0	0	90	36.1581920903955	36.241610738255	15	0.50003400016576	2	11	1	NaN	2	5	0.135790103959126	0	1	NaN	119	2	56	1	120	220	320	NaN	520	0.475704522337765	2	1	NaN	3624191.9974224	NaN	3624192.9807709	3624193.49732668
103	19	0	0	90	36.1581920903955	36.241610738255	24	0.800054400265217	2	2	4	NaN	1	3	0.135790103959126	0	1	NaN	120	2	57	1	120	220	320	NaN	520	0.619887421838939	1	1	NaN	3624194.7809968	NaN	3624195.7643733	3624196.28093558
103	19	0	0	90	36.1581920903955	36.241610738255	18	0.600040800198913	2	6	6	NaN	1	5	0.135790103959126	0	1	NaN	121	2	58	1	120	220	320	NaN	520	0.549922074656934	1	1	NaN	3624197.7144891	NaN	3624198.697997	3624199.21456013
103	19	0	0	90	36.1581920903955	36.241610738255	14	0.46669840015471	2	10	2	NaN	2	4	0.135790103959126	0	1	NaN	122	2	59	1	120	220	320	NaN	520	0.507197669707239	2	1	NaN	3624200.5815583	NaN	3624201.5649663	3624202.08149353
103	19	0	0	90	36.1581920903955	36.241610738255	13	0.433362800143659	2	8	2	NaN	2	5	0.135790103959126	0	1	NaN	123	2	60	1	120	220	320	NaN	520	0.442407069727778	2	1	NaN	3624203.3983694	NaN	3624204.3818946	3624204.89843873
103	19	0	0	90	36.1581920903955	36.241610738255	22	0.733383200243115	2	4	5	NaN	1	5	0.135790103959126	0	1	NaN	124	2	61	1	120	220	320	NaN	520	0.484323021955788	1	1	NaN	3624206.1487648	NaN	3624207.1322759	3624207.64871938
103	19	0	0	90	36.1581920903955	36.241610738255	10	0.333356000110507	2	3	6	NaN	1	5	0.135790103959126	0	1	NaN	125	2	62	1	120	220	320	NaN	520	1.94787252182141	2	0	NaN	3624208.9490417	NaN	3624209.932431	3624210.44899068
103	19	0	0	90	36.1581920903955	36.241610738255	6	0.200013600066304	2	3	2	NaN	1	4	0.135790103959126	0	1	NaN	126	2	63	1	120	220	320	NaN	520	0.329095116816461	1	1	NaN	3624213.2161138	NaN	3624214.1995308	3624214.71606868
103	19	0	0	90	36.1581920903955	36.241610738255	15	0.50003400016576	2	5	3	NaN	1	4	0.135790103959126	0	1	NaN	127	3	1	1	120	220	320	NaN	520	0.74556912202388	1	1	NaN	3624228.5676217	NaN	3624229.5510175	3624230.06758538
103	19	0	0	90	36.1581920903955	36.241610738255	6	0.200013600066304	2	5	6	NaN	1	5	0.135790103959126	0	1	NaN	128	3	2	1	120	220	320	NaN	520	1.14264036435634	1	1	NaN	3624231.634489	NaN	3624232.6180008	3624233.13454354
103	19	0	0	90	36.1581920903955	36.241610738255	0	0	1	6	1	NaN	1	3	0.135790103959126	0	1	NaN	129	3	3	1	110	210	310	NaN	510	1.7557858848013	2	0	NaN	3624235.0848195	NaN	3624236.0683571	3624236.58490002
103	19	0	0	90	36.1581920903955	36.241610738255	22	0.733383200243115	2	10	4	NaN	2	5	0.135790103959126	0	1	NaN	130	3	4	1	120	220	320	NaN	520	0.56088916445151	2	1	NaN	3624239.1518961	NaN	3624240.1353976	3624240.65194874
103	19	0	0	90	36.1581920903955	36.241610738255	11	0.366691600121558	2	9	5	NaN	2	4	0.135790103959126	0	1	NaN	131	3	5	1	120	220	320	NaN	520	0.485873522236943	2	1	NaN	3624242.0189578	NaN	3624243.0023596	3624243.51889878
103	19	0	0	90	36.1581920903955	36.241610738255	8	0.266684800088406	2	6	6	NaN	1	5	0.135790103959126	0	1	NaN	132	3	6	1	120	220	320	NaN	520	0.421570422127843	1	1	NaN	3624244.8191165	NaN	3624245.8026219	3624246.31918278
103	19	0	0	90	36.1581920903955	36.241610738255	16	0.533369600176811	2	5	3	NaN	1	3	0.135790103959126	0	1	NaN	133	3	7	1	120	220	320	NaN	520	1.42414563242346	1	1	NaN	3624247.5527035	NaN	3624248.5362582	3624249.05277937
103	19	0	0	90	36.1581920903955	36.241610738255	6	0.200013600066304	2	6	3	NaN	1	4	0.135790103959126	0	1	NaN	134	3	8	1	120	220	320	NaN	520	0.658623369876295	1	1	NaN	3624251.2863978	NaN	3624252.2699335	3624252.78648503
103	19	0	0	90	36.1581920903955	36.241610738255	6	0.200013600066304	2	12	3	NaN	2	3	0.135790103959126	0	1	NaN	135	3	9	1	120	220	320	NaN	520	1.25139642227441	2	1	NaN	3624254.2535092	NaN	3624255.2369376	3624255.75344278
103	19	0	0	90	36.1581920903955	36.241610738255	6	0.200013600066304	2	9	3	NaN	2	4	0.135790103959126	0	1	NaN	136	3	10	1	120	220	320	NaN	520	0.732233269605786	2	1	NaN	3624257.8205353	NaN	3624258.803981	3624259.32045113
103	19	0	0	90	36.1581920903955	36.241610738255	14	0.46669840015471	2	1	3	NaN	1	5	0.135790103959126	0	1	NaN	137	3	11	1	120	220	320	NaN	520	0.602062322199345	1	1	NaN	3624260.870804	NaN	3624261.8540987	3624262.37074908
103	19	0	0	90	36.1581920903955	36.241610738255	7	0.233349200077355	2	11	3	NaN	2	4	0.135790103959126	0	1	NaN	138	3	12	1	120	220	320	NaN	520	0.773375532124192	2	1	NaN	3624263.7877122	NaN	3624264.7711565	3624265.28771807
103	19	0	0	90	36.1581920903955	36.241610738255	24	0.800054400265217	2	6	1	NaN	1	4	0.135790103959126	0	1	NaN	139	3	13	1	120	220	320	NaN	520	1.01005431683734	1	1	NaN	3624267.0547031	NaN	3624268.0381382	3624268.55470118
103	19	0	0	90	36.1581920903955	36.241610738255	21	0.700047600232065	2	11	4	NaN	2	4	0.135790103959126	0	1	NaN	140	3	14	1	120	220	320	NaN	520	1.02905942220241	2	1	NaN	3624270.3717326	NaN	3624271.3551343	3624271.87169588
103	19	0	0	90	36.1581920903955	36.241610738255	0	0	1	2	5	NaN	1	4	0.135790103959126	0	1	NaN	141	3	15	1	110	210	310	NaN	510	0.806876122020185	2	0	NaN	3624273.7220663	NaN	3624274.7054603	3624275.22202288
103	19	0	0	90	36.1581920903955	36.241610738255	15	0.50003400016576	2	2	1	NaN	1	5	0.135790103959126	0	1	NaN	142	3	16	1	120	220	320	NaN	520	0.930234827101231	1	1	NaN	3624276.8388958	NaN	3624277.8224379	3624278.33899357
103	19	0	0	90	36.1581920903955	36.241610738255	23	0.766718800254166	2	5	2	NaN	1	5	0.135790103959126	0	1	NaN	143	3	17	1	120	220	320	NaN	520	1.11159306950867	1	1	NaN	3624280.0893649	NaN	3624281.0727647	3624281.58930433
103	19	0	0	90	36.1581920903955	36.241610738255	24	0.800054400265217	2	7	2	NaN	2	4	0.135790103959126	0	1	NaN	144	3	18	1	120	220	320	NaN	520	0.605866764672101	2	1	NaN	3624283.523058	NaN	3624284.506425	3624285.02297904
103	19	0	0	90	36.1581920903955	36.241610738255	22	0.733383200243115	2	3	1	NaN	1	4	0.135790103959126	0	1	NaN	145	3	19	1	120	220	320	NaN	520	0.720969669520855	2	0	NaN	3624286.4399826	NaN	3624287.423383	3624287.93993783
103	19	0	0	90	36.1581920903955	36.241610738255	0	0	1	9	4	NaN	2	5	0.135790103959126	0	1	NaN	146	3	20	1	110	210	310	NaN	510	1.70336676947773	2	1	NaN	3624289.4736894	NaN	3624290.4570142	3624290.97357043
103	19	0	0	90	36.1581920903955	36.241610738255	0	0	1	5	2	NaN	1	5	0.135790103959126	0	1	NaN	147	3	21	1	110	210	310	NaN	510	2.09422606928274	1	1	NaN	3624293.4905906	NaN	3624294.4741153	3624294.99062833
103	19	0	0	90	36.1581920903955	36.241610738255	7	0.233349200077355	2	5	4	NaN	1	5	0.135790103959126	0	1	NaN	148	3	22	1	120	220	320	NaN	520	1.39014442218468	1	1	NaN	3624297.8910097	NaN	3624298.8745054	3624299.39106198
103	19	0	0	90	36.1581920903955	36.241610738255	19	0.633376400209963	2	9	2	NaN	2	3	0.135790103959126	0	1	NaN	149	3	23	1	120	220	320	NaN	520	0.55352146923542	2	1	NaN	3624301.5914928	NaN	3624302.5748754	3624303.09142243
103	19	0	0	90	36.1581920903955	36.241610738255	25	0.833390000276268	2	7	6	NaN	2	3	0.135790103959126	0	1	NaN	150	3	24	1	120	220	320	NaN	520	1.50258142221719	2	1	NaN	3624304.4584319	NaN	3624305.4418182	3624305.95837948
103	19	0	0	90	36.1581920903955	36.241610738255	7	0.233349200077355	2	4	6	NaN	1	3	0.135790103959126	0	1	NaN	151	3	25	1	120	220	320	NaN	520	0.557870622258633	1	1	NaN	3624308.2753598	NaN	3624309.2588584	3624309.77541298
103	19	0	0	90	36.1581920903955	36.241610738255	14	0.46669840015471	2	7	3	NaN	2	5	0.135790103959126	0	1	NaN	152	3	26	1	120	220	320	NaN	520	0.626565569546074	1	0	NaN	3624311.1424099	NaN	3624312.1258093	3624312.64237183
103	19	0	0	90	36.1581920903955	36.241610738255	19	0.633376400209963	2	9	6	NaN	2	4	0.135790103959126	0	1	NaN	153	3	27	1	120	220	320	NaN	520	0.500420622061938	2	1	NaN	3624314.0926999	NaN	3624315.0760266	3624315.59264748
103	19	0	0	90	36.1581920903955	36.241610738255	13	0.433362800143659	2	7	3	NaN	2	4	0.135790103959126	0	1	NaN	154	3	28	1	120	220	320	NaN	520	1.05968756927177	2	1	NaN	3624316.9096556	NaN	3624317.893045	3624318.40959173
103	19	0	0	90	36.1581920903955	36.241610738255	20	0.666712000221014	2	12	3	NaN	2	3	0.135790103959126	0	1	NaN	155	3	29	1	120	220	320	NaN	520	1.07643946958706	2	1	NaN	3624320.2766334	NaN	3624321.2600501	3624321.77659093
103	19	0	0	90	36.1581920903955	36.241610738255	15	0.50003400016576	2	6	1	NaN	1	4	0.135790103959126	0	1	NaN	156	3	30	1	120	220	320	NaN	520	0.748324922285974	1	1	NaN	3624323.6769736	NaN	3624324.6603657	3624325.17693208
103	19	0	0	90	36.1581920903955	36.241610738255	6	0.200013600066304	2	8	6	NaN	2	3	0.135790103959126	0	1	NaN	157	3	31	1	120	220	320	NaN	520	2.20101691689342	1	0	NaN	3624326.7439386	NaN	3624327.7273246	3624328.24388728
103	19	0	0	90	36.1581920903955	36.241610738255	13	0.433362800143659	2	5	1	NaN	1	4	0.135790103959126	0	1	NaN	158	3	32	1	120	220	320	NaN	520	5.99618362216279	2	0	NaN	3624331.2610739	NaN	3624332.244471	3624332.76100048
103	19	0	0	90	36.1581920903955	36.241610738255	14	0.46669840015471	2	3	3	NaN	1	5	0.135790103959126	0	1	NaN	159	3	33	1	120	220	320	NaN	520	2.51125552225858	1	1	NaN	3624339.5618849	NaN	3624340.5452981	3624341.06182208
103	19	0	0	90	36.1581920903955	36.241610738255	15	0.50003400016576	2	12	6	NaN	2	3	0.135790103959126	0	1	NaN	160	3	34	1	120	220	320	NaN	520	0.613411569502205	2	1	NaN	3624344.3957015	NaN	3624345.3790863	3624345.89563143
103	19	0	0	90	36.1581920903955	36.241610738255	23	0.766718800254166	2	3	3	NaN	1	5	0.135790103959126	0	1	NaN	161	3	35	1	120	220	320	NaN	520	0.952449174132198	1	1	NaN	3624347.3125088	NaN	3624348.2960221	3624348.81258273
103	19	0	0	90	36.1581920903955	36.241610738255	9	0.300020400099456	2	2	3	NaN	1	5	0.135790103959126	0	1	NaN	162	3	36	1	120	220	320	NaN	520	1.50136216403916	1	1	NaN	3624350.5795045	NaN	3624351.5630509	3624352.07956484
103	19	0	0	90	36.1581920903955	36.241610738255	15	0.50003400016576	2	9	5	NaN	2	5	0.135790103959126	0	1	NaN	163	3	37	1	120	220	320	NaN	520	0.548795822076499	2	1	NaN	3624354.3967138	NaN	3624355.3800941	3624355.89661038
103	19	0	0	90	36.1581920903955	36.241610738255	13	0.433362800143659	2	3	4	NaN	1	4	0.135790103959126	0	1	NaN	164	3	38	1	120	220	320	NaN	520	2.07340112188831	2	0	NaN	3624357.263637	NaN	3624358.2470094	3624358.76356628
103	19	0	0	90	36.1581920903955	36.241610738255	8	0.266684800088406	2	3	5	NaN	1	3	0.135790103959126	0	1	NaN	165	3	39	1	120	220	320	NaN	520	1.45771261677146	1	1	NaN	3624361.6473674	NaN	3624362.6307673	3624363.14731748
103	19	0	0	90	36.1581920903955	36.241610738255	11	0.366691600121558	2	6	3	NaN	1	5	0.135790103959126	0	1	NaN	166	3	40	1	120	220	320	NaN	520	0.530628121923655	1	1	NaN	3624365.4144323	NaN	3624366.3978039	3624366.91436748
103	19	0	0	90	36.1581920903955	36.241610738255	15	0.50003400016576	2	10	2	NaN	2	3	0.135790103959126	0	1	NaN	167	3	41	1	120	220	320	NaN	520	0.632359021808952	2	1	NaN	3624368.2646278	NaN	3624369.248093	3624369.76464178
103	19	0	0	90	36.1581920903955	36.241610738255	25	0.833390000276268	2	3	6	NaN	1	5	0.135790103959126	0	1	NaN	168	3	42	1	120	220	320	NaN	520	0.554392522200942	1	1	NaN	3624371.2149782	NaN	3624372.198378	3624372.71493318
103	19	0	0	90	36.1581920903955	36.241610738255	0	0	1	7	4	NaN	2	4	0.135790103959126	0	1	NaN	169	3	43	1	110	210	310	NaN	510	1.3750926698558	1	0	NaN	3624374.0819233	NaN	3624375.0653041	3624375.58187293
103	19	0	0	90	36.1581920903955	36.241610738255	23	0.766718800254166	2	9	4	NaN	2	3	0.135790103959126	0	1	NaN	170	3	44	1	120	220	320	NaN	520	0.563793731853366	2	1	NaN	3624377.7655065	NaN	3624378.749019	3624379.26557897
103	19	0	0	90	36.1581920903955	36.241610738255	9	0.300020400099456	2	7	1	NaN	2	5	0.135790103959126	0	1	NaN	171	3	45	1	120	220	320	NaN	520	1.53568591689691	1	0	NaN	3624380.649251	NaN	3624381.6326434	3624382.14919698
103	19	0	0	90	36.1581920903955	36.241610738255	22	0.733383200243115	2	3	4	NaN	1	4	0.135790103959126	0	1	NaN	172	3	46	1	120	220	320	NaN	520	0.613586069550365	2	0	NaN	3624384.4996208	NaN	3624385.4830136	3624385.99956513
103	19	0	0	90	36.1581920903955	36.241610738255	19	0.633376400209963	2	4	5	NaN	1	5	0.135790103959126	0	1	NaN	173	3	47	1	120	220	320	NaN	520	0.592024022247642	1	1	NaN	3624387.4332321	NaN	3624388.4166358	3624388.93319498
103	19	0	0	90	36.1581920903955	36.241610738255	14	0.46669840015471	2	8	6	NaN	2	3	0.135790103959126	0	1	NaN	174	3	48	1	120	220	320	NaN	520	0.41175282234326	2	1	NaN	3624390.3335289	NaN	3624391.3169117	3624391.83347088
103	19	0	0	90	36.1581920903955	36.241610738255	18	0.600040800198913	2	7	6	NaN	2	5	0.135790103959126	0	1	NaN	175	3	49	1	120	220	320	NaN	520	0.334079790394753	2	1	NaN	3624393.0671336	NaN	3624394.0505321	3624394.56707851
103	19	0	0	90	36.1581920903955	36.241610738255	20	0.666712000221014	2	3	1	NaN	1	3	0.135790103959126	0	1	NaN	176	3	50	1	120	220	320	NaN	520	1.41978622227907	2	0	NaN	3624395.7174077	NaN	3624396.7007833	3624397.21733778
103	19	0	0	90	36.1581920903955	36.241610738255	22	0.733383200243115	2	5	1	NaN	1	3	0.135790103959126	0	1	NaN	177	3	51	1	120	220	320	NaN	520	1.0220256219618	1	1	NaN	3624399.4510166	NaN	3624400.4344924	3624400.95103618
103	19	0	0	90	36.1581920903955	36.241610738255	9	0.300020400099456	2	2	5	NaN	1	3	0.135790103959126	0	1	NaN	178	3	52	1	120	220	320	NaN	520	0.632392569445074	1	1	NaN	3624402.7846355	NaN	3624403.7681349	3624404.28469643
103	19	0	0	90	36.1581920903955	36.241610738255	24	0.800054400265217	2	12	1	NaN	2	3	0.135790103959126	0	1	NaN	179	3	53	1	120	220	320	NaN	520	0.850181422196329	2	1	NaN	3624405.7350355	NaN	3624406.7184315	3624407.23498618
103	19	0	0	90	36.1581920903955	36.241610738255	11	0.366691600121558	2	10	2	NaN	2	5	0.135790103959126	0	1	NaN	180	3	54	1	120	220	320	NaN	520	1.21153612202033	1	0	NaN	3624408.90202	NaN	3624409.8854066	3624410.40196718
103	19	0	0	90	36.1581920903955	36.241610738255	22	0.733383200243115	2	11	2	NaN	2	4	0.135790103959126	0	1	NaN	181	3	55	1	120	220	320	NaN	520	0.557416521944106	2	1	NaN	3624412.4356422	NaN	3624413.4190913	3624413.93564758
103	19	0	0	90	36.1581920903955	36.241610738255	25	0.833390000276268	2	12	1	NaN	2	3	0.135790103959126	0	1	NaN	182	3	56	1	120	220	320	NaN	520	1.14637829037383	2	1	NaN	3624415.3026434	NaN	3624416.2860431	3624416.80260321
103	19	0	0	90	36.1581920903955	36.241610738255	25	0.833390000276268	2	6	2	NaN	1	4	0.135790103959126	0	1	NaN	183	3	57	1	120	220	320	NaN	520	0.551296569406986	1	1	NaN	3624418.7697525	NaN	3624419.7530553	3624420.26959423
103	19	0	0	90	36.1581920903955	36.241610738255	15	0.50003400016576	2	8	2	NaN	2	3	0.135790103959126	0	1	NaN	184	3	58	1	120	220	320	NaN	520	0.628842222038656	2	1	NaN	3624421.6366124	NaN	3624422.6199873	3624423.13655518
103	19	0	0	90	36.1581920903955	36.241610738255	12	0.400027200132608	2	9	4	NaN	2	3	0.135790103959126	0	1	NaN	185	3	59	1	120	220	320	NaN	520	1.49430566933006	2	1	NaN	3624424.5868951	NaN	3624425.5703043	3624426.08684513
103	19	0	0	90	36.1581920903955	36.241610738255	16	0.533369600176811	2	3	4	NaN	1	4	0.135790103959126	0	1	NaN	186	3	60	1	120	220	320	NaN	520	1.98944412218407	1	1	NaN	3624428.4039273	NaN	3624429.3873268	3624429.90389698
103	19	0	0	90	36.1581920903955	36.241610738255	10	0.333356000110507	2	9	1	NaN	2	4	0.135790103959126	0	1	NaN	187	3	61	1	120	220	320	NaN	520	0.728714169468731	2	1	NaN	3624432.704355	NaN	3624433.6877628	3624434.20429873
103	19	0	0	90	36.1581920903955	36.241610738255	0	0	1	1	5	NaN	1	5	0.135790103959126	0	1	NaN	188	3	62	1	110	210	310	NaN	510	0.550319469533861	2	0	NaN	3624435.7546541	NaN	3624436.7380831	3624437.25459983
103	19	0	0	90	36.1581920903955	36.241610738255	25	0.833390000276268	2	6	2	NaN	1	5	0.135790103959126	0	1	NaN	189	3	63	1	120	220	320	NaN	520	1.21983226947486	1	1	NaN	3624438.62159	NaN	3624439.6050151	3624440.12154443
103	19	0	0	90	36.1581920903955	36.241610738255	19	0.633376400209963	2	8	5	NaN	2	3	0.135790103959126	0	1	NaN	190	4	1	1	120	220	320	NaN	520	3.1969456220977	2	1	NaN	3624451.7561978	NaN	3624452.7396159	3624453.25617538
103	19	0	0	90	36.1581920903955	36.241610738255	14	0.46669840015471	2	11	5	NaN	2	5	0.135790103959126	0	1	NaN	191	4	2	1	120	220	320	NaN	520	0.735872821882367	2	1	NaN	3624457.2734563	NaN	3624458.2568226	3624458.77338658
103	19	0	0	90	36.1581920903955	36.241610738255	19	0.633376400209963	2	11	6	NaN	2	3	0.135790103959126	0	1	NaN	192	4	3	1	120	220	320	NaN	520	1.43769726995379	2	1	NaN	3624460.3237392	NaN	3624461.3071389	3624461.82367653
103	19	0	0	90	36.1581920903955	36.241610738255	24	0.800054400265217	2	8	4	NaN	2	5	0.135790103959126	0	1	NaN	193	4	4	1	120	220	320	NaN	520	1.84737616963685	2	1	NaN	3624464.0741265	NaN	3624465.0574963	3624465.57404623
103	19	0	0	90	36.1581920903955	36.241610738255	6	0.200013600066304	2	1	1	NaN	1	5	0.135790103959126	0	1	NaN	194	4	5	1	120	220	320	NaN	520	0.664129669312388	1	1	NaN	3624468.2411823	NaN	3624469.2245724	3624469.74112283
103	19	0	0	90	36.1581920903955	36.241610738255	19	0.633376400209963	2	3	4	NaN	1	4	0.135790103959126	0	1	NaN	195	4	6	1	120	220	320	NaN	520	1.32833126978949	1	1	NaN	3624471.2248231	NaN	3624472.2082284	3624472.72475483
103	19	0	0	90	36.1581920903955	36.241610738255	10	0.333356000110507	2	12	2	NaN	2	3	0.135790103959126	0	1	NaN	196	4	7	1	120	220	320	NaN	520	2.07798372209072	2	1	NaN	3624474.8751588	NaN	3624475.8586002	3624476.37511108
103	19	0	0	90	36.1581920903955	36.241610738255	7	0.233349200077355	2	3	3	NaN	1	3	0.135790103959126	0	1	NaN	197	4	8	1	120	220	320	NaN	520	0.678304322063923	1	1	NaN	3624479.2589357	NaN	3624480.2423114	3624480.75887578
103	19	0	0	90	36.1581920903955	36.241610738255	18	0.600040800198913	2	12	3	NaN	2	3	0.135790103959126	0	1	NaN	198	4	9	1	120	220	320	NaN	520	2.51672221673653	2	1	NaN	3624482.492447	NaN	3624483.4760011	3624483.99253358
103	19	0	0	90	36.1581920903955	36.241610738255	19	0.633376400209963	2	8	6	NaN	2	3	0.135790103959126	0	1	NaN	199	4	10	1	120	220	320	NaN	520	2.25049231713638	1	0	NaN	3624487.3263896	NaN	3624488.3097854	3624488.82633798
103	19	0	0	90	36.1581920903955	36.241610738255	6	0.200013600066304	2	10	1	NaN	2	4	0.135790103959126	0	1	NaN	200	4	11	1	120	220	320	NaN	520	0.555673322174698	2	1	NaN	3624491.8935111	NaN	3624492.8768923	3624493.39345348
103	19	0	0	90	36.1581920903955	36.241610738255	24	0.800054400265217	2	9	3	NaN	2	3	0.135790103959126	0	1	NaN	201	4	12	1	120	220	320	NaN	520	2.20879256958142	1	0	NaN	3624494.760455	NaN	3624495.7438536	3624496.26039993
103	19	0	0	90	36.1581920903955	36.241610738255	15	0.50003400016576	2	3	5	NaN	1	5	0.135790103959126	0	1	NaN	202	4	13	1	120	220	320	NaN	520	0.579957437235862	1	1	NaN	3624499.2775436	NaN	3624500.2609447	3624500.77750996
103	19	0	0	90	36.1581920903955	36.241610738255	18	0.600040800198913	2	5	5	NaN	1	3	0.135790103959126	0	1	NaN	203	4	14	1	120	220	320	NaN	520	1.23946696938947	2	0	NaN	3624502.1778736	NaN	3624503.1612394	3624503.67778943
103	19	0	0	90	36.1581920903955	36.241610738255	23	0.766718800254166	2	11	2	NaN	2	3	0.135790103959126	0	1	NaN	204	4	15	1	120	220	320	NaN	520	0.913389469496906	2	1	NaN	3624505.7281604	NaN	3624506.7115872	3624507.22814073
103	19	0	0	90	36.1581920903955	36.241610738255	23	0.766718800254166	2	10	4	NaN	2	4	0.135790103959126	0	1	NaN	205	4	16	1	120	220	320	NaN	520	0.495511622168124	2	1	NaN	3624508.9618719	NaN	3624509.9452541	3624510.46179488
103	19	0	0	90	36.1581920903955	36.241610738255	17	0.566705200187862	2	3	3	NaN	1	4	0.135790103959126	0	1	NaN	206	4	17	1	120	220	320	NaN	520	1.08676886931062	1	1	NaN	3624511.7787895	NaN	3624512.7621775	3624513.27873833
103	19	0	0	90	36.1581920903955	36.241610738255	15	0.50003400016576	2	5	5	NaN	1	3	0.135790103959126	0	1	NaN	207	4	18	1	120	220	320	NaN	520	0.814440569840372	1	1	NaN	3624515.1791431	NaN	3624516.1625159	3624516.67907323
103	19	0	0	90	36.1581920903955	36.241610738255	24	0.800054400265217	2	1	6	NaN	1	4	0.135790103959126	0	1	NaN	208	4	19	1	120	220	320	NaN	520	1.63254551682621	1	1	NaN	3624518.3126472	NaN	3624519.2961874	3624519.81271518
103	19	0	0	90	36.1581920903955	36.241610738255	13	0.433362800143659	2	11	1	NaN	2	5	0.135790103959126	0	1	NaN	209	4	20	1	120	220	320	NaN	520	1.93012947961688	2	1	NaN	3624522.2630342	NaN	3624523.2465718	3624523.76310462
103	19	0	0	90	36.1581920903955	36.241610738255	21	0.700047600232065	2	6	2	NaN	1	4	0.135790103959126	0	1	NaN	210	4	21	1	120	220	320	NaN	520	1.3760373420082	1	1	NaN	3624526.5135578	NaN	3624527.4969521	3624528.01352166
103	19	0	0	90	36.1581920903955	36.241610738255	24	0.800054400265217	2	11	3	NaN	2	4	0.135790103959126	0	1	NaN	211	4	22	1	120	220	320	NaN	520	1.29209592239931	2	1	NaN	3624530.1971839	NaN	3624531.180659	3624531.69722128
103	19	0	0	90	36.1581920903955	36.241610738255	10	0.333356000110507	2	3	2	NaN	1	5	0.135790103959126	0	1	NaN	212	4	23	1	120	220	320	NaN	520	0.923692969605327	1	1	NaN	3624533.7976234	NaN	3624534.7810304	3624535.29756393
103	19	0	0	90	36.1581920903955	36.241610738255	11	0.366691600121558	2	3	5	NaN	1	3	0.135790103959126	0	1	NaN	213	4	24	1	120	220	320	NaN	520	1.02609926927835	1	1	NaN	3624537.0312336	NaN	3624538.0146733	3624538.53121973
103	19	0	0	90	36.1581920903955	36.241610738255	12	0.400027200132608	2	1	6	NaN	1	4	0.135790103959126	0	1	NaN	214	4	25	1	120	220	320	NaN	520	1.13981432188302	1	1	NaN	3624540.3816058	NaN	3624541.3649961	3624541.88155388
103	19	0	0	90	36.1581920903955	36.241610738255	17	0.566705200187862	2	8	5	NaN	2	5	0.135790103959126	0	1	NaN	215	4	26	1	120	220	320	NaN	520	1.62858322216198	1	0	NaN	3624543.948694	NaN	3624544.9320108	3624545.44856588
103	19	0	0	90	36.1581920903955	36.241610738255	25	0.833390000276268	2	4	1	NaN	1	3	0.135790103959126	0	1	NaN	216	4	27	1	120	220	320	NaN	520	0.526829969603568	1	1	NaN	3624547.8821894	NaN	3624548.8657248	3624549.38228803
103	19	0	0	90	36.1581920903955	36.241610738255	22	0.733383200243115	2	7	1	NaN	2	3	0.135790103959126	0	1	NaN	217	4	28	1	120	220	320	NaN	520	1.06964886933565	2	1	NaN	3624550.7159764	NaN	3624551.699386	3624552.21589963
103	19	0	0	90	36.1581920903955	36.241610738255	12	0.400027200132608	2	8	5	NaN	2	5	0.135790103959126	0	1	NaN	218	4	29	1	120	220	320	NaN	520	1.04904646938667	2	1	NaN	3624554.2163092	NaN	3624555.1996905	3624555.71623363
103	19	0	0	90	36.1581920903955	36.241610738255	11	0.366691600121558	2	4	3	NaN	1	4	0.135790103959126	0	1	NaN	219	4	30	1	120	220	320	NaN	520	0.602080984506756	1	1	NaN	3624557.5831628	NaN	3624558.5666725	3624559.08323482
103	19	0	0	90	36.1581920903955	36.241610738255	25	0.833390000276268	2	8	3	NaN	2	5	0.135790103959126	0	1	NaN	220	4	31	1	120	220	320	NaN	520	1.7013717694208	1	0	NaN	3624560.5002812	NaN	3624561.4836537	3624562.00018503
103	19	0	0	90	36.1581920903955	36.241610738255	24	0.800054400265217	2	4	2	NaN	1	5	0.135790103959126	0	1	NaN	221	4	32	1	120	220	320	NaN	520	1.06834016926587	1	1	NaN	3624564.5173032	NaN	3624565.5007002	3624566.01724943
103	19	0	0	90	36.1581920903955	36.241610738255	16	0.533369600176811	2	9	4	NaN	2	4	0.135790103959126	0	1	NaN	222	4	33	1	120	220	320	NaN	520	0.980340769514441	2	1	NaN	3624567.9008425	NaN	3624568.8843723	3624569.40091743
103	19	0	0	90	36.1581920903955	36.241610738255	9	0.300020400099456	2	11	1	NaN	2	3	0.135790103959126	0	1	NaN	223	4	34	1	120	220	320	NaN	520	3.91241002222523	2	1	NaN	3624571.2012912	NaN	3624572.1847297	3624572.70124608
103	19	0	0	90	36.1581920903955	36.241610738255	11	0.366691600121558	2	5	3	NaN	1	3	0.135790103959126	0	1	NaN	224	4	35	1	120	220	320	NaN	520	0.406774322036654	1	1	NaN	3624577.4186773	NaN	3624578.4019021	3624578.91852348
103	19	0	0	90	36.1581920903955	36.241610738255	24	0.800054400265217	2	10	3	NaN	2	4	0.135790103959126	0	1	NaN	225	4	36	1	120	220	320	NaN	520	0.673723116982728	1	0	NaN	3624580.1355045	NaN	3624581.1188984	3624581.63545478
103	19	0	0	90	36.1581920903955	36.241610738255	6	0.200013600066304	2	1	4	NaN	1	5	0.135790103959126	0	1	NaN	226	4	37	1	120	220	320	NaN	520	0.298027922399342	1	1	NaN	3624583.1191423	NaN	3624584.1025247	3624584.61908598
103	19	0	0	90	36.1581920903955	36.241610738255	18	0.600040800198913	2	9	2	NaN	2	5	0.135790103959126	0	1	NaN	227	4	38	1	120	220	320	NaN	520	0.561250269412994	2	1	NaN	3624585.7360398	NaN	3624586.7194273	3624587.23599853
103	19	0	0	90	36.1581920903955	36.241610738255	20	0.666712000221014	2	10	1	NaN	2	4	0.135790103959126	0	1	NaN	228	4	39	1	120	220	320	NaN	520	0.862641122192144	2	1	NaN	3624588.602971	NaN	3624589.5864202	3624590.10294958
103	19	0	0	90	36.1581920903955	36.241610738255	20	0.666712000221014	2	9	4	NaN	2	5	0.135790103959126	0	1	NaN	229	4	40	1	120	220	320	NaN	520	0.391502122394741	2	1	NaN	3624591.7866751	NaN	3624592.7700444	3624593.28659828
103	19	0	0	90	36.1581920903955	36.241610738255	20	0.666712000221014	2	4	4	NaN	1	5	0.135790103959126	0	1	NaN	230	4	41	1	120	220	320	NaN	520	0.850290822330862	1	1	NaN	3624594.4869388	NaN	3624595.4703368	3624595.98685918
103	19	0	0	90	36.1581920903955	36.241610738255	17	0.566705200187862	2	6	5	NaN	1	4	0.135790103959126	0	1	NaN	231	4	42	1	120	220	320	NaN	520	0.867440964095294	1	1	NaN	3624597.6539395	NaN	3624598.6373528	3624599.15383174
103	19	0	0	90	36.1581920903955	36.241610738255	14	0.46669840015471	2	9	1	NaN	2	5	0.135790103959126	0	1	NaN	232	4	43	1	120	220	320	NaN	520	0.851929422002286	2	1	NaN	3624600.8375299	NaN	3624601.8209287	3624602.33749158
103	19	0	0	90	36.1581920903955	36.241610738255	0	0	1	4	5	NaN	1	3	0.135790103959126	0	1	NaN	233	4	44	1	110	210	310	NaN	510	0.612952969502658	1	1	NaN	3624604.0045351	NaN	3624604.9879173	3624605.50446473
103	19	0	0	90	36.1581920903955	36.241610738255	23	0.766718800254166	2	8	4	NaN	2	3	0.135790103959126	0	1	NaN	234	4	45	1	120	220	320	NaN	520	2.08832102175802	2	1	NaN	3624606.9213445	NaN	3624607.9048849	3624608.42141198
103	19	0	0	90	36.1581920903955	36.241610738255	10	0.333356000110507	2	7	4	NaN	2	5	0.135790103959126	0	1	NaN	235	4	46	1	120	220	320	NaN	520	0.911856521852314	2	1	NaN	3624611.3218998	NaN	3624612.3053112	3624612.82184598
103	19	0	0	90	36.1581920903955	36.241610738255	0	0	1	8	3	NaN	2	3	0.135790103959126	0	1	NaN	236	4	47	1	110	210	310	NaN	510	1.718002169393	2	1	NaN	3624614.5555649	NaN	3624615.5389474	3624616.05550403
103	19	0	0	90	36.1581920903955	36.241610738255	25	0.833390000276268	2	2	6	NaN	1	4	0.135790103959126	0	1	NaN	237	4	48	1	120	220	320	NaN	520	1.38800882175565	1	1	NaN	3624618.5892411	NaN	3624619.5726931	3624620.08923348
103	19	0	0	90	36.1581920903955	36.241610738255	23	0.766718800254166	2	3	2	NaN	1	4	0.135790103959126	0	1	NaN	238	4	49	1	120	220	320	NaN	520	0.647793469484895	1	1	NaN	3624622.2896486	NaN	3624623.2730664	3624623.78958703
103	19	0	0	90	36.1581920903955	36.241610738255	20	0.666712000221014	2	7	6	NaN	2	5	0.135790103959126	0	1	NaN	239	4	50	1	120	220	320	NaN	520	0.961175222415477	2	1	NaN	3624625.2564844	NaN	3624626.2399961	3624626.75654928
103	19	0	0	90	36.1581920903955	36.241610738255	6	0.200013600066304	2	4	3	NaN	1	5	0.135790103959126	0	1	NaN	240	4	51	1	120	220	320	NaN	520	0.662155721802264	1	1	NaN	3624628.5236013	NaN	3624629.5069878	3624630.02353198
103	19	0	0	90	36.1581920903955	36.241610738255	25	0.833390000276268	2	7	2	NaN	2	3	0.135790103959126	0	1	NaN	241	4	52	1	120	220	320	NaN	520	1.1586526222527	2	1	NaN	3624631.490516	NaN	3624632.4740047	3624632.99050228
103	19	0	0	90	36.1581920903955	36.241610738255	16	0.533369600176811	2	3	5	NaN	1	5	0.135790103959126	0	1	NaN	242	4	53	1	120	220	320	NaN	520	0.939836169593036	1	1	NaN	3624634.9574252	NaN	3624635.940942	3624636.45749823
103	19	0	0	90	36.1581920903955	36.241610738255	18	0.600040800198913	2	2	4	NaN	1	3	0.135790103959126	0	1	NaN	243	4	54	1	120	220	320	NaN	520	0.873621269594878	1	1	NaN	3624638.2078717	NaN	3624639.1912734	3624639.70782023
103	19	0	0	90	36.1581920903955	36.241610738255	7	0.233349200077355	2	1	1	NaN	1	3	0.135790103959126	0	1	NaN	244	4	55	1	120	220	320	NaN	520	0.937809022143483	1	1	NaN	3624641.3915186	NaN	3624642.3749191	3624642.89146708
103	19	0	0	90	36.1581920903955	36.241610738255	12	0.400027200132608	2	7	3	NaN	2	4	0.135790103959126	0	1	NaN	245	4	56	1	120	220	320	NaN	520	2.90363926440477	2	1	NaN	3624644.6418524	NaN	3624645.6252344	3624646.14178134
103	19	0	0	90	36.1581920903955	36.241610738255	17	0.566705200187862	2	1	3	NaN	1	3	0.135790103959126	0	1	NaN	246	4	57	1	120	220	320	NaN	520	2.28672142699361	2	0	NaN	3624649.8590524	NaN	3624650.8424205	3624651.35896317
103	19	0	0	90	36.1581920903955	36.241610738255	18	0.600040800198913	2	3	1	NaN	1	5	0.135790103959126	0	1	NaN	247	4	58	1	120	220	320	NaN	520	1.44606882240623	2	0	NaN	3624654.4595678	NaN	3624655.4428496	3624655.95942148
103	19	0	0	90	36.1581920903955	36.241610738255	21	0.700047600232065	2	8	6	NaN	2	3	0.135790103959126	0	1	NaN	248	4	59	1	120	220	320	NaN	520	0.526852869428694	2	1	NaN	3624658.2265224	NaN	3624659.2099133	3624659.72645013
103	19	0	0	90	36.1581920903955	36.241610738255	16	0.533369600176811	2	7	3	NaN	2	3	0.135790103959126	0	1	NaN	249	4	60	1	120	220	320	NaN	520	0.645508422050625	1	0	NaN	3624661.0599929	NaN	3624662.043542	3624662.56007198
103	19	0	0	90	36.1581920903955	36.241610738255	21	0.700047600232065	2	7	3	NaN	2	4	0.135790103959126	0	1	NaN	250	4	61	1	120	220	320	NaN	520	1.93512022215873	2	1	NaN	3624664.0102774	NaN	3624664.9938151	3624665.51036488
103	19	0	0	90	36.1581920903955	36.241610738255	6	0.200013600066304	2	3	6	NaN	1	4	0.135790103959126	0	1	NaN	251	4	62	1	120	220	320	NaN	520	1.39693202218041	2	0	NaN	3624668.2608277	NaN	3624669.2442206	3624669.76077988
103	19	0	0	90	36.1581920903955	36.241610738255	17	0.566705200187862	2	8	4	NaN	2	3	0.135790103959126	0	1	NaN	252	4	63	1	120	220	320	NaN	520	0.895926421973854	2	1	NaN	3624671.9778703	NaN	3624672.9612582	3624673.47781228
103	19	0	0	90	36.1581920903955	36.241610738255	9	0.300020400099456	2	10	3	NaN	2	4	0.135790103959126	0	1	NaN	253	5	1	1	120	220	320	NaN	520	0.632433522026986	2	1	NaN	3624685.5290616	NaN	3624686.5125827	3624687.02913688
103	19	0	0	90	36.1581920903955	36.241610738255	19	0.633376400209963	2	12	2	NaN	2	4	0.135790103959126	0	1	NaN	254	5	2	1	120	220	320	NaN	520	0.505713694728911	2	1	NaN	3624688.4794664	NaN	3624689.4628669	3624689.97943871
103	19	0	0	90	36.1581920903955	36.241610738255	11	0.366691600121558	2	4	6	NaN	1	5	0.135790103959126	0	1	NaN	255	5	3	1	120	220	320	NaN	520	0.952897621784359	1	1	NaN	3624691.2964448	NaN	3624692.2798179	3624692.79637778
103	19	0	0	90	36.1581920903955	36.241610738255	12	0.400027200132608	2	8	6	NaN	2	4	0.135790103959126	0	1	NaN	256	5	4	1	120	220	320	NaN	520	0.534145422279835	2	1	NaN	3624694.5634166	NaN	3624695.5468065	3624696.06336058
103	19	0	0	90	36.1581920903955	36.241610738255	18	0.600040800198913	2	4	2	NaN	1	3	0.135790103959126	0	1	NaN	257	5	5	1	120	220	320	NaN	520	0.81227572215721	1	1	NaN	3624697.4136839	NaN	3624698.3970789	3624698.91363488
103	19	0	0	90	36.1581920903955	36.241610738255	15	0.50003400016576	2	7	2	NaN	2	4	0.135790103959126	0	1	NaN	258	5	6	1	120	220	320	NaN	520	0.950120269786566	2	1	NaN	3624700.5473392	NaN	3624701.530751	3624702.04728003
103	19	0	0	90	36.1581920903955	36.241610738255	14	0.46669840015471	2	12	6	NaN	2	4	0.135790103959126	0	1	NaN	259	5	7	1	120	220	320	NaN	520	1.3701060693711	2	1	NaN	3624704.2477264	NaN	3624705.2310788	3624705.74763643
103	19	0	0	90	36.1581920903955	36.241610738255	13	0.433362800143659	2	6	5	NaN	1	4	0.135790103959126	0	1	NaN	260	5	8	1	120	220	320	NaN	520	0.358270722441375	1	1	NaN	3624707.9313916	NaN	3624708.9147868	3624709.43133828
103	19	0	0	90	36.1581920903955	36.241610738255	11	0.366691600121558	2	8	1	NaN	2	5	0.135790103959126	0	1	NaN	261	5	9	1	120	220	320	NaN	520	0.562947969418019	1	0	NaN	3624710.5983072	NaN	3624711.5817252	3624712.09826543
103	19	0	0	90	36.1581920903955	36.241610738255	10	0.333356000110507	2	6	3	NaN	1	4	0.135790103959126	0	1	NaN	262	5	10	1	120	220	320	NaN	520	1.01592206954956	1	1	NaN	3624713.4819337	NaN	3624714.4653333	3624714.98187953
103	19	0	0	90	36.1581920903955	36.241610738255	8	0.266684800088406	2	7	1	NaN	2	3	0.135790103959126	0	1	NaN	263	5	11	1	120	220	320	NaN	520	0.433920074254274	2	1	NaN	3624716.8156045	NaN	3624717.7990328	3624718.31554453
103	19	0	0	90	36.1581920903955	36.241610738255	25	0.833390000276268	2	11	6	NaN	2	3	0.135790103959126	0	1	NaN	264	5	12	1	120	220	320	NaN	520	0.347602022346109	2	1	NaN	3624719.5658577	NaN	3624720.5492582	3624721.06581638
103	19	0	0	90	36.1581920903955	36.241610738255	11	0.366691600121558	2	2	2	NaN	1	4	0.135790103959126	0	1	NaN	265	5	13	1	120	220	320	NaN	520	0.280828674323857	1	1	NaN	3624722.2326717	NaN	3624723.2162543	3624723.73274283
103	19	0	0	90	36.1581920903955	36.241610738255	24	0.800054400265217	2	2	1	NaN	1	3	0.135790103959126	0	1	NaN	266	5	14	1	120	220	320	NaN	520	1.16944632213563	1	1	NaN	3624724.816432	NaN	3624725.7997697	3624726.31633088
103	19	0	0	90	36.1581920903955	36.241610738255	8	0.266684800088406	2	2	6	NaN	1	3	0.135790103959126	0	1	NaN	267	5	15	1	120	220	320	NaN	520	0.781773821916431	2	0	NaN	3624728.3000386	NaN	3624729.283511	3624729.80000278
103	19	0	0	90	36.1581920903955	36.241610738255	8	0.266684800088406	2	12	2	NaN	2	4	0.135790103959126	0	1	NaN	268	5	16	1	120	220	320	NaN	520	0.61409192206338	2	1	NaN	3624732.6838009	NaN	3624733.667214	3624734.18377408
103	19	0	0	90	36.1581920903955	36.241610738255	10	0.333356000110507	2	7	1	NaN	2	5	0.135790103959126	0	1	NaN	269	5	17	1	120	220	320	NaN	520	1.55652062222362	1	0	NaN	3624736.3007264	NaN	3624737.2842411	3624737.80079678
103	19	0	0	90	36.1581920903955	36.241610738255	19	0.633376400209963	2	3	6	NaN	1	5	0.135790103959126	0	1	NaN	270	5	18	1	120	220	320	NaN	520	0.402007721830159	2	0	NaN	3624740.1678817	NaN	3624741.1512848	3624741.66783498
103	19	0	0	90	36.1581920903955	36.241610738255	22	0.733383200243115	2	5	5	NaN	1	5	0.135790103959126	0	1	NaN	271	5	19	1	120	220	320	NaN	520	0.564617469441146	1	1	NaN	3624742.8846933	NaN	3624743.868226	3624744.38476553
103	19	0	0	90	36.1581920903955	36.241610738255	15	0.50003400016576	2	8	4	NaN	2	4	0.135790103959126	0	1	NaN	272	5	20	1	120	220	320	NaN	520	0.439760622102767	2	1	NaN	3624745.8016432	NaN	3624746.7851748	3624747.30173058
103	19	0	0	90	36.1581920903955	36.241610738255	22	0.733383200243115	2	4	1	NaN	1	3	0.135790103959126	0	1	NaN	273	5	21	1	120	220	320	NaN	520	0.433609626721591	1	1	NaN	3624748.751942	NaN	3624749.7354559	3624750.25200907
103	19	0	0	90	36.1581920903955	36.241610738255	25	0.833390000276268	2	2	4	NaN	1	3	0.135790103959126	0	1	NaN	274	5	22	1	120	220	320	NaN	520	0.531218921765685	1	1	NaN	3624751.5023318	NaN	3624752.4857371	3624753.00228378
103	19	0	0	90	36.1581920903955	36.241610738255	8	0.266684800088406	2	10	1	NaN	2	5	0.135790103959126	0	1	NaN	275	5	23	1	120	220	320	NaN	520	0.473030222114176	2	1	NaN	3624754.3525407	NaN	3624755.3360194	3624755.85257098
103	19	0	0	90	36.1581920903955	36.241610738255	7	0.233349200077355	2	7	4	NaN	2	5	0.135790103959126	0	1	NaN	276	5	24	1	120	220	320	NaN	520	0.817392269149423	2	1	NaN	3624757.1362456	NaN	3624758.1196311	3624758.63616853
103	19	0	0	90	36.1581920903955	36.241610738255	20	0.666712000221014	2	10	1	NaN	2	3	0.135790103959126	0	1	NaN	277	5	25	1	120	220	320	NaN	520	0.651768479496241	2	1	NaN	3624760.2698678	NaN	3624761.2532668	3624761.76980952
103	19	0	0	90	36.1581920903955	36.241610738255	22	0.733383200243115	2	9	5	NaN	2	5	0.135790103959126	0	1	NaN	278	5	26	1	120	220	320	NaN	520	1.42972446978092	2	1	NaN	3624763.2201778	NaN	3624764.2035659	3624764.72010363
103	19	0	0	90	36.1581920903955	36.241610738255	10	0.333356000110507	2	10	2	NaN	2	3	0.135790103959126	0	1	NaN	279	5	27	1	120	220	320	NaN	520	2.29545962205157	1	0	NaN	3624766.9705093	NaN	3624767.9539274	3624768.47047698
103	19	0	0	90	36.1581920903955	36.241610738255	9	0.300020400099456	2	12	4	NaN	2	3	0.135790103959126	0	1	NaN	280	5	28	1	120	220	320	NaN	520	0.414013122208416	2	1	NaN	3624771.5876469	NaN	3624772.5709378	3624773.08759508
103	19	0	0	90	36.1581920903955	36.241610738255	12	0.400027200132608	2	12	1	NaN	2	4	0.135790103959126	0	1	NaN	281	5	29	1	120	220	320	NaN	520	5.26536802202463	2	1	NaN	3624774.3045806	NaN	3624775.2879846	3624775.80453088
103	19	0	0	90	36.1581920903955	36.241610738255	7	0.233349200077355	2	3	6	NaN	1	5	0.135790103959126	0	1	NaN	282	5	30	1	120	220	320	NaN	520	0.921319969464093	2	0	NaN	3624781.8885358	NaN	3624782.8720512	3624783.38859993
103	19	0	0	90	36.1581920903955	36.241610738255	20	0.666712000221014	2	6	4	NaN	1	4	0.135790103959126	0	1	NaN	283	5	31	1	120	220	320	NaN	520	0.395814922172576	1	1	NaN	3624785.4223088	NaN	3624786.4057337	3624786.92228098
103	19	0	0	90	36.1581920903955	36.241610738255	17	0.566705200187862	2	5	4	NaN	1	5	0.135790103959126	0	1	NaN	284	5	32	1	120	220	320	NaN	520	0.386417364235967	2	0	NaN	3624788.63929	NaN	3624789.6227172	3624790.13925944
103	19	0	0	90	36.1581920903955	36.241610738255	14	0.46669840015471	2	4	5	NaN	1	4	0.135790103959126	0	1	NaN	285	5	33	1	120	220	320	NaN	520	0.326108869630843	1	1	NaN	3624791.3395869	NaN	3624792.3229949	3624792.83953363
103	19	0	0	90	36.1581920903955	36.241610738255	20	0.666712000221014	2	5	3	NaN	1	3	0.135790103959126	0	1	NaN	286	5	34	1	120	220	320	NaN	520	0.876581822521985	1	1	NaN	3624793.9731782	NaN	3624794.9566311	3624795.47312378
103	19	0	0	90	36.1581920903955	36.241610738255	16	0.533369600176811	2	12	5	NaN	2	4	0.135790103959126	0	1	NaN	287	5	35	1	120	220	320	NaN	520	0.597113422118127	1	0	NaN	3624797.1568114	NaN	3624798.1402292	3624798.65676398
103	19	0	0	90	36.1581920903955	36.241610738255	23	0.766718800254166	2	4	1	NaN	1	3	0.135790103959126	0	1	NaN	288	5	36	1	120	220	320	NaN	520	0.936890417244285	2	0	NaN	3624800.0570972	NaN	3624801.0404952	3624801.55705528
103	19	0	0	90	36.1581920903955	36.241610738255	21	0.700047600232065	2	12	3	NaN	2	5	0.135790103959126	0	1	NaN	289	5	37	1	120	220	320	NaN	520	2.55715972231701	1	0	NaN	3624803.7407757	NaN	3624804.7242104	3624805.24074978
103	19	0	0	90	36.1581920903955	36.241610738255	6	0.200013600066304	2	8	1	NaN	2	4	0.135790103959126	0	1	NaN	290	5	38	1	120	220	320	NaN	520	0.89010176435113	2	1	NaN	3624808.6079454	NaN	3624809.5913382	3624810.10789204
103	19	0	0	90	36.1581920903955	36.241610738255	13	0.433362800143659	2	4	2	NaN	1	3	0.135790103959126	0	1	NaN	291	5	39	1	120	220	320	NaN	520	0.321378322318196	1	1	NaN	3624811.8082013	NaN	3624812.7916595	3624813.30820898
103	19	0	0	90	36.1581920903955	36.241610738255	19	0.633376400209963	2	12	1	NaN	2	3	0.135790103959126	0	1	NaN	292	5	40	1	120	220	320	NaN	520	0.49590152176097	2	1	NaN	3624814.441856	NaN	3624815.4252494	3624815.94180458
103	19	0	0	90	36.1581920903955	36.241610738255	22	0.733383200243115	2	2	5	NaN	1	3	0.135790103959126	0	1	NaN	293	5	41	1	120	220	320	NaN	520	0.751691022422165	2	0	NaN	3624817.2421171	NaN	3624818.2255242	3624818.74207038
103	19	0	0	90	36.1581920903955	36.241610738255	11	0.366691600121558	2	7	2	NaN	2	5	0.135790103959126	0	1	NaN	294	5	42	1	120	220	320	NaN	520	0.716888117138296	2	1	NaN	3624820.3090869	NaN	3624821.2924857	3624821.80904638
103	19	0	0	90	36.1581920903955	36.241610738255	24	0.800054400265217	2	8	6	NaN	2	5	0.135790103959126	0	1	NaN	295	5	43	1	120	220	320	NaN	520	0.795023921877146	2	1	NaN	3624823.3427302	NaN	3624824.3261048	3624824.84267488
103	19	0	0	90	36.1581920903955	36.241610738255	20	0.666712000221014	2	1	4	NaN	1	3	0.135790103959126	0	1	NaN	296	5	44	1	120	220	320	NaN	520	0.694948216900229	1	1	NaN	3624826.4429144	NaN	3624827.4264263	3624827.94298128
103	19	0	0	90	36.1581920903955	36.241610738255	21	0.700047600232065	2	5	5	NaN	1	5	0.135790103959126	0	1	NaN	297	5	45	1	120	220	320	NaN	520	1.02024012198672	2	0	NaN	3624829.8933399	NaN	3624830.8767769	3624831.39332288
103	19	0	0	90	36.1581920903955	36.241610738255	10	0.333356000110507	2	5	1	NaN	1	3	0.135790103959126	0	1	NaN	298	5	46	1	120	220	320	NaN	520	0.742912322282791	1	1	NaN	3624833.2270476	NaN	3624834.2104291	3624834.72697638
103	19	0	0	90	36.1581920903955	36.241610738255	15	0.50003400016576	2	1	3	NaN	1	4	0.135790103959126	0	1	NaN	299	5	47	1	120	220	320	NaN	520	1.15632802201435	1	1	NaN	3624836.2773368	NaN	3624837.2607102	3624837.77727028
103	19	0	0	90	36.1581920903955	36.241610738255	23	0.766718800254166	2	8	4	NaN	2	4	0.135790103959126	0	1	NaN	300	5	48	1	120	220	320	NaN	520	0.697580263949931	2	1	NaN	3624839.7443328	NaN	3624840.7277337	3624841.24427864
103	19	0	0	90	36.1581920903955	36.241610738255	9	0.300020400099456	2	7	6	NaN	2	5	0.135790103959126	0	1	NaN	301	5	49	1	120	220	320	NaN	520	0.752312022261322	2	1	NaN	3624842.7613055	NaN	3624843.744706	3624844.26125338
103	19	0	0	90	36.1581920903955	36.241610738255	17	0.566705200187862	2	9	4	NaN	2	3	0.135790103959126	0	1	NaN	302	5	50	1	120	220	320	NaN	520	2.27749924222007	2	1	NaN	3624845.8283555	NaN	3624846.8116566	3624847.32821666
103	19	0	0	90	36.1581920903955	36.241610738255	24	0.800054400265217	2	1	2	NaN	1	5	0.135790103959126	0	1	NaN	303	5	51	1	120	220	320	NaN	520	1.04575818963349	1	1	NaN	3624850.4120459	NaN	3624851.3954476	3624851.91200391
103	19	0	0	90	36.1581920903955	36.241610738255	18	0.600040800198913	2	12	3	NaN	2	4	0.135790103959126	0	1	NaN	304	5	52	1	120	220	320	NaN	520	0.565827521961182	2	1	NaN	3624854.1957869	NaN	3624855.1791535	3624855.69569948
103	19	0	0	90	36.1581920903955	36.241610738255	13	0.433362800143659	2	12	4	NaN	2	5	0.135790103959126	0	1	NaN	305	5	53	1	120	220	320	NaN	520	0.610361332073808	2	1	NaN	3624857.0793884	NaN	3624858.0627844	3624858.57931867
103	19	0	0	90	36.1581920903955	36.241610738255	20	0.666712000221014	2	8	3	NaN	2	3	0.135790103959126	0	1	NaN	306	5	54	1	120	220	320	NaN	520	0.473097922280431	2	1	NaN	3624860.1129302	NaN	3624861.0963961	3624861.61295568
103	19	0	0	90	36.1581920903955	36.241610738255	11	0.366691600121558	2	8	4	NaN	2	5	0.135790103959126	0	1	NaN	307	5	55	1	120	220	320	NaN	520	1.63322247425094	2	1	NaN	3624862.8966149	NaN	3624863.8800152	3624864.39656553
103	19	0	0	90	36.1581920903955	36.241610738255	19	0.633376400209963	2	2	3	NaN	1	5	0.135790103959126	0	1	NaN	308	5	56	1	120	220	320	NaN	520	0.346552069764584	1	1	NaN	3624866.8470283	NaN	3624867.830394	3624868.34694643
103	19	0	0	90	36.1581920903955	36.241610738255	16	0.533369600176811	2	9	1	NaN	2	5	0.135790103959126	0	1	NaN	309	5	57	1	120	220	320	NaN	520	0.599893422331661	2	1	NaN	3624869.5139121	NaN	3624870.4973054	3624871.01388158
103	19	0	0	90	36.1581920903955	36.241610738255	18	0.600040800198913	2	6	3	NaN	1	5	0.135790103959126	0	1	NaN	310	5	58	1	120	220	320	NaN	520	0.434775322210044	1	1	NaN	3624872.4307721	NaN	3624873.4142751	3624873.93083168
103	19	0	0	90	36.1581920903955	36.241610738255	9	0.300020400099456	2	5	1	NaN	1	4	0.135790103959126	0	1	NaN	311	5	59	1	120	220	320	NaN	520	1.21267609484494	1	1	NaN	3624875.1811553	NaN	3624876.1645488	3624876.68109821
103	19	0	0	90	36.1581920903955	36.241610738255	15	0.50003400016576	2	4	4	NaN	1	5	0.135790103959126	0	1	NaN	312	5	60	1	120	220	320	NaN	520	0.423955169506371	1	1	NaN	3624878.6982425	NaN	3624879.681549	3624880.19811203
103	19	0	0	90	36.1581920903955	36.241610738255	15	0.50003400016576	2	1	4	NaN	1	4	0.135790103959126	0	1	NaN	313	5	61	1	120	220	320	NaN	520	0.370369722135365	1	1	NaN	3624881.4317554	NaN	3624882.415185	3624882.93171308
103	19	0	0	90	36.1581920903955	36.241610738255	25	0.833390000276268	2	8	1	NaN	2	5	0.135790103959126	0	1	NaN	314	5	62	1	120	220	320	NaN	520	0.318779822438955	1	0	NaN	3624884.1153651	NaN	3624885.0987566	3624885.61531178
103	19	0	0	90	36.1581920903955	36.241610738255	9	0.300020400099456	2	10	3	NaN	2	4	0.135790103959126	0	1	NaN	315	5	63	1	120	220	320	NaN	520	0.765245269518346	1	0	NaN	3624886.7488467	NaN	3624887.7323608	3624888.24889433
103	19	0	0	90	36.1581920903955	36.241610738255	13	0.433362800143659	2	10	2	NaN	2	3	0.135790103959126	0	1	NaN	316	6	1	1	120	220	320	NaN	520	0.481687222141773	1	0	NaN	3624898.4000554	NaN	3624899.3833846	3624899.90004838
103	19	0	0	90	36.1581920903955	36.241610738255	13	0.433362800143659	2	12	6	NaN	2	3	0.135790103959126	0	1	NaN	317	6	2	1	120	220	320	NaN	520	3.13723132247105	1	0	NaN	3624901.2002353	NaN	3624902.1837623	3624902.70032578
103	19	0	0	90	36.1581920903955	36.241610738255	8	0.266684800088406	2	11	6	NaN	2	3	0.135790103959126	0	1	NaN	318	6	3	1	120	220	320	NaN	520	0.509093969594687	2	1	NaN	3624907.100923	NaN	3624908.0843497	3624908.60090213
103	19	0	0	90	36.1581920903955	36.241610738255	17	0.566705200187862	2	10	5	NaN	2	4	0.135790103959126	0	1	NaN	319	6	4	1	120	220	320	NaN	520	0.26807786943391	1	0	NaN	3624909.9178928	NaN	3624910.9012868	3624911.41783593
103	19	0	0	90	36.1581920903955	36.241610738255	21	0.700047600232065	2	4	6	NaN	1	4	0.135790103959126	0	1	NaN	320	6	5	1	120	220	320	NaN	520	0.388426822144538	1	1	NaN	3624912.5015141	NaN	3624913.4848899	3624914.00143108
103	19	0	0	90	36.1581920903955	36.241610738255	16	0.533369600176811	2	8	2	NaN	2	4	0.135790103959126	0	1	NaN	321	6	6	1	120	220	320	NaN	520	0.328061121981591	2	1	NaN	3624915.2017738	NaN	3624916.1851456	3624916.70170068
103	19	0	0	90	36.1581920903955	36.241610738255	6	0.200013600066304	2	5	6	NaN	1	5	0.135790103959126	0	1	NaN	322	6	7	1	120	220	320	NaN	520	0.422326769214123	2	0	NaN	3624917.8352051	NaN	3624918.8187499	3624919.33527973
103	19	0	0	90	36.1581920903955	36.241610738255	12	0.400027200132608	2	3	2	NaN	1	3	0.135790103959126	0	1	NaN	323	6	8	1	120	220	320	NaN	520	0.488730369601399	1	1	NaN	3624920.5689348	NaN	3624921.5523342	3624922.06889023
103	19	0	0	90	36.1581920903955	36.241610738255	25	0.833390000276268	2	5	4	NaN	1	3	0.135790103959126	0	1	NaN	324	6	9	1	120	220	320	NaN	520	0.688931121956557	1	1	NaN	3624923.3691122	NaN	3624924.3526133	3624924.86916478
103	19	0	0	90	36.1581920903955	36.241610738255	19	0.633376400209963	2	10	3	NaN	2	5	0.135790103959126	0	1	NaN	325	6	10	1	120	220	320	NaN	520	0.440374664030969	2	1	NaN	3624926.3695099	NaN	3624927.3528971	3624927.86946314
103	19	0	0	90	36.1581920903955	36.241610738255	0	0	1	8	5	NaN	2	4	0.135790103959126	0	1	NaN	326	6	11	1	110	210	310	NaN	510	0.426165016833693	1	0	NaN	3624929.1196575	NaN	3624930.1032179	3624930.61972718
103	19	0	0	90	36.1581920903955	36.241610738255	19	0.633376400209963	2	11	3	NaN	2	5	0.135790103959126	0	1	NaN	327	6	12	1	120	220	320	NaN	520	0.348734217230231	2	1	NaN	3624931.8533893	NaN	3624932.8367681	3624933.35335088
103	19	0	0	90	36.1581920903955	36.241610738255	18	0.600040800198913	2	3	6	NaN	1	4	0.135790103959126	0	1	NaN	328	6	13	1	120	220	320	NaN	520	0.841928869485855	1	1	NaN	3624934.5203092	NaN	3624935.5037053	3624936.02027613
103	19	0	0	90	36.1581920903955	36.241610738255	19	0.633376400209963	2	7	4	NaN	2	3	0.135790103959126	0	1	NaN	329	6	14	1	120	220	320	NaN	520	0.434384222142398	1	0	NaN	3624937.6873067	NaN	3624938.6706994	3624939.18723708
103	19	0	0	90	36.1581920903955	36.241610738255	7	0.233349200077355	2	8	2	NaN	2	5	0.135790103959126	0	1	NaN	330	6	15	1	120	220	320	NaN	520	0.412213622126728	2	1	NaN	3624940.4375832	NaN	3624941.4209446	3624941.93751328
103	19	0	0	90	36.1581920903955	36.241610738255	23	0.766718800254166	2	4	5	NaN	1	3	0.135790103959126	0	1	NaN	331	6	16	1	120	220	320	NaN	520	1.55086326459423	2	0	NaN	3624943.171175	NaN	3624944.1545523	3624944.67111334
103	19	0	0	90	36.1581920903955	36.241610738255	0	0	1	3	2	NaN	1	3	0.135790103959126	0	1	NaN	332	6	17	1	110	210	310	NaN	510	0.58756162179634	2	0	NaN	3624947.0381943	NaN	3624948.0216073	3624948.53815358
103	19	0	0	90	36.1581920903955	36.241610738255	17	0.566705200187862	2	12	3	NaN	2	3	0.135790103959126	0	1	NaN	333	6	18	1	120	220	320	NaN	520	1.16775126941502	2	1	NaN	3624949.9384898	NaN	3624950.9218872	3624951.43843643
103	19	0	0	90	36.1581920903955	36.241610738255	18	0.600040800198913	2	4	4	NaN	1	5	0.135790103959126	0	1	NaN	334	6	19	1	120	220	320	NaN	520	0.515976184979081	1	1	NaN	3624953.4221677	NaN	3624954.4055911	3624954.92212562
103	19	0	0	90	36.1581920903955	36.241610738255	16	0.533369600176811	2	12	5	NaN	2	5	0.135790103959126	0	1	NaN	335	6	20	1	120	220	320	NaN	520	0.490081517025828	1	0	NaN	3624956.2557895	NaN	3624957.2391986	3624957.75573148
103	19	0	0	90	36.1581920903955	36.241610738255	7	0.233349200077355	2	12	2	NaN	2	4	0.135790103959126	0	1	NaN	336	6	21	1	120	220	320	NaN	520	0.0104068219661713	2	1	NaN	3624959.0560575	NaN	3624960.0394494	3624960.55599548
103	19	0	0	90	36.1581920903955	36.241610738255	9	0.300020400099456	2	8	1	NaN	2	3	0.135790103959126	0	1	NaN	337	6	22	1	120	220	320	NaN	520	1.78617186937481	2	1	NaN	3624961.4396074	NaN	3624962.4230106	3624962.93956483
103	19	0	0	90	36.1581920903955	36.241610738255	12	0.400027200132608	2	4	2	NaN	1	4	0.135790103959126	0	1	NaN	338	6	23	1	120	220	320	NaN	520	0.286207769531757	1	1	NaN	3624965.5400273	NaN	3624966.5234085	3624967.03996803
103	19	0	0	90	36.1581920903955	36.241610738255	21	0.700047600232065	2	10	5	NaN	2	3	0.135790103959126	0	1	NaN	339	6	24	1	120	220	320	NaN	520	1.57343076914549	1	0	NaN	3624968.1402999	NaN	3624969.1236548	3624969.64023193
103	19	0	0	90	36.1581920903955	36.241610738255	12	0.400027200132608	2	11	4	NaN	2	5	0.135790103959126	0	1	NaN	340	6	25	1	120	220	320	NaN	520	0.434231769293547	2	1	NaN	3624972.0239851	NaN	3624973.007388	3624973.52394693
103	19	0	0	90	36.1581920903955	36.241610738255	23	0.766718800254166	2	1	3	NaN	1	3	0.135790103959126	0	1	NaN	341	6	26	1	120	220	320	NaN	520	0.203680569306016	1	1	NaN	3624974.7742738	NaN	3624975.7576638	3624976.27421703
103	19	0	0	90	36.1581920903955	36.241610738255	18	0.600040800198913	2	11	2	NaN	2	4	0.135790103959126	0	1	NaN	342	6	27	1	120	220	320	NaN	520	0.726763432379812	2	1	NaN	3624977.2911779	NaN	3624978.2745777	3624978.79112337
103	19	0	0	90	36.1581920903955	36.241610738255	9	0.300020400099456	2	1	3	NaN	1	3	0.135790103959126	0	1	NaN	343	6	28	1	120	220	320	NaN	520	0.285172816831619	1	1	NaN	3624980.3246842	NaN	3624981.3082296	3624981.82475938
103	19	0	0	90	36.1581920903955	36.241610738255	23	0.766718800254166	2	2	4	NaN	1	3	0.135790103959126	0	1	NaN	344	6	29	1	120	220	320	NaN	520	1.9891812694259	1	1	NaN	3624982.9250523	NaN	3624983.908482	3624984.42501163
103	19	0	0	90	36.1581920903955	36.241610738255	14	0.46669840015471	2	5	3	NaN	1	3	0.135790103959126	0	1	NaN	345	6	30	1	120	220	320	NaN	520	1.44054562225938	1	1	NaN	3624987.2255109	NaN	3624988.2089209	3624988.72544108
103	19	0	0	90	36.1581920903955	36.241610738255	16	0.533369600176811	2	10	6	NaN	2	3	0.135790103959126	0	1	NaN	346	6	31	1	120	220	320	NaN	520	0.338015322107822	1	0	NaN	3624990.975845	NaN	3624991.9592361	3624992.47580298
103	19	0	0	90	36.1581920903955	36.241610738255	17	0.566705200187862	2	6	1	NaN	1	5	0.135790103959126	0	1	NaN	347	6	32	1	120	220	320	NaN	520	0.687811416573822	1	1	NaN	3624993.6261115	NaN	3624994.6095201	3624995.12606388
103	19	0	0	90	36.1581920903955	36.241610738255	21	0.700047600232065	2	6	6	NaN	1	5	0.135790103959126	0	1	NaN	348	6	33	1	120	220	320	NaN	520	0.175402769818902	1	1	NaN	3624996.626413	NaN	3624997.6097998	3624998.12636393
103	19	0	0	90	36.1581920903955	36.241610738255	10	0.333356000110507	2	4	2	NaN	1	5	0.135790103959126	0	1	NaN	349	6	34	1	120	220	320	NaN	520	0.195971364155412	1	1	NaN	3624999.1099687	NaN	3625000.0933797	3625000.60993424
103	19	0	0	90	36.1581920903955	36.241610738255	9	0.300020400099456	2	9	3	NaN	2	3	0.135790103959126	0	1	NaN	350	6	35	1	120	220	320	NaN	520	0.543124869465828	1	0	NaN	3625001.6269143	NaN	3625002.6103092	3625003.12685503
103	19	0	0	90	36.1581920903955	36.241610738255	25	0.833390000276268	2	1	4	NaN	1	3	0.135790103959126	0	1	NaN	351	6	36	1	120	220	320	NaN	520	0.285021669697016	1	1	NaN	3625004.4771815	NaN	3625005.4605695	3625005.97712343
103	19	0	0	90	36.1581920903955	36.241610738255	0	0	1	12	6	NaN	2	5	0.135790103959126	0	1	NaN	352	6	37	1	110	210	310	NaN	510	1.7648517168127	1	0	NaN	3625007.0774422	NaN	3625008.0608251	3625008.57738008
103	19	0	0	90	36.1581920903955	36.241610738255	11	0.366691600121558	2	7	3	NaN	2	5	0.135790103959126	0	1	NaN	353	6	38	1	120	220	320	NaN	520	1.8889003219083	2	1	NaN	3625011.1611924	NaN	3625012.1445667	3625012.66112448
103	19	0	0	90	36.1581920903955	36.241610738255	9	0.300020400099456	2	9	3	NaN	2	4	0.135790103959126	0	1	NaN	354	6	39	1	120	220	320	NaN	520	0.435738669708371	2	1	NaN	3625015.6781689	NaN	3625016.6616614	3625017.17822083
103	19	0	0	90	36.1581920903955	36.241610738255	6	0.200013600066304	2	7	5	NaN	2	3	0.135790103959126	0	1	NaN	355	6	40	1	120	220	320	NaN	520	0.293700069654733	2	1	NaN	3625018.4285435	NaN	3625019.4119475	3625019.92849893
103	19	0	0	90	36.1581920903955	36.241610738255	13	0.433362800143659	2	9	2	NaN	2	4	0.135790103959126	0	1	NaN	356	6	41	1	120	220	320	NaN	520	0.363207569345832	2	1	NaN	3625021.4787158	NaN	3625022.4622398	3625022.97879293
103	19	0	0	90	36.1581920903955	36.241610738255	23	0.766718800254166	2	5	6	NaN	1	3	0.135790103959126	0	1	NaN	357	6	42	1	120	220	320	NaN	520	1.52813492203131	2	0	NaN	3625024.1457787	NaN	3625025.1292244	3625025.64572718
103	19	0	0	90	36.1581920903955	36.241610738255	20	0.666712000221014	2	2	1	NaN	1	3	0.135790103959126	0	1	NaN	358	6	43	1	120	220	320	NaN	520	0.47854382218793	2	0	NaN	3625027.9793663	NaN	3625028.9628955	3625029.47944418
103	19	0	0	90	36.1581920903955	36.241610738255	11	0.366691600121558	2	2	3	NaN	1	5	0.135790103959126	0	1	NaN	359	6	44	1	120	220	320	NaN	520	0.373240469489247	2	0	NaN	3625031.2131253	NaN	3625032.1965663	3625032.71308423
103	19	0	0	90	36.1581920903955	36.241610738255	8	0.266684800088406	2	1	5	NaN	1	4	0.135790103959126	0	1	NaN	360	6	45	1	120	220	320	NaN	520	1.17753652203828	2	0	NaN	3625033.8967265	NaN	3625034.8800441	3625035.39668468
103	19	0	0	90	36.1581920903955	36.241610738255	14	0.46669840015471	2	3	1	NaN	1	5	0.135790103959126	0	1	NaN	361	6	46	1	120	220	320	NaN	520	0.373599164187908	2	0	NaN	3625037.380426	NaN	3625038.3637938	3625038.88035184
103	19	0	0	90	36.1581920903955	36.241610738255	15	0.50003400016576	2	6	5	NaN	1	4	0.135790103959126	0	1	NaN	362	6	47	1	120	220	320	NaN	520	0.602332369424403	2	0	NaN	3625040.064045	NaN	3625041.047426	3625041.56395543
103	19	0	0	90	36.1581920903955	36.241610738255	23	0.766718800254166	2	6	4	NaN	1	3	0.135790103959126	0	1	NaN	363	6	48	1	120	220	320	NaN	520	0.485052869189531	1	1	NaN	3625042.9809757	NaN	3625043.9643538	3625044.48090483
103	19	0	0	90	36.1581920903955	36.241610738255	9	0.300020400099456	2	12	4	NaN	2	3	0.135790103959126	0	1	NaN	364	6	49	1	120	220	320	NaN	520	1.31667136959732	1	0	NaN	3625045.7812712	NaN	3625046.7646304	3625047.28118893
103	19	0	0	90	36.1581920903955	36.241610738255	20	0.666712000221014	2	8	4	NaN	2	4	0.135790103959126	0	1	NaN	365	6	50	1	120	220	320	NaN	520	0.0912046167068183	1	0	NaN	3625049.4149965	NaN	3625050.3983244	3625050.91488698
103	19	0	0	90	36.1581920903955	36.241610738255	9	0.300020400099456	2	6	5	NaN	1	3	0.135790103959126	0	1	NaN	366	6	51	1	120	220	320	NaN	520	2.24293356947601	1	1	NaN	3625051.8150265	NaN	3625052.7985739	3625053.31511743
103	19	0	0	90	36.1581920903955	36.241610738255	9	0.300020400099456	2	4	3	NaN	1	4	0.135790103959126	0	1	NaN	367	6	52	1	120	220	320	NaN	520	0.0279129697009921	1	1	NaN	3625056.3822689	NaN	3625057.3656679	3625057.88223043
103	19	0	0	90	36.1581920903955	36.241610738255	0	0	1	3	3	NaN	1	3	0.135790103959126	0	1	NaN	368	6	53	1	110	210	310	NaN	510	0.79810562171042	2	0	NaN	3625058.7157185	NaN	3625059.6992618	3625060.21579488
103	19	0	0	90	36.1581920903955	36.241610738255	0	0	1	10	1	NaN	2	4	0.135790103959126	0	1	NaN	369	6	54	1	110	210	310	NaN	510	0.48122376948595	2	1	NaN	3625061.8328374	NaN	3625062.8162017	3625063.33276123
103	19	0	0	90	36.1581920903955	36.241610738255	25	0.833390000276268	2	9	1	NaN	2	5	0.135790103959126	0	1	NaN	370	6	55	1	120	220	320	NaN	520	0.720822422299534	2	1	NaN	3625064.6331589	NaN	3625065.6165041	3625066.13305548
103	19	0	0	90	36.1581920903955	36.241610738255	10	0.333356000110507	2	9	1	NaN	2	3	0.135790103959126	0	1	NaN	371	6	56	1	120	220	320	NaN	520	0.0953337694518268	2	1	NaN	3625067.6667084	NaN	3625068.6501131	3625069.16666403
103	19	0	0	90	36.1581920903955	36.241610738255	21	0.700047600232065	2	4	2	NaN	1	5	0.135790103959126	0	1	NaN	372	6	57	1	120	220	320	NaN	520	0.262282969430089	1	1	NaN	3625070.0836261	NaN	3625071.0670126	3625071.58356683
103	19	0	0	90	36.1581920903955	36.241610738255	18	0.600040800198913	2	7	1	NaN	2	3	0.135790103959126	0	1	NaN	373	6	58	1	120	220	320	NaN	520	0.132147169671953	1	0	NaN	3625072.7337813	NaN	3625073.7172796	3625074.23382673
103	19	0	0	90	36.1581920903955	36.241610738255	13	0.433362800143659	2	6	6	NaN	1	3	0.135790103959126	0	1	NaN	374	6	59	1	120	220	320	NaN	520	1.25797636946663	1	1	NaN	3625075.1841406	NaN	3625076.1675726	3625076.68407043
103	19	0	0	90	36.1581920903955	36.241610738255	19	0.633376400209963	2	4	6	NaN	1	5	0.135790103959126	0	1	NaN	375	6	60	1	120	220	320	NaN	520	0.698717969469726	1	1	NaN	3625078.7511334	NaN	3625079.734549	3625080.25109503
103	19	0	0	90	36.1581920903955	36.241610738255	8	0.266684800088406	2	12	1	NaN	2	4	0.135790103959126	0	1	NaN	376	6	61	1	120	220	320	NaN	520	0.457902869675308	1	0	NaN	3625081.7681997	NaN	3625082.7515077	3625083.26804693
103	19	0	0	90	36.1581920903955	36.241610738255	12	0.400027200132608	2	1	2	NaN	1	4	0.135790103959126	0	1	NaN	377	6	62	1	120	220	320	NaN	520	0.491231022402644	1	1	NaN	3625084.5350412	NaN	3625085.5184389	3625086.03499598
103	19	0	0	90	36.1581920903955	36.241610738255	6	0.200013600066304	2	9	5	NaN	2	4	0.135790103959126	0	1	NaN	378	6	63	1	120	220	320	NaN	520	0.35475642234087	2	1	NaN	3625087.3353186	NaN	3625088.3186895	3625088.83526918
103	19	0	0	90	36.1581920903955	36.241610738255	24	0.800054400265217	2	9	2	NaN	2	3	0.135790103959126	0	1	NaN	379	7	1	1	120	220	320	NaN	520	0.681451422162354	2	1	NaN	3625094.3527564	NaN	3625095.3360854	3625095.85261858
103	19	0	0	90	36.1581920903955	36.241610738255	13	0.433362800143659	2	3	3	NaN	1	3	0.135790103959126	0	1	NaN	380	7	2	1	120	220	320	NaN	520	0.249165622051805	1	1	NaN	3625097.3529629	NaN	3625098.3363519	3625098.85291918
103	19	0	0	90	36.1581920903955	36.241610738255	22	0.733383200243115	2	2	3	NaN	1	3	0.135790103959126	0	1	NaN	381	7	3	1	120	220	320	NaN	520	0.354095569811761	2	0	NaN	3625099.9199262	NaN	3625100.9032887	3625101.41983243
103	19	0	0	90	36.1581920903955	36.241610738255	14	0.46669840015471	2	6	4	NaN	1	3	0.135790103959126	0	1	NaN	382	7	4	1	120	220	320	NaN	520	0.271051974501461	1	1	NaN	3625102.5867013	NaN	3625103.5702085	3625104.08675853
103	19	0	0	90	36.1581920903955	36.241610738255	25	0.833390000276268	2	12	5	NaN	2	5	0.135790103959126	0	1	NaN	383	7	5	1	120	220	320	NaN	520	0.551921422127634	2	1	NaN	3625105.1703706	NaN	3625106.1538041	3625106.67034908
103	19	0	0	90	36.1581920903955	36.241610738255	23	0.766718800254166	2	1	3	NaN	1	3	0.135790103959126	0	1	NaN	384	7	6	1	120	220	320	NaN	520	1.70107551664114	1	1	NaN	3625108.0372246	NaN	3625109.0207396	3625109.53730038
103	19	0	0	90	36.1581920903955	36.241610738255	0	0	1	10	3	NaN	2	3	0.135790103959126	0	1	NaN	385	7	7	1	110	210	310	NaN	510	0.267683122307062	1	0	NaN	3625112.0544222	NaN	3625113.0378018	3625113.55435778
103	19	0	0	90	36.1581920903955	36.241610738255	11	0.366691600121558	2	1	4	NaN	1	3	0.135790103959126	0	1	NaN	386	7	8	1	120	220	320	NaN	520	0.312261569779366	2	0	NaN	3625115.1380409	NaN	3625116.1214391	3625116.63799623
103	19	0	0	90	36.1581920903955	36.241610738255	12	0.400027200132608	2	7	4	NaN	2	4	0.135790103959126	0	1	NaN	387	7	9	1	120	220	320	NaN	520	0.415487569756806	2	1	NaN	3625117.7550786	NaN	3625118.7383702	3625119.25491233
103	19	0	0	90	36.1581920903955	36.241610738255	21	0.700047600232065	2	5	3	NaN	1	3	0.135790103959126	0	1	NaN	388	7	10	1	120	220	320	NaN	520	0.913318369071931	1	1	NaN	3625120.4885729	NaN	3625121.4719587	3625121.98851353
103	19	0	0	90	36.1581920903955	36.241610738255	20	0.666712000221014	2	7	5	NaN	2	4	0.135790103959126	0	1	NaN	389	7	11	1	120	220	320	NaN	520	0.152998742181808	2	1	NaN	3625123.7055705	NaN	3625124.6889463	3625125.20551446
103	19	0	0	90	36.1581920903955	36.241610738255	21	0.700047600232065	2	10	6	NaN	2	3	0.135790103959126	0	1	NaN	390	7	12	1	120	220	320	NaN	520	0.789997522253543	1	0	NaN	3625126.1724677	NaN	3625127.1558625	3625127.67241768
103	19	0	0	90	36.1581920903955	36.241610738255	20	0.666712000221014	2	4	4	NaN	1	3	0.135790103959126	0	1	NaN	391	7	13	1	120	220	320	NaN	520	0.70569122210145	1	1	NaN	3625129.2727688	NaN	3625130.2561607	3625130.77271468
103	19	0	0	90	36.1581920903955	36.241610738255	11	0.366691600121558	2	6	3	NaN	1	4	0.135790103959126	0	1	NaN	392	7	14	1	120	220	320	NaN	520	0.824558722320944	1	1	NaN	3625132.289729	NaN	3625133.2731217	3625133.78968018
103	19	0	0	90	36.1581920903955	36.241610738255	9	0.300020400099456	2	3	2	NaN	1	5	0.135790103959126	0	1	NaN	393	7	15	1	120	220	320	NaN	520	1.53875922225416	1	1	NaN	3625135.4233654	NaN	3625136.4067553	3625136.92332178
103	19	0	0	90	36.1581920903955	36.241610738255	16	0.533369600176811	2	7	4	NaN	2	5	0.135790103959126	0	1	NaN	394	7	16	1	120	220	320	NaN	520	0.320453064050525	2	1	NaN	3625139.2737601	NaN	3625140.2571382	3625140.77369074
103	19	0	0	90	36.1581920903955	36.241610738255	25	0.833390000276268	2	11	3	NaN	2	3	0.135790103959126	0	1	NaN	395	7	17	1	120	220	320	NaN	520	0.518989421892911	2	1	NaN	3625141.9073353	NaN	3625142.890821	3625143.40729618
103	19	0	0	90	36.1581920903955	36.241610738255	8	0.266684800088406	2	9	1	NaN	2	5	0.135790103959126	0	1	NaN	396	7	18	1	120	220	320	NaN	520	0.381040664389729	2	1	NaN	3625144.7409478	NaN	3625145.7243459	3625146.24089974
103	19	0	0	90	36.1581920903955	36.241610738255	14	0.46669840015471	2	6	6	NaN	1	3	0.135790103959126	0	1	NaN	397	7	19	1	120	220	320	NaN	520	0.617226269561797	1	1	NaN	3625147.4411849	NaN	3625148.4246276	3625148.94116093
103	19	0	0	90	36.1581920903955	36.241610738255	10	0.333356000110507	2	11	5	NaN	2	3	0.135790103959126	0	1	NaN	398	7	20	1	120	220	320	NaN	520	1.17953432211652	1	0	NaN	3625150.3748617	NaN	3625151.3582384	3625151.87479538
103	19	0	0	90	36.1581920903955	36.241610738255	8	0.266684800088406	2	5	5	NaN	1	3	0.135790103959126	0	1	NaN	399	7	21	1	120	220	320	NaN	520	3.72719647455961	1	1	NaN	3625153.875174	NaN	3625154.8585966	3625155.37512763
103	19	0	0	90	36.1581920903955	36.241610738255	16	0.533369600176811	2	11	4	NaN	2	5	0.135790103959126	0	1	NaN	400	7	22	1	120	220	320	NaN	520	0.877132873982191	2	1	NaN	3625159.908985	NaN	3625160.8924042	3625161.40906463
103	19	0	0	90	36.1581920903955	36.241610738255	12	0.400027200132608	2	6	2	NaN	1	4	0.135790103959126	0	1	NaN	401	7	23	1	120	220	320	NaN	520	0.169655069243163	1	1	NaN	3625163.3927456	NaN	3625164.3761916	3625164.89272883
103	19	0	0	90	36.1581920903955	36.241610738255	17	0.566705200187862	2	12	4	NaN	2	4	0.135790103959126	0	1	NaN	402	7	24	1	120	220	320	NaN	520	0.470183521974832	1	0	NaN	3625165.8762389	NaN	3625166.8597609	3625167.37630898
103	19	0	0	90	36.1581920903955	36.241610738255	17	0.566705200187862	2	3	5	NaN	1	3	0.135790103959126	0	1	NaN	403	7	25	1	120	220	320	NaN	520	0.0104034692049026	1	1	NaN	3625168.6599749	NaN	3625169.6433688	3625170.15991953
103	19	0	0	90	36.1581920903955	36.241610738255	16	0.533369600176811	2	4	4	NaN	1	3	0.135790103959126	0	1	NaN	404	7	26	1	120	220	320	NaN	520	0.200759969186038	1	1	NaN	3625170.9935289	NaN	3625171.9769265	3625172.49347823
103	19	0	0	90	36.1581920903955	36.241610738255	11	0.366691600121558	2	5	2	NaN	1	5	0.135790103959126	0	1	NaN	405	7	27	1	120	220	320	NaN	520	3.45208056923002	1	1	NaN	3625173.51045	NaN	3625174.4938447	3625175.01038993
103	19	0	0	90	36.1581920903955	36.241610738255	7	0.233349200077355	2	10	6	NaN	2	5	0.135790103959126	0	1	NaN	406	7	28	1	120	220	320	NaN	520	0.916456474456936	2	1	NaN	3625179.2776766	NaN	3625180.2610772	3625180.77762453
103	19	0	0	90	36.1581920903955	36.241610738255	21	0.700047600232065	2	2	1	NaN	1	3	0.135790103959126	0	1	NaN	407	7	29	1	120	220	320	NaN	520	0.470291969832033	1	1	NaN	3625184.2281611	NaN	3625185.211553	3625185.72810693
103	19	0	0	90	36.1581920903955	36.241610738255	24	0.800054400265217	2	4	3	NaN	1	5	0.135790103959126	0	1	NaN	408	7	30	1	120	220	320	NaN	520	0.198562822304666	1	1	NaN	3625187.0117803	NaN	3625187.9951545	3625188.51171988
103	19	0	0	90	36.1581920903955	36.241610738255	19	0.633376400209963	2	10	2	NaN	2	4	0.135790103959126	0	1	NaN	409	7	31	1	120	220	320	NaN	520	0.401697822380811	2	1	NaN	3625189.5286076	NaN	3625190.5120757	3625191.02863468
103	19	0	0	90	36.1581920903955	36.241610738255	19	0.633376400209963	2	5	4	NaN	1	3	0.135790103959126	0	1	NaN	410	7	32	1	120	220	320	NaN	520	1.56444176938385	2	0	NaN	3625192.2456464	NaN	3625193.2290204	3625193.74556203
103	19	0	0	90	36.1581920903955	36.241610738255	21	0.700047600232065	2	3	1	NaN	1	5	0.135790103959126	0	1	NaN	411	7	33	1	120	220	320	NaN	520	0.36130236973986	2	0	NaN	3625196.1293515	NaN	3625197.1127289	3625197.62927693
103	19	0	0	90	36.1581920903955	36.241610738255	11	0.366691600121558	2	9	2	NaN	2	5	0.135790103959126	0	1	NaN	412	7	34	1	120	220	320	NaN	520	0.389217469375581	2	1	NaN	3625198.8127913	NaN	3625199.7963288	3625200.31287273
103	19	0	0	90	36.1581920903955	36.241610738255	7	0.233349200077355	2	7	5	NaN	2	5	0.135790103959126	0	1	NaN	413	7	35	1	120	220	320	NaN	520	0.413519469555467	2	1	NaN	3625201.7966032	NaN	3625202.7799487	3625203.29649753
103	19	0	0	90	36.1581920903955	36.241610738255	0	0	1	11	5	NaN	2	5	0.135790103959126	0	1	NaN	414	7	36	1	110	210	310	NaN	510	0.880705069750547	2	1	NaN	3625204.5134762	NaN	3625205.4969324	3625206.01343463
103	19	0	0	90	36.1581920903955	36.241610738255	22	0.733383200243115	2	12	6	NaN	2	5	0.135790103959126	0	1	NaN	415	7	37	1	120	220	320	NaN	520	0.496470522135496	2	1	NaN	3625207.7137928	NaN	3625208.6971986	3625209.21375698
103	19	0	0	90	36.1581920903955	36.241610738255	16	0.533369600176811	2	11	3	NaN	2	3	0.135790103959126	0	1	NaN	416	7	38	1	120	220	320	NaN	520	1.58516548993066	2	1	NaN	3625210.8974515	NaN	3625211.8808583	3625212.39740661
103	19	0	0	90	36.1581920903955	36.241610738255	12	0.400027200132608	2	3	1	NaN	1	4	0.135790103959126	0	1	NaN	417	7	39	1	120	220	320	NaN	520	1.29643342178315	2	0	NaN	3625215.2978889	NaN	3625216.281309	3625216.79783818
103	19	0	0	90	36.1581920903955	36.241610738255	7	0.233349200077355	2	12	3	NaN	2	3	0.135790103959126	0	1	NaN	418	7	40	1	120	220	320	NaN	520	0.655311716720462	2	1	NaN	3625218.9148904	NaN	3625219.89834	3625220.41485608
103	19	0	0	90	36.1581920903955	36.241610738255	16	0.533369600176811	2	2	4	NaN	1	4	0.135790103959126	0	1	NaN	419	7	41	1	120	220	320	NaN	520	1.11794562218711	2	0	NaN	3625222.3485728	NaN	3625223.3319737	3625223.84852938
103	19	0	0	90	36.1581920903955	36.241610738255	19	0.633376400209963	2	7	3	NaN	2	5	0.135790103959126	0	1	NaN	420	7	42	1	120	220	320	NaN	520	0.324185664299875	2	1	NaN	3625225.7821182	NaN	3625226.7656145	3625227.28218704
103	19	0	0	90	36.1581920903955	36.241610738255	9	0.300020400099456	2	8	3	NaN	2	4	0.135790103959126	0	1	NaN	421	7	43	1	120	220	320	NaN	520	3.4187596696429	2	1	NaN	3625228.4159004	NaN	3625229.3992334	3625229.91577853
103	19	0	0	90	36.1581920903955	36.241610738255	18	0.600040800198913	2	1	6	NaN	1	4	0.135790103959126	0	1	NaN	422	7	44	1	120	220	320	NaN	520	0.404491364490241	1	1	NaN	3625234.1497212	NaN	3625235.1331294	3625235.64967294
103	19	0	0	90	36.1581920903955	36.241610738255	14	0.46669840015471	2	10	1	NaN	2	5	0.135790103959126	0	1	NaN	423	7	45	1	120	220	320	NaN	520	0.631795422174037	2	1	NaN	3625236.8666697	NaN	3625237.8500617	3625238.36661628
103	19	0	0	90	36.1581920903955	36.241610738255	9	0.300020400099456	2	4	1	NaN	1	3	0.135790103959126	0	1	NaN	424	7	46	1	120	220	320	NaN	520	0.177390274591744	1	1	NaN	3625239.8169847	NaN	3625240.8003465	3625241.31690443
103	19	0	0	90	36.1581920903955	36.241610738255	13	0.433362800143659	2	4	3	NaN	1	3	0.135790103959126	0	1	NaN	425	7	47	1	120	220	320	NaN	520	0.325837022159249	1	1	NaN	3625242.3004591	NaN	3625243.2839267	3625243.80048908
103	19	0	0	90	36.1581920903955	36.241610738255	14	0.46669840015471	2	1	6	NaN	1	3	0.135790103959126	0	1	NaN	426	7	48	1	120	220	320	NaN	520	0.408566322177649	1	1	NaN	3625245.2341189	NaN	3625246.2175418	3625246.73410528
103	19	0	0	90	36.1581920903955	36.241610738255	23	0.766718800254166	2	11	1	NaN	2	3	0.135790103959126	0	1	NaN	427	7	49	1	120	220	320	NaN	520	0.779211922548711	2	1	NaN	3625247.9510949	NaN	3625248.9344988	3625249.45103508
103	19	0	0	90	36.1581920903955	36.241610738255	17	0.566705200187862	2	2	5	NaN	1	4	0.135790103959126	0	1	NaN	428	7	50	1	120	220	320	NaN	520	0.367456464096904	1	1	NaN	3625251.0347208	NaN	3625252.0181091	3625252.53466714
103	19	0	0	90	36.1581920903955	36.241610738255	7	0.233349200077355	2	6	4	NaN	1	3	0.135790103959126	0	1	NaN	429	7	51	1	120	220	320	NaN	520	1.02021602215245	1	1	NaN	3625253.7183239	NaN	3625254.7017029	3625255.21827338
103	19	0	0	90	36.1581920903955	36.241610738255	12	0.400027200132608	2	2	3	NaN	1	4	0.135790103959126	0	1	NaN	430	7	52	1	120	220	320	NaN	520	0.222669517155737	1	1	NaN	3625257.0519809	NaN	3625258.0353853	3625258.55193088
103	19	0	0	90	36.1581920903955	36.241610738255	12	0.400027200132608	2	11	4	NaN	2	3	0.135790103959126	0	1	NaN	431	7	53	1	120	220	320	NaN	520	2.38001846987754	1	0	NaN	3625260.1022554	NaN	3625261.0856899	3625261.60222863
103	19	0	0	90	36.1581920903955	36.241610738255	22	0.733383200243115	2	7	6	NaN	2	4	0.135790103959126	0	1	NaN	432	7	54	1	120	220	320	NaN	520	0.319848916959018	2	1	NaN	3625264.8027489	NaN	3625265.7861367	3625266.30269428
103	19	0	0	90	36.1581920903955	36.241610738255	25	0.833390000276268	2	3	4	NaN	1	4	0.135790103959126	0	1	NaN	433	7	55	1	120	220	320	NaN	520	0.24607072211802	2	0	NaN	3625267.4363435	NaN	3625268.4197617	3625268.93627848
103	19	0	0	90	36.1581920903955	36.241610738255	12	0.400027200132608	2	9	2	NaN	2	5	0.135790103959126	0	1	NaN	434	7	56	1	120	220	320	NaN	520	0.383503822144121	2	1	NaN	3625269.9865941	NaN	3625270.9699759	3625271.48653508
103	19	0	0	90	36.1581920903955	36.241610738255	14	0.46669840015471	2	2	3	NaN	1	4	0.135790103959126	0	1	NaN	435	7	57	1	120	220	320	NaN	520	0.0103969224728644	1	1	NaN	3625272.6700819	NaN	3625273.6535811	3625274.17013238
103	19	0	0	90	36.1581920903955	36.241610738255	19	0.633376400209963	2	1	2	NaN	1	3	0.135790103959126	0	1	NaN	436	7	58	1	120	220	320	NaN	520	0.22982136439532	1	1	NaN	3625275.020373	NaN	3625276.0038463	3625276.52035794
103	19	0	0	90	36.1581920903955	36.241610738255	17	0.566705200187862	2	7	5	NaN	2	5	0.135790103959126	0	1	NaN	437	7	59	1	120	220	320	NaN	520	0.27188306953758	2	1	NaN	3625277.5706732	NaN	3625278.5540338	3625279.07060593
103	19	0	0	90	36.1581920903955	36.241610738255	15	0.50003400016576	2	7	2	NaN	2	3	0.135790103959126	0	1	NaN	438	7	60	1	120	220	320	NaN	520	0.144424616824836	2	1	NaN	3625280.1541364	NaN	3625281.1376461	3625281.65419838
103	19	0	0	90	36.1581920903955	36.241610738255	0	0	1	6	5	NaN	1	3	0.135790103959126	0	1	NaN	439	7	61	1	110	210	310	NaN	510	0.0453259218484163	1	1	NaN	3625282.6211422	NaN	3625283.6045666	3625284.12110258
103	19	0	0	90	36.1581920903955	36.241610738255	25	0.833390000276268	2	10	5	NaN	2	5	0.135790103959126	0	1	NaN	440	7	62	1	120	220	320	NaN	520	0.686368664260954	2	1	NaN	3625284.9880624	NaN	3625285.9714528	3625286.48800314
103	19	0	0	90	36.1581920903955	36.241610738255	24	0.800054400265217	2	5	4	NaN	1	3	0.135790103959126	0	1	NaN	441	7	63	1	120	220	320	NaN	520	0.885887274052948	2	0	NaN	3625287.9883665	NaN	3625288.9717449	3625289.48830943
103	19	0	0	90	36.1581920903955	36.241610738255	19	0.633376400209963	2	1	6	NaN	1	3	0.135790103959126	0	1	NaN	442	8	1	1	120	220	320	NaN	520	0.291330169420689	1	1	NaN	3625296.6391169	NaN	3625297.6225891	3625298.13914893
103	19	0	0	90	36.1581920903955	36.241610738255	21	0.700047600232065	2	12	2	NaN	2	5	0.135790103959126	0	1	NaN	443	8	2	1	120	220	320	NaN	520	1.48330592224374	1	0	NaN	3625302.6231523	NaN	3625303.6065271	3625304.12307198
103	19	0	0	90	36.1581920903955	36.241610738255	16	0.533369600176811	2	4	6	NaN	1	3	0.135790103959126	0	1	NaN	444	8	3	1	120	220	320	NaN	520	0.606733974535018	1	1	NaN	3625308.3230474	NaN	3625309.3070911	3625309.82363673
103	19	0	0	90	36.1581920903955	36.241610738255	8	0.266684800088406	2	11	3	NaN	2	5	0.135790103959126	0	1	NaN	445	8	4	1	120	220	320	NaN	520	0.317890622187406	2	1	NaN	3625311.5406603	NaN	3625312.5240549	3625313.04061778
103	19	0	0	90	36.1581920903955	36.241610738255	12	0.400027200132608	2	6	6	NaN	1	3	0.135790103959126	0	1	NaN	446	8	5	1	120	220	320	NaN	520	0.631002622190863	1	1	NaN	3625315.1076644	NaN	3625316.0910874	3625316.60763138
103	19	0	0	90	36.1581920903955	36.241610738255	17	0.566705200187862	2	9	3	NaN	2	3	0.135790103959126	0	1	NaN	447	8	6	1	120	220	320	NaN	520	1.10104742180556	2	1	NaN	3625318.7413534	NaN	3625319.7247634	3625320.24132108
103	19	0	0	90	36.1581920903955	36.241610738255	22	0.733383200243115	2	6	5	NaN	1	5	0.135790103959126	0	1	NaN	448	8	7	1	120	220	320	NaN	520	0.32672362215817	1	1	NaN	3625322.4917097	NaN	3625323.4751393	3625323.99169598
103	19	0	0	90	36.1581920903955	36.241610738255	8	0.266684800088406	2	8	2	NaN	2	4	0.135790103959126	0	1	NaN	449	8	8	1	120	220	320	NaN	520	0.463666222058237	2	1	NaN	3625325.4580672	NaN	3625326.4420946	3625326.95865558
103	19	0	0	90	36.1581920903955	36.241610738255	8	0.266684800088406	2	6	6	NaN	1	3	0.135790103959126	0	1	NaN	450	8	9	1	120	220	320	NaN	520	0.264033269602805	1	1	NaN	3625328.2423295	NaN	3625329.225705	3625329.74225023
103	19	0	0	90	36.1581920903955	36.241610738255	14	0.46669840015471	2	12	1	NaN	2	5	0.135790103959126	0	1	NaN	451	8	10	1	120	220	320	NaN	520	0.296950169838965	2	1	NaN	3625330.82589	NaN	3625331.809282	3625332.32584203
103	19	0	0	90	36.1581920903955	36.241610738255	13	0.433362800143659	2	2	5	NaN	1	3	0.135790103959126	0	1	NaN	452	8	11	1	120	220	320	NaN	520	0.479475169908255	2	0	NaN	3625333.4427068	NaN	3625334.4262128	3625334.94276043
103	19	0	0	90	36.1581920903955	36.241610738255	16	0.533369600176811	2	2	1	NaN	1	4	0.135790103959126	0	1	NaN	453	8	12	1	120	220	320	NaN	520	1.21572156948969	1	1	NaN	3625336.2430868	NaN	3625337.2264788	3625337.74303543
103	19	0	0	90	36.1581920903955	36.241610738255	9	0.300020400099456	2	6	1	NaN	1	5	0.135790103959126	0	1	NaN	454	8	13	1	120	220	320	NaN	520	0.319143522065133	1	1	NaN	3625340.0434282	NaN	3625341.0268602	3625341.54341398
103	19	0	0	90	36.1581920903955	36.241610738255	25	0.833390000276268	2	4	6	NaN	1	4	0.135790103959126	0	1	NaN	455	8	14	1	120	220	320	NaN	520	0.449511921964586	1	1	NaN	3625344.1772197	NaN	3625345.160498	3625345.67715878
103	19	0	0	90	36.1581920903955	36.241610738255	8	0.266684800088406	2	2	4	NaN	1	3	0.135790103959126	0	1	NaN	456	8	15	1	120	220	320	NaN	520	1.44709548447281	1	1	NaN	3625347.2275215	NaN	3625348.2108954	3625348.72745712
103	19	0	0	90	36.1581920903955	36.241610738255	11	0.366691600121558	2	1	1	NaN	1	5	0.135790103959126	0	1	NaN	457	8	16	1	120	220	320	NaN	520	0.272638469468802	1	1	NaN	3625350.9777519	NaN	3625351.961291	3625352.47782273
103	19	0	0	90	36.1581920903955	36.241610738255	17	0.566705200187862	2	11	6	NaN	2	5	0.135790103959126	0	1	NaN	458	8	17	1	120	220	320	NaN	520	0.0289947222918272	2	1	NaN	3625353.6614352	NaN	3625354.6448636	3625355.16142308
