subjno	age	gender	isPractice	viewdist	CmToPixX	CmToPixY	SOA_frm	SOA_time	targNum	targID	targExample	targRace	targGender	firstTargPos	contrast	familiarity	curr_staircase	iStair	TrialNum	BlockNum	blktrl	sessionNum	TC_FIXATION	TC_RSVP_START	TC_RSVP_END	TC_BLANK	TC_RESPONSE_ONSET	RT2afc	resp_2afc	acc	RSVPOnsetVBL	RSVPOnsetTime	RSVPOffsetVBL	RSVPOffsetTime	startrt_2afc
6	20	0	0	90	36.1581920903955	36.241610738255	21	0.700046003926545	2	9	5	NaN	2	3	0.0205708797960764	0	1	NaN	1	1	1	2	120	220	320	NaN	520	1.05777057423256	1	0	NaN	1550275.5427731	NaN	1550276.5260944	1550277.05918333
6	20	0	0	90	36.1581920903955	36.241610738255	19	0.633374955933541	2	3	3	NaN	1	5	0.0205708797960764	0	1	NaN	2	1	2	2	120	220	320	NaN	520	0.312058263923973	1	1	NaN	1550278.9764605	NaN	1550279.9597133	1550280.49285604
6	20	0	0	90	36.1581920903955	36.241610738255	21	0.700046003926545	2	5	4	NaN	1	4	0.0205708797960764	0	1	NaN	3	1	3	2	120	220	320	NaN	520	0.222396089695394	2	0	NaN	1550281.6264937	NaN	1550282.6099091	1550283.12645411
6	20	0	0	90	36.1581920903955	36.241610738255	12	0.400026287958026	2	7	2	NaN	2	4	0.0205708797960764	0	1	NaN	4	1	4	2	120	220	320	NaN	520	0.184193316381425	2	1	NaN	1550284.1767609	NaN	1550285.1601625	1550285.67669418
6	20	0	0	90	36.1581920903955	36.241610738255	24	0.800052575916052	2	3	4	NaN	1	4	0.0205708797960764	0	1	NaN	5	1	5	2	120	220	320	NaN	520	0.243872463703156	1	1	NaN	1550286.6770073	NaN	1550287.6604224	1550288.17693824
6	20	0	0	90	36.1581920903955	36.241610738255	20	0.666710479930043	2	1	4	NaN	1	3	0.0205708797960764	0	1	NaN	6	1	6	2	120	220	320	NaN	520	0.0367561215534806	2	0	NaN	1550289.2439069	NaN	1550290.2273147	1550290.74386698
6	20	0	0	90	36.1581920903955	36.241610738255	9	0.30001971596852	2	12	1	NaN	2	3	0.0205708797960764	0	1	NaN	7	1	7	2	120	220	320	NaN	520	0.334752821596339	1	0	NaN	1550291.5941436	NaN	1550292.577541	1550293.09409808
6	20	0	0	90	36.1581920903955	36.241610738255	24	0.800052575916052	2	11	3	NaN	2	3	0.0205708797960764	0	1	NaN	8	1	8	2	120	220	320	NaN	520	0.268446973990649	2	1	NaN	1550294.2442912	NaN	1550295.2277934	1550295.74435363
6	20	0	0	90	36.1581920903955	36.241610738255	0	0	1	2	1	NaN	1	5	0.0205708797960764	0	1	NaN	9	1	9	2	110	210	310	NaN	510	0.204937969101593	2	0	NaN	1550296.8280283	NaN	1550297.8113864	1550298.32794663
6	20	0	0	90	36.1581920903955	36.241610738255	14	0.46669733595103	2	11	4	NaN	2	5	0.0205708797960764	0	1	NaN	10	1	10	2	120	220	320	NaN	520	0.263687968952581	1	0	NaN	1550299.3615589	NaN	1550300.3449735	1550300.86152463
6	20	0	0	90	36.1581920903955	36.241610738255	23	0.76671705191955	2	12	5	NaN	2	3	0.0205708797960764	0	1	NaN	11	1	11	2	120	220	320	NaN	520	0.0103924218565226	2	1	NaN	1550301.9452626	NaN	1550302.928559	1550303.44513218
6	20	0	0	90	36.1581920903955	36.241610738255	23	0.76671705191955	2	3	5	NaN	1	3	0.0205708797960764	0	1	NaN	12	1	12	2	120	220	320	NaN	520	0.130293242167681	2	0	NaN	1550304.2787227	NaN	1550305.2621277	1550305.77867616
6	20	0	0	90	36.1581920903955	36.241610738255	22	0.733381527923048	2	8	2	NaN	2	4	0.0205708797960764	0	1	NaN	13	1	13	2	120	220	320	NaN	520	0.103856069035828	2	1	NaN	1550306.7289731	NaN	1550307.7123561	1550308.22891093
6	20	0	0	90	36.1581920903955	36.241610738255	20	0.666710479930043	2	3	3	NaN	1	3	0.0205708797960764	0	1	NaN	14	1	14	2	120	220	320	NaN	520	0.479107816237956	1	1	NaN	1550309.1459674	NaN	1550310.1292579	1550310.64581858
6	20	0	0	90	36.1581920903955	36.241610738255	22	0.733381527923048	2	3	3	NaN	1	5	0.0205708797960764	0	1	NaN	15	1	15	2	120	220	320	NaN	520	0.0104197689797729	2	0	NaN	1550311.9461591	NaN	1550312.9295216	1550313.44609443
6	20	0	0	90	36.1581920903955	36.241610738255	21	0.700046003926545	2	11	4	NaN	2	3	0.0205708797960764	0	1	NaN	16	1	16	2	120	220	320	NaN	520	0.169115016469732	2	1	NaN	1550314.2796917	NaN	1550315.2631245	1550315.77966008
6	20	0	0	90	36.1581920903955	36.241610738255	14	0.46669733595103	2	2	5	NaN	1	4	0.0205708797960764	0	1	NaN	17	1	17	2	120	220	320	NaN	520	0.0137820690870285	1	1	NaN	1550316.7633141	NaN	1550317.7466789	1550318.26322973
6	20	0	0	90	36.1581920903955	36.241610738255	7	0.233348667975515	2	9	5	NaN	2	5	0.0205708797960764	0	1	NaN	18	1	18	2	120	220	320	NaN	520	0.19981802185066	2	1	NaN	1550319.0968699	NaN	1550320.0802321	1550320.59679438
6	20	0	0	90	36.1581920903955	36.241610738255	22	0.733381527923048	2	10	1	NaN	2	4	0.0205708797960764	0	1	NaN	19	1	19	2	120	220	320	NaN	520	0.203135421732441	1	0	NaN	1550321.6137899	NaN	1550322.5971545	1550323.11371638
6	20	0	0	90	36.1581920903955	36.241610738255	9	0.30001971596852	2	4	2	NaN	1	4	0.0205708797960764	0	1	NaN	20	1	20	2	120	220	320	NaN	520	0.181475221645087	1	1	NaN	1550324.1473321	NaN	1550325.1307097	1550325.64729558
6	20	0	0	90	36.1581920903955	36.241610738255	22	0.733381527923048	2	2	2	NaN	1	3	0.0205708797960764	0	1	NaN	21	1	21	2	120	220	320	NaN	520	0.0413405690342188	2	0	NaN	1550326.6474693	NaN	1550327.6310159	1550328.14754203
6	20	0	0	90	36.1581920903955	36.241610738255	17	0.566703907940537	2	8	1	NaN	2	5	0.0205708797960764	0	1	NaN	22	1	22	2	120	220	320	NaN	520	0.09046511631459	2	1	NaN	1550329.0144921	NaN	1550329.9978723	1550330.51443348
6	20	0	0	90	36.1581920903955	36.241610738255	12	0.400026287958026	2	4	3	NaN	1	3	0.0205708797960764	0	1	NaN	23	1	23	2	120	220	320	NaN	520	0.153460368979722	1	1	NaN	1550331.4313948	NaN	1550332.414791	1550332.93134313
6	20	0	0	90	36.1581920903955	36.241610738255	0	0	1	9	6	NaN	2	3	0.0205708797960764	0	1	NaN	24	1	24	2	110	210	310	NaN	510	0.19101812154986	1	0	NaN	1550333.898304	NaN	1550334.8816952	1550335.39824338
6	20	0	0	90	36.1581920903955	36.241610738255	11	0.366690763961524	2	2	6	NaN	1	4	0.0205708797960764	0	1	NaN	25	1	25	2	120	220	320	NaN	520	0.170707921497524	2	0	NaN	1550336.3985524	NaN	1550337.3819324	1550337.89849258
6	20	0	0	90	36.1581920903955	36.241610738255	17	0.566703907940537	2	1	3	NaN	1	3	0.0205708797960764	0	1	NaN	26	1	26	2	120	220	320	NaN	520	0.0103912216145545	2	0	NaN	1550338.8819773	NaN	1550339.8655118	1550340.38207298
6	20	0	0	90	36.1581920903955	36.241610738255	20	0.666710479930043	2	3	4	NaN	1	3	0.0205708797960764	0	1	NaN	27	1	27	2	120	220	320	NaN	520	0.213409821735695	2	0	NaN	1550341.3156784	NaN	1550342.2990748	1550342.81564978
6	20	0	0	90	36.1581920903955	36.241610738255	11	0.366690763961524	2	3	5	NaN	1	5	0.0205708797960764	0	1	NaN	28	1	28	2	120	220	320	NaN	520	0.103752621682361	1	1	NaN	1550343.8492693	NaN	1550344.8326776	1550345.34922478
6	20	0	0	90	36.1581920903955	36.241610738255	14	0.46669733595103	2	1	4	NaN	1	5	0.0205708797960764	0	1	NaN	29	1	29	2	120	220	320	NaN	520	0.126710468903184	2	0	NaN	1550346.2661684	NaN	1550347.2495734	1550347.76612263
6	20	0	0	90	36.1581920903955	36.241610738255	11	0.366690763961524	2	9	3	NaN	2	4	0.0205708797960764	0	1	NaN	30	1	30	2	120	220	320	NaN	520	0.188882021699101	1	0	NaN	1550348.7164245	NaN	1550349.6998142	1550350.21637508
6	20	0	0	90	36.1581920903955	36.241610738255	9	0.30001971596852	2	11	1	NaN	2	3	0.0205708797960764	0	1	NaN	31	1	31	2	120	220	320	NaN	520	0.200271521462128	2	1	NaN	1550351.2165511	NaN	1550352.2000451	1550352.71662158
6	20	0	0	90	36.1581920903955	36.241610738255	13	0.433361811954528	2	6	2	NaN	1	4	0.0205708797960764	0	1	NaN	32	1	32	2	120	220	320	NaN	520	0.155761468922719	1	1	NaN	1550353.7335737	NaN	1550354.7169955	1550355.23353413
6	20	0	0	90	36.1581920903955	36.241610738255	9	0.30001971596852	2	2	4	NaN	1	4	0.0205708797960764	0	1	NaN	33	1	33	2	120	220	320	NaN	520	0.176507869036868	1	1	NaN	1550356.2004698	NaN	1550357.1838828	1550357.70043563
6	20	0	0	90	36.1581920903955	36.241610738255	9	0.30001971596852	2	4	6	NaN	1	3	0.0205708797960764	0	1	NaN	34	1	34	2	120	220	320	NaN	520	0.132277400931343	1	1	NaN	1550358.7007264	NaN	1550359.684124	1550360.2006808
6	20	0	0	90	36.1581920903955	36.241610738255	17	0.566703907940537	2	12	5	NaN	2	5	0.0205708797960764	0	1	NaN	35	1	35	2	120	220	320	NaN	520	0.138332711067051	2	1	NaN	1550361.1508361	NaN	1550362.134357	1550362.65092529
6	20	0	0	90	36.1581920903955	36.241610738255	13	0.433361811954528	2	2	5	NaN	1	5	0.0205708797960764	0	1	NaN	36	1	36	2	120	220	320	NaN	520	0.256101221544668	2	0	NaN	1550363.6012099	NaN	1550364.5846177	1550365.10116948
6	20	0	0	90	36.1581920903955	36.241610738255	23	0.76671705191955	2	1	4	NaN	1	4	0.0205708797960764	0	1	NaN	37	1	37	2	120	220	320	NaN	520	0.2242401689291	2	0	NaN	1550366.1847814	NaN	1550367.1681858	1550367.68475543
6	20	0	0	90	36.1581920903955	36.241610738255	20	0.666710479930043	2	5	2	NaN	1	3	0.0205708797960764	0	1	NaN	38	1	38	2	120	220	320	NaN	520	0.218315521720797	2	0	NaN	1550368.7183755	NaN	1550369.7017699	1550370.21833578
6	20	0	0	90	36.1581920903955	36.241610738255	10	0.333355239965022	2	7	3	NaN	2	5	0.0205708797960764	0	1	NaN	39	1	39	2	120	220	320	NaN	520	0.133185873972252	2	1	NaN	1550371.2518533	NaN	1550372.235354	1550372.75192733
6	20	0	0	90	36.1581920903955	36.241610738255	11	0.366690763961524	2	4	5	NaN	1	3	0.0205708797960764	0	1	NaN	40	1	40	2	120	220	320	NaN	520	0.146919921739027	2	0	NaN	1550373.7022046	NaN	1550374.6855767	1550375.20215488
6	20	0	0	90	36.1581920903955	36.241610738255	6	0.200013143979013	2	9	1	NaN	2	4	0.0205708797960764	0	1	NaN	41	1	41	2	120	220	320	NaN	520	1.02391346893273	2	1	NaN	1550376.1691183	NaN	1550377.1525107	1550377.66906103
6	20	0	0	90	36.1581920903955	36.241610738255	21	0.700046003926545	2	3	4	NaN	1	3	0.0205708797960764	0	1	NaN	42	1	42	2	120	220	320	NaN	520	0.266140316380188	2	0	NaN	1550379.5027751	NaN	1550380.4861665	1550381.00273018
6	20	0	0	90	36.1581920903955	36.241610738255	10	0.333355239965022	2	3	2	NaN	1	5	0.0205708797960764	0	1	NaN	43	1	43	2	120	220	320	NaN	520	0.178963621612638	1	1	NaN	1550382.0863568	NaN	1550383.0697516	1550383.58631608
6	20	0	0	90	36.1581920903955	36.241610738255	18	0.600039431937039	2	7	4	NaN	2	4	0.0205708797960764	0	1	NaN	44	1	44	2	120	220	320	NaN	520	0.279012421611696	2	1	NaN	1550384.5699223	NaN	1550385.5533408	1550386.06989528
6	20	0	0	90	36.1581920903955	36.241610738255	17	0.566703907940537	2	10	2	NaN	2	4	0.0205708797960764	0	1	NaN	45	1	45	2	120	220	320	NaN	520	0.0708313691429794	1	0	NaN	1550387.1701875	NaN	1550388.1535842	1550388.67014073
6	20	0	0	90	36.1581920903955	36.241610738255	8	0.266684191972017	2	2	2	NaN	1	5	0.0205708797960764	0	1	NaN	46	1	46	2	120	220	320	NaN	520	0.158974742051214	1	1	NaN	1550389.5536589	NaN	1550390.5371493	1550391.05372336
6	20	0	0	90	36.1581920903955	36.241610738255	14	0.46669733595103	2	12	3	NaN	2	5	0.0205708797960764	0	1	NaN	47	1	47	2	120	220	320	NaN	520	0.0203230215702206	2	1	NaN	1550392.0206803	NaN	1550393.0040601	1550393.52062748
6	20	0	0	90	36.1581920903955	36.241610738255	23	0.76671705191955	2	2	1	NaN	1	5	0.0205708797960764	0	1	NaN	48	1	48	2	120	220	320	NaN	520	0.158828037325293	2	0	NaN	1550394.3541693	NaN	1550395.33761	1550395.85417996
6	20	0	0	90	36.1581920903955	36.241610738255	24	0.800052575916052	2	12	3	NaN	2	5	0.0205708797960764	0	1	NaN	49	1	49	2	120	220	320	NaN	520	0.0104169689584523	1	0	NaN	1550396.8378072	NaN	1550397.8212059	1550398.33775473
6	20	0	0	90	36.1581920903955	36.241610738255	10	0.333355239965022	2	11	4	NaN	2	3	0.0205708797960764	0	1	NaN	50	1	50	2	120	220	320	NaN	520	0.126394121674821	2	1	NaN	1550399.1546931	NaN	1550400.138081	1550400.65465298
6	20	0	0	90	36.1581920903955	36.241610738255	20	0.666710479930043	2	12	2	NaN	2	3	0.0205708797960764	0	1	NaN	51	1	51	2	120	220	320	NaN	520	0.0103946216404438	1	0	NaN	1550401.5882964	NaN	1550402.5716724	1550403.08823208
6	20	0	0	90	36.1581920903955	36.241610738255	21	0.700046003926545	2	7	3	NaN	2	3	0.0205708797960764	0	1	NaN	52	1	52	2	120	220	320	NaN	520	0.111105721676722	1	0	NaN	1550403.9219364	NaN	1550404.905236	1550405.42178568
6	20	0	0	90	36.1581920903955	36.241610738255	25	0.833388099912554	2	12	2	NaN	2	5	0.0205708797960764	0	1	NaN	53	1	53	2	120	220	320	NaN	520	0.125688321655616	2	1	NaN	1550406.355443	NaN	1550407.338793	1550407.85536508
6	20	0	0	90	36.1581920903955	36.241610738255	14	0.46669733595103	2	8	5	NaN	2	5	0.0205708797960764	0	1	NaN	54	1	54	2	120	220	320	NaN	520	0.187985221622512	1	0	NaN	1550408.7889857	NaN	1550409.7723735	1550410.28893448
6	20	0	0	90	36.1581920903955	36.241610738255	10	0.333355239965022	2	1	3	NaN	1	4	0.0205708797960764	0	1	NaN	55	1	55	2	120	220	320	NaN	520	0.14374781656079	2	0	NaN	1550411.2890954	NaN	1550412.2726235	1550412.78917818
6	20	0	0	90	36.1581920903955	36.241610738255	23	0.76671705191955	2	8	4	NaN	2	5	0.0205708797960764	0	1	NaN	56	1	56	2	120	220	320	NaN	520	0.010432016570121	1	0	NaN	1550413.7561255	NaN	1550414.7395153	1550415.25608658
6	20	0	0	90	36.1581920903955	36.241610738255	7	0.233348667975515	2	11	6	NaN	2	5	0.0205708797960764	0	1	NaN	57	1	57	2	120	220	320	NaN	520	0.167385342065245	2	1	NaN	1550416.0896905	NaN	1550417.0730792	1550417.58966076
6	20	0	0	90	36.1581920903955	36.241610738255	10	0.333355239965022	2	1	1	NaN	1	4	0.0205708797960764	0	1	NaN	58	1	58	2	120	220	320	NaN	520	0.0103901217225939	2	0	NaN	1550418.5731605	NaN	1550419.5566686	1550420.07321998
6	20	0	0	90	36.1581920903955	36.241610738255	6	0.200013143979013	2	9	4	NaN	2	3	0.0205708797960764	0	1	NaN	59	1	59	2	120	220	320	NaN	520	0.214584069093689	2	1	NaN	1550420.9068859	NaN	1550421.8902449	1550422.40678193
6	20	0	0	90	36.1581920903955	36.241610738255	14	0.46669733595103	2	8	3	NaN	2	3	0.0205708797960764	0	1	NaN	60	1	60	2	120	220	320	NaN	520	0.256537079112604	1	0	NaN	1550423.4404221	NaN	1550424.4238035	1550424.94037212
6	20	0	0	90	36.1581920903955	36.241610738255	24	0.800052575916052	2	10	6	NaN	2	3	0.0205708797960764	0	1	NaN	61	1	61	2	120	220	320	NaN	520	0.697996868984774	2	1	NaN	1550426.0073343	NaN	1550426.9907398	1550427.50728673
6	20	0	0	90	36.1581920903955	36.241610738255	16	0.533368383944035	2	4	4	NaN	1	3	0.0205708797960764	0	1	NaN	62	1	62	2	120	220	320	NaN	520	0.177061521681026	2	0	NaN	1550429.0242916	NaN	1550430.0076747	1550430.52425508
6	20	0	0	90	36.1581920903955	36.241610738255	22	0.733381527923048	2	6	4	NaN	1	4	0.0205708797960764	0	1	NaN	63	1	63	2	120	220	320	NaN	520	0.524851421592757	2	0	NaN	1550431.5245746	NaN	1550432.5079683	1550433.02450448
6	20	0	0	90	36.1581920903955	36.241610738255	12	0.400026287958026	2	10	6	NaN	2	4	0.0205708797960764	0	1	NaN	64	2	1	2	120	220	320	NaN	520	0.127548874123022	2	1	NaN	1550446.8094004	NaN	1550447.7927632	1550448.30933083
6	20	0	0	90	36.1581920903955	36.241610738255	12	0.400026287958026	2	2	5	NaN	1	3	0.0205708797960764	0	1	NaN	65	2	2	2	120	220	320	NaN	520	0.293309721630067	2	0	NaN	1550449.2596142	NaN	1550450.243022	1550450.75957278
6	20	0	0	90	36.1581920903955	36.241610738255	14	0.46669733595103	2	9	5	NaN	2	5	0.0205708797960764	0	1	NaN	66	2	3	2	120	220	320	NaN	520	0.194511621724814	2	1	NaN	1550452.5265916	NaN	1550453.5100358	1550454.02655498
6	20	0	0	90	36.1581920903955	36.241610738255	11	0.366690763961524	2	12	3	NaN	2	5	0.0205708797960764	0	1	NaN	67	2	4	2	120	220	320	NaN	520	0.248171716462821	2	1	NaN	1550455.5768775	NaN	1550456.5602806	1550457.07685578
6	20	0	0	90	36.1581920903955	36.241610738255	0	0	1	5	6	NaN	1	3	0.0205708797960764	0	1	NaN	68	2	5	2	110	210	310	NaN	510	0.274349136976525	2	0	NaN	1550460.7107203	NaN	1550461.6941474	1550462.21070576
6	20	0	0	90	36.1581920903955	36.241610738255	0	0	1	7	1	NaN	2	3	0.0205708797960764	0	1	NaN	69	2	6	2	110	210	310	NaN	510	0.275047621689737	2	1	NaN	1550463.8942569	NaN	1550464.8777982	1550465.39434858
6	20	0	0	90	36.1581920903955	36.241610738255	25	0.833388099912554	2	9	4	NaN	2	4	0.0205708797960764	0	1	NaN	70	2	7	2	120	220	320	NaN	520	0.147201621672139	2	1	NaN	1550466.477995	NaN	1550467.4613919	1550467.97792618
6	20	0	0	90	36.1581920903955	36.241610738255	8	0.266684191972017	2	1	3	NaN	1	5	0.0205708797960764	0	1	NaN	71	2	8	2	120	220	320	NaN	520	0.216116279363632	2	0	NaN	1550468.9448832	NaN	1550469.9282715	1550470.44484022
6	20	0	0	90	36.1581920903955	36.241610738255	15	0.500032859947532	2	8	5	NaN	2	5	0.0205708797960764	0	1	NaN	72	2	9	2	120	220	320	NaN	520	0.298722269013524	2	1	NaN	1550471.4784583	NaN	1550472.461856	1550472.97841303
6	20	0	0	90	36.1581920903955	36.241610738255	17	0.566703907940537	2	9	6	NaN	2	5	0.0205708797960764	0	1	NaN	73	2	10	2	120	220	320	NaN	520	0.298108369112015	2	1	NaN	1550474.0952865	NaN	1550475.0787948	1550475.59533943
6	20	0	0	90	36.1581920903955	36.241610738255	0	0	1	10	5	NaN	2	3	0.0205708797960764	0	1	NaN	74	2	11	2	110	210	310	NaN	510	0.433267231797799	1	0	NaN	1550476.6957132	NaN	1550477.6790441	1550478.19561117
6	20	0	0	90	36.1581920903955	36.241610738255	14	0.46669733595103	2	4	4	NaN	1	5	0.0205708797960764	0	1	NaN	75	2	12	2	120	220	320	NaN	520	0.131879021646455	2	0	NaN	1550479.4291237	NaN	1550480.4127045	1550480.92920028
6	20	0	0	90	36.1581920903955	36.241610738255	23	0.76671705191955	2	5	1	NaN	1	4	0.0205708797960764	0	1	NaN	76	2	13	2	120	220	320	NaN	520	0.0688437689095736	1	1	NaN	1550481.9960953	NaN	1550482.9795656	1550483.49612403
6	20	0	0	90	36.1581920903955	36.241610738255	20	0.666710479930043	2	9	1	NaN	2	4	0.0205708797960764	0	1	NaN	77	2	14	2	120	220	320	NaN	520	0.461304216412827	2	1	NaN	1550484.3797322	NaN	1550485.3631337	1550485.87968118
6	20	0	0	90	36.1581920903955	36.241610738255	23	0.76671705191955	2	11	3	NaN	2	5	0.0205708797960764	0	1	NaN	78	2	15	2	120	220	320	NaN	520	0.229812021600083	1	0	NaN	1550487.1633568	NaN	1550488.1467238	1550488.66329768
6	20	0	0	90	36.1581920903955	36.241610738255	22	0.733381527923048	2	11	2	NaN	2	3	0.0205708797960764	0	1	NaN	79	2	16	2	120	220	320	NaN	520	0.0955678215250373	2	1	NaN	1550489.7135864	NaN	1550490.6969813	1550491.21354748
6	20	0	0	90	36.1581920903955	36.241610738255	7	0.233348667975515	2	4	2	NaN	1	5	0.0205708797960764	0	1	NaN	80	2	17	2	120	220	320	NaN	520	0.319439169019461	2	0	NaN	1550492.1138416	NaN	1550493.0972119	1550493.61377423
6	20	0	0	90	36.1581920903955	36.241610738255	17	0.566703907940537	2	5	2	NaN	1	4	0.0205708797960764	0	1	NaN	81	2	18	2	120	220	320	NaN	520	0.158152116462588	2	0	NaN	1550494.7474156	NaN	1550495.7308163	1550496.24737538
6	20	0	0	90	36.1581920903955	36.241610738255	13	0.433361811954528	2	8	2	NaN	2	4	0.0205708797960764	0	1	NaN	82	2	19	2	120	220	320	NaN	520	0.026764168869704	2	1	NaN	1550497.2143481	NaN	1550498.1977417	1550498.71427753
6	20	0	0	90	36.1581920903955	36.241610738255	9	0.30001971596852	2	9	2	NaN	2	3	0.0205708797960764	0	1	NaN	83	2	20	2	120	220	320	NaN	520	0.167275316547602	2	1	NaN	1550499.8979217	NaN	1550500.8812974	1550501.39787038
6	20	0	0	90	36.1581920903955	36.241610738255	9	0.30001971596852	2	9	1	NaN	2	4	0.0205708797960764	0	1	NaN	84	2	21	2	120	220	320	NaN	520	0.0416914692614228	2	1	NaN	1550502.6314894	NaN	1550503.6148357	1550504.13148113
6	20	0	0	90	36.1581920903955	36.241610738255	9	0.30001971596852	2	5	5	NaN	1	5	0.0205708797960764	0	1	NaN	85	2	22	2	120	220	320	NaN	520	0.0674947216175497	1	1	NaN	1550504.9816007	NaN	1550505.9651548	1550506.48171578
6	20	0	0	90	36.1581920903955	36.241610738255	17	0.566703907940537	2	8	6	NaN	2	3	0.0205708797960764	0	1	NaN	86	2	23	2	120	220	320	NaN	520	0.227826021611691	2	1	NaN	1550507.3653374	NaN	1550508.3487196	1550508.86528118
6	20	0	0	90	36.1581920903955	36.241610738255	15	0.500032859947532	2	12	4	NaN	2	3	0.0205708797960764	0	1	NaN	87	2	24	2	120	220	320	NaN	520	0.173545221565291	2	1	NaN	1550509.9154605	NaN	1550510.8989625	1550511.41552298
6	20	0	0	90	36.1581920903955	36.241610738255	21	0.700046003926545	2	8	4	NaN	2	4	0.0205708797960764	0	1	NaN	88	2	25	2	120	220	320	NaN	520	0.178032569121569	2	1	NaN	1550512.3991435	NaN	1550513.382555	1550513.89909823
6	20	0	0	90	36.1581920903955	36.241610738255	25	0.833388099912554	2	10	4	NaN	2	5	0.0205708797960764	0	1	NaN	89	2	26	2	120	220	320	NaN	520	0.0543795216362923	1	0	NaN	1550514.8827288	NaN	1550515.8661229	1550516.38268218
6	20	0	0	90	36.1581920903955	36.241610738255	16	0.533368383944035	2	5	2	NaN	1	5	0.0205708797960764	0	1	NaN	90	2	27	2	120	220	320	NaN	520	0.0875310690607876	2	0	NaN	1550517.2496516	NaN	1550518.233023	1550518.74957253
6	20	0	0	90	36.1581920903955	36.241610738255	15	0.500032859947532	2	11	2	NaN	2	3	0.0205708797960764	0	1	NaN	91	2	28	2	120	220	320	NaN	520	0.175705621717498	2	1	NaN	1550519.6497398	NaN	1550520.6332558	1550521.14981208
6	20	0	0	90	36.1581920903955	36.241610738255	12	0.400026287958026	2	10	3	NaN	2	3	0.0205708797960764	0	1	NaN	92	2	29	2	120	220	320	NaN	520	0.0103830739390105	2	1	NaN	1550522.1334532	NaN	1550523.1168427	1550523.63339483
6	20	0	0	90	36.1581920903955	36.241610738255	9	0.30001971596852	2	1	1	NaN	1	3	0.0205708797960764	0	1	NaN	93	2	30	2	120	220	320	NaN	520	0.0948229217901826	1	1	NaN	1550524.4503263	NaN	1550525.4337132	1550525.95028508
6	20	0	0	90	36.1581920903955	36.241610738255	19	0.633374955933541	2	8	6	NaN	2	4	0.0205708797960764	0	1	NaN	94	2	31	2	120	220	320	NaN	520	0.135002774186432	2	1	NaN	1550526.8506391	NaN	1550527.8339467	1550528.35052813
6	20	0	0	90	36.1581920903955	36.241610738255	22	0.733381527923048	2	12	1	NaN	2	4	0.0205708797960764	0	1	NaN	95	2	32	2	120	220	320	NaN	520	0.228236121824011	2	1	NaN	1550529.3008056	NaN	1550530.2842062	1550530.80076328
6	20	0	0	90	36.1581920903955	36.241610738255	19	0.633374955933541	2	9	6	NaN	2	4	0.0205708797960764	0	1	NaN	96	2	33	2	120	220	320	NaN	520	0.102816321654245	1	0	NaN	1550531.8344066	NaN	1550532.8177882	1550533.33435018
6	20	0	0	90	36.1581920903955	36.241610738255	13	0.433361811954528	2	3	1	NaN	1	4	0.0205708797960764	0	1	NaN	97	2	34	2	120	220	320	NaN	520	0.285016021458432	2	0	NaN	1550534.4681043	NaN	1550535.4513867	1550535.96793738
6	20	0	0	90	36.1581920903955	36.241610738255	0	0	1	10	4	NaN	2	4	0.0205708797960764	0	1	NaN	98	2	35	2	110	210	310	NaN	510	0.345556821441278	2	1	NaN	1550537.3515905	NaN	1550538.3349951	1550538.85155978
6	20	0	0	90	36.1581920903955	36.241610738255	12	0.400026287958026	2	11	1	NaN	2	4	0.0205708797960764	0	1	NaN	99	2	36	2	120	220	320	NaN	520	0.211235816357657	2	1	NaN	1550540.301928	NaN	1550541.2852795	1550541.80184198
6	20	0	0	90	36.1581920903955	36.241610738255	18	0.600039431937039	2	6	4	NaN	1	5	0.0205708797960764	0	1	NaN	100	2	37	2	120	220	320	NaN	520	0.206510574091226	2	0	NaN	1550542.818802	NaN	1550543.8021955	1550544.31876273
6	20	0	0	90	36.1581920903955	36.241610738255	11	0.366690763961524	2	11	2	NaN	2	5	0.0205708797960764	0	1	NaN	101	2	38	2	120	220	320	NaN	520	0.265499521512538	2	1	NaN	1550545.3357107	NaN	1550546.3191053	1550546.83567128
6	20	0	0	90	36.1581920903955	36.241610738255	8	0.266684191972017	2	12	2	NaN	2	3	0.0205708797960764	0	1	NaN	102	2	39	2	120	220	320	NaN	520	0.119367094710469	2	1	NaN	1550550.5862283	NaN	1550551.5696281	1550552.08619161
6	20	0	0	90	36.1581920903955	36.241610738255	18	0.600039431937039	2	8	4	NaN	2	5	0.0205708797960764	0	1	NaN	103	2	40	2	120	220	320	NaN	520	0.325940021546558	2	1	NaN	1550555.0033065	NaN	1550555.9867095	1550556.50328928
6	20	0	0	90	36.1581920903955	36.241610738255	12	0.400026287958026	2	1	6	NaN	1	3	0.0205708797960764	0	1	NaN	104	2	41	2	120	220	320	NaN	520	0.121969274012372	2	0	NaN	1550613.7757534	NaN	1550614.7591657	1550615.27572283
6	20	0	0	90	36.1581920903955	36.241610738255	7	0.233348667975515	2	5	1	NaN	1	4	0.0205708797960764	0	1	NaN	105	2	42	2	120	220	320	NaN	520	0.280442469054833	2	0	NaN	1550616.2093596	NaN	1550617.1927417	1550617.70929833
6	20	0	0	90	36.1581920903955	36.241610738255	16	0.533368383944035	2	11	3	NaN	2	4	0.0205708797960764	0	1	NaN	106	2	43	2	120	220	320	NaN	520	0.447813821723685	2	1	NaN	1550618.8094888	NaN	1550619.7929945	1550620.30955518
6	20	0	0	90	36.1581920903955	36.241610738255	23	0.76671705191955	2	7	5	NaN	2	4	0.0205708797960764	0	1	NaN	107	2	44	2	120	220	320	NaN	520	0.504774021683261	2	1	NaN	1550621.5765257	NaN	1550622.5599223	1550623.07648848
6	20	0	0	90	36.1581920903955	36.241610738255	25	0.833388099912554	2	2	1	NaN	1	4	0.0205708797960764	0	1	NaN	108	2	45	2	120	220	320	NaN	520	0.199852421646938	2	0	NaN	1550624.3935369	NaN	1550625.3768782	1550625.89343938
6	20	0	0	90	36.1581920903955	36.241610738255	9	0.30001971596852	2	11	6	NaN	2	4	0.0205708797960764	0	1	NaN	109	2	46	2	120	220	320	NaN	520	0.163301637163386	2	1	NaN	1550626.9103893	NaN	1550627.893819	1550628.41034786
6	20	0	0	90	36.1581920903955	36.241610738255	16	0.533368383944035	2	9	4	NaN	2	5	0.0205708797960764	0	1	NaN	110	2	47	2	120	220	320	NaN	520	0.215283174067736	2	1	NaN	1550629.3939774	NaN	1550630.3773929	1550630.89393293
6	20	0	0	90	36.1581920903955	36.241610738255	10	0.333355239965022	2	8	1	NaN	2	5	0.0205708797960764	0	1	NaN	111	2	48	2	120	220	320	NaN	520	0.185576821677387	1	0	NaN	1550631.9275781	NaN	1550632.9109837	1550633.42750798
6	20	0	0	90	36.1581920903955	36.241610738255	18	0.600039431937039	2	5	1	NaN	1	5	0.0205708797960764	0	1	NaN	112	2	49	2	120	220	320	NaN	520	0.220757442060858	1	1	NaN	1550634.4444836	NaN	1550635.4278641	1550635.94441836
6	20	0	0	90	36.1581920903955	36.241610738255	15	0.500032859947532	2	6	2	NaN	1	5	0.0205708797960764	0	1	NaN	113	2	50	2	120	220	320	NaN	520	0.374482268933207	1	1	NaN	1550636.9947282	NaN	1550637.9781363	1550638.49467393
6	20	0	0	90	36.1581920903955	36.241610738255	24	0.800052575916052	2	1	5	NaN	1	5	0.0205708797960764	0	1	NaN	114	2	51	2	120	220	320	NaN	520	0.242999442154542	2	0	NaN	1550639.6783145	NaN	1550640.6617338	1550641.17827716
6	20	0	0	90	36.1581920903955	36.241610738255	25	0.833388099912554	2	2	4	NaN	1	3	0.0205708797960764	0	1	NaN	115	2	52	2	120	220	320	NaN	520	0.116136121563613	1	1	NaN	1550642.2452906	NaN	1550643.2286363	1550643.74518098
6	20	0	0	90	36.1581920903955	36.241610738255	25	0.833388099912554	2	4	4	NaN	1	5	0.0205708797960764	0	1	NaN	116	2	53	2	120	220	320	NaN	520	0.28247336903587	1	1	NaN	1550644.6788001	NaN	1550645.6622136	1550646.17875243
6	20	0	0	90	36.1581920903955	36.241610738255	18	0.600039431937039	2	12	4	NaN	2	4	0.0205708797960764	0	1	NaN	117	2	54	2	120	220	320	NaN	520	0.010455469135195	2	1	NaN	1550647.2957563	NaN	1550648.2791253	1550648.79568093
6	20	0	0	90	36.1581920903955	36.241610738255	21	0.700046003926545	2	7	2	NaN	2	3	0.0205708797960764	0	1	NaN	118	2	55	2	120	220	320	NaN	520	0.0201175690162927	1	0	NaN	1550649.6292904	NaN	1550650.612717	1550651.12924643
6	20	0	0	90	36.1581920903955	36.241610738255	18	0.600039431937039	2	8	5	NaN	2	5	0.0205708797960764	0	1	NaN	119	2	56	2	120	220	320	NaN	520	0.0220103689935058	2	1	NaN	1550651.9795848	NaN	1550652.9629221	1550653.47947073
6	20	0	0	90	36.1581920903955	36.241610738255	13	0.433361811954528	2	12	5	NaN	2	5	0.0205708797960764	0	1	NaN	120	2	57	2	120	220	320	NaN	520	0.0104165791999549	1	0	NaN	1550654.3297621	NaN	1550655.3131731	1550655.82970592
6	20	0	0	90	36.1581920903955	36.241610738255	19	0.633374955933541	2	5	3	NaN	1	5	0.0205708797960764	0	1	NaN	121	2	58	2	120	220	320	NaN	520	0.178062068996951	1	1	NaN	1550656.6631987	NaN	1550657.6467682	1550658.16327013
6	20	0	0	90	36.1581920903955	36.241610738255	14	0.46669733595103	2	3	1	NaN	1	4	0.0205708797960764	0	1	NaN	122	2	59	2	120	220	320	NaN	520	0.285863163881004	1	1	NaN	1550659.1635621	NaN	1550660.1469669	1550660.66351594
6	20	0	0	90	36.1581920903955	36.241610738255	0	0	1	2	2	NaN	1	3	0.0205708797960764	0	1	NaN	123	2	60	2	110	210	310	NaN	510	0.010272742016241	2	0	NaN	1550661.7804262	NaN	1550662.7639028	1550663.28044726
6	20	0	0	90	36.1581920903955	36.241610738255	21	0.700046003926545	2	5	3	NaN	1	5	0.0205708797960764	0	1	NaN	124	2	61	2	120	220	320	NaN	520	0.976190221495926	1	1	NaN	1550664.0974211	NaN	1550665.0807996	1550665.59733418
6	20	0	0	90	36.1581920903955	36.241610738255	13	0.433361811954528	2	11	5	NaN	2	4	0.0205708797960764	0	1	NaN	125	2	62	2	120	220	320	NaN	520	0.795640279306099	2	1	NaN	1550667.3975818	NaN	1550668.3811499	1550668.89765602
6	20	0	0	90	36.1581920903955	36.241610738255	10	0.333355239965022	2	12	6	NaN	2	4	0.0205708797960764	0	1	NaN	126	2	63	2	120	220	320	NaN	520	0.26144521124661	2	1	NaN	1550670.5478882	NaN	1550671.5314572	1550672.04796179
6	20	0	0	90	36.1581920903955	36.241610738255	19	0.633374955933541	2	7	1	NaN	2	4	0.0205708797960764	0	1	NaN	127	3	1	2	120	220	320	NaN	520	0.0104139689356089	1	0	NaN	1550680.5489944	NaN	1550681.5324419	1550682.04893993
6	20	0	0	90	36.1581920903955	36.241610738255	6	0.200013143979013	2	1	2	NaN	1	5	0.0205708797960764	0	1	NaN	128	3	2	2	120	220	320	NaN	520	0.351402021478862	2	0	NaN	1550682.8658979	NaN	1550683.8492944	1550684.36583698
6	20	0	0	90	36.1581920903955	36.241610738255	11	0.366690763961524	2	4	3	NaN	1	5	0.0205708797960764	0	1	NaN	129	3	3	2	120	220	320	NaN	520	0.26091057411395	2	0	NaN	1550685.532913	NaN	1550686.5162423	1550687.03278013
6	20	0	0	90	36.1581920903955	36.241610738255	8	0.266684191972017	2	10	5	NaN	2	5	0.0205708797960764	0	1	NaN	130	3	4	2	120	220	320	NaN	520	0.261223621666431	1	0	NaN	1550688.1164173	NaN	1550689.0998213	1550689.61635948
6	20	0	0	90	36.1581920903955	36.241610738255	0	0	1	12	6	NaN	2	5	0.0205708797960764	0	1	NaN	131	3	5	2	110	210	310	NaN	510	0.149937116540968	2	1	NaN	1550690.6999882	NaN	1550691.6834147	1550692.19994308
6	20	0	0	90	36.1581920903955	36.241610738255	15	0.500032859947532	2	12	1	NaN	2	3	0.0205708797960764	0	1	NaN	132	3	6	2	120	220	320	NaN	520	0.106468537123874	1	0	NaN	1550693.1668368	NaN	1550694.1502896	1550694.66685226
6	20	0	0	90	36.1581920903955	36.241610738255	20	0.666710479930043	2	8	5	NaN	2	4	0.0205708797960764	0	1	NaN	133	3	7	2	120	220	320	NaN	520	0.0257347740698606	2	1	NaN	1550695.583686	NaN	1550696.5671835	1550697.08376323
6	20	0	0	90	36.1581920903955	36.241610738255	20	0.666710479930043	2	8	5	NaN	2	3	0.0205708797960764	0	1	NaN	134	3	8	2	120	220	320	NaN	520	0.0104938163422048	1	0	NaN	1550697.9340449	NaN	1550698.9174258	1550699.43399468
6	20	0	0	90	36.1581920903955	36.241610738255	6	0.200013143979013	2	3	6	NaN	1	4	0.0205708797960764	0	1	NaN	135	3	9	2	120	220	320	NaN	520	0.0618784218095243	1	1	NaN	1550700.2675976	NaN	1550701.2510036	1550701.76755428
6	20	0	0	90	36.1581920903955	36.241610738255	19	0.633374955933541	2	8	3	NaN	2	3	0.0205708797960764	0	1	NaN	136	3	10	2	120	220	320	NaN	520	0.566608321620151	2	1	NaN	1550702.6511589	NaN	1550703.6345599	1550704.15111838
6	20	0	0	90	36.1581920903955	36.241610738255	0	0	1	6	5	NaN	1	5	0.0205708797960764	0	1	NaN	137	3	11	2	110	210	310	NaN	510	0.0104250691365451	1	1	NaN	1550705.5347967	NaN	1550706.518192	1550707.03473633
6	20	0	0	90	36.1581920903955	36.241610738255	25	0.833388099912554	2	12	4	NaN	2	4	0.0205708797960764	0	1	NaN	138	3	12	2	120	220	320	NaN	520	1.16549092158675	2	1	NaN	1550707.868292	NaN	1550708.8517776	1550709.36829828
6	20	0	0	90	36.1581920903955	36.241610738255	20	0.666710479930043	2	4	3	NaN	1	4	0.0205708797960764	0	1	NaN	139	3	13	2	120	220	320	NaN	520	0.233365721534938	1	1	NaN	1550711.352045	NaN	1550712.3354172	1550712.85197718
6	20	0	0	90	36.1581920903955	36.241610738255	12	0.400026287958026	2	9	4	NaN	2	4	0.0205708797960764	0	1	NaN	140	3	14	2	120	220	320	NaN	520	0.139292221516371	1	0	NaN	1550713.9022786	NaN	1550714.8856793	1550715.40222218
6	20	0	0	90	36.1581920903955	36.241610738255	17	0.566703907940537	2	2	5	NaN	1	3	0.0205708797960764	0	1	NaN	141	3	15	2	120	220	320	NaN	520	0.185426169075072	1	1	NaN	1550716.3525519	NaN	1550717.3359134	1550717.85246673
6	20	0	0	90	36.1581920903955	36.241610738255	19	0.633374955933541	2	5	2	NaN	1	5	0.0205708797960764	0	1	NaN	142	3	16	2	120	220	320	NaN	520	0.164346479112282	2	0	NaN	1550718.86941	NaN	1550719.8528369	1550720.36938502
6	20	0	0	90	36.1581920903955	36.241610738255	11	0.366690763961524	2	10	2	NaN	2	3	0.0205708797960764	0	1	NaN	143	3	17	2	120	220	320	NaN	520	0.0104108690284193	1	0	NaN	1550721.3530422	NaN	1550722.3364147	1550722.85295453
6	20	0	0	90	36.1581920903955	36.241610738255	15	0.500032859947532	2	7	6	NaN	2	5	0.0205708797960764	0	1	NaN	144	3	18	2	120	220	320	NaN	520	0.170899321790785	2	1	NaN	1550723.6864449	NaN	1550724.6699775	1550725.18652068
6	20	0	0	90	36.1581920903955	36.241610738255	22	0.733381527923048	2	4	2	NaN	1	4	0.0205708797960764	0	1	NaN	145	3	19	2	120	220	320	NaN	520	0.287145821610466	2	0	NaN	1550726.1868194	NaN	1550727.1702364	1550727.68676088
6	20	0	0	90	36.1581920903955	36.241610738255	6	0.200013143979013	2	11	4	NaN	2	5	0.0205708797960764	0	1	NaN	146	3	20	2	120	220	320	NaN	520	0.125934921437874	1	0	NaN	1550728.8037404	NaN	1550729.7871275	1550730.30369148
6	20	0	0	90	36.1581920903955	36.241610738255	15	0.500032859947532	2	4	1	NaN	1	4	0.0205708797960764	0	1	NaN	147	3	21	2	120	220	320	NaN	520	0.0275551162194461	2	0	NaN	1550731.2539695	NaN	1550732.2373799	1550732.75392608
6	20	0	0	90	36.1581920903955	36.241610738255	24	0.800052575916052	2	2	3	NaN	1	4	0.0205708797960764	0	1	NaN	148	3	22	2	120	220	320	NaN	520	0.765148721635342	1	1	NaN	1550733.604202	NaN	1550734.5876055	1550735.10415658
6	20	0	0	90	36.1581920903955	36.241610738255	25	0.833388099912554	2	5	6	NaN	1	5	0.0205708797960764	0	1	NaN	149	3	23	2	120	220	320	NaN	520	0.153714569052681	2	0	NaN	1550736.6878821	NaN	1550737.6712582	1550738.18778373
6	20	0	0	90	36.1581920903955	36.241610738255	15	0.500032859947532	2	9	2	NaN	2	3	0.0205708797960764	0	1	NaN	150	3	24	2	120	220	320	NaN	520	0.398521821713075	2	1	NaN	1550739.1714388	NaN	1550740.1547242	1550740.67137198
6	20	0	0	90	36.1581920903955	36.241610738255	8	0.266684191972017	2	6	5	NaN	1	4	0.0205708797960764	0	1	NaN	151	3	25	2	120	220	320	NaN	520	0.121264821616933	2	0	NaN	1550741.88835	NaN	1550742.8716663	1550743.38833678
6	20	0	0	90	36.1581920903955	36.241610738255	21	0.700046003926545	2	4	1	NaN	1	4	0.0205708797960764	0	1	NaN	152	3	26	2	120	220	320	NaN	520	0.0955815163906664	1	1	NaN	1550744.3218951	NaN	1550745.3053398	1550745.82186958
6	20	0	0	90	36.1581920903955	36.241610738255	17	0.566703907940537	2	3	5	NaN	1	4	0.0205708797960764	0	1	NaN	153	3	27	2	120	220	320	NaN	520	0.0466451165266335	2	0	NaN	1550746.7388563	NaN	1550747.7222466	1550748.23877808
6	20	0	0	90	36.1581920903955	36.241610738255	25	0.833388099912554	2	6	3	NaN	1	3	0.0205708797960764	0	1	NaN	154	3	28	2	120	220	320	NaN	520	0.0796549215447158	1	1	NaN	1550749.1057341	NaN	1550750.0891303	1550750.60567458
6	20	0	0	90	36.1581920903955	36.241610738255	8	0.266684191972017	2	11	5	NaN	2	3	0.0205708797960764	0	1	NaN	155	3	29	2	120	220	320	NaN	520	0.207475211238489	2	1	NaN	1550751.50597	NaN	1550752.4893622	1550753.00590539
6	20	0	0	90	36.1581920903955	36.241610738255	12	0.400026287958026	2	12	1	NaN	2	3	0.0205708797960764	0	1	NaN	156	3	30	2	120	220	320	NaN	520	0.225267868954688	2	1	NaN	1550754.2562294	NaN	1550755.2396508	1550755.75618023
6	20	0	0	90	36.1581920903955	36.241610738255	12	0.400026287958026	2	5	1	NaN	1	5	0.0205708797960764	0	1	NaN	157	3	31	2	120	220	320	NaN	520	0.251601568888873	2	0	NaN	1550756.7898188	NaN	1550757.7732193	1550758.28975863
6	20	0	0	90	36.1581920903955	36.241610738255	16	0.533368383944035	2	7	6	NaN	2	3	0.0205708797960764	0	1	NaN	158	3	32	2	120	220	320	NaN	520	0.573128821561113	1	0	NaN	1550759.3566719	NaN	1550760.3401519	1550760.85668178
6	20	0	0	90	36.1581920903955	36.241610738255	13	0.433361811954528	2	12	2	NaN	2	4	0.0205708797960764	0	1	NaN	159	3	33	2	120	220	320	NaN	520	0.0965356689412147	2	1	NaN	1550762.2570345	NaN	1550763.2404441	1550763.75696213
6	20	0	0	90	36.1581920903955	36.241610738255	24	0.800052575916052	2	2	1	NaN	1	4	0.0205708797960764	0	1	NaN	160	3	34	2	120	220	320	NaN	520	0.0104782690759748	1	1	NaN	1550764.6739541	NaN	1550765.6573529	1550766.17388003
6	20	0	0	90	36.1581920903955	36.241610738255	25	0.833388099912554	2	7	4	NaN	2	3	0.0205708797960764	0	1	NaN	161	3	35	2	120	220	320	NaN	520	0.105924068950117	2	1	NaN	1550767.0074882	NaN	1550767.9909243	1550768.50744043
6	20	0	0	90	36.1581920903955	36.241610738255	22	0.733381527923048	2	9	3	NaN	2	3	0.0205708797960764	0	1	NaN	162	3	36	2	120	220	320	NaN	520	0.376546521671116	1	0	NaN	1550769.4410442	NaN	1550770.4244607	1550770.94101268
6	20	0	0	90	36.1581920903955	36.241610738255	12	0.400026287958026	2	3	3	NaN	1	4	0.0205708797960764	0	1	NaN	163	3	37	2	120	220	320	NaN	520	0.483592269010842	2	0	NaN	1550772.3580507	NaN	1550773.3414267	1550773.85796043
6	20	0	0	90	36.1581920903955	36.241610738255	11	0.366690763961524	2	3	6	NaN	1	5	0.0205708797960764	0	1	NaN	164	3	38	2	120	220	320	NaN	520	0.432326621841639	2	0	NaN	1550775.2416088	NaN	1550776.2250483	1550776.74158018
6	20	0	0	90	36.1581920903955	36.241610738255	0	0	1	1	3	NaN	1	3	0.0205708797960764	0	1	NaN	165	3	39	2	110	210	310	NaN	510	0.0575215215794742	2	0	NaN	1550777.9919856	NaN	1550778.9752919	1550779.49184878
6	20	0	0	90	36.1581920903955	36.241610738255	19	0.633374955933541	2	1	2	NaN	1	5	0.0205708797960764	0	1	NaN	166	3	40	2	120	220	320	NaN	520	0.346665721619502	2	0	NaN	1550780.358808	NaN	1550781.3422075	1550781.85874208
6	20	0	0	90	36.1581920903955	36.241610738255	13	0.433361811954528	2	10	2	NaN	2	4	0.0205708797960764	0	1	NaN	167	3	41	2	120	220	320	NaN	520	0.103925021598116	1	0	NaN	1550783.0256071	NaN	1550784.0091353	1550784.52567948
6	20	0	0	90	36.1581920903955	36.241610738255	13	0.433361811954528	2	9	3	NaN	2	3	0.0205708797960764	0	1	NaN	168	3	42	2	120	220	320	NaN	520	0.199054721742868	1	0	NaN	1550785.4426162	NaN	1550786.4260443	1550786.94257648
6	20	0	0	90	36.1581920903955	36.241610738255	0	0	1	12	4	NaN	2	3	0.0205708797960764	0	1	NaN	169	3	43	2	110	210	310	NaN	510	0.122335769236088	1	0	NaN	1550787.959593	NaN	1550788.9429549	1550789.45948453
6	20	0	0	90	36.1581920903955	36.241610738255	24	0.800052575916052	2	5	1	NaN	1	5	0.0205708797960764	0	1	NaN	170	3	44	2	120	220	320	NaN	520	0.271863621659577	1	1	NaN	1550790.4097968	NaN	1550791.3931924	1550791.90973178
6	20	0	0	90	36.1581920903955	36.241610738255	12	0.400026287958026	2	11	1	NaN	2	3	0.0205708797960764	0	1	NaN	171	3	45	2	120	220	320	NaN	520	0.263634721748531	1	0	NaN	1550793.009955	NaN	1550793.9934642	1550794.50999558
6	20	0	0	90	36.1581920903955	36.241610738255	18	0.600039431937039	2	10	3	NaN	2	4	0.0205708797960764	0	1	NaN	172	3	46	2	120	220	320	NaN	520	0.12782003195025	2	1	NaN	1550795.5934805	NaN	1550796.5770185	1550797.09357387
6	20	0	0	90	36.1581920903955	36.241610738255	10	0.333355239965022	2	7	1	NaN	2	3	0.0205708797960764	0	1	NaN	173	3	47	2	120	220	320	NaN	520	0.261711068917066	1	0	NaN	1550798.0438464	NaN	1550799.0272771	1550799.54381453
6	20	0	0	90	36.1581920903955	36.241610738255	13	0.433361811954528	2	4	6	NaN	1	5	0.0205708797960764	0	1	NaN	174	3	48	2	120	220	320	NaN	520	0.158637179294601	1	1	NaN	1550800.6107962	NaN	1550801.5941941	1550802.11073122
6	20	0	0	90	36.1581920903955	36.241610738255	20	0.666710479930043	2	2	3	NaN	1	5	0.0205708797960764	0	1	NaN	175	3	49	2	120	220	320	NaN	520	0.067886769073084	1	1	NaN	1550803.0777176	NaN	1550804.0611038	1550804.57764003
6	20	0	0	90	36.1581920903955	36.241610738255	6	0.200013143979013	2	12	6	NaN	2	4	0.0205708797960764	0	1	NaN	176	3	50	2	120	220	320	NaN	520	0.260636421618983	1	0	NaN	1550805.4612787	NaN	1550806.4445705	1550806.96120688
6	20	0	0	90	36.1581920903955	36.241610738255	18	0.600039431937039	2	12	3	NaN	2	5	0.0205708797960764	0	1	NaN	177	3	51	2	120	220	320	NaN	520	0.100301916478202	1	0	NaN	1550808.2615748	NaN	1550809.2449426	1550809.76148338
6	20	0	0	90	36.1581920903955	36.241610738255	7	0.233348667975515	2	3	4	NaN	1	5	0.0205708797960764	0	1	NaN	178	3	52	2	120	220	320	NaN	520	0.0673239638563246	2	0	NaN	1550810.6784832	NaN	1550811.6618663	1550812.17838274
6	20	0	0	90	36.1581920903955	36.241610738255	0	0	1	5	5	NaN	1	4	0.0205708797960764	0	1	NaN	179	3	53	2	110	210	310	NaN	510	0.123456069268286	1	1	NaN	1550813.0618995	NaN	1550814.0454134	1550814.56194833
6	20	0	0	90	36.1581920903955	36.241610738255	21	0.700046003926545	2	8	1	NaN	2	4	0.0205708797960764	0	1	NaN	180	3	54	2	120	220	320	NaN	520	0.010334842139855	2	1	NaN	1550815.5121149	NaN	1550816.4956404	1550817.01220916
6	20	0	0	90	36.1581920903955	36.241610738255	16	0.533368383944035	2	3	2	NaN	1	4	0.0205708797960764	0	1	NaN	181	3	55	2	120	220	320	NaN	520	0.0103914216160774	1	1	NaN	1550817.8458574	NaN	1550818.8292618	1550819.34576288
6	20	0	0	90	36.1581920903955	36.241610738255	20	0.666710479930043	2	7	3	NaN	2	5	0.0205708797960764	0	1	NaN	182	3	56	2	120	220	320	NaN	520	0.0622407689224929	2	1	NaN	1550820.1793758	NaN	1550821.1627669	1550821.67932793
6	20	0	0	90	36.1581920903955	36.241610738255	25	0.833388099912554	2	6	6	NaN	1	5	0.0205708797960764	0	1	NaN	183	3	57	2	120	220	320	NaN	520	0.158774968935177	1	1	NaN	1550822.5629441	NaN	1550823.5463727	1550824.06288153
6	20	0	0	90	36.1581920903955	36.241610738255	23	0.76671705191955	2	10	6	NaN	2	3	0.0205708797960764	0	1	NaN	184	3	58	2	120	220	320	NaN	520	0.267831221688539	2	1	NaN	1550825.0299647	NaN	1550826.0132687	1550826.52979878
6	20	0	0	90	36.1581920903955	36.241610738255	18	0.600039431937039	2	9	2	NaN	2	4	0.0205708797960764	0	1	NaN	185	3	59	2	120	220	320	NaN	520	0.132252969080582	2	1	NaN	1550827.6134201	NaN	1550828.5968426	1550829.11337913
6	20	0	0	90	36.1581920903955	36.241610738255	24	0.800052575916052	2	6	5	NaN	1	5	0.0205708797960764	0	1	NaN	186	3	60	2	120	220	320	NaN	520	0.11395652173087	1	1	NaN	1550830.0637042	NaN	1550831.0471107	1550831.56362108
6	20	0	0	90	36.1581920903955	36.241610738255	18	0.600039431937039	2	6	3	NaN	1	4	0.0205708797960764	0	1	NaN	187	3	61	2	120	220	320	NaN	520	0.272363569121808	1	1	NaN	1550832.4972653	NaN	1550833.4806584	1550833.99718773
6	20	0	0	90	36.1581920903955	36.241610738255	15	0.500032859947532	2	4	2	NaN	1	3	0.0205708797960764	0	1	NaN	188	3	62	2	120	220	320	NaN	520	0.520259221782908	1	1	NaN	1550835.0974063	NaN	1550836.0809214	1550836.59745048
6	20	0	0	90	36.1581920903955	36.241610738255	6	0.200013143979013	2	6	1	NaN	1	5	0.0205708797960764	0	1	NaN	189	3	63	2	120	220	320	NaN	520	0.414263469167054	1	1	NaN	1550837.947808	NaN	1550838.9311932	1550839.44773183
6	20	0	0	90	36.1581920903955	36.241610738255	23	0.76671705191955	2	8	2	NaN	2	5	0.0205708797960764	0	1	NaN	190	4	1	2	120	220	320	NaN	520	0.121140968985856	2	1	NaN	1550843.6648704	NaN	1550844.6484176	1550845.16495273
6	20	0	0	90	36.1581920903955	36.241610738255	15	0.500032859947532	2	10	3	NaN	2	4	0.0205708797960764	0	1	NaN	191	4	2	2	120	220	320	NaN	520	0.19082494196482	2	1	NaN	1550846.1152581	NaN	1550847.0986461	1550847.61520906
6	20	0	0	90	36.1581920903955	36.241610738255	24	0.800052575916052	2	5	6	NaN	1	3	0.0205708797960764	0	1	NaN	192	4	3	2	120	220	320	NaN	520	0.394110116409138	1	1	NaN	1550848.6154951	NaN	1550849.5989428	1550850.11544008
6	20	0	0	90	36.1581920903955	36.241610738255	6	0.200013143979013	2	4	3	NaN	1	3	0.0205708797960764	0	1	NaN	193	4	4	2	120	220	320	NaN	520	0.541252321796492	2	0	NaN	1550851.3324352	NaN	1550852.3158546	1550852.83238088
6	20	0	0	90	36.1581920903955	36.241610738255	8	0.266684191972017	2	7	3	NaN	2	4	0.0205708797960764	0	1	NaN	194	4	5	2	120	220	320	NaN	520	0.274056221591309	2	1	NaN	1550854.1993922	NaN	1550855.182815	1550855.69932878
6	20	0	0	90	36.1581920903955	36.241610738255	19	0.633374955933541	2	10	1	NaN	2	4	0.0205708797960764	0	1	NaN	195	4	6	2	120	220	320	NaN	520	0.442365121562034	2	1	NaN	1550856.7996356	NaN	1550857.7830649	1550858.29957818
6	20	0	0	90	36.1581920903955	36.241610738255	16	0.533368383944035	2	5	1	NaN	1	4	0.0205708797960764	0	1	NaN	196	4	7	2	120	220	320	NaN	520	0.0589523217640817	2	0	NaN	1550859.5666136	NaN	1550860.5499629	1550861.06652118
6	20	0	0	90	36.1581920903955	36.241610738255	22	0.733381527923048	2	8	2	NaN	2	4	0.0205708797960764	0	1	NaN	197	4	8	2	120	220	320	NaN	520	0.219968621851876	2	1	NaN	1550861.9501345	NaN	1550862.9335571	1550863.45008578
6	20	0	0	90	36.1581920903955	36.241610738255	18	0.600039431937039	2	3	2	NaN	1	5	0.0205708797960764	0	1	NaN	198	4	9	2	120	220	320	NaN	520	0.0941862217150629	1	1	NaN	1550864.4837447	NaN	1550865.4671234	1550865.98367358
6	20	0	0	90	36.1581920903955	36.241610738255	16	0.533368383944035	2	9	4	NaN	2	5	0.0205708797960764	0	1	NaN	199	4	10	2	120	220	320	NaN	520	0.32558082183823	1	0	NaN	1550866.9006292	NaN	1550867.8840261	1550868.40057978
6	20	0	0	90	36.1581920903955	36.241610738255	21	0.700046003926545	2	1	4	NaN	1	5	0.0205708797960764	0	1	NaN	200	4	11	2	120	220	320	NaN	520	0.266816969029605	1	1	NaN	1550869.5508848	NaN	1550870.5342929	1550871.05082883
6	20	0	0	90	36.1581920903955	36.241610738255	21	0.700046003926545	2	10	2	NaN	2	3	0.0205708797960764	0	1	NaN	201	4	12	2	120	220	320	NaN	520	0.314921721816063	1	0	NaN	1550872.1344932	NaN	1550873.1178828	1550873.63442568
6	20	0	0	90	36.1581920903955	36.241610738255	14	0.46669733595103	2	7	5	NaN	2	5	0.0205708797960764	0	1	NaN	202	4	13	2	120	220	320	NaN	520	0.281841637101024	2	1	NaN	1550874.7680499	NaN	1550875.7514869	1550876.26801896
6	20	0	0	90	36.1581920903955	36.241610738255	16	0.533368383944035	2	6	5	NaN	1	5	0.0205708797960764	0	1	NaN	203	4	14	2	120	220	320	NaN	520	0.249732069205493	1	1	NaN	1550877.3683004	NaN	1550878.3517197	1550878.86826223
6	20	0	0	90	36.1581920903955	36.241610738255	0	0	1	3	6	NaN	1	3	0.0205708797960764	0	1	NaN	204	4	15	2	110	210	310	NaN	510	0.426803163718432	2	0	NaN	1550879.9350531	NaN	1550880.9186389	1550881.43518684
6	20	0	0	90	36.1581920903955	36.241610738255	15	0.500032859947532	2	3	2	NaN	1	4	0.0205708797960764	0	1	NaN	205	4	16	2	120	220	320	NaN	520	0.452082621864974	2	0	NaN	1550882.6855323	NaN	1550883.6689074	1550884.18545328
6	20	0	0	90	36.1581920903955	36.241610738255	10	0.333355239965022	2	2	2	NaN	1	3	0.0205708797960764	0	1	NaN	206	4	17	2	120	220	320	NaN	520	0.300760468933731	2	0	NaN	1550886.4691798	NaN	1550887.4526208	1550887.96915563
6	20	0	0	90	36.1581920903955	36.241610738255	15	0.500032859947532	2	1	2	NaN	1	3	0.0205708797960764	0	1	NaN	207	4	18	2	120	220	320	NaN	520	0.3709032216575	2	0	NaN	1550889.1027886	NaN	1550890.0862177	1550890.60275408
6	20	0	0	90	36.1581920903955	36.241610738255	12	0.400026287958026	2	6	1	NaN	1	3	0.0205708797960764	0	1	NaN	208	4	19	2	120	220	320	NaN	520	0.23163847415708	2	0	NaN	1550891.7863984	NaN	1550892.7698628	1550893.28635513
6	20	0	0	90	36.1581920903955	36.241610738255	10	0.333355239965022	2	11	6	NaN	2	4	0.0205708797960764	0	1	NaN	209	4	20	2	120	220	320	NaN	520	0.296978121856228	2	1	NaN	1550894.3366691	NaN	1550895.3200549	1550895.83659528
6	20	0	0	90	36.1581920903955	36.241610738255	15	0.500032859947532	2	11	3	NaN	2	5	0.0205708797960764	0	1	NaN	210	4	21	2	120	220	320	NaN	520	0.23231901647523	2	1	NaN	1550896.9535701	NaN	1550897.9369874	1550898.45352648
6	20	0	0	90	36.1581920903955	36.241610738255	6	0.200013143979013	2	5	3	NaN	1	4	0.0205708797960764	0	1	NaN	211	4	22	2	120	220	320	NaN	520	0.24199336906895	2	0	NaN	1550899.5038577	NaN	1550900.4872208	1550901.00377593
6	20	0	0	90	36.1581920903955	36.241610738255	18	0.600039431937039	2	11	3	NaN	2	5	0.0205708797960764	0	1	NaN	212	4	23	2	120	220	320	NaN	520	0.234755521640182	2	1	NaN	1550902.0706095	NaN	1550903.0541556	1550903.57069648
6	20	0	0	90	36.1581920903955	36.241610738255	19	0.633374955933541	2	2	3	NaN	1	4	0.0205708797960764	0	1	NaN	213	4	24	2	120	220	320	NaN	520	0.0104052689857781	2	0	NaN	1550904.6210829	NaN	1550905.6043924	1550906.12094513
6	20	0	0	90	36.1581920903955	36.241610738255	16	0.533368383944035	2	11	2	NaN	2	5	0.0205708797960764	0	1	NaN	214	4	25	2	120	220	320	NaN	520	0.295510916505009	2	1	NaN	1550906.9544458	NaN	1550907.9379851	1550908.45450298
6	20	0	0	90	36.1581920903955	36.241610738255	24	0.800052575916052	2	7	1	NaN	2	5	0.0205708797960764	0	1	NaN	215	4	26	2	120	220	320	NaN	520	0.47081882157363	2	1	NaN	1550909.5714649	NaN	1550910.5548905	1550911.07142498
6	20	0	0	90	36.1581920903955	36.241610738255	21	0.700046003926545	2	12	6	NaN	2	4	0.0205708797960764	0	1	NaN	216	4	27	2	120	220	320	NaN	520	0.188298463821411	2	1	NaN	1550912.4217628	NaN	1550913.4051702	1550913.92169964
6	20	0	0	90	36.1581920903955	36.241610738255	15	0.500032859947532	2	6	6	NaN	1	3	0.0205708797960764	0	1	NaN	217	4	28	2	120	220	320	NaN	520	0.175830321619287	1	1	NaN	1550914.9220044	NaN	1550915.9054124	1550916.42195408
6	20	0	0	90	36.1581920903955	36.241610738255	7	0.233348667975515	2	1	2	NaN	1	3	0.0205708797960764	0	1	NaN	218	4	29	2	120	220	320	NaN	520	0.380299268988892	2	0	NaN	1550917.4055879	NaN	1550918.3889689	1550918.90553353
6	20	0	0	90	36.1581920903955	36.241610738255	18	0.600039431937039	2	4	5	NaN	1	3	0.0205708797960764	0	1	NaN	219	4	30	2	120	220	320	NaN	520	0.327694069128484	2	0	NaN	1550920.1057348	NaN	1550921.0892716	1550921.60579063
6	20	0	0	90	36.1581920903955	36.241610738255	25	0.833388099912554	2	3	3	NaN	1	4	0.0205708797960764	0	1	NaN	220	4	31	2	120	220	320	NaN	520	1.01605782145634	1	1	NaN	1550924.0895289	NaN	1550925.0729775	1550925.58952588
6	20	0	0	90	36.1581920903955	36.241610738255	9	0.30001971596852	2	2	6	NaN	1	3	0.0205708797960764	0	1	NaN	221	4	32	2	120	220	320	NaN	520	0.162532521644607	2	0	NaN	1550927.4232501	NaN	1550928.4066425	1550928.92317588
6	20	0	0	90	36.1581920903955	36.241610738255	10	0.333355239965022	2	4	5	NaN	1	5	0.0205708797960764	0	1	NaN	222	4	33	2	120	220	320	NaN	520	0.339338168967515	2	0	NaN	1550931.2069143	NaN	1550932.1903486	1550932.70688173
6	20	0	0	90	36.1581920903955	36.241610738255	12	0.400026287958026	2	6	5	NaN	1	4	0.0205708797960764	0	1	NaN	223	4	34	2	120	220	320	NaN	520	0.208034021547064	1	1	NaN	1550933.8738473	NaN	1550934.85728	1550935.37380838
6	20	0	0	90	36.1581920903955	36.241610738255	19	0.633374955933541	2	9	1	NaN	2	4	0.0205708797960764	0	1	NaN	224	4	35	2	120	220	320	NaN	520	0.47486487403512	2	1	NaN	1550936.3907594	NaN	1550937.374183	1550937.89072903
6	20	0	0	90	36.1581920903955	36.241610738255	13	0.433361811954528	2	7	5	NaN	2	4	0.0205708797960764	0	1	NaN	225	4	36	2	120	220	320	NaN	520	0.193842626875266	1	0	NaN	1550940.8078481	NaN	1550941.7912681	1550942.30782337
6	20	0	0	90	36.1581920903955	36.241610738255	19	0.633374955933541	2	12	1	NaN	2	5	0.0205708797960764	0	1	NaN	226	4	37	2	120	220	320	NaN	520	0.268767369212583	1	0	NaN	1550943.5414787	NaN	1550944.5248823	1550945.04141823
6	20	0	0	90	36.1581920903955	36.241610738255	8	0.266684191972017	2	9	2	NaN	2	5	0.0205708797960764	0	1	NaN	227	4	38	2	120	220	320	NaN	520	0.0928253165911883	2	1	NaN	1550946.125066	NaN	1550947.1084636	1550947.62501628
6	20	0	0	90	36.1581920903955	36.241610738255	14	0.46669733595103	2	2	3	NaN	1	3	0.0205708797960764	0	1	NaN	228	4	39	2	120	220	320	NaN	520	0.155630021588877	2	0	NaN	1550948.5419772	NaN	1550949.5253905	1550950.04192298
6	20	0	0	90	36.1581920903955	36.241610738255	16	0.533368383944035	2	12	6	NaN	2	5	0.0205708797960764	0	1	NaN	229	4	40	2	120	220	320	NaN	520	0.137008116347715	2	1	NaN	1550951.0088921	NaN	1550951.9922424	1550952.50882338
6	20	0	0	90	36.1581920903955	36.241610738255	11	0.366690763961524	2	6	6	NaN	1	5	0.0205708797960764	0	1	NaN	230	4	41	2	120	220	320	NaN	520	0.0104070689994842	1	1	NaN	1550953.4591175	NaN	1550954.4425787	1550954.95905763
6	20	0	0	90	36.1581920903955	36.241610738255	12	0.400026287958026	2	8	2	NaN	2	3	0.0205708797960764	0	1	NaN	231	4	42	2	120	220	320	NaN	520	0.41704261652194	2	1	NaN	1550955.7927109	NaN	1550956.7760801	1550957.29263218
6	20	0	0	90	36.1581920903955	36.241610738255	25	0.833388099912554	2	4	1	NaN	1	4	0.0205708797960764	0	1	NaN	232	4	43	2	120	220	320	NaN	520	0.203528268961236	1	1	NaN	1550958.5262618	NaN	1550959.509719	1550960.02623563
6	20	0	0	90	36.1581920903955	36.241610738255	18	0.600039431937039	2	5	4	NaN	1	5	0.0205708797960764	0	1	NaN	233	4	44	2	120	220	320	NaN	520	0.478939599823207	2	0	NaN	1550961.0432305	NaN	1550962.0266129	1550962.5431532
6	20	0	0	90	36.1581920903955	36.241610738255	7	0.233348667975515	2	10	3	NaN	2	3	0.0205708797960764	0	1	NaN	234	4	45	2	120	220	320	NaN	520	0.230221321806312	1	0	NaN	1550963.8434088	NaN	1550964.8268829	1550965.34342188
6	20	0	0	90	36.1581920903955	36.241610738255	18	0.600039431937039	2	7	2	NaN	2	5	0.0205708797960764	0	1	NaN	235	4	46	2	120	220	320	NaN	520	0.64843782177195	2	1	NaN	1550966.3937139	NaN	1550967.3770989	1550967.89367118
6	20	0	0	90	36.1581920903955	36.241610738255	22	0.733381527923048	2	7	3	NaN	2	3	0.0205708797960764	0	1	NaN	236	4	47	2	120	220	320	NaN	520	0.657103664008901	2	1	NaN	1550969.3606893	NaN	1550970.3440799	1550970.86062744
6	20	0	0	90	36.1581920903955	36.241610738255	8	0.266684191972017	2	1	1	NaN	1	4	0.0205708797960764	0	1	NaN	237	4	48	2	120	220	320	NaN	520	0.257545663742349	2	0	NaN	1550972.344332	NaN	1550973.3277242	1550973.84425174
6	20	0	0	90	36.1581920903955	36.241610738255	13	0.433361811954528	2	2	3	NaN	1	4	0.0205708797960764	0	1	NaN	238	4	49	2	120	220	320	NaN	520	0.274060973897576	2	0	NaN	1550974.9279481	NaN	1550975.9113274	1550976.42784313
6	20	0	0	90	36.1581920903955	36.241610738255	20	0.666710479930043	2	12	3	NaN	2	4	0.0205708797960764	0	1	NaN	239	4	50	2	120	220	320	NaN	520	0.266772921662778	2	1	NaN	1550977.5113441	NaN	1550978.4948961	1550979.01142548
6	20	0	0	90	36.1581920903955	36.241610738255	19	0.633374955933541	2	11	5	NaN	2	5	0.0205708797960764	0	1	NaN	240	4	51	2	120	220	320	NaN	520	0.210775621701032	2	1	NaN	1550980.0950797	NaN	1550981.0785139	1550981.59501828
6	20	0	0	90	36.1581920903955	36.241610738255	19	0.633374955933541	2	11	4	NaN	2	5	0.0205708797960764	0	1	NaN	241	4	52	2	120	220	320	NaN	520	0.285339421592653	2	1	NaN	1550982.6285473	NaN	1550983.6120593	1550984.12861738
6	20	0	0	90	36.1581920903955	36.241610738255	21	0.700046003926545	2	3	2	NaN	1	3	0.0205708797960764	0	1	NaN	242	4	53	2	120	220	320	NaN	520	0.125013179378584	1	1	NaN	1550985.2289172	NaN	1550986.2123171	1550986.72885372
6	20	0	0	90	36.1581920903955	36.241610738255	16	0.533368383944035	2	6	4	NaN	1	3	0.0205708797960764	0	1	NaN	243	4	54	2	120	220	320	NaN	520	0.362618716433644	1	1	NaN	1550987.679163	NaN	1550988.6626217	1550989.17909718
6	20	0	0	90	36.1581920903955	36.241610738255	25	0.833388099912554	2	9	5	NaN	2	3	0.0205708797960764	0	1	NaN	244	4	55	2	120	220	320	NaN	520	0.383127669105306	2	1	NaN	1550990.3627378	NaN	1550991.3461521	1550991.86268893
6	20	0	0	90	36.1581920903955	36.241610738255	0	0	1	7	2	NaN	2	5	0.0205708797960764	0	1	NaN	245	4	56	2	110	210	310	NaN	510	0.0182652166113257	2	1	NaN	1550993.6797117	NaN	1550994.6631557	1550995.17967678
6	20	0	0	90	36.1581920903955	36.241610738255	8	0.266684191972017	2	4	6	NaN	1	5	0.0205708797960764	0	1	NaN	246	4	57	2	120	220	320	NaN	520	0.0925773216877133	1	1	NaN	1550996.2132801	NaN	1550997.1966983	1550997.71326768
6	20	0	0	90	36.1581920903955	36.241610738255	23	0.76671705191955	2	12	4	NaN	2	3	0.0205708797960764	0	1	NaN	247	4	58	2	120	220	320	NaN	520	0.315620137145743	2	1	NaN	1550998.6301012	NaN	1550999.6136175	1551000.13017406
6	20	0	0	90	36.1581920903955	36.241610738255	10	0.333355239965022	2	10	3	NaN	2	4	0.0205708797960764	0	1	NaN	248	4	59	2	120	220	320	NaN	520	0.497961631743237	2	1	NaN	1551001.2638627	NaN	1551002.2471928	1551002.76375587
6	20	0	0	90	36.1581920903955	36.241610738255	12	0.400026287958026	2	8	3	NaN	2	3	0.0205708797960764	0	1	NaN	249	4	60	2	120	220	320	NaN	520	0.415710316505283	2	1	NaN	1551004.3139948	NaN	1551005.2975084	1551005.81405608
6	20	0	0	90	36.1581920903955	36.241610738255	12	0.400026287958026	2	2	2	NaN	1	3	0.0205708797960764	0	1	NaN	250	4	61	2	120	220	320	NaN	520	0.234205221524462	2	0	NaN	1551007.0477332	NaN	1551008.0311217	1551008.54766168
6	20	0	0	90	36.1581920903955	36.241610738255	7	0.233348667975515	2	5	2	NaN	1	4	0.0205708797960764	0	1	NaN	251	4	62	2	120	220	320	NaN	520	0.987833221442997	2	0	NaN	1551009.5978617	NaN	1551010.5813977	1551011.09790568
6	20	0	0	90	36.1581920903955	36.241610738255	11	0.366690763961524	2	10	1	NaN	2	4	0.0205708797960764	0	1	NaN	252	4	63	2	120	220	320	NaN	520	1.53660822170787	1	0	NaN	1551014.081708	NaN	1551015.0651434	1551015.58168558
6	20	0	0	90	36.1581920903955	36.241610738255	17	0.566703907940537	2	12	2	NaN	2	5	0.0205708797960764	0	1	NaN	253	5	1	2	120	220	320	NaN	520	0.318612563889474	2	1	NaN	1551040.6677	NaN	1551041.6510958	1551042.16762134
6	20	0	0	90	36.1581920903955	36.241610738255	7	0.233348667975515	2	1	6	NaN	1	4	0.0205708797960764	0	1	NaN	254	5	2	2	120	220	320	NaN	520	0.307923521846533	2	0	NaN	1551043.3179409	NaN	1551044.3013328	1551044.81788468
6	20	0	0	90	36.1581920903955	36.241610738255	11	0.366690763961524	2	8	4	NaN	2	3	0.0205708797960764	0	1	NaN	255	5	3	2	120	220	320	NaN	520	0.114362721797079	2	1	NaN	1551045.9515213	NaN	1551046.9349165	1551047.45147328
6	20	0	0	90	36.1581920903955	36.241610738255	16	0.533368383944035	2	1	5	NaN	1	4	0.0205708797960764	0	1	NaN	256	5	4	2	120	220	320	NaN	520	0.0967624164186418	2	0	NaN	1551048.3849696	NaN	1551049.3685032	1551049.88504508
6	20	0	0	90	36.1581920903955	36.241610738255	22	0.733381527923048	2	4	5	NaN	1	3	0.0205708797960764	0	1	NaN	257	5	5	2	120	220	320	NaN	520	0.0878594792447984	1	1	NaN	1551050.8018832	NaN	1551051.7854403	1551052.30195702
6	20	0	0	90	36.1581920903955	36.241610738255	7	0.233348667975515	2	12	5	NaN	2	3	0.0205708797960764	0	1	NaN	258	5	6	2	120	220	320	NaN	520	0.175628621829674	1	0	NaN	1551053.2022401	NaN	1551054.1856843	1551054.70219418
6	20	0	0	90	36.1581920903955	36.241610738255	23	0.76671705191955	2	10	4	NaN	2	5	0.0205708797960764	0	1	NaN	259	5	7	2	120	220	320	NaN	520	0.228500821860507	2	1	NaN	1551055.6857972	NaN	1551056.6692279	1551057.18577078
6	20	0	0	90	36.1581920903955	36.241610738255	9	0.30001971596852	2	7	1	NaN	2	3	0.0205708797960764	0	1	NaN	260	5	8	2	120	220	320	NaN	520	0.141986621543765	2	1	NaN	1551058.2360571	NaN	1551059.2194537	1551059.73601288
6	20	0	0	90	36.1581920903955	36.241610738255	20	0.666710479930043	2	1	6	NaN	1	3	0.0205708797960764	0	1	NaN	261	5	9	2	120	220	320	NaN	520	0.0104062689933926	1	1	NaN	1551060.702991	NaN	1551061.6863628	1551062.20291913
6	20	0	0	90	36.1581920903955	36.241610738255	17	0.566703907940537	2	2	4	NaN	1	5	0.0205708797960764	0	1	NaN	262	5	10	2	120	220	320	NaN	520	0.086124621797353	2	0	NaN	1551063.0198886	NaN	1551064.0032846	1551064.51981568
6	20	0	0	90	36.1581920903955	36.241610738255	17	0.566703907940537	2	1	3	NaN	1	3	0.0205708797960764	0	1	NaN	263	5	11	2	120	220	320	NaN	520	0.0380021741148084	2	0	NaN	1551065.4199993	NaN	1551066.4035305	1551066.92006063
6	20	0	0	90	36.1581920903955	36.241610738255	16	0.533368383944035	2	2	1	NaN	1	3	0.0205708797960764	0	1	NaN	264	5	12	2	120	220	320	NaN	520	0.0104653215967119	1	1	NaN	1551067.7869932	NaN	1551068.7703835	1551069.28695968
6	20	0	0	90	36.1581920903955	36.241610738255	15	0.500032859947532	2	10	4	NaN	2	3	0.0205708797960764	0	1	NaN	265	5	13	2	120	220	320	NaN	520	0.010498916497454	2	1	NaN	1551070.120548	NaN	1551071.1039608	1551071.62050828
6	20	0	0	90	36.1581920903955	36.241610738255	14	0.46669733595103	2	7	4	NaN	2	3	0.0205708797960764	0	1	NaN	266	5	14	2	120	220	320	NaN	520	0.0102829420939088	1	0	NaN	1551072.4540168	NaN	1551073.4375005	1551073.95407416
6	20	0	0	90	36.1581920903955	36.241610738255	7	0.233348667975515	2	11	6	NaN	2	4	0.0205708797960764	0	1	NaN	267	5	15	2	120	220	320	NaN	520	0.0390121689997613	2	1	NaN	1551074.7710296	NaN	1551075.7544234	1551076.27096753
6	20	0	0	90	36.1581920903955	36.241610738255	23	0.76671705191955	2	9	2	NaN	2	3	0.0205708797960764	0	1	NaN	268	5	16	2	120	220	320	NaN	520	0.264387616422027	2	1	NaN	1551077.1379385	NaN	1551078.1213252	1551078.63786118
6	20	0	0	90	36.1581920903955	36.241610738255	25	0.833388099912554	2	1	5	NaN	1	4	0.0205708797960764	0	1	NaN	269	5	17	2	120	220	320	NaN	520	0.224933021701872	2	0	NaN	1551079.7215125	NaN	1551080.7049439	1551081.22147098
6	20	0	0	90	36.1581920903955	36.241610738255	25	0.833388099912554	2	3	3	NaN	1	4	0.0205708797960764	0	1	NaN	270	5	18	2	120	220	320	NaN	520	0.282052868977189	2	0	NaN	1551082.2717878	NaN	1551083.2551726	1551083.77170173
6	20	0	0	90	36.1581920903955	36.241610738255	15	0.500032859947532	2	2	5	NaN	1	4	0.0205708797960764	0	1	NaN	271	5	19	2	120	220	320	NaN	520	0.290093721821904	2	0	NaN	1551084.8720073	NaN	1551085.8554642	1551086.37196498
6	20	0	0	90	36.1581920903955	36.241610738255	9	0.30001971596852	2	3	2	NaN	1	4	0.0205708797960764	0	1	NaN	272	5	20	2	120	220	320	NaN	520	0.193421121686697	2	0	NaN	1551087.4889782	NaN	1551088.4723241	1551088.98888248
6	20	0	0	90	36.1581920903955	36.241610738255	21	0.700046003926545	2	6	6	NaN	1	3	0.0205708797960764	0	1	NaN	273	5	21	2	120	220	320	NaN	520	0.0848798740189523	1	1	NaN	1551089.9892002	NaN	1551090.9725603	1551091.48912903
6	20	0	0	90	36.1581920903955	36.241610738255	21	0.700046003926545	2	2	3	NaN	1	5	0.0205708797960764	0	1	NaN	274	5	22	2	120	220	320	NaN	520	0.1648688421119	1	1	NaN	1551092.3894269	NaN	1551093.3728297	1551093.88937656
6	20	0	0	90	36.1581920903955	36.241610738255	16	0.533368383944035	2	8	4	NaN	2	5	0.0205708797960764	0	1	NaN	275	5	23	2	120	220	320	NaN	520	0.0104485689662397	1	0	NaN	1551094.8731115	NaN	1551095.8563858	1551096.37293733
6	20	0	0	90	36.1581920903955	36.241610738255	9	0.30001971596852	2	8	3	NaN	2	3	0.0205708797960764	0	1	NaN	276	5	24	2	120	220	320	NaN	520	0.0439395739231259	2	1	NaN	1551097.1899051	NaN	1551098.1732823	1551098.68985043
6	20	0	0	90	36.1581920903955	36.241610738255	21	0.700046003926545	2	4	1	NaN	1	5	0.0205708797960764	0	1	NaN	277	5	25	2	120	220	320	NaN	520	0.525441569043323	1	1	NaN	1551099.5568098	NaN	1551100.5401896	1551101.05673953
6	20	0	0	90	36.1581920903955	36.241610738255	11	0.366690763961524	2	5	4	NaN	1	3	0.0205708797960764	0	1	NaN	278	5	26	2	120	220	320	NaN	520	0.362944521708414	1	1	NaN	1551102.4070661	NaN	1551103.3904695	1551103.90701928
6	20	0	0	90	36.1581920903955	36.241610738255	17	0.566703907940537	2	11	5	NaN	2	5	0.0205708797960764	0	1	NaN	279	5	27	2	120	220	320	NaN	520	0.271880869055167	1	0	NaN	1551105.090685	NaN	1551106.074076	1551106.59060583
6	20	0	0	90	36.1581920903955	36.241610738255	10	0.333355239965022	2	4	1	NaN	1	4	0.0205708797960764	0	1	NaN	280	5	28	2	120	220	320	NaN	520	0.847289963858202	2	0	NaN	1551107.690936	NaN	1551108.6743313	1551109.19086734
6	20	0	0	90	36.1581920903955	36.241610738255	22	0.733381527923048	2	2	6	NaN	1	3	0.0205708797960764	0	1	NaN	281	5	29	2	120	220	320	NaN	520	0.624050869140774	2	0	NaN	1551110.8579326	NaN	1551111.8412922	1551112.35783863
6	20	0	0	90	36.1581920903955	36.241610738255	11	0.366690763961524	2	9	1	NaN	2	3	0.0205708797960764	0	1	NaN	282	5	30	2	120	220	320	NaN	520	0.290889921830967	2	1	NaN	1551113.7915108	NaN	1551114.7749181	1551115.29146908
6	20	0	0	90	36.1581920903955	36.241610738255	20	0.666710479930043	2	10	2	NaN	2	3	0.0205708797960764	0	1	NaN	283	5	31	2	120	220	320	NaN	520	0.0105256112292409	2	1	NaN	1551116.7918595	NaN	1551117.7752221	1551118.29176339
6	20	0	0	90	36.1581920903955	36.241610738255	24	0.800052575916052	2	6	3	NaN	1	5	0.0205708797960764	0	1	NaN	284	5	32	2	120	220	320	NaN	520	0.388713121647015	1	1	NaN	1551119.1254551	NaN	1551120.1087295	1551120.62532218
6	20	0	0	90	36.1581920903955	36.241610738255	23	0.76671705191955	2	4	6	NaN	1	3	0.0205708797960764	0	1	NaN	285	5	33	2	120	220	320	NaN	520	1.16865911637433	2	0	NaN	1551121.8255237	NaN	1551122.8090532	1551123.32558088
6	20	0	0	90	36.1581920903955	36.241610738255	20	0.666710479930043	2	10	5	NaN	2	3	0.0205708797960764	0	1	NaN	286	5	34	2	120	220	320	NaN	520	0.316544868983328	2	1	NaN	1551125.3093135	NaN	1551126.2927299	1551126.80925593
6	20	0	0	90	36.1581920903955	36.241610738255	17	0.566703907940537	2	7	3	NaN	2	5	0.0205708797960764	0	1	NaN	287	5	35	2	120	220	320	NaN	520	0.235527869081125	2	1	NaN	1551127.9429678	NaN	1551128.9263191	1551129.44286193
6	20	0	0	90	36.1581920903955	36.241610738255	10	0.333355239965022	2	6	2	NaN	1	3	0.0205708797960764	0	1	NaN	288	5	36	2	120	220	320	NaN	520	0.516996221616864	2	0	NaN	1551130.4931489	NaN	1551131.4765434	1551131.99311078
6	20	0	0	90	36.1581920903955	36.241610738255	11	0.366690763961524	2	12	6	NaN	2	3	0.0205708797960764	0	1	NaN	289	5	37	2	120	220	320	NaN	520	0.0832868742290884	2	1	NaN	1551133.326799	NaN	1551134.310171	1551134.82672163
6	20	0	0	90	36.1581920903955	36.241610738255	15	0.500032859947532	2	5	3	NaN	1	3	0.0205708797960764	0	1	NaN	290	5	38	2	120	220	320	NaN	520	0.259986721677706	1	1	NaN	1551137.1104477	NaN	1551138.0938723	1551138.61041608
6	20	0	0	90	36.1581920903955	36.241610738255	23	0.76671705191955	2	11	1	NaN	2	3	0.0205708797960764	0	1	NaN	291	5	39	2	120	220	320	NaN	520	0.075980369001627	2	1	NaN	1551139.6940648	NaN	1551140.6774723	1551141.19400653
6	20	0	0	90	36.1581920903955	36.241610738255	10	0.333355239965022	2	6	2	NaN	1	5	0.0205708797960764	0	1	NaN	292	5	40	2	120	220	320	NaN	520	0.0836621690541506	2	0	NaN	1551142.0943136	NaN	1551143.0777031	1551143.59423873
6	20	0	0	90	36.1581920903955	36.241610738255	13	0.433361811954528	2	11	4	NaN	2	5	0.0205708797960764	0	1	NaN	293	5	41	2	120	220	320	NaN	520	0.0357354164589196	2	1	NaN	1551144.4945301	NaN	1551145.4779421	1551145.99447038
6	20	0	0	90	36.1581920903955	36.241610738255	9	0.30001971596852	2	8	1	NaN	2	3	0.0205708797960764	0	1	NaN	294	5	42	2	120	220	320	NaN	520	0.264842816395685	2	1	NaN	1551147.1614422	NaN	1551148.1448714	1551148.66141118
6	20	0	0	90	36.1581920903955	36.241610738255	0	0	1	1	4	NaN	1	5	0.0205708797960764	0	1	NaN	295	5	43	2	110	210	310	NaN	510	0.0811494691297412	2	0	NaN	1551149.7449566	NaN	1551150.7284752	1551151.24500113
6	20	0	0	90	36.1581920903955	36.241610738255	7	0.233348667975515	2	6	4	NaN	1	3	0.0205708797960764	0	1	NaN	296	5	44	2	120	220	320	NaN	520	0.577255021547899	1	1	NaN	1551152.1452998	NaN	1551153.1286823	1551153.64523428
6	20	0	0	90	36.1581920903955	36.241610738255	20	0.666710479930043	2	6	1	NaN	1	3	0.0205708797960764	0	1	NaN	297	5	45	2	120	220	320	NaN	520	0.749022068921477	2	0	NaN	1551155.0454548	NaN	1551156.0289862	1551156.54551123
6	20	0	0	90	36.1581920903955	36.241610738255	12	0.400026287958026	2	3	5	NaN	1	5	0.0205708797960764	0	1	NaN	298	5	46	2	120	220	320	NaN	520	0.168818974168971	1	1	NaN	1551158.1292087	NaN	1551159.1126237	1551159.62915533
6	20	0	0	90	36.1581920903955	36.241610738255	16	0.533368383944035	2	7	4	NaN	2	4	0.0205708797960764	0	1	NaN	299	5	47	2	120	220	320	NaN	520	0.0772899738512933	2	1	NaN	1551160.6127917	NaN	1551161.5962015	1551162.11273563
6	20	0	0	90	36.1581920903955	36.241610738255	6	0.200013143979013	2	4	3	NaN	1	5	0.0205708797960764	0	1	NaN	300	5	48	2	120	220	320	NaN	520	0.0211186218075454	1	1	NaN	1551163.0130179	NaN	1551163.9964019	1551164.51297208
6	20	0	0	90	36.1581920903955	36.241610738255	6	0.200013143979013	2	12	1	NaN	2	5	0.0205708797960764	0	1	NaN	301	5	49	2	120	220	320	NaN	520	0.0104873164091259	2	1	NaN	1551165.3631756	NaN	1551166.3466569	1551166.86319898
6	20	0	0	90	36.1581920903955	36.241610738255	19	0.633374955933541	2	2	6	NaN	1	3	0.0205708797960764	0	1	NaN	302	5	50	2	120	220	320	NaN	520	0.305289521580562	2	0	NaN	1551167.6968051	NaN	1551168.6802258	1551169.19675488
6	20	0	0	90	36.1581920903955	36.241610738255	22	0.733381527923048	2	5	2	NaN	1	4	0.0205708797960764	0	1	NaN	303	5	51	2	120	220	320	NaN	520	0.208153816405684	1	1	NaN	1551170.3303895	NaN	1551171.3139554	1551171.83034298
6	20	0	0	90	36.1581920903955	36.241610738255	23	0.76671705191955	2	6	1	NaN	1	5	0.0205708797960764	0	1	NaN	304	5	52	2	120	220	320	NaN	520	0.090214021736756	2	0	NaN	1551172.8639922	NaN	1551173.8473598	1551174.36392498
6	20	0	0	90	36.1581920903955	36.241610738255	12	0.400026287958026	2	12	1	NaN	2	4	0.0205708797960764	0	1	NaN	305	5	53	2	120	220	320	NaN	520	0.0493896217085421	1	0	NaN	1551175.2808914	NaN	1551176.2643263	1551176.78082718
6	20	0	0	90	36.1581920903955	36.241610738255	16	0.533368383944035	2	12	4	NaN	2	3	0.0205708797960764	0	1	NaN	306	5	54	2	120	220	320	NaN	520	0.0104797638487071	1	0	NaN	1551177.6644485	NaN	1551178.6478426	1551179.16440294
6	20	0	0	90	36.1581920903955	36.241610738255	10	0.333355239965022	2	5	6	NaN	1	4	0.0205708797960764	0	1	NaN	307	5	55	2	120	220	320	NaN	520	0.116693784482777	2	0	NaN	1551179.9980417	NaN	1551180.9813076	1551181.49797022
6	20	0	0	90	36.1581920903955	36.241610738255	12	0.400026287958026	2	9	5	NaN	2	4	0.0205708797960764	0	1	NaN	308	5	56	2	120	220	320	NaN	520	0.0104524216149002	2	1	NaN	1551182.4314933	NaN	1551183.414976	1551183.93153398
6	20	0	0	90	36.1581920903955	36.241610738255	19	0.633374955933541	2	4	1	NaN	1	3	0.0205708797960764	0	1	NaN	309	5	57	2	120	220	320	NaN	520	0.278091389685869	2	0	NaN	1551184.7483735	NaN	1551185.7319413	1551186.24843151
6	20	0	0	90	36.1581920903955	36.241610738255	22	0.733381527923048	2	9	6	NaN	2	4	0.0205708797960764	0	1	NaN	310	5	58	2	120	220	320	NaN	520	0.749558521667495	2	1	NaN	1551187.3487461	NaN	1551188.3321527	1551188.84868508
6	20	0	0	90	36.1581920903955	36.241610738255	0	0	1	8	2	NaN	2	3	0.0205708797960764	0	1	NaN	311	5	59	2	110	210	310	NaN	510	0.282853168901056	2	1	NaN	1551190.4157303	NaN	1551191.3991389	1551191.91564863
6	20	0	0	90	36.1581920903955	36.241610738255	0	0	1	9	1	NaN	2	4	0.0205708797960764	0	1	NaN	312	5	60	2	110	210	310	NaN	510	0.0105259113479406	2	1	NaN	1551193.0159782	NaN	1551193.999357	1551194.51590709
6	20	0	0	90	36.1581920903955	36.241610738255	6	0.200013143979013	2	1	2	NaN	1	3	0.0205708797960764	0	1	NaN	313	5	61	2	120	220	320	NaN	520	0.284598174039274	2	0	NaN	1551195.3495247	NaN	1551196.332932	1551196.84947383
6	20	0	0	90	36.1581920903955	36.241610738255	6	0.200013143979013	2	10	5	NaN	2	4	0.0205708797960764	0	1	NaN	314	5	62	2	120	220	320	NaN	520	0.460343326674774	2	1	NaN	1551197.9497661	NaN	1551198.9331934	1551199.44973237
6	20	0	0	90	36.1581920903955	36.241610738255	9	0.30001971596852	2	10	6	NaN	2	4	0.0205708797960764	0	1	NaN	315	5	63	2	120	220	320	NaN	520	0.212545669171959	2	1	NaN	1551200.7333923	NaN	1551201.7167863	1551202.23333433
6	20	0	0	90	36.1581920903955	36.241610738255	16	0.533368383944035	2	3	4	NaN	1	4	0.0205708797960764	0	1	NaN	316	6	1	2	120	220	320	NaN	520	0.1421095689293	2	0	NaN	1551220.4520262	NaN	1551221.4354073	1551221.95192613
6	20	0	0	90	36.1581920903955	36.241610738255	15	0.500032859947532	2	9	5	NaN	2	4	0.0205708797960764	0	1	NaN	317	6	2	2	120	220	320	NaN	520	0.163631421513855	1	0	NaN	1551222.9189172	NaN	1551223.9023188	1551224.41884608
6	20	0	0	90	36.1581920903955	36.241610738255	14	0.46669733595103	2	6	4	NaN	1	3	0.0205708797960764	0	1	NaN	318	6	3	2	120	220	320	NaN	520	0.160174869000912	1	1	NaN	1551225.4024675	NaN	1551226.3858808	1551226.90241113
6	20	0	0	90	36.1581920903955	36.241610738255	24	0.800052575916052	2	4	5	NaN	1	4	0.0205708797960764	0	1	NaN	319	6	4	2	120	220	320	NaN	520	0.0922715421766043	1	1	NaN	1551227.8859774	NaN	1551228.8694649	1551229.38600786
6	20	0	0	90	36.1581920903955	36.241610738255	0	0	1	8	3	NaN	2	3	0.0205708797960764	0	1	NaN	320	6	5	2	110	210	310	NaN	510	0.147934611188248	2	1	NaN	1551230.2863505	NaN	1551231.2697295	1551231.78622599
6	20	0	0	90	36.1581920903955	36.241610738255	6	0.200013143979013	2	8	3	NaN	2	5	0.0205708797960764	0	1	NaN	321	6	6	2	120	220	320	NaN	520	0.256941016297787	2	1	NaN	1551232.7532055	NaN	1551233.7365895	1551234.25314178
6	20	0	0	90	36.1581920903955	36.241610738255	9	0.30001971596852	2	6	1	NaN	1	5	0.0205708797960764	0	1	NaN	322	6	7	2	120	220	320	NaN	520	0.177868868922815	1	1	NaN	1551235.3200794	NaN	1551236.3035244	1551236.82005603
6	20	0	0	90	36.1581920903955	36.241610738255	6	0.200013143979013	2	3	4	NaN	1	5	0.0205708797960764	0	1	NaN	323	6	8	2	120	220	320	NaN	520	0.363081021700054	2	0	NaN	1551237.8870193	NaN	1551238.8704259	1551239.38697888
6	20	0	0	90	36.1581920903955	36.241610738255	14	0.46669733595103	2	9	4	NaN	2	4	0.0205708797960764	0	1	NaN	324	6	9	2	120	220	320	NaN	520	0.327972021652386	2	1	NaN	1551240.5706364	NaN	1551241.5539222	1551242.07057338
6	20	0	0	90	36.1581920903955	36.241610738255	18	0.600039431937039	2	3	1	NaN	1	4	0.0205708797960764	0	1	NaN	325	6	10	2	120	220	320	NaN	520	0.349685668945313	2	0	NaN	1551243.2207652	NaN	1551244.204302	1551244.72083663
6	20	0	0	90	36.1581920903955	36.241610738255	23	0.76671705191955	2	5	6	NaN	1	4	0.0205708797960764	0	1	NaN	326	6	11	2	120	220	320	NaN	520	0.477914069080725	2	0	NaN	1551248.788122	NaN	1551249.7714918	1551250.28804483
6	20	0	0	90	36.1581920903955	36.241610738255	7	0.233348667975515	2	8	5	NaN	2	3	0.0205708797960764	0	1	NaN	327	6	12	2	120	220	320	NaN	520	0.245683616260067	2	1	NaN	1551251.5882403	NaN	1551252.5718133	1551253.08831448
6	20	0	0	90	36.1581920903955	36.241610738255	17	0.566703907940537	2	9	5	NaN	2	5	0.0205708797960764	0	1	NaN	328	6	13	2	120	220	320	NaN	520	0.150907321600243	1	0	NaN	1551254.1552795	NaN	1551255.138687	1551255.65524658
6	20	0	0	90	36.1581920903955	36.241610738255	15	0.500032859947532	2	8	6	NaN	2	5	0.0205708797960764	0	1	NaN	329	6	14	2	120	220	320	NaN	520	0.308311621658504	1	0	NaN	1551256.6220897	NaN	1551257.6056156	1551258.12215298
6	20	0	0	90	36.1581920903955	36.241610738255	13	0.433361811954528	2	8	6	NaN	2	3	0.0205708797960764	0	1	NaN	330	6	15	2	120	220	320	NaN	520	0.162456016521901	2	1	NaN	1551259.255689	NaN	1551260.2392371	1551260.75573988
6	20	0	0	90	36.1581920903955	36.241610738255	16	0.533368383944035	2	10	1	NaN	2	4	0.0205708797960764	0	1	NaN	331	6	16	2	120	220	320	NaN	520	0.230724721681327	2	1	NaN	1551261.7394552	NaN	1551262.7227679	1551263.23932128
6	20	0	0	90	36.1581920903955	36.241610738255	15	0.500032859947532	2	3	6	NaN	1	5	0.0205708797960764	0	1	NaN	332	6	17	2	120	220	320	NaN	520	0.136681821662933	1	1	NaN	1551264.289731	NaN	1551265.2730115	1551265.78957028
6	20	0	0	90	36.1581920903955	36.241610738255	11	0.366690763961524	2	7	5	NaN	2	4	0.0205708797960764	0	1	NaN	333	6	18	2	120	220	320	NaN	520	0.198336469242349	2	1	NaN	1551266.7398681	NaN	1551267.7232595	1551268.23980243
6	20	0	0	90	36.1581920903955	36.241610738255	8	0.266684191972017	2	11	3	NaN	2	4	0.0205708797960764	0	1	NaN	334	6	19	2	120	220	320	NaN	520	0.321537421550602	1	0	NaN	1551269.2568165	NaN	1551270.2401769	1551270.75672738
6	20	0	0	90	36.1581920903955	36.241610738255	8	0.266684191972017	2	7	5	NaN	2	3	0.0205708797960764	0	1	NaN	335	6	20	2	120	220	320	NaN	520	0.471571679227054	1	0	NaN	1551271.9069192	NaN	1551272.8904302	1551273.40698602
6	20	0	0	90	36.1581920903955	36.241610738255	13	0.433361811954528	2	3	6	NaN	1	5	0.0205708797960764	0	1	NaN	336	6	21	2	120	220	320	NaN	520	0.286814821651205	1	1	NaN	1551274.7072959	NaN	1551275.6907291	1551276.20726328
6	20	0	0	90	36.1581920903955	36.241610738255	9	0.30001971596852	2	10	4	NaN	2	3	0.0205708797960764	0	1	NaN	337	6	22	2	120	220	320	NaN	520	0.24714902183041	2	1	NaN	1551277.3075937	NaN	1551278.2909556	1551278.80751968
6	20	0	0	90	36.1581920903955	36.241610738255	18	0.600039431937039	2	1	2	NaN	1	4	0.0205708797960764	0	1	NaN	338	6	23	2	120	220	320	NaN	520	0.335712674073875	2	0	NaN	1551279.8745161	NaN	1551280.8578641	1551281.37443493
6	20	0	0	90	36.1581920903955	36.241610738255	22	0.733381527923048	2	10	5	NaN	2	4	0.0205708797960764	0	1	NaN	339	6	24	2	120	220	320	NaN	520	0.325439321808517	2	1	NaN	1551282.5247738	NaN	1551283.5081593	1551284.02469898
6	20	0	0	90	36.1581920903955	36.241610738255	23	0.76671705191955	2	7	4	NaN	2	5	0.0205708797960764	0	1	NaN	340	6	25	2	120	220	320	NaN	520	0.437312863767147	2	1	NaN	1551285.3250264	NaN	1551286.3084597	1551286.82496364
6	20	0	0	90	36.1581920903955	36.241610738255	18	0.600039431937039	2	10	1	NaN	2	3	0.0205708797960764	0	1	NaN	341	6	26	2	120	220	320	NaN	520	0.342213563853875	2	1	NaN	1551288.0919567	NaN	1551289.0754406	1551289.59189564
6	20	0	0	90	36.1581920903955	36.241610738255	14	0.46669733595103	2	1	6	NaN	1	4	0.0205708797960764	0	1	NaN	342	6	27	2	120	220	320	NaN	520	0.0754431218374521	2	0	NaN	1551290.7588991	NaN	1551291.7422942	1551292.25883788
6	20	0	0	90	36.1581920903955	36.241610738255	19	0.633374955933541	2	3	5	NaN	1	5	0.0205708797960764	0	1	NaN	343	6	28	2	120	220	320	NaN	520	0.195047368993983	2	0	NaN	1551293.1591246	NaN	1551294.1425373	1551294.65907463
6	20	0	0	90	36.1581920903955	36.241610738255	20	0.666710479930043	2	7	6	NaN	2	5	0.0205708797960764	0	1	NaN	344	6	29	2	120	220	320	NaN	520	0.166168469004333	1	0	NaN	1551295.6760218	NaN	1551296.6594472	1551297.17597463
6	20	0	0	90	36.1581920903955	36.241610738255	13	0.433361811954528	2	1	1	NaN	1	5	0.0205708797960764	0	1	NaN	345	6	30	2	120	220	320	NaN	520	0.178677021758631	1	1	NaN	1551298.1596294	NaN	1551299.1430169	1551299.65956128
6	20	0	0	90	36.1581920903955	36.241610738255	24	0.800052575916052	2	9	1	NaN	2	3	0.0205708797960764	0	1	NaN	346	6	31	2	120	220	320	NaN	520	0.0103844741825014	2	1	NaN	1551300.7265815	NaN	1551301.7099403	1551302.22647853
6	20	0	0	90	36.1581920903955	36.241610738255	8	0.266684191972017	2	3	1	NaN	1	5	0.0205708797960764	0	1	NaN	347	6	32	2	120	220	320	NaN	520	0.222176021663472	1	1	NaN	1551303.0600825	NaN	1551304.0435834	1551304.56003808
6	20	0	0	90	36.1581920903955	36.241610738255	7	0.233348667975515	2	2	1	NaN	1	4	0.0205708797960764	0	1	NaN	348	6	33	2	120	220	320	NaN	520	0.0327681740745902	2	0	NaN	1551305.593661	NaN	1551306.5770674	1551307.09362703
6	20	0	0	90	36.1581920903955	36.241610738255	9	0.30001971596852	2	5	5	NaN	1	5	0.0205708797960764	0	1	NaN	349	6	34	2	120	220	320	NaN	520	0.114382421597838	2	0	NaN	1551307.9439123	NaN	1551308.927323	1551309.44385568
6	20	0	0	90	36.1581920903955	36.241610738255	16	0.533368383944035	2	8	5	NaN	2	4	0.0205708797960764	0	1	NaN	350	6	35	2	120	220	320	NaN	520	0.0490167739335448	2	1	NaN	1551310.5774764	NaN	1551311.5609123	1551312.07744743
6	20	0	0	90	36.1581920903955	36.241610738255	18	0.600039431937039	2	2	4	NaN	1	5	0.0205708797960764	0	1	NaN	351	6	36	2	120	220	320	NaN	520	0.274350516498089	2	0	NaN	1551312.9442627	NaN	1551313.9277929	1551314.44434188
6	20	0	0	90	36.1581920903955	36.241610738255	6	0.200013143979013	2	11	1	NaN	2	4	0.0205708797960764	0	1	NaN	352	6	37	2	120	220	320	NaN	520	0.537690269062296	2	1	NaN	1551315.5446495	NaN	1551316.5281432	1551317.04459273
6	20	0	0	90	36.1581920903955	36.241610738255	10	0.333355239965022	2	10	2	NaN	2	5	0.0205708797960764	0	1	NaN	353	6	38	2	120	220	320	NaN	520	0.183915469096974	2	1	NaN	1551318.3949676	NaN	1551319.378328	1551319.89487993
6	20	0	0	90	36.1581920903955	36.241610738255	24	0.800052575916052	2	12	3	NaN	2	5	0.0205708797960764	0	1	NaN	354	6	39	2	120	220	320	NaN	520	0.109788421774283	1	0	NaN	1551321.0285737	NaN	1551322.0119116	1551322.52847548
6	20	0	0	90	36.1581920903955	36.241610738255	25	0.833388099912554	2	7	2	NaN	2	5	0.0205708797960764	0	1	NaN	355	6	40	2	120	220	320	NaN	520	0.0103937319945544	2	1	NaN	1551323.4621699	NaN	1551324.4455064	1551324.96204477
6	20	0	0	90	36.1581920903955	36.241610738255	15	0.500032859947532	2	2	3	NaN	1	3	0.0205708797960764	0	1	NaN	356	6	41	2	120	220	320	NaN	520	0.582999269012362	2	0	NaN	1551325.795652	NaN	1551326.7790682	1551327.29560253
6	20	0	0	90	36.1581920903955	36.241610738255	18	0.600039431937039	2	11	6	NaN	2	3	0.0205708797960764	0	1	NaN	357	6	42	2	120	220	320	NaN	520	0.186223963741213	2	1	NaN	1551330.2960685	NaN	1551331.2795089	1551331.79604544
6	20	0	0	90	36.1581920903955	36.241610738255	11	0.366690763961524	2	7	1	NaN	2	3	0.0205708797960764	0	1	NaN	358	6	43	2	120	220	320	NaN	520	0.262023758608848	2	1	NaN	1551332.7961794	NaN	1551333.7797785	1551334.29627984
6	20	0	0	90	36.1581920903955	36.241610738255	19	0.633374955933541	2	6	2	NaN	1	3	0.0205708797960764	0	1	NaN	359	6	44	2	120	220	320	NaN	520	0.166436221683398	1	1	NaN	1551335.3798091	NaN	1551336.3633206	1551336.87988288
6	20	0	0	90	36.1581920903955	36.241610738255	22	0.733381527923048	2	11	2	NaN	2	4	0.0205708797960764	0	1	NaN	360	6	45	2	120	220	320	NaN	520	0.291245279368013	1	0	NaN	1551337.8635337	NaN	1551338.8468053	1551339.36345912
6	20	0	0	90	36.1581920903955	36.241610738255	14	0.46669733595103	2	4	3	NaN	1	5	0.0205708797960764	0	1	NaN	361	6	46	2	120	220	320	NaN	520	0.266250674147159	2	0	NaN	1551340.4802856	NaN	1551341.4638221	1551341.98038163
6	20	0	0	90	36.1581920903955	36.241610738255	0	0	1	4	6	NaN	1	5	0.0205708797960764	0	1	NaN	362	6	47	2	110	210	310	NaN	510	0.297806537011638	2	0	NaN	1551343.080544	NaN	1551344.0640995	1551344.58063016
6	20	0	0	90	36.1581920903955	36.241610738255	25	0.833388099912554	2	1	1	NaN	1	3	0.0205708797960764	0	1	NaN	363	6	48	2	120	220	320	NaN	520	0.321072068996727	2	0	NaN	1551345.6976516	NaN	1551346.6809174	1551347.19756303
6	20	0	0	90	36.1581920903955	36.241610738255	9	0.30001971596852	2	3	1	NaN	1	4	0.0205708797960764	0	1	NaN	364	6	49	2	120	220	320	NaN	520	0.222690816503018	2	0	NaN	1551348.3477526	NaN	1551349.3313166	1551349.84780968
6	20	0	0	90	36.1581920903955	36.241610738255	23	0.76671705191955	2	4	3	NaN	1	4	0.0205708797960764	0	1	NaN	365	6	50	2	120	220	320	NaN	520	0.152868116274476	2	0	NaN	1551350.8814484	NaN	1551351.8648561	1551352.38139488
6	20	0	0	90	36.1581920903955	36.241610738255	14	0.46669733595103	2	5	5	NaN	1	3	0.0205708797960764	0	1	NaN	366	6	51	2	120	220	320	NaN	520	0.285961789777502	2	0	NaN	1551353.3483514	NaN	1551354.3317721	1551354.84831781
6	20	0	0	90	36.1581920903955	36.241610738255	7	0.233348667975515	2	2	4	NaN	1	3	0.0205708797960764	0	1	NaN	367	6	52	2	120	220	320	NaN	520	0.165239616297185	1	1	NaN	1551355.9652703	NaN	1551356.9486757	1551357.46523588
6	20	0	0	90	36.1581920903955	36.241610738255	15	0.500032859947532	2	5	4	NaN	1	4	0.0205708797960764	0	1	NaN	368	6	53	2	120	220	320	NaN	520	0.0335877586621791	2	0	NaN	1551358.4488946	NaN	1551359.4322764	1551359.94880104
6	20	0	0	90	36.1581920903955	36.241610738255	10	0.333355239965022	2	9	3	NaN	2	5	0.0205708797960764	0	1	NaN	369	6	54	2	120	220	320	NaN	520	0.0274080692324787	2	1	NaN	1551360.7990931	NaN	1551361.7825252	1551362.29903203
6	20	0	0	90	36.1581920903955	36.241610738255	13	0.433361811954528	2	6	2	NaN	1	3	0.0205708797960764	0	1	NaN	370	6	55	2	120	220	320	NaN	520	0.300935263978317	2	0	NaN	1551363.1493042	NaN	1551364.1327201	1551364.64926474
6	20	0	0	90	36.1581920903955	36.241610738255	22	0.733381527923048	2	3	3	NaN	1	4	0.0205708797960764	0	1	NaN	371	6	56	2	120	220	320	NaN	520	0.251990879420191	1	1	NaN	1551365.7662376	NaN	1551366.7496375	1551367.26619822
6	20	0	0	90	36.1581920903955	36.241610738255	16	0.533368383944035	2	1	3	NaN	1	4	0.0205708797960764	0	1	NaN	372	6	57	2	120	220	320	NaN	520	0.101298421621323	2	0	NaN	1551368.333133	NaN	1551369.3165924	1551369.83313228
6	20	0	0	90	36.1581920903955	36.241610738255	16	0.533368383944035	2	10	6	NaN	2	3	0.0205708797960764	0	1	NaN	373	6	58	2	120	220	320	NaN	520	0.396366221597418	2	1	NaN	1551370.7500613	NaN	1551371.7334826	1551372.25001338
6	20	0	0	90	36.1581920903955	36.241610738255	7	0.233348667975515	2	8	6	NaN	2	5	0.0205708797960764	0	1	NaN	374	6	59	2	120	220	320	NaN	520	0.391796611016616	2	1	NaN	1551373.4670209	NaN	1551374.450419	1551374.96694349
6	20	0	0	90	36.1581920903955	36.241610738255	12	0.400026287958026	2	5	6	NaN	1	4	0.0205708797960764	0	1	NaN	375	6	60	2	120	220	320	NaN	520	0.330349189927801	1	1	NaN	1551376.1837546	NaN	1551377.167343	1551377.68388341
6	20	0	0	90	36.1581920903955	36.241610738255	0	0	1	3	1	NaN	1	4	0.0205708797960764	0	1	NaN	376	6	61	2	110	210	310	NaN	510	0.23241232172586	2	0	NaN	1551378.834203	NaN	1551379.8176008	1551380.33414338
6	20	0	0	90	36.1581920903955	36.241610738255	14	0.46669733595103	2	10	4	NaN	2	4	0.0205708797960764	0	1	NaN	377	6	62	2	120	220	320	NaN	520	0.249158406164497	1	0	NaN	1551382.201214	NaN	1551383.1846	1551383.70112979
6	20	0	0	90	36.1581920903955	36.241610738255	7	0.233348667975515	2	7	4	NaN	2	5	0.0205708797960764	0	1	NaN	378	6	63	2	120	220	320	NaN	520	0.0822464898228645	2	1	NaN	1551384.968014	NaN	1551385.9515579	1551386.46807861
6	20	0	0	90	36.1581920903955	36.241610738255	22	0.733381527923048	2	6	6	NaN	1	5	0.0205708797960764	0	1	NaN	379	7	1	2	120	220	320	NaN	520	0.327886021696031	2	0	NaN	1551409.9704671	NaN	1551410.9539717	1551411.47052648
6	20	0	0	90	36.1581920903955	36.241610738255	25	0.833388099912554	2	11	2	NaN	2	5	0.0205708797960764	0	1	NaN	380	7	2	2	120	220	320	NaN	520	0.1974096740596	2	1	NaN	1551412.6208289	NaN	1551413.6042176	1551414.12079573
6	20	0	0	90	36.1581920903955	36.241610738255	25	0.833388099912554	2	5	3	NaN	1	4	0.0205708797960764	0	1	NaN	381	7	3	2	120	220	320	NaN	520	0.0967126218602061	1	1	NaN	1551415.1376458	NaN	1551416.1211485	1551416.63770558
6	20	0	0	90	36.1581920903955	36.241610738255	17	0.566703907940537	2	4	4	NaN	1	4	0.0205708797960764	0	1	NaN	382	7	4	2	120	220	320	NaN	520	0.0318108689971268	2	0	NaN	1551417.5546363	NaN	1551418.5380894	1551419.05461403
6	20	0	0	90	36.1581920903955	36.241610738255	7	0.233348667975515	2	4	2	NaN	1	3	0.0205708797960764	0	1	NaN	383	7	5	2	120	220	320	NaN	520	0.465930474223569	2	0	NaN	1551419.9048918	NaN	1551420.8883032	1551421.40483233
6	20	0	0	90	36.1581920903955	36.241610738255	17	0.566703907940537	2	10	6	NaN	2	5	0.0205708797960764	0	1	NaN	384	7	6	2	120	220	320	NaN	520	0.25005432148464	2	1	NaN	1551422.6884819	NaN	1551423.6719084	1551424.18844248
6	20	0	0	90	36.1581920903955	36.241610738255	22	0.733381527923048	2	12	4	NaN	2	4	0.0205708797960764	0	1	NaN	385	7	7	2	120	220	320	NaN	520	0.162838168907911	2	1	NaN	1551425.2554209	NaN	1551426.238828	1551426.75535643
6	20	0	0	90	36.1581920903955	36.241610738255	18	0.600039431937039	2	2	4	NaN	1	4	0.0205708797960764	0	1	NaN	386	7	8	2	120	220	320	NaN	520	0.0874224689323455	2	0	NaN	1551427.7389943	NaN	1551428.7223886	1551429.23893383
6	20	0	0	90	36.1581920903955	36.241610738255	22	0.733381527923048	2	1	5	NaN	1	4	0.0205708797960764	0	1	NaN	387	7	9	2	120	220	320	NaN	520	0.247611569007859	1	1	NaN	1551430.1391025	NaN	1551431.1226504	1551431.63918163
6	20	0	0	90	36.1581920903955	36.241610738255	14	0.46669733595103	2	6	4	NaN	1	5	0.0205708797960764	0	1	NaN	388	7	10	2	120	220	320	NaN	520	0.256328389747068	1	1	NaN	1551432.7061403	NaN	1551433.6895248	1551434.20610301
6	20	0	0	90	36.1581920903955	36.241610738255	0	0	1	6	2	NaN	1	4	0.0205708797960764	0	1	NaN	389	7	11	2	110	210	310	NaN	510	0.224772774148732	2	0	NaN	1551435.2897344	NaN	1551436.2731329	1551436.78968433
6	20	0	0	90	36.1581920903955	36.241610738255	6	0.200013143979013	2	8	4	NaN	2	3	0.0205708797960764	0	1	NaN	390	7	12	2	120	220	320	NaN	520	0.314480321714655	2	1	NaN	1551437.840005	NaN	1551438.8233932	1551439.33993378
6	20	0	0	90	36.1581920903955	36.241610738255	8	0.266684191972017	2	2	2	NaN	1	3	0.0205708797960764	0	1	NaN	391	7	13	2	120	220	320	NaN	520	0.280894121620804	1	1	NaN	1551440.4734608	NaN	1551441.4569953	1551441.97352508
6	20	0	0	90	36.1581920903955	36.241610738255	25	0.833388099912554	2	10	6	NaN	2	5	0.0205708797960764	0	1	NaN	392	7	14	2	120	220	320	NaN	520	0.16038622171618	2	1	NaN	1551443.0738145	NaN	1551444.0572385	1551444.57378178
6	20	0	0	90	36.1581920903955	36.241610738255	8	0.266684191972017	2	5	6	NaN	1	5	0.0205708797960764	0	1	NaN	393	7	15	2	120	220	320	NaN	520	0.0210244217887521	1	1	NaN	1551445.5572885	NaN	1551446.5408267	1551447.05735518
6	20	0	0	90	36.1581920903955	36.241610738255	24	0.800052575916052	2	1	6	NaN	1	3	0.0205708797960764	0	1	NaN	394	7	16	2	120	220	320	NaN	520	0.0155444422271103	2	0	NaN	1551447.8909871	NaN	1551448.8743957	1551449.39091826
6	20	0	0	90	36.1581920903955	36.241610738255	6	0.200013143979013	2	6	3	NaN	1	4	0.0205708797960764	0	1	NaN	395	7	17	2	120	220	320	NaN	520	0.449868369149044	2	0	NaN	1551450.2245227	NaN	1551451.2079483	1551451.72447273
6	20	0	0	90	36.1581920903955	36.241610738255	19	0.633374955933541	2	12	5	NaN	2	4	0.0205708797960764	0	1	NaN	396	7	18	2	120	220	320	NaN	520	0.307476821588352	2	1	NaN	1551452.9913454	NaN	1551453.9748802	1551454.49142048
6	20	0	0	90	36.1581920903955	36.241610738255	17	0.566703907940537	2	7	2	NaN	2	5	0.0205708797960764	0	1	NaN	397	7	19	2	120	220	320	NaN	520	0.217836321564391	1	0	NaN	1551455.6250903	NaN	1551456.6084867	1551457.12500178
6	20	0	0	90	36.1581920903955	36.241610738255	23	0.76671705191955	2	1	1	NaN	1	4	0.0205708797960764	0	1	NaN	398	7	20	2	120	220	320	NaN	520	0.0997285216581076	2	0	NaN	1551458.1586675	NaN	1551459.1420356	1551459.65859278
6	20	0	0	90	36.1581920903955	36.241610738255	13	0.433361811954528	2	1	5	NaN	1	4	0.0205708797960764	0	1	NaN	399	7	21	2	120	220	320	NaN	520	0.306123869027942	2	0	NaN	1551460.5921211	NaN	1551461.5756369	1551462.09215963
6	20	0	0	90	36.1581920903955	36.241610738255	21	0.700046003926545	2	10	3	NaN	2	3	0.0205708797960764	0	1	NaN	400	7	22	2	120	220	320	NaN	520	0.0104560111649334	1	0	NaN	1551463.209135	NaN	1551464.19255	1551464.70907619
6	20	0	0	90	36.1581920903955	36.241610738255	14	0.46669733595103	2	12	2	NaN	2	5	0.0205708797960764	0	1	NaN	401	7	23	2	120	220	320	NaN	520	0.259756421670318	2	1	NaN	1551465.5426839	NaN	1551466.5260746	1551467.04265168
6	20	0	0	90	36.1581920903955	36.241610738255	24	0.800052575916052	2	9	2	NaN	2	3	0.0205708797960764	0	1	NaN	402	7	24	2	120	220	320	NaN	520	0.132684116484597	2	1	NaN	1551468.126291	NaN	1551469.1097014	1551469.62623728
6	20	0	0	90	36.1581920903955	36.241610738255	20	0.666710479930043	2	9	3	NaN	2	3	0.0205708797960764	0	1	NaN	403	7	25	2	120	220	320	NaN	520	0.107756747398525	2	1	NaN	1551472.326602	NaN	1551473.3101099	1551473.82665475
6	20	0	0	90	36.1581920903955	36.241610738255	17	0.566703907940537	2	11	6	NaN	2	3	0.0205708797960764	0	1	NaN	404	7	26	2	120	220	320	NaN	520	0.250300421612337	2	1	NaN	1551474.7602934	NaN	1551475.743674	1551476.26021718
6	20	0	0	90	36.1581920903955	36.241610738255	24	0.800052575916052	2	7	5	NaN	2	5	0.0205708797960764	0	1	NaN	405	7	27	2	120	220	320	NaN	520	0.643285221653059	2	1	NaN	1551477.3271905	NaN	1551478.3106012	1551478.82714308
6	20	0	0	90	36.1581920903955	36.241610738255	11	0.366690763961524	2	6	3	NaN	1	5	0.0205708797960764	0	1	NaN	406	7	28	2	120	220	320	NaN	520	0.0105403217021376	2	0	NaN	1551480.5441621	NaN	1551481.5275585	1551482.04412788
6	20	0	0	90	36.1581920903955	36.241610738255	13	0.433361811954528	2	4	1	NaN	1	3	0.0205708797960764	0	1	NaN	407	7	29	2	120	220	320	NaN	520	0.131653884425759	1	1	NaN	1551482.9110678	NaN	1551483.8944681	1551484.41102012
6	20	0	0	90	36.1581920903955	36.241610738255	10	0.333355239965022	2	2	6	NaN	1	3	0.0205708797960764	0	1	NaN	408	7	30	2	120	220	320	NaN	520	0.641444821609184	2	0	NaN	1551485.3614241	NaN	1551486.3447247	1551486.86126448
6	20	0	0	90	36.1581920903955	36.241610738255	19	0.633374955933541	2	4	6	NaN	1	4	0.0205708797960764	0	1	NaN	409	7	31	2	120	220	320	NaN	520	0.102005321765319	2	0	NaN	1551491.2285537	NaN	1551492.2119642	1551492.72850568
6	20	0	0	90	36.1581920903955	36.241610738255	20	0.666710479930043	2	5	4	NaN	1	4	0.0205708797960764	0	1	NaN	410	7	32	2	120	220	320	NaN	520	0.509225421585143	2	0	NaN	1551493.6454489	NaN	1551494.6288999	1551495.14540178
6	20	0	0	90	36.1581920903955	36.241610738255	17	0.566703907940537	2	3	6	NaN	1	4	0.0205708797960764	0	1	NaN	411	7	33	2	120	220	320	NaN	520	0.739889468997717	1	1	NaN	1551496.4790749	NaN	1551497.4624636	1551497.97901703
6	20	0	0	90	36.1581920903955	36.241610738255	9	0.30001971596852	2	12	5	NaN	2	4	0.0205708797960764	0	1	NaN	412	7	34	2	120	220	320	NaN	520	0.360837121494114	2	1	NaN	1551499.5460419	NaN	1551500.5294255	1551501.04598148
6	20	0	0	90	36.1581920903955	36.241610738255	25	0.833388099912554	2	8	6	NaN	2	4	0.0205708797960764	0	1	NaN	413	7	35	2	120	220	320	NaN	520	0.281983774155378	2	1	NaN	1551502.3129647	NaN	1551503.2963633	1551503.81292393
6	20	0	0	90	36.1581920903955	36.241610738255	21	0.700046003926545	2	6	3	NaN	1	3	0.0205708797960764	0	1	NaN	414	7	36	2	120	220	320	NaN	520	0.0812493215780705	2	0	NaN	1551504.9132327	NaN	1551505.8966378	1551506.41318788
6	20	0	0	90	36.1581920903955	36.241610738255	7	0.233348667975515	2	6	5	NaN	1	3	0.0205708797960764	0	1	NaN	415	7	37	2	120	220	320	NaN	520	0.55294899479486	2	0	NaN	1551507.3134782	NaN	1551508.2968707	1551508.81342511
6	20	0	0	90	36.1581920903955	36.241610738255	22	0.733381527923048	2	1	2	NaN	1	5	0.0205708797960764	0	1	NaN	416	7	38	2	120	220	320	NaN	520	0.133736521704122	2	0	NaN	1551510.197033	NaN	1551511.180509	1551511.69703248
6	20	0	0	90	36.1581920903955	36.241610738255	16	0.533368383944035	2	4	5	NaN	1	5	0.0205708797960764	0	1	NaN	417	7	39	2	120	220	320	NaN	520	0.643626369070262	1	1	NaN	1551512.6473179	NaN	1551513.6307552	1551514.14727543
6	20	0	0	90	36.1581920903955	36.241610738255	8	0.266684191972017	2	5	5	NaN	1	3	0.0205708797960764	0	1	NaN	418	7	40	2	120	220	320	NaN	520	0.21264127921313	1	1	NaN	1551515.614298	NaN	1551516.5977236	1551517.11422672
6	20	0	0	90	36.1581920903955	36.241610738255	24	0.800052575916052	2	3	2	NaN	1	3	0.0205708797960764	0	1	NaN	419	7	41	2	120	220	320	NaN	520	0.167200321797282	2	0	NaN	1551518.1478692	NaN	1551519.1312764	1551519.64781308
6	20	0	0	90	36.1581920903955	36.241610738255	10	0.333355239965022	2	9	4	NaN	2	5	0.0205708797960764	0	1	NaN	420	7	42	2	120	220	320	NaN	520	0.307272521778941	2	1	NaN	1551520.6314526	NaN	1551521.6148405	1551522.13138948
6	20	0	0	90	36.1581920903955	36.241610738255	8	0.266684191972017	2	3	5	NaN	1	4	0.0205708797960764	0	1	NaN	421	7	43	2	120	220	320	NaN	520	0.268869274063036	2	0	NaN	1551523.3815931	NaN	1551524.3651142	1551524.88165023
6	20	0	0	90	36.1581920903955	36.241610738255	13	0.433361811954528	2	9	6	NaN	2	4	0.0205708797960764	0	1	NaN	422	7	44	2	120	220	320	NaN	520	0.141225221799687	2	1	NaN	1551525.9651867	NaN	1551526.9487343	1551527.46525938
6	20	0	0	90	36.1581920903955	36.241610738255	21	0.700046003926545	2	9	2	NaN	2	3	0.0205708797960764	0	1	NaN	423	7	45	2	120	220	320	NaN	520	0.403179726796225	1	0	NaN	1551528.4154795	NaN	1551529.398946	1551529.91548477
6	20	0	0	90	36.1581920903955	36.241610738255	14	0.46669733595103	2	5	1	NaN	1	3	0.0205708797960764	0	1	NaN	424	7	46	2	120	220	320	NaN	520	0.182058958569542	2	0	NaN	1551531.1324796	NaN	1551532.1158847	1551532.63241454
6	20	0	0	90	36.1581920903955	36.241610738255	15	0.500032859947532	2	1	6	NaN	1	3	0.0205708797960764	0	1	NaN	425	7	47	2	120	220	320	NaN	520	0.146024121670052	2	0	NaN	1551533.6327099	NaN	1551534.6161065	1551535.13266158
6	20	0	0	90	36.1581920903955	36.241610738255	10	0.333355239965022	2	3	5	NaN	1	4	0.0205708797960764	0	1	NaN	426	7	48	2	120	220	320	NaN	520	0.255057337228209	2	0	NaN	1551536.0996445	NaN	1551537.08301	1551537.59956976
6	20	0	0	90	36.1581920903955	36.241610738255	15	0.500032859947532	2	7	5	NaN	2	3	0.0205708797960764	0	1	NaN	427	7	49	2	120	220	320	NaN	520	0.239457274088636	1	0	NaN	1551538.6832427	NaN	1551539.6666061	1551540.18315673
6	20	0	0	90	36.1581920903955	36.241610738255	19	0.633374955933541	2	10	3	NaN	2	3	0.0205708797960764	0	1	NaN	428	7	50	2	120	220	320	NaN	520	0.0104500637389719	2	1	NaN	1551541.2334394	NaN	1551542.2168525	1551542.73340824
6	20	0	0	90	36.1581920903955	36.241610738255	14	0.46669733595103	2	11	1	NaN	2	4	0.0205708797960764	0	1	NaN	429	7	51	2	120	220	320	NaN	520	0.288210216443986	1	0	NaN	1551543.6503332	NaN	1551544.6337712	1551545.15031918
6	20	0	0	90	36.1581920903955	36.241610738255	12	0.400026287958026	2	1	1	NaN	1	5	0.0205708797960764	0	1	NaN	430	7	52	2	120	220	320	NaN	520	0.200408211210743	1	1	NaN	1551546.2506306	NaN	1551547.2340359	1551547.75056849
6	20	0	0	90	36.1581920903955	36.241610738255	25	0.833388099912554	2	11	6	NaN	2	5	0.0205708797960764	0	1	NaN	431	7	53	2	120	220	320	NaN	520	0.251579168951139	1	0	NaN	1551548.7675446	NaN	1551549.7509541	1551550.26747673
6	20	0	0	90	36.1581920903955	36.241610738255	22	0.733381527923048	2	7	3	NaN	2	3	0.0205708797960764	0	1	NaN	432	7	54	2	120	220	320	NaN	520	0.355806321604177	1	0	NaN	1551551.3511121	NaN	1551552.334521	1551552.85107018
6	20	0	0	90	36.1581920903955	36.241610738255	20	0.666710479930043	2	6	6	NaN	1	3	0.0205708797960764	0	1	NaN	433	7	55	2	120	220	320	NaN	520	0.200645163888112	1	1	NaN	1551554.0180358	NaN	1551555.0014636	1551555.51798884
6	20	0	0	90	36.1581920903955	36.241610738255	21	0.700046003926545	2	2	5	NaN	1	3	0.0205708797960764	0	1	NaN	434	7	56	2	120	220	320	NaN	520	0.115570369176567	1	1	NaN	1551556.5349159	NaN	1551557.5184089	1551558.03491773
6	20	0	0	90	36.1581920903955	36.241610738255	23	0.76671705191955	2	6	6	NaN	1	4	0.0205708797960764	0	1	NaN	435	7	57	2	120	220	320	NaN	520	0.0981488216202706	1	1	NaN	1551558.9685388	NaN	1551559.951958	1551560.46848508
6	20	0	0	90	36.1581920903955	36.241610738255	10	0.333355239965022	2	8	6	NaN	2	5	0.0205708797960764	0	1	NaN	436	7	58	2	120	220	320	NaN	520	0.401694921776652	2	1	NaN	1551561.3853047	NaN	1551562.3688392	1551562.88539018
6	20	0	0	90	36.1581920903955	36.241610738255	13	0.433361811954528	2	10	4	NaN	2	5	0.0205708797960764	0	1	NaN	437	7	59	2	120	220	320	NaN	520	0.356052689719945	2	1	NaN	1551564.1191271	NaN	1551565.1024327	1551565.61898411
6	20	0	0	90	36.1581920903955	36.241610738255	8	0.266684191972017	2	10	2	NaN	2	5	0.0205708797960764	0	1	NaN	438	7	60	2	120	220	320	NaN	520	0.264841721858829	1	0	NaN	1551566.7859863	NaN	1551567.7693987	1551568.28591198
6	20	0	0	90	36.1581920903955	36.241610738255	0	0	1	11	5	NaN	2	5	0.0205708797960764	0	1	NaN	439	7	61	2	110	210	310	NaN	510	0.441562169231474	2	1	NaN	1551569.3694324	NaN	1551570.3529394	1551570.86950013
6	20	0	0	90	36.1581920903955	36.241610738255	20	0.666710479930043	2	11	2	NaN	2	5	0.0205708797960764	0	1	NaN	440	7	62	2	120	220	320	NaN	520	0.114232621621341	1	0	NaN	1551572.1363639	NaN	1551573.1198757	1551573.63644168
6	20	0	0	90	36.1581920903955	36.241610738255	13	0.433361811954528	2	5	5	NaN	1	3	0.0205708797960764	0	1	NaN	441	7	63	2	120	220	320	NaN	520	0.312418021494523	2	0	NaN	1551574.5700804	NaN	1551575.5534353	1551576.07001408
6	20	0	0	90	36.1581920903955	36.241610738255	20	0.666710479930043	2	2	6	NaN	1	4	0.0205708797960764	0	1	NaN	442	8	1	2	120	220	320	NaN	520	0.414941421709955	2	0	NaN	1551616.9075389	NaN	1551617.8909483	1551618.40750498
6	20	0	0	90	36.1581920903955	36.241610738255	17	0.566703907940537	2	6	1	NaN	1	4	0.0205708797960764	0	1	NaN	443	8	2	2	120	220	320	NaN	520	0.489599216496572	2	0	NaN	1551619.6411438	NaN	1551620.6245281	1551621.14110238
6	20	0	0	90	36.1581920903955	36.241610738255	9	0.30001971596852	2	6	1	NaN	1	5	0.0205708797960764	0	1	NaN	444	8	3	2	120	220	320	NaN	520	0.277822616510093	1	1	NaN	1551622.9246756	NaN	1551623.9082116	1551624.42476138
6	20	0	0	90	36.1581920903955	36.241610738255	17	0.566703907940537	2	5	5	NaN	1	3	0.0205708797960764	0	1	NaN	445	8	4	2	120	220	320	NaN	520	0.0615980215370655	2	0	NaN	1551625.5250685	NaN	1551626.5084751	1551627.02501518
6	20	0	0	90	36.1581920903955	36.241610738255	8	0.266684191972017	2	12	5	NaN	2	3	0.0205708797960764	0	1	NaN	446	8	5	2	120	220	320	NaN	520	0.88648191629909	2	1	NaN	1551627.9086284	NaN	1551628.8920704	1551629.40857708
6	20	0	0	90	36.1581920903955	36.241610738255	19	0.633374955933541	2	6	5	NaN	1	5	0.0205708797960764	0	1	NaN	447	8	6	2	120	220	320	NaN	520	0.205778821604326	1	1	NaN	1551631.1089429	NaN	1551632.0923555	1551632.60889858
6	20	0	0	90	36.1581920903955	36.241610738255	13	0.433361811954528	2	7	6	NaN	2	5	0.0205708797960764	0	1	NaN	448	8	7	2	120	220	320	NaN	520	0.0885147217195481	1	0	NaN	1551635.8259753	NaN	1551636.8095073	1551637.32602058
6	20	0	0	90	36.1581920903955	36.241610738255	8	0.266684191972017	2	4	6	NaN	1	5	0.0205708797960764	0	1	NaN	449	8	8	2	120	220	320	NaN	520	0.0962217636406422	1	1	NaN	1551638.2263251	NaN	1551639.2097054	1551639.72625254
6	20	0	0	90	36.1581920903955	36.241610738255	18	0.600039431937039	2	4	2	NaN	1	5	0.0205708797960764	0	1	NaN	450	8	9	2	120	220	320	NaN	520	0.280555616598576	1	1	NaN	1551640.6265587	NaN	1551641.6099439	1551642.12650318
6	20	0	0	90	36.1581920903955	36.241610738255	23	0.76671705191955	2	3	1	NaN	1	4	0.0205708797960764	0	1	NaN	451	8	10	2	120	220	320	NaN	520	0.272484921617433	2	0	NaN	1551643.2101533	NaN	1551644.1935479	1551644.71008468
6	20	0	0	90	36.1581920903955	36.241610738255	19	0.633374955933541	2	1	4	NaN	1	3	0.0205708797960764	0	1	NaN	452	8	11	2	120	220	320	NaN	520	0.113235169090331	1	1	NaN	1551645.7937188	NaN	1551646.7771352	1551647.29366873
6	20	0	0	90	36.1581920903955	36.241610738255	14	0.46669733595103	2	10	1	NaN	2	3	0.0205708797960764	0	1	NaN	453	8	12	2	120	220	320	NaN	520	0.159852674230933	2	1	NaN	1551648.2272874	NaN	1551649.2107161	1551649.72724013
6	20	0	0	90	36.1581920903955	36.241610738255	7	0.233348667975515	2	12	3	NaN	2	5	0.0205708797960764	0	1	NaN	454	8	13	2	120	220	320	NaN	520	0.132226294837892	1	0	NaN	1551650.7108606	NaN	1551651.6942848	1551652.21082431
6	20	0	0	90	36.1581920903955	36.241610738255	20	0.666710479930043	2	11	5	NaN	2	4	0.0205708797960764	0	1	NaN	455	8	14	2	120	220	320	NaN	520	0.289375063730404	2	1	NaN	1551653.1777743	NaN	1551654.1611851	1551654.67772624
6	20	0	0	90	36.1581920903955	36.241610738255	24	0.800052575916052	2	11	3	NaN	2	3	0.0205708797960764	0	1	NaN	456	8	15	2	120	220	320	NaN	520	0.112040563719347	1	0	NaN	1551655.7947381	NaN	1551656.7781079	1551657.29465374
6	20	0	0	90	36.1581920903955	36.241610738255	10	0.333355239965022	2	12	6	NaN	2	5	0.0205708797960764	0	1	NaN	457	8	16	2	120	220	320	NaN	520	0.0945511793252081	2	1	NaN	1551658.228162	NaN	1551659.2116695	1551659.72823272
6	20	0	0	90	36.1581920903955	36.241610738255	13	0.433361811954528	2	5	3	NaN	1	4	0.0205708797960764	0	1	NaN	458	8	17	2	120	220	320	NaN	520	0.0104226162657142	1	1	NaN	1551660.6451842	NaN	1551661.6285724	1551662.14512608
6	20	0	0	90	36.1581920903955	36.241610738255	8	0.266684191972017	2	8	2	NaN	2	3	0.0205708797960764	0	1	NaN	459	8	18	2	120	220	320	NaN	520	0.19273891649209	1	0	NaN	1551662.9620553	NaN	1551663.9454822	1551664.46202168
