subjno	age	gender	isPractice	viewdist	CmToPixX	CmToPixY	SOA_frm	SOA_time	targNum	targID	targExample	targRace	targGender	firstTargPos	contrast	familiarity	curr_staircase	iStair	TrialNum	BlockNum	blktrl	sessionNum	TC_FIXATION	TC_RSVP_START	TC_RSVP_END	TC_BLANK	TC_RESPONSE_ONSET	RT2afc	resp_2afc	acc	RSVPOnsetVBL	RSVPOnsetTime	RSVPOffsetVBL	RSVPOffsetTime	startrt_2afc
107	19	0	0	90	36.1581920903955	36.241610738255	24	0.800058144629002	2	12	4	NaN	2	3	0.0758954804430093	1	1	NaN	1	1	1	2	121	221	321	NaN	521	0.479256175458431	2	1	NaN	4478234.8990259	NaN	4478235.8823006	4478236.41542832
107	19	0	0	90	36.1581920903955	36.241610738255	7	0.233350292183459	2	3	1	NaN	1	3	0.0758954804430093	1	1	NaN	2	1	2	2	121	221	321	NaN	521	0.260826275683939	1	1	NaN	4478237.7493288	NaN	4478238.7325706	4478239.26571032
107	19	0	0	90	36.1581920903955	36.241610738255	8	0.266686048209667	2	2	1	NaN	1	3	0.0758954804430093	1	1	NaN	3	1	3	2	121	221	321	NaN	521	0.268841517157853	1	1	NaN	4478240.3493284	NaN	4478241.3327417	4478241.86596788
107	19	0	0	90	36.1581920903955	36.241610738255	24	0.800058144629002	2	10	3	NaN	2	3	0.0758954804430093	1	1	NaN	4	1	4	2	121	221	321	NaN	521	0.588901060633361	2	1	NaN	4478242.9496063	NaN	4478243.9329786	4478244.44954614
107	19	0	0	90	36.1581920903955	36.241610738255	7	0.233350292183459	2	9	5	NaN	2	3	0.0758954804430093	1	1	NaN	5	1	5	2	121	221	321	NaN	521	0.297045717015862	2	1	NaN	4478245.8497846	NaN	4478246.8332741	4478247.34982838
107	19	0	0	90	36.1581920903955	36.241610738255	8	0.266686048209667	2	2	5	NaN	1	4	0.0758954804430093	1	1	NaN	6	1	6	2	121	221	321	NaN	521	0.272024421952665	1	1	NaN	4478248.4668205	NaN	4478249.4502068	4478249.96675818
107	19	0	0	90	36.1581920903955	36.241610738255	8	0.266686048209667	2	4	5	NaN	1	4	0.0758954804430093	1	1	NaN	7	1	7	2	121	221	321	NaN	521	0.248205870389938	1	1	NaN	4478251.0503969	NaN	4478252.0338193	4478252.55033883
107	19	0	0	90	36.1581920903955	36.241610738255	10	0.333357560262084	2	10	4	NaN	2	5	0.0758954804430093	1	1	NaN	8	1	8	2	121	221	321	NaN	521	0.217418369837105	2	1	NaN	4478253.6173522	NaN	4478254.6007078	4478255.11725753
107	19	0	0	90	36.1581920903955	36.241610738255	21	0.700050876550376	2	10	6	NaN	2	3	0.0758954804430093	1	1	NaN	9	1	9	2	121	221	321	NaN	521	0.251611817628145	2	1	NaN	4478256.150899	NaN	4478257.134297	4478257.65084318
107	19	0	0	90	36.1581920903955	36.241610738255	10	0.333357560262084	2	4	1	NaN	1	5	0.0758954804430093	1	1	NaN	10	1	10	2	121	221	321	NaN	521	0.308731722645462	1	1	NaN	4478258.7178201	NaN	4478259.7012129	4478260.21777118
107	19	0	0	90	36.1581920903955	36.241610738255	8	0.266686048209667	2	8	2	NaN	2	4	0.0758954804430093	1	1	NaN	11	1	11	2	121	221	321	NaN	521	0.307176670059562	2	1	NaN	4478261.351396	NaN	4478262.3348044	4478262.85135863
107	19	0	0	90	36.1581920903955	36.241610738255	13	0.433364828340709	2	1	4	NaN	1	3	0.0758954804430093	1	1	NaN	12	1	12	2	121	221	321	NaN	521	0.257798017002642	1	1	NaN	4478263.985077	NaN	4478264.9683949	4478265.48494118
107	19	0	0	90	36.1581920903955	36.241610738255	19	0.63337936449796	2	8	6	NaN	2	5	0.0758954804430093	1	1	NaN	13	1	13	2	121	221	321	NaN	521	0.282032770104706	2	1	NaN	4478266.5685787	NaN	4478267.5519876	4478268.06853423
107	19	0	0	90	36.1581920903955	36.241610738255	21	0.700050876550376	2	12	3	NaN	2	4	0.0758954804430093	1	1	NaN	14	1	14	2	121	221	321	NaN	521	0.193462470546365	2	1	NaN	4478269.1688429	NaN	4478270.1522423	4478270.66878603
107	19	0	0	90	36.1581920903955	36.241610738255	12	0.400029072314501	2	4	3	NaN	1	4	0.0758954804430093	1	1	NaN	15	1	15	2	121	221	321	NaN	521	0.356852070428431	1	1	NaN	4478271.685754	NaN	4478272.6691441	4478273.18570553
107	19	0	0	90	36.1581920903955	36.241610738255	14	0.466700584366918	2	1	3	NaN	1	5	0.0758954804430093	1	1	NaN	16	1	16	2	121	221	321	NaN	521	0.3131422707811	1	1	NaN	4478274.3693645	NaN	4478275.3527441	4478275.86930513
107	19	0	0	90	36.1581920903955	36.241610738255	20	0.666715120524168	2	10	1	NaN	2	3	0.0758954804430093	1	1	NaN	17	1	17	2	121	221	321	NaN	521	0.287933522835374	2	1	NaN	4478277.0029782	NaN	4478277.9863481	4478278.50289738
107	19	0	0	90	36.1581920903955	36.241610738255	23	0.766722388602793	2	1	2	NaN	1	4	0.0758954804430093	1	1	NaN	18	1	18	2	121	221	321	NaN	521	0.303363022394478	1	1	NaN	4478279.6032113	NaN	4478280.5865929	4478281.10315498
107	19	0	0	90	36.1581920903955	36.241610738255	23	0.766722388602793	2	6	2	NaN	1	5	0.0758954804430093	1	1	NaN	19	1	19	2	121	221	321	NaN	521	0.558745870366693	1	1	NaN	4478282.2200178	NaN	4478283.2035241	4478283.72007423
107	19	0	0	90	36.1581920903955	36.241610738255	8	0.266686048209667	2	10	6	NaN	2	5	0.0758954804430093	1	1	NaN	20	1	20	2	121	221	321	NaN	521	0.291073922999203	2	1	NaN	4478285.1037475	NaN	4478286.0871277	4478286.60368428
107	19	0	0	90	36.1581920903955	36.241610738255	7	0.233350292183459	2	11	1	NaN	2	3	0.0758954804430093	1	1	NaN	21	1	21	2	121	221	321	NaN	521	0.282228469848633	2	1	NaN	4478287.7206572	NaN	4478288.7040517	4478289.22060393
107	19	0	0	90	36.1581920903955	36.241610738255	22	0.733386632576585	2	1	3	NaN	1	5	0.0758954804430093	1	1	NaN	22	1	22	2	121	221	321	NaN	521	0.23362632188946	1	1	NaN	4478290.3209197	NaN	4478291.3043024	4478291.82086968
107	19	0	0	90	36.1581920903955	36.241610738255	10	0.333357560262084	2	6	3	NaN	1	5	0.0758954804430093	1	1	NaN	23	1	23	2	121	221	321	NaN	521	0.32379281707108	1	1	NaN	4478292.8712124	NaN	4478293.8546256	4478294.37111408
107	19	0	0	90	36.1581920903955	36.241610738255	23	0.766722388602793	2	9	3	NaN	2	5	0.0758954804430093	1	1	NaN	24	1	24	2	121	221	321	NaN	521	0.473453375510871	2	1	NaN	4478295.521426	NaN	4478296.5048227	4478297.02137212
107	19	0	0	90	36.1581920903955	36.241610738255	24	0.800058144629002	2	6	1	NaN	1	3	0.0758954804430093	1	1	NaN	25	1	25	2	121	221	321	NaN	521	0.441879570484161	1	1	NaN	4478298.305061	NaN	4478299.2884209	4478299.80497803
107	19	0	0	90	36.1581920903955	36.241610738255	15	0.500036340393126	2	2	4	NaN	1	3	0.0758954804430093	1	1	NaN	26	1	26	2	121	221	321	NaN	521	0.370585969649255	1	1	NaN	4478301.0719826	NaN	4478302.055373	4478302.57191493
107	19	0	0	90	36.1581920903955	36.241610738255	0	0	1	9	4	NaN	2	4	0.0758954804430093	1	1	NaN	27	1	27	2	111	211	311	NaN	511	0.375063717365265	2	1	NaN	4478303.7554396	NaN	4478304.7390007	4478305.25551408
107	19	0	0	90	36.1581920903955	36.241610738255	21	0.700050876550376	2	7	6	NaN	2	4	0.0758954804430093	1	1	NaN	28	1	28	2	121	221	321	NaN	521	0.323026270605624	2	1	NaN	4478306.4557868	NaN	4478307.4392229	4478307.95578103
107	19	0	0	90	36.1581920903955	36.241610738255	13	0.433364828340709	2	5	5	NaN	1	5	0.0758954804430093	1	1	NaN	29	1	29	2	121	221	321	NaN	521	0.248970570042729	1	1	NaN	4478309.0892998	NaN	4478310.0728128	4478310.58937303
107	19	0	0	90	36.1581920903955	36.241610738255	21	0.700050876550376	2	4	3	NaN	1	5	0.0758954804430093	1	1	NaN	30	1	30	2	121	221	321	NaN	521	0.242480269633234	2	0	NaN	4478311.6563527	NaN	4478312.6397618	4478313.15628793
107	19	0	0	90	36.1581920903955	36.241610738255	13	0.433364828340709	2	12	5	NaN	2	5	0.0758954804430093	1	1	NaN	31	1	31	2	121	221	321	NaN	521	0.203611217439175	1	0	NaN	4478314.2231332	NaN	4478315.2066613	4478315.72320858
107	19	0	0	90	36.1581920903955	36.241610738255	11	0.366693316288292	2	9	1	NaN	2	5	0.0758954804430093	1	1	NaN	32	1	32	2	121	221	321	NaN	521	0.125870717689395	2	1	NaN	4478316.7568462	NaN	4478317.7402441	4478318.25678508
107	19	0	0	90	36.1581920903955	36.241610738255	15	0.500036340393126	2	6	5	NaN	1	4	0.0758954804430093	1	1	NaN	33	1	33	2	121	221	321	NaN	521	0.29152496997267	1	1	NaN	4478319.2070758	NaN	4478320.1904743	4478320.70702923
107	19	0	0	90	36.1581920903955	36.241610738255	19	0.63337936449796	2	4	6	NaN	1	4	0.0758954804430093	1	1	NaN	34	1	34	2	121	221	321	NaN	521	0.211262322030962	1	1	NaN	4478321.8074439	NaN	4478322.7907328	4478323.30728598
107	19	0	0	90	36.1581920903955	36.241610738255	15	0.500036340393126	2	5	5	NaN	1	3	0.0758954804430093	1	1	NaN	35	1	35	2	121	221	321	NaN	521	0.010391722433269	1	1	NaN	4478324.3409254	NaN	4478325.3243273	4478325.84087558
107	19	0	0	90	36.1581920903955	36.241610738255	14	0.466700584366918	2	8	4	NaN	2	4	0.0758954804430093	1	1	NaN	36	1	36	2	121	221	321	NaN	521	0.232076371088624	2	1	NaN	4478326.6744898	NaN	4478327.6578792	4478328.17443173
107	19	0	0	90	36.1581920903955	36.241610738255	23	0.766722388602793	2	10	4	NaN	2	5	0.0758954804430093	1	1	NaN	37	1	37	2	121	221	321	NaN	521	0.273858370259404	2	1	NaN	4478329.2247286	NaN	4478330.2081509	4478330.72468123
107	19	0	0	90	36.1581920903955	36.241610738255	13	0.433364828340709	2	5	6	NaN	1	3	0.0758954804430093	1	1	NaN	38	1	38	2	121	221	321	NaN	521	0.0103928223252296	1	1	NaN	4478331.8083287	NaN	4478332.7917171	4478333.30826948
107	19	0	0	90	36.1581920903955	36.241610738255	23	0.766722388602793	2	2	6	NaN	1	4	0.0758954804430093	1	1	NaN	39	1	39	2	121	221	321	NaN	521	0.34067527577281	1	1	NaN	4478334.1419016	NaN	4478335.1252868	4478335.64183022
107	19	0	0	90	36.1581920903955	36.241610738255	10	0.333357560262084	2	8	1	NaN	2	4	0.0758954804430093	1	1	NaN	40	1	40	2	121	221	321	NaN	521	0.290288922376931	2	1	NaN	4478336.792155	NaN	4478337.7755471	4478338.29209838
107	19	0	0	90	36.1581920903955	36.241610738255	16	0.533372096419334	2	11	4	NaN	2	5	0.0758954804430093	1	1	NaN	41	1	41	2	121	221	321	NaN	521	0.17828257009387	2	1	NaN	4478339.3923987	NaN	4478340.3758458	4478340.89234853
107	19	0	0	90	36.1581920903955	36.241610738255	11	0.366693316288292	2	2	6	NaN	1	5	0.0758954804430093	1	1	NaN	42	1	42	2	121	221	321	NaN	521	0.149973970837891	1	1	NaN	4478341.8926569	NaN	4478342.8760191	4478343.39258893
107	19	0	0	90	36.1581920903955	36.241610738255	9	0.300021804235876	2	10	3	NaN	2	4	0.0758954804430093	1	1	NaN	43	1	43	2	121	221	321	NaN	521	0.963267870247364	2	1	NaN	4478344.3595422	NaN	4478345.3430628	4478345.85949543
107	19	0	0	90	36.1581920903955	36.241610738255	10	0.333357560262084	2	1	6	NaN	1	5	0.0758954804430093	1	1	NaN	44	1	44	2	121	221	321	NaN	521	0.0104111703112721	1	1	NaN	4478347.6432343	NaN	4478348.6265932	4478349.14315883
107	19	0	0	90	36.1581920903955	36.241610738255	10	0.333357560262084	2	8	6	NaN	2	5	0.0758954804430093	1	1	NaN	45	1	45	2	121	221	321	NaN	521	0.465798470191658	2	1	NaN	4478349.9767848	NaN	4478350.9601716	4478351.47672613
107	19	0	0	90	36.1581920903955	36.241610738255	23	0.766722388602793	2	12	3	NaN	2	5	0.0758954804430093	1	1	NaN	46	1	46	2	121	221	321	NaN	521	0.338205170817673	2	1	NaN	4478352.7603896	NaN	4478353.7437711	4478354.26031813
107	19	0	0	90	36.1581920903955	36.241610738255	7	0.233350292183459	2	2	2	NaN	1	4	0.0758954804430093	1	1	NaN	47	1	47	2	121	221	321	NaN	521	0.320054423063993	1	1	NaN	4478355.4105333	NaN	4478356.3940366	4478356.91058708
107	19	0	0	90	36.1581920903955	36.241610738255	11	0.366693316288292	2	4	2	NaN	1	3	0.0758954804430093	1	1	NaN	48	1	48	2	121	221	321	NaN	521	0.310568117536604	1	1	NaN	4478358.0442081	NaN	4478359.0276258	4478359.54417088
107	19	0	0	90	36.1581920903955	36.241610738255	18	0.600043608471751	2	2	5	NaN	1	3	0.0758954804430093	1	1	NaN	49	1	49	2	121	221	321	NaN	521	0.269170270301402	1	1	NaN	4478360.6778287	NaN	4478361.6612159	4478362.17776723
107	19	0	0	90	36.1581920903955	36.241610738255	7	0.233350292183459	2	5	3	NaN	1	5	0.0758954804430093	1	1	NaN	50	1	50	2	121	221	321	NaN	521	0.317260870710015	1	1	NaN	4478363.2613399	NaN	4478364.2448252	4478364.76134923
107	19	0	0	90	36.1581920903955	36.241610738255	8	0.266686048209667	2	3	6	NaN	1	3	0.0758954804430093	1	1	NaN	51	1	51	2	121	221	321	NaN	521	0.39595347084105	1	1	NaN	4478365.8949874	NaN	4478366.8783969	4478367.39494633
107	19	0	0	90	36.1581920903955	36.241610738255	9	0.300021804235876	2	2	6	NaN	1	4	0.0758954804430093	1	1	NaN	52	1	52	2	121	221	321	NaN	521	0.0103024421259761	1	1	NaN	4478368.6119433	NaN	4478369.5953238	4478370.11189206
107	19	0	0	90	36.1581920903955	36.241610738255	7	0.233350292183459	2	9	5	NaN	2	3	0.0758954804430093	1	1	NaN	53	1	53	2	121	221	321	NaN	521	0.73724031727761	2	1	NaN	4478370.9454997	NaN	4478371.928894	4478372.44544898
107	19	0	0	90	36.1581920903955	36.241610738255	11	0.366693316288292	2	3	2	NaN	1	5	0.0758954804430093	1	1	NaN	54	1	54	2	121	221	321	NaN	521	0.3021768219769	1	1	NaN	4478374.4123749	NaN	4478375.3958977	4478375.91244778
107	19	0	0	90	36.1581920903955	36.241610738255	25	0.83339390065521	2	10	5	NaN	2	5	0.0758954804430093	1	1	NaN	55	1	55	2	121	221	321	NaN	521	0.373429922387004	2	1	NaN	4478377.0293071	NaN	4478378.0128319	4478378.52937068
107	19	0	0	90	36.1581920903955	36.241610738255	14	0.466700584366918	2	9	5	NaN	2	3	0.0758954804430093	1	1	NaN	56	1	56	2	121	221	321	NaN	521	0.273927070200443	2	1	NaN	4478379.7130321	NaN	4478380.6964088	4478381.21296633
107	19	0	0	90	36.1581920903955	36.241610738255	10	0.333357560262084	2	1	6	NaN	1	5	0.0758954804430093	1	1	NaN	57	1	57	2	121	221	321	NaN	521	0.0695567708462477	1	1	NaN	4478382.4132795	NaN	4478383.3966792	4478383.91324013
107	19	0	0	90	36.1581920903955	36.241610738255	7	0.233350292183459	2	10	4	NaN	2	5	0.0758954804430093	1	1	NaN	58	1	58	2	121	221	321	NaN	521	0.269744070246816	2	1	NaN	4478384.7968514	NaN	4478385.7802563	4478386.29679603
107	19	0	0	90	36.1581920903955	36.241610738255	17	0.566707852445543	2	1	1	NaN	1	3	0.0758954804430093	1	1	NaN	59	1	59	2	121	221	321	NaN	521	0.262308670207858	1	1	NaN	4478387.3804372	NaN	4478388.3637446	4478388.88039243
107	19	0	0	90	36.1581920903955	36.241610738255	6	0.20001453615725	2	3	6	NaN	1	5	0.0758954804430093	1	1	NaN	60	1	60	2	121	221	321	NaN	521	0.302768717519939	1	1	NaN	4478389.9640295	NaN	4478390.9474231	4478391.46398538
107	19	0	0	90	36.1581920903955	36.241610738255	16	0.533372096419334	2	8	3	NaN	2	5	0.0758954804430093	1	1	NaN	61	1	61	2	121	221	321	NaN	521	0.282764290459454	2	1	NaN	4478392.6643145	NaN	4478393.6477014	4478394.16423961
107	19	0	0	90	36.1581920903955	36.241610738255	12	0.400029072314501	2	11	2	NaN	2	5	0.0758954804430093	1	1	NaN	62	1	62	2	121	221	321	NaN	521	0.265997743234038	2	1	NaN	4478395.2644189	NaN	4478396.2479401	4478396.76450706
107	19	0	0	90	36.1581920903955	36.241610738255	18	0.600043608471751	2	10	2	NaN	2	4	0.0758954804430093	1	1	NaN	63	1	63	2	121	221	321	NaN	521	0.266865069977939	2	1	NaN	4478397.8481409	NaN	4478398.8315288	4478399.34808903
107	19	0	0	90	36.1581920903955	36.241610738255	0	0	1	6	2	NaN	1	4	0.0758954804430093	1	1	NaN	64	2	1	2	111	211	311	NaN	511	0.745265522971749	1	1	NaN	4478411.6488222	NaN	4478412.6328726	4478413.14944428
107	19	0	0	90	36.1581920903955	36.241610738255	9	0.300021804235876	2	3	6	NaN	1	5	0.0758954804430093	1	1	NaN	65	2	2	2	121	221	321	NaN	521	0.262638522312045	1	1	NaN	4478414.7164541	NaN	4478415.699927	4478416.21640948
107	19	0	0	90	36.1581920903955	36.241610738255	21	0.700050876550376	2	6	6	NaN	1	4	0.0758954804430093	1	1	NaN	66	2	3	2	121	221	321	NaN	521	0.294678070582449	1	1	NaN	4478417.300035	NaN	4478418.2834401	4478418.79999133
107	19	0	0	90	36.1581920903955	36.241610738255	12	0.400029072314501	2	10	6	NaN	2	3	0.0758954804430093	1	1	NaN	67	2	4	2	121	221	321	NaN	521	0.230397332459688	2	1	NaN	4478419.9003053	NaN	4478420.883695	4478421.40025427
107	19	0	0	90	36.1581920903955	36.241610738255	8	0.266686048209667	2	10	5	NaN	2	5	0.0758954804430093	1	1	NaN	68	2	5	2	121	221	321	NaN	521	0.272318970412016	2	1	NaN	4478422.4505922	NaN	4478423.4339572	4478423.95050233
107	19	0	0	90	36.1581920903955	36.241610738255	19	0.63337936449796	2	5	2	NaN	1	5	0.0758954804430093	1	1	NaN	69	2	6	2	121	221	321	NaN	521	0.240701423026621	1	1	NaN	4478425.0341375	NaN	4478426.017532	4478426.53407808
107	19	0	0	90	36.1581920903955	36.241610738255	19	0.63337936449796	2	2	5	NaN	1	4	0.0758954804430093	1	1	NaN	70	2	7	2	121	221	321	NaN	521	0.242441265843809	1	1	NaN	4478427.584379	NaN	4478428.5677899	4478429.08432523
107	19	0	0	90	36.1581920903955	36.241610738255	15	0.500036340393126	2	9	4	NaN	2	4	0.0758954804430093	1	1	NaN	71	2	8	2	121	221	321	NaN	521	0.308442207984626	2	1	NaN	4478430.134519	NaN	4478431.1180527	4478431.63457859
107	19	0	0	90	36.1581920903955	36.241610738255	7	0.233350292183459	2	5	5	NaN	1	4	0.0758954804430093	1	1	NaN	72	2	9	2	121	221	321	NaN	521	0.25917727034539	1	1	NaN	4478432.7515665	NaN	4478433.7349603	4478434.25150153
107	19	0	0	90	36.1581920903955	36.241610738255	0	0	1	7	5	NaN	2	4	0.0758954804430093	1	1	NaN	73	2	10	2	111	211	311	NaN	511	0.0104044219478965	2	1	NaN	4478435.3184845	NaN	4478436.301856	4478436.81842758
107	19	0	0	90	36.1581920903955	36.241610738255	6	0.20001453615725	2	4	3	NaN	1	5	0.0758954804430093	1	1	NaN	74	2	11	2	121	221	321	NaN	521	0.295065017417073	1	1	NaN	4478437.6520421	NaN	4478438.6354673	4478439.15198618
107	19	0	0	90	36.1581920903955	36.241610738255	12	0.400029072314501	2	9	6	NaN	2	5	0.0758954804430093	1	1	NaN	75	2	12	2	121	221	321	NaN	521	0.30998349096626	2	1	NaN	4478440.26896	NaN	4478441.2523521	4478441.76891381
107	19	0	0	90	36.1581920903955	36.241610738255	22	0.733386632576585	2	8	3	NaN	2	5	0.0758954804430093	1	1	NaN	76	2	13	2	121	221	321	NaN	521	0.292918317019939	2	1	NaN	4478442.8858929	NaN	4478443.8693052	4478444.38583538
107	19	0	0	90	36.1581920903955	36.241610738255	11	0.366693316288292	2	2	4	NaN	1	3	0.0758954804430093	1	1	NaN	77	2	14	2	121	221	321	NaN	521	0.283952542580664	1	1	NaN	4478445.5028274	NaN	4478446.486223	4478447.00276106
107	19	0	0	90	36.1581920903955	36.241610738255	11	0.366693316288292	2	1	4	NaN	1	5	0.0758954804430093	1	1	NaN	78	2	15	2	121	221	321	NaN	521	0.300012870691717	1	1	NaN	4478448.1030737	NaN	4478449.0864676	4478449.60301373
107	19	0	0	90	36.1581920903955	36.241610738255	18	0.600043608471751	2	8	4	NaN	2	3	0.0758954804430093	1	1	NaN	79	2	16	2	121	221	321	NaN	521	0.315053785219789	2	1	NaN	4478450.7198652	NaN	4478451.7033878	4478452.21994531
107	19	0	0	90	36.1581920903955	36.241610738255	19	0.63337936449796	2	1	2	NaN	1	4	0.0758954804430093	1	1	NaN	80	2	17	2	121	221	321	NaN	521	0.23416227567941	1	1	NaN	4478453.3367984	NaN	4478454.3202006	4478454.83686272
107	19	0	0	90	36.1581920903955	36.241610738255	23	0.766722388602793	2	7	4	NaN	2	3	0.0758954804430093	1	1	NaN	81	2	18	2	121	221	321	NaN	521	0.299573741853237	2	1	NaN	4478455.8871611	NaN	4478456.8705423	4478457.38712356
107	19	0	0	90	36.1581920903955	36.241610738255	23	0.766722388602793	2	7	3	NaN	2	3	0.0758954804430093	1	1	NaN	82	2	19	2	121	221	321	NaN	521	0.322731890715659	2	1	NaN	4478458.5039564	NaN	4478459.4874857	4478460.00404391
107	19	0	0	90	36.1581920903955	36.241610738255	18	0.600043608471751	2	5	2	NaN	1	5	0.0758954804430093	1	1	NaN	83	2	20	2	121	221	321	NaN	521	0.224974569864571	1	1	NaN	4478461.1376706	NaN	4478462.1209849	4478462.63762783
107	19	0	0	90	36.1581920903955	36.241610738255	23	0.766722388602793	2	12	2	NaN	2	4	0.0758954804430093	1	1	NaN	84	2	21	2	121	221	321	NaN	521	1.01991796959192	2	1	NaN	4478463.6713581	NaN	4478464.6546316	4478465.17121113
107	19	0	0	90	36.1581920903955	36.241610738255	21	0.700050876550376	2	2	3	NaN	1	3	0.0758954804430093	1	1	NaN	85	2	22	2	121	221	321	NaN	521	0.293987155891955	1	1	NaN	4478467.004919	NaN	4478467.9883197	4478468.50486464
107	19	0	0	90	36.1581920903955	36.241610738255	22	0.733386632576585	2	2	4	NaN	1	5	0.0758954804430093	1	1	NaN	86	2	23	2	121	221	321	NaN	521	0.421576117165387	1	1	NaN	4478469.6051826	NaN	4478470.5885688	4478471.10512328
107	19	0	0	90	36.1581920903955	36.241610738255	12	0.400029072314501	2	5	4	NaN	1	4	0.0758954804430093	1	1	NaN	87	2	24	2	121	221	321	NaN	521	0.439958970062435	1	1	NaN	4478472.3387871	NaN	4478473.3221724	4478473.83872143
107	19	0	0	90	36.1581920903955	36.241610738255	14	0.466700584366918	2	9	4	NaN	2	5	0.0758954804430093	1	1	NaN	88	2	25	2	121	221	321	NaN	521	1.12986157089472	2	1	NaN	4478475.0890613	NaN	4478476.0724396	4478476.58898803
107	19	0	0	90	36.1581920903955	36.241610738255	12	0.400029072314501	2	8	5	NaN	2	5	0.0758954804430093	1	1	NaN	89	2	26	2	121	221	321	NaN	521	0.255726423114538	2	1	NaN	4478478.5393978	NaN	4478479.5227737	4478480.03932938
107	19	0	0	90	36.1581920903955	36.241610738255	0	0	1	4	6	NaN	1	5	0.0758954804430093	1	1	NaN	90	2	27	2	111	211	311	NaN	511	1.33670266997069	2	0	NaN	4478481.106307	NaN	4478482.0897065	4478482.60625623
107	19	0	0	90	36.1581920903955	36.241610738255	25	0.83339390065521	2	3	4	NaN	1	5	0.0758954804430093	1	1	NaN	91	2	28	2	121	221	321	NaN	521	0.254209375940263	1	1	NaN	4478484.7566699	NaN	4478485.7400487	4478486.25661182
107	19	0	0	90	36.1581920903955	36.241610738255	7	0.233350292183459	2	10	6	NaN	2	3	0.0758954804430093	1	1	NaN	92	2	29	2	121	221	321	NaN	521	0.295179369859397	2	1	NaN	4478487.3235765	NaN	4478488.3069799	4478488.82353103
107	19	0	0	90	36.1581920903955	36.241610738255	13	0.433364828340709	2	8	5	NaN	2	5	0.0758954804430093	1	1	NaN	93	2	30	2	121	221	321	NaN	521	0.311583071015775	2	1	NaN	4478489.9238479	NaN	4478490.9072253	4478491.42377723
107	19	0	0	90	36.1581920903955	36.241610738255	25	0.83339390065521	2	5	3	NaN	1	4	0.0758954804430093	1	1	NaN	94	2	31	2	121	221	321	NaN	521	0.349639938212931	1	1	NaN	4478492.5574354	NaN	4478493.5408302	4478494.05738176
107	19	0	0	90	36.1581920903955	36.241610738255	8	0.266686048209667	2	12	2	NaN	2	3	0.0758954804430093	1	1	NaN	95	2	32	2	121	221	321	NaN	521	2.00234702322632	2	1	NaN	4478495.224363	NaN	4478496.2077759	4478496.72430118
107	19	0	0	90	36.1581920903955	36.241610738255	18	0.600043608471751	2	1	5	NaN	1	3	0.0758954804430093	1	1	NaN	96	2	33	2	121	221	321	NaN	521	0.653354165144265	1	1	NaN	4478499.5414485	NaN	4478500.5248353	4478501.04139333
107	19	0	0	90	36.1581920903955	36.241610738255	23	0.766722388602793	2	10	2	NaN	2	3	0.0758954804430093	1	1	NaN	97	2	34	2	121	221	321	NaN	521	0.29426752217114	2	1	NaN	4478502.5084152	NaN	4478503.4917976	4478504.00834938
107	19	0	0	90	36.1581920903955	36.241610738255	13	0.433364828340709	2	6	1	NaN	1	3	0.0758954804430093	1	1	NaN	98	2	35	2	121	221	321	NaN	521	0.270527170971036	1	1	NaN	4478505.1086612	NaN	4478506.092063	4478506.60860013
107	19	0	0	90	36.1581920903955	36.241610738255	19	0.63337936449796	2	5	4	NaN	1	5	0.0758954804430093	1	1	NaN	99	2	36	2	121	221	321	NaN	521	0.286581422202289	1	1	NaN	4478507.6922459	NaN	4478508.6756471	4478509.19219898
107	19	0	0	90	36.1581920903955	36.241610738255	0	0	1	12	6	NaN	2	5	0.0758954804430093	1	1	NaN	100	2	37	2	111	211	311	NaN	511	0.262524470686913	2	1	NaN	4478510.2925013	NaN	4478511.2758993	4478511.79245613
107	19	0	0	90	36.1581920903955	36.241610738255	6	0.20001453615725	2	4	3	NaN	1	4	0.0758954804430093	1	1	NaN	101	2	38	2	121	221	321	NaN	521	0.511502170003951	1	1	NaN	4478512.8594274	NaN	4478513.8428041	4478514.35937453
107	19	0	0	90	36.1581920903955	36.241610738255	24	0.800058144629002	2	7	2	NaN	2	5	0.0758954804430093	1	1	NaN	102	2	39	2	121	221	321	NaN	521	0.302515718154609	1	0	NaN	4478515.6763642	NaN	4478516.659772	4478517.17630358
107	19	0	0	90	36.1581920903955	36.241610738255	19	0.63337936449796	2	12	5	NaN	2	5	0.0758954804430093	1	1	NaN	103	2	40	2	121	221	321	NaN	521	0.253685670904815	2	1	NaN	4478518.293183	NaN	4478519.2767136	4478519.79322823
107	19	0	0	90	36.1581920903955	36.241610738255	13	0.433364828340709	2	3	4	NaN	1	4	0.0758954804430093	1	1	NaN	104	2	41	2	121	221	321	NaN	521	0.20710327103734	1	1	NaN	4478520.8602096	NaN	4478521.8436029	4478522.36015773
107	19	0	0	90	36.1581920903955	36.241610738255	14	0.466700584366918	2	12	2	NaN	2	5	0.0758954804430093	1	1	NaN	105	2	42	2	121	221	321	NaN	521	0.0104011222720146	2	1	NaN	4478523.3772022	NaN	4478524.3605085	4478524.87706858
107	19	0	0	90	36.1581920903955	36.241610738255	0	0	1	9	2	NaN	2	5	0.0758954804430093	1	1	NaN	106	2	43	2	111	211	311	NaN	511	0.0104208169505	1	0	NaN	4478525.6940165	NaN	4478526.6774245	4478527.19396438
107	19	0	0	90	36.1581920903955	36.241610738255	17	0.566707852445543	2	10	5	NaN	2	4	0.0758954804430093	1	1	NaN	107	2	44	2	121	221	321	NaN	521	0.152107422240078	2	1	NaN	4478528.0109171	NaN	4478528.9943005	4478529.51085778
107	19	0	0	90	36.1581920903955	36.241610738255	25	0.83339390065521	2	2	5	NaN	1	5	0.0758954804430093	1	1	NaN	108	2	45	2	121	221	321	NaN	521	0.269148317165673	1	1	NaN	4478530.4776973	NaN	4478531.4612092	4478531.97775798
107	19	0	0	90	36.1581920903955	36.241610738255	11	0.366693316288292	2	5	6	NaN	1	5	0.0758954804430093	1	1	NaN	109	2	46	2	121	221	321	NaN	521	0.315517922863364	1	1	NaN	4478533.3114177	NaN	4478534.2948004	4478534.81137648
107	19	0	0	90	36.1581920903955	36.241610738255	16	0.533372096419334	2	9	2	NaN	2	4	0.0758954804430093	1	1	NaN	110	2	47	2	121	221	321	NaN	521	0.298204023391008	2	1	NaN	4478535.9450378	NaN	4478536.9284418	4478537.44495988
107	19	0	0	90	36.1581920903955	36.241610738255	11	0.366693316288292	2	6	6	NaN	1	3	0.0758954804430093	1	1	NaN	111	2	48	2	121	221	321	NaN	521	0.0103909755125642	1	1	NaN	4478538.5619385	NaN	4478539.5453385	4478540.06188662
107	19	0	0	90	36.1581920903955	36.241610738255	19	0.63337936449796	2	3	1	NaN	1	3	0.0758954804430093	1	1	NaN	112	2	49	2	121	221	321	NaN	521	0.0521964421495795	1	1	NaN	4478540.8788414	NaN	4478541.8622361	4478542.37878456
107	19	0	0	90	36.1581920903955	36.241610738255	10	0.333357560262084	2	6	1	NaN	1	5	0.0758954804430093	1	1	NaN	113	2	50	2	121	221	321	NaN	521	0.901073375716805	1	1	NaN	4478543.245744	NaN	4478544.229127	4478544.74569112
107	19	0	0	90	36.1581920903955	36.241610738255	19	0.63337936449796	2	4	4	NaN	1	3	0.0758954804430093	1	1	NaN	114	2	51	2	121	221	321	NaN	521	0.251803169958293	1	1	NaN	4478546.8793985	NaN	4478547.8628205	4478548.37937673
107	19	0	0	90	36.1581920903955	36.241610738255	24	0.800058144629002	2	5	5	NaN	1	3	0.0758954804430093	1	1	NaN	115	2	52	2	121	221	321	NaN	521	0.588166490197182	2	0	NaN	4478549.8629297	NaN	4478550.8464863	4478551.36300091
107	19	0	0	90	36.1581920903955	36.241610738255	18	0.600043608471751	2	4	5	NaN	1	5	0.0758954804430093	1	1	NaN	116	2	53	2	121	221	321	NaN	521	0.127749070525169	1	1	NaN	4478552.7633275	NaN	4478553.7467339	4478554.26328133
107	19	0	0	90	36.1581920903955	36.241610738255	6	0.20001453615725	2	5	3	NaN	1	5	0.0758954804430093	1	1	NaN	117	2	54	2	121	221	321	NaN	521	0.0104014221578836	1	1	NaN	4478555.1968813	NaN	4478556.1802878	4478556.69685828
107	19	0	0	90	36.1581920903955	36.241610738255	24	0.800058144629002	2	11	6	NaN	2	4	0.0758954804430093	1	1	NaN	118	2	55	2	121	221	321	NaN	521	0.144816670566797	2	1	NaN	4478557.5304675	NaN	4478558.5138683	4478559.03042143
107	19	0	0	90	36.1581920903955	36.241610738255	17	0.566707852445543	2	3	5	NaN	1	5	0.0758954804430093	1	1	NaN	119	2	56	2	121	221	321	NaN	521	0.230483470484614	1	1	NaN	4478559.9806104	NaN	4478560.9640912	4478561.48066573
107	19	0	0	90	36.1581920903955	36.241610738255	0	0	1	12	3	NaN	2	5	0.0758954804430093	1	1	NaN	120	2	57	2	111	211	311	NaN	511	0.266842117533088	1	0	NaN	4478562.8642004	NaN	4478563.8477401	4478564.36426698
107	19	0	0	90	36.1581920903955	36.241610738255	18	0.600043608471751	2	11	2	NaN	2	3	0.0758954804430093	1	1	NaN	121	2	58	2	121	221	321	NaN	521	0.0324346702545881	1	0	NaN	4478565.7146113	NaN	4478566.6979944	4478567.21455313
107	19	0	0	90	36.1581920903955	36.241610738255	9	0.300021804235876	2	9	5	NaN	2	4	0.0758954804430093	1	1	NaN	122	2	59	2	121	221	321	NaN	521	0.242160370573401	2	1	NaN	4478568.0648346	NaN	4478569.048223	4478569.56478323
107	19	0	0	90	36.1581920903955	36.241610738255	6	0.20001453615725	2	8	4	NaN	2	3	0.0758954804430093	1	1	NaN	123	2	60	2	121	221	321	NaN	521	0.100080822594464	2	1	NaN	4478570.6150796	NaN	4478571.5984761	4478572.11503338
107	19	0	0	90	36.1581920903955	36.241610738255	24	0.800058144629002	2	2	3	NaN	1	3	0.0758954804430093	1	1	NaN	124	2	61	2	121	221	321	NaN	521	0.202950070612133	1	1	NaN	4478573.0319828	NaN	4478574.0154168	4478574.53193693
107	19	0	0	90	36.1581920903955	36.241610738255	15	0.500036340393126	2	8	4	NaN	2	4	0.0758954804430093	1	1	NaN	125	2	62	2	121	221	321	NaN	521	0.010426270775497	2	1	NaN	4478575.5489163	NaN	4478576.5323303	4478577.04884803
107	19	0	0	90	36.1581920903955	36.241610738255	6	0.20001453615725	2	7	1	NaN	2	4	0.0758954804430093	1	1	NaN	126	2	63	2	121	221	321	NaN	521	0.21745347045362	2	1	NaN	4478577.8656701	NaN	4478578.8492009	4478579.36575343
107	19	0	0	90	36.1581920903955	36.241610738255	18	0.600043608471751	2	12	5	NaN	2	5	0.0758954804430093	1	1	NaN	127	3	1	2	121	221	321	NaN	521	0.544359469786286	1	0	NaN	4478594.4507643	NaN	4478595.4341638	4478595.95070583
107	19	0	0	90	36.1581920903955	36.241610738255	20	0.666715120524168	2	9	1	NaN	2	5	0.0758954804430093	1	1	NaN	128	3	2	2	121	221	321	NaN	521	0.342349616810679	2	1	NaN	4478597.3010448	NaN	4478598.2844332	4478598.80098398
107	19	0	0	90	36.1581920903955	36.241610738255	14	0.466700584366918	2	7	5	NaN	2	5	0.0758954804430093	1	1	NaN	129	3	3	2	121	221	321	NaN	521	0.290430370718241	1	0	NaN	4478600.1846264	NaN	4478601.1680492	4478601.68460503
107	19	0	0	90	36.1581920903955	36.241610738255	8	0.266686048209667	2	5	4	NaN	1	5	0.0758954804430093	1	1	NaN	130	3	4	2	121	221	321	NaN	521	0.377942817285657	1	1	NaN	4478602.7849282	NaN	4478603.7682975	4478604.28485698
107	19	0	0	90	36.1581920903955	36.241610738255	17	0.566707852445543	2	12	4	NaN	2	5	0.0758954804430093	1	1	NaN	131	3	5	2	121	221	321	NaN	521	0.368619912303984	1	0	NaN	4478605.818522	NaN	4478606.8019441	4478607.31848599
107	19	0	0	90	36.1581920903955	36.241610738255	9	0.300021804235876	2	4	6	NaN	1	3	0.0758954804430093	1	1	NaN	132	3	6	2	121	221	321	NaN	521	0.31704287044704	1	1	NaN	4478608.5020582	NaN	4478609.4855385	4478610.00208463
107	19	0	0	90	36.1581920903955	36.241610738255	9	0.300021804235876	2	7	6	NaN	2	4	0.0758954804430093	1	1	NaN	133	3	7	2	121	221	321	NaN	521	0.308198717422783	2	1	NaN	4478611.1191218	NaN	4478612.1024389	4478612.61900788
107	19	0	0	90	36.1581920903955	36.241610738255	13	0.433364828340709	2	3	3	NaN	1	3	0.0758954804430093	1	1	NaN	134	3	8	2	121	221	321	NaN	521	0.315057622268796	1	1	NaN	4478613.7359896	NaN	4478614.7194017	4478615.23593218
107	19	0	0	90	36.1581920903955	36.241610738255	0	0	1	4	2	NaN	1	4	0.0758954804430093	1	1	NaN	135	3	9	2	111	211	311	NaN	511	0.289864370599389	1	1	NaN	4478616.3695679	NaN	4478617.352976	4478617.86952223
107	19	0	0	90	36.1581920903955	36.241610738255	24	0.800058144629002	2	11	3	NaN	2	3	0.0758954804430093	1	1	NaN	136	3	10	2	121	221	321	NaN	521	1.44111134298146	1	0	NaN	4478618.9698342	NaN	4478619.9532312	4478620.46977856
107	19	0	0	90	36.1581920903955	36.241610738255	15	0.500036340393126	2	4	5	NaN	1	5	0.0758954804430093	1	1	NaN	137	3	11	2	121	221	321	NaN	521	0.219176670536399	1	1	NaN	4478622.7201817	NaN	4478623.7036008	4478624.22015213
107	19	0	0	90	36.1581920903955	36.241610738255	10	0.333357560262084	2	11	5	NaN	2	5	0.0758954804430093	1	1	NaN	138	3	12	2	121	221	321	NaN	521	1.62984037585557	1	0	NaN	4478625.2536597	NaN	4478626.2370776	4478626.75373022
107	19	0	0	90	36.1581920903955	36.241610738255	8	0.266686048209667	2	11	2	NaN	2	5	0.0758954804430093	1	1	NaN	139	3	13	2	121	221	321	NaN	521	0.198936717584729	2	1	NaN	4478629.2041701	NaN	4478630.1875742	4478630.70411098
107	19	0	0	90	36.1581920903955	36.241610738255	6	0.20001453615725	2	7	3	NaN	2	3	0.0758954804430093	1	1	NaN	140	3	14	2	121	221	321	NaN	521	0.274491121992469	2	1	NaN	4478631.704411	NaN	4478632.6878636	4478633.20436978
107	19	0	0	90	36.1581920903955	36.241610738255	25	0.83339390065521	2	3	4	NaN	1	5	0.0758954804430093	1	1	NaN	141	3	15	2	121	221	321	NaN	521	0.859031490981579	1	1	NaN	4478634.2880223	NaN	4478635.2713973	4478635.78795581
107	19	0	0	90	36.1581920903955	36.241610738255	12	0.400029072314501	2	3	1	NaN	1	3	0.0758954804430093	1	1	NaN	142	3	16	2	121	221	321	NaN	521	0.316280822269619	1	1	NaN	4478637.4549914	NaN	4478638.4383737	4478638.95493188
107	19	0	0	90	36.1581920903955	36.241610738255	12	0.400029072314501	2	1	2	NaN	1	3	0.0758954804430093	1	1	NaN	143	3	17	2	121	221	321	NaN	521	0.338477870449424	1	1	NaN	4478640.08867	NaN	4478641.0720107	4478641.58852513
107	19	0	0	90	36.1581920903955	36.241610738255	20	0.666715120524168	2	2	4	NaN	1	4	0.0758954804430093	1	1	NaN	144	3	18	2	121	221	321	NaN	521	0.320211170241237	1	1	NaN	4478643.1388721	NaN	4478644.1222594	4478644.63881523
107	19	0	0	90	36.1581920903955	36.241610738255	15	0.500036340393126	2	8	5	NaN	2	3	0.0758954804430093	1	1	NaN	145	3	19	2	121	221	321	NaN	521	0.358928170055151	2	1	NaN	4478645.7723245	NaN	4478646.7558639	4478647.27240463
107	19	0	0	90	36.1581920903955	36.241610738255	10	0.333357560262084	2	5	3	NaN	1	4	0.0758954804430093	1	1	NaN	146	3	20	2	121	221	321	NaN	521	0.37159781716764	1	1	NaN	4478648.4394323	NaN	4478649.4227785	4478649.93934058
107	19	0	0	90	36.1581920903955	36.241610738255	15	0.500036340393126	2	1	4	NaN	1	4	0.0758954804430093	1	1	NaN	147	3	21	2	121	221	321	NaN	521	0.286474080756307	1	1	NaN	4478651.1563009	NaN	4478652.1397276	4478652.65628232
107	19	0	0	90	36.1581920903955	36.241610738255	7	0.233350292183459	2	6	5	NaN	1	4	0.0758954804430093	1	1	NaN	148	3	22	2	121	221	321	NaN	521	0.462783871218562	1	1	NaN	4478653.7565642	NaN	4478654.7399739	4478655.25652803
107	19	0	0	90	36.1581920903955	36.241610738255	17	0.566707852445543	2	8	6	NaN	2	5	0.0758954804430093	1	1	NaN	149	3	23	2	121	221	321	NaN	521	0.0103968223556876	2	1	NaN	4478656.5401748	NaN	4478657.5235767	4478658.04013588
107	19	0	0	90	36.1581920903955	36.241610738255	16	0.533372096419334	2	6	5	NaN	1	5	0.0758954804430093	1	1	NaN	150	3	24	2	121	221	321	NaN	521	0.226327522657812	2	0	NaN	4478658.8571078	NaN	4478659.840519	4478660.35702738
107	19	0	0	90	36.1581920903955	36.241610738255	21	0.700050876550376	2	11	5	NaN	2	5	0.0758954804430093	1	1	NaN	151	3	25	2	121	221	321	NaN	521	0.220367870293558	2	1	NaN	4478661.3906297	NaN	4478662.374058	4478662.89060843
107	19	0	0	90	36.1581920903955	36.241610738255	25	0.83339390065521	2	12	6	NaN	2	3	0.0758954804430093	1	1	NaN	152	3	26	2	121	221	321	NaN	521	0.119202670641243	2	1	NaN	4478663.9242542	NaN	4478664.9076417	4478665.42418613
107	19	0	0	90	36.1581920903955	36.241610738255	12	0.400029072314501	2	6	6	NaN	1	4	0.0758954804430093	1	1	NaN	153	3	27	2	121	221	321	NaN	521	0.0103910220786929	1	1	NaN	4478666.3578228	NaN	4478667.34122	4478667.85776428
107	19	0	0	90	36.1581920903955	36.241610738255	6	0.20001453615725	2	6	6	NaN	1	3	0.0758954804430093	1	1	NaN	154	3	28	2	121	221	321	NaN	521	0.464426822960377	1	1	NaN	4478668.674575	NaN	4478669.6581031	4478670.17465268
107	19	0	0	90	36.1581920903955	36.241610738255	20	0.666715120524168	2	12	1	NaN	2	3	0.0758954804430093	1	1	NaN	155	3	29	2	121	221	321	NaN	521	0.248929070308805	2	1	NaN	4478671.4583116	NaN	4478672.4417121	4478672.95826163
107	19	0	0	90	36.1581920903955	36.241610738255	14	0.466700584366918	2	10	6	NaN	2	4	0.0758954804430093	1	1	NaN	156	3	30	2	121	221	321	NaN	521	0.377766970545053	2	1	NaN	4478674.0252464	NaN	4478675.0086297	4478675.52517713
107	19	0	0	90	36.1581920903955	36.241610738255	15	0.500036340393126	2	3	1	NaN	1	4	0.0758954804430093	1	1	NaN	157	3	31	2	121	221	321	NaN	521	0.3101921165362	1	1	NaN	4478676.7088413	NaN	4478677.6922145	4478678.20877628
107	19	0	0	90	36.1581920903955	36.241610738255	13	0.433364828340709	2	7	1	NaN	2	3	0.0758954804430093	1	1	NaN	158	3	32	2	121	221	321	NaN	521	0.26859909016639	2	1	NaN	4478679.3424206	NaN	4478680.3258494	4478680.84237321
107	19	0	0	90	36.1581920903955	36.241610738255	13	0.433364828340709	2	11	3	NaN	2	4	0.0758954804430093	1	1	NaN	159	3	33	2	121	221	321	NaN	521	0.877542217262089	2	1	NaN	4478682.3094098	NaN	4478683.2927697	4478683.80932948
107	19	0	0	90	36.1581920903955	36.241610738255	12	0.400029072314501	2	2	1	NaN	1	5	0.0758954804430093	1	1	NaN	160	3	34	2	121	221	321	NaN	521	0.325703070499003	1	1	NaN	4478685.5097002	NaN	4478686.4931289	4478687.00963673
107	19	0	0	90	36.1581920903955	36.241610738255	22	0.733386632576585	2	10	6	NaN	2	5	0.0758954804430093	1	1	NaN	161	3	35	2	121	221	321	NaN	521	0.429281617514789	2	1	NaN	4478688.510081	NaN	4478689.4933902	4478690.00993628
107	19	0	0	90	36.1581920903955	36.241610738255	15	0.500036340393126	2	3	3	NaN	1	4	0.0758954804430093	1	1	NaN	162	3	36	2	121	221	321	NaN	521	0.303493021987379	1	1	NaN	4478691.2436007	NaN	4478692.2269738	4478692.74353978
107	19	0	0	90	36.1581920903955	36.241610738255	17	0.566707852445543	2	1	5	NaN	1	3	0.0758954804430093	1	1	NaN	163	3	37	2	121	221	321	NaN	521	0.294933817349374	1	1	NaN	4478693.860507	NaN	4478694.8439233	4478695.36046048
107	19	0	0	90	36.1581920903955	36.241610738255	22	0.733386632576585	2	6	3	NaN	1	5	0.0758954804430093	1	1	NaN	164	3	38	2	121	221	321	NaN	521	0.366436489857733	1	1	NaN	4478696.4607737	NaN	4478697.4441709	4478697.96071631
107	19	0	0	90	36.1581920903955	36.241610738255	16	0.533372096419334	2	10	1	NaN	2	3	0.0758954804430093	1	1	NaN	165	3	39	2	121	221	321	NaN	521	0.281363565474749	2	1	NaN	4478699.5776191	NaN	4478700.5611709	4478701.07770693
107	19	0	0	90	36.1581920903955	36.241610738255	17	0.566707852445543	2	4	5	NaN	1	3	0.0758954804430093	1	1	NaN	166	3	40	2	121	221	321	NaN	521	0.377488270401955	1	1	NaN	4478702.1780074	NaN	4478703.1613888	4478703.67793793
107	19	0	0	90	36.1581920903955	36.241610738255	8	0.266686048209667	2	3	6	NaN	1	5	0.0758954804430093	1	1	NaN	167	3	41	2	121	221	321	NaN	521	0.197900517843664	1	1	NaN	4478704.8615931	NaN	4478705.8449968	4478706.36155298
107	19	0	0	90	36.1581920903955	36.241610738255	25	0.83339390065521	2	10	5	NaN	2	5	0.0758954804430093	1	1	NaN	168	3	42	2	121	221	321	NaN	521	0.200932716950774	2	1	NaN	4478707.3785284	NaN	4478708.3619107	4478708.87845698
107	19	0	0	90	36.1581920903955	36.241610738255	25	0.83339390065521	2	4	2	NaN	1	3	0.0758954804430093	1	1	NaN	169	3	43	2	121	221	321	NaN	521	0.188699470832944	1	1	NaN	4478709.8788656	NaN	4478710.8621261	4478711.37869493
107	19	0	0	90	36.1581920903955	36.241610738255	23	0.766722388602793	2	3	4	NaN	1	4	0.0758954804430093	1	1	NaN	170	3	44	2	121	221	321	NaN	521	0.232181742787361	1	1	NaN	4478712.3790165	NaN	4478713.3623862	4478713.87894446
107	19	0	0	90	36.1581920903955	36.241610738255	11	0.366693316288292	2	8	6	NaN	2	5	0.0758954804430093	1	1	NaN	171	3	45	2	121	221	321	NaN	521	0.0499665699899197	2	1	NaN	4478714.9292574	NaN	4478715.9126496	4478716.42919493
107	19	0	0	90	36.1581920903955	36.241610738255	22	0.733386632576585	2	12	1	NaN	2	3	0.0758954804430093	1	1	NaN	172	3	46	2	121	221	321	NaN	521	0.283767970278859	2	1	NaN	4478717.2794043	NaN	4478718.2628757	4478718.77942713
107	19	0	0	90	36.1581920903955	36.241610738255	20	0.666715120524168	2	3	3	NaN	1	3	0.0758954804430093	1	1	NaN	173	3	47	2	121	221	321	NaN	521	0.0104565173387527	1	1	NaN	4478719.8795954	NaN	4478720.8631322	4478721.37967728
107	19	0	0	90	36.1581920903955	36.241610738255	16	0.533372096419334	2	12	1	NaN	2	3	0.0758954804430093	1	1	NaN	174	3	48	2	121	221	321	NaN	521	0.253909522667527	2	1	NaN	4478722.213293	NaN	4478723.1966879	4478723.71323948
107	19	0	0	90	36.1581920903955	36.241610738255	20	0.666715120524168	2	11	1	NaN	2	4	0.0758954804430093	1	1	NaN	175	3	49	2	121	221	321	NaN	521	0.0104071702808142	1	0	NaN	4478724.7802205	NaN	4478725.763652	4478726.28016873
107	19	0	0	90	36.1581920903955	36.241610738255	15	0.500036340393126	2	6	3	NaN	1	5	0.0758954804430093	1	1	NaN	176	3	50	2	121	221	321	NaN	521	0.0554147697985172	1	1	NaN	4478727.1637566	NaN	4478728.1471769	4478728.66373083
107	19	0	0	90	36.1581920903955	36.241610738255	21	0.700050876550376	2	11	3	NaN	2	3	0.0758954804430093	1	1	NaN	177	3	51	2	121	221	321	NaN	521	0.34348567109555	2	1	NaN	4478729.7640105	NaN	4478730.747437	4478731.26398533
107	19	0	0	90	36.1581920903955	36.241610738255	19	0.63337936449796	2	7	5	NaN	2	3	0.0758954804430093	1	1	NaN	178	3	52	2	121	221	321	NaN	521	0.26121982280165	2	1	NaN	4478732.4143268	NaN	4478733.3976783	4478733.91424998
107	19	0	0	90	36.1581920903955	36.241610738255	25	0.83339390065521	2	11	1	NaN	2	3	0.0758954804430093	1	1	NaN	179	3	53	2	121	221	321	NaN	521	1.2056071171537	2	1	NaN	4478734.9978814	NaN	4478735.9813211	4478736.49782798
107	19	0	0	90	36.1581920903955	36.241610738255	11	0.366693316288292	2	9	3	NaN	2	5	0.0758954804430093	1	1	NaN	180	3	54	2	121	221	321	NaN	521	0.144588322378695	2	1	NaN	4478738.5149007	NaN	4478739.4982917	4478740.01486018
107	19	0	0	90	36.1581920903955	36.241610738255	24	0.800058144629002	2	5	1	NaN	1	5	0.0758954804430093	1	1	NaN	181	3	55	2	121	221	321	NaN	521	0.126039870083332	1	1	NaN	4478740.9650348	NaN	4478741.948574	4478742.46508253
107	19	0	0	90	36.1581920903955	36.241610738255	20	0.666715120524168	2	1	4	NaN	1	5	0.0758954804430093	1	1	NaN	182	3	56	2	121	221	321	NaN	521	0.396714670583606	2	0	NaN	4478743.3987082	NaN	4478744.3820972	4478744.89865463
107	19	0	0	90	36.1581920903955	36.241610738255	12	0.400029072314501	2	12	3	NaN	2	3	0.0758954804430093	1	1	NaN	183	3	57	2	121	221	321	NaN	521	0.183773070573807	1	0	NaN	4478746.1156509	NaN	4478747.0990393	4478747.61558653
107	19	0	0	90	36.1581920903955	36.241610738255	12	0.400029072314501	2	4	1	NaN	1	4	0.0758954804430093	1	1	NaN	184	3	58	2	121	221	321	NaN	521	0.0104107707738876	1	1	NaN	4478748.6158936	NaN	4478749.5992807	4478750.11583383
107	19	0	0	90	36.1581920903955	36.241610738255	17	0.566707852445543	2	6	5	NaN	1	3	0.0758954804430093	1	1	NaN	185	3	59	2	121	221	321	NaN	521	0.173785470426083	1	1	NaN	4478750.9494448	NaN	4478751.9328323	4478752.44939173
107	19	0	0	90	36.1581920903955	36.241610738255	13	0.433364828340709	2	4	6	NaN	1	5	0.0758954804430093	1	1	NaN	186	3	60	2	121	221	321	NaN	521	0.0982049228623509	1	1	NaN	4478753.4331233	NaN	4478754.41645	4478754.93297478
107	19	0	0	90	36.1581920903955	36.241610738255	18	0.600043608471751	2	5	4	NaN	1	4	0.0758954804430093	1	1	NaN	187	3	61	2	121	221	321	NaN	521	0.185220865532756	1	1	NaN	4478755.8499124	NaN	4478756.8333307	4478757.34987133
107	19	0	0	90	36.1581920903955	36.241610738255	10	0.333357560262084	2	4	3	NaN	1	5	0.0758954804430093	1	1	NaN	188	3	62	2	121	221	321	NaN	521	0.181025070138276	1	1	NaN	4478758.3501803	NaN	4478759.3336588	4478759.85012803
107	19	0	0	90	36.1581920903955	36.241610738255	9	0.300021804235876	2	1	3	NaN	1	5	0.0758954804430093	1	1	NaN	189	3	63	2	121	221	321	NaN	521	0.0568405175581574	1	1	NaN	4478760.850432	NaN	4478761.8338432	4478762.35036188
107	19	0	0	90	36.1581920903955	36.241610738255	7	0.233350292183459	2	7	3	NaN	2	3	0.0758954804430093	1	1	NaN	190	4	1	2	121	221	321	NaN	521	0.604161471128464	2	1	NaN	4478784.9193169	NaN	4478785.9028456	4478786.41939513
107	19	0	0	90	36.1581920903955	36.241610738255	17	0.566707852445543	2	10	5	NaN	2	5	0.0758954804430093	1	1	NaN	191	4	2	2	121	221	321	NaN	521	0.343054127879441	2	1	NaN	4478787.8363932	NaN	4478788.8197951	4478789.33635667
107	19	0	0	90	36.1581920903955	36.241610738255	6	0.20001453615725	2	11	4	NaN	2	3	0.0758954804430093	1	1	NaN	192	4	3	2	121	221	321	NaN	521	0.428925571031868	2	1	NaN	4478790.4866842	NaN	4478791.4700636	4478791.98660993
107	19	0	0	90	36.1581920903955	36.241610738255	21	0.700050876550376	2	2	2	NaN	1	5	0.0758954804430093	1	1	NaN	193	4	4	2	121	221	321	NaN	521	0.2305375225842	1	1	NaN	4478793.2369297	NaN	4478794.2203244	4478794.73688618
107	19	0	0	90	36.1581920903955	36.241610738255	16	0.533372096419334	2	2	2	NaN	1	4	0.0758954804430093	1	1	NaN	194	4	5	2	121	221	321	NaN	521	0.0104039702564478	1	1	NaN	4478795.7703925	NaN	4478796.7539132	4478797.27045943
107	19	0	0	90	36.1581920903955	36.241610738255	12	0.400029072314501	2	3	3	NaN	1	3	0.0758954804430093	1	1	NaN	195	4	6	2	121	221	321	NaN	521	0.196078170090914	1	1	NaN	4478798.0872629	NaN	4478799.0707964	4478799.58736193
107	19	0	0	90	36.1581920903955	36.241610738255	11	0.366693316288292	2	10	5	NaN	2	5	0.0758954804430093	1	1	NaN	196	4	7	2	121	221	321	NaN	521	0.207554670982063	2	1	NaN	4478800.5876771	NaN	4478801.571053	4478802.08759943
107	19	0	0	90	36.1581920903955	36.241610738255	18	0.600043608471751	2	8	1	NaN	2	4	0.0758954804430093	1	1	NaN	197	4	8	2	121	221	321	NaN	521	0.243052142672241	2	1	NaN	4478803.1045642	NaN	4478804.087967	4478804.60451416
107	19	0	0	90	36.1581920903955	36.241610738255	16	0.533372096419334	2	12	2	NaN	2	5	0.0758954804430093	1	1	NaN	198	4	9	2	121	221	321	NaN	521	0.348171371035278	2	1	NaN	4478805.6548165	NaN	4478806.6382099	4478807.15476103
107	19	0	0	90	36.1581920903955	36.241610738255	21	0.700050876550376	2	3	2	NaN	1	4	0.0758954804430093	1	1	NaN	199	4	10	2	121	221	321	NaN	521	0.233569069765508	1	1	NaN	4478808.3217485	NaN	4478809.3051408	4478809.82168723
107	19	0	0	90	36.1581920903955	36.241610738255	0	0	1	6	2	NaN	1	4	0.0758954804430093	1	1	NaN	200	4	11	2	111	211	311	NaN	511	0.812752770259976	2	0	NaN	4478811.2386641	NaN	4478812.2220964	4478812.73864493
107	19	0	0	90	36.1581920903955	36.241610738255	6	0.20001453615725	2	8	6	NaN	2	5	0.0758954804430093	1	1	NaN	201	4	12	2	121	221	321	NaN	521	0.127714070491493	2	1	NaN	4478814.3557063	NaN	4478815.3390712	4478815.85561153
107	19	0	0	90	36.1581920903955	36.241610738255	25	0.83339390065521	2	1	6	NaN	1	3	0.0758954804430093	1	1	NaN	202	4	13	2	121	221	321	NaN	521	0.326236370950937	1	1	NaN	4478816.7892198	NaN	4478817.7726402	4478818.28918833
107	19	0	0	90	36.1581920903955	36.241610738255	16	0.533372096419334	2	11	4	NaN	2	4	0.0758954804430093	1	1	NaN	203	4	14	2	121	221	321	NaN	521	0.724729622714221	2	1	NaN	4478819.4227293	NaN	4478820.4062307	4478820.92278798
107	19	0	0	90	36.1581920903955	36.241610738255	14	0.466700584366918	2	6	1	NaN	1	3	0.0758954804430093	1	1	NaN	204	4	15	2	121	221	321	NaN	521	0.162928917445242	1	1	NaN	4478822.4564647	NaN	4478823.4398679	4478823.95641298
107	19	0	0	90	36.1581920903955	36.241610738255	6	0.20001453615725	2	1	6	NaN	1	4	0.0758954804430093	1	1	NaN	205	4	16	2	121	221	321	NaN	521	0.255099370144308	1	1	NaN	4478824.9400589	NaN	4478825.9234157	4478826.43999533
107	19	0	0	90	36.1581920903955	36.241610738255	20	0.666715120524168	2	8	6	NaN	2	3	0.0758954804430093	1	1	NaN	206	4	17	2	121	221	321	NaN	521	0.318250517360866	2	1	NaN	4478827.7569487	NaN	4478828.7403892	4478829.25692608
107	19	0	0	90	36.1581920903955	36.241610738255	0	0	1	11	1	NaN	2	4	0.0758954804430093	1	1	NaN	207	4	18	2	111	211	311	NaN	511	0.396861471235752	2	1	NaN	4478830.3905307	NaN	4478831.3739661	4478831.89053303
107	19	0	0	90	36.1581920903955	36.241610738255	19	0.63337936449796	2	10	1	NaN	2	5	0.0758954804430093	1	1	NaN	208	4	19	2	121	221	321	NaN	521	0.328734970651567	2	1	NaN	4478833.0908451	NaN	4478834.0742467	4478834.59078573
107	19	0	0	90	36.1581920903955	36.241610738255	15	0.500036340393126	2	10	4	NaN	2	5	0.0758954804430093	1	1	NaN	209	4	20	2	121	221	321	NaN	521	0.934190217405558	2	1	NaN	4478835.7411134	NaN	4478836.724535	4478837.24105108
107	19	0	0	90	36.1581920903955	36.241610738255	14	0.466700584366918	2	3	1	NaN	1	4	0.0758954804430093	1	1	NaN	210	4	21	2	121	221	321	NaN	521	0.0104250172153115	1	1	NaN	4478838.9912848	NaN	4478839.9748157	4478840.49136568
107	19	0	0	90	36.1581920903955	36.241610738255	22	0.733386632576585	2	7	1	NaN	2	4	0.0758954804430093	1	1	NaN	211	4	22	2	121	221	321	NaN	521	0.0102707426995039	2	1	NaN	4478841.3083628	NaN	4478842.2916913	4478842.80826496
107	19	0	0	90	36.1581920903955	36.241610738255	7	0.233350292183459	2	12	5	NaN	2	3	0.0758954804430093	1	1	NaN	212	4	23	2	121	221	321	NaN	521	0.114117169752717	1	0	NaN	4478843.6252148	NaN	4478844.6085889	4478845.12515663
107	19	0	0	90	36.1581920903955	36.241610738255	13	0.433364828340709	2	2	2	NaN	1	5	0.0758954804430093	1	1	NaN	213	4	24	2	121	221	321	NaN	521	0.112676470540464	1	1	NaN	4478846.0587886	NaN	4478847.0421924	4478847.55872363
107	19	0	0	90	36.1581920903955	36.241610738255	0	0	1	5	6	NaN	1	3	0.0758954804430093	1	1	NaN	214	4	25	2	111	211	311	NaN	511	0.255451570264995	1	1	NaN	4478848.4923634	NaN	4478849.4757545	4478849.99230783
107	19	0	0	90	36.1581920903955	36.241610738255	25	0.83339390065521	2	4	6	NaN	1	3	0.0758954804430093	1	1	NaN	215	4	26	2	121	221	321	NaN	521	0.218841484747827	1	1	NaN	4478851.3926051	NaN	4478852.3760219	4478852.89259571
107	19	0	0	90	36.1581920903955	36.241610738255	14	0.466700584366918	2	2	2	NaN	1	4	0.0758954804430093	1	1	NaN	216	4	27	2	121	221	321	NaN	521	0.0104049704968929	1	1	NaN	4478853.9260692	NaN	4478854.9096421	4478855.42617353
107	19	0	0	90	36.1581920903955	36.241610738255	23	0.766722388602793	2	11	5	NaN	2	5	0.0758954804430093	1	1	NaN	217	4	28	2	121	221	321	NaN	521	0.103541936725378	2	1	NaN	4478856.2597891	NaN	4478857.2431802	4478857.75973796
107	19	0	0	90	36.1581920903955	36.241610738255	6	0.20001453615725	2	9	3	NaN	2	3	0.0758954804430093	1	1	NaN	218	4	29	2	121	221	321	NaN	521	0.0104259168729186	2	1	NaN	4478858.6766849	NaN	4478859.6600365	4478860.17662948
107	19	0	0	90	36.1581920903955	36.241610738255	11	0.366693316288292	2	7	6	NaN	2	3	0.0758954804430093	1	1	NaN	219	4	30	2	121	221	321	NaN	521	0.169852270744741	2	1	NaN	4478860.9934598	NaN	4478861.9769656	4478862.49352813
107	19	0	0	90	36.1581920903955	36.241610738255	11	0.366693316288292	2	6	5	NaN	1	5	0.0758954804430093	1	1	NaN	220	4	31	2	121	221	321	NaN	521	0.206041917204857	2	0	NaN	4478863.4771504	NaN	4478864.4605547	4478864.97710308
107	19	0	0	90	36.1581920903955	36.241610738255	22	0.733386632576585	2	10	3	NaN	2	5	0.0758954804430093	1	1	NaN	221	4	32	2	121	221	321	NaN	521	0.265328843146563	1	0	NaN	4478865.9939484	NaN	4478866.9774464	4478867.49401816
107	19	0	0	90	36.1581920903955	36.241610738255	7	0.233350292183459	2	8	1	NaN	2	4	0.0758954804430093	1	1	NaN	222	4	33	2	121	221	321	NaN	521	0.0104057230055332	2	1	NaN	4478868.5776671	NaN	4478869.5610625	4478870.07760688
107	19	0	0	90	36.1581920903955	36.241610738255	23	0.766722388602793	2	8	5	NaN	2	3	0.0758954804430093	1	1	NaN	223	4	34	2	121	221	321	NaN	521	0.0104271173477173	2	1	NaN	4478870.8945584	NaN	4478871.8779428	4478872.39450048
107	19	0	0	90	36.1581920903955	36.241610738255	13	0.433364828340709	2	9	6	NaN	2	3	0.0758954804430093	1	1	NaN	224	4	35	2	121	221	321	NaN	521	0.559550517238677	2	1	NaN	4478873.2281115	NaN	4478874.2115492	4478874.72806308
107	19	0	0	90	36.1581920903955	36.241610738255	9	0.300021804235876	2	12	6	NaN	2	3	0.0758954804430093	1	1	NaN	225	4	36	2	121	221	321	NaN	521	0.275381070561707	2	1	NaN	4478876.1117553	NaN	4478877.0951325	4478877.61168033
107	19	0	0	90	36.1581920903955	36.241610738255	15	0.500036340393126	2	10	5	NaN	2	5	0.0758954804430093	1	1	NaN	226	4	37	2	121	221	321	NaN	521	0.114026270806789	2	1	NaN	4478878.745316	NaN	4478879.7287265	4478880.24526343
107	19	0	0	90	36.1581920903955	36.241610738255	19	0.63337936449796	2	8	1	NaN	2	3	0.0758954804430093	1	1	NaN	227	4	38	2	121	221	321	NaN	521	0.16138896998018	2	1	NaN	4478881.1622419	NaN	4478882.145615	4478882.66216743
107	19	0	0	90	36.1581920903955	36.241610738255	17	0.566707852445543	2	2	3	NaN	1	4	0.0758954804430093	1	1	NaN	228	4	39	2	121	221	321	NaN	521	0.0622299229726195	1	1	NaN	4478883.6291414	NaN	4478884.6125697	4478885.12907938
107	19	0	0	90	36.1581920903955	36.241610738255	12	0.400029072314501	2	5	1	NaN	1	3	0.0758954804430093	1	1	NaN	229	4	40	2	121	221	321	NaN	521	0.182633070275187	1	1	NaN	4478886.0126934	NaN	4478886.9960994	4478887.51265333
107	19	0	0	90	36.1581920903955	36.241610738255	17	0.566707852445543	2	11	4	NaN	2	4	0.0758954804430093	1	1	NaN	230	4	41	2	121	221	321	NaN	521	0.0104199703782797	2	1	NaN	4478888.5129431	NaN	4478889.4963364	4478890.01289453
107	19	0	0	90	36.1581920903955	36.241610738255	8	0.266686048209667	2	1	5	NaN	1	3	0.0758954804430093	1	1	NaN	231	4	42	2	121	221	321	NaN	521	0.0103786764666438	1	1	NaN	4478890.846513	NaN	4478891.8299311	4478892.34646322
107	19	0	0	90	36.1581920903955	36.241610738255	22	0.733386632576585	2	5	6	NaN	1	3	0.0758954804430093	1	1	NaN	232	4	43	2	121	221	321	NaN	521	0.0104104708880186	1	1	NaN	4478893.1634511	NaN	4478894.1468014	4478894.66334853
107	19	0	0	90	36.1581920903955	36.241610738255	7	0.233350292183459	2	3	2	NaN	1	5	0.0758954804430093	1	1	NaN	233	4	44	2	121	221	321	NaN	521	0.179507071152329	1	1	NaN	4478895.4802968	NaN	4478896.4636776	4478896.98025073
107	19	0	0	90	36.1581920903955	36.241610738255	25	0.83339390065521	2	7	2	NaN	2	4	0.0758954804430093	1	1	NaN	234	4	45	2	121	221	321	NaN	521	0.0104030705988407	2	1	NaN	4478897.9971752	NaN	4478898.9806173	4478899.49716213
107	19	0	0	90	36.1581920903955	36.241610738255	22	0.733386632576585	2	3	4	NaN	1	4	0.0758954804430093	1	1	NaN	235	4	46	2	121	221	321	NaN	521	0.0104102706536651	1	1	NaN	4478900.3140969	NaN	4478901.2975013	4478901.81404933
107	19	0	0	90	36.1581920903955	36.241610738255	6	0.20001453615725	2	2	4	NaN	1	5	0.0758954804430093	1	1	NaN	236	4	47	2	121	221	321	NaN	521	0.324803208000958	1	1	NaN	4478902.6310209	NaN	4478903.6144445	4478904.13094089
107	19	0	0	90	36.1581920903955	36.241610738255	16	0.533372096419334	2	9	6	NaN	2	5	0.0758954804430093	1	1	NaN	237	4	48	2	121	221	321	NaN	521	0.362920417450368	1	0	NaN	4478905.264574	NaN	4478906.2479054	4478906.76453788
107	19	0	0	90	36.1581920903955	36.241610738255	17	0.566707852445543	2	11	5	NaN	2	4	0.0758954804430093	1	1	NaN	238	4	49	2	121	221	321	NaN	521	0.591203617863357	2	1	NaN	4478907.9481806	NaN	4478908.9315845	4478909.44814108
107	19	0	0	90	36.1581920903955	36.241610738255	12	0.400029072314501	2	10	3	NaN	2	3	0.0758954804430093	1	1	NaN	239	4	50	2	121	221	321	NaN	521	0.227305270731449	2	1	NaN	4478910.8484878	NaN	4478911.8318662	4478912.34841863
107	19	0	0	90	36.1581920903955	36.241610738255	22	0.733386632576585	2	3	6	NaN	1	4	0.0758954804430093	1	1	NaN	240	4	51	2	121	221	321	NaN	521	1.22931537032127	1	1	NaN	4478913.3820524	NaN	4478914.3654549	4478914.88199993
107	19	0	0	90	36.1581920903955	36.241610738255	6	0.20001453615725	2	1	5	NaN	1	5	0.0758954804430093	1	1	NaN	241	4	52	2	121	221	321	NaN	521	0.279320117086172	1	1	NaN	4478916.9324114	NaN	4478917.915813	4478918.43234998
107	19	0	0	90	36.1581920903955	36.241610738255	15	0.500036340393126	2	7	4	NaN	2	5	0.0758954804430093	1	1	NaN	242	4	53	2	121	221	321	NaN	521	0.327435670420527	2	1	NaN	4478919.5159908	NaN	4478920.4993826	4478921.01593383
107	19	0	0	90	36.1581920903955	36.241610738255	17	0.566707852445543	2	4	1	NaN	1	3	0.0758954804430093	1	1	NaN	243	4	54	2	121	221	321	NaN	521	0.238189170137048	2	0	NaN	4478922.1494486	NaN	4478923.1329731	4478923.64952843
107	19	0	0	90	36.1581920903955	36.241610738255	11	0.366693316288292	2	10	4	NaN	2	4	0.0758954804430093	1	1	NaN	244	4	55	2	121	221	321	NaN	521	0.0104091698303819	2	1	NaN	4478924.6998473	NaN	4478925.6832692	4478926.19978383
107	19	0	0	90	36.1581920903955	36.241610738255	21	0.700050876550376	2	7	1	NaN	2	3	0.0758954804430093	1	1	NaN	245	4	56	2	121	221	321	NaN	521	0.322987637482584	2	1	NaN	4478927.0167579	NaN	4478928.0001234	4478928.51667076
107	19	0	0	90	36.1581920903955	36.241610738255	16	0.533372096419334	2	3	5	NaN	1	3	0.0758954804430093	1	1	NaN	246	4	57	2	121	221	321	NaN	521	0.281288722530007	1	1	NaN	4478929.650315	NaN	4478930.63371	4478931.15026958
107	19	0	0	90	36.1581920903955	36.241610738255	22	0.733386632576585	2	9	5	NaN	2	4	0.0758954804430093	1	1	NaN	247	4	58	2	121	221	321	NaN	521	0.576935317367315	1	0	NaN	4478932.2505792	NaN	4478933.2339608	4478933.75051788
107	19	0	0	90	36.1581920903955	36.241610738255	16	0.533372096419334	2	7	5	NaN	2	5	0.0758954804430093	1	1	NaN	248	4	59	2	121	221	321	NaN	521	0.0104364166036248	2	1	NaN	4478935.1508502	NaN	4478936.1342547	4478936.65080268
107	19	0	0	90	36.1581920903955	36.241610738255	14	0.466700584366918	2	3	4	NaN	1	3	0.0758954804430093	1	1	NaN	249	4	60	2	121	221	321	NaN	521	0.0104629704728723	1	1	NaN	4478937.484433	NaN	4478938.4679106	4478938.98436223
107	19	0	0	90	36.1581920903955	36.241610738255	14	0.466700584366918	2	12	4	NaN	2	5	0.0758954804430093	1	1	NaN	250	4	61	2	121	221	321	NaN	521	0.29842436965555	2	1	NaN	4478939.8011697	NaN	4478940.7847156	4478941.30125893
107	19	0	0	90	36.1581920903955	36.241610738255	16	0.533372096419334	2	1	1	NaN	1	3	0.0758954804430093	1	1	NaN	251	4	62	2	121	221	321	NaN	521	0.0419014655053616	1	1	NaN	4478942.4015658	NaN	4478943.3849569	4478943.90150953
107	19	0	0	90	36.1581920903955	36.241610738255	20	0.666715120524168	2	3	5	NaN	1	5	0.0758954804430093	1	1	NaN	252	4	63	2	121	221	321	NaN	521	1.13207312300801	1	1	NaN	4478944.7516734	NaN	4478945.7351996	4478946.25174868
107	19	0	0	90	36.1581920903955	36.241610738255	9	0.300021804235876	2	7	4	NaN	2	3	0.0758954804430093	1	1	NaN	253	5	1	2	121	221	321	NaN	521	0.910769070498645	1	0	NaN	4478968.0207917	NaN	4478969.0041502	4478969.52069143
107	19	0	0	90	36.1581920903955	36.241610738255	22	0.733386632576585	2	5	5	NaN	1	4	0.0758954804430093	1	1	NaN	254	5	2	2	121	221	321	NaN	521	0.252951765432954	2	0	NaN	4478971.2544107	NaN	4478972.237797	4478972.75433853
107	19	0	0	90	36.1581920903955	36.241610738255	17	0.566707852445543	2	5	4	NaN	1	5	0.0758954804430093	1	1	NaN	255	5	3	2	121	221	321	NaN	521	0.118295670486987	1	1	NaN	4478973.8213657	NaN	4478974.8047167	4478975.32126413
107	19	0	0	90	36.1581920903955	36.241610738255	24	0.800058144629002	2	2	1	NaN	1	5	0.0758954804430093	1	1	NaN	256	5	4	2	121	221	321	NaN	521	0.244408670812845	1	1	NaN	4478976.2549046	NaN	4478977.238286	4478977.75483063
107	19	0	0	90	36.1581920903955	36.241610738255	9	0.300021804235876	2	12	4	NaN	2	3	0.0758954804430093	1	1	NaN	257	5	5	2	121	221	321	NaN	521	0.285662117414176	2	1	NaN	4478978.8218139	NaN	4478979.8051778	4478980.32175618
107	19	0	0	90	36.1581920903955	36.241610738255	21	0.700050876550376	2	5	4	NaN	1	5	0.0758954804430093	1	1	NaN	258	5	6	2	121	221	321	NaN	521	0.261372237466276	1	1	NaN	4478981.422071	NaN	4478982.4054568	4478982.92200866
107	19	0	0	90	36.1581920903955	36.241610738255	6	0.20001453615725	2	10	3	NaN	2	5	0.0758954804430093	1	1	NaN	259	5	7	2	121	221	321	NaN	521	0.0466995220631361	2	1	NaN	4478983.9889742	NaN	4478984.9723839	4478985.48893158
107	19	0	0	90	36.1581920903955	36.241610738255	21	0.700050876550376	2	5	1	NaN	1	5	0.0758954804430093	1	1	NaN	260	5	8	2	121	221	321	NaN	521	0.167568470351398	1	1	NaN	4478986.3558787	NaN	4478987.3392741	4478987.85583073
107	19	0	0	90	36.1581920903955	36.241610738255	22	0.733386632576585	2	2	2	NaN	1	5	0.0758954804430093	1	1	NaN	261	5	9	2	121	221	321	NaN	521	0.261446743272245	1	1	NaN	4478989.2061278	NaN	4478990.1895647	4478990.70610856
107	19	0	0	90	36.1581920903955	36.241610738255	0	0	1	10	1	NaN	2	3	0.0758954804430093	1	1	NaN	262	5	10	2	111	211	311	NaN	511	0.293427617289126	2	1	NaN	4478992.4063519	NaN	4478993.3898765	4478993.90642308
107	19	0	0	90	36.1581920903955	36.241610738255	7	0.233350292183459	2	8	2	NaN	2	4	0.0758954804430093	1	1	NaN	263	5	11	2	121	221	321	NaN	521	0.229147169739008	2	1	NaN	4478995.0067292	NaN	4478995.9901248	4478996.50667563
107	19	0	0	90	36.1581920903955	36.241610738255	9	0.300021804235876	2	9	2	NaN	2	5	0.0758954804430093	1	1	NaN	264	5	12	2	121	221	321	NaN	521	0.278814923018217	2	1	NaN	4478997.5569904	NaN	4478998.540377	4478999.05692738
107	19	0	0	90	36.1581920903955	36.241610738255	15	0.500036340393126	2	4	4	NaN	1	4	0.0758954804430093	1	1	NaN	265	5	13	2	121	221	321	NaN	521	0.3056595697999	1	1	NaN	4479000.4740099	NaN	4479001.457322	4479001.97387853
107	19	0	0	90	36.1581920903955	36.241610738255	23	0.766722388602793	2	11	6	NaN	2	5	0.0758954804430093	1	1	NaN	266	5	14	2	121	221	321	NaN	521	0.20524131692946	1	0	NaN	4479003.1741892	NaN	4479004.1575902	4479004.67415228
107	19	0	0	90	36.1581920903955	36.241610738255	11	0.366693316288292	2	12	1	NaN	2	5	0.0758954804430093	1	1	NaN	267	5	15	2	121	221	321	NaN	521	0.248504417017102	1	0	NaN	4479005.6911225	NaN	4479006.6745212	4479007.19105348
107	19	0	0	90	36.1581920903955	36.241610738255	9	0.300021804235876	2	11	1	NaN	2	5	0.0758954804430093	1	1	NaN	268	5	16	2	121	221	321	NaN	521	0.260034675709903	2	1	NaN	4479008.5914074	NaN	4479009.5747914	4479010.09134552
107	19	0	0	90	36.1581920903955	36.241610738255	7	0.233350292183459	2	12	4	NaN	2	5	0.0758954804430093	1	1	NaN	269	5	17	2	121	221	321	NaN	521	0.229213585145772	1	0	NaN	4479011.1583633	NaN	4479012.141715	4479012.65826961
107	19	0	0	90	36.1581920903955	36.241610738255	23	0.766722388602793	2	3	2	NaN	1	4	0.0758954804430093	1	1	NaN	270	5	18	2	121	221	321	NaN	521	0.271018770523369	1	1	NaN	4479013.7085686	NaN	4479014.6919423	4479015.20851583
107	19	0	0	90	36.1581920903955	36.241610738255	19	0.63337936449796	2	6	3	NaN	1	4	0.0758954804430093	1	1	NaN	271	5	19	2	121	221	321	NaN	521	0.191427370533347	1	1	NaN	4479016.292015	NaN	4479017.2755537	4479017.79210363
107	19	0	0	90	36.1581920903955	36.241610738255	21	0.700050876550376	2	10	3	NaN	2	3	0.0758954804430093	1	1	NaN	272	5	20	2	121	221	321	NaN	521	0.267052470706403	2	1	NaN	4479018.7924006	NaN	4479019.7757894	4479020.29234253
107	19	0	0	90	36.1581920903955	36.241610738255	16	0.533372096419334	2	5	2	NaN	1	5	0.0758954804430093	1	1	NaN	273	5	21	2	121	221	321	NaN	521	0.291653117164969	1	1	NaN	4479021.3759829	NaN	4479022.359384	4479022.87592818
107	19	0	0	90	36.1581920903955	36.241610738255	11	0.366693316288292	2	11	1	NaN	2	4	0.0758954804430093	1	1	NaN	274	5	22	2	121	221	321	NaN	521	0.243213622830808	2	1	NaN	4479024.3762582	NaN	4479025.3596777	4479025.87623138
107	19	0	0	90	36.1581920903955	36.241610738255	14	0.466700584366918	2	4	5	NaN	1	4	0.0758954804430093	1	1	NaN	275	5	23	2	121	221	321	NaN	521	0.221039516851306	1	1	NaN	4479026.926517	NaN	4479027.9099309	4479028.42648358
107	19	0	0	90	36.1581920903955	36.241610738255	11	0.366693316288292	2	5	5	NaN	1	5	0.0758954804430093	1	1	NaN	276	5	24	2	121	221	321	NaN	521	0.223549070768058	1	1	NaN	4479029.4601101	NaN	4479030.443495	4479030.96005653
107	19	0	0	90	36.1581920903955	36.241610738255	22	0.733386632576585	2	7	4	NaN	2	5	0.0758954804430093	1	1	NaN	277	5	25	2	121	221	321	NaN	521	0.299368370324373	1	0	NaN	4479032.3604374	NaN	4479033.3437958	4479033.86034523
107	19	0	0	90	36.1581920903955	36.241610738255	15	0.500036340393126	2	12	4	NaN	2	3	0.0758954804430093	1	1	NaN	278	5	26	2	121	221	321	NaN	521	0.354487070813775	1	0	NaN	4479034.9773337	NaN	4479035.9607036	4479036.47726263
107	19	0	0	90	36.1581920903955	36.241610738255	17	0.566707852445543	2	2	3	NaN	1	5	0.0758954804430093	1	1	NaN	279	5	27	2	121	221	321	NaN	521	0.0104445181787014	1	1	NaN	4479037.64425	NaN	4479038.6276405	4479039.14419278
107	19	0	0	90	36.1581920903955	36.241610738255	12	0.400029072314501	2	6	1	NaN	1	5	0.0758954804430093	1	1	NaN	280	5	28	2	121	221	321	NaN	521	1.20977616962045	1	1	NaN	4479039.9778177	NaN	4479040.9611932	4479041.47775093
107	19	0	0	90	36.1581920903955	36.241610738255	12	0.400029072314501	2	8	2	NaN	2	4	0.0758954804430093	1	1	NaN	281	5	29	2	121	221	321	NaN	521	0.317077617160976	2	1	NaN	4479043.4948173	NaN	4479044.4782262	4479044.99476198
107	19	0	0	90	36.1581920903955	36.241610738255	11	0.366693316288292	2	1	6	NaN	1	3	0.0758954804430093	1	1	NaN	282	5	30	2	121	221	321	NaN	521	0.219408642500639	1	1	NaN	4479046.1284186	NaN	4479047.1118107	4479047.62835976
107	19	0	0	90	36.1581920903955	36.241610738255	11	0.366693316288292	2	11	4	NaN	2	5	0.0758954804430093	1	1	NaN	283	5	31	2	121	221	321	NaN	521	0.263017270714045	2	1	NaN	4479049.0286709	NaN	4479050.0120882	4479050.52864573
107	19	0	0	90	36.1581920903955	36.241610738255	24	0.800058144629002	2	8	2	NaN	2	4	0.0758954804430093	1	1	NaN	284	5	32	2	121	221	321	NaN	521	0.0104111703112721	2	1	NaN	4479051.5956325	NaN	4479052.579008	4479053.09555713
107	19	0	0	90	36.1581920903955	36.241610738255	13	0.433364828340709	2	6	5	NaN	1	5	0.0758954804430093	1	1	NaN	285	5	33	2	121	221	321	NaN	521	0.138746122829616	1	1	NaN	4479053.9290741	NaN	4479054.9126235	4479055.42913418
107	19	0	0	90	36.1581920903955	36.241610738255	18	0.600043608471751	2	7	2	NaN	2	3	0.0758954804430093	1	1	NaN	286	5	34	2	121	221	321	NaN	521	0.280529170297086	1	0	NaN	4479056.3794304	NaN	4479057.3628119	4479057.87936853
107	19	0	0	90	36.1581920903955	36.241610738255	17	0.566707852445543	2	12	3	NaN	2	5	0.0758954804430093	1	1	NaN	287	5	35	2	121	221	321	NaN	521	0.47270711697638	2	1	NaN	4479058.9630001	NaN	4479059.9464028	4479060.46295098
107	19	0	0	90	36.1581920903955	36.241610738255	22	0.733386632576585	2	8	1	NaN	2	5	0.0758954804430093	1	1	NaN	288	5	36	2	121	221	321	NaN	521	0.217103870585561	2	1	NaN	4479061.7466302	NaN	4479062.7300058	4479063.24655733
107	19	0	0	90	36.1581920903955	36.241610738255	23	0.766722388602793	2	6	4	NaN	1	5	0.0758954804430093	1	1	NaN	289	5	37	2	121	221	321	NaN	521	0.14750082232058	1	1	NaN	4479064.2802232	NaN	4479065.2635929	4479065.78014688
107	19	0	0	90	36.1581920903955	36.241610738255	8	0.266686048209667	2	7	2	NaN	2	3	0.0758954804430093	1	1	NaN	290	5	38	2	121	221	321	NaN	521	0.15260362252593	2	1	NaN	4479066.7470949	NaN	4479067.730515	4479068.24704468
107	19	0	0	90	36.1581920903955	36.241610738255	15	0.500036340393126	2	2	1	NaN	1	5	0.0758954804430093	1	1	NaN	291	5	39	2	121	221	321	NaN	521	0.295240216888487	1	1	NaN	4479069.5807586	NaN	4479070.5641175	4479071.08065668
107	19	0	0	90	36.1581920903955	36.241610738255	24	0.800058144629002	2	7	5	NaN	2	3	0.0758954804430093	1	1	NaN	292	5	40	2	121	221	321	NaN	521	0.19878947082907	2	1	NaN	4479072.1808498	NaN	4479073.1643938	4479073.68091113
107	19	0	0	90	36.1581920903955	36.241610738255	12	0.400029072314501	2	7	1	NaN	2	5	0.0758954804430093	1	1	NaN	293	5	41	2	121	221	321	NaN	521	0.210039417259395	2	1	NaN	4479074.6978765	NaN	4479075.6812757	4479076.19786158
107	19	0	0	90	36.1581920903955	36.241610738255	20	0.666715120524168	2	2	5	NaN	1	4	0.0758954804430093	1	1	NaN	294	5	42	2	121	221	321	NaN	521	0.221194522455335	1	1	NaN	4479077.2148118	NaN	4479078.198195	4479078.71475148
107	19	0	0	90	36.1581920903955	36.241610738255	16	0.533372096419334	2	1	3	NaN	1	5	0.0758954804430093	1	1	NaN	295	5	43	2	121	221	321	NaN	521	0.199532270431519	1	1	NaN	4479079.7483762	NaN	4479080.7318082	4479081.24832313
107	19	0	0	90	36.1581920903955	36.241610738255	8	0.266686048209667	2	5	1	NaN	1	4	0.0758954804430093	1	1	NaN	296	5	44	2	121	221	321	NaN	521	0.0103941224515438	1	1	NaN	4479082.2986063	NaN	4479083.2820211	4479083.79858298
107	19	0	0	90	36.1581920903955	36.241610738255	15	0.500036340393126	2	11	6	NaN	2	3	0.0758954804430093	1	1	NaN	297	5	45	2	121	221	321	NaN	521	0.01043351739645	2	1	NaN	4479084.6322028	NaN	4479085.6155894	4479086.13213628
107	19	0	0	90	36.1581920903955	36.241610738255	9	0.300021804235876	2	8	5	NaN	2	3	0.0758954804430093	1	1	NaN	298	5	46	2	121	221	321	NaN	521	0.254529517143965	2	1	NaN	4479086.9489611	NaN	4479087.9324748	4479088.44902658
107	19	0	0	90	36.1581920903955	36.241610738255	19	0.63337936449796	2	7	2	NaN	2	4	0.0758954804430093	1	1	NaN	299	5	47	2	121	221	321	NaN	521	0.263692617416382	2	1	NaN	4479089.515991	NaN	4479090.499407	4479091.01594708
107	19	0	0	90	36.1581920903955	36.241610738255	13	0.433364828340709	2	8	6	NaN	2	4	0.0758954804430093	1	1	NaN	300	5	48	2	121	221	321	NaN	521	0.104813870042562	2	1	NaN	4479092.0829288	NaN	4479093.0663113	4479093.58286813
107	19	0	0	90	36.1581920903955	36.241610738255	20	0.666715120524168	2	6	6	NaN	1	4	0.0758954804430093	1	1	NaN	301	5	49	2	121	221	321	NaN	521	0.231788570992649	1	1	NaN	4479094.4997942	NaN	4479095.4832129	4479095.99977703
107	19	0	0	90	36.1581920903955	36.241610738255	21	0.700050876550376	2	9	2	NaN	2	3	0.0758954804430093	1	1	NaN	302	5	50	2	121	221	321	NaN	521	0.209451521746814	2	1	NaN	4479097.0500782	NaN	4479098.0334742	4479098.55003248
107	19	0	0	90	36.1581920903955	36.241610738255	20	0.666715120524168	2	1	6	NaN	1	4	0.0758954804430093	1	1	NaN	303	5	51	2	121	221	321	NaN	521	0.293342876248062	1	1	NaN	4479099.9503348	NaN	4479100.9337667	4479101.45031732
107	19	0	0	90	36.1581920903955	36.241610738255	10	0.333357560262084	2	5	3	NaN	1	4	0.0758954804430093	1	1	NaN	304	5	52	2	121	221	321	NaN	521	0.0104069709777832	1	1	NaN	4479102.5504895	NaN	4479103.5340097	4479104.05056213
107	19	0	0	90	36.1581920903955	36.241610738255	18	0.600043608471751	2	9	1	NaN	2	4	0.0758954804430093	1	1	NaN	305	5	53	2	121	221	321	NaN	521	0.0482195168733597	2	1	NaN	4479104.8675161	NaN	4479105.8509092	4479106.36745218
107	19	0	0	90	36.1581920903955	36.241610738255	13	0.433364828340709	2	1	4	NaN	1	3	0.0758954804430093	1	1	NaN	306	5	54	2	121	221	321	NaN	521	0.301252623088658	1	1	NaN	4479107.3344018	NaN	4479108.3178244	4479108.83437048
107	19	0	0	90	36.1581920903955	36.241610738255	17	0.566707852445543	2	9	6	NaN	2	3	0.0758954804430093	1	1	NaN	307	5	55	2	121	221	321	NaN	521	0.276420470327139	2	1	NaN	4479109.9513564	NaN	4479110.93474	4479111.45128993
107	19	0	0	90	36.1581920903955	36.241610738255	9	0.300021804235876	2	6	2	NaN	1	5	0.0758954804430093	1	1	NaN	308	5	56	2	121	221	321	NaN	521	0.0104138227179646	1	1	NaN	4479113.0349496	NaN	4479114.0183793	4479114.53493188
107	19	0	0	90	36.1581920903955	36.241610738255	16	0.533372096419334	2	2	5	NaN	1	3	0.0758954804430093	1	1	NaN	309	5	57	2	121	221	321	NaN	521	0.275199076160789	1	1	NaN	4479115.3685425	NaN	4479116.3519378	4479116.86850672
107	19	0	0	90	36.1581920903955	36.241610738255	17	0.566707852445543	2	8	1	NaN	2	4	0.0758954804430093	1	1	NaN	310	5	58	2	121	221	321	NaN	521	0.0104102706536651	2	1	NaN	4479117.9521402	NaN	4479118.9355129	4479119.45206993
107	19	0	0	90	36.1581920903955	36.241610738255	23	0.766722388602793	2	4	1	NaN	1	3	0.0758954804430093	1	1	NaN	311	5	59	2	121	221	321	NaN	521	0.598797070793808	2	0	NaN	4479120.2690157	NaN	4479121.2523939	4479121.76897323
107	19	0	0	90	36.1581920903955	36.241610738255	0	0	1	3	6	NaN	1	5	0.0758954804430093	1	1	NaN	312	5	60	2	111	211	311	NaN	511	0.393711670301855	2	0	NaN	4479123.185985	NaN	4479124.1693608	4479124.68592253
107	19	0	0	90	36.1581920903955	36.241610738255	9	0.300021804235876	2	5	1	NaN	1	5	0.0758954804430093	1	1	NaN	313	5	61	2	121	221	321	NaN	521	0.0104109700769186	1	1	NaN	4479125.8860947	NaN	4479126.8696442	4479127.38618063
107	19	0	0	90	36.1581920903955	36.241610738255	7	0.233350292183459	2	4	3	NaN	1	5	0.0758954804430093	1	1	NaN	314	5	62	2	121	221	321	NaN	521	0.612011270597577	1	1	NaN	4479128.3197867	NaN	4479129.303253	4479129.81975463
107	19	0	0	90	36.1581920903955	36.241610738255	16	0.533372096419334	2	4	4	NaN	1	5	0.0758954804430093	1	1	NaN	315	5	63	2	121	221	321	NaN	521	0.263258771039546	2	0	NaN	4479131.2367502	NaN	4479132.2201472	4479132.73671683
107	19	0	0	90	36.1581920903955	36.241610738255	14	0.466700584366918	2	11	3	NaN	2	4	0.0758954804430093	1	1	NaN	316	6	1	2	121	221	321	NaN	521	0.277428470551968	1	0	NaN	4479165.190067	NaN	4479166.1734943	4479166.69003853
107	19	0	0	90	36.1581920903955	36.241610738255	20	0.666715120524168	2	4	6	NaN	1	4	0.0758954804430093	1	1	NaN	317	6	2	2	121	221	321	NaN	521	0.248850622214377	2	0	NaN	4479167.9069047	NaN	4479168.8904286	4479169.40697268
107	19	0	0	90	36.1581920903955	36.241610738255	6	0.20001453615725	2	5	2	NaN	1	5	0.0758954804430093	1	1	NaN	318	6	3	2	121	221	321	NaN	521	0.251730621792376	1	1	NaN	4479170.8240039	NaN	4479171.8073824	4479172.32393528
107	19	0	0	90	36.1581920903955	36.241610738255	11	0.366693316288292	2	8	5	NaN	2	4	0.0758954804430093	1	1	NaN	319	6	4	2	121	221	321	NaN	521	0.251600069925189	2	1	NaN	4479173.6241337	NaN	4479174.6076766	4479175.12420253
107	19	0	0	90	36.1581920903955	36.241610738255	14	0.466700584366918	2	7	4	NaN	2	4	0.0758954804430093	1	1	NaN	320	6	5	2	121	221	321	NaN	521	0.659496470354497	2	1	NaN	4479176.4238591	NaN	4479177.4079335	4479177.92448233
107	19	0	0	90	36.1581920903955	36.241610738255	25	0.83339390065521	2	6	5	NaN	1	3	0.0758954804430093	1	1	NaN	321	6	6	2	121	221	321	NaN	521	0.191800122149289	1	1	NaN	4479179.7081259	NaN	4479180.6915814	4479181.20813618
107	19	0	0	90	36.1581920903955	36.241610738255	6	0.20001453615725	2	2	1	NaN	1	3	0.0758954804430093	1	1	NaN	322	6	7	2	121	221	321	NaN	521	0.731257569976151	1	1	NaN	4479182.2084307	NaN	4479183.1918297	4479183.70838043
107	19	0	0	90	36.1581920903955	36.241610738255	7	0.233350292183459	2	11	3	NaN	2	3	0.0758954804430093	1	1	NaN	323	6	8	2	121	221	321	NaN	521	0.665625822730362	1	0	NaN	4479185.2420636	NaN	4479186.2254353	4479186.74201708
107	19	0	0	90	36.1581920903955	36.241610738255	22	0.733386632576585	2	4	1	NaN	1	4	0.0758954804430093	1	1	NaN	324	6	9	2	121	221	321	NaN	521	0.321746417321265	1	1	NaN	4479188.4423894	NaN	4479189.4257799	4479189.94231888
107	19	0	0	90	36.1581920903955	36.241610738255	22	0.733386632576585	2	12	5	NaN	2	5	0.0758954804430093	1	1	NaN	325	6	10	2	121	221	321	NaN	521	0.335805216804147	2	1	NaN	4479191.0759814	NaN	4479192.0593673	4479192.57591488
107	19	0	0	90	36.1581920903955	36.241610738255	0	0	1	10	6	NaN	2	4	0.0758954804430093	1	1	NaN	326	6	11	2	111	211	311	NaN	511	0.205640343017876	2	1	NaN	4479193.7262292	NaN	4479194.7096152	4479195.22618056
107	19	0	0	90	36.1581920903955	36.241610738255	13	0.433364828340709	2	10	2	NaN	2	5	0.0758954804430093	1	1	NaN	327	6	12	2	121	221	321	NaN	521	0.145021812990308	2	1	NaN	4479196.2430949	NaN	4479197.2265307	4479197.74310379
107	19	0	0	90	36.1581920903955	36.241610738255	25	0.83339390065521	2	7	1	NaN	2	3	0.0758954804430093	1	1	NaN	328	6	13	2	121	221	321	NaN	521	0.2543057911098	2	1	NaN	4479198.6933861	NaN	4479199.6767791	4479200.19335651
107	19	0	0	90	36.1581920903955	36.241610738255	21	0.700050876550376	2	1	1	NaN	1	3	0.0758954804430093	1	1	NaN	329	6	14	2	121	221	321	NaN	521	0.111571470275521	1	1	NaN	4479201.2603006	NaN	4479202.2437481	4479202.76025513
107	19	0	0	90	36.1581920903955	36.241610738255	10	0.333357560262084	2	12	4	NaN	2	4	0.0758954804430093	1	1	NaN	330	6	15	2	121	221	321	NaN	521	0.310711570084095	2	1	NaN	4479203.6770825	NaN	4479204.6606066	4479205.17714983
107	19	0	0	90	36.1581920903955	36.241610738255	0	0	1	5	6	NaN	1	5	0.0758954804430093	1	1	NaN	331	6	16	2	111	211	311	NaN	511	0.388899875804782	1	1	NaN	4479206.5108072	NaN	4479207.4942019	4479208.01076562
107	19	0	0	90	36.1581920903955	36.241610738255	22	0.733386632576585	2	11	6	NaN	2	3	0.0758954804430093	1	1	NaN	332	6	17	2	121	221	321	NaN	521	0.400656870566308	1	0	NaN	4479209.2111185	NaN	4479210.1944826	4479210.71102883
107	19	0	0	90	36.1581920903955	36.241610738255	6	0.20001453615725	2	11	3	NaN	2	4	0.0758954804430093	1	1	NaN	333	6	18	2	121	221	321	NaN	521	0.170832322910428	2	1	NaN	4479211.9612691	NaN	4479212.9447472	4479213.46129758
107	19	0	0	90	36.1581920903955	36.241610738255	25	0.83339390065521	2	11	6	NaN	2	4	0.0758954804430093	1	1	NaN	334	6	19	2	121	221	321	NaN	521	0.174915417097509	2	1	NaN	4479214.4448973	NaN	4479215.4283582	4479215.94487108
107	19	0	0	90	36.1581920903955	36.241610738255	14	0.466700584366918	2	4	2	NaN	1	5	0.0758954804430093	1	1	NaN	335	6	20	2	121	221	321	NaN	521	0.171811070293188	1	1	NaN	4479216.9285148	NaN	4479217.911904	4479218.42845153
107	19	0	0	90	36.1581920903955	36.241610738255	22	0.733386632576585	2	11	3	NaN	2	4	0.0758954804430093	1	1	NaN	336	6	21	2	121	221	321	NaN	521	0.615746665745974	2	1	NaN	4479219.4120614	NaN	4479220.3954828	4479220.91202583
107	19	0	0	90	36.1581920903955	36.241610738255	9	0.300021804235876	2	8	4	NaN	2	3	0.0758954804430093	1	1	NaN	337	6	22	2	121	221	321	NaN	521	0.734800422564149	2	1	NaN	4479222.429057	NaN	4479223.4124485	4479223.92899188
107	19	0	0	90	36.1581920903955	36.241610738255	9	0.300021804235876	2	5	2	NaN	1	3	0.0758954804430093	1	1	NaN	338	6	23	2	121	221	321	NaN	521	0.300763170234859	1	1	NaN	4479225.4793532	NaN	4479226.462783	4479226.97930063
107	19	0	0	90	36.1581920903955	36.241610738255	24	0.800058144629002	2	3	3	NaN	1	3	0.0758954804430093	1	1	NaN	339	6	24	2	121	221	321	NaN	521	0.29887726996094	1	1	NaN	4479228.5129521	NaN	4479229.4963789	4479230.01293003
107	19	0	0	90	36.1581920903955	36.241610738255	17	0.566707852445543	2	5	1	NaN	1	4	0.0758954804430093	1	1	NaN	340	6	25	2	121	221	321	NaN	521	1.01825761701912	1	1	NaN	4479231.1298887	NaN	4479232.1132988	4479232.62984668
107	19	0	0	90	36.1581920903955	36.241610738255	24	0.800058144629002	2	10	4	NaN	2	4	0.0758954804430093	1	1	NaN	341	6	26	2	121	221	321	NaN	521	0.556289021857083	1	0	NaN	4479234.4635602	NaN	4479235.4469462	4479235.96350918
107	19	0	0	90	36.1581920903955	36.241610738255	0	0	1	8	3	NaN	2	5	0.0758954804430093	1	1	NaN	342	6	27	2	111	211	311	NaN	511	1.48146867565811	1	0	NaN	4479237.3304982	NaN	4479238.3139167	4479238.83045902
107	19	0	0	90	36.1581920903955	36.241610738255	18	0.600043608471751	2	10	4	NaN	2	3	0.0758954804430093	1	1	NaN	343	6	28	2	121	221	321	NaN	521	0.217067022807896	2	1	NaN	4479241.1308923	NaN	4479242.1142726	4479242.63083528
107	19	0	0	90	36.1581920903955	36.241610738255	23	0.766722388602793	2	9	6	NaN	2	5	0.0758954804430093	1	1	NaN	344	6	29	2	121	221	321	NaN	521	0.010410170070827	2	1	NaN	4479243.6644658	NaN	4479244.6478718	4479245.16441793
107	19	0	0	90	36.1581920903955	36.241610738255	14	0.466700584366918	2	10	1	NaN	2	5	0.0758954804430093	1	1	NaN	345	6	30	2	121	221	321	NaN	521	0.38238332234323	2	1	NaN	4479245.9812534	NaN	4479246.9647509	4479247.48131258
107	19	0	0	90	36.1581920903955	36.241610738255	10	0.333357560262084	2	2	4	NaN	1	5	0.0758954804430093	1	1	NaN	346	6	31	2	121	221	321	NaN	521	0.297576770186424	1	1	NaN	4479248.8982827	NaN	4479249.8817071	4479250.39825993
107	19	0	0	90	36.1581920903955	36.241610738255	16	0.533372096419334	2	8	4	NaN	2	5	0.0758954804430093	1	1	NaN	347	6	32	2	121	221	321	NaN	521	0.20875181723386	2	1	NaN	4479251.5152474	NaN	4479252.4986711	4479253.01517428
107	19	0	0	90	36.1581920903955	36.241610738255	15	0.500036340393126	2	7	3	NaN	2	3	0.0758954804430093	1	1	NaN	348	6	33	2	121	221	321	NaN	521	0.387643170543015	1	0	NaN	4479254.0321494	NaN	4479255.0155408	4479255.53209613
107	19	0	0	90	36.1581920903955	36.241610738255	19	0.63337936449796	2	10	1	NaN	2	4	0.0758954804430093	1	1	NaN	349	6	34	2	121	221	321	NaN	521	0.295836170203984	2	1	NaN	4479256.7324255	NaN	4479257.7157999	4479258.23235673
107	19	0	0	90	36.1581920903955	36.241610738255	16	0.533372096419334	2	4	6	NaN	1	3	0.0758954804430093	1	1	NaN	350	6	35	2	121	221	321	NaN	521	0.142602564767003	2	0	NaN	4479259.3493424	NaN	4479260.3327327	4479260.84927903
107	19	0	0	90	36.1581920903955	36.241610738255	7	0.233350292183459	2	6	3	NaN	1	5	0.0758954804430093	1	1	NaN	351	6	36	2	121	221	321	NaN	521	0.0104043697938323	1	1	NaN	4479261.8162615	NaN	4479262.7996488	4479263.31619313
107	19	0	0	90	36.1581920903955	36.241610738255	14	0.466700584366918	2	2	1	NaN	1	3	0.0758954804430093	1	1	NaN	352	6	37	2	121	221	321	NaN	521	0.318239269778132	1	1	NaN	4479264.1498056	NaN	4479265.1331936	4479265.64974973
107	19	0	0	90	36.1581920903955	36.241610738255	25	0.83339390065521	2	5	3	NaN	1	5	0.0758954804430093	1	1	NaN	353	6	38	2	121	221	321	NaN	521	0.348467817530036	1	1	NaN	4479266.7834125	NaN	4479267.7667911	4479268.28334298
107	19	0	0	90	36.1581920903955	36.241610738255	7	0.233350292183459	2	4	1	NaN	1	3	0.0758954804430093	1	1	NaN	354	6	39	2	121	221	321	NaN	521	1.71189367026091	1	1	NaN	4479269.5002014	NaN	4479270.4837702	4479271.00027693
107	19	0	0	90	36.1581920903955	36.241610738255	21	0.700050876550376	2	9	5	NaN	2	3	0.0758954804430093	1	1	NaN	355	6	40	2	121	221	321	NaN	521	0.294092922471464	2	1	NaN	4479273.5340791	NaN	4479274.5174576	4479275.03401338
107	19	0	0	90	36.1581920903955	36.241610738255	22	0.733386632576585	2	1	4	NaN	1	4	0.0758954804430093	1	1	NaN	356	6	41	2	121	221	321	NaN	521	0.325572522357106	1	1	NaN	4479276.1342012	NaN	4479277.1177182	4479277.63427028
107	19	0	0	90	36.1581920903955	36.241610738255	25	0.83339390065521	2	9	1	NaN	2	4	0.0758954804430093	1	1	NaN	357	6	42	2	121	221	321	NaN	521	0.395911170169711	2	1	NaN	4479278.7678954	NaN	4479279.7513144	4479280.26785103
107	19	0	0	90	36.1581920903955	36.241610738255	25	0.83339390065521	2	8	5	NaN	2	5	0.0758954804430093	1	1	NaN	358	6	43	2	121	221	321	NaN	521	0.0237620705738664	2	1	NaN	4479281.4681583	NaN	4479282.4515714	4479282.96812513
107	19	0	0	90	36.1581920903955	36.241610738255	6	0.20001453615725	2	3	5	NaN	1	4	0.0758954804430093	1	1	NaN	359	6	44	2	121	221	321	NaN	521	0.658245322294533	1	1	NaN	4479283.801744	NaN	4479284.7851222	4479285.30169028
107	19	0	0	90	36.1581920903955	36.241610738255	0	0	1	8	2	NaN	2	5	0.0758954804430093	1	1	NaN	360	6	45	2	111	211	311	NaN	511	0.051438570022583	2	1	NaN	4479286.7686896	NaN	4479287.7520894	4479288.26864043
107	19	0	0	90	36.1581920903955	36.241610738255	18	0.600043608471751	2	1	5	NaN	1	4	0.0758954804430093	1	1	NaN	361	6	46	2	121	221	321	NaN	521	0.0104433223605156	1	1	NaN	4479289.1522298	NaN	4479290.1356538	4479290.65221158
107	19	0	0	90	36.1581920903955	36.241610738255	11	0.366693316288292	2	12	5	NaN	2	3	0.0758954804430093	1	1	NaN	362	6	47	2	121	221	321	NaN	521	0.126823070459068	2	1	NaN	4479291.4691481	NaN	4479292.4525542	4479292.96910343
107	19	0	0	90	36.1581920903955	36.241610738255	12	0.400029072314501	2	1	2	NaN	1	4	0.0758954804430093	1	1	NaN	363	6	48	2	121	221	321	NaN	521	1.66893032286316	1	1	NaN	4479293.9194396	NaN	4479294.9027903	4479295.41934548
107	19	0	0	90	36.1581920903955	36.241610738255	6	0.20001453615725	2	9	3	NaN	2	5	0.0758954804430093	1	1	NaN	364	6	49	2	121	221	321	NaN	521	0.253148194402456	2	1	NaN	4479297.9031162	NaN	4479298.886519	4479299.40307681
107	19	0	0	90	36.1581920903955	36.241610738255	14	0.466700584366918	2	1	5	NaN	1	5	0.0758954804430093	1	1	NaN	365	6	50	2	121	221	321	NaN	521	0.18196287099272	1	1	NaN	4479300.4699093	NaN	4479301.4534324	4479301.96999663
107	19	0	0	90	36.1581920903955	36.241610738255	8	0.266686048209667	2	8	2	NaN	2	3	0.0758954804430093	1	1	NaN	366	6	51	2	121	221	321	NaN	521	0.322645970620215	2	1	NaN	4479302.9536151	NaN	4479303.9370151	4479304.45356763
107	19	0	0	90	36.1581920903955	36.241610738255	24	0.800058144629002	2	6	4	NaN	1	3	0.0758954804430093	1	1	NaN	367	6	52	2	121	221	321	NaN	521	0.384748279117048	1	1	NaN	4479305.5872234	NaN	4479306.5705911	4479307.08715192
107	19	0	0	90	36.1581920903955	36.241610738255	7	0.233350292183459	2	7	1	NaN	2	3	0.0758954804430093	1	1	NaN	368	6	53	2	121	221	321	NaN	521	0.292505322024226	2	1	NaN	4479308.2874705	NaN	4479309.2708695	4479309.78742448
107	19	0	0	90	36.1581920903955	36.241610738255	24	0.800058144629002	2	8	3	NaN	2	4	0.0758954804430093	1	1	NaN	369	6	54	2	121	221	321	NaN	521	0.292532170191407	2	1	NaN	4479310.8877328	NaN	4479311.8711162	4479312.38768183
107	19	0	0	90	36.1581920903955	36.241610738255	0	0	1	2	3	NaN	1	5	0.0758954804430093	1	1	NaN	370	6	55	2	111	211	311	NaN	511	0.348109969869256	1	1	NaN	4479313.4879729	NaN	4479314.4713831	4479314.98793373
107	19	0	0	90	36.1581920903955	36.241610738255	9	0.300021804235876	2	10	2	NaN	2	3	0.0758954804430093	1	1	NaN	371	6	56	2	121	221	321	NaN	521	0.313348464667797	2	1	NaN	4479316.154924	NaN	4479317.1383264	4479317.65486073
107	19	0	0	90	36.1581920903955	36.241610738255	25	0.83339390065521	2	9	4	NaN	2	5	0.0758954804430093	1	1	NaN	372	6	57	2	121	221	321	NaN	521	0.280142869800329	2	1	NaN	4479318.7718108	NaN	4479319.7552885	4479320.27177973
107	19	0	0	90	36.1581920903955	36.241610738255	12	0.400029072314501	2	9	1	NaN	2	3	0.0758954804430093	1	1	NaN	373	6	58	2	121	221	321	NaN	521	0.343917170539498	2	1	NaN	4479321.3720915	NaN	4479322.3554822	4479322.87203533
107	19	0	0	90	36.1581920903955	36.241610738255	16	0.533372096419334	2	10	1	NaN	2	3	0.0758954804430093	1	1	NaN	374	6	59	2	121	221	321	NaN	521	0.317028870806098	2	1	NaN	4479324.039027	NaN	4479325.0223179	4479325.53896063
107	19	0	0	90	36.1581920903955	36.241610738255	14	0.466700584366918	2	6	1	NaN	1	3	0.0758954804430093	1	1	NaN	375	6	60	2	121	221	321	NaN	521	0.467689917422831	1	1	NaN	4479326.6724735	NaN	4479327.6560056	4479328.17255088
107	19	0	0	90	36.1581920903955	36.241610738255	15	0.500036340393126	2	1	1	NaN	1	4	0.0758954804430093	1	1	NaN	376	6	61	2	121	221	321	NaN	521	0.267852516844869	2	0	NaN	4479329.456218	NaN	4479330.4396144	4479330.95615888
107	19	0	0	90	36.1581920903955	36.241610738255	18	0.600043608471751	2	12	6	NaN	2	4	0.0758954804430093	1	1	NaN	377	6	62	2	121	221	321	NaN	521	0.220332322642207	2	1	NaN	4479332.0398085	NaN	4479333.0231925	4479333.53975538
107	19	0	0	90	36.1581920903955	36.241610738255	15	0.500036340393126	2	9	3	NaN	2	4	0.0758954804430093	1	1	NaN	378	6	63	2	121	221	321	NaN	521	0.254731571301818	2	1	NaN	4479334.5732368	NaN	4479335.5568278	4479336.07333023
107	19	0	0	90	36.1581920903955	36.241610738255	17	0.566707852445543	2	7	5	NaN	2	3	0.0758954804430093	1	1	NaN	379	7	1	2	121	221	321	NaN	521	0.228545621968806	2	1	NaN	4479346.2078466	NaN	4479347.1912571	4479347.70781328
107	19	0	0	90	36.1581920903955	36.241610738255	22	0.733386632576585	2	6	6	NaN	1	4	0.0758954804430093	1	1	NaN	380	7	2	2	121	221	321	NaN	521	0.230802689678967	1	1	NaN	4479348.7414554	NaN	4479349.7248388	4479350.24139091
107	19	0	0	90	36.1581920903955	36.241610738255	9	0.300021804235876	2	1	2	NaN	1	3	0.0758954804430093	1	1	NaN	381	7	3	2	121	221	321	NaN	521	0.010294490493834	1	1	NaN	4479351.2751425	NaN	4479352.2584198	4479352.77497271
107	19	0	0	90	36.1581920903955	36.241610738255	24	0.800058144629002	2	9	6	NaN	2	3	0.0758954804430093	1	1	NaN	382	7	4	2	121	221	321	NaN	521	0.235883570276201	2	1	NaN	4479353.5919263	NaN	4479354.575315	4479355.09186163
107	19	0	0	90	36.1581920903955	36.241610738255	19	0.63337936449796	2	1	3	NaN	1	3	0.0758954804430093	1	1	NaN	383	7	5	2	121	221	321	NaN	521	0.238177242688835	1	1	NaN	4479356.1421682	NaN	4479357.1255694	4479357.64212616
107	19	0	0	90	36.1581920903955	36.241610738255	25	0.83339390065521	2	8	3	NaN	2	3	0.0758954804430093	1	1	NaN	384	7	6	2	121	221	321	NaN	521	0.239774076268077	2	1	NaN	4479358.6925319	NaN	4479359.6758151	4479360.19236672
107	19	0	0	90	36.1581920903955	36.241610738255	12	0.400029072314501	2	11	1	NaN	2	3	0.0758954804430093	1	1	NaN	385	7	7	2	121	221	321	NaN	521	0.265494490973651	2	1	NaN	4479361.2426558	NaN	4479362.226071	4479362.74262051
107	19	0	0	90	36.1581920903955	36.241610738255	23	0.766722388602793	2	5	2	NaN	1	5	0.0758954804430093	1	1	NaN	386	7	8	2	121	221	321	NaN	521	0.361818523146212	1	1	NaN	4479363.8262616	NaN	4479364.8096944	4479365.32619748
107	19	0	0	90	36.1581920903955	36.241610738255	10	0.333357560262084	2	9	3	NaN	2	5	0.0758954804430093	1	1	NaN	387	7	9	2	121	221	321	NaN	521	0.215174970217049	2	1	NaN	4479366.4931888	NaN	4479367.4765832	4479367.99313303
107	19	0	0	90	36.1581920903955	36.241610738255	16	0.533372096419334	2	6	4	NaN	1	4	0.0758954804430093	1	1	NaN	388	7	10	2	121	221	321	NaN	521	0.257616122253239	1	1	NaN	4479369.0267582	NaN	4479370.0101572	4479370.52671698
107	19	0	0	90	36.1581920903955	36.241610738255	17	0.566707852445543	2	7	4	NaN	2	5	0.0758954804430093	1	1	NaN	389	7	11	2	121	221	321	NaN	521	0.242207570932806	2	1	NaN	4479371.5936316	NaN	4479372.5770872	4479373.09363743
107	19	0	0	90	36.1581920903955	36.241610738255	11	0.366693316288292	2	7	3	NaN	2	4	0.0758954804430093	1	1	NaN	390	7	12	2	121	221	321	NaN	521	0.260439270175993	2	1	NaN	4479374.1439319	NaN	4479375.1273548	4479375.64388093
107	19	0	0	90	36.1581920903955	36.241610738255	10	0.333357560262084	2	2	4	NaN	1	4	0.0758954804430093	1	1	NaN	391	7	13	2	121	221	321	NaN	521	0.740593322552741	1	1	NaN	4479376.7275242	NaN	4479377.7109222	4479378.22747188
107	19	0	0	90	36.1581920903955	36.241610738255	9	0.300021804235876	2	3	2	NaN	1	4	0.0758954804430093	1	1	NaN	392	7	14	2	121	221	321	NaN	521	0.0182495173066854	1	1	NaN	4479379.7778488	NaN	4479380.7612135	4479381.27776688
107	19	0	0	90	36.1581920903955	36.241610738255	16	0.533372096419334	2	3	4	NaN	1	4	0.0758954804430093	1	1	NaN	393	7	15	2	121	221	321	NaN	521	0.301020571030676	2	0	NaN	4479382.1113852	NaN	4479383.0947819	4479383.61133603
107	19	0	0	90	36.1581920903955	36.241610738255	6	0.20001453615725	2	10	2	NaN	2	5	0.0758954804430093	1	1	NaN	394	7	16	2	121	221	321	NaN	521	0.268107971176505	2	1	NaN	4479384.7283198	NaN	4479385.7116895	4479386.22825653
107	19	0	0	90	36.1581920903955	36.241610738255	19	0.63337936449796	2	6	6	NaN	1	5	0.0758954804430093	1	1	NaN	395	7	17	2	121	221	321	NaN	521	0.244253871031106	1	1	NaN	4479387.311909	NaN	4479388.295292	4479388.81184143
107	19	0	0	90	36.1581920903955	36.241610738255	19	0.63337936449796	2	12	6	NaN	2	4	0.0758954804430093	1	1	NaN	396	7	18	2	121	221	321	NaN	521	0.413281923159957	2	1	NaN	4479389.87882	NaN	4479390.862202	4479391.37876838
107	19	0	0	90	36.1581920903955	36.241610738255	20	0.666715120524168	2	11	5	NaN	2	5	0.0758954804430093	1	1	NaN	397	7	19	2	121	221	321	NaN	521	1.28071147017181	2	1	NaN	4479392.5957439	NaN	4479393.5791412	4479394.09568833
107	19	0	0	90	36.1581920903955	36.241610738255	21	0.700050876550376	2	12	3	NaN	2	3	0.0758954804430093	1	1	NaN	398	7	20	2	121	221	321	NaN	521	0.319951370358467	2	1	NaN	4479396.1961145	NaN	4479397.1794913	4479397.69604643
107	19	0	0	90	36.1581920903955	36.241610738255	10	0.333357560262084	2	7	2	NaN	2	5	0.0758954804430093	1	1	NaN	399	7	21	2	121	221	321	NaN	521	0.318192085251212	2	1	NaN	4479398.8297026	NaN	4479399.8130628	4479400.32964261
107	19	0	0	90	36.1581920903955	36.241610738255	24	0.800058144629002	2	12	6	NaN	2	4	0.0758954804430093	1	1	NaN	400	7	22	2	121	221	321	NaN	521	0.477104170247912	2	1	NaN	4479401.4632914	NaN	4479402.4466871	4479402.96323753
107	19	0	0	90	36.1581920903955	36.241610738255	25	0.83339390065521	2	6	2	NaN	1	3	0.0758954804430093	1	1	NaN	401	7	23	2	121	221	321	NaN	521	1.32554101664573	1	1	NaN	4479404.2468899	NaN	4479405.2302901	4479405.74682968
107	19	0	0	90	36.1581920903955	36.241610738255	0	0	1	7	6	NaN	2	4	0.0758954804430093	1	1	NaN	402	7	24	2	111	211	311	NaN	511	0.307667816989124	2	1	NaN	4479407.8805884	NaN	4479408.8639677	4479409.38052438
107	19	0	0	90	36.1581920903955	36.241610738255	14	0.466700584366918	2	5	4	NaN	1	4	0.0758954804430093	1	1	NaN	403	7	25	2	121	221	321	NaN	521	0.194577869959176	1	1	NaN	4479410.4975136	NaN	4479411.4809042	4479411.99745553
107	19	0	0	90	36.1581920903955	36.241610738255	23	0.766722388602793	2	2	5	NaN	1	5	0.0758954804430093	1	1	NaN	404	7	26	2	121	221	321	NaN	521	0.272020522505045	1	1	NaN	4479413.3644602	NaN	4479414.3478697	4479414.86440458
107	19	0	0	90	36.1581920903955	36.241610738255	25	0.83339390065521	2	2	6	NaN	1	3	0.0758954804430093	1	1	NaN	405	7	27	2	121	221	321	NaN	521	0.216051169671118	1	1	NaN	4479415.9479998	NaN	4479416.9314569	4479417.44798153
107	19	0	0	90	36.1581920903955	36.241610738255	9	0.300021804235876	2	2	3	NaN	1	3	0.0758954804430093	1	1	NaN	406	7	28	2	121	221	321	NaN	521	0.251317869871855	1	1	NaN	4479418.4648319	NaN	4479419.4483503	4479419.96489283
107	19	0	0	90	36.1581920903955	36.241610738255	19	0.63337936449796	2	11	2	NaN	2	5	0.0758954804430093	1	1	NaN	407	7	29	2	121	221	321	NaN	521	0.388597270473838	2	1	NaN	4479421.0318782	NaN	4479422.0152925	4479422.53181933
107	19	0	0	90	36.1581920903955	36.241610738255	10	0.333357560262084	2	3	2	NaN	1	3	0.0758954804430093	1	1	NaN	408	7	30	2	121	221	321	NaN	521	0.0104119712486863	1	1	NaN	4479423.731993	NaN	4479424.71553	4479425.23207713
107	19	0	0	90	36.1581920903955	36.241610738255	14	0.466700584366918	2	11	4	NaN	2	3	0.0758954804430093	1	1	NaN	409	7	31	2	121	221	321	NaN	521	0.219499970786273	2	1	NaN	4479426.0490208	NaN	4479427.0324089	4479427.54896953
107	19	0	0	90	36.1581920903955	36.241610738255	24	0.800058144629002	2	4	2	NaN	1	3	0.0758954804430093	1	1	NaN	410	7	32	2	121	221	321	NaN	521	0.0103890225291252	1	1	NaN	4479428.5826134	NaN	4479429.5660154	4479430.08255948
107	19	0	0	90	36.1581920903955	36.241610738255	0	0	1	1	3	NaN	1	5	0.0758954804430093	1	1	NaN	411	7	33	2	111	211	311	NaN	511	0.168764217756689	1	1	NaN	4479430.8995101	NaN	4479431.8829414	4479432.39945268
107	19	0	0	90	36.1581920903955	36.241610738255	11	0.366693316288292	2	3	3	NaN	1	5	0.0758954804430093	1	1	NaN	412	7	34	2	121	221	321	NaN	521	0.301051222719252	1	1	NaN	4479433.382947	NaN	4479434.3664748	4479434.88303208
107	19	0	0	90	36.1581920903955	36.241610738255	22	0.733386632576585	2	4	4	NaN	1	3	0.0758954804430093	1	1	NaN	413	7	35	2	121	221	321	NaN	521	0.292253970168531	1	1	NaN	4479436.0000107	NaN	4479436.9834238	4479437.49995723
107	19	0	0	90	36.1581920903955	36.241610738255	10	0.333357560262084	2	9	4	NaN	2	3	0.0758954804430093	1	1	NaN	414	7	36	2	121	221	321	NaN	521	0.278050869703293	2	1	NaN	4479438.9503082	NaN	4479439.9337071	4479440.45024113
107	19	0	0	90	36.1581920903955	36.241610738255	19	0.63337936449796	2	9	4	NaN	2	5	0.0758954804430093	1	1	NaN	415	7	37	2	121	221	321	NaN	521	0.238573770970106	2	1	NaN	4479441.5338816	NaN	4479442.5172826	4479443.03383343
107	19	0	0	90	36.1581920903955	36.241610738255	24	0.800058144629002	2	9	2	NaN	2	3	0.0758954804430093	1	1	NaN	416	7	38	2	121	221	321	NaN	521	0.3280916698277	2	1	NaN	4479444.0841419	NaN	4479445.0675326	4479445.58407773
107	19	0	0	90	36.1581920903955	36.241610738255	21	0.700050876550376	2	3	1	NaN	1	5	0.0758954804430093	1	1	NaN	417	7	39	2	121	221	321	NaN	521	0.270750870928168	1	1	NaN	4479446.7177228	NaN	4479447.7011198	4479448.21767053
107	19	0	0	90	36.1581920903955	36.241610738255	8	0.266686048209667	2	9	1	NaN	2	3	0.0758954804430093	1	1	NaN	418	7	40	2	121	221	321	NaN	521	0.294818070717156	1	0	NaN	4479449.3013398	NaN	4479450.2846897	4479450.80125593
107	19	0	0	90	36.1581920903955	36.241610738255	8	0.266686048209667	2	6	2	NaN	1	3	0.0758954804430093	1	1	NaN	419	7	41	2	121	221	321	NaN	521	0.252494570799172	2	0	NaN	4479451.9515685	NaN	4479452.9349695	4479453.45151763
107	19	0	0	90	36.1581920903955	36.241610738255	16	0.533372096419334	2	5	2	NaN	1	5	0.0758954804430093	1	1	NaN	420	7	42	2	121	221	321	NaN	521	0.101929270662367	1	1	NaN	4479454.5185021	NaN	4479455.5018847	4479456.01843853
107	19	0	0	90	36.1581920903955	36.241610738255	18	0.600043608471751	2	6	1	NaN	1	4	0.0758954804430093	1	1	NaN	421	7	43	2	121	221	321	NaN	521	0.12483262270689	2	0	NaN	4479456.9353893	NaN	4479457.9187769	4479458.43534338
107	19	0	0	90	36.1581920903955	36.241610738255	18	0.600043608471751	2	4	5	NaN	1	5	0.0758954804430093	1	1	NaN	422	7	44	2	121	221	321	NaN	521	0.883130522444844	1	1	NaN	4479459.3689678	NaN	4479460.3523646	4479460.86891868
107	19	0	0	90	36.1581920903955	36.241610738255	10	0.333357560262084	2	11	2	NaN	2	3	0.0758954804430093	1	1	NaN	423	7	45	2	121	221	321	NaN	521	0.227255370467901	1	0	NaN	4479462.5692705	NaN	4479463.5526776	4479464.06924733
107	19	0	0	90	36.1581920903955	36.241610738255	20	0.666715120524168	2	8	3	NaN	2	3	0.0758954804430093	1	1	NaN	424	7	46	2	121	221	321	NaN	521	0.0932847699150443	2	1	NaN	4479465.1029322	NaN	4479466.0862583	4479466.60280923
107	19	0	0	90	36.1581920903955	36.241610738255	19	0.63337936449796	2	9	2	NaN	2	5	0.0758954804430093	1	1	NaN	425	7	47	2	121	221	321	NaN	521	0.0104057705029845	1	0	NaN	4479467.5197804	NaN	4479468.5031382	4479469.01971193
107	19	0	0	90	36.1581920903955	36.241610738255	8	0.266686048209667	2	11	2	NaN	2	5	0.0758954804430093	1	1	NaN	426	7	48	2	121	221	321	NaN	521	0.0149074168875813	1	0	NaN	4479469.8533416	NaN	4479470.8367257	4479471.35327908
107	19	0	0	90	36.1581920903955	36.241610738255	13	0.433364828340709	2	9	4	NaN	2	4	0.0758954804430093	1	1	NaN	427	7	49	2	121	221	321	NaN	521	0.0104373171925545	1	0	NaN	4479472.2535762	NaN	4479473.2369862	4479473.75350678
107	19	0	0	90	36.1581920903955	36.241610738255	17	0.566707852445543	2	6	4	NaN	1	5	0.0758954804430093	1	1	NaN	428	7	50	2	121	221	321	NaN	521	0.290029070340097	2	0	NaN	4479474.5705001	NaN	4479475.5537296	4479476.07039873
107	19	0	0	90	36.1581920903955	36.241610738255	0	0	1	2	6	NaN	1	5	0.0758954804430093	1	1	NaN	429	7	51	2	111	211	311	NaN	511	0.233722116798162	1	1	NaN	4479477.170715	NaN	4479478.154092	4479478.67067458
107	19	0	0	90	36.1581920903955	36.241610738255	24	0.800058144629002	2	1	5	NaN	1	4	0.0758954804430093	1	1	NaN	430	7	52	2	121	221	321	NaN	521	0.275349070318043	1	1	NaN	4479479.7209568	NaN	4479480.7043437	4479481.22091103
107	19	0	0	90	36.1581920903955	36.241610738255	12	0.400029072314501	2	7	2	NaN	2	5	0.0758954804430093	1	1	NaN	431	7	53	2	121	221	321	NaN	521	0.254997665062547	2	1	NaN	4479482.4212315	NaN	4479483.4046287	4479483.92116984
107	19	0	0	90	36.1581920903955	36.241610738255	20	0.666715120524168	2	12	1	NaN	2	3	0.0758954804430093	1	1	NaN	432	7	54	2	121	221	321	NaN	521	0.232136522419751	2	1	NaN	4479484.9881626	NaN	4479485.9715079	4479486.48809228
107	19	0	0	90	36.1581920903955	36.241610738255	18	0.600043608471751	2	6	4	NaN	1	5	0.0758954804430093	1	1	NaN	433	7	55	2	121	221	321	NaN	521	0.282521822489798	1	1	NaN	4479487.5217251	NaN	4479488.5051261	4479489.02167868
107	19	0	0	90	36.1581920903955	36.241610738255	8	0.266686048209667	2	4	4	NaN	1	5	0.0758954804430093	1	1	NaN	434	7	56	2	121	221	321	NaN	521	0.202268769964576	1	1	NaN	4479490.1219923	NaN	4479491.1053665	4479491.62192993
107	19	0	0	90	36.1581920903955	36.241610738255	13	0.433364828340709	2	2	1	NaN	1	3	0.0758954804430093	1	1	NaN	435	7	57	2	121	221	321	NaN	521	0.0104022230952978	1	1	NaN	4479492.6389072	NaN	4479493.6223003	4479494.13885108
107	19	0	0	90	36.1581920903955	36.241610738255	14	0.466700584366918	2	5	5	NaN	1	5	0.0758954804430093	1	1	NaN	436	7	58	2	121	221	321	NaN	521	0.20843321736902	1	1	NaN	4479494.9558632	NaN	4479495.9391867	4479496.45573618
107	19	0	0	90	36.1581920903955	36.241610738255	11	0.366693316288292	2	4	1	NaN	1	5	0.0758954804430093	1	1	NaN	437	7	59	2	121	221	321	NaN	521	0.283622521907091	2	0	NaN	4479497.4727197	NaN	4479498.4561088	4479498.97265898
107	19	0	0	90	36.1581920903955	36.241610738255	0	0	1	3	6	NaN	1	3	0.0758954804430093	1	1	NaN	438	7	60	2	111	211	311	NaN	511	0.0103945219889283	1	1	NaN	4479500.072959	NaN	4479501.0563511	4479501.57291518
107	19	0	0	90	36.1581920903955	36.241610738255	13	0.433364828340709	2	7	6	NaN	2	3	0.0758954804430093	1	1	NaN	439	7	61	2	121	221	321	NaN	521	0.222797970287502	2	1	NaN	4479502.3898506	NaN	4479503.3732459	4479503.88979873
107	19	0	0	90	36.1581920903955	36.241610738255	25	0.83339390065521	2	12	2	NaN	2	4	0.0758954804430093	1	1	NaN	440	7	62	2	121	221	321	NaN	521	0.368799722753465	2	1	NaN	4479504.9234118	NaN	4479505.9068251	4479506.42338238
107	19	0	0	90	36.1581920903955	36.241610738255	20	0.666715120524168	2	5	6	NaN	1	4	0.0758954804430093	1	1	NaN	441	7	63	2	121	221	321	NaN	521	0.309242470189929	1	1	NaN	4479507.6070319	NaN	4479508.5904335	4479509.10697733
107	19	0	0	90	36.1581920903955	36.241610738255	9	0.300021804235876	2	6	4	NaN	1	4	0.0758954804430093	1	1	NaN	442	8	1	2	121	221	321	NaN	521	0.0104094706475735	1	1	NaN	4479527.0422766	NaN	4479528.025659	4479528.54222493
107	19	0	0	90	36.1581920903955	36.241610738255	13	0.433364828340709	2	12	3	NaN	2	5	0.0758954804430093	1	1	NaN	443	8	2	2	121	221	321	NaN	521	0.0104209706187248	2	1	NaN	4479529.3590617	NaN	4479530.3425668	4479530.85911373
107	19	0	0	90	36.1581920903955	36.241610738255	8	0.266686048209667	2	12	1	NaN	2	5	0.0758954804430093	1	1	NaN	444	8	3	2	121	221	321	NaN	521	1.72811771743	2	1	NaN	4479531.6759969	NaN	4479532.6594599	4479533.17601248
107	19	0	0	90	36.1581920903955	36.241610738255	8	0.266686048209667	2	9	3	NaN	2	3	0.0758954804430093	1	1	NaN	445	8	4	2	121	221	321	NaN	521	3.94738237094134	1	0	NaN	4479535.7931097	NaN	4479536.7765475	4479537.29307703
107	19	0	0	90	36.1581920903955	36.241610738255	6	0.20001453615725	2	12	1	NaN	2	5	0.0758954804430093	1	1	NaN	446	8	5	2	121	221	321	NaN	521	0.30394521728158	2	1	NaN	4479542.0602758	NaN	4479543.043821	4479543.56035558
107	19	0	0	90	36.1581920903955	36.241610738255	12	0.400029072314501	2	2	2	NaN	1	4	0.0758954804430093	1	1	NaN	447	8	6	2	121	221	321	NaN	521	0.263308770023286	1	1	NaN	4479544.677353	NaN	4479545.6607738	4479546.17728463
107	19	0	0	90	36.1581920903955	36.241610738255	9	0.300021804235876	2	11	2	NaN	2	5	0.0758954804430093	1	1	NaN	448	8	7	2	121	221	321	NaN	521	0.287786317057908	2	1	NaN	4479547.2609222	NaN	4479548.2443293	4479548.76086668
107	19	0	0	90	36.1581920903955	36.241610738255	21	0.700050876550376	2	8	1	NaN	2	5	0.0758954804430093	1	1	NaN	449	8	8	2	121	221	321	NaN	521	0.303282970562577	2	1	NaN	4479549.8611987	NaN	4479550.8445712	4479551.36112933
107	19	0	0	90	36.1581920903955	36.241610738255	18	0.600043608471751	2	2	6	NaN	1	4	0.0758954804430093	1	1	NaN	450	8	9	2	121	221	321	NaN	521	0.358644916675985	1	1	NaN	4479552.4779702	NaN	4479553.461502	4479553.97805298
107	19	0	0	90	36.1581920903955	36.241610738255	23	0.766722388602793	2	1	2	NaN	1	4	0.0758954804430093	1	1	NaN	451	8	10	2	121	221	321	NaN	521	0.355562470853329	1	1	NaN	4479555.1450273	NaN	4479556.1284266	4479556.64497683
107	19	0	0	90	36.1581920903955	36.241610738255	19	0.63337936449796	2	3	3	NaN	1	3	0.0758954804430093	1	1	NaN	452	8	11	2	121	221	321	NaN	521	0.312651216983795	1	1	NaN	4479557.811949	NaN	4479558.79536	4479559.31190278
107	19	0	0	90	36.1581920903955	36.241610738255	23	0.766722388602793	2	4	2	NaN	1	3	0.0758954804430093	1	1	NaN	453	8	12	2	121	221	321	NaN	521	0.174795422703028	1	1	NaN	4479560.4455482	NaN	4479561.4289528	4479561.94550188
107	19	0	0	90	36.1581920903955	36.241610738255	12	0.400029072314501	2	12	2	NaN	2	5	0.0758954804430093	1	1	NaN	454	8	13	2	121	221	321	NaN	521	0.219134670682251	2	1	NaN	4479562.9291454	NaN	4479563.9125256	4479564.42908153
107	19	0	0	90	36.1581920903955	36.241610738255	6	0.20001453615725	2	12	2	NaN	2	4	0.0758954804430093	1	1	NaN	455	8	14	2	121	221	321	NaN	521	0.253687970340252	2	1	NaN	4479565.4627048	NaN	4479566.4461	4479566.96265513
107	19	0	0	90	36.1581920903955	36.241610738255	16	0.533372096419334	2	7	3	NaN	2	3	0.0758954804430093	1	1	NaN	456	8	15	2	121	221	321	NaN	521	0.278797370381653	2	1	NaN	4479568.0296189	NaN	4479569.0130245	4479569.52957453
