subjno	age	gender	isPractice	viewdist	CmToPixX	CmToPixY	SOA_frm	SOA_time	targNum	targID	targExample	targRace	targGender	firstTargPos	contrast	familiarity	curr_staircase	iStair	TrialNum	BlockNum	blktrl	sessionNum	TC_FIXATION	TC_RSVP_START	TC_RSVP_END	TC_BLANK	TC_RESPONSE_ONSET	RT2afc	resp_2afc	acc	RSVPOnsetVBL	RSVPOnsetTime	RSVPOffsetVBL	RSVPOffsetTime	startrt_2afc
7	20	1	0	90	36.1581920903955	36.241610738255	24	0.8000830078125	2	12	1	NaN	2	3	0.0371220176202853	1	1	NaN	1	1	1	2	121	221	321	NaN	521	2.03510427987203	2	1	NaN	3108999.1565246	NaN	3109000.1398273	3109000.67291972
7	20	1	0	90	36.1581920903955	36.241610738255	22	0.733409423828125	2	5	5	NaN	1	3	0.0371220176202853	1	1	NaN	2	1	2	2	121	221	321	NaN	521	0.442827580031008	2	0	NaN	3109003.5568174	NaN	3109004.5402546	3109005.07334442
7	20	1	0	90	36.1581920903955	36.241610738255	25	0.833419799804688	2	2	2	NaN	1	5	0.0371220176202853	1	1	NaN	3	1	3	2	121	221	321	NaN	521	0.235400196164846	1	1	NaN	3109006.3403663	NaN	3109007.3237762	3109007.8402971
7	20	1	0	90	36.1581920903955	36.241610738255	19	0.633399047851563	2	5	3	NaN	1	4	0.0371220176202853	1	1	NaN	4	1	4	2	121	221	321	NaN	521	0.252579180058092	1	1	NaN	3109008.9072602	NaN	3109009.8906526	3109010.40721022
7	20	1	0	90	36.1581920903955	36.241610738255	10	0.333367919921875	2	12	5	NaN	2	4	0.0371220176202853	1	1	NaN	5	1	5	2	121	221	321	NaN	521	0.268863276112825	2	1	NaN	3109011.4908462	NaN	3109012.47425	3109012.99079442
7	20	1	0	90	36.1581920903955	36.241610738255	7	0.233357543945313	2	12	2	NaN	2	3	0.0371220176202853	1	1	NaN	6	1	6	2	121	221	321	NaN	521	0.220656780060381	2	1	NaN	3109014.091198	NaN	3109015.074516	3109015.59105852
7	20	1	0	90	36.1581920903955	36.241610738255	24	0.8000830078125	2	7	5	NaN	2	5	0.0371220176202853	1	1	NaN	7	1	7	2	121	221	321	NaN	521	0.342849784530699	2	1	NaN	3109016.641353	NaN	3109017.6247907	3109018.14131042
7	20	1	0	90	36.1581920903955	36.241610738255	0	0	1	6	5	NaN	1	5	0.0371220176202853	1	1	NaN	8	1	8	2	111	211	311	NaN	511	0.691558375954628	1	1	NaN	3109019.30817	NaN	3109020.291674	3109020.80823422
7	20	1	0	90	36.1581920903955	36.241610738255	9	0.300031127929688	2	4	2	NaN	1	4	0.0371220176202853	1	1	NaN	9	1	9	2	121	221	321	NaN	521	0.251009976025671	1	1	NaN	3109022.3252583	NaN	3109023.3086381	3109023.82518662
7	20	1	0	90	36.1581920903955	36.241610738255	20	0.66673583984375	2	3	6	NaN	1	4	0.0371220176202853	1	1	NaN	10	1	10	2	121	221	321	NaN	521	0.283595628105104	1	1	NaN	3109024.8921615	NaN	3109025.8755885	3109026.39210637
7	20	1	0	90	36.1581920903955	36.241610738255	20	0.66673583984375	2	6	6	NaN	1	5	0.0371220176202853	1	1	NaN	11	1	11	2	121	221	321	NaN	521	0.227272723801434	1	1	NaN	3109027.4924261	NaN	3109028.4758112	3109028.99236148
7	20	1	0	90	36.1581920903955	36.241610738255	0	0	1	10	3	NaN	2	5	0.0371220176202853	1	1	NaN	12	1	12	2	111	211	311	NaN	511	0.173256943933666	1	0	NaN	3109030.0426704	NaN	3109031.0260737	3109031.54262126
7	20	1	0	90	36.1581920903955	36.241610738255	19	0.633399047851563	2	6	2	NaN	1	4	0.0371220176202853	1	1	NaN	13	1	13	2	121	221	321	NaN	521	0.152841427829117	1	1	NaN	3109032.5429441	NaN	3109033.5262997	3109034.04287267
7	20	1	0	90	36.1581920903955	36.241610738255	9	0.300031127929688	2	12	4	NaN	2	3	0.0371220176202853	1	1	NaN	14	1	14	2	121	221	321	NaN	521	0.261940544005483	2	1	NaN	3109035.0098371	NaN	3109035.9932322	3109036.50978506
7	20	1	0	90	36.1581920903955	36.241610738255	25	0.833419799804688	2	11	5	NaN	2	4	0.0371220176202853	1	1	NaN	15	1	15	2	121	221	321	NaN	521	0.110319972038269	1	0	NaN	3109037.5934108	NaN	3109038.5767865	3109039.09336413
7	20	1	0	90	36.1581920903955	36.241610738255	24	0.8000830078125	2	6	3	NaN	1	3	0.0371220176202853	1	1	NaN	16	1	16	2	121	221	321	NaN	521	0.0849069240503013	1	1	NaN	3109040.0269902	NaN	3109041.0103831	3109041.52692858
7	20	1	0	90	36.1581920903955	36.241610738255	6	0.200020751953125	2	2	3	NaN	1	3	0.0371220176202853	1	1	NaN	17	1	17	2	121	221	321	NaN	521	0.108614827971905	1	1	NaN	3109042.4272266	NaN	3109043.4106159	3109043.92717457
7	20	1	0	90	36.1581920903955	36.241610738255	7	0.233357543945313	2	3	1	NaN	1	4	0.0371220176202853	1	1	NaN	18	1	18	2	121	221	321	NaN	521	0.114856376312673	1	1	NaN	3109044.860805	NaN	3109045.8442057	3109046.36074372
7	20	1	0	90	36.1581920903955	36.241610738255	7	0.233357543945313	2	2	6	NaN	1	3	0.0371220176202853	1	1	NaN	19	1	19	2	121	221	321	NaN	521	0.065585623960942	1	1	NaN	3109047.2943725	NaN	3109048.2777896	3109048.79430908
7	20	1	0	90	36.1581920903955	36.241610738255	23	0.766746215820313	2	10	6	NaN	2	4	0.0371220176202853	1	1	NaN	20	1	20	2	121	221	321	NaN	521	0.185833696275949	2	1	NaN	3109049.6779429	NaN	3109050.6613423	3109051.1778949
7	20	1	0	90	36.1581920903955	36.241610738255	24	0.8000830078125	2	8	4	NaN	2	3	0.0371220176202853	1	1	NaN	21	1	21	2	121	221	321	NaN	521	0.334004675969481	2	1	NaN	3109052.1780705	NaN	3109053.1615591	3109053.67813222
7	20	1	0	90	36.1581920903955	36.241610738255	9	0.300031127929688	2	2	1	NaN	1	4	0.0371220176202853	1	1	NaN	22	1	22	2	121	221	321	NaN	521	0.29145647585392	1	1	NaN	3109054.8283626	NaN	3109055.8118187	3109056.32840772
7	20	1	0	90	36.1581920903955	36.241610738255	15	0.500051879882813	2	7	4	NaN	2	4	0.0371220176202853	1	1	NaN	23	1	23	2	121	221	321	NaN	521	0.218886672519147	1	0	NaN	3109057.4452668	NaN	3109058.42877	3109058.94531183
7	20	1	0	90	36.1581920903955	36.241610738255	15	0.500051879882813	2	3	3	NaN	1	4	0.0371220176202853	1	1	NaN	24	1	24	2	121	221	321	NaN	521	0.148685439955443	1	1	NaN	3109059.9788225	NaN	3109060.9623396	3109061.47889406
7	20	1	0	90	36.1581920903955	36.241610738255	8	0.2666943359375	2	12	5	NaN	2	3	0.0371220176202853	1	1	NaN	25	1	25	2	121	221	321	NaN	521	0.0663032322190702	1	0	NaN	3109062.4457608	NaN	3109063.4292571	3109063.94580567
7	20	1	0	90	36.1581920903955	36.241610738255	11	0.366704711914063	2	12	6	NaN	2	4	0.0371220176202853	1	1	NaN	26	1	26	2	121	221	321	NaN	521	0.234781675972044	2	1	NaN	3109064.8292799	NaN	3109065.8128272	3109066.32937252
7	20	1	0	90	36.1581920903955	36.241610738255	14	0.466715087890625	2	5	4	NaN	1	3	0.0371220176202853	1	1	NaN	27	1	27	2	121	221	321	NaN	521	0.340114576276392	2	0	NaN	3109067.3796235	NaN	3109068.3630782	3109068.87962672
7	20	1	0	90	36.1581920903955	36.241610738255	10	0.333367919921875	2	8	6	NaN	2	3	0.0371220176202853	1	1	NaN	28	1	28	2	121	221	321	NaN	521	0.153308727778494	1	0	NaN	3109070.0466017	NaN	3109071.0300419	3109071.54654907
7	20	1	0	90	36.1581920903955	36.241610738255	8	0.2666943359375	2	10	3	NaN	2	3	0.0371220176202853	1	1	NaN	29	1	29	2	121	221	321	NaN	521	0.158263875637203	2	1	NaN	3109072.5135239	NaN	3109073.4968982	3109074.01346072
7	20	1	0	90	36.1581920903955	36.241610738255	6	0.200020751953125	2	1	5	NaN	1	4	0.0371220176202853	1	1	NaN	30	1	30	2	121	221	321	NaN	521	0.0748546798713505	2	0	NaN	3109074.9970798	NaN	3109075.9804876	3109076.49704722
7	20	1	0	90	36.1581920903955	36.241610738255	21	0.700072631835938	2	3	6	NaN	1	4	0.0371220176202853	1	1	NaN	31	1	31	2	121	221	321	NaN	521	0.0745667279697955	1	1	NaN	3109077.3973199	NaN	3109078.3807214	3109078.89728257
7	20	1	0	90	36.1581920903955	36.241610738255	14	0.466715087890625	2	3	1	NaN	1	3	0.0371220176202853	1	1	NaN	32	1	32	2	121	221	321	NaN	521	0.195571175776422	1	1	NaN	3109080.1641467	NaN	3109081.1476786	3109081.66421742
7	20	1	0	90	36.1581920903955	36.241610738255	14	0.466715087890625	2	10	4	NaN	2	5	0.0371220176202853	1	1	NaN	33	1	33	2	121	221	321	NaN	521	0.20680232392624	1	0	NaN	3109082.6811903	NaN	3109083.6645804	3109084.18113748
7	20	1	0	90	36.1581920903955	36.241610738255	11	0.366704711914063	2	5	1	NaN	1	5	0.0371220176202853	1	1	NaN	34	1	34	2	121	221	321	NaN	521	0.105571039952338	1	1	NaN	3109085.1980425	NaN	3109086.1815049	3109086.69804056
7	20	1	0	90	36.1581920903955	36.241610738255	24	0.8000830078125	2	5	2	NaN	1	4	0.0371220176202853	1	1	NaN	35	1	35	2	121	221	321	NaN	521	0.0962456236593425	1	1	NaN	3109087.6315531	NaN	3109088.6150688	3109089.13160908
7	20	1	0	90	36.1581920903955	36.241610738255	7	0.233357543945313	2	6	4	NaN	1	5	0.0371220176202853	1	1	NaN	36	1	36	2	121	221	321	NaN	521	0.143499679863453	1	1	NaN	3109090.0484488	NaN	3109091.0319623	3109091.54852752
7	20	1	0	90	36.1581920903955	36.241610738255	12	0.40004150390625	2	5	5	NaN	1	3	0.0371220176202853	1	1	NaN	37	1	37	2	121	221	321	NaN	521	0.500740827992558	1	1	NaN	3109092.5154805	NaN	3109093.4988376	3109094.01543177
7	20	1	0	90	36.1581920903955	36.241610738255	14	0.466715087890625	2	11	1	NaN	2	5	0.0371220176202853	1	1	NaN	38	1	38	2	121	221	321	NaN	521	0.123480376321822	2	1	NaN	3109095.3324263	NaN	3109096.3158326	3109096.83236652
7	20	1	0	90	36.1581920903955	36.241610738255	17	0.566725463867188	2	8	1	NaN	2	3	0.0371220176202853	1	1	NaN	39	1	39	2	121	221	321	NaN	521	1.40222422359511	2	1	NaN	3109097.765956	NaN	3109098.7493961	3109099.26594048
7	20	1	0	90	36.1581920903955	36.241610738255	8	0.2666943359375	2	3	2	NaN	1	4	0.0371220176202853	1	1	NaN	40	1	40	2	121	221	321	NaN	521	0.204885476268828	1	1	NaN	3109101.48291	NaN	3109102.4664263	3109102.98297342
7	20	1	0	90	36.1581920903955	36.241610738255	23	0.766746215820313	2	9	4	NaN	2	4	0.0371220176202853	1	1	NaN	41	1	41	2	121	221	321	NaN	521	0.280310123693198	2	1	NaN	3109103.9999549	NaN	3109104.9833783	3109105.49989578
7	20	1	0	90	36.1581920903955	36.241610738255	23	0.766746215820313	2	5	2	NaN	1	5	0.0371220176202853	1	1	NaN	42	1	42	2	121	221	321	NaN	521	0.399532931856811	2	0	NaN	3109106.6002115	NaN	3109107.5836076	3109108.10014777
7	20	1	0	90	36.1581920903955	36.241610738255	7	0.233357543945313	2	6	6	NaN	1	3	0.0371220176202853	1	1	NaN	43	1	43	2	121	221	321	NaN	521	0.203122176229954	1	1	NaN	3109109.3172957	NaN	3109110.300531	3109110.81710332
7	20	1	0	90	36.1581920903955	36.241610738255	12	0.40004150390625	2	7	6	NaN	2	3	0.0371220176202853	1	1	NaN	44	1	44	2	121	221	321	NaN	521	0.293805476278067	2	1	NaN	3109111.834043	NaN	3109112.8174434	3109113.33400592
7	20	1	0	90	36.1581920903955	36.241610738255	17	0.566725463867188	2	7	1	NaN	2	5	0.0371220176202853	1	1	NaN	45	1	45	2	121	221	321	NaN	521	0.237665676046163	1	0	NaN	3109114.434305	NaN	3109115.4176989	3109115.93425062
7	20	1	0	90	36.1581920903955	36.241610738255	18	0.600062255859375	2	2	3	NaN	1	4	0.0371220176202853	1	1	NaN	46	1	46	2	121	221	321	NaN	521	0.271413328126073	1	1	NaN	3109116.9845812	NaN	3109117.9679412	3109118.48449667
7	20	1	0	90	36.1581920903955	36.241610738255	6	0.200020751953125	2	5	1	NaN	1	5	0.0371220176202853	1	1	NaN	47	1	47	2	121	221	321	NaN	521	0.335734775755554	1	1	NaN	3109119.5681504	NaN	3109120.5514375	3109121.06809102
7	20	1	0	90	36.1581920903955	36.241610738255	21	0.700072631835938	2	9	4	NaN	2	4	0.0371220176202853	1	1	NaN	48	1	48	2	121	221	321	NaN	521	0.261349328327924	2	1	NaN	3109122.2184869	NaN	3109123.2018033	3109123.71834947
7	20	1	0	90	36.1581920903955	36.241610738255	9	0.300031127929688	2	11	3	NaN	2	3	0.0371220176202853	1	1	NaN	49	1	49	2	121	221	321	NaN	521	0.510607892181724	2	1	NaN	3109124.7852807	NaN	3109125.7687369	3109126.28526781
7	20	1	0	90	36.1581920903955	36.241610738255	0	0	1	8	4	NaN	2	3	0.0371220176202853	1	1	NaN	50	1	50	2	111	211	311	NaN	511	0.349628976080567	1	0	NaN	3109127.6022543	NaN	3109128.5856715	3109129.10221362
7	20	1	0	90	36.1581920903955	36.241610738255	17	0.566725463867188	2	6	2	NaN	1	3	0.0371220176202853	1	1	NaN	51	1	51	2	121	221	321	NaN	521	0.274710475932807	1	1	NaN	3109130.2691967	NaN	3109131.2525964	3109131.76914822
7	20	1	0	90	36.1581920903955	36.241610738255	8	0.2666943359375	2	5	3	NaN	1	3	0.0371220176202853	1	1	NaN	52	1	52	2	121	221	321	NaN	521	0.0830053761601448	2	0	NaN	3109132.8526798	NaN	3109133.8361673	3109134.35273252
7	20	1	0	90	36.1581920903955	36.241610738255	13	0.433378295898438	2	2	4	NaN	1	5	0.0371220176202853	1	1	NaN	53	1	53	2	121	221	321	NaN	521	0.299046724103391	1	1	NaN	3109135.2530146	NaN	3109136.2365293	3109136.75296408
7	20	1	0	90	36.1581920903955	36.241610738255	12	0.40004150390625	2	8	1	NaN	2	4	0.0371220176202853	1	1	NaN	54	1	54	2	121	221	321	NaN	521	0.705898275598884	1	0	NaN	3109137.8697958	NaN	3109138.8533763	3109139.36988942
7	20	1	0	90	36.1581920903955	36.241610738255	22	0.733409423828125	2	10	2	NaN	2	4	0.0371220176202853	1	1	NaN	55	1	55	2	121	221	321	NaN	521	0.225410928484052	2	1	NaN	3109140.8869304	NaN	3109141.8703287	3109142.38685807
7	20	1	0	90	36.1581920903955	36.241610738255	20	0.66673583984375	2	1	6	NaN	1	4	0.0371220176202853	1	1	NaN	56	1	56	2	121	221	321	NaN	521	0.595419827848673	2	0	NaN	3109143.4204873	NaN	3109144.4038979	3109144.92043277
7	20	1	0	90	36.1581920903955	36.241610738255	0	0	1	7	5	NaN	2	3	0.0371220176202853	1	1	NaN	57	1	57	2	111	211	311	NaN	511	0.126917124260217	2	1	NaN	3109146.3374775	NaN	3109147.3208357	3109147.83739368
7	20	1	0	90	36.1581920903955	36.241610738255	25	0.833419799804688	2	1	2	NaN	1	4	0.0371220176202853	1	1	NaN	58	1	58	2	121	221	321	NaN	521	0.157313228119165	1	1	NaN	3109148.7710243	NaN	3109149.754422	3109150.27096717
7	20	1	0	90	36.1581920903955	36.241610738255	12	0.40004150390625	2	3	2	NaN	1	4	0.0371220176202853	1	1	NaN	59	1	59	2	121	221	321	NaN	521	0.298038728535175	1	1	NaN	3109151.2379316	NaN	3109152.2213587	3109152.73787767
7	20	1	0	90	36.1581920903955	36.241610738255	6	0.200020751953125	2	10	6	NaN	2	4	0.0371220176202853	1	1	NaN	60	1	60	2	121	221	321	NaN	521	0.457588876131922	2	1	NaN	3109153.8548402	NaN	3109154.8382493	3109155.35478692
7	20	1	0	90	36.1581920903955	36.241610738255	6	0.200020751953125	2	12	5	NaN	2	4	0.0371220176202853	1	1	NaN	61	1	61	2	121	221	321	NaN	521	0.170141172129661	2	1	NaN	3109156.6216699	NaN	3109157.6051788	3109158.12173523
7	20	1	0	90	36.1581920903955	36.241610738255	21	0.700072631835938	2	5	1	NaN	1	5	0.0371220176202853	1	1	NaN	62	1	62	2	121	221	321	NaN	521	0.230986723676324	2	0	NaN	3109159.1053694	NaN	3109160.0887731	3109160.60531078
7	20	1	0	90	36.1581920903955	36.241610738255	21	0.700072631835938	2	10	2	NaN	2	5	0.0371220176202853	1	1	NaN	63	1	63	2	121	221	321	NaN	521	0.208316175732762	2	1	NaN	3109161.6556172	NaN	3109162.6390138	3109163.15555532
7	20	1	0	90	36.1581920903955	36.241610738255	22	0.733409423828125	2	6	3	NaN	1	4	0.0371220176202853	1	1	NaN	64	2	1	2	121	221	321	NaN	521	4.66058962792158	2	0	NaN	3109190.4917947	NaN	3109191.4751756	3109191.99173757
7	20	1	0	90	36.1581920903955	36.241610738255	14	0.466715087890625	2	7	1	NaN	2	5	0.0371220176202853	1	1	NaN	65	2	2	2	121	221	321	NaN	521	0.229046879801899	2	1	NaN	3109197.4591359	NaN	3109198.4425167	3109198.95908542
7	20	1	0	90	36.1581920903955	36.241610738255	21	0.700072631835938	2	3	4	NaN	1	4	0.0371220176202853	1	1	NaN	66	2	3	2	121	221	321	NaN	521	0.263749628327787	1	1	NaN	3109199.9926006	NaN	3109200.976117	3109201.49267167
7	20	1	0	90	36.1581920903955	36.241610738255	10	0.333367919921875	2	5	1	NaN	1	4	0.0371220176202853	1	1	NaN	67	2	4	2	121	221	321	NaN	521	0.29611363215372	1	1	NaN	3109202.576243	NaN	3109203.5597312	3109204.07625417
7	20	1	0	90	36.1581920903955	36.241610738255	9	0.300031127929688	2	6	6	NaN	1	5	0.0371220176202853	1	1	NaN	68	2	5	2	121	221	321	NaN	521	7.23884389176965	1	1	NaN	3109205.1932228	NaN	3109206.1766627	3109206.69317431
7	20	1	0	90	36.1581920903955	36.241610738255	13	0.433378295898438	2	10	2	NaN	2	3	0.0371220176202853	1	1	NaN	69	2	6	2	121	221	321	NaN	521	0.167898680083454	2	1	NaN	3109214.7441633	NaN	3109215.7275662	3109216.24411092
7	20	1	0	90	36.1581920903955	36.241610738255	24	0.8000830078125	2	12	4	NaN	2	5	0.0371220176202853	1	1	NaN	70	2	7	2	121	221	321	NaN	521	0.300295523833483	2	1	NaN	3109217.2276198	NaN	3109218.2111365	3109218.72769448
7	20	1	0	90	36.1581920903955	36.241610738255	23	0.766746215820313	2	2	2	NaN	1	4	0.0371220176202853	1	1	NaN	71	2	8	2	121	221	321	NaN	521	4.47547557577491	1	1	NaN	3109219.8446677	NaN	3109220.8280704	3109221.34461472
7	20	1	0	90	36.1581920903955	36.241610738255	24	0.8000830078125	2	7	4	NaN	2	3	0.0371220176202853	1	1	NaN	72	2	9	2	121	221	321	NaN	521	0.555796876084059	1	0	NaN	3109226.6285441	NaN	3109227.6120496	3109228.12861652
7	20	1	0	90	36.1581920903955	36.241610738255	10	0.333367919921875	2	10	4	NaN	2	4	0.0371220176202853	1	1	NaN	73	2	10	2	121	221	321	NaN	521	0.168881180230528	2	1	NaN	3109229.4954939	NaN	3109230.4790226	3109230.99557372
7	20	1	0	90	36.1581920903955	36.241610738255	9	0.300031127929688	2	5	4	NaN	1	4	0.0371220176202853	1	1	NaN	74	2	11	2	121	221	321	NaN	521	0.180959175806493	1	1	NaN	3109231.9792028	NaN	3109232.9625998	3109233.47914282
7	20	1	0	90	36.1581920903955	36.241610738255	10	0.333367919921875	2	3	1	NaN	1	4	0.0371220176202853	1	1	NaN	75	2	12	2	121	221	321	NaN	521	0.184981680009514	2	0	NaN	3109234.479339	NaN	3109235.4628521	3109235.97939642
7	20	1	0	90	36.1581920903955	36.241610738255	25	0.833419799804688	2	8	1	NaN	2	5	0.0371220176202853	1	1	NaN	76	2	13	2	121	221	321	NaN	521	0.196415624115616	2	1	NaN	3109236.9795888	NaN	3109237.9630575	3109238.47962738
7	20	1	0	90	36.1581920903955	36.241610738255	7	0.233357543945313	2	7	5	NaN	2	4	0.0371220176202853	1	1	NaN	77	2	14	2	121	221	321	NaN	521	0.0634642280638218	1	0	NaN	3109239.4966045	NaN	3109240.4800073	3109240.99655687
7	20	1	0	90	36.1581920903955	36.241610738255	17	0.566725463867188	2	12	2	NaN	2	3	0.0371220176202853	1	1	NaN	78	2	15	2	121	221	321	NaN	521	0.119799744337797	2	1	NaN	3109241.8800569	NaN	3109242.8635703	3109243.38012726
7	20	1	0	90	36.1581920903955	36.241610738255	23	0.766746215820313	2	4	1	NaN	1	3	0.0371220176202853	1	1	NaN	79	2	16	2	121	221	321	NaN	521	0.31872227974236	1	1	NaN	3109244.3137351	NaN	3109245.2971456	3109245.81369682
7	20	1	0	90	36.1581920903955	36.241610738255	25	0.833419799804688	2	9	6	NaN	2	4	0.0371220176202853	1	1	NaN	80	2	17	2	121	221	321	NaN	521	0.0928183756768703	1	0	NaN	3109246.9473463	NaN	3109247.9307327	3109248.44727562
7	20	1	0	90	36.1581920903955	36.241610738255	21	0.700072631835938	2	6	2	NaN	1	3	0.0371220176202853	1	1	NaN	81	2	18	2	121	221	321	NaN	521	0.132014776114374	1	1	NaN	3109249.3642412	NaN	3109250.3476416	3109250.86418542
7	20	1	0	90	36.1581920903955	36.241610738255	24	0.8000830078125	2	2	3	NaN	1	4	0.0371220176202853	1	1	NaN	82	2	19	2	121	221	321	NaN	521	0.0417095283046365	1	1	NaN	3109251.8144849	NaN	3109252.7978673	3109253.31443477
7	20	1	0	90	36.1581920903955	36.241610738255	16	0.533388671875	2	10	3	NaN	2	3	0.0371220176202853	1	1	NaN	83	2	20	2	121	221	321	NaN	521	0.171758028212935	2	1	NaN	3109254.1648015	NaN	3109255.1481152	3109255.66465137
7	20	1	0	90	36.1581920903955	36.241610738255	16	0.533388671875	2	9	3	NaN	2	4	0.0371220176202853	1	1	NaN	84	2	21	2	121	221	321	NaN	521	0.295933328103274	2	1	NaN	3109256.6482504	NaN	3109257.6316846	3109258.14823187
7	20	1	0	90	36.1581920903955	36.241610738255	11	0.366704711914063	2	10	5	NaN	2	4	0.0371220176202853	1	1	NaN	85	2	22	2	121	221	321	NaN	521	0.0716968281194568	2	1	NaN	3109259.2485395	NaN	3109260.2319328	3109260.74849037
7	20	1	0	90	36.1581920903955	36.241610738255	23	0.766746215820313	2	5	6	NaN	1	5	0.0371220176202853	1	1	NaN	86	2	23	2	121	221	321	NaN	521	0.128059127833694	2	0	NaN	3109261.6321032	NaN	3109262.6155037	3109263.13206607
7	20	1	0	90	36.1581920903955	36.241610738255	24	0.8000830078125	2	3	1	NaN	1	3	0.0371220176202853	1	1	NaN	87	2	24	2	121	221	321	NaN	521	0.0104115759022534	1	1	NaN	3109264.0657163	NaN	3109265.0490859	3109265.56563692
7	20	1	0	90	36.1581920903955	36.241610738255	16	0.533388671875	2	1	1	NaN	1	5	0.0371220176202853	1	1	NaN	88	2	25	2	121	221	321	NaN	521	0.080848528072238	1	1	NaN	3109266.3992462	NaN	3109267.3826419	3109267.89919997
7	20	1	0	90	36.1581920903955	36.241610738255	10	0.333367919921875	2	1	3	NaN	1	5	0.0371220176202853	1	1	NaN	89	2	26	2	121	221	321	NaN	521	0.0327102318406105	2	0	NaN	3109268.7994805	NaN	3109269.7828764	3109270.29942717
7	20	1	0	90	36.1581920903955	36.241610738255	6	0.200020751953125	2	3	1	NaN	1	5	0.0371220176202853	1	1	NaN	90	2	27	2	121	221	321	NaN	521	0.122401776257902	1	1	NaN	3109271.1497047	NaN	3109272.1331145	3109272.64966072
7	20	1	0	90	36.1581920903955	36.241610738255	21	0.700072631835938	2	12	6	NaN	2	5	0.0371220176202853	1	1	NaN	91	2	28	2	121	221	321	NaN	521	0.144901079591364	2	1	NaN	3109273.5832916	NaN	3109274.5666933	3109275.08322872
7	20	1	0	90	36.1581920903955	36.241610738255	17	0.566725463867188	2	11	2	NaN	2	5	0.0371220176202853	1	1	NaN	92	2	29	2	121	221	321	NaN	521	0.253858323674649	2	1	NaN	3109276.0502022	NaN	3109277.0336004	3109277.55014518
7	20	1	0	90	36.1581920903955	36.241610738255	16	0.533388671875	2	2	4	NaN	1	3	0.0371220176202853	1	1	NaN	93	2	30	2	121	221	321	NaN	521	0.159480867907405	1	1	NaN	3109278.616983	NaN	3109279.6005136	3109280.11706083
7	20	1	0	90	36.1581920903955	36.241610738255	13	0.433378295898438	2	1	1	NaN	1	4	0.0371220176202853	1	1	NaN	94	2	31	2	121	221	321	NaN	521	0.29209657618776	1	1	NaN	3109281.0840313	NaN	3109282.0673555	3109282.58397092
7	20	1	0	90	36.1581920903955	36.241610738255	18	0.600062255859375	2	3	2	NaN	1	3	0.0371220176202853	1	1	NaN	95	2	32	2	121	221	321	NaN	521	0.195128975901753	1	1	NaN	3109283.7009499	NaN	3109284.6843996	3109285.20089502
7	20	1	0	90	36.1581920903955	36.241610738255	11	0.366704711914063	2	2	6	NaN	1	4	0.0371220176202853	1	1	NaN	96	2	33	2	121	221	321	NaN	521	0.214242375921458	1	1	NaN	3109286.2178823	NaN	3109287.2012674	3109287.71780362
7	20	1	0	90	36.1581920903955	36.241610738255	16	0.533388671875	2	11	2	NaN	2	4	0.0371220176202853	1	1	NaN	97	2	34	2	121	221	321	NaN	521	0.0887856278568506	2	1	NaN	3109288.7514361	NaN	3109289.7348294	3109290.25138837
7	20	1	0	90	36.1581920903955	36.241610738255	9	0.300031127929688	2	1	1	NaN	1	3	0.0371220176202853	1	1	NaN	98	2	35	2	121	221	321	NaN	521	0.416431728284806	1	1	NaN	3109291.1517031	NaN	3109292.135063	3109292.65163547
7	20	1	0	90	36.1581920903955	36.241610738255	12	0.40004150390625	2	6	1	NaN	1	4	0.0371220176202853	1	1	NaN	99	2	36	2	121	221	321	NaN	521	0.138762343674898	1	1	NaN	3109293.8852945	NaN	3109294.8686744	3109295.38523856
7	20	1	0	90	36.1581920903955	36.241610738255	23	0.766746215820313	2	7	1	NaN	2	5	0.0371220176202853	1	1	NaN	100	2	37	2	121	221	321	NaN	521	0.08798807580024	2	1	NaN	3109296.3520527	NaN	3109297.335589	3109297.85213702
7	20	1	0	90	36.1581920903955	36.241610738255	10	0.333367919921875	2	11	5	NaN	2	5	0.0371220176202853	1	1	NaN	101	2	38	2	121	221	321	NaN	521	0.311729575973004	2	1	NaN	3109298.7524366	NaN	3109299.7358353	3109300.25237512
7	20	1	0	90	36.1581920903955	36.241610738255	22	0.733409423828125	2	11	4	NaN	2	4	0.0371220176202853	1	1	NaN	102	2	39	2	121	221	321	NaN	521	0.0388932758942246	2	1	NaN	3109301.3692254	NaN	3109302.3527577	3109302.86929252
7	20	1	0	90	36.1581920903955	36.241610738255	19	0.633399047851563	2	9	5	NaN	2	4	0.0371220176202853	1	1	NaN	103	2	40	2	121	221	321	NaN	521	0.136400728486478	2	1	NaN	3109303.7195443	NaN	3109304.7030174	3109305.21953167
7	20	1	0	90	36.1581920903955	36.241610738255	6	0.200020751953125	2	7	6	NaN	2	3	0.0371220176202853	1	1	NaN	104	2	41	2	121	221	321	NaN	521	0.126390575896949	2	1	NaN	3109306.1698242	NaN	3109307.1532335	3109307.66976672
7	20	1	0	90	36.1581920903955	36.241610738255	20	0.66673583984375	2	11	3	NaN	2	4	0.0371220176202853	1	1	NaN	105	2	42	2	121	221	321	NaN	521	0.0201623761095107	1	0	NaN	3109308.6200666	NaN	3109309.6034542	3109310.12000962
7	20	1	0	90	36.1581920903955	36.241610738255	16	0.533388671875	2	3	2	NaN	1	4	0.0371220176202853	1	1	NaN	106	2	43	2	121	221	321	NaN	521	0.126936975866556	1	1	NaN	3109310.9536504	NaN	3109311.937027	3109312.45357522
7	20	1	0	90	36.1581920903955	36.241610738255	17	0.566725463867188	2	4	1	NaN	1	5	0.0371220176202853	1	1	NaN	107	2	44	2	121	221	321	NaN	521	0.165089080110192	1	1	NaN	3109313.3870509	NaN	3109314.3706081	3109314.88715362
7	20	1	0	90	36.1581920903955	36.241610738255	0	0	1	12	1	NaN	2	5	0.0371220176202853	1	1	NaN	108	2	45	2	111	211	311	NaN	511	0.122109876014292	2	1	NaN	3109315.8539853	NaN	3109316.8375075	3109317.35405842
7	20	1	0	90	36.1581920903955	36.241610738255	10	0.333367919921875	2	8	4	NaN	2	5	0.0371220176202853	1	1	NaN	109	2	46	2	121	221	321	NaN	521	0.200408075936139	2	1	NaN	3109318.287684	NaN	3109319.2710763	3109319.78763612
7	20	1	0	90	36.1581920903955	36.241610738255	13	0.433378295898438	2	12	6	NaN	2	3	0.0371220176202853	1	1	NaN	110	2	47	2	121	221	321	NaN	521	8.41207422409207	2	1	NaN	3109320.8045952	NaN	3109321.7879766	3109322.30454848
7	20	1	0	90	36.1581920903955	36.241610738255	25	0.833419799804688	2	4	1	NaN	1	3	0.0371220176202853	1	1	NaN	111	2	48	2	121	221	321	NaN	521	0.220887175761163	2	0	NaN	3109331.5556469	NaN	3109332.5390442	3109333.05559382
7	20	1	0	90	36.1581920903955	36.241610738255	6	0.200020751953125	2	6	2	NaN	1	3	0.0371220176202853	1	1	NaN	112	2	49	2	121	221	321	NaN	521	0.215385228395462	1	1	NaN	3109334.0892737	NaN	3109335.0726355	3109335.58918957
7	20	1	0	90	36.1581920903955	36.241610738255	6	0.200020751953125	2	8	2	NaN	2	4	0.0371220176202853	1	1	NaN	113	2	50	2	121	221	321	NaN	521	0.0103832799941301	1	0	NaN	3109336.6228129	NaN	3109337.606207	3109338.12277212
7	20	1	0	90	36.1581920903955	36.241610738255	22	0.733409423828125	2	3	4	NaN	1	5	0.0371220176202853	1	1	NaN	114	2	51	2	121	221	321	NaN	521	0.259986775927246	2	0	NaN	3109338.9563877	NaN	3109339.9397738	3109340.45632792
7	20	1	0	90	36.1581920903955	36.241610738255	0	0	1	3	4	NaN	1	3	0.0371220176202853	1	1	NaN	115	2	52	2	111	211	311	NaN	511	1.12469928013161	2	0	NaN	3109341.5399629	NaN	3109342.5233538	3109343.03992442
7	20	1	0	90	36.1581920903955	36.241610738255	19	0.633399047851563	2	12	6	NaN	2	5	0.0371220176202853	1	1	NaN	116	2	53	2	121	221	321	NaN	521	0.0267103281803429	2	1	NaN	3109344.9736412	NaN	3109345.9570387	3109346.47359217
7	20	1	0	90	36.1581920903955	36.241610738255	11	0.366704711914063	2	4	1	NaN	1	4	0.0371220176202853	1	1	NaN	117	2	54	2	121	221	321	NaN	521	0.426031676121056	1	1	NaN	3109347.7906254	NaN	3109348.7739953	3109349.29053222
7	20	1	0	90	36.1581920903955	36.241610738255	15	0.500051879882813	2	2	3	NaN	1	3	0.0371220176202853	1	1	NaN	118	2	55	2	121	221	321	NaN	521	4.42010917607695	1	1	NaN	3109350.5241685	NaN	3109351.5075834	3109352.02413262
7	20	1	0	90	36.1581920903955	36.241610738255	20	0.66673583984375	2	12	2	NaN	2	5	0.0371220176202853	1	1	NaN	119	2	56	2	121	221	321	NaN	521	0.0103980284184217	2	1	NaN	3109357.2581901	NaN	3109358.2415648	3109358.75813137
7	20	1	0	90	36.1581920903955	36.241610738255	8	0.2666943359375	2	4	1	NaN	1	4	0.0371220176202853	1	1	NaN	120	2	57	2	121	221	321	NaN	521	0.753651732113212	1	1	NaN	3109359.5751802	NaN	3109360.5584495	3109361.07502007
7	20	1	0	90	36.1581920903955	36.241610738255	12	0.40004150390625	2	12	1	NaN	2	4	0.0371220176202853	1	1	NaN	121	2	58	2	121	221	321	NaN	521	0.262111728079617	2	1	NaN	3109363.0420248	NaN	3109364.0254767	3109364.54202817
7	20	1	0	90	36.1581920903955	36.241610738255	20	0.66673583984375	2	7	4	NaN	2	3	0.0371220176202853	1	1	NaN	122	2	59	2	121	221	321	NaN	521	0.167195675894618	2	1	NaN	3109365.6089926	NaN	3109366.5923979	3109367.10894892
7	20	1	0	90	36.1581920903955	36.241610738255	8	0.2666943359375	2	2	2	NaN	1	5	0.0371220176202853	1	1	NaN	123	2	60	2	121	221	321	NaN	521	0.195697428192943	1	1	NaN	3109368.0925867	NaN	3109369.0759709	3109369.59253137
7	20	1	0	90	36.1581920903955	36.241610738255	0	0	1	5	4	NaN	1	3	0.0371220176202853	1	1	NaN	124	2	61	2	111	211	311	NaN	511	0.206539176404476	1	1	NaN	3109370.6093701	NaN	3109371.592877	3109372.10944182
7	20	1	0	90	36.1581920903955	36.241610738255	23	0.766746215820313	2	2	6	NaN	1	4	0.0371220176202853	1	1	NaN	125	2	62	2	121	221	321	NaN	521	0.105875975918025	1	1	NaN	3109373.1265161	NaN	3109374.1097945	3109374.62634822
7	20	1	0	90	36.1581920903955	36.241610738255	22	0.733409423828125	2	10	2	NaN	2	5	0.0371220176202853	1	1	NaN	126	2	63	2	121	221	321	NaN	521	0.233385175932199	2	1	NaN	3109375.5433148	NaN	3109376.5267139	3109377.04326042
7	20	1	0	90	36.1581920903955	36.241610738255	10	0.333367919921875	2	11	6	NaN	2	5	0.0371220176202853	1	1	NaN	127	3	1	2	121	221	321	NaN	521	0.312768728472292	2	1	NaN	3109416.4473636	NaN	3109417.4307316	3109417.94728167
7	20	1	0	90	36.1581920903955	36.241610738255	13	0.433378295898438	2	11	6	NaN	2	3	0.0371220176202853	1	1	NaN	128	3	2	2	121	221	321	NaN	521	0.487819828093052	2	1	NaN	3109419.0809211	NaN	3109420.0643398	3109420.58086917
7	20	1	0	90	36.1581920903955	36.241610738255	10	0.333367919921875	2	4	3	NaN	1	5	0.0371220176202853	1	1	NaN	129	3	3	2	121	221	321	NaN	521	0.183611776214093	1	1	NaN	3109421.8812208	NaN	3109422.8645965	3109423.38114992
7	20	1	0	90	36.1581920903955	36.241610738255	6	0.200020751953125	2	11	6	NaN	2	3	0.0371220176202853	1	1	NaN	130	3	4	2	121	221	321	NaN	521	0.106899575795978	2	1	NaN	3109424.381446	NaN	3109425.3648424	3109425.88139692
7	20	1	0	90	36.1581920903955	36.241610738255	14	0.466715087890625	2	8	6	NaN	2	3	0.0371220176202853	1	1	NaN	131	3	5	2	121	221	321	NaN	521	0.0738904760219157	1	0	NaN	3109426.7983482	NaN	3109427.7817494	3109428.29829382
7	20	1	0	90	36.1581920903955	36.241610738255	16	0.533388671875	2	11	5	NaN	2	5	0.0371220176202853	1	1	NaN	132	3	6	2	121	221	321	NaN	521	0.194290779996663	2	1	NaN	3109429.1819253	NaN	3109430.1653135	3109430.68187292
7	20	1	0	90	36.1581920903955	36.241610738255	23	0.766746215820313	2	8	1	NaN	2	3	0.0371220176202853	1	1	NaN	133	3	7	2	121	221	321	NaN	521	0.150239876005799	2	1	NaN	3109431.6821726	NaN	3109432.6655662	3109433.18211422
7	20	1	0	90	36.1581920903955	36.241610738255	17	0.566725463867188	2	8	5	NaN	2	3	0.0371220176202853	1	1	NaN	134	3	8	2	121	221	321	NaN	521	0.211380328051746	1	0	NaN	3109434.1490788	NaN	3109435.1324557	3109435.64901637
7	20	1	0	90	36.1581920903955	36.241610738255	19	0.633399047851563	2	3	5	NaN	1	5	0.0371220176202853	1	1	NaN	135	3	9	2	121	221	321	NaN	521	0.254803728312254	2	0	NaN	3109436.6659829	NaN	3109437.6493807	3109438.16593797
7	20	1	0	90	36.1581920903955	36.241610738255	8	0.2666943359375	2	1	4	NaN	1	4	0.0371220176202853	1	1	NaN	136	3	10	2	121	221	321	NaN	521	2.83146022818983	1	1	NaN	3109439.2329143	NaN	3109440.2163019	3109440.73285807
7	20	1	0	90	36.1581920903955	36.241610738255	0	0	1	11	3	NaN	2	4	0.0371220176202853	1	1	NaN	137	3	11	2	111	211	311	NaN	511	0.641198575962335	1	0	NaN	3109444.3833885	NaN	3109445.3668013	3109445.88335572
7	20	1	0	90	36.1581920903955	36.241610738255	19	0.633399047851563	2	2	6	NaN	1	5	0.0371220176202853	1	1	NaN	138	3	12	2	121	221	321	NaN	521	0.258031328208745	1	1	NaN	3109447.3503638	NaN	3109448.333782	3109448.85031457
7	20	1	0	90	36.1581920903955	36.241610738255	23	0.766746215820313	2	6	5	NaN	1	4	0.0371220176202853	1	1	NaN	139	3	13	2	121	221	321	NaN	521	0.411109476350248	1	1	NaN	3109449.9172899	NaN	3109450.9006914	3109451.41723862
7	20	1	0	90	36.1581920903955	36.241610738255	12	0.40004150390625	2	10	4	NaN	2	3	0.0371220176202853	1	1	NaN	140	3	14	2	121	221	321	NaN	521	0.342572975903749	2	1	NaN	3109452.6342263	NaN	3109453.6176255	3109454.13416792
7	20	1	0	90	36.1581920903955	36.241610738255	15	0.500051879882813	2	4	5	NaN	1	5	0.0371220176202853	1	1	NaN	141	3	15	2	121	221	321	NaN	521	0.180231572594494	1	1	NaN	3109455.2844437	NaN	3109456.2678785	3109456.78442933
7	20	1	0	90	36.1581920903955	36.241610738255	9	0.300031127929688	2	11	5	NaN	2	5	0.0371220176202853	1	1	NaN	142	3	16	2	121	221	321	NaN	521	0.191998628433794	1	0	NaN	3109457.7847328	NaN	3109458.7681227	3109459.28467807
7	20	1	0	90	36.1581920903955	36.241610738255	19	0.633399047851563	2	9	4	NaN	2	3	0.0371220176202853	1	1	NaN	143	3	17	2	121	221	321	NaN	521	0.18743632780388	2	1	NaN	3109460.2849808	NaN	3109461.2683716	3109461.78493227
7	20	1	0	90	36.1581920903955	36.241610738255	16	0.533388671875	2	4	3	NaN	1	3	0.0371220176202853	1	1	NaN	144	3	18	2	121	221	321	NaN	521	0.231103943660855	1	1	NaN	3109462.7852227	NaN	3109463.7686363	3109464.28517826
7	20	1	0	90	36.1581920903955	36.241610738255	18	0.600062255859375	2	11	3	NaN	2	5	0.0371220176202853	1	1	NaN	145	3	19	2	121	221	321	NaN	521	0.273327728267759	2	1	NaN	3109465.33548	NaN	3109466.3188804	3109466.83542427
7	20	1	0	90	36.1581920903955	36.241610738255	9	0.300031127929688	2	3	4	NaN	1	3	0.0371220176202853	1	1	NaN	146	3	20	2	121	221	321	NaN	521	0.593277975916862	1	1	NaN	3109467.9190592	NaN	3109468.9024707	3109469.41901052
7	20	1	0	90	36.1581920903955	36.241610738255	19	0.633399047851563	2	11	1	NaN	2	5	0.0371220176202853	1	1	NaN	147	3	21	2	121	221	321	NaN	521	0.333100875839591	1	0	NaN	3109470.8193406	NaN	3109471.8027542	3109472.31928672
7	20	1	0	90	36.1581920903955	36.241610738255	18	0.600062255859375	2	6	4	NaN	1	4	0.0371220176202853	1	1	NaN	148	3	22	2	121	221	321	NaN	521	0.162732387892902	1	1	NaN	3109473.4695955	NaN	3109474.4530201	3109474.96956131
7	20	1	0	90	36.1581920903955	36.241610738255	18	0.600062255859375	2	4	2	NaN	1	4	0.0371220176202853	1	1	NaN	149	3	23	2	121	221	321	NaN	521	0.0959871239028871	1	1	NaN	3109475.9365204	NaN	3109476.9199215	3109477.43646308
7	20	1	0	90	36.1581920903955	36.241610738255	8	0.2666943359375	2	4	4	NaN	1	3	0.0371220176202853	1	1	NaN	150	3	24	2	121	221	321	NaN	521	0.0629175282083452	1	1	NaN	3109478.3534142	NaN	3109479.3368214	3109479.85337117
7	20	1	0	90	36.1581920903955	36.241610738255	14	0.466715087890625	2	12	1	NaN	2	5	0.0371220176202853	1	1	NaN	151	3	25	2	121	221	321	NaN	521	0.0401257239282131	2	1	NaN	3109480.7203051	NaN	3109481.7037114	3109482.22026808
7	20	1	0	90	36.1581920903955	36.241610738255	12	0.40004150390625	2	3	6	NaN	1	5	0.0371220176202853	1	1	NaN	152	3	26	2	121	221	321	NaN	521	0.081918376032263	1	1	NaN	3109483.0705461	NaN	3109484.053958	3109484.57049702
7	20	1	0	90	36.1581920903955	36.241610738255	11	0.366704711914063	2	4	2	NaN	1	4	0.0371220176202853	1	1	NaN	153	3	27	2	121	221	321	NaN	521	0.169608579948545	1	1	NaN	3109485.4707901	NaN	3109486.4541932	3109486.97074142
7	20	1	0	90	36.1581920903955	36.241610738255	8	0.2666943359375	2	8	1	NaN	2	5	0.0371220176202853	1	1	NaN	154	3	28	2	121	221	321	NaN	521	0.20597992837429	2	1	NaN	3109487.9543546	NaN	3109488.937766	3109489.45431697
7	20	1	0	90	36.1581920903955	36.241610738255	7	0.233357543945313	2	2	2	NaN	1	4	0.0371220176202853	1	1	NaN	155	3	29	2	121	221	321	NaN	521	0.217073176056147	1	1	NaN	3109490.4713873	NaN	3109491.4546813	3109491.97121942
7	20	1	0	90	36.1581920903955	36.241610738255	25	0.833419799804688	2	12	5	NaN	2	5	0.0371220176202853	1	1	NaN	156	3	30	2	121	221	321	NaN	521	0.139491176232696	2	1	NaN	3109493.0048586	NaN	3109493.9882676	3109494.50480262
7	20	1	0	90	36.1581920903955	36.241610738255	24	0.8000830078125	2	11	3	NaN	2	5	0.0371220176202853	1	1	NaN	157	3	31	2	121	221	321	NaN	521	0.177377876359969	2	1	NaN	3109495.4550973	NaN	3109496.4384914	3109496.95504812
7	20	1	0	90	36.1581920903955	36.241610738255	13	0.433378295898438	2	5	4	NaN	1	5	0.0371220176202853	1	1	NaN	158	3	32	2	121	221	321	NaN	521	0.0297925239428878	1	1	NaN	3109497.9385624	NaN	3109498.9221026	3109499.43862408
7	20	1	0	90	36.1581920903955	36.241610738255	12	0.40004150390625	2	10	2	NaN	2	5	0.0371220176202853	1	1	NaN	159	3	33	2	121	221	321	NaN	521	0.247859723865986	2	1	NaN	3109500.2888947	NaN	3109501.2723057	3109501.78885038
7	20	1	0	90	36.1581920903955	36.241610738255	13	0.433378295898438	2	8	2	NaN	2	3	0.0371220176202853	1	1	NaN	160	3	34	2	121	221	321	NaN	521	0.216867728158832	2	1	NaN	3109502.8558238	NaN	3109503.8392396	3109504.35577097
7	20	1	0	90	36.1581920903955	36.241610738255	11	0.366704711914063	2	5	3	NaN	1	5	0.0371220176202853	1	1	NaN	161	3	35	2	121	221	321	NaN	521	0.187091975938529	1	1	NaN	3109505.3894186	NaN	3109506.3728128	3109506.88935232
7	20	1	0	90	36.1581920903955	36.241610738255	11	0.366704711914063	2	1	5	NaN	1	5	0.0371220176202853	1	1	NaN	162	3	36	2	121	221	321	NaN	521	0.422801823820919	1	1	NaN	3109507.8896514	NaN	3109508.8730491	3109509.38961048
7	20	1	0	90	36.1581920903955	36.241610738255	15	0.500051879882813	2	6	4	NaN	1	4	0.0371220176202853	1	1	NaN	163	3	37	2	121	221	321	NaN	521	0.145026276353747	1	1	NaN	3109510.6232531	NaN	3109511.6066377	3109512.12320102
7	20	1	0	90	36.1581920903955	36.241610738255	14	0.466715087890625	2	2	3	NaN	1	4	0.0371220176202853	1	1	NaN	164	3	38	2	121	221	321	NaN	521	0.142335744109005	1	1	NaN	3109513.0901751	NaN	3109514.0736711	3109514.59012396
7	20	1	0	90	36.1581920903955	36.241610738255	15	0.500051879882813	2	12	3	NaN	2	5	0.0371220176202853	1	1	NaN	165	3	39	2	121	221	321	NaN	521	0.25240637594834	2	1	NaN	3109515.5404157	NaN	3109516.5238139	3109517.04037892
7	20	1	0	90	36.1581920903955	36.241610738255	9	0.300031127929688	2	6	3	NaN	1	3	0.0371220176202853	1	1	NaN	166	3	40	2	121	221	321	NaN	521	0.149252032395452	1	1	NaN	3109518.1072025	NaN	3109519.0907265	3109519.60728337
7	20	1	0	90	36.1581920903955	36.241610738255	16	0.533388671875	2	12	6	NaN	2	5	0.0371220176202853	1	1	NaN	167	3	41	2	121	221	321	NaN	521	0.258549228310585	2	1	NaN	3109520.5743352	NaN	3109521.5576453	3109522.07419117
7	20	1	0	90	36.1581920903955	36.241610738255	10	0.333367919921875	2	2	1	NaN	1	4	0.0371220176202853	1	1	NaN	168	3	42	2	121	221	321	NaN	521	0.359061024151742	1	1	NaN	3109523.4578447	NaN	3109524.4412601	3109524.95780688
7	20	1	0	90	36.1581920903955	36.241610738255	8	0.2666943359375	2	6	1	NaN	1	4	0.0371220176202853	1	1	NaN	169	3	43	2	121	221	321	NaN	521	0.0103940283879638	1	1	NaN	3109526.1247888	NaN	3109527.1081895	3109527.62473867
7	20	1	0	90	36.1581920903955	36.241610738255	9	0.300031127929688	2	2	4	NaN	1	5	0.0371220176202853	1	1	NaN	170	3	44	2	121	221	321	NaN	521	0.134887428488582	1	1	NaN	3109528.4416732	NaN	3109529.4250899	3109529.94162747
7	20	1	0	90	36.1581920903955	36.241610738255	22	0.733409423828125	2	2	4	NaN	1	3	0.0371220176202853	1	1	NaN	171	3	45	2	121	221	321	NaN	521	0.125029976014048	1	1	NaN	3109530.8919197	NaN	3109531.875318	3109532.39187732
7	20	1	0	90	36.1581920903955	36.241610738255	13	0.433378295898438	2	12	3	NaN	2	3	0.0371220176202853	1	1	NaN	172	3	46	2	121	221	321	NaN	521	0.187346476130188	2	1	NaN	3109533.3254879	NaN	3109534.3089069	3109534.82543922
7	20	1	0	90	36.1581920903955	36.241610738255	25	0.833419799804688	2	5	6	NaN	1	3	0.0371220176202853	1	1	NaN	173	3	47	2	121	221	321	NaN	521	0.279137323610485	2	0	NaN	3109535.8257318	NaN	3109536.8091387	3109537.32568488
7	20	1	0	90	36.1581920903955	36.241610738255	11	0.366704711914063	2	10	5	NaN	2	3	0.0371220176202853	1	1	NaN	174	3	48	2	121	221	321	NaN	521	0.215564880054444	1	0	NaN	3109538.4093489	NaN	3109539.3927753	3109539.90927952
7	20	1	0	90	36.1581920903955	36.241610738255	21	0.700072631835938	2	12	2	NaN	2	3	0.0371220176202853	1	1	NaN	175	3	49	2	121	221	321	NaN	521	0.249596728011966	2	1	NaN	3109540.9429014	NaN	3109541.9263109	3109542.44286167
7	20	1	0	90	36.1581920903955	36.241610738255	23	0.766746215820313	2	11	2	NaN	2	4	0.0371220176202853	1	1	NaN	176	3	50	2	121	221	321	NaN	521	0.194766779895872	2	1	NaN	3109543.5098158	NaN	3109544.4932386	3109545.00978182
7	20	1	0	90	36.1581920903955	36.241610738255	10	0.333367919921875	2	3	1	NaN	1	5	0.0371220176202853	1	1	NaN	177	3	51	2	121	221	321	NaN	521	0.14249563170597	1	1	NaN	3109546.0100691	NaN	3109546.9935098	3109547.51001787
7	20	1	0	90	36.1581920903955	36.241610738255	10	0.333367919921875	2	6	1	NaN	1	4	0.0371220176202853	1	1	NaN	178	3	52	2	121	221	321	NaN	521	0.180434187874198	1	1	NaN	3109548.4602391	NaN	3109549.4437023	3109549.96026031
7	20	1	0	90	36.1581920903955	36.241610738255	18	0.600062255859375	2	1	6	NaN	1	5	0.0371220176202853	1	1	NaN	179	3	53	2	121	221	321	NaN	521	0.010424975771457	1	1	NaN	3109550.9605536	NaN	3109551.9439524	3109552.46050502
7	20	1	0	90	36.1581920903955	36.241610738255	14	0.466715087890625	2	1	4	NaN	1	4	0.0371220176202853	1	1	NaN	180	3	54	2	121	221	321	NaN	521	0.235074579715729	2	0	NaN	3109553.2774612	NaN	3109554.2608654	3109554.77740932
7	20	1	0	90	36.1581920903955	36.241610738255	14	0.466715087890625	2	10	3	NaN	2	4	0.0371220176202853	1	1	NaN	181	3	55	2	121	221	321	NaN	521	0.212811139877886	2	1	NaN	3109555.8276005	NaN	3109556.8111128	3109557.32765686
7	20	1	0	90	36.1581920903955	36.241610738255	20	0.66673583984375	2	2	4	NaN	1	5	0.0371220176202853	1	1	NaN	182	3	56	2	121	221	321	NaN	521	0.191253179684281	1	1	NaN	3109558.3612759	NaN	3109559.3446952	3109559.86124262
7	20	1	0	90	36.1581920903955	36.241610738255	12	0.40004150390625	2	9	6	NaN	2	3	0.0371220176202853	1	1	NaN	183	3	57	2	121	221	321	NaN	521	0.147004143800586	2	1	NaN	3109560.8615514	NaN	3109561.8449284	3109562.36147996
7	20	1	0	90	36.1581920903955	36.241610738255	24	0.8000830078125	2	9	3	NaN	2	4	0.0371220176202853	1	1	NaN	184	3	58	2	121	221	321	NaN	521	0.137169779743999	2	1	NaN	3109563.3117814	NaN	3109564.2951573	3109564.81172682
7	20	1	0	90	36.1581920903955	36.241610738255	21	0.700072631835938	2	7	5	NaN	2	4	0.0371220176202853	1	1	NaN	185	3	59	2	121	221	321	NaN	521	0.150892524048686	1	0	NaN	3109565.762021	NaN	3109566.7454158	3109567.26195648
7	20	1	0	90	36.1581920903955	36.241610738255	24	0.8000830078125	2	9	2	NaN	2	5	0.0371220176202853	1	1	NaN	186	3	60	2	121	221	321	NaN	521	0.220066079869866	2	1	NaN	3109568.2289046	NaN	3109569.212322	3109569.72887872
7	20	1	0	90	36.1581920903955	36.241610738255	11	0.366704711914063	2	12	2	NaN	2	5	0.0371220176202853	1	1	NaN	187	3	61	2	121	221	321	NaN	521	0.0459904284216464	2	1	NaN	3109570.7623873	NaN	3109571.7458828	3109572.26246137
7	20	1	0	90	36.1581920903955	36.241610738255	10	0.333367919921875	2	9	5	NaN	2	3	0.0371220176202853	1	1	NaN	188	3	62	2	121	221	321	NaN	521	0.111228228546679	1	0	NaN	3109573.1294067	NaN	3109574.1128126	3109574.62935787
7	20	1	0	90	36.1581920903955	36.241610738255	16	0.533388671875	2	7	1	NaN	2	3	0.0371220176202853	1	1	NaN	189	3	63	2	121	221	321	NaN	521	0.0536516760475934	2	1	NaN	3109575.5629936	NaN	3109576.5463817	3109577.06291872
7	20	1	0	90	36.1581920903955	36.241610738255	16	0.533388671875	2	5	2	NaN	1	4	0.0371220176202853	1	1	NaN	190	4	1	2	121	221	321	NaN	521	0.121770775876939	1	1	NaN	3109588.2307569	NaN	3109589.2143012	3109589.73083092
7	20	1	0	90	36.1581920903955	36.241610738255	22	0.733409423828125	2	1	2	NaN	1	3	0.0371220176202853	1	1	NaN	191	4	2	2	121	221	321	NaN	521	0.328503979835659	2	0	NaN	3109590.6644578	NaN	3109591.6478689	3109592.16441282
7	20	1	0	90	36.1581920903955	36.241610738255	12	0.40004150390625	2	2	6	NaN	1	5	0.0371220176202853	1	1	NaN	192	4	3	2	121	221	321	NaN	521	0.133866128046066	1	1	NaN	3109593.3147195	NaN	3109594.2981492	3109594.81467547
7	20	1	0	90	36.1581920903955	36.241610738255	24	0.8000830078125	2	1	6	NaN	1	5	0.0371220176202853	1	1	NaN	193	4	4	2	121	221	321	NaN	521	0.131614431738853	2	0	NaN	3109595.7649679	NaN	3109596.7483757	3109597.26491387
7	20	1	0	90	36.1581920903955	36.241610738255	17	0.566725463867188	2	10	1	NaN	2	4	0.0371220176202853	1	1	NaN	194	4	5	2	121	221	321	NaN	521	0.0974389761686325	2	1	NaN	3109598.2152106	NaN	3109599.1986067	3109599.71515142
7	20	1	0	90	36.1581920903955	36.241610738255	8	0.2666943359375	2	12	4	NaN	2	3	0.0371220176202853	1	1	NaN	195	4	6	2	121	221	321	NaN	521	0.169039628468454	2	1	NaN	3109600.615445	NaN	3109601.5988266	3109602.11539447
7	20	1	0	90	36.1581920903955	36.241610738255	10	0.333367919921875	2	1	3	NaN	1	5	0.0371220176202853	1	1	NaN	196	4	7	2	121	221	321	NaN	521	0.101757423952222	1	1	NaN	3109603.0990408	NaN	3109604.08241	3109604.59895788
7	20	1	0	90	36.1581920903955	36.241610738255	22	0.733409423828125	2	12	3	NaN	2	3	0.0371220176202853	1	1	NaN	197	4	8	2	121	221	321	NaN	521	0.068654075730592	1	0	NaN	3109605.5159212	NaN	3109606.4993344	3109607.01586772
7	20	1	0	90	36.1581920903955	36.241610738255	22	0.733409423828125	2	7	3	NaN	2	4	0.0371220176202853	1	1	NaN	198	4	9	2	121	221	321	NaN	521	0.0291162235662341	1	0	NaN	3109607.899501	NaN	3109608.8828838	3109609.39943098
7	20	1	0	90	36.1581920903955	36.241610738255	16	0.533388671875	2	10	4	NaN	2	3	0.0371220176202853	1	1	NaN	199	4	10	2	121	221	321	NaN	521	0.543321576435119	2	1	NaN	3109610.2497123	NaN	3109611.233135	3109611.74966462
7	20	1	0	90	36.1581920903955	36.241610738255	8	0.2666943359375	2	7	1	NaN	2	5	0.0371220176202853	1	1	NaN	200	4	11	2	121	221	321	NaN	521	0.123953675851226	2	1	NaN	3109613.1167777	NaN	3109614.1000629	3109614.61661702
7	20	1	0	90	36.1581920903955	36.241610738255	15	0.500051879882813	2	4	4	NaN	1	5	0.0371220176202853	1	1	NaN	201	4	12	2	121	221	321	NaN	521	0.266098176129162	1	1	NaN	3109615.5669131	NaN	3109616.5503199	3109617.06685372
7	20	1	0	90	36.1581920903955	36.241610738255	13	0.433378295898438	2	4	6	NaN	1	4	0.0371220176202853	1	1	NaN	202	4	13	2	121	221	321	NaN	521	0.274437023792416	1	1	NaN	3109618.1505012	NaN	3109619.1338865	3109619.65044628
7	20	1	0	90	36.1581920903955	36.241610738255	25	0.833419799804688	2	4	3	NaN	1	4	0.0371220176202853	1	1	NaN	203	4	14	2	121	221	321	NaN	521	0.242981728166342	1	1	NaN	3109620.7340763	NaN	3109621.7174807	3109622.23402707
7	20	1	0	90	36.1581920903955	36.241610738255	17	0.566725463867188	2	1	1	NaN	1	4	0.0371220176202853	1	1	NaN	204	4	15	2	121	221	321	NaN	521	0.300088427960873	2	0	NaN	3109623.3009929	NaN	3109624.2844048	3109624.80095967
7	20	1	0	90	36.1581920903955	36.241610738255	22	0.733409423828125	2	1	3	NaN	1	3	0.0371220176202853	1	1	NaN	205	4	16	2	121	221	321	NaN	521	0.227167676202953	1	1	NaN	3109625.91793	NaN	3109626.9013362	3109627.41787772
7	20	1	0	90	36.1581920903955	36.241610738255	7	0.233357543945313	2	10	6	NaN	2	5	0.0371220176202853	1	1	NaN	206	4	17	2	121	221	321	NaN	521	0.172464224044234	2	1	NaN	3109628.4681885	NaN	3109629.4515822	3109629.96813228
7	20	1	0	90	36.1581920903955	36.241610738255	18	0.600062255859375	2	10	5	NaN	2	5	0.0371220176202853	1	1	NaN	207	4	18	2	121	221	321	NaN	521	0.0648946398869157	2	1	NaN	3109630.9517919	NaN	3109631.9351486	3109632.45171576
7	20	1	0	90	36.1581920903955	36.241610738255	19	0.633399047851563	2	1	5	NaN	1	3	0.0371220176202853	1	1	NaN	208	4	19	2	121	221	321	NaN	521	0.129493628162891	1	1	NaN	3109633.3353651	NaN	3109634.3187714	3109634.83527407
7	20	1	0	90	36.1581920903955	36.241610738255	13	0.433378295898438	2	7	3	NaN	2	4	0.0371220176202853	1	1	NaN	209	4	20	2	121	221	321	NaN	521	0.135152123868465	2	1	NaN	3109635.785569	NaN	3109636.7689606	3109637.28550948
7	20	1	0	90	36.1581920903955	36.241610738255	9	0.300031127929688	2	9	3	NaN	2	4	0.0371220176202853	1	1	NaN	210	4	21	2	121	221	321	NaN	521	0.0290453764609993	1	0	NaN	3109638.2358113	NaN	3109639.2193147	3109639.73575282
7	20	1	0	90	36.1581920903955	36.241610738255	25	0.833419799804688	2	6	2	NaN	1	4	0.0371220176202853	1	1	NaN	211	4	22	2	121	221	321	NaN	521	0.206946676131338	1	1	NaN	3109640.5860385	NaN	3109641.5694415	3109642.08597982
7	20	1	0	90	36.1581920903955	36.241610738255	7	0.233357543945313	2	3	2	NaN	1	3	0.0371220176202853	1	1	NaN	212	4	23	2	121	221	321	NaN	521	0.31364057585597	1	1	NaN	3109643.1028306	NaN	3109644.0864237	3109644.60289682
7	20	1	0	90	36.1581920903955	36.241610738255	17	0.566725463867188	2	10	3	NaN	2	4	0.0371220176202853	1	1	NaN	213	4	24	2	121	221	321	NaN	521	0.0104382243007421	2	1	NaN	3109645.7365448	NaN	3109646.7199196	3109647.23648368
7	20	1	0	90	36.1581920903955	36.241610738255	19	0.633399047851563	2	12	4	NaN	2	3	0.0371220176202853	1	1	NaN	214	4	25	2	121	221	321	NaN	521	0.146699528209865	2	1	NaN	3109648.0700972	NaN	3109649.0534995	3109649.57006097
7	20	1	0	90	36.1581920903955	36.241610738255	12	0.40004150390625	2	5	2	NaN	1	3	0.0371220176202853	1	1	NaN	215	4	26	2	121	221	321	NaN	521	0.0317365280352533	1	1	NaN	3109650.5370232	NaN	3109651.5204046	3109652.03696647
7	20	1	0	90	36.1581920903955	36.241610738255	17	0.566725463867188	2	1	5	NaN	1	3	0.0371220176202853	1	1	NaN	216	4	27	2	121	221	321	NaN	521	0.201765376143157	1	1	NaN	3109652.8871739	NaN	3109653.8706487	3109654.38719232
7	20	1	0	90	36.1581920903955	36.241610738255	7	0.233357543945313	2	5	4	NaN	1	4	0.0371220176202853	1	1	NaN	217	4	28	2	121	221	321	NaN	521	0.172498328145593	1	1	NaN	3109655.4041575	NaN	3109656.3875276	3109656.90410577
7	20	1	0	90	36.1581920903955	36.241610738255	14	0.466715087890625	2	9	6	NaN	2	4	0.0371220176202853	1	1	NaN	218	4	29	2	121	221	321	NaN	521	0.049088223837316	2	1	NaN	3109657.8876174	NaN	3109658.8711298	3109659.38768518
7	20	1	0	90	36.1581920903955	36.241610738255	6	0.200020751953125	2	8	5	NaN	2	4	0.0371220176202853	1	1	NaN	219	4	30	2	121	221	321	NaN	521	0.241860843729228	2	1	NaN	3109660.2546378	NaN	3109661.2380345	3109661.75458906
7	20	1	0	90	36.1581920903955	36.241610738255	15	0.500051879882813	2	2	6	NaN	1	3	0.0371220176202853	1	1	NaN	220	4	31	2	121	221	321	NaN	521	3.69961894396693	1	1	NaN	3109662.8048168	NaN	3109663.7882821	3109664.30483666
7	20	1	0	90	36.1581920903955	36.241610738255	11	0.366704711914063	2	3	5	NaN	1	5	0.0371220176202853	1	1	NaN	221	4	32	2	121	221	321	NaN	521	0.618990775663406	1	1	NaN	3109668.822147	NaN	3109669.8055522	3109670.32208922
7	20	1	0	90	36.1581920903955	36.241610738255	23	0.766746215820313	2	7	6	NaN	2	5	0.0371220176202853	1	1	NaN	222	4	33	2	121	221	321	NaN	521	0.077034228015691	2	1	NaN	3109671.7558691	NaN	3109672.7391976	3109673.25572007
7	20	1	0	90	36.1581920903955	36.241610738255	10	0.333367919921875	2	5	6	NaN	1	3	0.0371220176202853	1	1	NaN	223	4	34	2	121	221	321	NaN	521	0.108864923939109	1	1	NaN	3109674.1558717	NaN	3109675.1393959	3109675.65594778
7	20	1	0	90	36.1581920903955	36.241610738255	21	0.700072631835938	2	2	3	NaN	1	5	0.0371220176202853	1	1	NaN	224	4	35	2	121	221	321	NaN	521	0.371018828358501	1	1	NaN	3109676.589577	NaN	3109677.5729733	3109678.08953117
7	20	1	0	90	36.1581920903955	36.241610738255	25	0.833419799804688	2	9	6	NaN	2	3	0.0371220176202853	1	1	NaN	225	4	36	2	121	221	321	NaN	521	0.143817479722202	1	0	NaN	3109679.273174	NaN	3109680.2565376	3109680.77312732
7	20	1	0	90	36.1581920903955	36.241610738255	25	0.833419799804688	2	10	2	NaN	2	3	0.0371220176202853	1	1	NaN	226	4	37	2	121	221	321	NaN	521	0.0924868755973876	2	1	NaN	3109681.7400951	NaN	3109682.7234862	3109683.24002762
7	20	1	0	90	36.1581920903955	36.241610738255	14	0.466715087890625	2	4	4	NaN	1	4	0.0371220176202853	1	1	NaN	227	4	38	2	121	221	321	NaN	521	0.0203015799634159	1	1	NaN	3109684.1403188	NaN	3109685.1237213	3109685.64026412
7	20	1	0	90	36.1581920903955	36.241610738255	25	0.833419799804688	2	7	5	NaN	2	4	0.0371220176202853	1	1	NaN	228	4	39	2	121	221	321	NaN	521	0.110865028109401	2	1	NaN	3109686.473938	NaN	3109687.457275	3109687.97383047
7	20	1	0	90	36.1581920903955	36.241610738255	12	0.40004150390625	2	12	5	NaN	2	4	0.0371220176202853	1	1	NaN	229	4	40	2	121	221	321	NaN	521	0.125983067788184	2	1	NaN	3109688.890654	NaN	3109689.8742223	3109690.39072853
7	20	1	0	90	36.1581920903955	36.241610738255	9	0.300031127929688	2	10	5	NaN	2	4	0.0371220176202853	1	1	NaN	230	4	41	2	121	221	321	NaN	521	0.220106176100671	2	1	NaN	3109691.3410392	NaN	3109692.3244736	3109692.84097262
7	20	1	0	90	36.1581920903955	36.241610738255	12	0.40004150390625	2	4	2	NaN	1	4	0.0371220176202853	1	1	NaN	231	4	42	2	121	221	321	NaN	521	0.10207937611267	1	1	NaN	3109693.8746103	NaN	3109694.8580211	3109695.37455892
7	20	1	0	90	36.1581920903955	36.241610738255	15	0.500051879882813	2	7	5	NaN	2	4	0.0371220176202853	1	1	NaN	232	4	43	2	121	221	321	NaN	521	0.0770939756184816	1	0	NaN	3109696.2915134	NaN	3109697.274932	3109697.79145442
7	20	1	0	90	36.1581920903955	36.241610738255	13	0.433378295898438	2	3	6	NaN	1	3	0.0371220176202853	1	1	NaN	233	4	44	2	121	221	321	NaN	521	0.0104931159876287	1	1	NaN	3109698.7751127	NaN	3109699.7584925	3109700.27503758
7	20	1	0	90	36.1581920903955	36.241610738255	16	0.533388671875	2	8	5	NaN	2	4	0.0371220176202853	1	1	NaN	234	4	45	2	121	221	321	NaN	521	0.148538023699075	2	1	NaN	3109701.0919595	NaN	3109702.0753866	3109702.59192698
7	20	1	0	90	36.1581920903955	36.241610738255	12	0.40004150390625	2	8	3	NaN	2	4	0.0371220176202853	1	1	NaN	235	4	46	2	121	221	321	NaN	521	0.0175991798751056	1	0	NaN	3109703.5588931	NaN	3109704.5422723	3109705.05884852
7	20	1	0	90	36.1581920903955	36.241610738255	19	0.633399047851563	2	4	4	NaN	1	4	0.0371220176202853	1	1	NaN	236	4	47	2	121	221	321	NaN	521	0.0104108760133386	1	1	NaN	3109705.8923312	NaN	3109706.8758491	3109707.39241162
7	20	1	0	90	36.1581920903955	36.241610738255	20	0.66673583984375	2	12	4	NaN	2	3	0.0371220176202853	1	1	NaN	237	4	48	2	121	221	321	NaN	521	0.215538728050888	2	1	NaN	3109708.2093471	NaN	3109709.1927608	3109709.70929837
7	20	1	0	90	36.1581920903955	36.241610738255	18	0.600062255859375	2	9	3	NaN	2	4	0.0371220176202853	1	1	NaN	238	4	49	2	121	221	321	NaN	521	0.394192428328097	2	1	NaN	3109710.7429301	NaN	3109711.7263272	3109712.24288827
7	20	1	0	90	36.1581920903955	36.241610738255	16	0.533388671875	2	5	5	NaN	1	5	0.0371220176202853	1	1	NaN	239	4	50	2	121	221	321	NaN	521	0.15734387608245	1	1	NaN	3109713.4598541	NaN	3109714.4433319	3109714.95982052
7	20	1	0	90	36.1581920903955	36.241610738255	8	0.2666943359375	2	2	4	NaN	1	5	0.0371220176202853	1	1	NaN	240	4	51	2	121	221	321	NaN	521	0.178153376094997	2	0	NaN	3109715.9267716	NaN	3109716.9101744	3109717.42672252
7	20	1	0	90	36.1581920903955	36.241610738255	18	0.600062255859375	2	7	3	NaN	2	5	0.0371220176202853	1	1	NaN	241	4	52	2	121	221	321	NaN	521	0.469784623943269	2	1	NaN	3109718.4270239	NaN	3109719.4104223	3109719.92696718
7	20	1	0	90	36.1581920903955	36.241610738255	22	0.733409423828125	2	5	2	NaN	1	3	0.0371220176202853	1	1	NaN	242	4	53	2	121	221	321	NaN	521	0.0942662758752704	1	1	NaN	3109721.2105082	NaN	3109722.1940257	3109722.71057852
7	20	1	0	90	36.1581920903955	36.241610738255	8	0.2666943359375	2	9	4	NaN	2	4	0.0371220176202853	1	1	NaN	243	4	54	2	121	221	321	NaN	521	0.173926323652267	2	1	NaN	3109723.6108657	NaN	3109724.5942725	3109725.11080998
7	20	1	0	90	36.1581920903955	36.241610738255	10	0.333367919921875	2	6	3	NaN	1	4	0.0371220176202853	1	1	NaN	244	4	55	2	121	221	321	NaN	521	0.186391476076096	1	1	NaN	3109726.094447	NaN	3109727.0778494	3109727.59439002
7	20	1	0	90	36.1581920903955	36.241610738255	7	0.233357543945313	2	11	3	NaN	2	5	0.0371220176202853	1	1	NaN	245	4	56	2	121	221	321	NaN	521	0.158215580042452	2	1	NaN	3109728.5945859	NaN	3109729.5781189	3109730.09463542
7	20	1	0	90	36.1581920903955	36.241610738255	12	0.40004150390625	2	7	2	NaN	2	3	0.0371220176202853	1	1	NaN	246	4	57	2	121	221	321	NaN	521	0.0104273241013288	2	1	NaN	3109731.0616082	NaN	3109732.0450157	3109732.56155228
7	20	1	0	90	36.1581920903955	36.241610738255	18	0.600062255859375	2	8	1	NaN	2	4	0.0371220176202853	1	1	NaN	247	4	58	2	121	221	321	NaN	521	0.158441328443587	1	0	NaN	3109733.3783844	NaN	3109734.3618827	3109734.87844507
7	20	1	0	90	36.1581920903955	36.241610738255	24	0.8000830078125	2	4	2	NaN	1	4	0.0371220176202853	1	1	NaN	248	4	59	2	121	221	321	NaN	521	0.154675972182304	1	1	NaN	3109735.8620675	NaN	3109736.8454748	3109737.36201413
7	20	1	0	90	36.1581920903955	36.241610738255	14	0.466715087890625	2	8	3	NaN	2	5	0.0371220176202853	1	1	NaN	249	4	60	2	121	221	321	NaN	521	0.0397184761241078	2	1	NaN	3109738.3289783	NaN	3109739.3123627	3109739.82893402
7	20	1	0	90	36.1581920903955	36.241610738255	15	0.500051879882813	2	11	2	NaN	2	5	0.0371220176202853	1	1	NaN	250	4	61	2	121	221	321	NaN	521	0.369702871888876	2	1	NaN	3109740.6792315	NaN	3109741.6626115	3109742.17915183
7	20	1	0	90	36.1581920903955	36.241610738255	23	0.766746215820313	2	12	1	NaN	2	3	0.0371220176202853	1	1	NaN	251	4	62	2	121	221	321	NaN	521	0.181815372314304	1	0	NaN	3109743.3628059	NaN	3109744.3461976	3109744.86274883
7	20	1	0	90	36.1581920903955	36.241610738255	7	0.233357543945313	2	11	4	NaN	2	4	0.0371220176202853	1	1	NaN	252	4	63	2	121	221	321	NaN	521	0.154683528468013	2	1	NaN	3109745.8463804	NaN	3109746.8297849	3109747.34634027
7	20	1	0	90	36.1581920903955	36.241610738255	9	0.300031127929688	2	1	2	NaN	1	5	0.0371220176202853	1	1	NaN	253	5	1	2	121	221	321	NaN	521	0.137371328193694	1	1	NaN	3109966.9681218	NaN	3109967.9515145	3109968.46807117
7	20	1	0	90	36.1581920903955	36.241610738255	0	0	1	6	4	NaN	1	3	0.0371220176202853	1	1	NaN	254	5	2	2	111	211	311	NaN	511	0.0227974322624505	1	1	NaN	3109969.4182552	NaN	3109970.4017876	3109970.91831907
7	20	1	0	90	36.1581920903955	36.241610738255	25	0.833419799804688	2	3	2	NaN	1	4	0.0371220176202853	1	1	NaN	255	5	3	2	121	221	321	NaN	521	0.441148428246379	1	1	NaN	3109971.7519318	NaN	3109972.7353207	3109973.25189747
7	20	1	0	90	36.1581920903955	36.241610738255	12	0.40004150390625	2	6	3	NaN	1	4	0.0371220176202853	1	1	NaN	256	5	4	2	121	221	321	NaN	521	0.0348157319240272	1	1	NaN	3109974.5021814	NaN	3109975.4855971	3109976.00215267
7	20	1	0	90	36.1581920903955	36.241610738255	6	0.200020751953125	2	9	3	NaN	2	3	0.0371220176202853	1	1	NaN	257	5	5	2	121	221	321	NaN	521	0.0104141281917691	1	0	NaN	3109976.8523004	NaN	3109977.8358221	3109978.35238217
7	20	1	0	90	36.1581920903955	36.241610738255	24	0.8000830078125	2	10	1	NaN	2	3	0.0371220176202853	1	1	NaN	258	5	6	2	121	221	321	NaN	521	0.010412675794214	1	0	NaN	3109979.1693558	NaN	3109980.1527166	3109980.66927002
7	20	1	0	90	36.1581920903955	36.241610738255	11	0.366704711914063	2	6	6	NaN	1	3	0.0371220176202853	1	1	NaN	259	5	7	2	121	221	321	NaN	521	0.192226323764771	1	1	NaN	3109981.9529338	NaN	3109982.9363241	3109983.45286858
7	20	1	0	90	36.1581920903955	36.241610738255	19	0.633399047851563	2	7	5	NaN	2	4	0.0371220176202853	1	1	NaN	260	5	8	2	121	221	321	NaN	521	0.147778675891459	2	1	NaN	3109984.4531746	NaN	3109985.436581	3109985.95311972
7	20	1	0	90	36.1581920903955	36.241610738255	9	0.300031127929688	2	4	1	NaN	1	3	0.0371220176202853	1	1	NaN	261	5	9	2	121	221	321	NaN	521	0.113143728114665	1	1	NaN	3109986.9200811	NaN	3109987.9034943	3109988.42003867
7	20	1	0	90	36.1581920903955	36.241610738255	23	0.766746215820313	2	11	5	NaN	2	3	0.0371220176202853	1	1	NaN	262	5	10	2	121	221	321	NaN	521	0.0473299799486995	2	1	NaN	3109989.3535373	NaN	3109990.3370601	3109990.85360712
7	20	1	0	90	36.1581920903955	36.241610738255	10	0.333367919921875	2	12	1	NaN	2	4	0.0371220176202853	1	1	NaN	263	5	11	2	121	221	321	NaN	521	0.193692679516971	1	0	NaN	3109991.7037798	NaN	3109992.6872831	3109993.20383302
7	20	1	0	90	36.1581920903955	36.241610738255	19	0.633399047851563	2	4	4	NaN	1	4	0.0371220176202853	1	1	NaN	264	5	12	2	121	221	321	NaN	521	0.11710367584601	2	0	NaN	3109994.2041461	NaN	3109995.1875601	3109995.70407342
7	20	1	0	90	36.1581920903955	36.241610738255	14	0.466715087890625	2	7	6	NaN	2	3	0.0371220176202853	1	1	NaN	265	5	13	2	121	221	321	NaN	521	0.196193676441908	1	0	NaN	3109996.6210382	NaN	3109997.6044172	3109998.12098392
7	20	1	0	90	36.1581920903955	36.241610738255	22	0.733409423828125	2	11	1	NaN	2	4	0.0371220176202853	1	1	NaN	266	5	14	2	121	221	321	NaN	521	0.719800979830325	1	0	NaN	3109999.1212483	NaN	3110000.1046965	3110000.62123422
7	20	1	0	90	36.1581920903955	36.241610738255	13	0.433378295898438	2	6	5	NaN	1	5	0.0371220176202853	1	1	NaN	267	5	15	2	121	221	321	NaN	521	0.0943524283356965	1	1	NaN	3110002.1549208	NaN	3110003.1383134	3110003.65486517
7	20	1	0	90	36.1581920903955	36.241610738255	7	0.233357543945313	2	1	3	NaN	1	3	0.0371220176202853	1	1	NaN	268	5	16	2	121	221	321	NaN	521	0.16640807595104	1	1	NaN	3110004.5551525	NaN	3110005.5385561	3110006.05509482
7	20	1	0	90	36.1581920903955	36.241610738255	0	0	1	7	1	NaN	2	3	0.0371220176202853	1	1	NaN	269	5	17	2	111	211	311	NaN	511	0.18639432778582	2	1	NaN	3110007.0387222	NaN	3110008.0221251	3110008.53870317
7	20	1	0	90	36.1581920903955	36.241610738255	11	0.366704711914063	2	11	3	NaN	2	4	0.0371220176202853	1	1	NaN	270	5	18	2	121	221	321	NaN	521	0.126170528121293	1	0	NaN	3110009.5389684	NaN	3110010.522414	3110011.03892327
7	20	1	0	90	36.1581920903955	36.241610738255	13	0.433378295898438	2	3	5	NaN	1	5	0.0371220176202853	1	1	NaN	271	5	19	2	121	221	321	NaN	521	0.164673579856753	2	0	NaN	3110011.9725398	NaN	3110012.9559331	3110013.47250142
7	20	1	0	90	36.1581920903955	36.241610738255	23	0.766746215820313	2	1	2	NaN	1	4	0.0371220176202853	1	1	NaN	272	5	20	2	121	221	321	NaN	521	0.121001676190645	1	1	NaN	3110014.4561243	NaN	3110015.4395301	3110015.95606992
7	20	1	0	90	36.1581920903955	36.241610738255	25	0.833419799804688	2	3	3	NaN	1	5	0.0371220176202853	1	1	NaN	273	5	21	2	121	221	321	NaN	521	0.167843028437346	1	1	NaN	3110016.8897031	NaN	3110017.8731024	3110018.38964667
7	20	1	0	90	36.1581920903955	36.241610738255	25	0.833419799804688	2	6	6	NaN	1	4	0.0371220176202853	1	1	NaN	274	5	22	2	121	221	321	NaN	521	0.0104093761183321	1	1	NaN	3110019.3732879	NaN	3110020.3566795	3110020.87321852
7	20	1	0	90	36.1581920903955	36.241610738255	8	0.2666943359375	2	5	4	NaN	1	3	0.0371220176202853	1	1	NaN	275	5	23	2	121	221	321	NaN	521	0.215215464122593	1	1	NaN	3110021.6900363	NaN	3110022.6735667	3110023.19011624
7	20	1	0	90	36.1581920903955	36.241610738255	22	0.733409423828125	2	9	1	NaN	2	4	0.0371220176202853	1	1	NaN	276	5	24	2	121	221	321	NaN	521	0.0104096760042012	1	0	NaN	3110024.2237428	NaN	3110025.207158	3110025.72369142
7	20	1	0	90	36.1581920903955	36.241610738255	14	0.466715087890625	2	1	5	NaN	1	5	0.0371220176202853	1	1	NaN	277	5	25	2	121	221	321	NaN	521	0.107951476238668	1	1	NaN	3110026.55731	NaN	3110027.5407147	3110028.05725682
7	20	1	0	90	36.1581920903955	36.241610738255	13	0.433378295898438	2	7	2	NaN	2	5	0.0371220176202853	1	1	NaN	278	5	26	2	121	221	321	NaN	521	0.0831251759082079	1	0	NaN	3110028.9741876	NaN	3110029.9576971	3110030.47417122
7	20	1	0	90	36.1581920903955	36.241610738255	15	0.500051879882813	2	10	2	NaN	2	3	0.0371220176202853	1	1	NaN	279	5	27	2	121	221	321	NaN	521	0.0103958281688392	2	1	NaN	3110031.3744508	NaN	3110032.3578578	3110032.87440897
7	20	1	0	90	36.1581920903955	36.241610738255	16	0.533388671875	2	6	1	NaN	1	3	0.0371220176202853	1	1	NaN	280	5	28	2	121	221	321	NaN	521	0.0298004359938204	1	1	NaN	3110034.0912628	NaN	3110035.0747886	3110035.59134136
7	20	1	0	90	36.1581920903955	36.241610738255	22	0.733409423828125	2	12	3	NaN	2	4	0.0371220176202853	1	1	NaN	281	5	29	2	121	221	321	NaN	521	0.20034062396735	1	0	NaN	3110036.4249598	NaN	3110037.4083396	3110037.92489158
7	20	1	0	90	36.1581920903955	36.241610738255	21	0.700072631835938	2	11	1	NaN	2	4	0.0371220176202853	1	1	NaN	282	5	30	2	121	221	321	NaN	521	0.132045028265566	2	1	NaN	3110038.9250717	NaN	3110039.9086094	3110040.42514617
7	20	1	0	90	36.1581920903955	36.241610738255	8	0.2666943359375	2	9	2	NaN	2	5	0.0371220176202853	1	1	NaN	283	5	31	2	121	221	321	NaN	521	0.217892375774682	2	1	NaN	3110041.3754368	NaN	3110042.3588385	3110042.87537822
7	20	1	0	90	36.1581920903955	36.241610738255	21	0.700072631835938	2	8	2	NaN	2	3	0.0371220176202853	1	1	NaN	284	5	32	2	121	221	321	NaN	521	0.108224828261882	2	1	NaN	3110043.9090183	NaN	3110044.8924117	3110045.40897097
7	20	1	0	90	36.1581920903955	36.241610738255	23	0.766746215820313	2	6	1	NaN	1	5	0.0371220176202853	1	1	NaN	285	5	33	2	121	221	321	NaN	521	0.139411028474569	1	1	NaN	3110046.3259415	NaN	3110047.3093203	3110047.82588727
7	20	1	0	90	36.1581920903955	36.241610738255	24	0.8000830078125	2	8	2	NaN	2	3	0.0371220176202853	1	1	NaN	286	5	34	2	121	221	321	NaN	521	0.265478775836527	2	1	NaN	3110048.776018	NaN	3110049.7595766	3110050.27613372
7	20	1	0	90	36.1581920903955	36.241610738255	20	0.66673583984375	2	10	6	NaN	2	3	0.0371220176202853	1	1	NaN	287	5	35	2	121	221	321	NaN	521	0.201883375644684	1	0	NaN	3110051.3597631	NaN	3110052.3431557	3110052.85970282
7	20	1	0	90	36.1581920903955	36.241610738255	0	0	1	8	3	NaN	2	5	0.0371220176202853	1	1	NaN	288	5	36	2	111	211	311	NaN	511	0.189002824015915	2	1	NaN	3110053.8766668	NaN	3110054.8600716	3110055.37660658
7	20	1	0	90	36.1581920903955	36.241610738255	9	0.300031127929688	2	10	5	NaN	2	5	0.0371220176202853	1	1	NaN	289	5	37	2	121	221	321	NaN	521	0.128448476083577	1	0	NaN	3110056.3767739	NaN	3110057.3603043	3110057.87685922
7	20	1	0	90	36.1581920903955	36.241610738255	12	0.40004150390625	2	1	2	NaN	1	3	0.0371220176202853	1	1	NaN	290	5	38	2	121	221	321	NaN	521	0.190532796084881	1	1	NaN	3110058.8271686	NaN	3110059.8105417	3110060.3271134
7	20	1	0	90	36.1581920903955	36.241610738255	7	0.233357543945313	2	12	6	NaN	2	5	0.0371220176202853	1	1	NaN	291	5	39	2	121	221	321	NaN	521	0.258085376117378	2	1	NaN	3110061.3274047	NaN	3110062.3107887	3110062.82733962
7	20	1	0	90	36.1581920903955	36.241610738255	20	0.66673583984375	2	10	1	NaN	2	3	0.0371220176202853	1	1	NaN	292	5	40	2	121	221	321	NaN	521	0.139025028329343	2	1	NaN	3110063.8941886	NaN	3110064.8777115	3110065.39425937
7	20	1	0	90	36.1581920903955	36.241610738255	13	0.433378295898438	2	1	6	NaN	1	3	0.0371220176202853	1	1	NaN	293	5	41	2	121	221	321	NaN	521	0.192611319944263	1	1	NaN	3110066.3445647	NaN	3110067.3279867	3110067.84449758
7	20	1	0	90	36.1581920903955	36.241610738255	23	0.766746215820313	2	12	2	NaN	2	5	0.0371220176202853	1	1	NaN	294	5	42	2	121	221	321	NaN	521	0.156424423679709	2	1	NaN	3110068.8448138	NaN	3110069.8282131	3110070.34475498
7	20	1	0	90	36.1581920903955	36.241610738255	22	0.733409423828125	2	8	6	NaN	2	4	0.0371220176202853	1	1	NaN	295	5	43	2	121	221	321	NaN	521	0.0104175759479403	2	1	NaN	3110071.3117123	NaN	3110072.2951209	3110072.81165962
7	20	1	0	90	36.1581920903955	36.241610738255	6	0.200020751953125	2	2	1	NaN	1	3	0.0371220176202853	1	1	NaN	296	5	44	2	121	221	321	NaN	521	0.100119580049068	2	0	NaN	3110073.6453177	NaN	3110074.6286975	3110075.14523022
7	20	1	0	90	36.1581920903955	36.241610738255	10	0.333367919921875	2	7	2	NaN	2	3	0.0371220176202853	1	1	NaN	297	5	45	2	121	221	321	NaN	521	0.154835023917258	1	0	NaN	3110076.0620488	NaN	3110077.0455892	3110077.56212238
7	20	1	0	90	36.1581920903955	36.241610738255	11	0.366704711914063	2	7	6	NaN	2	4	0.0371220176202853	1	1	NaN	298	5	46	2	121	221	321	NaN	521	0.440529176034033	2	1	NaN	3110078.5290917	NaN	3110079.5125011	3110080.02906152
7	20	1	0	90	36.1581920903955	36.241610738255	15	0.500051879882813	2	8	2	NaN	2	3	0.0371220176202853	1	1	NaN	299	5	47	2	121	221	321	NaN	521	0.313868775963783	2	1	NaN	3110081.2793574	NaN	3110082.2627559	3110082.77930922
7	20	1	0	90	36.1581920903955	36.241610738255	21	0.700072631835938	2	1	6	NaN	1	5	0.0371220176202853	1	1	NaN	300	5	48	2	121	221	321	NaN	521	0.104293476324528	1	1	NaN	3110083.9129527	NaN	3110084.896342	3110085.41290252
7	20	1	0	90	36.1581920903955	36.241610738255	6	0.200020751953125	2	7	6	NaN	2	4	0.0371220176202853	1	1	NaN	301	5	49	2	121	221	321	NaN	521	0.53590137604624	2	1	NaN	3110086.3298579	NaN	3110087.3132597	3110087.82980532
7	20	1	0	90	36.1581920903955	36.241610738255	19	0.633399047851563	2	10	6	NaN	2	4	0.0371220176202853	1	1	NaN	302	5	50	2	121	221	321	NaN	521	0.0370643283240497	1	0	NaN	3110089.1801411	NaN	3110090.1635429	3110090.68009177
7	20	1	0	90	36.1581920903955	36.241610738255	6	0.200020751953125	2	6	3	NaN	1	4	0.0371220176202853	1	1	NaN	303	5	51	2	121	221	321	NaN	521	0.0870906240306795	1	1	NaN	3110091.5303659	NaN	3110092.513788	3110093.03031068
7	20	1	0	90	36.1581920903955	36.241610738255	17	0.566725463867188	2	3	6	NaN	1	3	0.0371220176202853	1	1	NaN	304	5	52	2	121	221	321	NaN	521	0.0627459799870849	1	1	NaN	3110093.9306082	NaN	3110094.9139918	3110095.43055772
7	20	1	0	90	36.1581920903955	36.241610738255	9	0.300031127929688	2	3	3	NaN	1	3	0.0371220176202853	1	1	NaN	305	5	53	2	121	221	321	NaN	521	0.542998043820262	1	1	NaN	3110096.7140844	NaN	3110097.6976026	3110098.21416146
7	20	1	0	90	36.1581920903955	36.241610738255	21	0.700072631835938	2	1	4	NaN	1	5	0.0371220176202853	1	1	NaN	306	5	54	2	121	221	321	NaN	521	0.140590123832226	2	0	NaN	3110099.5811521	NaN	3110100.5645643	3110101.08110888
7	20	1	0	90	36.1581920903955	36.241610738255	16	0.533388671875	2	2	6	NaN	1	4	0.0371220176202853	1	1	NaN	307	5	55	2	121	221	321	NaN	521	0.185873128008097	1	1	NaN	3110102.0313996	NaN	3110103.014814	3110103.53135087
7	20	1	0	90	36.1581920903955	36.241610738255	14	0.466715087890625	2	3	3	NaN	1	5	0.0371220176202853	1	1	NaN	308	5	56	2	121	221	321	NaN	521	0.0104160802438855	1	1	NaN	3110104.5316423	NaN	3110105.5150387	3110106.03160122
7	20	1	0	90	36.1581920903955	36.241610738255	25	0.833419799804688	2	11	6	NaN	2	3	0.0371220176202853	1	1	NaN	309	5	57	2	121	221	321	NaN	521	0.114170728251338	2	1	NaN	3110107.0152233	NaN	3110107.9986213	3110108.51517857
7	20	1	0	90	36.1581920903955	36.241610738255	25	0.833419799804688	2	1	3	NaN	1	3	0.0371220176202853	1	1	NaN	310	5	58	2	121	221	321	NaN	521	0.505068727768958	1	1	NaN	3110109.4486873	NaN	3110110.432187	3110110.94874877
7	20	1	0	90	36.1581920903955	36.241610738255	13	0.433378295898438	2	5	6	NaN	1	3	0.0371220176202853	1	1	NaN	311	5	59	2	121	221	321	NaN	521	0.207515575923026	1	1	NaN	3110112.2657617	NaN	3110113.2491402	3110113.76569442
7	20	1	0	90	36.1581920903955	36.241610738255	25	0.833419799804688	2	7	2	NaN	2	3	0.0371220176202853	1	1	NaN	312	5	60	2	121	221	321	NaN	521	0.186702628154308	2	1	NaN	3110114.7826565	NaN	3110115.7660614	3110116.28259887
7	20	1	0	90	36.1581920903955	36.241610738255	0	0	1	9	1	NaN	2	5	0.0371220176202853	1	1	NaN	313	5	61	2	111	211	311	NaN	511	1.49705842835829	2	1	NaN	3110117.4162439	NaN	3110118.3996467	3110118.91620187
7	20	1	0	90	36.1581920903955	36.241610738255	16	0.533388671875	2	8	6	NaN	2	4	0.0371220176202853	1	1	NaN	314	5	62	2	121	221	321	NaN	521	0.232547079678625	2	1	NaN	3110121.2332893	NaN	3110122.2166899	3110122.73324252
7	20	1	0	90	36.1581920903955	36.241610738255	11	0.366704711914063	2	7	4	NaN	2	5	0.0371220176202853	1	1	NaN	315	5	63	2	121	221	321	NaN	521	1.1138083441183	1	0	NaN	3110123.7835481	NaN	3110124.7669251	3110125.28349896
7	20	1	0	90	36.1581920903955	36.241610738255	20	0.66673583984375	2	6	5	NaN	1	3	0.0371220176202853	1	1	NaN	316	6	1	2	121	221	321	NaN	521	0.253585427999496	2	0	NaN	3110168.7879465	NaN	3110169.7713638	3110170.28791947
7	20	1	0	90	36.1581920903955	36.241610738255	6	0.200020751953125	2	4	5	NaN	1	4	0.0371220176202853	1	1	NaN	317	6	2	2	121	221	321	NaN	521	0.166865976061672	2	0	NaN	3110171.3547586	NaN	3110172.3382734	3110172.85483332
7	20	1	0	90	36.1581920903955	36.241610738255	15	0.500051879882813	2	11	1	NaN	2	4	0.0371220176202853	1	1	NaN	318	6	3	2	121	221	321	NaN	521	0.130974828265607	2	1	NaN	3110173.8383913	NaN	3110174.8218606	3110175.33841527
7	20	1	0	90	36.1581920903955	36.241610738255	14	0.466715087890625	2	12	5	NaN	2	3	0.0371220176202853	1	1	NaN	319	6	4	2	121	221	321	NaN	521	0.352572276256979	2	1	NaN	3110176.2885827	NaN	3110177.2721038	3110177.78865362
7	20	1	0	90	36.1581920903955	36.241610738255	21	0.700072631835938	2	4	5	NaN	1	3	0.0371220176202853	1	1	NaN	320	6	5	2	121	221	321	NaN	521	0.125601776409894	1	1	NaN	3110178.955546	NaN	3110179.939032	3110180.45557782
7	20	1	0	90	36.1581920903955	36.241610738255	18	0.600062255859375	2	5	6	NaN	1	5	0.0371220176202853	1	1	NaN	321	6	6	2	121	221	321	NaN	521	0.196597028523684	2	0	NaN	3110181.3891485	NaN	3110182.3726205	3110182.88915627
7	20	1	0	90	36.1581920903955	36.241610738255	16	0.533388671875	2	9	5	NaN	2	4	0.0371220176202853	1	1	NaN	322	6	7	2	121	221	321	NaN	521	0.0104321236722171	2	1	NaN	3110183.9061421	NaN	3110184.889498	3110185.40605888
7	20	1	0	90	36.1581920903955	36.241610738255	24	0.8000830078125	2	2	1	NaN	1	4	0.0371220176202853	1	1	NaN	323	6	8	2	121	221	321	NaN	521	0.010414975695312	1	1	NaN	3110186.2229611	NaN	3110187.2064019	3110187.72295922
7	20	1	0	90	36.1581920903955	36.241610738255	17	0.566725463867188	2	2	1	NaN	1	4	0.0371220176202853	1	1	NaN	324	6	9	2	121	221	321	NaN	521	0.252179676201195	1	1	NaN	3110188.5731041	NaN	3110189.5566678	3110190.07318272
7	20	1	0	90	36.1581920903955	36.241610738255	22	0.733409423828125	2	9	5	NaN	2	5	0.0371220176202853	1	1	NaN	325	6	10	2	121	221	321	NaN	521	0.0613008360378444	1	0	NaN	3110191.1400265	NaN	3110192.1235398	3110192.64011626
7	20	1	0	90	36.1581920903955	36.241610738255	13	0.433378295898438	2	9	2	NaN	2	3	0.0371220176202853	1	1	NaN	326	6	11	2	121	221	321	NaN	521	0.0104117761366069	1	0	NaN	3110193.5237611	NaN	3110194.5071505	3110195.02366982
7	20	1	0	90	36.1581920903955	36.241610738255	19	0.633399047851563	2	3	4	NaN	1	4	0.0371220176202853	1	1	NaN	327	6	12	2	121	221	321	NaN	521	0.11286417208612	1	1	NaN	3110195.8404994	NaN	3110196.8240127	3110197.34059193
7	20	1	0	90	36.1581920903955	36.241610738255	18	0.600062255859375	2	4	6	NaN	1	3	0.0371220176202853	1	1	NaN	328	6	13	2	121	221	321	NaN	521	0.0105261718854308	1	1	NaN	3110198.2575242	NaN	3110199.2409305	3110199.75748193
7	20	1	0	90	36.1581920903955	36.241610738255	12	0.40004150390625	2	9	4	NaN	2	5	0.0371220176202853	1	1	NaN	329	6	14	2	121	221	321	NaN	521	0.0348582239821553	2	1	NaN	3110200.5744201	NaN	3110201.5578173	3110202.07436738
7	20	1	0	90	36.1581920903955	36.241610738255	24	0.8000830078125	2	6	4	NaN	1	3	0.0371220176202853	1	1	NaN	330	6	15	2	121	221	321	NaN	521	0.261140224058181	1	1	NaN	3110202.9246685	NaN	3110203.9080507	3110204.42459458
7	20	1	0	90	36.1581920903955	36.241610738255	15	0.500051879882813	2	10	5	NaN	2	5	0.0371220176202853	1	1	NaN	331	6	16	2	121	221	321	NaN	521	0.0612209280952811	2	1	NaN	3110205.5082413	NaN	3110206.4916552	3110207.00819217
7	20	1	0	90	36.1581920903955	36.241610738255	12	0.40004150390625	2	11	2	NaN	2	4	0.0371220176202853	1	1	NaN	332	6	17	2	121	221	321	NaN	521	0.205527327954769	2	1	NaN	3110207.8918036	NaN	3110208.8752082	3110209.39176267
7	20	1	0	90	36.1581920903955	36.241610738255	11	0.366704711914063	2	2	1	NaN	1	3	0.0371220176202853	1	1	NaN	333	6	18	2	121	221	321	NaN	521	18.3287243279628	1	1	NaN	3110210.4086022	NaN	3110211.3921353	3110211.90867317
7	20	1	0	90	36.1581920903955	36.241610738255	10	0.333367919921875	2	2	5	NaN	1	4	0.0371220176202853	1	1	NaN	334	6	19	2	121	221	321	NaN	521	0.188817875925452	2	0	NaN	3110231.0606131	NaN	3110232.0441478	3110232.56070082
7	20	1	0	90	36.1581920903955	36.241610738255	20	0.66673583984375	2	2	3	NaN	1	4	0.0371220176202853	1	1	NaN	335	6	20	2	121	221	321	NaN	521	0.0969350282102823	1	1	NaN	3110233.5609942	NaN	3110234.5444145	3110235.06094007
7	20	1	0	90	36.1581920903955	36.241610738255	7	0.233357543945313	2	8	3	NaN	2	5	0.0371220176202853	1	1	NaN	336	6	21	2	121	221	321	NaN	521	0.0403645280748606	2	1	NaN	3110235.9612513	NaN	3110236.9446435	3110237.46119037
7	20	1	0	90	36.1581920903955	36.241610738255	22	0.733409423828125	2	6	5	NaN	1	4	0.0371220176202853	1	1	NaN	337	6	22	2	121	221	321	NaN	521	0.138005076441914	1	1	NaN	3110238.3114707	NaN	3110239.2948577	3110239.81141992
7	20	1	0	90	36.1581920903955	36.241610738255	20	0.66673583984375	2	8	4	NaN	2	5	0.0371220176202853	1	1	NaN	338	6	23	2	121	221	321	NaN	521	0.010398528072983	2	1	NaN	3110240.7617561	NaN	3110241.7451976	3110242.26164847
7	20	1	0	90	36.1581920903955	36.241610738255	16	0.533388671875	2	4	1	NaN	1	5	0.0371220176202853	1	1	NaN	339	6	24	2	121	221	321	NaN	521	0.0104078282602131	1	1	NaN	3110243.0786181	NaN	3110244.0620098	3110244.57855497
7	20	1	0	90	36.1581920903955	36.241610738255	0	0	1	4	6	NaN	1	3	0.0371220176202853	1	1	NaN	340	6	25	2	111	211	311	NaN	511	0.0932681760750711	1	1	NaN	3110245.4121585	NaN	3110246.3955725	3110246.91210572
7	20	1	0	90	36.1581920903955	36.241610738255	21	0.700072631835938	2	7	3	NaN	2	3	0.0371220176202853	1	1	NaN	341	6	26	2	121	221	321	NaN	521	0.0843711281195283	2	1	NaN	3110247.8289491	NaN	3110248.8125048	3110249.32902207
7	20	1	0	90	36.1581920903955	36.241610738255	8	0.2666943359375	2	11	1	NaN	2	5	0.0371220176202853	1	1	NaN	342	6	27	2	121	221	321	NaN	521	0.0108524756506085	1	0	NaN	3110250.2626463	NaN	3110251.246031	3110251.76259282
7	20	1	0	90	36.1581920903955	36.241610738255	0	0	1	5	6	NaN	1	4	0.0371220176202853	1	1	NaN	343	6	28	2	111	211	311	NaN	511	0.109963723924011	1	1	NaN	3110252.5795322	NaN	3110253.5629285	3110254.07947588
7	20	1	0	90	36.1581920903955	36.241610738255	17	0.566725463867188	2	5	3	NaN	1	4	0.0371220176202853	1	1	NaN	344	6	29	2	121	221	321	NaN	521	0.0851052757352591	1	1	NaN	3110254.9964303	NaN	3110255.9798688	3110256.49638752
7	20	1	0	90	36.1581920903955	36.241610738255	17	0.566725463867188	2	4	4	NaN	1	5	0.0371220176202853	1	1	NaN	345	6	30	2	121	221	321	NaN	521	0.133476428221911	1	1	NaN	3110257.3966735	NaN	3110258.3800916	3110258.89661997
7	20	1	0	90	36.1581920903955	36.241610738255	11	0.366704711914063	2	8	2	NaN	2	4	0.0371220176202853	1	1	NaN	346	6	31	2	121	221	321	NaN	521	0.0104049760848284	2	1	NaN	3110259.8467896	NaN	3110260.8303684	3110261.34686462
7	20	1	0	90	36.1581920903955	36.241610738255	22	0.733409423828125	2	2	2	NaN	1	5	0.0371220176202853	1	1	NaN	347	6	32	2	121	221	321	NaN	521	0.0769705763086677	1	1	NaN	3110262.1803549	NaN	3110263.1638881	3110263.68043352
7	20	1	0	90	36.1581920903955	36.241610738255	19	0.633399047851563	2	8	3	NaN	2	4	0.0371220176202853	1	1	NaN	348	6	33	2	121	221	321	NaN	521	0.0926291239447892	2	1	NaN	3110264.5807136	NaN	3110265.5641135	3110266.08066428
7	20	1	0	90	36.1581920903955	36.241610738255	15	0.500051879882813	2	5	5	NaN	1	4	0.0371220176202853	1	1	NaN	349	6	34	2	121	221	321	NaN	521	0.0759223802015185	1	1	NaN	3110266.9976271	NaN	3110267.9810063	3110268.49757302
7	20	1	0	90	36.1581920903955	36.241610738255	24	0.8000830078125	2	4	5	NaN	1	5	0.0371220176202853	1	1	NaN	350	6	35	2	121	221	321	NaN	521	0.0104064284823835	2	0	NaN	3110269.3978753	NaN	3110270.3812516	3110270.89781007
7	20	1	0	90	36.1581920903955	36.241610738255	7	0.233357543945313	2	9	2	NaN	2	5	0.0371220176202853	1	1	NaN	351	6	36	2	121	221	321	NaN	521	2.7747192280367	2	1	NaN	3110271.7147468	NaN	3110272.6981567	3110273.21470477
7	20	1	0	90	36.1581920903955	36.241610738255	23	0.766746215820313	2	3	2	NaN	1	4	0.0371220176202853	1	1	NaN	352	6	37	2	121	221	321	NaN	521	0.123439772520214	1	1	NaN	3110276.7985787	NaN	3110277.781987	3110278.29852403
7	20	1	0	90	36.1581920903955	36.241610738255	14	0.466715087890625	2	5	3	NaN	1	5	0.0371220176202853	1	1	NaN	353	6	38	2	121	221	321	NaN	521	0.801676923874766	1	1	NaN	3110279.2321593	NaN	3110280.2155606	3110280.73210298
7	20	1	0	90	36.1581920903955	36.241610738255	21	0.700072631835938	2	9	1	NaN	2	4	0.0371220176202853	1	1	NaN	354	6	39	2	121	221	321	NaN	521	0.252868875861168	1	0	NaN	3110282.3491308	NaN	3110283.3325337	3110283.84907112
7	20	1	0	90	36.1581920903955	36.241610738255	18	0.600062255859375	2	12	5	NaN	2	5	0.0371220176202853	1	1	NaN	355	6	40	2	121	221	321	NaN	521	0.173956776037812	2	1	NaN	3110284.9160513	NaN	3110285.8994691	3110286.41599402
7	20	1	0	90	36.1581920903955	36.241610738255	20	0.66673583984375	2	11	4	NaN	2	4	0.0371220176202853	1	1	NaN	356	6	41	2	121	221	321	NaN	521	0.114001428242773	2	1	NaN	3110287.399607	NaN	3110288.3830841	3110288.89957027
7	20	1	0	90	36.1581920903955	36.241610738255	23	0.766746215820313	2	9	5	NaN	2	5	0.0371220176202853	1	1	NaN	357	6	42	2	121	221	321	NaN	521	0.0962183279916644	2	1	NaN	3110289.8332027	NaN	3110290.8166055	3110291.33314647
7	20	1	0	90	36.1581920903955	36.241610738255	15	0.500051879882813	2	1	6	NaN	1	5	0.0371220176202853	1	1	NaN	358	6	43	2	121	221	321	NaN	521	0.271441576071084	1	1	NaN	3110292.2501116	NaN	3110293.2334996	3110293.75004682
7	20	1	0	90	36.1581920903955	36.241610738255	10	0.333367919921875	2	9	2	NaN	2	5	0.0371220176202853	1	1	NaN	359	6	44	2	121	221	321	NaN	521	0.103962079621851	2	1	NaN	3110294.8337018	NaN	3110295.8170759	3110296.33364512
7	20	1	0	90	36.1581920903955	36.241610738255	17	0.566725463867188	2	9	3	NaN	2	5	0.0371220176202853	1	1	NaN	360	6	45	2	121	221	321	NaN	521	0.206965676043183	2	1	NaN	3110297.2506086	NaN	3110298.233994	3110298.75054392
7	20	1	0	90	36.1581920903955	36.241610738255	12	0.40004150390625	2	2	5	NaN	1	5	0.0371220176202853	1	1	NaN	361	6	46	2	121	221	321	NaN	521	0.201414576265961	1	1	NaN	3110299.7841837	NaN	3110300.7675614	3110301.28412612
7	20	1	0	90	36.1581920903955	36.241610738255	23	0.766746215820313	2	1	1	NaN	1	5	0.0371220176202853	1	1	NaN	362	6	47	2	121	221	321	NaN	521	0.0443352237343788	2	0	NaN	3110302.3010841	NaN	3110303.2844933	3110303.80103738
7	20	1	0	90	36.1581920903955	36.241610738255	22	0.733409423828125	2	7	2	NaN	2	4	0.0371220176202853	1	1	NaN	363	6	48	2	121	221	321	NaN	521	0.0697108800522983	1	0	NaN	3110304.6679817	NaN	3110305.6513823	3110306.16794512
7	20	1	0	90	36.1581920903955	36.241610738255	20	0.66673583984375	2	4	5	NaN	1	4	0.0371220176202853	1	1	NaN	364	6	49	2	121	221	321	NaN	521	0.110017376020551	1	1	NaN	3110307.0515542	NaN	3110308.03496	3110308.55150452
7	20	1	0	90	36.1581920903955	36.241610738255	25	0.833419799804688	2	5	1	NaN	1	4	0.0371220176202853	1	1	NaN	365	6	50	2	121	221	321	NaN	521	0.2367427283898	2	0	NaN	3110309.485211	NaN	3110310.4685377	3110310.98507677
7	20	1	0	90	36.1581920903955	36.241610738255	21	0.700072631835938	2	4	2	NaN	1	5	0.0371220176202853	1	1	NaN	366	6	51	2	121	221	321	NaN	521	0.158234076108783	2	0	NaN	3110312.0353919	NaN	3110313.0187772	3110313.53533542
7	20	1	0	90	36.1581920903955	36.241610738255	16	0.533388671875	2	3	5	NaN	1	4	0.0371220176202853	1	1	NaN	367	6	52	2	121	221	321	NaN	521	0.347291723825037	2	0	NaN	3110314.5022927	NaN	3110315.4856811	3110316.00223318
7	20	1	0	90	36.1581920903955	36.241610738255	22	0.733409423828125	2	8	6	NaN	2	3	0.0371220176202853	1	1	NaN	368	6	53	2	121	221	321	NaN	521	0.384461872279644	2	1	NaN	3110317.1692186	NaN	3110318.1526092	3110318.66916783
7	20	1	0	90	36.1581920903955	36.241610738255	7	0.233357543945313	2	9	3	NaN	2	3	0.0371220176202853	1	1	NaN	369	6	54	2	121	221	321	NaN	521	0.028235075995326	2	1	NaN	3110319.8693713	NaN	3110320.8528683	3110321.36943152
7	20	1	0	90	36.1581920903955	36.241610738255	20	0.66673583984375	2	4	6	NaN	1	4	0.0371220176202853	1	1	NaN	370	6	55	2	121	221	321	NaN	521	0.0699225761927664	2	0	NaN	3110322.2197173	NaN	3110323.2031326	3110323.71965752
7	20	1	0	90	36.1581920903955	36.241610738255	13	0.433378295898438	2	11	4	NaN	2	5	0.0371220176202853	1	1	NaN	371	6	56	2	121	221	321	NaN	521	0.0144444280304015	2	1	NaN	3110324.6033117	NaN	3110325.5866915	3110326.10322857
7	20	1	0	90	36.1581920903955	36.241610738255	6	0.200020751953125	2	10	6	NaN	2	4	0.0371220176202853	1	1	NaN	372	6	57	2	121	221	321	NaN	521	0.320858723949641	2	1	NaN	3110326.9367295	NaN	3110327.9202486	3110328.43679538
7	20	1	0	90	36.1581920903955	36.241610738255	17	0.566725463867188	2	9	5	NaN	2	3	0.0371220176202853	1	1	NaN	373	6	58	2	121	221	321	NaN	521	0.20719937607646	2	1	NaN	3110329.5704364	NaN	3110330.5538468	3110331.07038582
7	20	1	0	90	36.1581920903955	36.241610738255	20	0.66673583984375	2	8	1	NaN	2	4	0.0371220176202853	1	1	NaN	374	6	59	2	121	221	321	NaN	521	0.106289475690573	2	1	NaN	3110332.0872297	NaN	3110333.0707732	3110333.58729262
7	20	1	0	90	36.1581920903955	36.241610738255	18	0.600062255859375	2	9	5	NaN	2	3	0.0371220176202853	1	1	NaN	375	6	60	2	121	221	321	NaN	521	0.0974234235472977	2	1	NaN	3110334.5042642	NaN	3110335.4876139	3110336.00419738
7	20	1	0	90	36.1581920903955	36.241610738255	9	0.300031127929688	2	7	6	NaN	2	4	0.0371220176202853	1	1	NaN	376	6	61	2	121	221	321	NaN	521	0.121177339926362	2	1	NaN	3110336.904365	NaN	3110337.887882	3110338.40444106
7	20	1	0	90	36.1581920903955	36.241610738255	18	0.600062255859375	2	11	4	NaN	2	3	0.0371220176202853	1	1	NaN	377	6	62	2	121	221	321	NaN	521	0.0103905280120671	2	1	NaN	3110339.3380679	NaN	3110340.3214715	3110340.83800747
7	20	1	0	90	36.1581920903955	36.241610738255	21	0.700072631835938	2	8	3	NaN	2	3	0.0371220176202853	1	1	NaN	378	6	63	2	121	221	321	NaN	521	0.514527675695717	1	0	NaN	3110341.6549661	NaN	3110342.6383786	3110343.15490712
7	20	1	0	90	36.1581920903955	36.241610738255	9	0.300031127929688	2	5	2	NaN	1	4	0.0371220176202853	1	1	NaN	379	7	1	2	121	221	321	NaN	521	3.44296322390437	2	0	NaN	3110391.543157	NaN	3110392.5266314	3110393.04314328
7	20	1	0	90	36.1581920903955	36.241610738255	17	0.566725463867188	2	3	5	NaN	1	3	0.0371220176202853	1	1	NaN	380	7	2	2	121	221	321	NaN	521	0.17988797603175	2	0	NaN	3110397.2937472	NaN	3110398.2771827	3110398.79370412
7	20	1	0	90	36.1581920903955	36.241610738255	8	0.2666943359375	2	3	1	NaN	1	5	0.0371220176202853	1	1	NaN	381	7	3	2	121	221	321	NaN	521	0.21592092840001	1	1	NaN	3110399.7940218	NaN	3110400.7774049	3110401.29396327
7	20	1	0	90	36.1581920903955	36.241610738255	8	0.2666943359375	2	11	2	NaN	2	3	0.0371220176202853	1	1	NaN	382	7	4	2	121	221	321	NaN	521	0.882482323795557	2	1	NaN	3110402.3275843	NaN	3110403.3109821	3110403.82753318
7	20	1	0	90	36.1581920903955	36.241610738255	20	0.66673583984375	2	1	5	NaN	1	3	0.0371220176202853	1	1	NaN	383	7	5	2	121	221	321	NaN	521	0.209939476102591	1	1	NaN	3110405.5278446	NaN	3110406.5113	3110407.02785402
7	20	1	0	90	36.1581920903955	36.241610738255	13	0.433378295898438	2	6	5	NaN	1	4	0.0371220176202853	1	1	NaN	384	7	6	2	121	221	321	NaN	521	0.132242188323289	1	1	NaN	3110408.0614933	NaN	3110409.044914	3110409.56143351
7	20	1	0	90	36.1581920903955	36.241610738255	18	0.600062255859375	2	1	2	NaN	1	4	0.0371220176202853	1	1	NaN	385	7	7	2	121	221	321	NaN	521	0.0819609239697456	1	1	NaN	3110410.5117282	NaN	3110411.4951321	3110412.01166918
7	20	1	0	90	36.1581920903955	36.241610738255	20	0.66673583984375	2	5	5	NaN	1	4	0.0371220176202853	1	1	NaN	386	7	8	2	121	221	321	NaN	521	0.122243127785623	1	1	NaN	3110412.9119539	NaN	3110413.8953898	3110414.41191927
7	20	1	0	90	36.1581920903955	36.241610738255	13	0.433378295898438	2	9	4	NaN	2	4	0.0371220176202853	1	1	NaN	387	7	9	2	121	221	321	NaN	521	0.0803145840764046	2	1	NaN	3110415.3455325	NaN	3110416.3289327	3110416.84548162
7	20	1	0	90	36.1581920903955	36.241610738255	18	0.600062255859375	2	8	5	NaN	2	5	0.0371220176202853	1	1	NaN	388	7	10	2	121	221	321	NaN	521	0.159876828081906	2	1	NaN	3110417.7457697	NaN	3110418.7292256	3110419.24572407
7	20	1	0	90	36.1581920903955	36.241610738255	18	0.600062255859375	2	7	2	NaN	2	3	0.0371220176202853	1	1	NaN	389	7	11	2	121	221	321	NaN	521	0.108917975798249	2	1	NaN	3110420.2125669	NaN	3110421.1960891	3110421.71262522
7	20	1	0	90	36.1581920903955	36.241610738255	9	0.300031127929688	2	8	5	NaN	2	4	0.0371220176202853	1	1	NaN	390	7	12	2	121	221	321	NaN	521	0.124102775938809	1	0	NaN	3110422.6295783	NaN	3110423.6129737	3110424.12953592
7	20	1	0	90	36.1581920903955	36.241610738255	0	0	1	2	5	NaN	1	5	0.0371220176202853	1	1	NaN	391	7	13	2	111	211	311	NaN	511	0.090797423850745	1	1	NaN	3110425.063059	NaN	3110426.0465384	3110426.56310038
7	20	1	0	90	36.1581920903955	36.241610738255	17	0.566725463867188	2	2	1	NaN	1	3	0.0371220176202853	1	1	NaN	392	7	14	2	121	221	321	NaN	521	0.210481128189713	1	1	NaN	3110427.4633927	NaN	3110428.4468319	3110428.96334197
7	20	1	0	90	36.1581920903955	36.241610738255	25	0.833419799804688	2	2	4	NaN	1	3	0.0371220176202853	1	1	NaN	393	7	15	2	121	221	321	NaN	521	0.429236328229308	1	1	NaN	3110429.9969742	NaN	3110430.9803824	3110431.49692687
7	20	1	0	90	36.1581920903955	36.241610738255	15	0.500051879882813	2	5	3	NaN	1	5	0.0371220176202853	1	1	NaN	394	7	16	2	121	221	321	NaN	521	0.566719776019454	1	1	NaN	3110432.7472437	NaN	3110433.7306442	3110434.24719152
7	20	1	0	90	36.1581920903955	36.241610738255	0	0	1	10	3	NaN	2	5	0.0371220176202853	1	1	NaN	395	7	17	2	111	211	311	NaN	511	0.256884123664349	2	1	NaN	3110436.0807867	NaN	3110437.0643404	3110437.58085188
7	20	1	0	90	36.1581920903955	36.241610738255	17	0.566725463867188	2	7	3	NaN	2	5	0.0371220176202853	1	1	NaN	396	7	18	2	121	221	321	NaN	521	0.13835447980091	2	1	NaN	3110438.6477113	NaN	3110439.6312417	3110440.14778442
7	20	1	0	90	36.1581920903955	36.241610738255	9	0.300031127929688	2	9	2	NaN	2	3	0.0371220176202853	1	1	NaN	397	7	19	2	121	221	321	NaN	521	0.431765723507851	2	1	NaN	3110441.0980734	NaN	3110442.0814695	3110442.59802328
7	20	1	0	90	36.1581920903955	36.241610738255	21	0.700072631835938	2	2	2	NaN	1	5	0.0371220176202853	1	1	NaN	398	7	20	2	121	221	321	NaN	521	0.161305928137153	1	1	NaN	3110443.8483263	NaN	3110444.831638	3110445.34828197
7	20	1	0	90	36.1581920903955	36.241610738255	19	0.633399047851563	2	5	5	NaN	1	5	0.0371220176202853	1	1	NaN	399	7	21	2	121	221	321	NaN	521	0.12985752383247	2	0	NaN	3110446.4319233	NaN	3110447.4153253	3110447.93186928
7	20	1	0	90	36.1581920903955	36.241610738255	20	0.66673583984375	2	5	1	NaN	1	3	0.0371220176202853	1	1	NaN	400	7	22	2	121	221	321	NaN	521	0.159633328206837	2	0	NaN	3110448.8821679	NaN	3110449.8655739	3110450.38211887
7	20	1	0	90	36.1581920903955	36.241610738255	18	0.600062255859375	2	6	6	NaN	1	4	0.0371220176202853	1	1	NaN	401	7	23	2	121	221	321	NaN	521	0.276045175734907	1	1	NaN	3110451.3658458	NaN	3110452.3491419	3110452.86568682
7	20	1	0	90	36.1581920903955	36.241610738255	6	0.200020751953125	2	5	6	NaN	1	5	0.0371220176202853	1	1	NaN	402	7	24	2	121	221	321	NaN	521	0.300884579773992	1	1	NaN	3110453.9493269	NaN	3110454.9327342	3110455.44928782
7	20	1	0	90	36.1581920903955	36.241610738255	20	0.66673583984375	2	3	5	NaN	1	4	0.0371220176202853	1	1	NaN	403	7	25	2	121	221	321	NaN	521	0.273035923950374	2	0	NaN	3110456.8328285	NaN	3110457.8163389	3110458.33291378
7	20	1	0	90	36.1581920903955	36.241610738255	12	0.40004150390625	2	4	5	NaN	1	3	0.0371220176202853	1	1	NaN	404	7	26	2	121	221	321	NaN	521	0.161410228349268	2	0	NaN	3110459.4165321	NaN	3110460.3999525	3110460.91649037
7	20	1	0	90	36.1581920903955	36.241610738255	15	0.500051879882813	2	3	4	NaN	1	3	0.0371220176202853	1	1	NaN	405	7	27	2	121	221	321	NaN	521	0.189609728287905	1	1	NaN	3110461.9001448	NaN	3110462.883511	3110463.40006977
7	20	1	0	90	36.1581920903955	36.241610738255	0	0	1	1	5	NaN	1	3	0.0371220176202853	1	1	NaN	406	7	28	2	111	211	311	NaN	511	0.129532628227025	1	1	NaN	3110464.4003976	NaN	3110465.3837606	3110465.90031077
7	20	1	0	90	36.1581920903955	36.241610738255	22	0.733409423828125	2	4	2	NaN	1	4	0.0371220176202853	1	1	NaN	407	7	29	2	121	221	321	NaN	521	0.0104110282845795	1	1	NaN	3110467.1840772	NaN	3110468.1673568	3110468.68392257
7	20	1	0	90	36.1581920903955	36.241610738255	12	0.40004150390625	2	1	4	NaN	1	5	0.0371220176202853	1	1	NaN	408	7	30	2	121	221	321	NaN	521	0.164675976149738	1	1	NaN	3110469.5174511	NaN	3110470.5009385	3110471.01747202
7	20	1	0	90	36.1581920903955	36.241610738255	11	0.366704711914063	2	11	5	NaN	2	4	0.0371220176202853	1	1	NaN	409	7	31	2	121	221	321	NaN	521	0.16112377634272	1	0	NaN	3110472.0009846	NaN	3110472.9845037	3110473.50105672
7	20	1	0	90	36.1581920903955	36.241610738255	14	0.466715087890625	2	6	3	NaN	1	4	0.0371220176202853	1	1	NaN	410	7	32	2	121	221	321	NaN	521	0.0104121761396527	1	1	NaN	3110474.4846135	NaN	3110475.468086	3110475.98463412
7	20	1	0	90	36.1581920903955	36.241610738255	14	0.466715087890625	2	11	6	NaN	2	4	0.0371220176202853	1	1	NaN	411	7	33	2	121	221	321	NaN	521	0.0104221235960722	1	0	NaN	3110476.801578	NaN	3110477.7849831	3110478.30152938
7	20	1	0	90	36.1581920903955	36.241610738255	25	0.833419799804688	2	12	3	NaN	2	3	0.0371220176202853	1	1	NaN	412	7	34	2	121	221	321	NaN	521	0.170863924082369	1	0	NaN	3110479.1351399	NaN	3110480.1185256	3110480.63508338
7	20	1	0	90	36.1581920903955	36.241610738255	0	0	1	11	6	NaN	2	5	0.0371220176202853	1	1	NaN	413	7	35	2	111	211	311	NaN	511	0.0871625239960849	1	0	NaN	3110481.618714	NaN	3110482.6021107	3110483.11867168
7	20	1	0	90	36.1581920903955	36.241610738255	23	0.766746215820313	2	4	3	NaN	1	3	0.0371220176202853	1	1	NaN	414	7	36	2	121	221	321	NaN	521	0.166766075883061	1	1	NaN	3110484.0188317	NaN	3110485.0023341	3110485.51890652
7	20	1	0	90	36.1581920903955	36.241610738255	8	0.2666943359375	2	10	1	NaN	2	5	0.0371220176202853	1	1	NaN	415	7	37	2	121	221	321	NaN	521	0.0104066282510757	2	1	NaN	3110486.502525	NaN	3110487.4859319	3110488.00248637
7	20	1	0	90	36.1581920903955	36.241610738255	19	0.633399047851563	2	7	3	NaN	2	5	0.0371220176202853	1	1	NaN	416	7	38	2	121	221	321	NaN	521	0.446383928414434	1	0	NaN	3110488.8194424	NaN	3110489.8028436	3110490.31937637
7	20	1	0	90	36.1581920903955	36.241610738255	23	0.766746215820313	2	10	1	NaN	2	4	0.0371220176202853	1	1	NaN	417	7	39	2	121	221	321	NaN	521	0.0103940283879638	1	0	NaN	3110491.5696902	NaN	3110492.5530691	3110493.06965097
7	20	1	0	90	36.1581920903955	36.241610738255	19	0.633399047851563	2	10	1	NaN	2	4	0.0371220176202853	1	1	NaN	418	7	40	2	121	221	321	NaN	521	0.163294523954391	2	1	NaN	3110493.8866708	NaN	3110494.8699892	3110495.38653358
7	20	1	0	90	36.1581920903955	36.241610738255	22	0.733409423828125	2	3	3	NaN	1	3	0.0371220176202853	1	1	NaN	419	7	41	2	121	221	321	NaN	521	0.311610144097358	2	0	NaN	3110496.3701839	NaN	3110497.3535594	3110497.87012306
7	20	1	0	90	36.1581920903955	36.241610738255	9	0.300031127929688	2	7	3	NaN	2	5	0.0371220176202853	1	1	NaN	420	7	42	2	121	221	321	NaN	521	0.550772624090314	2	1	NaN	3110498.9869446	NaN	3110499.9704858	3110500.48703498
7	20	1	0	90	36.1581920903955	36.241610738255	15	0.500051879882813	2	9	1	NaN	2	5	0.0371220176202853	1	1	NaN	421	7	43	2	121	221	321	NaN	521	0.18784189177677	1	0	NaN	3110501.8539105	NaN	3110502.8374603	3110503.35400031
7	20	1	0	90	36.1581920903955	36.241610738255	7	0.233357543945313	2	4	3	NaN	1	3	0.0371220176202853	1	1	NaN	422	7	44	2	121	221	321	NaN	521	0.4558688797988	1	1	NaN	3110504.3542729	NaN	3110505.3377339	3110505.85424232
7	20	1	0	90	36.1581920903955	36.241610738255	7	0.233357543945313	2	5	3	NaN	1	5	0.0371220176202853	1	1	NaN	423	7	45	2	121	221	321	NaN	521	0.192665923852473	2	0	NaN	3110507.1212237	NaN	3110508.104608	3110508.62117478
7	20	1	0	90	36.1581920903955	36.241610738255	25	0.833419799804688	2	8	4	NaN	2	5	0.0371220176202853	1	1	NaN	424	7	46	2	121	221	321	NaN	521	0.211686975788325	2	1	NaN	3110509.6381464	NaN	3110510.6215881	3110511.13809222
7	20	1	0	90	36.1581920903955	36.241610738255	18	0.600062255859375	2	2	5	NaN	1	3	0.0371220176202853	1	1	NaN	425	7	47	2	121	221	321	NaN	521	0.166261727921665	1	1	NaN	3110512.1715925	NaN	3110513.1551313	3110513.67167897
7	20	1	0	90	36.1581920903955	36.241610738255	8	0.2666943359375	2	1	4	NaN	1	3	0.0371220176202853	1	1	NaN	426	7	48	2	121	221	321	NaN	521	0.170866027940065	1	1	NaN	3110514.655293	NaN	3110515.638688	3110516.15525207
7	20	1	0	90	36.1581920903955	36.241610738255	10	0.333367919921875	2	7	2	NaN	2	3	0.0371220176202853	1	1	NaN	427	7	49	2	121	221	321	NaN	521	0.135044571943581	1	0	NaN	3110517.1388655	NaN	3110518.1222721	3110518.63881963
7	20	1	0	90	36.1581920903955	36.241610738255	0	0	1	9	2	NaN	2	4	0.0371220176202853	1	1	NaN	428	7	50	2	111	211	311	NaN	511	0.181245723739266	1	0	NaN	3110519.5891139	NaN	3110520.5725187	3110521.08906348
7	20	1	0	90	36.1581920903955	36.241610738255	24	0.8000830078125	2	10	4	NaN	2	4	0.0371220176202853	1	1	NaN	429	7	51	2	121	221	321	NaN	521	3.72860112367198	2	1	NaN	3110522.0893695	NaN	3110523.0726809	3110523.58931108
7	20	1	0	90	36.1581920903955	36.241610738255	11	0.366704711914063	2	3	3	NaN	1	5	0.0371220176202853	1	1	NaN	430	7	52	2	121	221	321	NaN	521	0.751785779837519	1	1	NaN	3110528.689988	NaN	3110529.6734107	3110530.18995822
7	20	1	0	90	36.1581920903955	36.241610738255	25	0.833419799804688	2	10	4	NaN	2	5	0.0371220176202853	1	1	NaN	431	7	53	2	121	221	321	NaN	521	0.940973128192127	2	1	NaN	3110531.7569815	NaN	3110532.740436	3110533.25693707
7	20	1	0	90	36.1581920903955	36.241610738255	18	0.600062255859375	2	10	3	NaN	2	4	0.0371220176202853	1	1	NaN	432	7	54	2	121	221	321	NaN	521	0.362017075996846	2	1	NaN	3110535.0239814	NaN	3110536.0072662	3110536.52392092
7	20	1	0	90	36.1581920903955	36.241610738255	17	0.566725463867188	2	11	4	NaN	2	5	0.0371220176202853	1	1	NaN	433	7	55	2	121	221	321	NaN	521	0.262244328390807	1	0	NaN	3110537.7075659	NaN	3110538.6909715	3110539.20751717
7	20	1	0	90	36.1581920903955	36.241610738255	0	0	1	4	3	NaN	1	3	0.0371220176202853	1	1	NaN	434	7	56	2	111	211	311	NaN	511	0.279506731778383	1	1	NaN	3110540.2744124	NaN	3110541.2579001	3110541.77442997
7	20	1	0	90	36.1581920903955	36.241610738255	14	0.466715087890625	2	9	1	NaN	2	4	0.0371220176202853	1	1	NaN	435	7	57	2	121	221	321	NaN	521	0.40715387230739	1	0	NaN	3110542.8747538	NaN	3110543.8581725	3110544.37469383
7	20	1	0	90	36.1581920903955	36.241610738255	9	0.300031127929688	2	12	4	NaN	2	3	0.0371220176202853	1	1	NaN	436	7	58	2	121	221	321	NaN	521	0.130164179950953	2	1	NaN	3110545.5916713	NaN	3110546.5751059	3110547.09162962
7	20	1	0	90	36.1581920903955	36.241610738255	15	0.500051879882813	2	6	2	NaN	1	3	0.0371220176202853	1	1	NaN	437	7	59	2	121	221	321	NaN	521	0.111965323798358	2	0	NaN	3110548.0417926	NaN	3110549.0253073	3110549.54187038
7	20	1	0	90	36.1581920903955	36.241610738255	19	0.633399047851563	2	6	4	NaN	1	4	0.0371220176202853	1	1	NaN	438	7	60	2	121	221	321	NaN	521	0.0103936279192567	1	1	NaN	3110550.4753511	NaN	3110551.4588928	3110551.97544337
7	20	1	0	90	36.1581920903955	36.241610738255	17	0.566725463867188	2	6	2	NaN	1	4	0.0371220176202853	1	1	NaN	439	7	61	2	121	221	321	NaN	521	0.169368524104357	1	1	NaN	3110552.7924815	NaN	3110553.7758159	3110554.29232378
7	20	1	0	90	36.1581920903955	36.241610738255	11	0.366704711914063	2	8	2	NaN	2	3	0.0371220176202853	1	1	NaN	440	7	62	2	121	221	321	NaN	521	0.15793441189453	1	0	NaN	3110555.2759559	NaN	3110556.2593708	3110556.77591199
7	20	1	0	90	36.1581920903955	36.241610738255	7	0.233357543945313	2	10	1	NaN	2	5	0.0371220176202853	1	1	NaN	441	7	63	2	121	221	321	NaN	521	0.139086228329688	2	1	NaN	3110557.7428815	NaN	3110558.7262739	3110559.24282017
7	20	1	0	90	36.1581920903955	36.241610738255	24	0.8000830078125	2	11	2	NaN	2	5	0.0371220176202853	1	1	NaN	442	8	1	2	121	221	321	NaN	521	0.499333975836635	2	1	NaN	3110582.2786179	NaN	3110583.2620149	3110583.77855522
7	20	1	0	90	36.1581920903955	36.241610738255	12	0.40004150390625	2	11	6	NaN	2	4	0.0371220176202853	1	1	NaN	443	8	2	2	121	221	321	NaN	521	0.122599179856479	2	1	NaN	3110585.0955597	NaN	3110586.0789437	3110586.59551072
7	20	1	0	90	36.1581920903955	36.241610738255	6	0.200020751953125	2	3	6	NaN	1	5	0.0371220176202853	1	1	NaN	444	8	3	2	121	221	321	NaN	521	0.0886942320503294	1	1	NaN	3110587.5291519	NaN	3110588.5125206	3110589.02908117
7	20	1	0	90	36.1581920903955	36.241610738255	13	0.433378295898438	2	4	4	NaN	1	5	0.0371220176202853	1	1	NaN	445	8	4	2	121	221	321	NaN	521	0.248559975996614	1	1	NaN	3110589.9293585	NaN	3110590.9127717	3110591.42932022
7	20	1	0	90	36.1581920903955	36.241610738255	11	0.366704711914063	2	1	4	NaN	1	3	0.0371220176202853	1	1	NaN	446	8	5	2	121	221	321	NaN	521	0.0817801761440933	1	1	NaN	3110592.4962817	NaN	3110593.4796816	3110593.99623092
7	20	1	0	90	36.1581920903955	36.241610738255	23	0.766746215820313	2	3	4	NaN	1	5	0.0371220176202853	1	1	NaN	447	8	6	2	121	221	321	NaN	521	0.217408032156527	2	0	NaN	3110594.8965306	NaN	3110595.8799093	3110596.39646917
7	20	1	0	90	36.1581920903955	36.241610738255	16	0.533388671875	2	6	5	NaN	1	3	0.0371220176202853	1	1	NaN	448	8	7	2	121	221	321	NaN	521	0.26819642400369	2	0	NaN	3110597.4300852	NaN	3110598.4135203	3110598.93004648
7	20	1	0	90	36.1581920903955	36.241610738255	19	0.633399047851563	2	2	5	NaN	1	4	0.0371220176202853	1	1	NaN	449	8	8	2	121	221	321	NaN	521	0.172181779518723	1	1	NaN	3110600.013681	NaN	3110600.9971001	3110601.51363512
7	20	1	0	90	36.1581920903955	36.241610738255	6	0.200020751953125	2	11	4	NaN	2	4	0.0371220176202853	1	1	NaN	450	8	9	2	121	221	321	NaN	521	0.817255672067404	1	0	NaN	3110602.4972933	NaN	3110603.4806616	3110603.99720873
7	20	1	0	90	36.1581920903955	36.241610738255	14	0.466715087890625	2	6	4	NaN	1	5	0.0371220176202853	1	1	NaN	451	8	10	2	121	221	321	NaN	521	0.0104217240586877	1	1	NaN	3110605.6309149	NaN	3110606.6143335	3110607.13085498
7	20	1	0	90	36.1581920903955	36.241610738255	0	0	1	1	1	NaN	1	3	0.0371220176202853	1	1	NaN	452	8	11	2	111	211	311	NaN	511	0.245620375964791	1	1	NaN	3110607.9644763	NaN	3110608.9478676	3110609.46442032
7	20	1	0	90	36.1581920903955	36.241610738255	13	0.433378295898438	2	8	5	NaN	2	3	0.0371220176202853	1	1	NaN	453	8	12	2	121	221	321	NaN	521	0.183341731783003	2	1	NaN	3110610.5147229	NaN	3110611.4981214	3110612.01468007
7	20	1	0	90	36.1581920903955	36.241610738255	19	0.633399047851563	2	8	6	NaN	2	3	0.0371220176202853	1	1	NaN	454	8	13	2	121	221	321	NaN	521	0.307468223851174	2	1	NaN	3110613.0148419	NaN	3110613.998374	3110614.51491128
7	20	1	0	90	36.1581920903955	36.241610738255	17	0.566725463867188	2	12	6	NaN	2	4	0.0371220176202853	1	1	NaN	455	8	14	2	121	221	321	NaN	521	0.171502431854606	2	1	NaN	3110615.9984779	NaN	3110616.9820373	3110617.49855117
7	20	1	0	90	36.1581920903955	36.241610738255	19	0.633399047851563	2	11	1	NaN	2	4	0.0371220176202853	1	1	NaN	456	8	15	2	121	221	321	NaN	521	0.191918476019055	2	1	NaN	3110618.4821032	NaN	3110619.4655678	3110619.98211582
7	20	1	0	90	36.1581920903955	36.241610738255	20	0.66673583984375	2	9	1	NaN	2	4	0.0371220176202853	1	1	NaN	457	8	16	2	121	221	321	NaN	521	0.0596378757618368	1	0	NaN	3110620.9825093	NaN	3110621.9658288	3110622.48236732
7	20	1	0	90	36.1581920903955	36.241610738255	24	0.8000830078125	2	3	6	NaN	1	4	0.0371220176202853	1	1	NaN	458	8	17	2	121	221	321	NaN	521	0.212699328083545	1	1	NaN	3110623.3494163	NaN	3110624.3327168	3110624.84927097
7	20	1	0	90	36.1581920903955	36.241610738255	14	0.466715087890625	2	4	6	NaN	1	3	0.0371220176202853	1	1	NaN	459	8	18	2	121	221	321	NaN	521	0.151585476007313	1	1	NaN	3110625.882908	NaN	3110626.8663157	3110627.38284642
7	20	1	0	90	36.1581920903955	36.241610738255	15	0.500051879882813	2	1	6	NaN	1	3	0.0371220176202853	1	1	NaN	460	8	19	2	121	221	321	NaN	521	0.316658072639257	1	1	NaN	3110628.3498075	NaN	3110629.3331963	3110629.84975643
