subjno	age	gender	isPractice	viewdist	CmToPixX	CmToPixY	SOA_frm	SOA_time	targNum	targID	targExample	targRace	targGender	firstTargPos	contrast	familiarity	curr_staircase	iStair	TrialNum	BlockNum	blktrl	sessionNum	TC_FIXATION	TC_RSVP_START	TC_RSVP_END	TC_BLANK	TC_RESPONSE_ONSET	RT2afc	resp_2afc	acc	RSVPOnsetVBL	RSVPOnsetTime	RSVPOffsetVBL	RSVPOffsetTime	startrt_2afc
22	21	0	0	90	36.1581920903955	36.241610738255	14	0.466699464097619	2	6	4	NaN	1	4	0.0456048706144795	0	1	NaN	1	1	1	2	120	220	320	NaN	520	1.60441802209243	1	1	NaN	2671406.387001	NaN	2671407.3702699	2671407.90341128
22	21	0	0	90	36.1581920903955	36.241610738255	11	0.366692436076701	2	10	6	NaN	2	4	0.0456048706144795	0	1	NaN	2	1	2	2	120	220	320	NaN	520	0.3562340750359	2	1	NaN	2671410.3707421	NaN	2671411.353989	2671411.88712833
22	21	0	0	90	36.1581920903955	36.241610738255	6	0.200014056041837	2	6	6	NaN	1	5	0.0456048706144795	0	1	NaN	3	1	3	2	120	220	320	NaN	520	0.416535549331456	1	1	NaN	2671413.070778	NaN	2671414.0541807	2671414.57072455
22	21	0	0	90	36.1581920903955	36.241610738255	16	0.533370816111565	2	2	3	NaN	1	5	0.0456048706144795	0	1	NaN	4	1	4	2	120	220	320	NaN	520	0.786512169521302	1	1	NaN	2671415.8210525	NaN	2671416.8044462	2671417.32099843
22	21	0	0	90	36.1581920903955	36.241610738255	11	0.366692436076701	2	9	4	NaN	2	4	0.0456048706144795	0	1	NaN	5	1	5	2	120	220	320	NaN	520	0.278178370092064	2	1	NaN	2671418.9213426	NaN	2671419.9047546	2671420.42130423
22	21	0	0	90	36.1581920903955	36.241610738255	25	0.83339190017432	2	3	6	NaN	1	3	0.0456048706144795	0	1	NaN	6	1	6	2	120	220	320	NaN	520	0.437962170224637	2	0	NaN	2671421.5214647	NaN	2671422.5050064	2671423.02155313
22	21	0	0	90	36.1581920903955	36.241610738255	12	0.400028112083674	2	4	5	NaN	1	4	0.0456048706144795	0	1	NaN	7	1	7	2	120	220	320	NaN	520	0.364225154742599	1	1	NaN	2671424.7552478	NaN	2671425.738665	2671426.25519645
22	21	0	0	90	36.1581920903955	36.241610738255	6	0.200014056041837	2	6	3	NaN	1	5	0.0456048706144795	0	1	NaN	8	1	8	2	120	220	320	NaN	520	0.0104212700389326	1	1	NaN	2671427.4388802	NaN	2671428.422254	2671428.93880043
22	21	0	0	90	36.1581920903955	36.241610738255	24	0.800056224167347	2	2	5	NaN	1	5	0.0456048706144795	0	1	NaN	9	1	9	2	120	220	320	NaN	520	0.635231069754809	1	1	NaN	2671429.7724112	NaN	2671430.7558167	2671431.27238543
22	21	0	0	90	36.1581920903955	36.241610738255	16	0.533370816111565	2	11	6	NaN	2	5	0.0456048706144795	0	1	NaN	10	1	10	2	120	220	320	NaN	520	1.6528923176229	1	0	NaN	2671432.7227033	NaN	2671433.7061335	2671434.22265308
22	21	0	0	90	36.1581920903955	36.241610738255	9	0.300021084062755	2	2	4	NaN	1	3	0.0456048706144795	0	1	NaN	11	1	11	2	120	220	320	NaN	520	0.629550617188215	1	1	NaN	2671436.6897789	NaN	2671437.6731645	2671438.18970778
22	21	0	0	90	36.1581920903955	36.241610738255	25	0.83339190017432	2	7	1	NaN	2	3	0.0456048706144795	0	1	NaN	12	1	12	2	120	220	320	NaN	520	0.447165922261775	1	0	NaN	2671439.6399285	NaN	2671440.6234524	2671441.14000908
22	21	0	0	90	36.1581920903955	36.241610738255	16	0.533370816111565	2	5	5	NaN	1	4	0.0456048706144795	0	1	NaN	13	1	13	2	120	220	320	NaN	520	0.352714770007879	1	1	NaN	2671442.407043	NaN	2671443.3903954	2671443.90693923
22	21	0	0	90	36.1581920903955	36.241610738255	23	0.766720548160374	2	8	2	NaN	2	3	0.0456048706144795	0	1	NaN	14	1	14	2	120	220	320	NaN	520	0.780954022426158	2	1	NaN	2671445.0905816	NaN	2671446.074033	2671446.59054338
22	21	0	0	90	36.1581920903955	36.241610738255	19	0.633377844132483	2	6	3	NaN	1	4	0.0456048706144795	0	1	NaN	15	1	15	2	120	220	320	NaN	520	0.352297517471015	1	1	NaN	2671448.1908501	NaN	2671449.1742903	2671449.69083438
22	21	0	0	90	36.1581920903955	36.241610738255	7	0.23334973204881	2	8	3	NaN	2	3	0.0456048706144795	0	1	NaN	16	1	16	2	120	220	320	NaN	520	2.02203462226316	2	1	NaN	2671450.85778	NaN	2671451.841233	2671452.35777758
22	21	0	0	90	36.1581920903955	36.241610738255	11	0.366692436076701	2	4	6	NaN	1	5	0.0456048706144795	0	1	NaN	17	1	17	2	120	220	320	NaN	520	0.431779469829053	1	1	NaN	2671455.1915826	NaN	2671456.174987	2671456.69153203
22	21	0	0	90	36.1581920903955	36.241610738255	13	0.433363788090646	2	7	4	NaN	2	5	0.0456048706144795	0	1	NaN	18	1	18	2	120	220	320	NaN	520	0.345499670132995	2	1	NaN	2671457.9418601	NaN	2671458.9252554	2671459.44180643
22	21	0	0	90	36.1581920903955	36.241610738255	24	0.800056224167347	2	4	2	NaN	1	4	0.0456048706144795	0	1	NaN	19	1	19	2	120	220	320	NaN	520	0.35057837003842	1	1	NaN	2671460.6087873	NaN	2671461.5921809	2671462.10872463
22	21	0	0	90	36.1581920903955	36.241610738255	25	0.83339190017432	2	12	6	NaN	2	4	0.0456048706144795	0	1	NaN	20	1	20	2	120	220	320	NaN	520	1.17288522189483	1	0	NaN	2671463.8424068	NaN	2671464.8258207	2671465.34239948
22	21	0	0	90	36.1581920903955	36.241610738255	7	0.23334973204881	2	1	4	NaN	1	4	0.0456048706144795	0	1	NaN	21	1	21	2	120	220	320	NaN	520	1.12104322202504	1	1	NaN	2671467.342707	NaN	2671468.3261956	2671468.84271628
22	21	0	0	90	36.1581920903955	36.241610738255	9	0.300021084062755	2	11	5	NaN	2	5	0.0456048706144795	0	1	NaN	22	1	22	2	120	220	320	NaN	520	1.39057662757114	2	1	NaN	2671470.7931183	NaN	2671471.7765351	2671472.29306677
22	21	0	0	90	36.1581920903955	36.241610738255	17	0.566706492118537	2	4	5	NaN	1	4	0.0456048706144795	0	1	NaN	23	1	23	2	120	220	320	NaN	520	1.0412444700487	1	1	NaN	2671474.5101398	NaN	2671475.4935519	2671476.01010003
22	21	0	0	90	36.1581920903955	36.241610738255	12	0.400028112083674	2	11	2	NaN	2	3	0.0456048706144795	0	1	NaN	24	1	24	2	120	220	320	NaN	520	1.06661622226238	1	0	NaN	2671477.8771366	NaN	2671478.8605346	2671479.37709628
22	21	0	0	90	36.1581920903955	36.241610738255	13	0.433363788090646	2	1	1	NaN	1	5	0.0456048706144795	0	1	NaN	25	1	25	2	120	220	320	NaN	520	0.434897469822317	2	0	NaN	2671481.2608029	NaN	2671482.2442158	2671482.76075563
22	21	0	0	90	36.1581920903955	36.241610738255	9	0.300021084062755	2	9	6	NaN	2	3	0.0456048706144795	0	1	NaN	26	1	26	2	120	220	320	NaN	520	0.516711974982172	2	1	NaN	2671484.0109499	NaN	2671484.9944727	2671485.51103343
22	21	0	0	90	36.1581920903955	36.241610738255	20	0.666713520139456	2	7	2	NaN	2	4	0.0456048706144795	0	1	NaN	27	1	27	2	120	220	320	NaN	520	0.307059017475694	2	1	NaN	2671486.8446227	NaN	2671487.8280903	2671488.34463078
22	21	0	0	90	36.1581920903955	36.241610738255	25	0.83339190017432	2	1	1	NaN	1	4	0.0456048706144795	0	1	NaN	28	1	28	2	120	220	320	NaN	520	0.867216017562896	2	0	NaN	2671490.0283129	NaN	2671491.0117722	2671491.52828868
22	21	0	0	90	36.1581920903955	36.241610738255	0	0	1	11	4	NaN	2	4	0.0456048706144795	0	1	NaN	29	1	29	2	110	210	310	NaN	510	0.507760469801724	2	1	NaN	2671493.2119754	NaN	2671494.1953777	2671494.71193483
22	21	0	0	90	36.1581920903955	36.241610738255	19	0.633377844132483	2	2	1	NaN	1	3	0.0456048706144795	0	1	NaN	30	1	30	2	120	220	320	NaN	520	0.505648817401379	1	1	NaN	2671496.0455925	NaN	2671497.028979	2671497.54553918
22	21	0	0	90	36.1581920903955	36.241610738255	24	0.800056224167347	2	4	6	NaN	1	3	0.0456048706144795	0	1	NaN	31	1	31	2	120	220	320	NaN	520	0.624444717541337	1	1	NaN	2671498.8792248	NaN	2671499.8626082	2671500.37914798
22	21	0	0	90	36.1581920903955	36.241610738255	12	0.400028112083674	2	2	4	NaN	1	5	0.0456048706144795	0	1	NaN	32	1	32	2	120	220	320	NaN	520	0.410960742738098	1	1	NaN	2671501.8126908	NaN	2671502.7962236	2671503.31277756
22	21	0	0	90	36.1581920903955	36.241610738255	12	0.400028112083674	2	8	6	NaN	2	3	0.0456048706144795	0	1	NaN	33	1	33	2	120	220	320	NaN	520	0.397144269663841	1	0	NaN	2671504.5464273	NaN	2671505.5298305	2671506.04637663
22	21	0	0	90	36.1581920903955	36.241610738255	14	0.466699464097619	2	5	5	NaN	1	3	0.0456048706144795	0	1	NaN	34	1	34	2	120	220	320	NaN	520	0.440219121985137	2	0	NaN	2671507.263362	NaN	2671508.2468022	2671508.76331558
22	21	0	0	90	36.1581920903955	36.241610738255	24	0.800056224167347	2	7	2	NaN	2	4	0.0456048706144795	0	1	NaN	35	1	35	2	120	220	320	NaN	520	1.71351901721209	1	0	NaN	2671510.630348	NaN	2671511.6137619	2671512.13029848
22	21	0	0	90	36.1581920903955	36.241610738255	8	0.266685408055782	2	8	4	NaN	2	4	0.0456048706144795	0	1	NaN	36	1	36	2	120	220	320	NaN	520	1.327384527307	1	0	NaN	2671514.6641024	NaN	2671515.6474825	2671516.16404137
22	21	0	0	90	36.1581920903955	36.241610738255	15	0.500035140104592	2	1	6	NaN	1	3	0.0456048706144795	0	1	NaN	37	1	37	2	120	220	320	NaN	520	0.789237570017576	1	1	NaN	2671518.3144618	NaN	2671519.2978629	2671519.81439913
22	21	0	0	90	36.1581920903955	36.241610738255	22	0.733384872153401	2	7	1	NaN	2	5	0.0456048706144795	0	1	NaN	38	1	38	2	120	220	320	NaN	520	0.408946469891816	2	1	NaN	2671521.414742	NaN	2671522.3981446	2671522.91469463
22	21	0	0	90	36.1581920903955	36.241610738255	8	0.266685408055782	2	4	3	NaN	1	4	0.0456048706144795	0	1	NaN	39	1	39	2	120	220	320	NaN	520	0.72377602243796	1	1	NaN	2671524.1316821	NaN	2671525.1150916	2671525.63163818
22	21	0	0	90	36.1581920903955	36.241610738255	16	0.533370816111565	2	4	2	NaN	1	4	0.0456048706144795	0	1	NaN	40	1	40	2	120	220	320	NaN	520	0.497855422087014	2	0	NaN	2671527.1653165	NaN	2671528.1487069	2671528.66526608
22	21	0	0	90	36.1581920903955	36.241610738255	11	0.366692436076701	2	2	6	NaN	1	5	0.0456048706144795	0	1	NaN	41	1	41	2	120	220	320	NaN	520	0.59375682240352	2	0	NaN	2671529.9655933	NaN	2671530.9489903	2671531.46554378
22	21	0	0	90	36.1581920903955	36.241610738255	20	0.666713520139456	2	5	4	NaN	1	4	0.0456048706144795	0	1	NaN	42	1	42	2	120	220	320	NaN	520	0.173207717482001	1	1	NaN	2671532.8825469	NaN	2671533.8659451	2671534.38248928
22	21	0	0	90	36.1581920903955	36.241610738255	0	0	1	10	1	NaN	2	3	0.0456048706144795	0	1	NaN	43	1	43	2	110	210	310	NaN	510	0.481299664825201	2	1	NaN	2671535.3660908	NaN	2671536.3495053	2671536.86606364
22	21	0	0	90	36.1581920903955	36.241610738255	17	0.566706492118537	2	10	2	NaN	2	3	0.0456048706144795	0	1	NaN	44	1	44	2	120	220	320	NaN	520	1.03413342218846	2	1	NaN	2671538.1497073	NaN	2671539.1331116	2671539.64968278
22	21	0	0	90	36.1581920903955	36.241610738255	23	0.766720548160374	2	12	4	NaN	2	5	0.0456048706144795	0	1	NaN	45	1	45	2	120	220	320	NaN	520	0.987355817575008	1	0	NaN	2671541.5000661	NaN	2671542.4834561	2671542.99999858
22	21	0	0	90	36.1581920903955	36.241610738255	9	0.300021084062755	2	3	4	NaN	1	5	0.0456048706144795	0	1	NaN	46	1	46	2	120	220	320	NaN	520	3.07139857020229	1	1	NaN	2671544.8003894	NaN	2671545.7837756	2671546.30033363
22	21	0	0	90	36.1581920903955	36.241610738255	0	0	1	1	3	NaN	1	4	0.0456048706144795	0	1	NaN	47	1	47	2	110	210	310	NaN	510	2.75933481752872	2	0	NaN	2671550.1842464	NaN	2671551.1676691	2671551.68418598
22	21	0	0	90	36.1581920903955	36.241610738255	18	0.60004216812551	2	2	1	NaN	1	4	0.0456048706144795	0	1	NaN	48	1	48	2	120	220	320	NaN	520	0.476048870012164	1	1	NaN	2671555.2514034	NaN	2671556.2347999	2671556.75134793
22	21	0	0	90	36.1581920903955	36.241610738255	11	0.366692436076701	2	3	1	NaN	1	3	0.0456048706144795	0	1	NaN	49	1	49	2	120	220	320	NaN	520	1.32484587002546	1	1	NaN	2671558.0350186	NaN	2671559.0183357	2671559.53496323
22	21	0	0	90	36.1581920903955	36.241610738255	19	0.633377844132483	2	12	2	NaN	2	5	0.0456048706144795	0	1	NaN	50	1	50	2	120	220	320	NaN	520	0.50828402210027	1	0	NaN	2671562.0354145	NaN	2671563.0188343	2671563.53535908
22	21	0	0	90	36.1581920903955	36.241610738255	0	0	1	10	6	NaN	2	5	0.0456048706144795	0	1	NaN	51	1	51	2	110	210	310	NaN	510	0.338955075014383	2	1	NaN	2671564.8524525	NaN	2671565.8357646	2671566.35229803
22	21	0	0	90	36.1581920903955	36.241610738255	8	0.266685408055782	2	2	6	NaN	1	5	0.0456048706144795	0	1	NaN	52	1	52	2	120	220	320	NaN	520	0.241122517734766	1	1	NaN	2671567.5026097	NaN	2671568.4860104	2671569.00256138
22	21	0	0	90	36.1581920903955	36.241610738255	18	0.60004216812551	2	6	1	NaN	1	4	0.0456048706144795	0	1	NaN	53	1	53	2	120	220	320	NaN	520	0.258947522379458	1	1	NaN	2671570.0528493	NaN	2671571.0362622	2671571.55281508
22	21	0	0	90	36.1581920903955	36.241610738255	9	0.300021084062755	2	5	3	NaN	1	5	0.0456048706144795	0	1	NaN	54	1	54	2	120	220	320	NaN	520	0.907758417539299	1	1	NaN	2671572.6197892	NaN	2671573.6031769	2671574.11971878
22	21	0	0	90	36.1581920903955	36.241610738255	11	0.366692436076701	2	4	1	NaN	1	4	0.0456048706144795	0	1	NaN	55	1	55	2	120	220	320	NaN	520	0.394572417251766	2	0	NaN	2671575.83677	NaN	2671576.8201637	2671577.33670598
22	21	0	0	90	36.1581920903955	36.241610738255	6	0.200014056041837	2	1	3	NaN	1	3	0.0456048706144795	0	1	NaN	56	1	56	2	120	220	320	NaN	520	0.238167169969529	1	1	NaN	2671578.5536948	NaN	2671579.5370816	2671580.05363843
22	21	0	0	90	36.1581920903955	36.241610738255	11	0.366692436076701	2	2	2	NaN	1	3	0.0456048706144795	0	1	NaN	57	1	57	2	120	220	320	NaN	520	0.311140269972384	1	1	NaN	2671581.5206323	NaN	2671582.5040501	2671583.02060273
22	21	0	0	90	36.1581920903955	36.241610738255	22	0.733384872153401	2	12	2	NaN	2	3	0.0456048706144795	0	1	NaN	58	1	58	2	120	220	320	NaN	520	0.198089022189379	2	1	NaN	2671584.1375791	NaN	2671585.1209732	2671585.63752268
22	21	0	0	90	36.1581920903955	36.241610738255	8	0.266685408055782	2	7	6	NaN	2	3	0.0456048706144795	0	1	NaN	59	1	59	2	120	220	320	NaN	520	1.02540321741253	2	1	NaN	2671586.6545024	NaN	2671587.6378902	2671588.15443518
22	21	0	0	90	36.1581920903955	36.241610738255	0	0	1	1	2	NaN	1	4	0.0456048706144795	0	1	NaN	60	1	60	2	110	210	310	NaN	510	0.131257622037083	1	1	NaN	2671589.9881588	NaN	2671590.9715677	2671591.48810518
22	21	0	0	90	36.1581920903955	36.241610738255	18	0.60004216812551	2	8	6	NaN	2	3	0.0456048706144795	0	1	NaN	61	1	61	2	120	220	320	NaN	520	0.010412170086056	1	0	NaN	2671592.4550576	NaN	2671593.4385159	2671593.95500473
22	21	0	0	90	36.1581920903955	36.241610738255	10	0.333356760069728	2	4	6	NaN	1	4	0.0456048706144795	0	1	NaN	62	1	62	2	120	220	320	NaN	520	0.915914969984442	1	1	NaN	2671594.7718373	NaN	2671595.7553508	2671596.27190793
22	21	0	0	90	36.1581920903955	36.241610738255	11	0.366692436076701	2	6	4	NaN	1	4	0.0456048706144795	0	1	NaN	63	1	63	2	120	220	320	NaN	520	0.842274122405797	1	1	NaN	2671598.0055988	NaN	2671598.9890072	2671599.50555888
22	21	0	0	90	36.1581920903955	36.241610738255	23	0.766720548160374	2	11	2	NaN	2	4	0.0456048706144795	0	1	NaN	64	2	1	2	120	220	320	NaN	520	0.80676059005782	1	0	NaN	2671617.0408389	NaN	2671618.0242073	2671618.54075921
22	21	0	0	90	36.1581920903955	36.241610738255	10	0.333356760069728	2	1	6	NaN	1	3	0.0456048706144795	0	1	NaN	65	2	2	2	120	220	320	NaN	520	1.00969432247803	1	1	NaN	2671620.1577975	NaN	2671621.1412965	2671621.65772478
22	21	0	0	90	36.1581920903955	36.241610738255	10	0.333356760069728	2	9	2	NaN	2	4	0.0456048706144795	0	1	NaN	66	2	3	2	120	220	320	NaN	520	0.484977469779551	1	0	NaN	2671623.4747721	NaN	2671624.4581819	2671624.97472213
22	21	0	0	90	36.1581920903955	36.241610738255	12	0.400028112083674	2	12	3	NaN	2	5	0.0456048706144795	0	1	NaN	67	2	4	2	120	220	320	NaN	520	0.88458302244544	1	0	NaN	2671626.2750596	NaN	2671627.2584414	2671627.77499928
22	21	0	0	90	36.1581920903955	36.241610738255	16	0.533370816111565	2	8	4	NaN	2	5	0.0456048706144795	0	1	NaN	68	2	5	2	120	220	320	NaN	520	0.0104099698364735	2	1	NaN	2671629.4753593	NaN	2671630.4587661	2671630.97531183
22	21	0	0	90	36.1581920903955	36.241610738255	13	0.433363788090646	2	12	3	NaN	2	4	0.0456048706144795	0	1	NaN	69	2	6	2	120	220	320	NaN	520	1.01770028471947	2	1	NaN	2671632.1422685	NaN	2671633.1256202	2671633.64223592
22	21	0	0	90	36.1581920903955	36.241610738255	0	0	1	12	3	NaN	2	4	0.0456048706144795	0	1	NaN	70	2	7	2	110	210	310	NaN	510	0.475909570232034	2	1	NaN	2671635.4759521	NaN	2671636.4593599	2671636.97589573
22	21	0	0	90	36.1581920903955	36.241610738255	21	0.700049196146429	2	4	2	NaN	1	4	0.0456048706144795	0	1	NaN	71	2	8	2	120	220	320	NaN	520	0.403980617411435	1	1	NaN	2671638.2595636	NaN	2671639.2429563	2671639.75949808
22	21	0	0	90	36.1581920903955	36.241610738255	11	0.366692436076701	2	11	6	NaN	2	4	0.0456048706144795	0	1	NaN	72	2	9	2	120	220	320	NaN	520	2.13515481771901	2	1	NaN	2671640.9764886	NaN	2671641.959892	2671642.47643388
22	21	0	0	90	36.1581920903955	36.241610738255	19	0.633377844132483	2	11	4	NaN	2	3	0.0456048706144795	0	1	NaN	73	2	10	2	120	220	320	NaN	520	0.348567174747586	1	0	NaN	2671645.4269197	NaN	2671646.4103256	2671646.92688013
22	21	0	0	90	36.1581920903955	36.241610738255	11	0.366692436076701	2	3	3	NaN	1	4	0.0456048706144795	0	1	NaN	74	2	11	2	120	220	320	NaN	520	0.346067870035768	1	1	NaN	2671648.0938693	NaN	2671649.0772549	2671649.59380743
22	21	0	0	90	36.1581920903955	36.241610738255	16	0.533370816111565	2	7	6	NaN	2	3	0.0456048706144795	0	1	NaN	75	2	12	2	120	220	320	NaN	520	0.527424117084593	2	1	NaN	2671650.7441166	NaN	2671651.7275148	2671652.24406198
22	21	0	0	90	36.1581920903955	36.241610738255	15	0.500035140104592	2	2	3	NaN	1	5	0.0456048706144795	0	1	NaN	76	2	13	2	120	220	320	NaN	520	0.310272517614067	1	1	NaN	2671653.5777188	NaN	2671654.5611279	2671655.07767728
22	21	0	0	90	36.1581920903955	36.241610738255	15	0.500035140104592	2	6	1	NaN	1	4	0.0456048706144795	0	1	NaN	77	2	14	2	120	220	320	NaN	520	0.276963527314365	1	1	NaN	2671656.194661	NaN	2671657.1780409	2671657.69460277
22	21	0	0	90	36.1581920903955	36.241610738255	19	0.633377844132483	2	1	4	NaN	1	5	0.0456048706144795	0	1	NaN	78	2	15	2	120	220	320	NaN	520	0.388065669685602	1	1	NaN	2671659.2115843	NaN	2671660.1949994	2671660.71156773
22	21	0	0	90	36.1581920903955	36.241610738255	9	0.300021084062755	2	4	1	NaN	1	4	0.0456048706144795	0	1	NaN	79	2	16	2	120	220	320	NaN	520	0.296073969919235	1	1	NaN	2671661.911831	NaN	2671662.8952627	2671663.41182813
22	21	0	0	90	36.1581920903955	36.241610738255	0	0	1	2	3	NaN	1	5	0.0456048706144795	0	1	NaN	80	2	17	2	110	210	310	NaN	510	0.582784022204578	1	1	NaN	2671664.5286122	NaN	2671665.5122034	2671666.02875098
22	21	0	0	90	36.1581920903955	36.241610738255	14	0.466699464097619	2	4	5	NaN	1	4	0.0456048706144795	0	1	NaN	81	2	18	2	120	220	320	NaN	520	0.370732170064002	1	1	NaN	2671667.4291673	NaN	2671668.4124672	2671668.92904233
22	21	0	0	90	36.1581920903955	36.241610738255	16	0.533370816111565	2	9	5	NaN	2	3	0.0456048706144795	0	1	NaN	82	2	19	2	120	220	320	NaN	520	0.215206269640476	1	0	NaN	2671670.1126494	NaN	2671671.0960951	2671671.61263123
22	21	0	0	90	36.1581920903955	36.241610738255	18	0.60004216812551	2	3	1	NaN	1	5	0.0456048706144795	0	1	NaN	83	2	20	2	120	220	320	NaN	520	0.393536722287536	1	1	NaN	2671672.6462552	NaN	2671673.6296773	2671674.14622098
22	21	0	0	90	36.1581920903955	36.241610738255	22	0.733384872153401	2	3	4	NaN	1	3	0.0456048706144795	0	1	NaN	84	2	21	2	120	220	320	NaN	520	0.293126170057803	1	1	NaN	2671675.3465256	NaN	2671676.32994	2671676.84648183
22	21	0	0	90	36.1581920903955	36.241610738255	10	0.333356760069728	2	11	5	NaN	2	3	0.0456048706144795	0	1	NaN	85	2	22	2	120	220	320	NaN	520	0.0209738700650632	2	1	NaN	2671677.9467802	NaN	2671678.9301743	2671679.44673473
22	21	0	0	90	36.1581920903955	36.241610738255	9	0.300021084062755	2	5	5	NaN	1	3	0.0456048706144795	0	1	NaN	86	2	23	2	120	220	320	NaN	520	0.127703770063818	1	1	NaN	2671680.2803492	NaN	2671681.2637777	2671681.78029753
22	21	0	0	90	36.1581920903955	36.241610738255	24	0.800056224167347	2	8	5	NaN	2	4	0.0456048706144795	0	1	NaN	87	2	24	2	120	220	320	NaN	520	0.27445172239095	1	0	NaN	2671682.7972836	NaN	2671683.7806637	2671684.29721768
22	21	0	0	90	36.1581920903955	36.241610738255	21	0.700049196146429	2	7	3	NaN	2	4	0.0456048706144795	0	1	NaN	88	2	25	2	120	220	320	NaN	520	1.74689627019688	1	0	NaN	2671685.3808359	NaN	2671686.3642358	2671686.88079273
22	21	0	0	90	36.1581920903955	36.241610738255	23	0.766720548160374	2	2	2	NaN	1	4	0.0456048706144795	0	1	NaN	89	2	26	2	120	220	320	NaN	520	0.608228542841971	1	1	NaN	2671689.4479486	NaN	2671690.4312511	2671690.94787066
22	21	0	0	90	36.1581920903955	36.241610738255	0	0	1	9	3	NaN	2	3	0.0456048706144795	0	1	NaN	90	2	27	2	110	210	310	NaN	510	0.786852827295661	1	0	NaN	2671692.3648904	NaN	2671693.3482706	2671693.86482317
22	21	0	0	90	36.1581920903955	36.241610738255	15	0.500035140104592	2	8	1	NaN	2	5	0.0456048706144795	0	1	NaN	91	2	28	2	120	220	320	NaN	520	3.11848685517907	1	0	NaN	2671695.4651984	NaN	2671696.4485608	2671696.96511095
22	21	0	0	90	36.1581920903955	36.241610738255	12	0.400028112083674	2	3	6	NaN	1	4	0.0456048706144795	0	1	NaN	92	2	29	2	120	220	320	NaN	520	0.380800270009786	1	1	NaN	2671700.8990413	NaN	2671701.8824389	2671702.39899123
22	21	0	0	90	36.1581920903955	36.241610738255	7	0.23334973204881	2	5	2	NaN	1	5	0.0456048706144795	0	1	NaN	93	2	30	2	120	220	320	NaN	520	0.608303269837052	1	1	NaN	2671703.5993069	NaN	2671704.5826949	2671705.09925863
22	21	0	0	90	36.1581920903955	36.241610738255	0	0	1	11	5	NaN	2	3	0.0456048706144795	0	1	NaN	94	2	31	2	110	210	310	NaN	510	0.243815922178328	1	0	NaN	2671706.5162628	NaN	2671707.4996649	2671708.01621278
22	21	0	0	90	36.1581920903955	36.241610738255	10	0.333356760069728	2	7	4	NaN	2	4	0.0456048706144795	0	1	NaN	95	2	32	2	120	220	320	NaN	520	0.131218870170414	2	1	NaN	2671709.1163643	NaN	2671710.0998999	2671710.61646553
22	21	0	0	90	36.1581920903955	36.241610738255	20	0.666713520139456	2	9	6	NaN	2	3	0.0456048706144795	0	1	NaN	96	2	33	2	120	220	320	NaN	520	0.31138609489426	2	1	NaN	2671712.0167731	NaN	2671713.0001945	2671713.51675911
22	21	0	0	90	36.1581920903955	36.241610738255	25	0.83339190017432	2	9	5	NaN	2	4	0.0456048706144795	0	1	NaN	97	2	34	2	120	220	320	NaN	520	0.171647942624986	1	0	NaN	2671714.7003789	NaN	2671715.6837807	2671716.20034776
22	21	0	0	90	36.1581920903955	36.241610738255	0	0	1	9	6	NaN	2	3	0.0456048706144795	0	1	NaN	98	2	35	2	110	210	310	NaN	510	0.0104235173203051	2	1	NaN	2671717.2339867	NaN	2671718.2173807	2671718.73392478
22	21	0	0	90	36.1581920903955	36.241610738255	19	0.633377844132483	2	5	4	NaN	1	4	0.0456048706144795	0	1	NaN	99	2	36	2	120	220	320	NaN	520	0.0889184703119099	1	1	NaN	2671719.5508699	NaN	2671720.534303	2671721.05081413
22	21	0	0	90	36.1581920903955	36.241610738255	15	0.500035140104592	2	11	6	NaN	2	4	0.0456048706144795	0	1	NaN	100	2	37	2	120	220	320	NaN	520	0.67291732179001	1	0	NaN	2671722.3511224	NaN	2671723.334548	2671723.85109188
22	21	0	0	90	36.1581920903955	36.241610738255	19	0.633377844132483	2	3	1	NaN	1	4	0.0456048706144795	0	1	NaN	101	2	38	2	120	220	320	NaN	520	0.272971369791776	2	0	NaN	2671725.3347691	NaN	2671726.3180691	2671726.83472573
22	21	0	0	90	36.1581920903955	36.241610738255	14	0.466699464097619	2	12	4	NaN	2	4	0.0456048706144795	0	1	NaN	102	2	39	2	120	220	320	NaN	520	2.52871902193874	2	1	NaN	2671728.1350205	NaN	2671729.1184473	2671729.63500788
22	21	0	0	90	36.1581920903955	36.241610738255	14	0.466699464097619	2	7	6	NaN	2	3	0.0456048706144795	0	1	NaN	103	2	40	2	120	220	320	NaN	520	0.310842322185636	2	1	NaN	2671732.9688509	NaN	2671733.9522416	2671734.46880968
22	21	0	0	90	36.1581920903955	36.241610738255	21	0.700049196146429	2	9	2	NaN	2	3	0.0456048706144795	0	1	NaN	104	2	41	2	120	220	320	NaN	520	0.626291869673878	2	1	NaN	2671735.6857599	NaN	2671736.6691946	2671737.18573793
22	21	0	0	90	36.1581920903955	36.241610738255	20	0.666713520139456	2	8	2	NaN	2	5	0.0456048706144795	0	1	NaN	105	2	42	2	120	220	320	NaN	520	0.56427456997335	2	1	NaN	2671738.6194075	NaN	2671739.6028076	2671740.11935273
22	21	0	0	90	36.1581920903955	36.241610738255	15	0.500035140104592	2	3	3	NaN	1	4	0.0456048706144795	0	1	NaN	106	2	43	2	120	220	320	NaN	520	0.328654869925231	1	1	NaN	2671741.5030281	NaN	2671742.4864278	2671743.00297383
22	21	0	0	90	36.1581920903955	36.241610738255	23	0.766720548160374	2	4	3	NaN	1	5	0.0456048706144795	0	1	NaN	107	2	44	2	120	220	320	NaN	520	0.419459769967943	1	1	NaN	2671744.2366021	NaN	2671745.2200273	2671745.73658273
22	21	0	0	90	36.1581920903955	36.241610738255	18	0.60004216812551	2	10	3	NaN	2	3	0.0456048706144795	0	1	NaN	108	2	45	2	120	220	320	NaN	520	0.453914070036262	1	0	NaN	2671746.9702459	NaN	2671747.9536318	2671748.47017963
22	21	0	0	90	36.1581920903955	36.241610738255	16	0.533370816111565	2	7	1	NaN	2	5	0.0456048706144795	0	1	NaN	109	2	46	2	120	220	320	NaN	520	0.286912669893354	1	0	NaN	2671749.7371663	NaN	2671750.7205653	2671751.23711223
22	21	0	0	90	36.1581920903955	36.241610738255	25	0.83339190017432	2	6	6	NaN	1	5	0.0456048706144795	0	1	NaN	110	2	47	2	120	220	320	NaN	520	0.430374569725245	2	0	NaN	2671752.3374339	NaN	2671753.3208312	2671753.83737643
22	21	0	0	90	36.1581920903955	36.241610738255	14	0.466699464097619	2	6	4	NaN	1	4	0.0456048706144795	0	1	NaN	111	2	48	2	120	220	320	NaN	520	0.376455570105463	1	1	NaN	2671755.0876998	NaN	2671756.0710889	2671756.58764013
22	21	0	0	90	36.1581920903955	36.241610738255	16	0.533370816111565	2	12	2	NaN	2	5	0.0456048706144795	0	1	NaN	112	2	49	2	120	220	320	NaN	520	1.39568337006494	2	1	NaN	2671757.7879469	NaN	2671758.7713639	2671759.28791173
22	21	0	0	90	36.1581920903955	36.241610738255	20	0.666713520139456	2	12	4	NaN	2	4	0.0456048706144795	0	1	NaN	113	2	50	2	120	220	320	NaN	520	0.551177470013499	1	0	NaN	2671761.505003	NaN	2671762.4883775	2671763.00494413
22	21	0	0	90	36.1581920903955	36.241610738255	17	0.566706492118537	2	12	1	NaN	2	5	0.0456048706144795	0	1	NaN	114	2	51	2	120	220	320	NaN	520	0.363787322305143	1	0	NaN	2671764.371944	NaN	2671765.3553393	2671765.87188088
22	21	0	0	90	36.1581920903955	36.241610738255	21	0.700049196146429	2	12	2	NaN	2	5	0.0456048706144795	0	1	NaN	115	2	52	2	120	220	320	NaN	520	0.361191070172936	2	1	NaN	2671767.0388714	NaN	2671768.0222638	2671768.53881023
22	21	0	0	90	36.1581920903955	36.241610738255	13	0.433363788090646	2	8	6	NaN	2	3	0.0456048706144795	0	1	NaN	116	2	53	2	120	220	320	NaN	520	0.813729622401297	2	1	NaN	2671769.7224605	NaN	2671770.7058617	2671771.22241878
22	21	0	0	90	36.1581920903955	36.241610738255	0	0	1	4	1	NaN	1	5	0.0456048706144795	0	1	NaN	117	2	54	2	110	210	310	NaN	510	0.223744770046324	1	1	NaN	2671772.8560916	NaN	2671773.839502	2671774.35604773
22	21	0	0	90	36.1581920903955	36.241610738255	25	0.83339190017432	2	9	6	NaN	2	3	0.0456048706144795	0	1	NaN	118	2	55	2	120	220	320	NaN	520	0.442228369880468	1	0	NaN	2671775.3896875	NaN	2671776.3730852	2671776.88963223
22	21	0	0	90	36.1581920903955	36.241610738255	15	0.500035140104592	2	10	4	NaN	2	5	0.0456048706144795	0	1	NaN	119	2	56	2	120	220	320	NaN	520	0.0104171698912978	2	1	NaN	2671778.1399907	NaN	2671779.1233578	2671779.63989963
22	21	0	0	90	36.1581920903955	36.241610738255	8	0.266685408055782	2	1	4	NaN	1	3	0.0456048706144795	0	1	NaN	120	2	57	2	120	220	320	NaN	520	0.446921369992197	2	0	NaN	2671780.4568466	NaN	2671781.4402524	2671781.95679893
22	21	0	0	90	36.1581920903955	36.241610738255	9	0.300021084062755	2	3	4	NaN	1	4	0.0456048706144795	0	1	NaN	121	2	58	2	120	220	320	NaN	520	0.0104085695929825	1	1	NaN	2671783.2236564	NaN	2671784.207185	2671784.72374373
22	21	0	0	90	36.1581920903955	36.241610738255	24	0.800056224167347	2	10	5	NaN	2	4	0.0456048706144795	0	1	NaN	122	2	59	2	120	220	320	NaN	520	0.283253517467529	1	0	NaN	2671785.540706	NaN	2671786.5240848	2671787.04062638
22	21	0	0	90	36.1581920903955	36.241610738255	25	0.83339190017432	2	10	5	NaN	2	3	0.0456048706144795	0	1	NaN	123	2	60	2	120	220	320	NaN	520	0.315240370109677	1	0	NaN	2671788.140933	NaN	2671789.1242428	2671789.64088433
22	21	0	0	90	36.1581920903955	36.241610738255	22	0.733384872153401	2	1	6	NaN	1	4	0.0456048706144795	0	1	NaN	124	2	61	2	120	220	320	NaN	520	0.577322070021182	2	0	NaN	2671790.7745277	NaN	2671791.7579295	2671792.27447673
22	21	0	0	90	36.1581920903955	36.241610738255	7	0.23334973204881	2	6	3	NaN	1	3	0.0456048706144795	0	1	NaN	125	2	62	2	120	220	320	NaN	520	0.637047369964421	2	0	NaN	2671793.6748085	NaN	2671794.6581988	2671795.17475693
22	21	0	0	90	36.1581920903955	36.241610738255	15	0.500035140104592	2	4	3	NaN	1	5	0.0456048706144795	0	1	NaN	126	2	63	2	120	220	320	NaN	520	0.638810870237648	1	1	NaN	2671796.6251135	NaN	2671797.6085065	2671798.12505213
22	21	0	0	90	36.1581920903955	36.241610738255	17	0.566706492118537	2	3	5	NaN	1	4	0.0456048706144795	0	1	NaN	127	3	1	2	120	220	320	NaN	520	0.611943569965661	1	1	NaN	2671824.2278348	NaN	2671825.21123	2671825.72775733
22	21	0	0	90	36.1581920903955	36.241610738255	6	0.200014056041837	2	8	5	NaN	2	5	0.0456048706144795	0	1	NaN	128	3	2	2	120	220	320	NaN	520	0.26323932223022	2	1	NaN	2671827.1447297	NaN	2671828.1281562	2671828.64472168
22	21	0	0	90	36.1581920903955	36.241610738255	18	0.60004216812551	2	4	1	NaN	1	5	0.0456048706144795	0	1	NaN	129	3	3	2	120	220	320	NaN	520	0.304549221880734	1	1	NaN	2671829.7117239	NaN	2671830.6950871	2671831.21164038
22	21	0	0	90	36.1581920903955	36.241610738255	13	0.433363788090646	2	3	6	NaN	1	4	0.0456048706144795	0	1	NaN	130	3	4	2	120	220	320	NaN	520	0.351468269713223	1	1	NaN	2671832.3286922	NaN	2671833.3120043	2671833.82855373
22	21	0	0	90	36.1581920903955	36.241610738255	25	0.83339190017432	2	10	5	NaN	2	5	0.0456048706144795	0	1	NaN	131	3	5	2	120	220	320	NaN	520	0.196300569921732	1	0	NaN	2671834.9956855	NaN	2671835.9789493	2671836.49549103
22	21	0	0	90	36.1581920903955	36.241610738255	16	0.533370816111565	2	11	3	NaN	2	5	0.0456048706144795	0	1	NaN	132	3	6	2	120	220	320	NaN	520	0.287468322087079	2	1	NaN	2671837.5124636	NaN	2671838.4958493	2671839.01240468
22	21	0	0	90	36.1581920903955	36.241610738255	21	0.700049196146429	2	11	2	NaN	2	4	0.0456048706144795	0	1	NaN	133	3	7	2	120	220	320	NaN	520	0.367338274605572	1	0	NaN	2671840.1126598	NaN	2671841.0961377	2671841.61265453
22	21	0	0	90	36.1581920903955	36.241610738255	20	0.666713520139456	2	1	1	NaN	1	3	0.0456048706144795	0	1	NaN	134	3	8	2	120	220	320	NaN	520	0.276060022413731	1	1	NaN	2671842.7963422	NaN	2671843.77972	2671844.29624988
22	21	0	0	90	36.1581920903955	36.241610738255	11	0.366692436076701	2	8	4	NaN	2	4	0.0456048706144795	0	1	NaN	135	3	9	2	120	220	320	NaN	520	0.243476069997996	2	1	NaN	2671845.396565	NaN	2671846.3799428	2671846.89651173
22	21	0	0	90	36.1581920903955	36.241610738255	24	0.800056224167347	2	5	2	NaN	1	4	0.0456048706144795	0	1	NaN	136	3	10	2	120	220	320	NaN	520	0.211197922471911	1	1	NaN	2671848.1967631	NaN	2671849.1802547	2671849.69678928
22	21	0	0	90	36.1581920903955	36.241610738255	24	0.800056224167347	2	9	4	NaN	2	3	0.0456048706144795	0	1	NaN	137	3	11	2	120	220	320	NaN	520	0.373914390336722	2	1	NaN	2671850.7304229	NaN	2671851.713827	2671852.23037401
22	21	0	0	90	36.1581920903955	36.241610738255	16	0.533370816111565	2	12	1	NaN	2	4	0.0456048706144795	0	1	NaN	138	3	12	2	120	220	320	NaN	520	1.68989182217047	2	1	NaN	2671853.4139326	NaN	2671854.3974415	2671854.91396388
22	21	0	0	90	36.1581920903955	36.241610738255	24	0.800056224167347	2	5	2	NaN	1	3	0.0456048706144795	0	1	NaN	139	3	13	2	120	220	320	NaN	520	0.521663970313966	1	1	NaN	2671857.4142822	NaN	2671858.39781	2671858.91435143
22	21	0	0	90	36.1581920903955	36.241610738255	25	0.83339190017432	2	6	1	NaN	1	4	0.0456048706144795	0	1	NaN	140	3	14	2	120	220	320	NaN	520	0.679923169780523	1	1	NaN	2671860.2480211	NaN	2671861.2314219	2671861.74796243
22	21	0	0	90	36.1581920903955	36.241610738255	18	0.60004216812551	2	2	2	NaN	1	5	0.0456048706144795	0	1	NaN	141	3	15	2	120	220	320	NaN	520	0.416336569935083	1	1	NaN	2671863.2316535	NaN	2671864.2150524	2671864.73158883
22	21	0	0	90	36.1581920903955	36.241610738255	25	0.83339190017432	2	5	2	NaN	1	4	0.0456048706144795	0	1	NaN	142	3	16	2	120	220	320	NaN	520	0.363140469882637	1	1	NaN	2671865.9484777	NaN	2671866.9320426	2671867.44852323
22	21	0	0	90	36.1581920903955	36.241610738255	22	0.733384872153401	2	6	5	NaN	1	4	0.0456048706144795	0	1	NaN	143	3	17	2	120	220	320	NaN	520	0.408769669942558	1	1	NaN	2671868.6155154	NaN	2671869.5989063	2671870.11546033
22	21	0	0	90	36.1581920903955	36.241610738255	24	0.800056224167347	2	12	1	NaN	2	3	0.0456048706144795	0	1	NaN	144	3	18	2	120	220	320	NaN	520	0.275747917126864	1	0	NaN	2671871.3324362	NaN	2671872.3158394	2671872.83238078
22	21	0	0	90	36.1581920903955	36.241610738255	19	0.633377844132483	2	9	2	NaN	2	5	0.0456048706144795	0	1	NaN	145	3	19	2	120	220	320	NaN	520	0.364124670159072	1	0	NaN	2671873.9160286	NaN	2671874.8994301	2671875.41597333
22	21	0	0	90	36.1581920903955	36.241610738255	6	0.200014056041837	2	7	5	NaN	2	5	0.0456048706144795	0	1	NaN	146	3	20	2	120	220	320	NaN	520	0.400402442552149	2	1	NaN	2671876.5994677	NaN	2671877.5830113	2671878.09958156
22	21	0	0	90	36.1581920903955	36.241610738255	19	0.633377844132483	2	10	3	NaN	2	4	0.0456048706144795	0	1	NaN	147	3	21	2	120	220	320	NaN	520	0.683496654964983	2	1	NaN	2671879.3164035	NaN	2671880.2999589	2671880.81649595
22	21	0	0	90	36.1581920903955	36.241610738255	17	0.566706492118537	2	9	4	NaN	2	5	0.0456048706144795	0	1	NaN	148	3	22	2	120	220	320	NaN	520	0.579413421917707	2	1	NaN	2671882.316844	NaN	2671883.3002432	2671883.81679898
22	21	0	0	90	36.1581920903955	36.241610738255	7	0.23334973204881	2	2	3	NaN	1	5	0.0456048706144795	0	1	NaN	149	3	23	2	120	220	320	NaN	520	0.751468717586249	2	0	NaN	2671885.2004801	NaN	2671886.1838683	2671886.70040818
22	21	0	0	90	36.1581920903955	36.241610738255	20	0.666713520139456	2	6	4	NaN	1	4	0.0456048706144795	0	1	NaN	150	3	24	2	120	220	320	NaN	520	0.356585721950978	1	1	NaN	2671888.2674197	NaN	2671889.2508306	2671889.76737828
22	21	0	0	90	36.1581920903955	36.241610738255	8	0.266685408055782	2	11	3	NaN	2	5	0.0456048706144795	0	1	NaN	151	3	25	2	120	220	320	NaN	520	0.441617594566196	2	1	NaN	2671890.934397	NaN	2671891.9177595	2671892.43432141
22	21	0	0	90	36.1581920903955	36.241610738255	12	0.400028112083674	2	7	1	NaN	2	4	0.0456048706144795	0	1	NaN	152	3	26	2	120	220	320	NaN	520	0.347231570165604	1	0	NaN	2671893.6846315	NaN	2671894.6680306	2671895.18457373
22	21	0	0	90	36.1581920903955	36.241610738255	22	0.733384872153401	2	2	4	NaN	1	3	0.0456048706144795	0	1	NaN	153	3	27	2	120	220	320	NaN	520	0.232564017176628	2	0	NaN	2671896.3515628	NaN	2671897.3349497	2671897.85150758
22	21	0	0	90	36.1581920903955	36.241610738255	17	0.566706492118537	2	6	3	NaN	1	4	0.0456048706144795	0	1	NaN	154	3	28	2	120	220	320	NaN	520	1.42685991758481	1	1	NaN	2671898.8851451	NaN	2671899.8685405	2671900.38508508
22	21	0	0	90	36.1581920903955	36.241610738255	23	0.766720548160374	2	1	6	NaN	1	5	0.0456048706144795	0	1	NaN	155	3	29	2	120	220	320	NaN	520	0.74109386978671	1	1	NaN	2671902.6188563	NaN	2671903.6022432	2671904.11878683
22	21	0	0	90	36.1581920903955	36.241610738255	6	0.200014056041837	2	12	3	NaN	2	4	0.0456048706144795	0	1	NaN	156	3	30	2	120	220	320	NaN	520	0.25082176970318	2	1	NaN	2671905.6690239	NaN	2671906.6525295	2671907.16908913
22	21	0	0	90	36.1581920903955	36.241610738255	21	0.700049196146429	2	7	1	NaN	2	4	0.0456048706144795	0	1	NaN	157	3	31	2	120	220	320	NaN	520	0.988313170149922	2	1	NaN	2671908.2360723	NaN	2671909.2194882	2671909.73600493
22	21	0	0	90	36.1581920903955	36.241610738255	7	0.23334973204881	2	3	5	NaN	1	4	0.0456048706144795	0	1	NaN	158	3	32	2	120	220	320	NaN	520	0.391555869951844	2	0	NaN	2671911.5363862	NaN	2671912.51977	2671913.03632653
22	21	0	0	90	36.1581920903955	36.241610738255	25	0.83339190017432	2	3	2	NaN	1	3	0.0456048706144795	0	1	NaN	159	3	33	2	120	220	320	NaN	520	0.219699007458985	1	1	NaN	2671914.236656	NaN	2671915.2200603	2671915.73659809
22	21	0	0	90	36.1581920903955	36.241610738255	13	0.433363788090646	2	12	5	NaN	2	4	0.0456048706144795	0	1	NaN	160	3	34	2	120	220	320	NaN	520	1.24560832232237	2	1	NaN	2671916.7701371	NaN	2671917.7536539	2671918.27018768
22	21	0	0	90	36.1581920903955	36.241610738255	17	0.566706492118537	2	6	2	NaN	1	4	0.0456048706144795	0	1	NaN	161	3	35	2	120	220	320	NaN	520	0.279567369725555	1	1	NaN	2671920.3205754	NaN	2671921.3040262	2671921.82052583
22	21	0	0	90	36.1581920903955	36.241610738255	21	0.700049196146429	2	8	1	NaN	2	4	0.0456048706144795	0	1	NaN	162	3	36	2	120	220	320	NaN	520	2.61581372190267	1	0	NaN	2671922.9041662	NaN	2671923.8875664	2671924.40412098
22	21	0	0	90	36.1581920903955	36.241610738255	18	0.60004216812551	2	1	4	NaN	1	5	0.0456048706144795	0	1	NaN	163	3	37	2	120	220	320	NaN	520	0.418672770261765	1	1	NaN	2671927.8213678	NaN	2671928.8047835	2671929.32126483
22	21	0	0	90	36.1581920903955	36.241610738255	13	0.433363788090646	2	1	3	NaN	1	5	0.0456048706144795	0	1	NaN	164	3	38	2	120	220	320	NaN	520	0.357165017165244	1	1	NaN	2671930.5549479	NaN	2671931.5383164	2671932.05486658
22	21	0	0	90	36.1581920903955	36.241610738255	7	0.23334973204881	2	9	6	NaN	2	5	0.0456048706144795	0	1	NaN	165	3	39	2	120	220	320	NaN	520	0.186576322186738	2	1	NaN	2671933.2218468	NaN	2671934.205251	2671934.72179838
22	21	0	0	90	36.1581920903955	36.241610738255	10	0.333356760069728	2	3	5	NaN	1	5	0.0456048706144795	0	1	NaN	166	3	40	2	120	220	320	NaN	520	0.318064022343606	1	1	NaN	2671935.7220929	NaN	2671936.7054896	2671937.22204728
22	21	0	0	90	36.1581920903955	36.241610738255	8	0.266685408055782	2	11	5	NaN	2	4	0.0456048706144795	0	1	NaN	167	3	41	2	120	220	320	NaN	520	0.676290742587298	2	1	NaN	2671938.3556903	NaN	2671939.3390872	2671939.85563576
22	21	0	0	90	36.1581920903955	36.241610738255	22	0.733384872153401	2	11	6	NaN	2	4	0.0456048706144795	0	1	NaN	168	3	42	2	120	220	320	NaN	520	0.708815522026271	2	1	NaN	2671941.3392834	NaN	2671942.3227078	2671942.83926508
22	21	0	0	90	36.1581920903955	36.241610738255	21	0.700049196146429	2	5	6	NaN	1	5	0.0456048706144795	0	1	NaN	169	3	43	2	120	220	320	NaN	520	0.227768094744533	1	1	NaN	2671944.3562727	NaN	2671945.3396619	2671945.85623131
22	21	0	0	90	36.1581920903955	36.241610738255	8	0.266685408055782	2	4	5	NaN	1	5	0.0456048706144795	0	1	NaN	170	3	44	2	120	220	320	NaN	520	0.510330722201616	1	1	NaN	2671946.88985	NaN	2671947.8732531	2671948.38980518
22	21	0	0	90	36.1581920903955	36.241610738255	15	0.500035140104592	2	5	1	NaN	1	4	0.0456048706144795	0	1	NaN	171	3	45	2	120	220	320	NaN	520	0.725244511850178	2	0	NaN	2671949.7068079	NaN	2671950.6902021	2671951.20674899
22	21	0	0	90	36.1581920903955	36.241610738255	21	0.700049196146429	2	6	2	NaN	1	4	0.0456048706144795	0	1	NaN	172	3	46	2	120	220	320	NaN	520	0.267671317327768	1	1	NaN	2671952.7403531	NaN	2671953.7238141	2671954.24037098
22	21	0	0	90	36.1581920903955	36.241610738255	23	0.766720548160374	2	9	1	NaN	2	3	0.0456048706144795	0	1	NaN	173	3	47	2	120	220	320	NaN	520	0.220440070144832	2	1	NaN	2671955.3240191	NaN	2671956.3074315	2671956.82397033
22	21	0	0	90	36.1581920903955	36.241610738255	18	0.60004216812551	2	6	5	NaN	1	5	0.0456048706144795	0	1	NaN	174	3	48	2	120	220	320	NaN	520	0.468795917462558	1	1	NaN	2671957.9075846	NaN	2671958.8910004	2671959.40754898
22	21	0	0	90	36.1581920903955	36.241610738255	18	0.60004216812551	2	5	6	NaN	1	3	0.0456048706144795	0	1	NaN	175	3	49	2	120	220	320	NaN	520	0.268981169909239	1	1	NaN	2671960.6912043	NaN	2671961.6746072	2671962.19116313
22	21	0	0	90	36.1581920903955	36.241610738255	15	0.500035140104592	2	12	5	NaN	2	5	0.0456048706144795	0	1	NaN	176	3	50	2	120	220	320	NaN	520	0.525239217095077	1	0	NaN	2671963.2747945	NaN	2671964.2581965	2671964.77474178
22	21	0	0	90	36.1581920903955	36.241610738255	24	0.800056224167347	2	1	2	NaN	1	4	0.0456048706144795	0	1	NaN	177	3	51	2	120	220	320	NaN	520	0.627532070036978	2	0	NaN	2671966.108272	NaN	2671967.0918142	2671967.60835783
22	21	0	0	90	36.1581920903955	36.241610738255	12	0.400028112083674	2	6	5	NaN	1	5	0.0456048706144795	0	1	NaN	178	3	52	2	120	220	320	NaN	520	1.81329442188144	2	0	NaN	2671969.058692	NaN	2671970.0420944	2671970.55864788
22	21	0	0	90	36.1581920903955	36.241610738255	20	0.666713520139456	2	8	3	NaN	2	5	0.0456048706144795	0	1	NaN	179	3	53	2	120	220	320	NaN	520	1.26374191744253	1	0	NaN	2671973.1924246	NaN	2671974.1758332	2671974.69237908
22	21	0	0	90	36.1581920903955	36.241610738255	6	0.200014056041837	2	1	2	NaN	1	4	0.0456048706144795	0	1	NaN	180	3	54	2	120	220	320	NaN	520	0.615913270041347	1	1	NaN	2671976.7760028	NaN	2671977.7595146	2671978.27607313
22	21	0	0	90	36.1581920903955	36.241610738255	21	0.700049196146429	2	1	5	NaN	1	5	0.0456048706144795	0	1	NaN	181	3	55	2	120	220	320	NaN	520	0.900283169932663	1	1	NaN	2671980.0596759	NaN	2671981.0431811	2671981.55972983
22	21	0	0	90	36.1581920903955	36.241610738255	16	0.533370816111565	2	4	4	NaN	1	5	0.0456048706144795	0	1	NaN	182	3	56	2	120	220	320	NaN	520	0.755351517349482	2	0	NaN	2671983.2767559	NaN	2671984.2601714	2671984.77670728
22	21	0	0	90	36.1581920903955	36.241610738255	18	0.60004216812551	2	9	3	NaN	2	5	0.0456048706144795	0	1	NaN	183	3	57	2	120	220	320	NaN	520	0.424447469878942	2	1	NaN	2671986.3436838	NaN	2671987.3271798	2671987.84368163
22	21	0	0	90	36.1581920903955	36.241610738255	13	0.433363788090646	2	10	6	NaN	2	5	0.0456048706144795	0	1	NaN	184	3	58	2	120	220	320	NaN	520	0.290840770117939	2	1	NaN	2671989.0773364	NaN	2671990.060721	2671990.57728373
22	21	0	0	90	36.1581920903955	36.241610738255	20	0.666713520139456	2	11	4	NaN	2	5	0.0456048706144795	0	1	NaN	185	3	59	2	120	220	320	NaN	520	1.05095686996356	2	1	NaN	2671991.6775763	NaN	2671992.6609852	2671993.17752693
22	21	0	0	90	36.1581920903955	36.241610738255	25	0.83339190017432	2	4	3	NaN	1	4	0.0456048706144795	0	1	NaN	186	3	60	2	120	220	320	NaN	520	0.56364112207666	2	0	NaN	2671995.0445825	NaN	2671996.027976	2671996.54453638
22	21	0	0	90	36.1581920903955	36.241610738255	13	0.433363788090646	2	3	5	NaN	1	5	0.0456048706144795	0	1	NaN	187	3	61	2	120	220	320	NaN	520	0.944045922253281	1	1	NaN	2671997.9280611	NaN	2671998.9116349	2671999.42814838
22	21	0	0	90	36.1581920903955	36.241610738255	21	0.700049196146429	2	10	2	NaN	2	3	0.0456048706144795	0	1	NaN	188	3	62	2	120	220	320	NaN	520	0.405698722228408	2	1	NaN	2672001.1785213	NaN	2672002.161916	2672002.67846758
22	21	0	0	90	36.1581920903955	36.241610738255	22	0.733384872153401	2	11	5	NaN	2	5	0.0456048706144795	0	1	NaN	189	3	63	2	120	220	320	NaN	520	0.62484427029267	2	1	NaN	2672003.8954558	NaN	2672004.8788529	2672005.39540223
22	21	0	0	90	36.1581920903955	36.241610738255	13	0.433363788090646	2	11	1	NaN	2	3	0.0456048706144795	0	1	NaN	190	4	1	2	120	220	320	NaN	520	1.69018709007651	2	1	NaN	2672022.8139096	NaN	2672023.7973847	2672024.31392481
22	21	0	0	90	36.1581920903955	36.241610738255	6	0.200014056041837	2	12	4	NaN	2	3	0.0456048706144795	0	1	NaN	191	4	2	2	120	220	320	NaN	520	1.10614422243088	1	0	NaN	2672026.8142515	NaN	2672027.7977622	2672028.31432248
22	21	0	0	90	36.1581920903955	36.241610738255	20	0.666713520139456	2	7	3	NaN	2	4	0.0456048706144795	0	1	NaN	192	4	3	2	120	220	320	NaN	520	1.07272781711072	1	0	NaN	2672030.2312463	NaN	2672031.2148101	2672031.73132338
22	21	0	0	90	36.1581920903955	36.241610738255	14	0.466699464097619	2	1	1	NaN	1	3	0.0456048706144795	0	1	NaN	193	4	4	2	120	220	320	NaN	520	0.337424670346081	2	0	NaN	2672033.6150549	NaN	2672034.5984818	2672035.11498753
22	21	0	0	90	36.1581920903955	36.241610738255	20	0.666713520139456	2	1	2	NaN	1	5	0.0456048706144795	0	1	NaN	194	4	5	2	120	220	320	NaN	520	0.32694841735065	2	0	NaN	2672036.2652863	NaN	2672037.2486957	2672037.76523718
22	21	0	0	90	36.1581920903955	36.241610738255	19	0.633377844132483	2	3	3	NaN	1	3	0.0456048706144795	0	1	NaN	195	4	6	2	120	220	320	NaN	520	0.236972012091428	1	1	NaN	2672038.9155565	NaN	2672039.8988497	2672040.41549759
22	21	0	0	90	36.1581920903955	36.241610738255	17	0.566706492118537	2	3	4	NaN	1	4	0.0456048706144795	0	1	NaN	196	4	7	2	120	220	320	NaN	520	0.0104111698456109	2	0	NaN	2672041.4658069	NaN	2672042.4492019	2672042.96575633
22	21	0	0	90	36.1581920903955	36.241610738255	6	0.200014056041837	2	9	1	NaN	2	4	0.0456048706144795	0	1	NaN	197	4	8	2	120	220	320	NaN	520	0.524137674830854	1	0	NaN	2672044.1160541	NaN	2672045.0994659	2672045.61600993
22	21	0	0	90	36.1581920903955	36.241610738255	13	0.433363788090646	2	8	1	NaN	2	5	0.0456048706144795	0	1	NaN	198	4	9	2	120	220	320	NaN	520	0.362642322201282	2	1	NaN	2672046.9495779	NaN	2672047.9330743	2672048.44962378
22	21	0	0	90	36.1581920903955	36.241610738255	17	0.566706492118537	2	10	1	NaN	2	4	0.0456048706144795	0	1	NaN	199	4	10	2	120	220	320	NaN	520	0.126951416954398	1	0	NaN	2672049.6332724	NaN	2672050.6166741	2672051.13321828
22	21	0	0	90	36.1581920903955	36.241610738255	0	0	1	6	6	NaN	1	3	0.0456048706144795	0	1	NaN	200	4	11	2	110	210	310	NaN	510	0.01042247004807	1	1	NaN	2672052.5168796	NaN	2672053.5003271	2672054.01684033
22	21	0	0	90	36.1581920903955	36.241610738255	25	0.83339190017432	2	11	4	NaN	2	3	0.0456048706144795	0	1	NaN	201	4	12	2	120	220	320	NaN	520	2.45377101702616	1	0	NaN	2672054.8504535	NaN	2672055.8338502	2672056.35040008
22	21	0	0	90	36.1581920903955	36.241610738255	24	0.800056224167347	2	1	3	NaN	1	4	0.0456048706144795	0	1	NaN	202	4	13	2	120	220	320	NaN	520	0.25471407501027	2	0	NaN	2672059.6175842	NaN	2672060.6009782	2672061.11754273
22	21	0	0	90	36.1581920903955	36.241610738255	21	0.700049196146429	2	2	5	NaN	1	5	0.0456048706144795	0	1	NaN	203	4	14	2	120	220	320	NaN	520	0.251124737318605	2	0	NaN	2672062.3011635	NaN	2672063.284607	2672063.80113446
22	21	0	0	90	36.1581920903955	36.241610738255	11	0.366692436076701	2	9	2	NaN	2	4	0.0456048706144795	0	1	NaN	204	4	15	2	120	220	320	NaN	520	0.396116769872606	2	1	NaN	2672064.8681174	NaN	2672065.8515073	2672066.36805403
22	21	0	0	90	36.1581920903955	36.241610738255	10	0.333356760069728	2	4	1	NaN	1	4	0.0456048706144795	0	1	NaN	205	4	16	2	120	220	320	NaN	520	0.423139770049602	1	1	NaN	2672067.5850623	NaN	2672068.5684324	2672069.08497883
22	21	0	0	90	36.1581920903955	36.241610738255	8	0.266685408055782	2	7	4	NaN	2	4	0.0456048706144795	0	1	NaN	206	4	17	2	120	220	320	NaN	520	0.625904122367501	1	0	NaN	2672070.31853	NaN	2672071.302043	2672071.81858538
22	21	0	0	90	36.1581920903955	36.241610738255	11	0.366692436076701	2	6	4	NaN	1	3	0.0456048706144795	0	1	NaN	207	4	18	2	120	220	320	NaN	520	0.316053669899702	1	1	NaN	2672073.2522593	NaN	2672074.235645	2672074.75220613
22	21	0	0	90	36.1581920903955	36.241610738255	20	0.666713520139456	2	4	5	NaN	1	4	0.0456048706144795	0	1	NaN	208	4	19	2	120	220	320	NaN	520	0.0584662901237607	1	1	NaN	2672075.8858605	NaN	2672076.8692332	2672077.38580991
22	21	0	0	90	36.1581920903955	36.241610738255	0	0	1	8	5	NaN	2	3	0.0456048706144795	0	1	NaN	209	4	20	2	110	210	310	NaN	510	0.539156622253358	1	0	NaN	2672078.2527626	NaN	2672079.2361359	2672079.75270608
22	21	0	0	90	36.1581920903955	36.241610738255	18	0.60004216812551	2	9	3	NaN	2	4	0.0456048706144795	0	1	NaN	210	4	21	2	120	220	320	NaN	520	1.3610882172361	1	0	NaN	2672081.1030349	NaN	2672082.0864299	2672082.60297608
22	21	0	0	90	36.1581920903955	36.241610738255	14	0.466699464097619	2	2	5	NaN	1	4	0.0456048706144795	0	1	NaN	211	4	22	2	120	220	320	NaN	520	0.885875564534217	1	1	NaN	2672084.7867353	NaN	2672085.7701209	2672086.28667524
22	21	0	0	90	36.1581920903955	36.241610738255	22	0.733384872153401	2	10	4	NaN	2	4	0.0456048706144795	0	1	NaN	212	4	23	2	120	220	320	NaN	520	0.397704869974405	2	1	NaN	2672087.9870298	NaN	2672088.9704562	2672089.48698293
22	21	0	0	90	36.1581920903955	36.241610738255	9	0.300021084062755	2	6	3	NaN	1	3	0.0456048706144795	0	1	NaN	213	4	24	2	120	220	320	NaN	520	0.456430269870907	1	1	NaN	2672090.7039728	NaN	2672091.6873519	2672092.20391533
22	21	0	0	90	36.1581920903955	36.241610738255	22	0.733384872153401	2	9	4	NaN	2	4	0.0456048706144795	0	1	NaN	214	4	25	2	120	220	320	NaN	520	0.353275469969958	1	0	NaN	2672093.4709159	NaN	2672094.4543157	2672094.97086413
22	21	0	0	90	36.1581920903955	36.241610738255	13	0.433363788090646	2	2	1	NaN	1	5	0.0456048706144795	0	1	NaN	215	4	26	2	120	220	320	NaN	520	0.582315369974822	2	0	NaN	2672096.1378404	NaN	2672097.1212375	2672097.63779163
22	21	0	0	90	36.1581920903955	36.241610738255	12	0.400028112083674	2	12	6	NaN	2	3	0.0456048706144795	0	1	NaN	216	4	27	2	120	220	320	NaN	520	0.417970469687134	2	1	NaN	2672099.0381268	NaN	2672100.0215221	2672100.53807533
22	21	0	0	90	36.1581920903955	36.241610738255	13	0.433363788090646	2	6	5	NaN	1	5	0.0456048706144795	0	1	NaN	217	4	28	2	120	220	320	NaN	520	0.30952386977151	1	1	NaN	2672101.9551028	NaN	2672102.9384666	2672103.45502603
22	21	0	0	90	36.1581920903955	36.241610738255	14	0.466699464097619	2	10	3	NaN	2	5	0.0456048706144795	0	1	NaN	218	4	29	2	120	220	320	NaN	520	0.292424742598087	2	1	NaN	2672104.5720073	NaN	2672105.555403	2672106.07195936
22	21	0	0	90	36.1581920903955	36.241610738255	18	0.60004216812551	2	7	3	NaN	2	5	0.0456048706144795	0	1	NaN	219	4	30	2	120	220	320	NaN	520	1.10808231728151	1	0	NaN	2672107.1723445	NaN	2672108.1556706	2672108.67220398
22	21	0	0	90	36.1581920903955	36.241610738255	8	0.266685408055782	2	3	6	NaN	1	5	0.0456048706144795	0	1	NaN	220	4	31	2	120	220	320	NaN	520	0.522210869938135	1	1	NaN	2672110.6059318	NaN	2672111.5893284	2672112.10587803
22	21	0	0	90	36.1581920903955	36.241610738255	21	0.700049196146429	2	10	1	NaN	2	5	0.0456048706144795	0	1	NaN	221	4	32	2	120	220	320	NaN	520	0.377148817293346	2	1	NaN	2672113.4395408	NaN	2672114.4229296	2672114.93947998
22	21	0	0	90	36.1581920903955	36.241610738255	24	0.800056224167347	2	7	4	NaN	2	5	0.0456048706144795	0	1	NaN	222	4	33	2	120	220	320	NaN	520	0.445491869933903	2	1	NaN	2672116.1231359	NaN	2672117.1065493	2672117.62308553
22	21	0	0	90	36.1581920903955	36.241610738255	8	0.266685408055782	2	1	5	NaN	1	4	0.0456048706144795	0	1	NaN	223	4	34	2	120	220	320	NaN	520	0.623037070035934	2	0	NaN	2672118.8739143	NaN	2672119.8567906	2672120.37334783
22	21	0	0	90	36.1581920903955	36.241610738255	7	0.23334973204881	2	12	3	NaN	2	4	0.0456048706144795	0	1	NaN	224	4	35	2	120	220	320	NaN	520	1.21741512231529	2	1	NaN	2672121.807016	NaN	2672122.7904259	2672123.30697538
22	21	0	0	90	36.1581920903955	36.241610738255	12	0.400028112083674	2	5	6	NaN	1	4	0.0456048706144795	0	1	NaN	225	4	36	2	120	220	320	NaN	520	0.739993469789624	1	1	NaN	2672125.3407028	NaN	2672126.3241013	2672126.84065093
22	21	0	0	90	36.1581920903955	36.241610738255	0	0	1	8	5	NaN	2	5	0.0456048706144795	0	1	NaN	226	4	37	2	110	210	310	NaN	510	1.84123086975887	1	0	NaN	2672128.3910136	NaN	2672129.3744168	2672129.89095473
22	21	0	0	90	36.1581920903955	36.241610738255	10	0.333356760069728	2	6	3	NaN	1	4	0.0456048706144795	0	1	NaN	227	4	38	2	120	220	320	NaN	520	1.4832130218856	1	1	NaN	2672132.5413561	NaN	2672133.5248004	2672134.04136778
22	21	0	0	90	36.1581920903955	36.241610738255	10	0.333356760069728	2	1	5	NaN	1	4	0.0456048706144795	0	1	NaN	228	4	39	2	120	220	320	NaN	520	1.51490372186527	1	1	NaN	2672136.3417935	NaN	2672137.32519	2672137.84174218
22	21	0	0	90	36.1581920903955	36.241610738255	9	0.300021084062755	2	11	3	NaN	2	3	0.0456048706144795	0	1	NaN	229	4	40	2	120	220	320	NaN	520	1.17694312194362	2	1	NaN	2672140.1754243	NaN	2672141.1588833	2672141.67544898
22	21	0	0	90	36.1581920903955	36.241610738255	19	0.633377844132483	2	5	1	NaN	1	5	0.0456048706144795	0	1	NaN	230	4	41	2	120	220	320	NaN	520	0.356973569840193	2	0	NaN	2672143.659172	NaN	2672144.6425848	2672145.15912583
22	21	0	0	90	36.1581920903955	36.241610738255	19	0.633377844132483	2	8	3	NaN	2	5	0.0456048706144795	0	1	NaN	231	4	42	2	120	220	320	NaN	520	0.506240369752049	1	0	NaN	2672146.3260919	NaN	2672147.3094908	2672147.82604973
22	21	0	0	90	36.1581920903955	36.241610738255	20	0.666713520139456	2	10	4	NaN	2	5	0.0456048706144795	0	1	NaN	232	4	43	2	120	220	320	NaN	520	0.393227617722005	2	1	NaN	2672149.1430572	NaN	2672150.1265063	2672150.64298568
22	21	0	0	90	36.1581920903955	36.241610738255	21	0.700049196146429	2	4	3	NaN	1	3	0.0456048706144795	0	1	NaN	233	4	44	2	120	220	320	NaN	520	1.0289625171572	2	0	NaN	2672151.8432993	NaN	2672152.8267086	2672153.34325278
22	21	0	0	90	36.1581920903955	36.241610738255	7	0.23334973204881	2	7	3	NaN	2	4	0.0456048706144795	0	1	NaN	234	4	45	2	120	220	320	NaN	520	0.342762569896877	1	0	NaN	2672155.1936341	NaN	2672156.1770409	2672156.69358713
22	21	0	0	90	36.1581920903955	36.241610738255	16	0.533370816111565	2	3	6	NaN	1	3	0.0456048706144795	0	1	NaN	235	4	46	2	120	220	320	NaN	520	0.452417669817805	1	1	NaN	2672157.8439051	NaN	2672158.8272954	2672159.34384373
22	21	0	0	90	36.1581920903955	36.241610738255	14	0.466699464097619	2	8	4	NaN	2	5	0.0456048706144795	0	1	NaN	236	4	47	2	120	220	320	NaN	520	1.18944976991042	2	1	NaN	2672160.6108407	NaN	2672161.5942377	2672162.11078513
22	21	0	0	90	36.1581920903955	36.241610738255	8	0.266685408055782	2	5	1	NaN	1	4	0.0456048706144795	0	1	NaN	237	4	48	2	120	220	320	NaN	520	0.433314527384937	1	1	NaN	2672164.1112047	NaN	2672165.0945818	2672165.61112827
22	21	0	0	90	36.1581920903955	36.241610738255	7	0.23334973204881	2	7	2	NaN	2	3	0.0456048706144795	0	1	NaN	238	4	49	2	120	220	320	NaN	520	1.04320607008412	2	1	NaN	2672166.8614382	NaN	2672167.8448304	2672168.36139633
22	21	0	0	90	36.1581920903955	36.241610738255	15	0.500035140104592	2	10	4	NaN	2	3	0.0456048706144795	0	1	NaN	239	4	50	2	120	220	320	NaN	520	0.388845917303115	2	1	NaN	2672170.2117823	NaN	2672171.1951701	2672171.71172228
22	21	0	0	90	36.1581920903955	36.241610738255	23	0.766720548160374	2	4	6	NaN	1	3	0.0456048706144795	0	1	NaN	240	4	51	2	120	220	320	NaN	520	0.172428069636226	1	1	NaN	2672173.0120651	NaN	2672173.9954492	2672174.51199673
22	21	0	0	90	36.1581920903955	36.241610738255	24	0.800056224167347	2	12	2	NaN	2	5	0.0456048706144795	0	1	NaN	241	4	52	2	120	220	320	NaN	520	0.920739621855319	1	0	NaN	2672175.4956206	NaN	2672176.4790298	2672176.99557928
22	21	0	0	90	36.1581920903955	36.241610738255	21	0.700049196146429	2	12	6	NaN	2	5	0.0456048706144795	0	1	NaN	242	4	53	2	120	220	320	NaN	520	1.39901091717184	2	1	NaN	2672178.7292941	NaN	2672179.712668	2672180.22922338
22	21	0	0	90	36.1581920903955	36.241610738255	20	0.666713520139456	2	5	2	NaN	1	5	0.0456048706144795	0	1	NaN	243	4	54	2	120	220	320	NaN	520	1.5381549699232	2	0	NaN	2672182.4463099	NaN	2672183.4297395	2672183.94626283
22	21	0	0	90	36.1581920903955	36.241610738255	11	0.366692436076701	2	12	1	NaN	2	4	0.0456048706144795	0	1	NaN	244	4	55	2	120	220	320	NaN	520	2.10385521734133	2	1	NaN	2672186.2966983	NaN	2672187.2800946	2672187.79663578
22	21	0	0	90	36.1581920903955	36.241610738255	16	0.533370816111565	2	1	1	NaN	1	5	0.0456048706144795	0	1	NaN	245	4	56	2	120	220	320	NaN	520	0.182555670384318	1	1	NaN	2672190.7138089	NaN	2672191.6971586	2672192.21373843
22	21	0	0	90	36.1581920903955	36.241610738255	0	0	1	5	4	NaN	1	4	0.0456048706144795	0	1	NaN	246	4	57	2	110	210	310	NaN	510	0.741812570020556	1	1	NaN	2672193.3306273	NaN	2672194.3141114	2672194.83066273
22	21	0	0	90	36.1581920903955	36.241610738255	24	0.800056224167347	2	11	3	NaN	2	5	0.0456048706144795	0	1	NaN	247	4	58	2	120	220	320	NaN	520	0.699883470311761	1	0	NaN	2672196.3810171	NaN	2672197.3644017	2672197.88095553
22	21	0	0	90	36.1581920903955	36.241610738255	11	0.366692436076701	2	11	2	NaN	2	5	0.0456048706144795	0	1	NaN	248	4	59	2	120	220	320	NaN	520	0.258642469998449	2	1	NaN	2672199.3979651	NaN	2672200.3813717	2672200.89792143
22	21	0	0	90	36.1581920903955	36.241610738255	17	0.566706492118537	2	7	5	NaN	2	5	0.0456048706144795	0	1	NaN	249	4	60	2	120	220	320	NaN	520	0.147901370190084	2	1	NaN	2672201.9648919	NaN	2672202.9482904	2672203.46483963
22	21	0	0	90	36.1581920903955	36.241610738255	11	0.366692436076701	2	7	5	NaN	2	3	0.0456048706144795	0	1	NaN	250	4	61	2	120	220	320	NaN	520	0.257557570002973	2	1	NaN	2672204.4151159	NaN	2672205.3985366	2672205.91507983
22	21	0	0	90	36.1581920903955	36.241610738255	15	0.500035140104592	2	9	1	NaN	2	3	0.0456048706144795	0	1	NaN	251	4	62	2	120	220	320	NaN	520	0.0104013700038195	2	1	NaN	2672206.9987299	NaN	2672207.98212	2672208.49866923
22	21	0	0	90	36.1581920903955	36.241610738255	19	0.633377844132483	2	9	5	NaN	2	3	0.0456048706144795	0	1	NaN	252	4	63	2	120	220	320	NaN	520	0.244843969587237	1	0	NaN	2672209.3156188	NaN	2672210.299036	2672210.81557073
22	21	0	0	90	36.1581920903955	36.241610738255	24	0.800056224167347	2	3	4	NaN	1	3	0.0456048706144795	0	1	NaN	253	5	1	2	120	220	320	NaN	520	2.06798077002168	1	1	NaN	2672225.9005457	NaN	2672226.8839831	2672227.40051743
22	21	0	0	90	36.1581920903955	36.241610738255	19	0.633377844132483	2	10	3	NaN	2	5	0.0456048706144795	0	1	NaN	254	5	2	2	120	220	320	NaN	520	0.268318717367947	2	1	NaN	2672230.2843471	NaN	2672231.2677531	2672231.78429118
22	21	0	0	90	36.1581920903955	36.241610738255	7	0.23334973204881	2	10	5	NaN	2	4	0.0456048706144795	0	1	NaN	255	5	3	2	120	220	320	NaN	520	0.244601970072836	2	1	NaN	2672232.8679535	NaN	2672233.8513299	2672234.36787923
22	21	0	0	90	36.1581920903955	36.241610738255	21	0.700049196146429	2	8	1	NaN	2	3	0.0456048706144795	0	1	NaN	256	5	4	2	120	220	320	NaN	520	0.630701317451894	2	1	NaN	2672235.4181696	NaN	2672236.4015766	2672236.91812298
22	21	0	0	90	36.1581920903955	36.241610738255	7	0.23334973204881	2	10	2	NaN	2	3	0.0456048706144795	0	1	NaN	257	5	5	2	120	220	320	NaN	520	0.240632969886065	2	1	NaN	2672238.3518048	NaN	2672239.33521	2672239.85174873
22	21	0	0	90	36.1581920903955	36.241610738255	25	0.83339190017432	2	4	4	NaN	1	4	0.0456048706144795	0	1	NaN	258	5	6	2	120	220	320	NaN	520	0.218734370078892	1	1	NaN	2672240.9020545	NaN	2672241.8854473	2672242.40199473
22	21	0	0	90	36.1581920903955	36.241610738255	7	0.23334973204881	2	8	6	NaN	2	4	0.0456048706144795	0	1	NaN	259	5	7	2	120	220	320	NaN	520	0.341216669883579	2	1	NaN	2672243.4356232	NaN	2672244.4190343	2672244.93557693
22	21	0	0	90	36.1581920903955	36.241610738255	17	0.566706492118537	2	1	4	NaN	1	3	0.0456048706144795	0	1	NaN	260	5	8	2	120	220	320	NaN	520	0.482871832791716	1	1	NaN	2672246.0858886	NaN	2672247.0692737	2672247.58584397
22	21	0	0	90	36.1581920903955	36.241610738255	15	0.500035140104592	2	4	6	NaN	1	5	0.0456048706144795	0	1	NaN	261	5	9	2	120	220	320	NaN	520	0.378306769765913	1	1	NaN	2672248.8861779	NaN	2672249.8696203	2672250.38611553
22	21	0	0	90	36.1581920903955	36.241610738255	22	0.733384872153401	2	9	4	NaN	2	4	0.0456048706144795	0	1	NaN	262	5	10	2	120	220	320	NaN	520	1.14211081760004	1	0	NaN	2672251.586424	NaN	2672252.569833	2672253.08638118
22	21	0	0	90	36.1581920903955	36.241610738255	6	0.200014056041837	2	4	4	NaN	1	4	0.0456048706144795	0	1	NaN	263	5	11	2	120	220	320	NaN	520	0.348010742571205	1	1	NaN	2672255.0366994	NaN	2672256.0201748	2672256.53671866
22	21	0	0	90	36.1581920903955	36.241610738255	14	0.466699464097619	2	5	6	NaN	1	4	0.0456048706144795	0	1	NaN	264	5	12	2	120	220	320	NaN	520	0.409193594940007	1	1	NaN	2672257.703704	NaN	2672258.6870804	2672259.20365111
22	21	0	0	90	36.1581920903955	36.241610738255	18	0.60004216812551	2	11	1	NaN	2	3	0.0456048706144795	0	1	NaN	265	5	13	2	120	220	320	NaN	520	0.438221337273717	2	1	NaN	2672260.570663	NaN	2672261.554048	2672262.07059486
22	21	0	0	90	36.1581920903955	36.241610738255	14	0.466699464097619	2	7	2	NaN	2	5	0.0456048706144795	0	1	NaN	266	5	14	2	120	220	320	NaN	520	0.295462769921869	1	0	NaN	2672263.320793	NaN	2672264.3042969	2672264.82087003
22	21	0	0	90	36.1581920903955	36.241610738255	24	0.800056224167347	2	2	4	NaN	1	3	0.0456048706144795	0	1	NaN	267	5	15	2	120	220	320	NaN	520	0.631380970124155	2	0	NaN	2672265.921031	NaN	2672266.9045679	2672267.42111843
22	21	0	0	90	36.1581920903955	36.241610738255	12	0.400028112083674	2	7	6	NaN	2	4	0.0456048706144795	0	1	NaN	268	5	16	2	120	220	320	NaN	520	1.08226966997609	1	0	NaN	2672268.854794	NaN	2672269.8381837	2672270.35474403
22	21	0	0	90	36.1581920903955	36.241610738255	15	0.500035140104592	2	1	6	NaN	1	5	0.0456048706144795	0	1	NaN	269	5	17	2	120	220	320	NaN	520	0.817728217225522	1	1	NaN	2672272.2551296	NaN	2672273.2385244	2672273.75506678
22	21	0	0	90	36.1581920903955	36.241610738255	6	0.200014056041837	2	10	5	NaN	2	3	0.0456048706144795	0	1	NaN	270	5	18	2	120	220	320	NaN	520	0.460103622172028	1	0	NaN	2672275.3886643	NaN	2672276.3722029	2672276.88872188
22	21	0	0	90	36.1581920903955	36.241610738255	7	0.23334973204881	2	11	2	NaN	2	4	0.0456048706144795	0	1	NaN	271	5	19	2	120	220	320	NaN	520	0.596680654678494	2	1	NaN	2672278.1557161	NaN	2672279.1391067	2672279.65564765
22	21	0	0	90	36.1581920903955	36.241610738255	16	0.533370816111565	2	10	2	NaN	2	4	0.0456048706144795	0	1	NaN	272	5	20	2	120	220	320	NaN	520	0.400862322188914	1	0	NaN	2672281.0559102	NaN	2672282.0393717	2672282.55594358
22	21	0	0	90	36.1581920903955	36.241610738255	12	0.400028112083674	2	1	6	NaN	1	3	0.0456048706144795	0	1	NaN	273	5	21	2	120	220	320	NaN	520	0.547588421963155	1	1	NaN	2672283.7729179	NaN	2672284.756326	2672285.27287858
22	21	0	0	90	36.1581920903955	36.241610738255	23	0.766720548160374	2	5	5	NaN	1	3	0.0456048706144795	0	1	NaN	274	5	22	2	120	220	320	NaN	520	0.0104066701605916	1	1	NaN	2672286.6230814	NaN	2672287.606503	2672288.12315623
22	21	0	0	90	36.1581920903955	36.241610738255	18	0.60004216812551	2	3	6	NaN	1	5	0.0456048706144795	0	1	NaN	275	5	23	2	120	220	320	NaN	520	0.0104059698060155	1	1	NaN	2672288.9399461	NaN	2672289.9234845	2672290.44004753
22	21	0	0	90	36.1581920903955	36.241610738255	13	0.433363788090646	2	10	2	NaN	2	4	0.0456048706144795	0	1	NaN	276	5	24	2	120	220	320	NaN	520	0.519556122366339	1	0	NaN	2672291.2569893	NaN	2672292.2404027	2672292.75694668
22	21	0	0	90	36.1581920903955	36.241610738255	11	0.366692436076701	2	12	5	NaN	2	5	0.0456048706144795	0	1	NaN	277	5	25	2	120	220	320	NaN	520	1.94232166977599	2	1	NaN	2672294.0906089	NaN	2672295.0740057	2672295.59055283
22	21	0	0	90	36.1581920903955	36.241610738255	23	0.766720548160374	2	3	1	NaN	1	4	0.0456048706144795	0	1	NaN	278	5	26	2	120	220	320	NaN	520	1.1076777218841	1	1	NaN	2672298.3410157	NaN	2672299.3244083	2672299.84097198
22	21	0	0	90	36.1581920903955	36.241610738255	23	0.766720548160374	2	12	1	NaN	2	5	0.0456048706144795	0	1	NaN	279	5	27	2	120	220	320	NaN	520	3.47446647007018	1	0	NaN	2672301.7580193	NaN	2672302.7414247	2672303.25796483
22	21	0	0	90	36.1581920903955	36.241610738255	6	0.200014056041837	2	5	2	NaN	1	4	0.0456048706144795	0	1	NaN	280	5	28	2	120	220	320	NaN	520	0.413448022212833	1	1	NaN	2672308.0752903	NaN	2672309.0586875	2672309.57526508
22	21	0	0	90	36.1581920903955	36.241610738255	11	0.366692436076701	2	1	5	NaN	1	4	0.0456048706144795	0	1	NaN	281	5	29	2	120	220	320	NaN	520	1.58471612213179	2	0	NaN	2672310.7922457	NaN	2672311.7756044	2672312.29218948
22	21	0	0	90	36.1581920903955	36.241610738255	22	0.733384872153401	2	4	4	NaN	1	5	0.0456048706144795	0	1	NaN	282	5	30	2	120	220	320	NaN	520	1.55824392195791	1	1	NaN	2672314.8426477	NaN	2672315.8260252	2672316.34259578
22	21	0	0	90	36.1581920903955	36.241610738255	10	0.333356760069728	2	5	5	NaN	1	4	0.0456048706144795	0	1	NaN	283	5	31	2	120	220	320	NaN	520	0.339029670227319	1	1	NaN	2672318.7095793	NaN	2672319.6930875	2672320.20963143
22	21	0	0	90	36.1581920903955	36.241610738255	6	0.200014056041837	2	7	6	NaN	2	4	0.0456048706144795	0	1	NaN	284	5	32	2	120	220	320	NaN	520	0.376717574894428	1	0	NaN	2672321.3599617	NaN	2672322.343229	2672322.85989963
22	21	0	0	90	36.1581920903955	36.241610738255	23	0.766720548160374	2	7	5	NaN	2	3	0.0456048706144795	0	1	NaN	285	5	33	2	120	220	320	NaN	520	0.461407517548651	2	1	NaN	2672324.0435462	NaN	2672325.0269298	2672325.54348698
22	21	0	0	90	36.1581920903955	36.241610738255	19	0.633377844132483	2	7	4	NaN	2	4	0.0456048706144795	0	1	NaN	286	5	34	2	120	220	320	NaN	520	1.72539477003738	2	1	NaN	2672326.8271475	NaN	2672327.8105337	2672328.32709083
22	21	0	0	90	36.1581920903955	36.241610738255	8	0.266685408055782	2	6	2	NaN	1	5	0.0456048706144795	0	1	NaN	287	5	35	2	120	220	320	NaN	520	0.275675170123577	1	1	NaN	2672330.8608817	NaN	2672331.8442838	2672332.36082013
22	21	0	0	90	36.1581920903955	36.241610738255	17	0.566706492118537	2	8	6	NaN	2	3	0.0456048706144795	0	1	NaN	288	5	36	2	120	220	320	NaN	520	0.324459021911025	1	0	NaN	2672333.44445	NaN	2672334.4279173	2672334.94442148
22	21	0	0	90	36.1581920903955	36.241610738255	21	0.700049196146429	2	9	5	NaN	2	5	0.0456048706144795	0	1	NaN	289	5	37	2	120	220	320	NaN	520	0.0104146697558463	2	1	NaN	2672336.0780617	NaN	2672337.0614572	2672337.57800773
22	21	0	0	90	36.1581920903955	36.241610738255	17	0.566706492118537	2	4	3	NaN	1	3	0.0456048706144795	0	1	NaN	290	5	38	2	120	220	320	NaN	520	1.15734142204747	2	0	NaN	2672338.4116208	NaN	2672339.3950162	2672339.91156568
22	21	0	0	90	36.1581920903955	36.241610738255	21	0.700049196146429	2	6	1	NaN	1	5	0.0456048706144795	0	1	NaN	291	5	39	2	120	220	320	NaN	520	0.250289064832032	1	1	NaN	2672341.8786162	NaN	2672342.862025	2672343.37856624
22	21	0	0	90	36.1581920903955	36.241610738255	8	0.266685408055782	2	10	1	NaN	2	5	0.0456048706144795	0	1	NaN	292	5	40	2	120	220	320	NaN	520	0.315043422393501	2	1	NaN	2672344.4455591	NaN	2672345.428959	2672345.94549858
22	21	0	0	90	36.1581920903955	36.241610738255	16	0.533370816111565	2	3	5	NaN	1	5	0.0456048706144795	0	1	NaN	293	5	41	2	120	220	320	NaN	520	0.298479880206287	1	1	NaN	2672347.0625331	NaN	2672348.0458828	2672348.56242362
22	21	0	0	90	36.1581920903955	36.241610738255	0	0	1	6	4	NaN	1	4	0.0456048706144795	0	1	NaN	294	5	42	2	110	210	310	NaN	510	0.297341522295028	1	1	NaN	2672349.6793797	NaN	2672350.6627848	2672351.17934908
22	21	0	0	90	36.1581920903955	36.241610738255	16	0.533370816111565	2	6	5	NaN	1	3	0.0456048706144795	0	1	NaN	295	5	43	2	120	220	320	NaN	520	0.384273869916797	1	1	NaN	2672352.296322	NaN	2672353.2797138	2672353.79626553
22	21	0	0	90	36.1581920903955	36.241610738255	10	0.333356760069728	2	8	2	NaN	2	3	0.0456048706144795	0	1	NaN	296	5	44	2	120	220	320	NaN	520	0.364381032530218	2	1	NaN	2672354.9965828	NaN	2672355.9799652	2672356.49653037
22	21	0	0	90	36.1581920903955	36.241610738255	9	0.300021084062755	2	12	4	NaN	2	5	0.0456048706144795	0	1	NaN	297	5	45	2	120	220	320	NaN	520	0.360776369925588	1	0	NaN	2672357.6801818	NaN	2672358.6635651	2672359.18012843
22	21	0	0	90	36.1581920903955	36.241610738255	24	0.800056224167347	2	9	5	NaN	2	5	0.0456048706144795	0	1	NaN	298	5	46	2	120	220	320	NaN	520	0.650533717125654	2	1	NaN	2672360.6303716	NaN	2672361.6138606	2672362.13041088
22	21	0	0	90	36.1581920903955	36.241610738255	15	0.500035140104592	2	8	5	NaN	2	4	0.0456048706144795	0	1	NaN	299	5	47	2	120	220	320	NaN	520	1.72382687032223	1	0	NaN	2672363.5807896	NaN	2672364.5641402	2672365.08070973
22	21	0	0	90	36.1581920903955	36.241610738255	7	0.23334973204881	2	11	1	NaN	2	5	0.0456048706144795	0	1	NaN	300	5	48	2	120	220	320	NaN	520	0.255866821855307	2	1	NaN	2672368.0812784	NaN	2672369.0645921	2672369.58115348
22	21	0	0	90	36.1581920903955	36.241610738255	19	0.633377844132483	2	8	3	NaN	2	3	0.0456048706144795	0	1	NaN	301	5	49	2	120	220	320	NaN	520	1.94871977018192	1	0	NaN	2672371.1481304	NaN	2672372.1315717	2672372.64811933
22	21	0	0	90	36.1581920903955	36.241610738255	22	0.733384872153401	2	7	1	NaN	2	4	0.0456048706144795	0	1	NaN	302	5	50	2	120	220	320	NaN	520	0.465543317608535	2	1	NaN	2672375.4152518	NaN	2672376.3986875	2672376.91519958
22	21	0	0	90	36.1581920903955	36.241610738255	13	0.433363788090646	2	4	6	NaN	1	5	0.0456048706144795	0	1	NaN	303	5	51	2	120	220	320	NaN	520	0.321931675076485	2	0	NaN	2672378.1988592	NaN	2672379.1822608	2672379.69881283
22	21	0	0	90	36.1581920903955	36.241610738255	15	0.500035140104592	2	7	4	NaN	2	3	0.0456048706144795	0	1	NaN	304	5	52	2	120	220	320	NaN	520	0.808253917377442	2	1	NaN	2672380.8324468	NaN	2672381.8158387	2672382.33239058
22	21	0	0	90	36.1581920903955	36.241610738255	10	0.333356760069728	2	12	3	NaN	2	5	0.0456048706144795	0	1	NaN	305	5	53	2	120	220	320	NaN	520	0.531355869956315	2	1	NaN	2672383.9494279	NaN	2672384.9328224	2672385.44937433
22	21	0	0	90	36.1581920903955	36.241610738255	14	0.466699464097619	2	9	3	NaN	2	4	0.0456048706144795	0	1	NaN	306	5	54	2	120	220	320	NaN	520	0.193178169894964	2	1	NaN	2672386.7997087	NaN	2672387.7830965	2672388.29964553
22	21	0	0	90	36.1581920903955	36.241610738255	24	0.800056224167347	2	3	2	NaN	1	5	0.0456048706144795	0	1	NaN	307	5	55	2	120	220	320	NaN	520	0.861083769705147	1	1	NaN	2672389.3000382	NaN	2672390.2833483	2672390.79990003
22	21	0	0	90	36.1581920903955	36.241610738255	9	0.300021084062755	2	1	6	NaN	1	3	0.0456048706144795	0	1	NaN	308	5	56	2	120	220	320	NaN	520	0.733955170027912	1	1	NaN	2672392.466909	NaN	2672393.4503428	2672393.96686973
22	21	0	0	90	36.1581920903955	36.241610738255	7	0.23334973204881	2	1	3	NaN	1	3	0.0456048706144795	0	1	NaN	309	5	57	2	120	220	320	NaN	520	0.315711670089513	1	1	NaN	2672395.5172356	NaN	2672396.5006188	2672397.01717533
22	21	0	0	90	36.1581920903955	36.241610738255	8	0.266685408055782	2	12	5	NaN	2	5	0.0456048706144795	0	1	NaN	310	5	58	2	120	220	320	NaN	520	1.93848702218384	1	0	NaN	2672398.134136	NaN	2672399.117529	2672399.63409838
22	21	0	0	90	36.1581920903955	36.241610738255	23	0.766720548160374	2	8	4	NaN	2	3	0.0456048706144795	0	1	NaN	311	5	59	2	120	220	320	NaN	520	0.495897670276463	2	1	NaN	2672402.3844443	NaN	2672403.3679668	2672403.88450783
22	21	0	0	90	36.1581920903955	36.241610738255	8	0.266685408055782	2	8	4	NaN	2	3	0.0456048706144795	0	1	NaN	312	5	60	2	120	220	320	NaN	520	2.24825312197208	1	0	NaN	2672405.184845	NaN	2672406.1682363	2672406.68479518
22	21	0	0	90	36.1581920903955	36.241610738255	13	0.433363788090646	2	9	5	NaN	2	5	0.0456048706144795	0	1	NaN	313	5	61	2	120	220	320	NaN	520	1.59276636969298	1	0	NaN	2672409.7519605	NaN	2672410.7353447	2672411.25190623
22	21	0	0	90	36.1581920903955	36.241610738255	14	0.466699464097619	2	8	3	NaN	2	4	0.0456048706144795	0	1	NaN	314	5	62	2	120	220	320	NaN	520	0.236380622256547	2	1	NaN	2672413.6523386	NaN	2672414.6357516	2672415.15229228
22	21	0	0	90	36.1581920903955	36.241610738255	23	0.766720548160374	2	6	2	NaN	1	5	0.0456048706144795	0	1	NaN	315	5	63	2	120	220	320	NaN	520	0.279989422298968	1	1	NaN	2672416.5525572	NaN	2672417.5360293	2672418.05256818
22	21	0	0	90	36.1581920903955	36.241610738255	19	0.633377844132483	2	7	3	NaN	2	3	0.0456048706144795	0	1	NaN	316	6	1	2	120	220	320	NaN	520	0.876098670065403	1	0	NaN	2672433.6209843	NaN	2672434.6043674	2672435.12090503
22	21	0	0	90	36.1581920903955	36.241610738255	9	0.300021084062755	2	7	6	NaN	2	5	0.0456048706144795	0	1	NaN	317	6	2	2	120	220	320	NaN	520	0.715525927487761	2	1	NaN	2672436.8212745	NaN	2672437.8046771	2672438.32123207
22	21	0	0	90	36.1581920903955	36.241610738255	17	0.566706492118537	2	1	1	NaN	1	5	0.0456048706144795	0	1	NaN	318	6	3	2	120	220	320	NaN	520	0.21017997013405	1	1	NaN	2672439.8548305	NaN	2672440.8383075	2672441.35488053
22	21	0	0	90	36.1581920903955	36.241610738255	14	0.466699464097619	2	9	3	NaN	2	3	0.0456048706144795	0	1	NaN	319	6	4	2	120	220	320	NaN	520	0.262911622412503	2	1	NaN	2672442.7218297	NaN	2672443.7052512	2672444.22180718
22	21	0	0	90	36.1581920903955	36.241610738255	18	0.60004216812551	2	8	1	NaN	2	5	0.0456048706144795	0	1	NaN	320	6	5	2	120	220	320	NaN	520	0.392295769881457	1	0	NaN	2672445.2887811	NaN	2672446.2721779	2672446.78872253
22	21	0	0	90	36.1581920903955	36.241610738255	22	0.733384872153401	2	8	2	NaN	2	3	0.0456048706144795	0	1	NaN	321	6	6	2	120	220	320	NaN	520	0.27606622222811	2	1	NaN	2672447.9890367	NaN	2672448.9724375	2672449.48899158
22	21	0	0	90	36.1581920903955	36.241610738255	12	0.400028112083674	2	4	2	NaN	1	4	0.0456048706144795	0	1	NaN	322	6	7	2	120	220	320	NaN	520	0.387817570008337	1	1	NaN	2672450.5893025	NaN	2672451.5726973	2672452.08924283
22	21	0	0	90	36.1581920903955	36.241610738255	19	0.633377844132483	2	11	5	NaN	2	3	0.0456048706144795	0	1	NaN	323	6	8	2	120	220	320	NaN	520	0.41527186986059	1	0	NaN	2672453.289557	NaN	2672454.2729639	2672454.78951073
22	21	0	0	90	36.1581920903955	36.241610738255	22	0.733384872153401	2	10	6	NaN	2	4	0.0456048706144795	0	1	NaN	324	6	9	2	120	220	320	NaN	520	0.417492464650422	2	1	NaN	2672456.023165	NaN	2672457.006551	2672457.52311294
22	21	0	0	90	36.1581920903955	36.241610738255	10	0.333356760069728	2	3	2	NaN	1	5	0.0456048706144795	0	1	NaN	325	6	10	2	120	220	320	NaN	520	0.284021070227027	1	1	NaN	2672458.7567607	NaN	2672459.7401657	2672460.25671413
22	21	0	0	90	36.1581920903955	36.241610738255	6	0.200014056041837	2	3	1	NaN	1	5	0.0456048706144795	0	1	NaN	326	6	11	2	120	220	320	NaN	520	0.636100769974291	1	1	NaN	2672461.3570226	NaN	2672462.3404207	2672462.85696513
22	21	0	0	90	36.1581920903955	36.241610738255	19	0.633377844132483	2	2	3	NaN	1	5	0.0456048706144795	0	1	NaN	327	6	12	2	120	220	320	NaN	520	0.46160307014361	1	1	NaN	2672464.3073042	NaN	2672465.290706	2672465.80725613
22	21	0	0	90	36.1581920903955	36.241610738255	22	0.733384872153401	2	8	6	NaN	2	3	0.0456048706144795	0	1	NaN	328	6	13	2	120	220	320	NaN	520	0.326261922251433	2	1	NaN	2672467.0909275	NaN	2672468.0743445	2672468.59087338
22	21	0	0	90	36.1581920903955	36.241610738255	0	0	1	3	5	NaN	1	5	0.0456048706144795	0	1	NaN	329	6	14	2	110	210	310	NaN	510	0.332414669916034	1	1	NaN	2672469.7245087	NaN	2672470.7079385	2672471.22446103
22	21	0	0	90	36.1581920903955	36.241610738255	12	0.400028112083674	2	1	1	NaN	1	4	0.0456048706144795	0	1	NaN	330	6	15	2	120	220	320	NaN	520	0.5146116274409	1	1	NaN	2672472.3581047	NaN	2672473.3414788	2672473.85806127
22	21	0	0	90	36.1581920903955	36.241610738255	23	0.766720548160374	2	2	3	NaN	1	4	0.0456048706144795	0	1	NaN	331	6	16	2	120	220	320	NaN	520	0.473385822027922	2	0	NaN	2672475.1917059	NaN	2672476.1751017	2672476.69166528
22	21	0	0	90	36.1581920903955	36.241610738255	24	0.800056224167347	2	10	1	NaN	2	4	0.0456048706144795	0	1	NaN	332	6	17	2	120	220	320	NaN	520	0.633537870366126	2	1	NaN	2672477.9753272	NaN	2672478.9587232	2672479.47526783
22	21	0	0	90	36.1581920903955	36.241610738255	17	0.566706492118537	2	2	1	NaN	1	5	0.0456048706144795	0	1	NaN	333	6	18	2	120	220	320	NaN	520	0.267079021781683	1	1	NaN	2672480.9256248	NaN	2672481.9089944	2672482.42555838
22	21	0	0	90	36.1581920903955	36.241610738255	9	0.300021084062755	2	10	4	NaN	2	3	0.0456048706144795	0	1	NaN	334	6	19	2	120	220	320	NaN	520	0.490644969977438	2	1	NaN	2672483.5424191	NaN	2672484.5259313	2672485.04247723
22	21	0	0	90	36.1581920903955	36.241610738255	6	0.200014056041837	2	11	4	NaN	2	3	0.0456048706144795	0	1	NaN	335	6	20	2	120	220	320	NaN	520	0.981571199838072	2	1	NaN	2672486.8595388	NaN	2672487.8429231	2672488.3594744
22	21	0	0	90	36.1581920903955	36.241610738255	18	0.60004216812551	2	1	4	NaN	1	3	0.0456048706144795	0	1	NaN	336	6	21	2	120	220	320	NaN	520	1.12134806998074	2	0	NaN	2672490.1598558	NaN	2672491.1432312	2672491.65979753
22	21	0	0	90	36.1581920903955	36.241610738255	25	0.83339190017432	2	5	3	NaN	1	3	0.0456048706144795	0	1	NaN	337	6	22	2	120	220	320	NaN	520	0.74369342206046	1	1	NaN	2672493.5935151	NaN	2672494.5769139	2672495.09346928
22	21	0	0	90	36.1581920903955	36.241610738255	9	0.300021084062755	2	8	3	NaN	2	3	0.0456048706144795	0	1	NaN	338	6	23	2	120	220	320	NaN	520	0.620597570203245	2	1	NaN	2672496.6604789	NaN	2672497.6438939	2672498.16042913
22	21	0	0	90	36.1581920903955	36.241610738255	12	0.400028112083674	2	8	6	NaN	2	4	0.0456048706144795	0	1	NaN	339	6	24	2	120	220	320	NaN	520	0.39107947004959	1	0	NaN	2672499.5941077	NaN	2672500.5775055	2672501.09405833
22	21	0	0	90	36.1581920903955	36.241610738255	24	0.800056224167347	2	6	5	NaN	1	4	0.0456048706144795	0	1	NaN	340	6	25	2	120	220	320	NaN	520	0.29051476996392	1	1	NaN	2672502.2943696	NaN	2672503.2777703	2672503.79432403
22	21	0	0	90	36.1581920903955	36.241610738255	22	0.733384872153401	2	6	6	NaN	1	5	0.0456048706144795	0	1	NaN	341	6	26	2	120	220	320	NaN	520	0.226144422311336	1	1	NaN	2672504.8946258	NaN	2672505.8780187	2672506.39456928
22	21	0	0	90	36.1581920903955	36.241610738255	13	0.433363788090646	2	5	4	NaN	1	5	0.0456048706144795	0	1	NaN	342	6	27	2	120	220	320	NaN	520	0.417030970100313	1	1	NaN	2672507.5282313	NaN	2672508.5115977	2672509.02816993
22	21	0	0	90	36.1581920903955	36.241610738255	20	0.666713520139456	2	4	2	NaN	1	3	0.0456048706144795	0	1	NaN	343	6	28	2	120	220	320	NaN	520	0.259236469864845	1	1	NaN	2672510.2616922	NaN	2672511.2452192	2672511.76176783
22	21	0	0	90	36.1581920903955	36.241610738255	14	0.466699464097619	2	2	6	NaN	1	3	0.0456048706144795	0	1	NaN	344	6	29	2	120	220	320	NaN	520	0.107632070314139	1	1	NaN	2672512.8454119	NaN	2672513.8288061	2672514.34535483
22	21	0	0	90	36.1581920903955	36.241610738255	13	0.433363788090646	2	7	3	NaN	2	3	0.0456048706144795	0	1	NaN	345	6	30	2	120	220	320	NaN	520	0.830361570231616	2	1	NaN	2672515.3623259	NaN	2672516.345726	2672516.86226903
22	21	0	0	90	36.1581920903955	36.241610738255	6	0.200014056041837	2	5	3	NaN	1	3	0.0456048706144795	0	1	NaN	346	6	31	2	120	220	320	NaN	520	1.92206046450883	1	1	NaN	2672519.062694	NaN	2672520.0460905	2672520.56262954
22	21	0	0	90	36.1581920903955	36.241610738255	15	0.500035140104592	2	5	1	NaN	1	3	0.0456048706144795	0	1	NaN	347	6	32	2	120	220	320	NaN	520	0.34447232214734	2	0	NaN	2672523.2962976	NaN	2672524.2798132	2672524.79638748
22	21	0	0	90	36.1581920903955	36.241610738255	23	0.766720548160374	2	10	2	NaN	2	5	0.0456048706144795	0	1	NaN	348	6	33	2	120	220	320	NaN	520	0.29457387002185	1	0	NaN	2672525.9466873	NaN	2672526.9300525	2672527.44663713
22	21	0	0	90	36.1581920903955	36.241610738255	7	0.23334973204881	2	2	4	NaN	1	4	0.0456048706144795	0	1	NaN	349	6	34	2	120	220	320	NaN	520	0.306891722138971	1	1	NaN	2672529.0303334	NaN	2672530.0137427	2672530.53028238
22	21	0	0	90	36.1581920903955	36.241610738255	25	0.83339190017432	2	7	2	NaN	2	3	0.0456048706144795	0	1	NaN	350	6	35	2	120	220	320	NaN	520	0.289915469940752	2	1	NaN	2672531.647242	NaN	2672532.6306539	2672533.14720563
22	21	0	0	90	36.1581920903955	36.241610738255	19	0.633377844132483	2	1	4	NaN	1	4	0.0456048706144795	0	1	NaN	351	6	36	2	120	220	320	NaN	520	1.1616644221358	1	1	NaN	2672534.2475029	NaN	2672535.2309046	2672535.74745698
22	21	0	0	90	36.1581920903955	36.241610738255	8	0.266685408055782	2	9	4	NaN	2	5	0.0456048706144795	0	1	NaN	352	6	37	2	120	220	320	NaN	520	1.54272256977856	1	0	NaN	2672537.7145328	NaN	2672538.6979355	2672539.21445963
22	21	0	0	90	36.1581920903955	36.241610738255	23	0.766720548160374	2	7	6	NaN	2	3	0.0456048706144795	0	1	NaN	353	6	38	2	120	220	320	NaN	520	1.91595832211897	1	0	NaN	2672541.5648911	NaN	2672542.5482767	2672543.06484698
22	21	0	0	90	36.1581920903955	36.241610738255	10	0.333356760069728	2	8	1	NaN	2	4	0.0456048706144795	0	1	NaN	354	6	39	2	120	220	320	NaN	520	3.09831167012453	2	1	NaN	2672545.7986531	NaN	2672546.7820465	2672547.29858553
22	21	0	0	90	36.1581920903955	36.241610738255	6	0.200014056041837	2	10	2	NaN	2	5	0.0456048706144795	0	1	NaN	355	6	40	2	120	220	320	NaN	520	0.561058154795319	2	1	NaN	2672551.2158346	NaN	2672552.1992196	2672552.71577795
22	21	0	0	90	36.1581920903955	36.241610738255	20	0.666713520139456	2	6	2	NaN	1	4	0.0456048706144795	0	1	NaN	356	6	41	2	120	220	320	NaN	520	0.29335956973955	1	1	NaN	2672554.0994707	NaN	2672555.0828747	2672555.59940423
22	21	0	0	90	36.1581920903955	36.241610738255	9	0.300021084062755	2	8	5	NaN	2	3	0.0456048706144795	0	1	NaN	357	6	42	2	120	220	320	NaN	520	1.74906097026542	1	0	NaN	2672556.6997074	NaN	2672557.6830981	2672558.19966843
22	21	0	0	90	36.1581920903955	36.241610738255	25	0.83339190017432	2	2	2	NaN	1	3	0.0456048706144795	0	1	NaN	358	6	43	2	120	220	320	NaN	520	0.650498195085675	2	0	NaN	2672560.766772	NaN	2672561.7501831	2672562.26672381
22	21	0	0	90	36.1581920903955	36.241610738255	23	0.766720548160374	2	3	2	NaN	1	3	0.0456048706144795	0	1	NaN	359	6	44	2	120	220	320	NaN	520	0.323064970318228	1	1	NaN	2672563.7337382	NaN	2672564.7171373	2672565.23368003
22	21	0	0	90	36.1581920903955	36.241610738255	20	0.666713520139456	2	12	6	NaN	2	3	0.0456048706144795	0	1	NaN	360	6	45	2	120	220	320	NaN	520	0.408749199938029	2	1	NaN	2672566.3840039	NaN	2672567.3673938	2672567.8839707
22	21	0	0	90	36.1581920903955	36.241610738255	15	0.500035140104592	2	7	5	NaN	2	4	0.0456048706144795	0	1	NaN	361	6	46	2	120	220	320	NaN	520	0.332140017300844	2	1	NaN	2672569.1010603	NaN	2672570.0843041	2672570.60087328
22	21	0	0	90	36.1581920903955	36.241610738255	22	0.733384872153401	2	12	2	NaN	2	5	0.0456048706144795	0	1	NaN	362	6	47	2	120	220	320	NaN	520	0.12944677984342	2	1	NaN	2672571.7512125	NaN	2672572.7345836	2672573.25114432
22	21	0	0	90	36.1581920903955	36.241610738255	22	0.733384872153401	2	3	2	NaN	1	4	0.0456048706144795	0	1	NaN	363	6	48	2	120	220	320	NaN	520	0.370572722516954	1	1	NaN	2672574.3347507	NaN	2672575.3181715	2672575.83472938
22	21	0	0	90	36.1581920903955	36.241610738255	10	0.333356760069728	2	7	1	NaN	2	4	0.0456048706144795	0	1	NaN	364	6	49	2	120	220	320	NaN	520	0.870698717422783	2	1	NaN	2672577.0183549	NaN	2672578.0017758	2672578.51832348
22	21	0	0	90	36.1581920903955	36.241610738255	12	0.400028112083674	2	9	1	NaN	2	5	0.0456048706144795	0	1	NaN	365	6	50	2	120	220	320	NaN	520	0.39893556991592	2	1	NaN	2672580.20202	NaN	2672581.1854052	2672581.70196753
22	21	0	0	90	36.1581920903955	36.241610738255	12	0.400028112083674	2	10	6	NaN	2	4	0.0456048706144795	0	1	NaN	366	6	51	2	120	220	320	NaN	520	0.577907621860504	2	1	NaN	2672582.9189504	NaN	2672583.9023458	2672584.41890508
22	21	0	0	90	36.1581920903955	36.241610738255	25	0.83339190017432	2	1	5	NaN	1	4	0.0456048706144795	0	1	NaN	367	6	52	2	120	220	320	NaN	520	0.0103929224424064	1	1	NaN	2672585.8024358	NaN	2672586.785971	2672587.30251888
22	21	0	0	90	36.1581920903955	36.241610738255	23	0.766720548160374	2	1	2	NaN	1	3	0.0456048706144795	0	1	NaN	368	6	53	2	120	220	320	NaN	520	0.344788390211761	1	1	NaN	2672588.1359896	NaN	2672589.1195304	2672589.63608711
22	21	0	0	90	36.1581920903955	36.241610738255	6	0.200014056041837	2	2	5	NaN	1	5	0.0456048706144795	0	1	NaN	369	6	54	2	120	220	320	NaN	520	0.262604317162186	1	1	NaN	2672590.7864078	NaN	2672591.7697767	2672592.28633638
22	21	0	0	90	36.1581920903955	36.241610738255	16	0.533370816111565	2	8	5	NaN	2	5	0.0456048706144795	0	1	NaN	370	6	55	2	120	220	320	NaN	520	1.48725796490908	2	1	NaN	2672593.3699846	NaN	2672594.3533807	2672594.86992144
22	21	0	0	90	36.1581920903955	36.241610738255	23	0.766720548160374	2	11	1	NaN	2	5	0.0456048706144795	0	1	NaN	371	6	56	2	120	220	320	NaN	520	0.470974470023066	1	0	NaN	2672597.170342	NaN	2672598.1537388	2672598.67029323
22	21	0	0	90	36.1581920903955	36.241610738255	7	0.23334973204881	2	6	3	NaN	1	5	0.0456048706144795	0	1	NaN	372	6	57	2	120	220	320	NaN	520	0.631222969852388	1	1	NaN	2672599.9539521	NaN	2672600.9373565	2672601.45389943
22	21	0	0	90	36.1581920903955	36.241610738255	10	0.333356760069728	2	6	6	NaN	1	5	0.0456048706144795	0	1	NaN	373	6	58	2	120	220	320	NaN	520	0.313272022176534	1	1	NaN	2672602.8875821	NaN	2672603.8709652	2672604.38752178
22	21	0	0	90	36.1581920903955	36.241610738255	15	0.500035140104592	2	6	1	NaN	1	3	0.0456048706144795	0	1	NaN	374	6	59	2	120	220	320	NaN	520	0.247824769932777	1	1	NaN	2672605.5211771	NaN	2672606.5045704	2672607.02111383
22	21	0	0	90	36.1581920903955	36.241610738255	19	0.633377844132483	2	6	4	NaN	1	3	0.0456048706144795	0	1	NaN	375	6	60	2	120	220	320	NaN	520	0.377138517796993	1	1	NaN	2672608.0880908	NaN	2672609.0714767	2672609.58803188
22	21	0	0	90	36.1581920903955	36.241610738255	0	0	1	7	4	NaN	2	5	0.0456048706144795	0	1	NaN	376	6	61	2	110	210	310	NaN	510	1.405682570301	1	0	NaN	2672610.7716926	NaN	2672611.7550873	2672612.27164653
22	21	0	0	90	36.1581920903955	36.241610738255	20	0.666713520139456	2	3	3	NaN	1	5	0.0456048706144795	0	1	NaN	377	6	62	2	120	220	320	NaN	520	0.992400570306927	1	1	NaN	2672614.4887229	NaN	2672615.4721032	2672615.98866933
22	21	0	0	90	36.1581920903955	36.241610738255	12	0.400028112083674	2	6	6	NaN	1	4	0.0456048706144795	0	1	NaN	378	6	63	2	120	220	320	NaN	520	0.916139922104776	1	1	NaN	2672617.7890514	NaN	2672618.7724385	2672619.28899158
22	21	0	0	90	36.1581920903955	36.241610738255	10	0.333356760069728	2	11	6	NaN	2	3	0.0456048706144795	0	1	NaN	379	7	1	2	120	220	320	NaN	520	0.307474622037262	2	1	NaN	2672635.1573073	NaN	2672636.1408275	2672636.65735828
22	21	0	0	90	36.1581920903955	36.241610738255	11	0.366692436076701	2	8	3	NaN	2	3	0.0456048706144795	0	1	NaN	380	7	2	2	120	220	320	NaN	520	0.979035269934684	1	0	NaN	2672637.7743445	NaN	2672638.7577258	2672639.27429533
22	21	0	0	90	36.1581920903955	36.241610738255	7	0.23334973204881	2	4	3	NaN	1	5	0.0456048706144795	0	1	NaN	381	7	3	2	120	220	320	NaN	520	0.782520017120987	2	0	NaN	2672641.0746612	NaN	2672642.0580604	2672642.57459888
22	21	0	0	90	36.1581920903955	36.241610738255	13	0.433363788090646	2	9	6	NaN	2	4	0.0456048706144795	0	1	NaN	382	7	4	2	120	220	320	NaN	520	0.713993249461055	2	1	NaN	2672644.1749613	NaN	2672645.1583588	2672645.67490925
22	21	0	0	90	36.1581920903955	36.241610738255	12	0.400028112083674	2	5	6	NaN	1	5	0.0456048706144795	0	1	NaN	383	7	5	2	120	220	320	NaN	520	0.457293617539108	1	1	NaN	2672647.1917728	NaN	2672648.175328	2672648.69186528
22	21	0	0	90	36.1581920903955	36.241610738255	22	0.733384872153401	2	5	5	NaN	1	5	0.0456048706144795	0	1	NaN	384	7	6	2	120	220	320	NaN	520	0.794414022006094	1	1	NaN	2672649.9588781	NaN	2672650.9422561	2672651.45881798
22	21	0	0	90	36.1581920903955	36.241610738255	14	0.466699464097619	2	12	5	NaN	2	5	0.0456048706144795	0	1	NaN	385	7	7	2	120	220	320	NaN	520	0.429987984709442	1	0	NaN	2672653.0591841	NaN	2672654.0426121	2672654.55912362
22	21	0	0	90	36.1581920903955	36.241610738255	0	0	1	12	6	NaN	2	5	0.0456048706144795	0	1	NaN	386	7	8	2	110	210	310	NaN	510	0.368192322086543	2	1	NaN	2672655.7926554	NaN	2672656.7761543	2672657.29272318
22	21	0	0	90	36.1581920903955	36.241610738255	13	0.433363788090646	2	5	2	NaN	1	4	0.0456048706144795	0	1	NaN	387	7	9	2	120	220	320	NaN	520	0.333076301962137	1	1	NaN	2672658.4763743	NaN	2672659.459778	2672659.9763176
22	21	0	0	90	36.1581920903955	36.241610738255	17	0.566706492118537	2	9	3	NaN	2	4	0.0456048706144795	0	1	NaN	388	7	10	2	120	220	320	NaN	520	0.402881269808859	2	1	NaN	2672661.1266232	NaN	2672662.1100263	2672662.62657113
22	21	0	0	90	36.1581920903955	36.241610738255	17	0.566706492118537	2	5	3	NaN	1	3	0.0456048706144795	0	1	NaN	389	7	11	2	120	220	320	NaN	520	0.469483670312911	1	1	NaN	2672663.8434273	NaN	2672664.8269564	2672665.34351083
22	21	0	0	90	36.1581920903955	36.241610738255	6	0.200014056041837	2	11	1	NaN	2	3	0.0456048706144795	0	1	NaN	390	7	12	2	120	220	320	NaN	520	0.278251222334802	2	1	NaN	2672666.6271808	NaN	2672667.610566	2672668.12712028
22	21	0	0	90	36.1581920903955	36.241610738255	25	0.83339190017432	2	2	4	NaN	1	3	0.0456048706144795	0	1	NaN	391	7	13	2	120	220	320	NaN	520	0.398342221975327	1	1	NaN	2672669.2107658	NaN	2672670.1941507	2672670.71070058
22	21	0	0	90	36.1581920903955	36.241610738255	13	0.433363788090646	2	2	3	NaN	1	3	0.0456048706144795	0	1	NaN	392	7	14	2	120	220	320	NaN	520	0.481342370156199	2	0	NaN	2672671.9275534	NaN	2672672.9110827	2672673.42763633
22	21	0	0	90	36.1581920903955	36.241610738255	8	0.266685408055782	2	10	4	NaN	2	5	0.0456048706144795	0	1	NaN	393	7	15	2	120	220	320	NaN	520	0.585159374866635	2	1	NaN	2672674.7278658	NaN	2672675.7113806	2672676.22791063
22	21	0	0	90	36.1581920903955	36.241610738255	16	0.533370816111565	2	5	4	NaN	1	5	0.0456048706144795	0	1	NaN	394	7	16	2	120	220	320	NaN	520	0.969817469827831	1	1	NaN	2672678.1116375	NaN	2672679.0950245	2672679.61156703
22	21	0	0	90	36.1581920903955	36.241610738255	18	0.60004216812551	2	5	5	NaN	1	5	0.0456048706144795	0	1	NaN	395	7	17	2	120	220	320	NaN	520	0.838191069662571	2	0	NaN	2672681.3951725	NaN	2672682.3786992	2672682.89523283
22	21	0	0	90	36.1581920903955	36.241610738255	18	0.60004216812551	2	11	3	NaN	2	4	0.0456048706144795	0	1	NaN	396	7	18	2	120	220	320	NaN	520	0.951349869836122	1	0	NaN	2672684.5455969	NaN	2672685.5289754	2672686.04553803
22	21	0	0	90	36.1581920903955	36.241610738255	24	0.800056224167347	2	6	2	NaN	1	3	0.0456048706144795	0	1	NaN	397	7	19	2	120	220	320	NaN	520	0.564868722576648	1	1	NaN	2672687.812459	NaN	2672688.7960099	2672689.31253058
22	21	0	0	90	36.1581920903955	36.241610738255	16	0.533370816111565	2	10	6	NaN	2	5	0.0456048706144795	0	1	NaN	398	7	20	2	120	220	320	NaN	520	0.353151969611645	2	1	NaN	2672690.6962143	NaN	2672691.6795901	2672692.19614063
22	21	0	0	90	36.1581920903955	36.241610738255	10	0.333356760069728	2	12	6	NaN	2	3	0.0456048706144795	0	1	NaN	399	7	21	2	120	220	320	NaN	520	0.958126669749618	2	1	NaN	2672693.3631129	NaN	2672694.3465486	2672694.86307273
22	21	0	0	90	36.1581920903955	36.241610738255	22	0.733384872153401	2	2	6	NaN	1	3	0.0456048706144795	0	1	NaN	400	7	22	2	120	220	320	NaN	520	0.258965722285211	2	0	NaN	2672696.6301065	NaN	2672697.6134982	2672698.13005708
22	21	0	0	90	36.1581920903955	36.241610738255	22	0.733384872153401	2	1	5	NaN	1	5	0.0456048706144795	0	1	NaN	401	7	23	2	120	220	320	NaN	520	0.588009417057037	2	0	NaN	2672699.1969231	NaN	2672700.1804324	2672700.69697208
22	21	0	0	90	36.1581920903955	36.241610738255	6	0.200014056041837	2	8	2	NaN	2	4	0.0456048706144795	0	1	NaN	402	7	24	2	120	220	320	NaN	520	0.503888070117682	2	1	NaN	2672702.0971928	NaN	2672703.0806967	2672703.59726093
22	21	0	0	90	36.1581920903955	36.241610738255	18	0.60004216812551	2	10	6	NaN	2	4	0.0456048706144795	0	1	NaN	403	7	25	2	120	220	320	NaN	520	1.21495871758088	2	1	NaN	2672704.9142501	NaN	2672705.8976385	2672706.41419898
22	21	0	0	90	36.1581920903955	36.241610738255	24	0.800056224167347	2	8	4	NaN	2	3	0.0456048706144795	0	1	NaN	404	7	26	2	120	220	320	NaN	520	1.33715882198885	2	1	NaN	2672708.4479528	NaN	2672709.4313322	2672709.94788898
22	21	0	0	90	36.1581920903955	36.241610738255	9	0.300021084062755	2	9	4	NaN	2	5	0.0456048706144795	0	1	NaN	405	7	27	2	120	220	320	NaN	520	0.0103991697542369	2	1	NaN	2672712.0982908	NaN	2672713.081717	2672713.59824613
22	21	0	0	90	36.1581920903955	36.241610738255	18	0.60004216812551	2	12	2	NaN	2	3	0.0456048706144795	0	1	NaN	406	7	28	2	120	220	320	NaN	520	0.26498162234202	2	1	NaN	2672714.4318686	NaN	2672715.4152596	2672715.93181218
22	21	0	0	90	36.1581920903955	36.241610738255	7	0.23334973204881	2	5	4	NaN	1	5	0.0456048706144795	0	1	NaN	407	7	29	2	120	220	320	NaN	520	0.8100302699022	1	1	NaN	2672717.0153756	NaN	2672717.9988424	2672718.51538513
22	21	0	0	90	36.1581920903955	36.241610738255	9	0.300021084062755	2	10	1	NaN	2	5	0.0456048706144795	0	1	NaN	408	7	30	2	120	220	320	NaN	520	0.476882569957525	2	1	NaN	2672720.1324158	NaN	2672721.115809	2672721.63236043
22	21	0	0	90	36.1581920903955	36.241610738255	10	0.333356760069728	2	2	6	NaN	1	5	0.0456048706144795	0	1	NaN	409	7	31	2	120	220	320	NaN	520	0.453226469922811	1	1	NaN	2672722.9159012	NaN	2672723.8994205	2672724.41597703
22	21	0	0	90	36.1581920903955	36.241610738255	21	0.700049196146429	2	3	3	NaN	1	3	0.0456048706144795	0	1	NaN	410	7	32	2	120	220	320	NaN	520	0.302165869623423	1	1	NaN	2672725.6829613	NaN	2672726.6663583	2672727.18291273
22	21	0	0	90	36.1581920903955	36.241610738255	17	0.566706492118537	2	11	5	NaN	2	5	0.0456048706144795	0	1	NaN	411	7	33	2	120	220	320	NaN	520	0.901184369809926	1	0	NaN	2672728.2999228	NaN	2672729.2832904	2672729.79983473
22	21	0	0	90	36.1581920903955	36.241610738255	10	0.333356760069728	2	10	3	NaN	2	5	0.0456048706144795	0	1	NaN	412	7	34	2	120	220	320	NaN	520	0.900319222360849	2	1	NaN	2672731.5168699	NaN	2672732.5002644	2672733.01682168
22	21	0	0	90	36.1581920903955	36.241610738255	20	0.666713520139456	2	3	2	NaN	1	4	0.0456048706144795	0	1	NaN	413	7	35	2	120	220	320	NaN	520	0.683418322354555	1	1	NaN	2672734.7337239	NaN	2672735.7173511	2672736.23379138
22	21	0	0	90	36.1581920903955	36.241610738255	20	0.666713520139456	2	2	5	NaN	1	5	0.0456048706144795	0	1	NaN	414	7	36	2	120	220	320	NaN	520	0.691378270275891	2	0	NaN	2672737.7341445	NaN	2672738.717536	2672739.23409453
22	21	0	0	90	36.1581920903955	36.241610738255	12	0.400028112083674	2	11	6	NaN	2	5	0.0456048706144795	0	1	NaN	415	7	37	2	120	220	320	NaN	520	2.51425246987492	1	0	NaN	2672740.7510992	NaN	2672741.7345329	2672742.25105013
22	21	0	0	90	36.1581920903955	36.241610738255	19	0.633377844132483	2	4	4	NaN	1	4	0.0456048706144795	0	1	NaN	416	7	38	2	120	220	320	NaN	520	2.06460524490103	1	1	NaN	2672745.5849168	NaN	2672746.5683139	2672747.08485516
22	21	0	0	90	36.1581920903955	36.241610738255	15	0.500035140104592	2	11	6	NaN	2	3	0.0456048706144795	0	1	NaN	417	7	39	2	120	220	320	NaN	520	0.865217522252351	2	1	NaN	2672749.9520163	NaN	2672750.9354131	2672751.45195608
22	21	0	0	90	36.1581920903955	36.241610738255	17	0.566706492118537	2	11	1	NaN	2	4	0.0456048706144795	0	1	NaN	418	7	40	2	120	220	320	NaN	520	0.433623270131648	2	1	NaN	2672753.1356583	NaN	2672754.1190478	2672754.63559953
22	21	0	0	90	36.1581920903955	36.241610738255	16	0.533370816111565	2	6	1	NaN	1	5	0.0456048706144795	0	1	NaN	419	7	41	2	120	220	320	NaN	520	0.659243422094733	1	1	NaN	2672755.8859336	NaN	2672756.8693193	2672757.38588028
22	21	0	0	90	36.1581920903955	36.241610738255	12	0.400028112083674	2	10	5	NaN	2	4	0.0456048706144795	0	1	NaN	420	7	42	2	120	220	320	NaN	520	0.324160017073154	2	1	NaN	2672758.8528778	NaN	2672759.8362769	2672760.35283338
22	21	0	0	90	36.1581920903955	36.241610738255	17	0.566706492118537	2	5	3	NaN	1	5	0.0456048706144795	0	1	NaN	421	7	43	2	120	220	320	NaN	520	0.45046486472711	1	1	NaN	2672761.5031575	NaN	2672762.4865274	2672763.00308694
22	21	0	0	90	36.1581920903955	36.241610738255	7	0.23334973204881	2	4	1	NaN	1	3	0.0456048706144795	0	1	NaN	422	7	44	2	120	220	320	NaN	520	0.683504221960902	1	1	NaN	2672764.2700792	NaN	2672765.2534734	2672765.77003748
22	21	0	0	90	36.1581920903955	36.241610738255	25	0.83339190017432	2	8	2	NaN	2	5	0.0456048706144795	0	1	NaN	423	7	45	2	120	220	320	NaN	520	0.331135370302945	2	1	NaN	2672767.2703662	NaN	2672768.2537553	2672768.77032273
22	21	0	0	90	36.1581920903955	36.241610738255	6	0.200014056041837	2	3	1	NaN	1	4	0.0456048706144795	0	1	NaN	424	7	46	2	120	220	320	NaN	520	0.632608769927174	1	1	NaN	2672769.920638	NaN	2672770.9040316	2672771.42058143
22	21	0	0	90	36.1581920903955	36.241610738255	14	0.466699464097619	2	10	3	NaN	2	5	0.0456048706144795	0	1	NaN	425	7	47	2	120	220	320	NaN	520	1.20242972206324	1	0	NaN	2672772.8709206	NaN	2672773.8542857	2672774.37087268
22	21	0	0	90	36.1581920903955	36.241610738255	20	0.666713520139456	2	9	1	NaN	2	3	0.0456048706144795	0	1	NaN	426	7	48	2	120	220	320	NaN	520	0.2852827697061	2	1	NaN	2672776.3879362	NaN	2672777.3713263	2672777.88788323
22	21	0	0	90	36.1581920903955	36.241610738255	16	0.533370816111565	2	9	1	NaN	2	4	0.0456048706144795	0	1	NaN	427	7	49	2	120	220	320	NaN	520	0.341432217508554	2	1	NaN	2672778.9881915	NaN	2672779.9715917	2672780.48813738
22	21	0	0	90	36.1581920903955	36.241610738255	21	0.700049196146429	2	5	3	NaN	1	3	0.0456048706144795	0	1	NaN	428	7	50	2	120	220	320	NaN	520	0.995174421928823	2	0	NaN	2672781.6383317	NaN	2672782.6218516	2672783.13840588
22	21	0	0	90	36.1581920903955	36.241610738255	20	0.666713520139456	2	2	5	NaN	1	5	0.0456048706144795	0	1	NaN	429	7	51	2	120	220	320	NaN	520	0.40647957008332	1	1	NaN	2672784.9387794	NaN	2672785.9221611	2672786.43872613
22	21	0	0	90	36.1581920903955	36.241610738255	9	0.300021084062755	2	1	2	NaN	1	3	0.0456048706144795	0	1	NaN	430	7	52	2	120	220	320	NaN	520	0.274157322477549	2	0	NaN	2672787.8390397	NaN	2672788.8224703	2672789.33900388
22	21	0	0	90	36.1581920903955	36.241610738255	7	0.23334973204881	2	12	5	NaN	2	5	0.0456048706144795	0	1	NaN	431	7	53	2	120	220	320	NaN	520	0.338818969670683	2	1	NaN	2672790.4226636	NaN	2672791.4060564	2672791.92258983
22	21	0	0	90	36.1581920903955	36.241610738255	11	0.366692436076701	2	5	1	NaN	1	4	0.0456048706144795	0	1	NaN	432	7	54	2	120	220	320	NaN	520	1.48072772240266	2	0	NaN	2672793.0729116	NaN	2672794.0563067	2672794.57286028
22	21	0	0	90	36.1581920903955	36.241610738255	9	0.300021084062755	2	12	4	NaN	2	4	0.0456048706144795	0	1	NaN	433	7	55	2	120	220	320	NaN	520	0.904322322458029	1	0	NaN	2672796.8732717	NaN	2672797.8566804	2672798.37322488
22	21	0	0	90	36.1581920903955	36.241610738255	21	0.700049196146429	2	11	4	NaN	2	5	0.0456048706144795	0	1	NaN	434	7	56	2	120	220	320	NaN	520	1.38336052233353	1	0	NaN	2672800.0902677	NaN	2672801.0736803	2672801.59021758
22	21	0	0	90	36.1581920903955	36.241610738255	15	0.500035140104592	2	2	1	NaN	1	5	0.0456048706144795	0	1	NaN	435	7	57	2	120	220	320	NaN	520	0.802540617529303	1	1	NaN	2672803.7906311	NaN	2672804.774032	2672805.29057908
22	21	0	0	90	36.1581920903955	36.241610738255	8	0.266685408055782	2	12	6	NaN	2	4	0.0456048706144795	0	1	NaN	436	7	58	2	120	220	320	NaN	520	0.261987242847681	2	1	NaN	2672806.9076027	NaN	2672807.8909992	2672808.40755476
22	21	0	0	90	36.1581920903955	36.241610738255	20	0.666713520139456	2	11	3	NaN	2	5	0.0456048706144795	0	1	NaN	437	7	59	2	120	220	320	NaN	520	0.43005867023021	2	1	NaN	2672809.4912033	NaN	2672810.474571	2672810.99114283
22	21	0	0	90	36.1581920903955	36.241610738255	14	0.466699464097619	2	3	2	NaN	1	4	0.0456048706144795	0	1	NaN	438	7	60	2	120	220	320	NaN	520	0.279994969721884	1	1	NaN	2672812.2413297	NaN	2672813.2248501	2672813.74140213
22	21	0	0	90	36.1581920903955	36.241610738255	12	0.400028112083674	2	9	2	NaN	2	5	0.0456048706144795	0	1	NaN	439	7	61	2	120	220	320	NaN	520	0.383581121917814	1	0	NaN	2672814.8417115	NaN	2672815.8251059	2672816.34166518
22	21	0	0	90	36.1581920903955	36.241610738255	11	0.366692436076701	2	5	6	NaN	1	5	0.0456048706144795	0	1	NaN	440	7	62	2	120	220	320	NaN	520	0.403184554539621	1	1	NaN	2672817.5418278	NaN	2672818.5253704	2672819.04191415
22	21	0	0	90	36.1581920903955	36.241610738255	7	0.23334973204881	2	9	1	NaN	2	4	0.0456048706144795	0	1	NaN	441	7	63	2	120	220	320	NaN	520	0.366204270161688	1	0	NaN	2672820.2587828	NaN	2672821.2423347	2672821.75885593
22	21	0	0	90	36.1581920903955	36.241610738255	17	0.566706492118537	2	2	2	NaN	1	3	0.0456048706144795	0	1	NaN	442	8	1	2	120	220	320	NaN	520	0.828685174696147	2	0	NaN	2672824.2925045	NaN	2672825.2760868	2672825.79258453
22	21	0	0	90	36.1581920903955	36.241610738255	14	0.466699464097619	2	1	2	NaN	1	3	0.0456048706144795	0	1	NaN	443	8	2	2	120	220	320	NaN	520	0.575435421895236	1	1	NaN	2672827.4263147	NaN	2672828.4096736	2672828.92623388
22	21	0	0	90	36.1581920903955	36.241610738255	14	0.466699464097619	2	11	2	NaN	2	3	0.0456048706144795	0	1	NaN	444	8	3	2	120	220	320	NaN	520	0.283701922278851	2	1	NaN	2672830.3098934	NaN	2672831.2933393	2672831.80984478
22	21	0	0	90	36.1581920903955	36.241610738255	22	0.733384872153401	2	5	4	NaN	1	5	0.0456048706144795	0	1	NaN	445	8	4	2	120	220	320	NaN	520	1.53457506978884	1	1	NaN	2672833.4268332	NaN	2672834.4102809	2672834.92681023
22	21	0	0	90	36.1581920903955	36.241610738255	23	0.766720548160374	2	5	6	NaN	1	3	0.0456048706144795	0	1	NaN	446	8	5	2	120	220	320	NaN	520	0.740170869976282	1	1	NaN	2672837.277114	NaN	2672838.2606527	2672838.77719473
22	21	0	0	90	36.1581920903955	36.241610738255	10	0.333356760069728	2	5	1	NaN	1	3	0.0456048706144795	0	1	NaN	447	8	6	2	120	220	320	NaN	520	1.6338887703605	1	1	NaN	2672840.3275372	NaN	2672841.3109481	2672841.82748843
22	21	0	0	90	36.1581920903955	36.241610738255	18	0.60004216812551	2	7	3	NaN	2	5	0.0456048706144795	0	1	NaN	448	8	7	2	120	220	320	NaN	520	0.611424969974905	1	0	NaN	2672844.27792	NaN	2672845.2613355	2672845.77788133
22	21	0	0	90	36.1581920903955	36.241610738255	12	0.400028112083674	2	2	1	NaN	1	5	0.0456048706144795	0	1	NaN	449	8	8	2	120	220	320	NaN	520	0.382456417195499	2	0	NaN	2672847.1947611	NaN	2672848.1783111	2672848.69482998
22	21	0	0	90	36.1581920903955	36.241610738255	13	0.433363788090646	2	4	5	NaN	1	3	0.0456048706144795	0	1	NaN	450	8	9	2	120	220	320	NaN	520	0.634549470152706	1	1	NaN	2672849.8951491	NaN	2672850.8785982	2672851.39509913
22	21	0	0	90	36.1581920903955	36.241610738255	23	0.766720548160374	2	10	1	NaN	2	4	0.0456048706144795	0	1	NaN	451	8	10	2	120	220	320	NaN	520	0.27621331717819	2	1	NaN	2672852.8454642	NaN	2672853.8287348	2672854.34539838
22	21	0	0	90	36.1581920903955	36.241610738255	22	0.733384872153401	2	4	4	NaN	1	3	0.0456048706144795	0	1	NaN	452	8	11	2	120	220	320	NaN	520	0.339680217206478	1	1	NaN	2672855.4457153	NaN	2672856.429133	2672856.94563978
22	21	0	0	90	36.1581920903955	36.241610738255	8	0.266685408055782	2	3	4	NaN	1	5	0.0456048706144795	0	1	NaN	453	8	12	2	120	220	320	NaN	520	0.481430369894952	1	1	NaN	2672858.0959593	NaN	2672859.079349	2672859.59589863
22	21	0	0	90	36.1581920903955	36.241610738255	0	0	1	2	5	NaN	1	3	0.0456048706144795	0	1	NaN	454	8	13	2	110	210	310	NaN	510	0.27316932240501	1	1	NaN	2672860.8962281	NaN	2672861.8796233	2672862.39617788
22	21	0	0	90	36.1581920903955	36.241610738255	20	0.666713520139456	2	10	4	NaN	2	4	0.0456048706144795	0	1	NaN	455	8	14	2	120	220	320	NaN	520	0.553686412516981	2	1	NaN	2672863.4798035	NaN	2672864.463207	2672864.97975979
22	21	0	0	90	36.1581920903955	36.241610738255	25	0.83339190017432	2	12	5	NaN	2	3	0.0456048706144795	0	1	NaN	456	8	15	2	120	220	320	NaN	520	0.718387770000845	1	0	NaN	2672866.3466927	NaN	2672867.3301658	2672867.84670723
22	21	0	0	90	36.1581920903955	36.241610738255	17	0.566706492118537	2	12	4	NaN	2	5	0.0456048706144795	0	1	NaN	457	8	16	2	120	220	320	NaN	520	0.91714007453993	2	1	NaN	2672869.3803941	NaN	2672870.3637753	2672870.88035083
22	21	0	0	90	36.1581920903955	36.241610738255	6	0.200014056041837	2	2	6	NaN	1	5	0.0456048706144795	0	1	NaN	458	8	17	2	120	220	320	NaN	520	0.355217169970274	2	0	NaN	2672872.6140436	NaN	2672873.5974449	2672874.11399453
