subjno	age	gender	isPractice	viewdist	CmToPixX	CmToPixY	SOA_frm	SOA_time	targNum	targID	targExample	targRace	targGender	firstTargPos	contrast	familiarity	curr_staircase	iStair	TrialNum	BlockNum	blktrl	sessionNum	TC_FIXATION	TC_RSVP_START	TC_RSVP_END	TC_BLANK	TC_RESPONSE_ONSET	RT2afc	resp_2afc	acc	RSVPOnsetVBL	RSVPOnsetTime	RSVPOffsetVBL	RSVPOffsetTime	startrt_2afc
80	18	0	0	90	36.1581920903955	36.241610738255	17	0.566708464212716	2	6	4	NaN	1	4	0.0233821743229072	1	1	NaN	1	1	1	1	121	221	321	NaN	521	0.429902328178287	1	1	NaN	3362275.1395774	NaN	3362276.122838	3362276.65598007
80	18	0	0	90	36.1581920903955	36.241610738255	8	0.266686336100101	2	10	1	NaN	2	5	0.0233821743229072	1	1	NaN	2	1	2	1	121	221	321	NaN	521	1.71732977079228	2	1	NaN	3362277.93986	NaN	3362278.9231103	3362279.45625143
80	18	0	0	90	36.1581920903955	36.241610738255	13	0.433365296162665	2	3	3	NaN	1	4	0.0233821743229072	1	1	NaN	3	1	3	1	121	221	321	NaN	521	0.314114975277334	2	0	NaN	3362282.0067013	NaN	3362282.9901219	3362283.52331282
80	18	0	0	90	36.1581920903955	36.241610738255	18	0.600044256225228	2	5	1	NaN	1	3	0.0233821743229072	1	1	NaN	4	1	4	1	121	221	321	NaN	521	2.70490241795778	1	1	NaN	3362284.6569523	NaN	3362285.6403503	3362286.15690398
80	18	0	0	90	36.1581920903955	36.241610738255	16	0.533372672200203	2	7	3	NaN	2	5	0.0233821743229072	1	1	NaN	5	1	5	1	121	221	321	NaN	521	6.15169311780483	2	1	NaN	3362289.6740635	NaN	3362290.6575191	3362291.17405868
80	18	0	0	90	36.1581920903955	36.241610738255	15	0.50003688018769	2	4	3	NaN	1	3	0.0233821743229072	1	1	NaN	6	1	6	1	121	221	321	NaN	521	1.97804837068543	2	0	NaN	3362298.1916289	NaN	3362299.1750103	3362299.69157153
80	18	0	0	90	36.1581920903955	36.241610738255	11	0.36669371213764	2	9	1	NaN	2	5	0.0233821743229072	1	1	NaN	7	1	7	1	121	221	321	NaN	521	1.13342432305217	1	0	NaN	3362302.4919138	NaN	3362303.4754404	3362303.99199138
80	18	0	0	90	36.1581920903955	36.241610738255	15	0.50003688018769	2	7	5	NaN	2	4	0.0233821743229072	1	1	NaN	8	1	8	1	121	221	321	NaN	521	1.89124592300504	1	0	NaN	3362305.9423893	NaN	3362306.9257829	3362307.44233248
80	18	0	0	90	36.1581920903955	36.241610738255	22	0.733387424275279	2	4	1	NaN	1	4	0.0233821743229072	1	1	NaN	9	1	9	1	121	221	321	NaN	521	0.817902822978795	1	1	NaN	3362310.1594661	NaN	3362311.1428597	3362311.65941978
80	18	0	0	90	36.1581920903955	36.241610738255	7	0.233350544087589	2	3	3	NaN	1	3	0.0233821743229072	1	1	NaN	10	1	10	1	121	221	321	NaN	521	0.380069465842098	1	1	NaN	3362313.2931031	NaN	3362314.2764969	3362314.79304753
80	18	0	0	90	36.1581920903955	36.241610738255	18	0.600044256225228	2	3	4	NaN	1	3	0.0233821743229072	1	1	NaN	11	1	11	1	121	221	321	NaN	521	3.10417692316696	1	1	NaN	3362315.9933105	NaN	3362316.9768346	3362317.49332058
80	18	0	0	90	36.1581920903955	36.241610738255	0	0	1	4	5	NaN	1	3	0.0233821743229072	1	1	NaN	12	1	12	1	111	211	311	NaN	511	0.998779870569706	2	0	NaN	3362321.410435	NaN	3362322.3939572	3362322.91051793
80	18	0	0	90	36.1581920903955	36.241610738255	6	0.200014752075076	2	3	1	NaN	1	5	0.0233821743229072	1	1	NaN	13	1	13	1	121	221	321	NaN	521	0.250193622894585	1	1	NaN	3362324.7275596	NaN	3362325.7109534	3362326.22751058
80	18	0	0	90	36.1581920903955	36.241610738255	7	0.233350544087589	2	10	6	NaN	2	5	0.0233821743229072	1	1	NaN	14	1	14	1	121	221	321	NaN	521	0.969673870131373	2	1	NaN	3362327.5278309	NaN	3362328.5112269	3362329.02778263
80	18	0	0	90	36.1581920903955	36.241610738255	19	0.633380048237741	2	6	5	NaN	1	5	0.0233821743229072	1	1	NaN	15	1	15	1	121	221	321	NaN	521	0.326337422709912	1	1	NaN	3362330.8114892	NaN	3362331.7948841	3362332.31144598
80	18	0	0	90	36.1581920903955	36.241610738255	6	0.200014752075076	2	3	6	NaN	1	4	0.0233821743229072	1	1	NaN	16	1	16	1	121	221	321	NaN	521	0.179775670170784	1	1	NaN	3362333.4617562	NaN	3362334.4452072	3362334.96170323
80	18	0	0	90	36.1581920903955	36.241610738255	20	0.666715840250254	2	9	5	NaN	2	5	0.0233821743229072	1	1	NaN	17	1	17	1	121	221	321	NaN	521	0.143440170679241	1	0	NaN	3362335.9619897	NaN	3362336.9453944	3362337.46194153
80	18	0	0	90	36.1581920903955	36.241610738255	11	0.36669371213764	2	5	5	NaN	1	5	0.0233821743229072	1	1	NaN	18	1	18	1	121	221	321	NaN	521	0.356624613050371	2	0	NaN	3362338.4289067	NaN	3362339.4122983	3362339.92884739
80	18	0	0	90	36.1581920903955	36.241610738255	21	0.700051632262766	2	5	6	NaN	1	5	0.0233821743229072	1	1	NaN	19	1	19	1	121	221	321	NaN	521	0.585847322829068	1	1	NaN	3362341.0958603	NaN	3362342.0792165	3362342.59579178
80	18	0	0	90	36.1581920903955	36.241610738255	12	0.400029504150152	2	12	4	NaN	2	3	0.0233821743229072	1	1	NaN	20	1	20	1	121	221	321	NaN	521	0.173559218179435	1	0	NaN	3362343.9959953	NaN	3362344.979519	3362345.49606108
80	18	0	0	90	36.1581920903955	36.241610738255	20	0.666715840250254	2	12	5	NaN	2	4	0.0233821743229072	1	1	NaN	21	1	21	1	121	221	321	NaN	521	2.93739712284878	2	1	NaN	3362346.4963763	NaN	3362347.4797771	3362347.99632118
80	18	0	0	90	36.1581920903955	36.241610738255	25	0.833394800312817	2	7	4	NaN	2	5	0.0233821743229072	1	1	NaN	22	1	22	1	121	221	321	NaN	521	1.73422612342983	2	1	NaN	3362351.7635492	NaN	3362352.7469353	3362353.26349578
80	18	0	0	90	36.1581920903955	36.241610738255	23	0.766723216287792	2	9	6	NaN	2	5	0.0233821743229072	1	1	NaN	23	1	23	1	121	221	321	NaN	521	0.363553422968835	2	1	NaN	3362355.8138895	NaN	3362356.7973468	3362357.31390288
80	18	0	0	90	36.1581920903955	36.241610738255	7	0.233350544087589	2	7	5	NaN	2	3	0.0233821743229072	1	1	NaN	24	1	24	1	121	221	321	NaN	521	3.45615807035938	2	1	NaN	3362358.4975416	NaN	3362359.4809292	3362359.99749463
80	18	0	0	90	36.1581920903955	36.241610738255	25	0.833394800312817	2	11	5	NaN	2	5	0.0233821743229072	1	1	NaN	25	1	25	1	121	221	321	NaN	521	1.76029942277819	2	1	NaN	3362364.2813909	NaN	3362365.2648512	3362365.78140088
80	18	0	0	90	36.1581920903955	36.241610738255	18	0.600044256225228	2	9	1	NaN	2	3	0.0233821743229072	1	1	NaN	26	1	26	1	121	221	321	NaN	521	0.188701517879963	1	0	NaN	3362368.3651689	NaN	3362369.3485706	3362369.86512428
80	18	0	0	90	36.1581920903955	36.241610738255	10	0.333357920125127	2	9	2	NaN	2	4	0.0233821743229072	1	1	NaN	27	1	27	1	121	221	321	NaN	521	0.687483123503625	2	1	NaN	3362370.8820903	NaN	3362371.8654891	3362372.38204708
80	18	0	0	90	36.1581920903955	36.241610738255	21	0.700051632262766	2	5	6	NaN	1	3	0.0233821743229072	1	1	NaN	28	1	28	1	121	221	321	NaN	521	0.703272870276123	2	0	NaN	3362373.8823851	NaN	3362374.8657732	3362375.38233833
80	18	0	0	90	36.1581920903955	36.241610738255	16	0.533372672200203	2	8	4	NaN	2	4	0.0233821743229072	1	1	NaN	29	1	29	1	121	221	321	NaN	521	1.65351332304999	2	1	NaN	3362376.9161017	NaN	3362377.8994217	3362378.41596718
80	18	0	0	90	36.1581920903955	36.241610738255	15	0.50003688018769	2	12	2	NaN	2	3	0.0233821743229072	1	1	NaN	30	1	30	1	121	221	321	NaN	521	0.277960770297796	2	1	NaN	3362380.8997156	NaN	3362381.8831435	3362382.39968753
80	18	0	0	90	36.1581920903955	36.241610738255	6	0.200014752075076	2	8	5	NaN	2	3	0.0233821743229072	1	1	NaN	31	1	31	1	121	221	321	NaN	521	0.213737408164889	1	0	NaN	3362383.4999979	NaN	3362384.4834009	3362384.99994179
80	18	0	0	90	36.1581920903955	36.241610738255	12	0.400029504150152	2	6	6	NaN	1	3	0.0233821743229072	1	1	NaN	32	1	32	1	121	221	321	NaN	521	3.12023642286658	2	0	NaN	3362386.0335691	NaN	3362387.0168747	3362387.53353648
80	18	0	0	90	36.1581920903955	36.241610738255	21	0.700051632262766	2	8	2	NaN	2	3	0.0233821743229072	1	1	NaN	33	1	33	1	121	221	321	NaN	521	5.93433402338997	2	1	NaN	3362391.4674356	NaN	3362392.4508473	3362392.96740488
80	18	0	0	90	36.1581920903955	36.241610738255	22	0.733387424275279	2	9	1	NaN	2	4	0.0233821743229072	1	1	NaN	34	1	34	1	121	221	321	NaN	521	0.25170892290771	2	1	NaN	3362399.7182654	NaN	3362400.701652	3362401.21821298
80	18	0	0	90	36.1581920903955	36.241610738255	6	0.200014752075076	2	11	6	NaN	2	4	0.0233821743229072	1	1	NaN	35	1	35	1	121	221	321	NaN	521	2.87640937045217	2	1	NaN	3362402.2850437	NaN	3362403.2685841	3362403.78512973
80	18	0	0	90	36.1581920903955	36.241610738255	17	0.566708464212716	2	9	3	NaN	2	4	0.0233821743229072	1	1	NaN	36	1	36	1	121	221	321	NaN	521	0.284232317935675	2	1	NaN	3362407.4856872	NaN	3362408.4690816	3362408.98563808
80	18	0	0	90	36.1581920903955	36.241610738255	11	0.36669371213764	2	2	2	NaN	1	5	0.0233821743229072	1	1	NaN	37	1	37	1	121	221	321	NaN	521	0.963963822927326	1	1	NaN	3362410.0860409	NaN	3362411.0693475	3362411.58590108
80	18	0	0	90	36.1581920903955	36.241610738255	0	0	1	3	1	NaN	1	3	0.0233821743229072	1	1	NaN	38	1	38	1	111	211	311	NaN	511	1.20023627020419	2	0	NaN	3362413.3695613	NaN	3362414.3529949	3362414.86955033
80	18	0	0	90	36.1581920903955	36.241610738255	6	0.200014752075076	2	11	4	NaN	2	5	0.0233821743229072	1	1	NaN	39	1	39	1	121	221	321	NaN	521	0.667381423059851	2	1	NaN	3362416.8865237	NaN	3362417.8700314	3362418.38656688
80	18	0	0	90	36.1581920903955	36.241610738255	10	0.333357920125127	2	5	4	NaN	1	4	0.0233821743229072	1	1	NaN	40	1	40	1	121	221	321	NaN	521	0.055407817941159	1	1	NaN	3362419.970239	NaN	3362420.9536427	3362421.47019508
80	18	0	0	90	36.1581920903955	36.241610738255	21	0.700051632262766	2	12	6	NaN	2	4	0.0233821743229072	1	1	NaN	41	1	41	1	121	221	321	NaN	521	0.616816323250532	2	1	NaN	3362422.3371567	NaN	3362423.3205454	3362423.83709368
80	18	0	0	90	36.1581920903955	36.241610738255	20	0.666715840250254	2	6	2	NaN	1	3	0.0233821743229072	1	1	NaN	42	1	42	1	121	221	321	NaN	521	0.115114170126617	1	1	NaN	3362425.2707703	NaN	3362426.2541608	3362426.77071963
80	18	0	0	90	36.1581920903955	36.241610738255	24	0.800059008300304	2	9	2	NaN	2	3	0.0233821743229072	1	1	NaN	43	1	43	1	121	221	321	NaN	521	0.089354123454541	1	0	NaN	3362427.7043172	NaN	3362428.6877454	3362429.20429018
80	18	0	0	90	36.1581920903955	36.241610738255	13	0.433365296162665	2	6	3	NaN	1	4	0.0233821743229072	1	1	NaN	44	1	44	1	121	221	321	NaN	521	0.698737170547247	1	1	NaN	3362430.2712562	NaN	3362431.2546514	3362431.77121613
80	18	0	0	90	36.1581920903955	36.241610738255	14	0.466701088175178	2	6	2	NaN	1	3	0.0233821743229072	1	1	NaN	45	1	45	1	121	221	321	NaN	521	0.337435223162174	2	0	NaN	3362433.288211	NaN	3362434.2716259	3362434.78817258
80	18	0	0	90	36.1581920903955	36.241610738255	12	0.400029504150152	2	7	3	NaN	2	5	0.0233821743229072	1	1	NaN	46	1	46	1	121	221	321	NaN	521	1.56735537061468	2	1	NaN	3362435.9385064	NaN	3362436.9218799	3362437.43843453
80	18	0	0	90	36.1581920903955	36.241610738255	10	0.333357920125127	2	10	6	NaN	2	5	0.0233821743229072	1	1	NaN	47	1	47	1	121	221	321	NaN	521	0.0513230231590569	1	0	NaN	3362439.8222036	NaN	3362440.8056669	3362441.32215448
80	18	0	0	90	36.1581920903955	36.241610738255	23	0.766723216287792	2	1	2	NaN	1	5	0.0233821743229072	1	1	NaN	48	1	48	1	121	221	321	NaN	521	0.356768465600908	1	1	NaN	3362442.1891035	NaN	3362443.1724915	3362443.68904073
80	18	0	0	90	36.1581920903955	36.241610738255	25	0.833394800312817	2	6	4	NaN	1	3	0.0233821743229072	1	1	NaN	49	1	49	1	121	221	321	NaN	521	0.185959670227021	1	1	NaN	3362444.8560622	NaN	3362445.8394256	3362446.35596923
80	18	0	0	90	36.1581920903955	36.241610738255	23	0.766723216287792	2	2	6	NaN	1	4	0.0233821743229072	1	1	NaN	50	1	50	1	121	221	321	NaN	521	0.349244870711118	2	0	NaN	3362447.3562723	NaN	3362448.339668	3362448.85621783
80	18	0	0	90	36.1581920903955	36.241610738255	16	0.533372672200203	2	10	2	NaN	2	3	0.0233821743229072	1	1	NaN	51	1	51	1	121	221	321	NaN	521	0.138472623191774	1	0	NaN	3362450.0232078	NaN	3362451.0066119	3362451.52315548
80	18	0	0	90	36.1581920903955	36.241610738255	23	0.766723216287792	2	3	6	NaN	1	3	0.0233821743229072	1	1	NaN	52	1	52	1	121	221	321	NaN	521	0.136336370371282	1	1	NaN	3362452.4734312	NaN	3362453.4568278	3362453.97339393
80	18	0	0	90	36.1581920903955	36.241610738255	9	0.300022128112614	2	7	4	NaN	2	4	0.0233821743229072	1	1	NaN	53	1	53	1	121	221	321	NaN	521	0.230249423068017	2	1	NaN	3362454.9236911	NaN	3362455.9071059	3362456.42365378
80	18	0	0	90	36.1581920903955	36.241610738255	15	0.50003688018769	2	11	6	NaN	2	3	0.0233821743229072	1	1	NaN	54	1	54	1	121	221	321	NaN	521	0.487793817650527	2	1	NaN	3362457.4739347	NaN	3362458.4573305	3362458.97388518
80	18	0	0	90	36.1581920903955	36.241610738255	8	0.266686336100101	2	2	3	NaN	1	3	0.0233821743229072	1	1	NaN	55	1	55	1	121	221	321	NaN	521	0.0103965229354799	1	1	NaN	3362460.2742539	NaN	3362461.2576148	3362461.77416128
80	18	0	0	90	36.1581920903955	36.241610738255	11	0.36669371213764	2	3	3	NaN	1	3	0.0233821743229072	1	1	NaN	56	1	56	1	121	221	321	NaN	521	0.0825175228528678	1	1	NaN	3362462.5909942	NaN	3362463.5745034	3362464.09105068
80	18	0	0	90	36.1581920903955	36.241610738255	15	0.50003688018769	2	1	5	NaN	1	4	0.0233821743229072	1	1	NaN	57	1	57	1	121	221	321	NaN	521	0.570336223114282	1	1	NaN	3362464.9912036	NaN	3362465.9747261	3362466.49129208
80	18	0	0	90	36.1581920903955	36.241610738255	8	0.266686336100101	2	7	1	NaN	2	4	0.0233821743229072	1	1	NaN	58	1	58	1	121	221	321	NaN	521	0.894727970473468	2	1	NaN	3362467.8749585	NaN	3362468.8583456	3362469.37490573
80	18	0	0	90	36.1581920903955	36.241610738255	20	0.666715840250254	2	11	5	NaN	2	3	0.0233821743229072	1	1	NaN	59	1	59	1	121	221	321	NaN	521	5.16689108498394	2	1	NaN	3362471.0752585	NaN	3362472.0586733	3362472.57522431
80	18	0	0	90	36.1581920903955	36.241610738255	9	0.300022128112614	2	12	6	NaN	2	5	0.0233821743229072	1	1	NaN	60	1	60	1	121	221	321	NaN	521	0.266366517636925	2	1	NaN	3362478.5593362	NaN	3362479.5427294	3362480.05928658
80	18	0	0	90	36.1581920903955	36.241610738255	17	0.566708464212716	2	5	2	NaN	1	4	0.0233821743229072	1	1	NaN	61	1	61	1	121	221	321	NaN	521	0.122756923083216	1	1	NaN	3362481.1429124	NaN	3362482.1263158	3362482.64287328
80	18	0	0	90	36.1581920903955	36.241610738255	0	0	1	4	1	NaN	1	3	0.0233821743229072	1	1	NaN	62	1	62	1	111	211	311	NaN	511	3.19323641806841	2	0	NaN	3362483.576364	NaN	3362484.5598826	3362485.07644858
80	18	0	0	90	36.1581920903955	36.241610738255	16	0.533372672200203	2	6	3	NaN	1	5	0.0233821743229072	1	1	NaN	63	1	63	1	121	221	321	NaN	521	0.212728570681065	1	1	NaN	3362489.0771295	NaN	3362490.0604391	3362490.57698053
80	18	0	0	90	36.1581920903955	36.241610738255	10	0.333357920125127	2	3	6	NaN	1	5	0.0233821743229072	1	1	NaN	64	2	1	1	121	221	321	NaN	521	0.775594523176551	1	1	NaN	3362496.1942701	NaN	3362497.177806	3362497.69435358
80	18	0	0	90	36.1581920903955	36.241610738255	12	0.400029504150152	2	7	4	NaN	2	3	0.0233821743229072	1	1	NaN	65	2	2	1	121	221	321	NaN	521	0.315091570373625	1	0	NaN	3362499.2947064	NaN	3362500.2780966	3362500.79465363
80	18	0	0	90	36.1581920903955	36.241610738255	21	0.700051632262766	2	2	1	NaN	1	5	0.0233821743229072	1	1	NaN	66	2	3	1	121	221	321	NaN	521	0.0102793425321579	2	0	NaN	3362501.9283181	NaN	3362502.9116996	3362503.42826086
80	18	0	0	90	36.1581920903955	36.241610738255	10	0.333357920125127	2	12	3	NaN	2	4	0.0233821743229072	1	1	NaN	67	2	4	1	121	221	321	NaN	521	0.260833670385182	2	1	NaN	3362504.2451888	NaN	3362505.2285912	3362505.74513693
80	18	0	0	90	36.1581920903955	36.241610738255	11	0.36669371213764	2	6	1	NaN	1	4	0.0233821743229072	1	1	NaN	68	2	5	1	121	221	321	NaN	521	0.11730812350288	1	1	NaN	3362506.8287699	NaN	3362507.8121788	3362508.32873698
80	18	0	0	90	36.1581920903955	36.241610738255	7	0.233350544087589	2	1	1	NaN	1	3	0.0233821743229072	1	1	NaN	69	2	6	1	121	221	321	NaN	521	0.219706670381129	1	1	NaN	3362509.2623572	NaN	3362510.2457495	3362510.76230343
80	18	0	0	90	36.1581920903955	36.241610738255	11	0.36669371213764	2	10	2	NaN	2	3	0.0233821743229072	1	1	NaN	70	2	7	1	121	221	321	NaN	521	0.150141423102468	1	0	NaN	3362511.7959219	NaN	3362512.7792361	3362513.29589208
80	18	0	0	90	36.1581920903955	36.241610738255	11	0.36669371213764	2	12	2	NaN	2	5	0.0233821743229072	1	1	NaN	71	2	8	1	121	221	321	NaN	521	0.37082937033847	1	0	NaN	3362514.2629014	NaN	3362515.2462393	3362515.76278893
80	18	0	0	90	36.1581920903955	36.241610738255	16	0.533372672200203	2	1	2	NaN	1	5	0.0233821743229072	1	1	NaN	72	2	9	1	121	221	321	NaN	521	0.167261170223355	1	1	NaN	3362516.9464396	NaN	3362517.9298464	3362518.44639063
80	18	0	0	90	36.1581920903955	36.241610738255	15	0.50003688018769	2	8	2	NaN	2	4	0.0233821743229072	1	1	NaN	73	2	10	1	121	221	321	NaN	521	1.33208897057921	1	0	NaN	3362519.4299982	NaN	3362520.4134124	3362520.92996893
80	18	0	0	90	36.1581920903955	36.241610738255	25	0.833394800312817	2	3	2	NaN	1	5	0.0233821743229072	1	1	NaN	74	2	11	1	121	221	321	NaN	521	0.30541802290827	2	0	NaN	3362523.0803699	NaN	3362524.0637803	3362524.58033328
80	18	0	0	90	36.1581920903955	36.241610738255	22	0.733387424275279	2	10	2	NaN	2	5	0.0233821743229072	1	1	NaN	75	2	12	1	121	221	321	NaN	521	0.240441870409995	1	0	NaN	3362525.6972972	NaN	3362526.6806822	3362527.19724953
80	18	0	0	90	36.1581920903955	36.241610738255	14	0.466701088175178	2	2	6	NaN	1	4	0.0233821743229072	1	1	NaN	76	2	13	1	121	221	321	NaN	521	0.210428323131055	1	1	NaN	3362528.2475431	NaN	3362529.230934	3362529.74750648
80	18	0	0	90	36.1581920903955	36.241610738255	23	0.766723216287792	2	5	2	NaN	1	5	0.0233821743229072	1	1	NaN	77	2	14	1	121	221	321	NaN	521	0.165489070117474	1	1	NaN	3362530.7644509	NaN	3362531.7479017	3362532.26440893
80	18	0	0	90	36.1581920903955	36.241610738255	11	0.36669371213764	2	7	5	NaN	2	5	0.0233821743229072	1	1	NaN	78	2	15	1	121	221	321	NaN	521	0.189343423116952	2	1	NaN	3362533.3647039	NaN	3362534.3481244	3362534.86467528
80	18	0	0	90	36.1581920903955	36.241610738255	18	0.600044256225228	2	10	4	NaN	2	3	0.0233821743229072	1	1	NaN	79	2	16	1	121	221	321	NaN	521	0.616903370246291	1	0	NaN	3362535.8648474	NaN	3362536.8483563	3362537.36491263
80	18	0	0	90	36.1581920903955	36.241610738255	16	0.533372672200203	2	4	5	NaN	1	4	0.0233821743229072	1	1	NaN	80	2	17	1	121	221	321	NaN	521	2.28684412268922	1	1	NaN	3362538.9152371	NaN	3362539.8986628	3362540.41521608
80	18	0	0	90	36.1581920903955	36.241610738255	14	0.466701088175178	2	9	6	NaN	2	3	0.0233821743229072	1	1	NaN	81	2	18	1	121	221	321	NaN	521	0.250603870488703	2	1	NaN	3362543.5990721	NaN	3362544.5824567	3362545.09900913
80	18	0	0	90	36.1581920903955	36.241610738255	7	0.233350544087589	2	4	4	NaN	1	4	0.0233821743229072	1	1	NaN	82	2	19	1	121	221	321	NaN	521	0.284125423058867	2	0	NaN	3362546.1659781	NaN	3362547.1493779	3362547.66593368
80	18	0	0	90	36.1581920903955	36.241610738255	21	0.700051632262766	2	10	5	NaN	2	5	0.0233821743229072	1	1	NaN	83	2	20	1	121	221	321	NaN	521	1.88341244263574	2	1	NaN	3362548.7662262	NaN	3362549.7496232	3362550.26618266
80	18	0	0	90	36.1581920903955	36.241610738255	10	0.333357920125127	2	10	6	NaN	2	4	0.0233821743229072	1	1	NaN	84	2	21	1	121	221	321	NaN	521	0.331539723090827	1	0	NaN	3362552.9666428	NaN	3362553.9499491	3362554.46659888
80	18	0	0	90	36.1581920903955	36.241610738255	25	0.833394800312817	2	10	1	NaN	2	3	0.0233821743229072	1	1	NaN	85	2	22	1	121	221	321	NaN	521	2.84921397035941	1	0	NaN	3362555.6169089	NaN	3362556.6003039	3362557.11685243
80	18	0	0	90	36.1581920903955	36.241610738255	23	0.766723216287792	2	8	6	NaN	2	3	0.0233821743229072	1	1	NaN	86	2	23	1	121	221	321	NaN	521	0.753847222775221	1	0	NaN	3362560.7840751	NaN	3362561.7674746	3362562.28403408
80	18	0	0	90	36.1581920903955	36.241610738255	16	0.533372672200203	2	2	2	NaN	1	5	0.0233821743229072	1	1	NaN	87	2	24	1	121	221	321	NaN	521	0.302873970475048	1	1	NaN	3362563.8510532	NaN	3362564.8344393	3362565.35099123
80	18	0	0	90	36.1581920903955	36.241610738255	20	0.666715840250254	2	10	4	NaN	2	4	0.0233821743229072	1	1	NaN	88	2	25	1	121	221	321	NaN	521	0.293625870719552	2	1	NaN	3362566.467985	NaN	3362567.451368	3362567.96792343
80	18	0	0	90	36.1581920903955	36.241610738255	24	0.800059008300304	2	1	1	NaN	1	3	0.0233821743229072	1	1	NaN	89	2	26	1	121	221	321	NaN	521	0.0937225702218711	1	1	NaN	3362569.0681821	NaN	3362570.0516379	3362570.56817643
80	18	0	0	90	36.1581920903955	36.241610738255	17	0.566708464212716	2	2	2	NaN	1	5	0.0233821743229072	1	1	NaN	90	2	27	1	121	221	321	NaN	521	0.132819870486856	1	1	NaN	3362571.485128	NaN	3362572.4685471	3362572.98507503
80	18	0	0	90	36.1581920903955	36.241610738255	16	0.533372672200203	2	2	3	NaN	1	4	0.0233821743229072	1	1	NaN	91	2	28	1	121	221	321	NaN	521	0.434368870221078	2	0	NaN	3362573.935372	NaN	3362574.9187713	3362575.43531693
80	18	0	0	90	36.1581920903955	36.241610738255	10	0.333357920125127	2	5	2	NaN	1	3	0.0233821743229072	1	1	NaN	92	2	29	1	121	221	321	NaN	521	0.348551322706044	2	0	NaN	3362576.6856329	NaN	3362577.6690604	3362578.18559358
80	18	0	0	90	36.1581920903955	36.241610738255	14	0.466701088175178	2	12	6	NaN	2	5	0.0233821743229072	1	1	NaN	93	2	30	1	121	221	321	NaN	521	0.289243417792022	2	1	NaN	3362579.352614	NaN	3362580.3359681	3362580.85251758
80	18	0	0	90	36.1581920903955	36.241610738255	14	0.466701088175178	2	8	4	NaN	2	5	0.0233821743229072	1	1	NaN	94	2	31	1	121	221	321	NaN	521	0.697295723017305	2	1	NaN	3362581.9528661	NaN	3362582.9362094	3362583.45278178
80	18	0	0	90	36.1581920903955	36.241610738255	18	0.600044256225228	2	9	1	NaN	2	3	0.0233821743229072	1	1	NaN	95	2	32	1	121	221	321	NaN	521	0.320822122972459	1	0	NaN	3362584.9531473	NaN	3362585.9365174	3362586.45307118
80	18	0	0	90	36.1581920903955	36.241610738255	11	0.36669371213764	2	6	5	NaN	1	4	0.0233821743229072	1	1	NaN	96	2	33	1	121	221	321	NaN	521	1.73494322318584	2	0	NaN	3362587.5867092	NaN	3362588.5701165	3362589.08666478
80	18	0	0	90	36.1581920903955	36.241610738255	19	0.633380048237741	2	3	6	NaN	1	5	0.0233821743229072	1	1	NaN	97	2	34	1	121	221	321	NaN	521	0.0608271700330079	1	1	NaN	3362591.637109	NaN	3362592.6205113	3362593.13705673
80	18	0	0	90	36.1581920903955	36.241610738255	7	0.233350544087589	2	12	2	NaN	2	5	0.0233821743229072	1	1	NaN	98	2	35	1	121	221	321	NaN	521	0.638288022950292	2	1	NaN	3362594.0040121	NaN	3362594.987504	3362595.50395858
80	18	0	0	90	36.1581920903955	36.241610738255	17	0.566708464212716	2	2	4	NaN	1	4	0.0233821743229072	1	1	NaN	99	2	36	1	121	221	321	NaN	521	0.239846522919834	2	0	NaN	3362596.9542967	NaN	3362597.93769	3362598.45425538
80	18	0	0	90	36.1581920903955	36.241610738255	14	0.466701088175178	2	9	5	NaN	2	5	0.0233821743229072	1	1	NaN	100	2	37	1	121	221	321	NaN	521	0.305167027749121	2	1	NaN	3362599.5045789	NaN	3362600.4879802	3362601.00449677
80	18	0	0	90	36.1581920903955	36.241610738255	22	0.733387424275279	2	11	5	NaN	2	5	0.0233821743229072	1	1	NaN	101	2	38	1	121	221	321	NaN	521	1.06422877078876	2	1	NaN	3362602.1214722	NaN	3362603.1047884	3362603.62141833
80	18	0	0	90	36.1581920903955	36.241610738255	6	0.200014752075076	2	8	5	NaN	2	3	0.0233821743229072	1	1	NaN	102	2	39	1	121	221	321	NaN	521	0.481398622971028	2	1	NaN	3362605.4885586	NaN	3362606.4718664	3362606.98842478
80	18	0	0	90	36.1581920903955	36.241610738255	9	0.300022128112614	2	7	3	NaN	2	5	0.0233821743229072	1	1	NaN	103	2	40	1	121	221	321	NaN	521	0.473476870451123	2	1	NaN	3362608.2886234	NaN	3362609.2721435	3362609.78869013
80	18	0	0	90	36.1581920903955	36.241610738255	12	0.400029504150152	2	10	2	NaN	2	5	0.0233821743229072	1	1	NaN	104	2	41	1	121	221	321	NaN	521	0.153673022985458	1	0	NaN	3362611.0723572	NaN	3362612.055749	3362612.57230898
80	18	0	0	90	36.1581920903955	36.241610738255	13	0.433365296162665	2	4	4	NaN	1	3	0.0233821743229072	1	1	NaN	105	2	42	1	121	221	321	NaN	521	0.518492517992854	2	0	NaN	3362613.5392639	NaN	3362614.5226607	3362615.03921178
80	18	0	0	90	36.1581920903955	36.241610738255	25	0.833394800312817	2	7	6	NaN	2	5	0.0233821743229072	1	1	NaN	106	2	43	1	121	221	321	NaN	521	0.13326102308929	1	0	NaN	3362616.3729499	NaN	3362617.3562698	3362617.87282548
80	18	0	0	90	36.1581920903955	36.241610738255	23	0.766723216287792	2	4	6	NaN	1	5	0.0233821743229072	1	1	NaN	107	2	44	1	121	221	321	NaN	521	0.482783270534128	2	0	NaN	3362618.8231051	NaN	3362619.8065041	3362620.32308413
80	18	0	0	90	36.1581920903955	36.241610738255	17	0.566708464212716	2	8	6	NaN	2	5	0.0233821743229072	1	1	NaN	108	2	45	1	121	221	321	NaN	521	0.466781760565937	2	1	NaN	3362621.6233927	NaN	3362622.6068167	3362623.12334114
80	18	0	0	90	36.1581920903955	36.241610738255	9	0.300022128112614	2	10	5	NaN	2	5	0.0233821743229072	1	1	NaN	109	2	46	1	121	221	321	NaN	521	0.419037570711225	1	0	NaN	3362624.4070046	NaN	3362625.3903917	3362625.90694433
80	18	0	0	90	36.1581920903955	36.241610738255	18	0.600044256225228	2	10	3	NaN	2	5	0.0233821743229072	1	1	NaN	110	2	47	1	121	221	321	NaN	521	0.309049670118839	2	1	NaN	3362627.1406191	NaN	3362628.1239932	3362628.64054353
80	18	0	0	90	36.1581920903955	36.241610738255	22	0.733387424275279	2	12	2	NaN	2	3	0.0233821743229072	1	1	NaN	111	2	48	1	121	221	321	NaN	521	0.331994123291224	2	1	NaN	3362629.7741996	NaN	3362630.7574857	3362631.27414528
80	18	0	0	90	36.1581920903955	36.241610738255	20	0.666715840250254	2	11	2	NaN	2	5	0.0233821743229072	1	1	NaN	112	2	49	1	121	221	321	NaN	521	0.113933622837067	1	0	NaN	3362632.4076775	NaN	3362633.3911892	3362633.90773578
80	18	0	0	90	36.1581920903955	36.241610738255	21	0.700051632262766	2	11	3	NaN	2	4	0.0233821743229072	1	1	NaN	113	2	50	1	121	221	321	NaN	521	0.56861422304064	1	0	NaN	3362634.8413391	NaN	3362635.8247814	3362636.34130978
80	18	0	0	90	36.1581920903955	36.241610738255	6	0.200014752075076	2	1	2	NaN	1	5	0.0233821743229072	1	1	NaN	114	2	51	1	121	221	321	NaN	521	0.317051423247904	2	0	NaN	3362637.7249637	NaN	3362638.7083768	3362639.22492528
80	18	0	0	90	36.1581920903955	36.241610738255	18	0.600044256225228	2	7	1	NaN	2	3	0.0233821743229072	1	1	NaN	115	2	52	1	121	221	321	NaN	521	0.307445070706308	2	1	NaN	3362640.3585604	NaN	3362641.3419593	3362641.85850993
80	18	0	0	90	36.1581920903955	36.241610738255	14	0.466701088175178	2	6	4	NaN	1	5	0.0233821743229072	1	1	NaN	116	2	53	1	121	221	321	NaN	521	0.162732722703367	1	1	NaN	3362642.9755088	NaN	3362643.9588901	3362644.47543098
80	18	0	0	90	36.1581920903955	36.241610738255	24	0.800059008300304	2	2	5	NaN	1	5	0.0233821743229072	1	1	NaN	117	2	54	1	121	221	321	NaN	521	0.359620270319283	2	0	NaN	3362645.4424143	NaN	3362646.4258314	3362646.94234303
80	18	0	0	90	36.1581920903955	36.241610738255	7	0.233350544087589	2	11	3	NaN	2	4	0.0233821743229072	1	1	NaN	118	2	55	1	121	221	321	NaN	521	0.308934670407325	2	1	NaN	3362648.1093131	NaN	3362649.0927234	3362649.60926623
80	18	0	0	90	36.1581920903955	36.241610738255	16	0.533372672200203	2	12	5	NaN	2	4	0.0233821743229072	1	1	NaN	119	2	56	1	121	221	321	NaN	521	0.795622470788658	2	1	NaN	3362650.7262537	NaN	3362651.7096351	3362652.22620093
80	18	0	0	90	36.1581920903955	36.241610738255	10	0.333357920125127	2	8	3	NaN	2	3	0.0233821743229072	1	1	NaN	120	2	57	1	121	221	321	NaN	521	0.263426223304123	2	1	NaN	3362653.8265503	NaN	3362654.8099581	3362655.32650758
80	18	0	0	90	36.1581920903955	36.241610738255	13	0.433365296162665	2	9	2	NaN	2	4	0.0233821743229072	1	1	NaN	121	2	58	1	121	221	321	NaN	521	0.287901870440692	2	1	NaN	3362656.4101635	NaN	3362657.3935295	3362657.91009343
80	18	0	0	90	36.1581920903955	36.241610738255	9	0.300022128112614	2	9	6	NaN	2	4	0.0233821743229072	1	1	NaN	122	2	59	1	121	221	321	NaN	521	0.42369732260704	2	1	NaN	3362659.010393	NaN	3362659.9937872	3362660.51034748
80	18	0	0	90	36.1581920903955	36.241610738255	13	0.433365296162665	2	11	2	NaN	2	5	0.0233821743229072	1	1	NaN	123	2	60	1	121	221	321	NaN	521	0.233851670287549	2	1	NaN	3362661.7439934	NaN	3362662.7273926	3362663.24393953
80	18	0	0	90	36.1581920903955	36.241610738255	7	0.233350544087589	2	5	6	NaN	1	3	0.0233821743229072	1	1	NaN	124	2	61	1	121	221	321	NaN	521	0.147832523100078	1	1	NaN	3362664.2942556	NaN	3362665.2776729	3362665.79419558
80	18	0	0	90	36.1581920903955	36.241610738255	24	0.800059008300304	2	3	2	NaN	1	5	0.0233821743229072	1	1	NaN	125	2	62	1	121	221	321	NaN	521	0.112587370444089	1	1	NaN	3362666.7611469	NaN	3362667.7445515	3362668.26109993
80	18	0	0	90	36.1581920903955	36.241610738255	18	0.600044256225228	2	3	4	NaN	1	3	0.0233821743229072	1	1	NaN	126	2	63	1	121	221	321	NaN	521	0.240197123028338	1	1	NaN	3362669.1780611	NaN	3362670.1614453	3362670.67801158
80	18	0	0	90	36.1581920903955	36.241610738255	11	0.36669371213764	2	12	4	NaN	2	5	0.0233821743229072	1	1	NaN	127	3	1	1	121	221	321	NaN	521	1.74435622291639	2	1	NaN	3362677.5454913	NaN	3362678.5289348	3362679.04549828
80	18	0	0	90	36.1581920903955	36.241610738255	22	0.733387424275279	2	8	1	NaN	2	4	0.0233821743229072	1	1	NaN	128	3	2	1	121	221	321	NaN	521	0.198157418053597	2	1	NaN	3362681.5959513	NaN	3362682.5793374	3362683.09589128
80	18	0	0	90	36.1581920903955	36.241610738255	19	0.633380048237741	2	2	1	NaN	1	3	0.0233821743229072	1	1	NaN	129	3	3	1	121	221	321	NaN	521	1.61802104255185	2	0	NaN	3362684.0961799	NaN	3362685.0795898	3362685.59614726
80	18	0	0	90	36.1581920903955	36.241610738255	7	0.233350544087589	2	6	4	NaN	1	5	0.0233821743229072	1	1	NaN	130	3	4	1	121	221	321	NaN	521	0.875876422971487	2	0	NaN	3362688.0299059	NaN	3362689.0133197	3362689.52986778
80	18	0	0	90	36.1581920903955	36.241610738255	14	0.466701088175178	2	11	2	NaN	2	5	0.0233821743229072	1	1	NaN	131	3	5	1	121	221	321	NaN	521	0.572550970129669	2	1	NaN	3362691.2136077	NaN	3362692.1969625	3362692.71350783
80	18	0	0	90	36.1581920903955	36.241610738255	12	0.400029504150152	2	4	4	NaN	1	4	0.0233821743229072	1	1	NaN	132	3	6	1	121	221	321	NaN	521	0.0104021704755723	1	1	NaN	3362694.0970922	NaN	3362695.0806172	3362695.59712543
80	18	0	0	90	36.1581920903955	36.241610738255	8	0.266686336100101	2	11	5	NaN	2	3	0.0233821743229072	1	1	NaN	133	3	7	1	121	221	321	NaN	521	0.163650323171169	2	1	NaN	3362696.4139655	NaN	3362697.3974551	3362697.91401508
80	18	0	0	90	36.1581920903955	36.241610738255	18	0.600044256225228	2	2	5	NaN	1	5	0.0233821743229072	1	1	NaN	134	3	8	1	121	221	321	NaN	521	0.224723270628601	1	1	NaN	3362698.8808287	NaN	3362699.8643585	3362700.38092853
80	18	0	0	90	36.1581920903955	36.241610738255	15	0.50003688018769	2	11	5	NaN	2	4	0.0233821743229072	1	1	NaN	135	3	9	1	121	221	321	NaN	521	0.130259423051029	1	0	NaN	3362702.0479537	NaN	3362703.0313603	3362703.54790488
80	18	0	0	90	36.1581920903955	36.241610738255	19	0.633380048237741	2	3	4	NaN	1	3	0.0233821743229072	1	1	NaN	136	3	10	1	121	221	321	NaN	521	0.328840270638466	1	1	NaN	3362704.4813916	NaN	3362705.4649182	3362705.98147043
80	18	0	0	90	36.1581920903955	36.241610738255	22	0.733387424275279	2	7	2	NaN	2	4	0.0233821743229072	1	1	NaN	137	3	11	1	121	221	321	NaN	521	0.319048422854394	1	0	NaN	3362707.1151201	NaN	3362708.0985233	3362708.61507428
80	18	0	0	90	36.1581920903955	36.241610738255	19	0.633380048237741	2	9	2	NaN	2	4	0.0233821743229072	1	1	NaN	138	3	12	1	121	221	321	NaN	521	0.0933076231740415	1	0	NaN	3362709.748709	NaN	3362710.7321001	3362711.24867528
80	18	0	0	90	36.1581920903955	36.241610738255	0	0	1	8	5	NaN	2	3	0.0233821743229072	1	1	NaN	139	3	13	1	111	211	311	NaN	511	0.124384522903711	2	1	NaN	3362712.1656053	NaN	3362713.1490046	3362713.66556778
80	18	0	0	90	36.1581920903955	36.241610738255	0	0	1	3	5	NaN	1	5	0.0233821743229072	1	1	NaN	140	3	14	1	111	211	311	NaN	511	0.106893670279533	2	0	NaN	3362714.5991956	NaN	3362715.5825769	3362716.09913693
80	18	0	0	90	36.1581920903955	36.241610738255	15	0.50003688018769	2	6	1	NaN	1	5	0.0233821743229072	1	1	NaN	141	3	15	1	121	221	321	NaN	521	0.305871522985399	1	1	NaN	3362717.016097	NaN	3362717.9994953	3362718.51604518
80	18	0	0	90	36.1581920903955	36.241610738255	22	0.733387424275279	2	7	2	NaN	2	4	0.0233821743229072	1	1	NaN	142	3	16	1	121	221	321	NaN	521	0.121012170333415	1	0	NaN	3362719.6328629	NaN	3362720.6164392	3362721.13296023
80	18	0	0	90	36.1581920903955	36.241610738255	8	0.266686336100101	2	2	3	NaN	1	3	0.0233821743229072	1	1	NaN	143	3	17	1	121	221	321	NaN	521	0.0103882229886949	1	1	NaN	3362722.066587	NaN	3362723.0499873	3362723.56653688
80	18	0	0	90	36.1581920903955	36.241610738255	24	0.800059008300304	2	8	5	NaN	2	3	0.0233821743229072	1	1	NaN	144	3	18	1	121	221	321	NaN	521	0.130773738026619	1	0	NaN	3362724.3834846	NaN	3362725.3668663	3362725.88344216
80	18	0	0	90	36.1581920903955	36.241610738255	24	0.800059008300304	2	4	6	NaN	1	4	0.0233821743229072	1	1	NaN	145	3	19	1	121	221	321	NaN	521	0.136414828244597	1	1	NaN	3362726.8337214	NaN	3362727.8171158	3362728.33367897
80	18	0	0	90	36.1581920903955	36.241610738255	20	0.666715840250254	2	2	1	NaN	1	5	0.0233821743229072	1	1	NaN	146	3	20	1	121	221	321	NaN	521	0.350057570729405	2	0	NaN	3362729.2839625	NaN	3362730.2673595	3362730.78391553
80	18	0	0	90	36.1581920903955	36.241610738255	25	0.833394800312817	2	9	5	NaN	2	3	0.0233821743229072	1	1	NaN	147	3	21	1	121	221	321	NaN	521	0.121786322910339	2	1	NaN	3362732.384264	NaN	3362733.3676661	3362733.88422428
80	18	0	0	90	36.1581920903955	36.241610738255	21	0.700051632262766	2	10	4	NaN	2	3	0.0233821743229072	1	1	NaN	148	3	22	1	121	221	321	NaN	521	0.0475235707126558	2	1	NaN	3362735.2345385	NaN	3362736.2179374	3362736.73448923
80	18	0	0	90	36.1581920903955	36.241610738255	21	0.700051632262766	2	12	3	NaN	2	5	0.0233821743229072	1	1	NaN	149	3	23	1	121	221	321	NaN	521	1.06490947026759	2	1	NaN	3362737.6014464	NaN	3362738.5848548	3362739.10139303
80	18	0	0	90	36.1581920903955	36.241610738255	17	0.566708464212716	2	10	1	NaN	2	3	0.0233821743229072	1	1	NaN	150	3	24	1	121	221	321	NaN	521	0.129117870237678	2	1	NaN	3362740.9850853	NaN	3362741.9685115	3362742.48506033
80	18	0	0	90	36.1581920903955	36.241610738255	17	0.566708464212716	2	6	4	NaN	1	5	0.0233821743229072	1	1	NaN	151	3	25	1	121	221	321	NaN	521	0.359749170485884	2	0	NaN	3362743.4186812	NaN	3362744.4020895	3362744.91862713
80	18	0	0	90	36.1581920903955	36.241610738255	13	0.433365296162665	2	8	4	NaN	2	4	0.0233821743229072	1	1	NaN	152	3	26	1	121	221	321	NaN	521	0.532391670159996	2	1	NaN	3362746.0856227	NaN	3362747.0690121	3362747.58556503
80	18	0	0	90	36.1581920903955	36.241610738255	9	0.300022128112614	2	2	3	NaN	1	3	0.0233821743229072	1	1	NaN	153	3	27	1	121	221	321	NaN	521	0.114213570021093	2	0	NaN	3362748.9357462	NaN	3362749.919303	3362750.43584243
80	18	0	0	90	36.1581920903955	36.241610738255	20	0.666715840250254	2	10	3	NaN	2	3	0.0233821743229072	1	1	NaN	154	3	28	1	121	221	321	NaN	521	0.2569195702672	2	1	NaN	3362751.369464	NaN	3362752.3528673	3362752.86941473
80	18	0	0	90	36.1581920903955	36.241610738255	12	0.400029504150152	2	9	4	NaN	2	3	0.0233821743229072	1	1	NaN	155	3	29	1	121	221	321	NaN	521	0.250022222753614	1	0	NaN	3362753.9363836	NaN	3362754.9197772	3362755.43633988
80	18	0	0	90	36.1581920903955	36.241610738255	12	0.400029504150152	2	4	6	NaN	1	5	0.0233821743229072	1	1	NaN	156	3	30	1	121	221	321	NaN	521	0.0587845179252326	1	1	NaN	3362756.5033008	NaN	3362757.4866972	3362758.00325368
80	18	0	0	90	36.1581920903955	36.241610738255	15	0.50003688018769	2	3	1	NaN	1	5	0.0233821743229072	1	1	NaN	157	3	31	1	121	221	321	NaN	521	0.228082217741758	2	0	NaN	3362758.8700795	NaN	3362759.853601	3362760.37014658
80	18	0	0	90	36.1581920903955	36.241610738255	13	0.433365296162665	2	5	3	NaN	1	4	0.0233821743229072	1	1	NaN	158	3	32	1	121	221	321	NaN	521	0.286350070498884	2	0	NaN	3362761.4036697	NaN	3362762.3871712	3362762.90373813
80	18	0	0	90	36.1581920903955	36.241610738255	16	0.533372672200203	2	5	2	NaN	1	5	0.0233821743229072	1	1	NaN	159	3	33	1	121	221	321	NaN	521	0.206028422806412	2	0	NaN	3362764.0040891	NaN	3362764.9874455	3362765.50399568
80	18	0	0	90	36.1581920903955	36.241610738255	22	0.733387424275279	2	2	6	NaN	1	5	0.0233821743229072	1	1	NaN	160	3	34	1	121	221	321	NaN	521	0.0891772233881056	1	1	NaN	3362766.5209447	NaN	3362767.5043542	3362768.02089578
80	18	0	0	90	36.1581920903955	36.241610738255	9	0.300022128112614	2	6	1	NaN	1	3	0.0233821743229072	1	1	NaN	161	3	35	1	121	221	321	NaN	521	0.225239095278084	1	1	NaN	3362768.9211906	NaN	3362769.9045989	3362770.4211511
80	18	0	0	90	36.1581920903955	36.241610738255	25	0.833394800312817	2	9	2	NaN	2	4	0.0233821743229072	1	1	NaN	162	3	36	1	121	221	321	NaN	521	1.06745277019218	1	0	NaN	3362771.4548762	NaN	3362772.4381581	3362772.95471813
80	18	0	0	90	36.1581920903955	36.241610738255	24	0.800059008300304	2	11	4	NaN	2	5	0.0233821743229072	1	1	NaN	163	3	37	1	121	221	321	NaN	521	0.2278405232355	1	0	NaN	3362774.8384153	NaN	3362775.8218372	3362776.33838928
80	18	0	0	90	36.1581920903955	36.241610738255	13	0.433365296162665	2	2	5	NaN	1	4	0.0233821743229072	1	1	NaN	164	3	38	1	121	221	321	NaN	521	0.118146017659456	1	1	NaN	3362777.3721111	NaN	3362778.3554015	3362778.87196018
80	18	0	0	90	36.1581920903955	36.241610738255	9	0.300022128112614	2	4	1	NaN	1	5	0.0233821743229072	1	1	NaN	165	3	39	1	121	221	321	NaN	521	0.0104763703420758	2	0	NaN	3362779.8055866	NaN	3362780.7889963	3362781.30553453
80	18	0	0	90	36.1581920903955	36.241610738255	14	0.466701088175178	2	8	6	NaN	2	5	0.0233821743229072	1	1	NaN	166	3	40	1	121	221	321	NaN	521	0.247923570219427	2	1	NaN	3362782.1223855	NaN	3362783.1059691	3362783.62243863
80	18	0	0	90	36.1581920903955	36.241610738255	0	0	1	6	5	NaN	1	3	0.0233821743229072	1	1	NaN	167	3	41	1	111	211	311	NaN	511	0.168733322992921	1	1	NaN	3362784.6894064	NaN	3362785.6727952	3362786.18935928
80	18	0	0	90	36.1581920903955	36.241610738255	23	0.766723216287792	2	11	1	NaN	2	5	0.0233821743229072	1	1	NaN	168	3	42	1	121	221	321	NaN	521	0.293185170274228	2	1	NaN	3362787.1729893	NaN	3362788.1563747	3362788.67292673
80	18	0	0	90	36.1581920903955	36.241610738255	12	0.400029504150152	2	3	5	NaN	1	4	0.0233821743229072	1	1	NaN	169	3	43	1	121	221	321	NaN	521	0.179855823051184	2	0	NaN	3362790.0064645	NaN	3362790.9899986	3362791.50654528
80	18	0	0	90	36.1581920903955	36.241610738255	10	0.333357920125127	2	6	2	NaN	1	5	0.0233821743229072	1	1	NaN	170	3	44	1	121	221	321	NaN	521	0.15133056556806	1	1	NaN	3362792.506859	NaN	3362793.4902289	3362794.00677923
80	18	0	0	90	36.1581920903955	36.241610738255	19	0.633380048237741	2	11	2	NaN	2	5	0.0233821743229072	1	1	NaN	171	3	45	1	121	221	321	NaN	521	0.140342222992331	1	0	NaN	3362794.9737309	NaN	3362795.9571453	3362796.47370118
80	18	0	0	90	36.1581920903955	36.241610738255	10	0.333357920125127	2	9	3	NaN	2	3	0.0233821743229072	1	1	NaN	172	3	46	1	121	221	321	NaN	521	0.0104090701788664	1	0	NaN	3362797.4239573	NaN	3362798.4073786	3362798.92393623
80	18	0	0	90	36.1581920903955	36.241610738255	8	0.266686336100101	2	10	4	NaN	2	3	0.0233821743229072	1	1	NaN	173	3	47	1	121	221	321	NaN	521	0.28440652275458	1	0	NaN	3362799.7575442	NaN	3362800.7409561	3362801.25750318
80	18	0	0	90	36.1581920903955	36.241610738255	25	0.833394800312817	2	2	6	NaN	1	4	0.0233821743229072	1	1	NaN	174	3	48	1	121	221	321	NaN	521	0.196195070631802	2	0	NaN	3362802.3578354	NaN	3362803.3412008	3362803.85776123
80	18	0	0	90	36.1581920903955	36.241610738255	11	0.36669371213764	2	7	4	NaN	2	5	0.0233821743229072	1	1	NaN	175	3	49	1	121	221	321	NaN	521	0.199831370729953	1	0	NaN	3362804.8747142	NaN	3362805.8581165	3362806.37466463
80	18	0	0	90	36.1581920903955	36.241610738255	12	0.400029504150152	2	2	4	NaN	1	5	0.0233821743229072	1	1	NaN	176	3	50	1	121	221	321	NaN	521	0.322464822791517	1	1	NaN	3362807.3916302	NaN	3362808.3750305	3362808.89157898
80	18	0	0	90	36.1581920903955	36.241610738255	19	0.633380048237741	2	4	2	NaN	1	4	0.0233821743229072	1	1	NaN	177	3	51	1	121	221	321	NaN	521	0.20930517045781	1	1	NaN	3362810.0252176	NaN	3362811.0086362	3362811.52516723
80	18	0	0	90	36.1581920903955	36.241610738255	6	0.200014752075076	2	6	4	NaN	1	5	0.0233821743229072	1	1	NaN	178	3	52	1	121	221	321	NaN	521	0.171725317835808	1	1	NaN	3362812.5588077	NaN	3362813.5421868	3362814.05875878
80	18	0	0	90	36.1581920903955	36.241610738255	23	0.766723216287792	2	6	3	NaN	1	4	0.0233821743229072	1	1	NaN	179	3	53	1	121	221	321	NaN	521	0.0798592232167721	1	1	NaN	3362815.0422733	NaN	3362816.0257682	3362816.54234068
80	18	0	0	90	36.1581920903955	36.241610738255	17	0.566708464212716	2	5	4	NaN	1	4	0.0233821743229072	1	1	NaN	180	3	54	1	121	221	321	NaN	521	0.215528370346874	2	0	NaN	3362817.442623	NaN	3362818.426015	3362818.94256603
80	18	0	0	90	36.1581920903955	36.241610738255	9	0.300022128112614	2	5	5	NaN	1	3	0.0233821743229072	1	1	NaN	181	3	55	1	121	221	321	NaN	521	0.186063623055816	2	0	NaN	3362819.976192	NaN	3362820.9596025	3362821.47615548
80	18	0	0	90	36.1581920903955	36.241610738255	17	0.566708464212716	2	1	5	NaN	1	4	0.0233821743229072	1	1	NaN	182	3	56	1	121	221	321	NaN	521	0.141769370529801	1	1	NaN	3362822.4764509	NaN	3362823.4598529	3362823.97639603
80	18	0	0	90	36.1581920903955	36.241610738255	0	0	1	10	5	NaN	2	3	0.0233821743229072	1	1	NaN	183	3	57	1	111	211	311	NaN	511	0.163389022927731	1	0	NaN	3362824.9265831	NaN	3362825.9100844	3362826.42664368
80	18	0	0	90	36.1581920903955	36.241610738255	16	0.533372672200203	2	1	5	NaN	1	3	0.0233821743229072	1	1	NaN	184	3	58	1	121	221	321	NaN	521	0.0103917228989303	1	1	NaN	3362827.3935936	NaN	3362828.3769942	3362828.89355378
80	18	0	0	90	36.1581920903955	36.241610738255	15	0.50003688018769	2	5	1	NaN	1	4	0.0233821743229072	1	1	NaN	185	3	59	1	121	221	321	NaN	521	0.115769570693374	1	1	NaN	3362829.7104876	NaN	3362830.6938527	3362831.21044163
80	18	0	0	90	36.1581920903955	36.241610738255	17	0.566708464212716	2	7	5	NaN	2	3	0.0233821743229072	1	1	NaN	186	3	60	1	121	221	321	NaN	521	0.218438475392759	1	0	NaN	3362832.1440594	NaN	3362833.1274631	3362833.64401872
80	18	0	0	90	36.1581920903955	36.241610738255	24	0.800059008300304	2	6	6	NaN	1	5	0.0233821743229072	1	1	NaN	187	3	61	1	121	221	321	NaN	521	0.156944123096764	1	1	NaN	3362834.6776614	NaN	3362835.6610325	3362836.17760088
80	18	0	0	90	36.1581920903955	36.241610738255	14	0.466701088175178	2	5	1	NaN	1	3	0.0233821743229072	1	1	NaN	188	3	62	1	121	221	321	NaN	521	0.377995370421559	2	0	NaN	3362837.1445432	NaN	3362838.1279356	3362838.64450353
80	18	0	0	90	36.1581920903955	36.241610738255	12	0.400029504150152	2	9	5	NaN	2	4	0.0233821743229072	1	1	NaN	189	3	63	1	121	221	321	NaN	521	0.0104134702123702	1	0	NaN	3362839.828139	NaN	3362840.8115489	3362841.32810313
80	18	0	0	90	36.1581920903955	36.241610738255	10	0.333357920125127	2	3	2	NaN	1	5	0.0233821743229072	1	1	NaN	190	4	1	1	121	221	321	NaN	521	0.823453770484775	1	1	NaN	3362845.9787422	NaN	3362846.9621578	3362847.47869753
80	18	0	0	90	36.1581920903955	36.241610738255	15	0.50003688018769	2	2	5	NaN	1	3	0.0233821743229072	1	1	NaN	191	4	2	1	121	221	321	NaN	521	0.961758170742542	1	1	NaN	3362849.1123399	NaN	3362850.0958053	3362850.61234373
80	18	0	0	90	36.1581920903955	36.241610738255	25	0.833394800312817	2	5	4	NaN	1	5	0.0233821743229072	1	1	NaN	192	4	3	1	121	221	321	NaN	521	0.942032470367849	1	1	NaN	3362852.3960487	NaN	3362853.3794827	3362853.89599453
80	18	0	0	90	36.1581920903955	36.241610738255	11	0.36669371213764	2	11	6	NaN	2	5	0.0233821743229072	1	1	NaN	193	4	4	1	121	221	321	NaN	521	0.371854918077588	2	1	NaN	3362855.6462189	NaN	3362856.6297642	3362857.14631878
80	18	0	0	90	36.1581920903955	36.241610738255	22	0.733387424275279	2	9	6	NaN	2	4	0.0233821743229072	1	1	NaN	194	4	5	1	121	221	321	NaN	521	0.224428323097527	1	0	NaN	3362858.3299769	NaN	3362859.313471	3362859.82991408
80	18	0	0	90	36.1581920903955	36.241610738255	13	0.433365296162665	2	7	4	NaN	2	4	0.0233821743229072	1	1	NaN	195	4	6	1	121	221	321	NaN	521	0.106884917709976	1	0	NaN	3362860.8635394	NaN	3362861.8469855	3362862.36349528
80	18	0	0	90	36.1581920903955	36.241610738255	0	0	1	1	2	NaN	1	3	0.0233821743229072	1	1	NaN	196	4	7	1	111	211	311	NaN	511	0.113818323239684	1	1	NaN	3362863.2804611	NaN	3362864.2638584	3362864.78040768
80	18	0	0	90	36.1581920903955	36.241610738255	24	0.800059008300304	2	7	2	NaN	2	3	0.0233821743229072	1	1	NaN	197	4	8	1	121	221	321	NaN	521	0.160912070423365	1	0	NaN	3362865.6973719	NaN	3362866.680754	3362867.19730643
80	18	0	0	90	36.1581920903955	36.241610738255	21	0.700051632262766	2	1	4	NaN	1	5	0.0233821743229072	1	1	NaN	198	4	9	1	121	221	321	NaN	521	0.198270922992378	2	0	NaN	3362868.1642615	NaN	3362869.1476648	3362869.66422168
80	18	0	0	90	36.1581920903955	36.241610738255	14	0.466701088175178	2	4	6	NaN	1	3	0.0233821743229072	1	1	NaN	199	4	10	1	121	221	321	NaN	521	0.185166117735207	1	1	NaN	3362870.6811747	NaN	3362871.6645677	3362872.18112238
80	18	0	0	90	36.1581920903955	36.241610738255	10	0.333357920125127	2	11	2	NaN	2	5	0.0233821743229072	1	1	NaN	200	4	11	1	121	221	321	NaN	521	0.0449137706309557	2	1	NaN	3362873.1814365	NaN	3362874.1648166	3362874.68137173
80	18	0	0	90	36.1581920903955	36.241610738255	23	0.766723216287792	2	5	1	NaN	1	4	0.0233821743229072	1	1	NaN	201	4	12	1	121	221	321	NaN	521	2.29401267040521	1	1	NaN	3362875.548221	NaN	3362876.5317193	3362877.04827253
80	18	0	0	90	36.1581920903955	36.241610738255	10	0.333357920125127	2	7	1	NaN	2	3	0.0233821743229072	1	1	NaN	202	4	13	1	121	221	321	NaN	521	0.11743222316727	2	1	NaN	3362880.1486351	NaN	3362881.1321869	3362881.64872618
80	18	0	0	90	36.1581920903955	36.241610738255	8	0.266686336100101	2	8	3	NaN	2	4	0.0233821743229072	1	1	NaN	203	4	14	1	121	221	321	NaN	521	0.138589617796242	1	0	NaN	3362882.8155853	NaN	3362883.7990997	3362884.31565208
80	18	0	0	90	36.1581920903955	36.241610738255	25	0.833394800312817	2	2	3	NaN	1	4	0.0233821743229072	1	1	NaN	204	4	15	1	121	221	321	NaN	521	0.10445812297985	1	1	NaN	3362885.2658139	NaN	3362886.2493399	3362886.76590108
80	18	0	0	90	36.1581920903955	36.241610738255	22	0.733387424275279	2	5	3	NaN	1	5	0.0233821743229072	1	1	NaN	205	4	16	1	121	221	321	NaN	521	0.127716098446399	1	1	NaN	3362887.6828573	NaN	3362888.6662428	3362889.1828001
80	18	0	0	90	36.1581920903955	36.241610738255	15	0.50003688018769	2	5	4	NaN	1	5	0.0233821743229072	1	1	NaN	206	4	17	1	121	221	321	NaN	521	0.701089623384178	1	1	NaN	3362890.1329363	NaN	3362891.1165171	3362891.63304298
80	18	0	0	90	36.1581920903955	36.241610738255	19	0.633380048237741	2	7	1	NaN	2	4	0.0233821743229072	1	1	NaN	207	4	18	1	121	221	321	NaN	521	0.220597870647907	2	1	NaN	3362893.1499566	NaN	3362894.133488	3362894.65000983
80	18	0	0	90	36.1581920903955	36.241610738255	20	0.666715840250254	2	1	1	NaN	1	4	0.0233821743229072	1	1	NaN	208	4	19	1	121	221	321	NaN	521	0.166794523131102	1	1	NaN	3362895.6836355	NaN	3362896.6670456	3362897.18359088
80	18	0	0	90	36.1581920903955	36.241610738255	13	0.433365296162665	2	11	3	NaN	2	5	0.0233821743229072	1	1	NaN	209	4	20	1	121	221	321	NaN	521	0.523020970635116	2	1	NaN	3362898.1672295	NaN	3362899.1506057	3362899.66716583
80	18	0	0	90	36.1581920903955	36.241610738255	21	0.700051632262766	2	9	5	NaN	2	4	0.0233821743229072	1	1	NaN	210	4	21	1	121	221	321	NaN	521	0.233685890212655	2	1	NaN	3362901.0008358	NaN	3362901.9842227	3362902.50078421
80	18	0	0	90	36.1581920903955	36.241610738255	19	0.633380048237741	2	2	3	NaN	1	4	0.0233821743229072	1	1	NaN	211	4	22	1	121	221	321	NaN	521	0.195428170729429	1	1	NaN	3362903.5510746	NaN	3362904.5344711	3362905.05102873
80	18	0	0	90	36.1581920903955	36.241610738255	17	0.566708464212716	2	3	4	NaN	1	5	0.0233821743229072	1	1	NaN	212	4	23	1	121	221	321	NaN	521	0.238292122725397	1	1	NaN	3362906.0679924	NaN	3362907.0513952	3362907.56794548
80	18	0	0	90	36.1581920903955	36.241610738255	25	0.833394800312817	2	12	2	NaN	2	4	0.0233821743229072	1	1	NaN	213	4	24	1	121	221	321	NaN	521	0.120115517638624	2	1	NaN	3362908.6181172	NaN	3362909.6016293	3362910.11818918
80	18	0	0	90	36.1581920903955	36.241610738255	16	0.533372672200203	2	3	5	NaN	1	3	0.0233821743229072	1	1	NaN	214	4	25	1	121	221	321	NaN	521	0.142673270311207	1	1	NaN	3362911.0516713	NaN	3362912.0352052	3362912.55176203
80	18	0	0	90	36.1581920903955	36.241610738255	20	0.666715840250254	2	3	3	NaN	1	4	0.0233821743229072	1	1	NaN	215	4	26	1	121	221	321	NaN	521	0.111004170496017	2	0	NaN	3362913.6352884	NaN	3362914.6187861	3362915.13535073
80	18	0	0	90	36.1581920903955	36.241610738255	8	0.266686336100101	2	8	2	NaN	2	3	0.0233821743229072	1	1	NaN	216	4	27	1	121	221	321	NaN	521	1.2621040227823	2	1	NaN	3362916.0523107	NaN	3362917.0357079	3362917.55225888
80	18	0	0	90	36.1581920903955	36.241610738255	7	0.233350544087589	2	2	3	NaN	1	5	0.0233821743229072	1	1	NaN	217	4	28	1	121	221	321	NaN	521	0.102534670382738	2	0	NaN	3362919.6359836	NaN	3362920.6193723	3362921.13595463
80	18	0	0	90	36.1581920903955	36.241610738255	10	0.333357920125127	2	7	3	NaN	2	5	0.0233821743229072	1	1	NaN	218	4	29	1	121	221	321	NaN	521	0.197765789926052	2	1	NaN	3362922.0528964	NaN	3362923.0362891	3362923.55284941
80	18	0	0	90	36.1581920903955	36.241610738255	15	0.50003688018769	2	10	4	NaN	2	4	0.0233821743229072	1	1	NaN	219	4	30	1	121	221	321	NaN	521	0.104650417808443	1	0	NaN	3362924.569813	NaN	3362925.553195	3362926.06974998
80	18	0	0	90	36.1581920903955	36.241610738255	9	0.300022128112614	2	4	1	NaN	1	3	0.0233821743229072	1	1	NaN	220	4	31	1	121	221	321	NaN	521	0.183736622799188	1	1	NaN	3362926.9866964	NaN	3362927.9701093	3362928.48666348
80	18	0	0	90	36.1581920903955	36.241610738255	14	0.466701088175178	2	11	3	NaN	2	4	0.0233821743229072	1	1	NaN	221	4	32	1	121	221	321	NaN	521	0.451303870417178	2	1	NaN	3362929.486831	NaN	3362930.4703382	3362930.98689943
80	18	0	0	90	36.1581920903955	36.241610738255	23	0.766723216287792	2	7	6	NaN	2	5	0.0233821743229072	1	1	NaN	222	4	33	1	121	221	321	NaN	521	0.252711217850447	2	1	NaN	3362932.253897	NaN	3362933.2372921	3362933.75384208
80	18	0	0	90	36.1581920903955	36.241610738255	13	0.433365296162665	2	9	3	NaN	2	5	0.0233821743229072	1	1	NaN	223	4	34	1	121	221	321	NaN	521	0.293855370488018	2	1	NaN	3362934.8206921	NaN	3362935.8042076	3362936.32076333
80	18	0	0	90	36.1581920903955	36.241610738255	0	0	1	12	4	NaN	2	5	0.0233821743229072	1	1	NaN	224	4	35	1	111	211	311	NaN	511	0.516537223011255	2	1	NaN	3362937.4377359	NaN	3362938.4211437	3362938.93768978
80	18	0	0	90	36.1581920903955	36.241610738255	19	0.633380048237741	2	12	6	NaN	2	3	0.0233821743229072	1	1	NaN	225	4	36	1	121	221	321	NaN	521	0.418827470391989	2	1	NaN	3362940.2712115	NaN	3362941.2547422	3362941.77129543
80	18	0	0	90	36.1581920903955	36.241610738255	11	0.36669371213764	2	9	1	NaN	2	3	0.0233821743229072	1	1	NaN	226	4	37	1	121	221	321	NaN	521	0.125579265411943	2	1	NaN	3362943.0049424	NaN	3362943.9883407	3362944.50489833
80	18	0	0	90	36.1581920903955	36.241610738255	17	0.566708464212716	2	10	6	NaN	2	5	0.0233821743229072	1	1	NaN	227	4	38	1	121	221	321	NaN	521	0.747465670108795	1	0	NaN	3362945.4551961	NaN	3362946.4385858	3362946.95514013
80	18	0	0	90	36.1581920903955	36.241610738255	25	0.833394800312817	2	8	2	NaN	2	3	0.0233821743229072	1	1	NaN	228	4	39	1	121	221	321	NaN	521	0.321094317827374	2	1	NaN	3362948.5054881	NaN	3362949.4888785	3362950.00544508
80	18	0	0	90	36.1581920903955	36.241610738255	11	0.36669371213764	2	11	6	NaN	2	3	0.0233821743229072	1	1	NaN	229	4	40	1	121	221	321	NaN	521	0.103306717704982	2	1	NaN	3362951.1390773	NaN	3362952.1224734	3362952.63902618
80	18	0	0	90	36.1581920903955	36.241610738255	25	0.833394800312817	2	6	6	NaN	1	3	0.0233821743229072	1	1	NaN	230	4	41	1	121	221	321	NaN	521	0.0104238707572222	1	1	NaN	3362953.5559919	NaN	3362954.5394544	3362955.05593623
80	18	0	0	90	36.1581920903955	36.241610738255	23	0.766723216287792	2	3	1	NaN	1	4	0.0233821743229072	1	1	NaN	231	4	42	1	121	221	321	NaN	521	0.416875627823174	1	1	NaN	3362955.8895572	NaN	3362956.8729422	3362957.38950597
80	18	0	0	90	36.1581920903955	36.241610738255	0	0	1	6	3	NaN	1	5	0.0233821743229072	1	1	NaN	232	4	43	1	111	211	311	NaN	511	0.235285523347557	1	1	NaN	3362958.6231669	NaN	3362959.6065491	3362960.12309648
80	18	0	0	90	36.1581920903955	36.241610738255	21	0.700051632262766	2	7	4	NaN	2	5	0.0233821743229072	1	1	NaN	233	4	44	1	121	221	321	NaN	521	0.44483307050541	2	1	NaN	3362961.173403	NaN	3362962.1568456	3362962.67334593
80	18	0	0	90	36.1581920903955	36.241610738255	16	0.533372672200203	2	10	4	NaN	2	5	0.0233821743229072	1	1	NaN	234	4	45	1	121	221	321	NaN	521	0.246543470304459	2	1	NaN	3362963.9403422	NaN	3362964.9237448	3362965.44028043
80	18	0	0	90	36.1581920903955	36.241610738255	19	0.633380048237741	2	6	5	NaN	1	4	0.0233821743229072	1	1	NaN	235	4	46	1	121	221	321	NaN	521	0.063127470202744	1	1	NaN	3362966.5072685	NaN	3362967.4906744	3362968.00720553
80	18	0	0	90	36.1581920903955	36.241610738255	21	0.700051632262766	2	8	1	NaN	2	4	0.0233821743229072	1	1	NaN	236	4	47	1	121	221	321	NaN	521	0.183876822702587	2	1	NaN	3362968.8908945	NaN	3362969.8742297	3362970.39077988
80	18	0	0	90	36.1581920903955	36.241610738255	19	0.633380048237741	2	12	3	NaN	2	5	0.0233821743229072	1	1	NaN	237	4	48	1	121	221	321	NaN	521	0.21946797054261	1	0	NaN	3362971.3910703	NaN	3362972.3744738	3362972.89102383
80	18	0	0	90	36.1581920903955	36.241610738255	24	0.800059008300304	2	10	2	NaN	2	5	0.0233821743229072	1	1	NaN	238	4	49	1	121	221	321	NaN	521	0.205851480364799	2	1	NaN	3362973.9245916	NaN	3362974.9080771	3362975.42459642
80	18	0	0	90	36.1581920903955	36.241610738255	11	0.36669371213764	2	8	5	NaN	2	3	0.0233821743229072	1	1	NaN	239	4	50	1	121	221	321	NaN	521	0.248806370422244	2	1	NaN	3362976.4414549	NaN	3362977.4249645	3362977.94151513
80	18	0	0	90	36.1581920903955	36.241610738255	16	0.533372672200203	2	6	3	NaN	1	5	0.0233821743229072	1	1	NaN	240	4	51	1	121	221	321	NaN	521	0.218237323220819	2	0	NaN	3362979.0084795	NaN	3362979.9918843	3362980.50843848
80	18	0	0	90	36.1581920903955	36.241610738255	8	0.266686336100101	2	5	4	NaN	1	3	0.0233821743229072	1	1	NaN	241	4	52	1	121	221	321	NaN	521	0.25220777047798	2	0	NaN	3362981.5420726	NaN	3362982.5254579	3362983.04201693
80	18	0	0	90	36.1581920903955	36.241610738255	15	0.50003688018769	2	10	5	NaN	2	3	0.0233821743229072	1	1	NaN	242	4	53	1	121	221	321	NaN	521	0.22189957043156	2	1	NaN	3362984.1089839	NaN	3362985.092386	3362985.60893053
80	18	0	0	90	36.1581920903955	36.241610738255	18	0.600044256225228	2	11	1	NaN	2	4	0.0233821743229072	1	1	NaN	243	4	54	1	121	221	321	NaN	521	0.159935670439154	2	1	NaN	3362986.6424394	NaN	3362987.6259601	3362988.14251273
80	18	0	0	90	36.1581920903955	36.241610738255	17	0.566708464212716	2	4	1	NaN	1	5	0.0233821743229072	1	1	NaN	244	4	55	1	121	221	321	NaN	521	0.381292823236436	2	0	NaN	3362989.1093542	NaN	3362990.0928786	3362990.60942088
80	18	0	0	90	36.1581920903955	36.241610738255	23	0.766723216287792	2	10	1	NaN	2	3	0.0233821743229072	1	1	NaN	245	4	56	1	121	221	321	NaN	521	0.176939270459116	1	0	NaN	3362991.8096678	NaN	3362992.793147	3362993.30969373
80	18	0	0	90	36.1581920903955	36.241610738255	23	0.766723216287792	2	12	1	NaN	2	4	0.0233821743229072	1	1	NaN	246	4	57	1	121	221	321	NaN	521	0.348959423135966	2	1	NaN	3362994.2933752	NaN	3362995.2767466	3362995.79327388
80	18	0	0	90	36.1581920903955	36.241610738255	24	0.800059008300304	2	2	6	NaN	1	5	0.0233821743229072	1	1	NaN	247	4	58	1	121	221	321	NaN	521	0.0104051702655852	1	1	NaN	3362996.9602572	NaN	3362997.9436393	3362998.46019793
80	18	0	0	90	36.1581920903955	36.241610738255	11	0.36669371213764	2	8	4	NaN	2	4	0.0233821743229072	1	1	NaN	248	4	59	1	121	221	321	NaN	521	0.0608442230150104	2	1	NaN	3362999.2938027	NaN	3363000.2772173	3363000.79376328
80	18	0	0	90	36.1581920903955	36.241610738255	12	0.400029504150152	2	11	1	NaN	2	4	0.0233821743229072	1	1	NaN	249	4	60	1	121	221	321	NaN	521	1.35733287036419	2	1	NaN	3363001.6773833	NaN	3363002.6607921	3363003.17733273
80	18	0	0	90	36.1581920903955	36.241610738255	12	0.400029504150152	2	10	2	NaN	2	4	0.0233821743229072	1	1	NaN	250	4	61	1	121	221	321	NaN	521	0.209940970875323	2	1	NaN	3363005.344403	NaN	3363006.3277927	3363006.84434733
80	18	0	0	90	36.1581920903955	36.241610738255	7	0.233350544087589	2	2	1	NaN	1	3	0.0233821743229072	1	1	NaN	251	4	62	1	121	221	321	NaN	521	2.42933777021244	2	0	NaN	3363007.8613142	NaN	3363008.8447214	3363009.36126743
80	18	0	0	90	36.1581920903955	36.241610738255	18	0.600044256225228	2	4	5	NaN	1	4	0.0233821743229072	1	1	NaN	252	4	63	1	121	221	321	NaN	521	0.391289922874421	2	0	NaN	3363012.5949864	NaN	3363013.5785076	3363014.09507238
80	18	0	0	90	36.1581920903955	36.241610738255	19	0.633380048237741	2	11	3	NaN	2	4	0.0233821743229072	1	1	NaN	253	5	1	1	121	221	321	NaN	521	0.267265822738409	2	1	NaN	3363020.4792488	NaN	3363021.4625993	3363021.97916858
80	18	0	0	90	36.1581920903955	36.241610738255	21	0.700051632262766	2	1	4	NaN	1	4	0.0233821743229072	1	1	NaN	254	5	2	1	121	221	321	NaN	521	0.29195197019726	2	0	NaN	3363023.0628068	NaN	3363024.0462017	3363024.56276103
80	18	0	0	90	36.1581920903955	36.241610738255	17	0.566708464212716	2	7	6	NaN	2	5	0.0233821743229072	1	1	NaN	255	5	3	1	121	221	321	NaN	521	0.203818622976542	1	0	NaN	3363025.6629566	NaN	3363026.646451	3363027.16301878
80	18	0	0	90	36.1581920903955	36.241610738255	19	0.633380048237741	2	9	2	NaN	2	5	0.0233821743229072	1	1	NaN	256	5	4	1	121	221	321	NaN	521	0.222513318061829	1	0	NaN	3363028.1799826	NaN	3363029.1633797	3363029.67994668
80	18	0	0	90	36.1581920903955	36.241610738255	13	0.433365296162665	2	4	2	NaN	1	4	0.0233821743229072	1	1	NaN	257	5	5	1	121	221	321	NaN	521	0.25688942335546	2	0	NaN	3363030.7135316	NaN	3363031.6969526	3363032.21353498
80	18	0	0	90	36.1581920903955	36.241610738255	12	0.400029504150152	2	3	4	NaN	1	4	0.0233821743229072	1	1	NaN	258	5	6	1	121	221	321	NaN	521	0.1143494178541	1	1	NaN	3363033.2803548	NaN	3363034.2638766	3363034.78042658
80	18	0	0	90	36.1581920903955	36.241610738255	17	0.566708464212716	2	1	6	NaN	1	3	0.0233821743229072	1	1	NaN	259	5	7	1	121	221	321	NaN	521	0.169432622846216	2	0	NaN	3363035.697298	NaN	3363036.6807822	3363037.19733878
80	18	0	0	90	36.1581920903955	36.241610738255	14	0.466701088175178	2	1	4	NaN	1	3	0.0233821743229072	1	1	NaN	260	5	8	1	121	221	321	NaN	521	0.0374435177072883	1	1	NaN	3363038.1809801	NaN	3363039.1643589	3363039.68090818
80	18	0	0	90	36.1581920903955	36.241610738255	0	0	1	7	6	NaN	2	4	0.0233821743229072	1	1	NaN	261	5	9	1	111	211	311	NaN	511	0.0872264704667032	1	0	NaN	3363040.531184	NaN	3363041.5145924	3363042.03113403
80	18	0	0	90	36.1581920903955	36.241610738255	12	0.400029504150152	2	8	3	NaN	2	5	0.0233821743229072	1	1	NaN	262	5	10	1	121	221	321	NaN	521	0.10312282294035	2	1	NaN	3363042.9314208	NaN	3363043.9148253	3363044.43137978
80	18	0	0	90	36.1581920903955	36.241610738255	7	0.233350544087589	2	10	3	NaN	2	3	0.0233821743229072	1	1	NaN	263	5	11	1	121	221	321	NaN	521	0.318134223110974	2	1	NaN	3363045.3484141	NaN	3363046.3317489	3363046.84828488
80	18	0	0	90	36.1581920903955	36.241610738255	9	0.300022128112614	2	8	5	NaN	2	3	0.0233821743229072	1	1	NaN	264	5	12	1	121	221	321	NaN	521	0.0104164704680443	1	0	NaN	3363047.9820291	NaN	3363048.9653186	3363049.48187623
80	18	0	0	90	36.1581920903955	36.241610738255	6	0.200014752075076	2	4	2	NaN	1	5	0.0233821743229072	1	1	NaN	265	5	13	1	121	221	321	NaN	521	0.0878614229150116	1	1	NaN	3363050.2988243	NaN	3363051.2822424	3363051.79876658
80	18	0	0	90	36.1581920903955	36.241610738255	19	0.633380048237741	2	7	1	NaN	2	5	0.0233821743229072	1	1	NaN	266	5	14	1	121	221	321	NaN	521	0.0555830704979599	1	0	NaN	3363052.6990516	NaN	3363053.682445	3363054.19900643
80	18	0	0	90	36.1581920903955	36.241610738255	22	0.733387424275279	2	12	1	NaN	2	4	0.0233821743229072	1	1	NaN	267	5	15	1	121	221	321	NaN	521	0.216433023102582	2	1	NaN	3363055.0659517	NaN	3363056.0493502	3363056.56590718
80	18	0	0	90	36.1581920903955	36.241610738255	6	0.200014752075076	2	9	3	NaN	2	3	0.0233821743229072	1	1	NaN	268	5	16	1	121	221	321	NaN	521	0.0415959702804685	1	0	NaN	3363057.6327419	NaN	3363058.6163124	3363059.13282403
80	18	0	0	90	36.1581920903955	36.241610738255	10	0.333357920125127	2	4	2	NaN	1	4	0.0233821743229072	1	1	NaN	269	5	17	1	121	221	321	NaN	521	0.179357322864234	2	0	NaN	3363059.9829444	NaN	3363060.9665287	3363061.48305478
80	18	0	0	90	36.1581920903955	36.241610738255	8	0.266686336100101	2	6	6	NaN	1	3	0.0233821743229072	1	1	NaN	270	5	18	1	121	221	321	NaN	521	0.167559017427266	1	1	NaN	3363062.4833269	NaN	3363063.4667491	3363063.98329608
80	18	0	0	90	36.1581920903955	36.241610738255	8	0.266686336100101	2	7	3	NaN	2	3	0.0233821743229072	1	1	NaN	271	5	19	1	121	221	321	NaN	521	0.139867522753775	1	0	NaN	3363064.9669198	NaN	3363065.9503232	3363066.46688018
80	18	0	0	90	36.1581920903955	36.241610738255	0	0	1	5	2	NaN	1	3	0.0233821743229072	1	1	NaN	272	5	20	1	111	211	311	NaN	511	0.0733933700248599	1	1	NaN	3363067.4171727	NaN	3363068.4005674	3363068.91711773
80	18	0	0	90	36.1581920903955	36.241610738255	8	0.266686336100101	2	9	4	NaN	2	5	0.0233821743229072	1	1	NaN	273	5	21	1	121	221	321	NaN	521	0.0816898229531944	2	1	NaN	3363069.8008242	NaN	3363070.7841566	3363071.30068908
80	18	0	0	90	36.1581920903955	36.241610738255	15	0.50003688018769	2	1	6	NaN	1	5	0.0233821743229072	1	1	NaN	274	5	22	1	121	221	321	NaN	521	0.169699070509523	1	1	NaN	3363072.2008232	NaN	3363073.1843603	3363073.70091013
80	18	0	0	90	36.1581920903955	36.241610738255	10	0.333357920125127	2	12	4	NaN	2	4	0.0233821743229072	1	1	NaN	275	5	23	1	121	221	321	NaN	521	0.101914470549673	2	1	NaN	3363074.6846969	NaN	3363075.6679469	3363076.18449553
80	18	0	0	90	36.1581920903955	36.241610738255	20	0.666715840250254	2	4	6	NaN	1	5	0.0233821743229072	1	1	NaN	276	5	24	1	121	221	321	NaN	521	0.189174170605838	1	1	NaN	3363077.1014429	NaN	3363078.084745	3363078.60139783
80	18	0	0	90	36.1581920903955	36.241610738255	17	0.566708464212716	2	11	3	NaN	2	4	0.0233821743229072	1	1	NaN	277	5	25	1	121	221	321	NaN	521	0.272868327796459	2	1	NaN	3363079.6015919	NaN	3363080.5851248	3363081.10164917
80	18	0	0	90	36.1581920903955	36.241610738255	18	0.600044256225228	2	1	2	NaN	1	5	0.0233821743229072	1	1	NaN	278	5	26	1	121	221	321	NaN	521	0.257175270467997	2	0	NaN	3363082.1852716	NaN	3363083.1686763	3363083.68523193
80	18	0	0	90	36.1581920903955	36.241610738255	15	0.50003688018769	2	4	5	NaN	1	4	0.0233821743229072	1	1	NaN	279	5	27	1	121	221	321	NaN	521	0.12205032305792	2	0	NaN	3363084.7521968	NaN	3363085.7355975	3363086.25215638
80	18	0	0	90	36.1581920903955	36.241610738255	16	0.533372672200203	2	3	3	NaN	1	5	0.0233821743229072	1	1	NaN	280	5	28	1	121	221	321	NaN	521	1.13681731792167	2	0	NaN	3363087.1858725	NaN	3363088.1692027	3363088.68571578
80	18	0	0	90	36.1581920903955	36.241610738255	0	0	1	11	4	NaN	2	3	0.0233821743229072	1	1	NaN	281	5	29	1	111	211	311	NaN	511	0.366817823145539	2	1	NaN	3363090.6361054	NaN	3363091.6195189	3363092.13606858
80	18	0	0	90	36.1581920903955	36.241610738255	18	0.600044256225228	2	8	6	NaN	2	5	0.0233821743229072	1	1	NaN	282	5	30	1	121	221	321	NaN	521	0.131046317983419	2	1	NaN	3363093.3197059	NaN	3363094.30309	3363094.81965328
80	18	0	0	90	36.1581920903955	36.241610738255	18	0.600044256225228	2	2	4	NaN	1	4	0.0233821743229072	1	1	NaN	283	5	31	1	121	221	321	NaN	521	0.824995222967118	2	0	NaN	3363095.769813	NaN	3363096.753355	3363097.26990488
80	18	0	0	90	36.1581920903955	36.241610738255	16	0.533372672200203	2	5	6	NaN	1	5	0.0233821743229072	1	1	NaN	284	5	32	1	121	221	321	NaN	521	0.186955417506397	1	1	NaN	3363098.9035169	NaN	3363099.8869844	3363100.40354488
80	18	0	0	90	36.1581920903955	36.241610738255	12	0.400029504150152	2	1	2	NaN	1	5	0.0233821743229072	1	1	NaN	285	5	33	1	121	221	321	NaN	521	0.366709670051932	2	0	NaN	3363101.4038376	NaN	3363102.387217	3363102.90377933
80	18	0	0	90	36.1581920903955	36.241610738255	21	0.700051632262766	2	9	3	NaN	2	5	0.0233821743229072	1	1	NaN	286	5	34	1	121	221	321	NaN	521	0.299049570225179	1	0	NaN	3363104.0874321	NaN	3363105.0708263	3363105.58738393
80	18	0	0	90	36.1581920903955	36.241610738255	16	0.533372672200203	2	11	4	NaN	2	3	0.0233821743229072	1	1	NaN	287	5	35	1	121	221	321	NaN	521	0.170467422809452	2	1	NaN	3363106.7043523	NaN	3363107.6877857	3363108.20430828
80	18	0	0	90	36.1581920903955	36.241610738255	19	0.633380048237741	2	1	3	NaN	1	5	0.0233821743229072	1	1	NaN	288	5	36	1	121	221	321	NaN	521	0.030900270678103	2	0	NaN	3363109.1879243	NaN	3363110.1713258	3363110.68788043
80	18	0	0	90	36.1581920903955	36.241610738255	12	0.400029504150152	2	8	3	NaN	2	4	0.0233821743229072	1	1	NaN	289	5	37	1	121	221	321	NaN	521	0.192356323357671	2	1	NaN	3363111.5380306	NaN	3363112.5215545	3363113.03811998
80	18	0	0	90	36.1581920903955	36.241610738255	9	0.300022128112614	2	11	1	NaN	2	5	0.0233821743229072	1	1	NaN	290	5	38	1	121	221	321	NaN	521	0.132225870620459	2	1	NaN	3363114.0382774	NaN	3363115.0218536	3363115.53836173
80	18	0	0	90	36.1581920903955	36.241610738255	22	0.733387424275279	2	1	6	NaN	1	5	0.0233821743229072	1	1	NaN	291	5	39	1	121	221	321	NaN	521	0.0103909228928387	2	0	NaN	3363116.4885314	NaN	3363117.4720478	3363117.98860638
80	18	0	0	90	36.1581920903955	36.241610738255	0	0	1	2	4	NaN	1	4	0.0233821743229072	1	1	NaN	292	5	40	1	111	211	311	NaN	511	0.0847356705926359	1	1	NaN	3363118.805539	NaN	3363119.7889434	3363120.30549743
80	18	0	0	90	36.1581920903955	36.241610738255	14	0.466701088175178	2	3	2	NaN	1	3	0.0233821743229072	1	1	NaN	293	5	41	1	121	221	321	NaN	521	0.148884270340204	2	0	NaN	3363121.2057908	NaN	3363122.1891861	3363122.70572863
80	18	0	0	90	36.1581920903955	36.241610738255	20	0.666715840250254	2	5	4	NaN	1	3	0.0233821743229072	1	1	NaN	294	5	42	1	121	221	321	NaN	521	0.233801522757858	2	0	NaN	3363123.6727008	NaN	3363124.6560846	3363125.17263758
80	18	0	0	90	36.1581920903955	36.241610738255	12	0.400029504150152	2	2	1	NaN	1	4	0.0233821743229072	1	1	NaN	295	5	43	1	121	221	321	NaN	521	0.195760423317552	2	0	NaN	3363126.2229788	NaN	3363127.2063454	3363127.72288938
80	18	0	0	90	36.1581920903955	36.241610738255	18	0.600044256225228	2	8	6	NaN	2	4	0.0233821743229072	1	1	NaN	296	5	44	1	121	221	321	NaN	521	0.126878270879388	2	1	NaN	3363128.7398569	NaN	3363129.7232485	3363130.23980153
80	18	0	0	90	36.1581920903955	36.241610738255	15	0.50003688018769	2	7	1	NaN	2	4	0.0233821743229072	1	1	NaN	297	5	45	1	121	221	321	NaN	521	0.116729318164289	2	1	NaN	3363131.1900962	NaN	3363132.1734905	3363132.69003828
80	18	0	0	90	36.1581920903955	36.241610738255	13	0.433365296162665	2	12	5	NaN	2	3	0.0233821743229072	1	1	NaN	298	5	46	1	121	221	321	NaN	521	0.162831432186067	2	1	NaN	3363133.6235707	NaN	3363134.6070589	3363135.12361877
80	18	0	0	90	36.1581920903955	36.241610738255	23	0.766723216287792	2	2	6	NaN	1	5	0.0233821743229072	1	1	NaN	299	5	47	1	121	221	321	NaN	521	0.215949522797018	2	0	NaN	3363136.0904769	NaN	3363137.0739702	3363137.59053138
80	18	0	0	90	36.1581920903955	36.241610738255	20	0.666715840250254	2	9	6	NaN	2	3	0.0233821743229072	1	1	NaN	300	5	48	1	121	221	321	NaN	521	0.138749270234257	2	1	NaN	3363138.6241507	NaN	3363139.6075498	3363140.12410223
80	18	0	0	90	36.1581920903955	36.241610738255	16	0.533372672200203	2	4	2	NaN	1	4	0.0233821743229072	1	1	NaN	301	5	49	1	121	221	321	NaN	521	0.26426937058568	2	0	NaN	3363141.0742728	NaN	3363142.0578045	3363142.57434153
80	18	0	0	90	36.1581920903955	36.241610738255	20	0.666715840250254	2	4	3	NaN	1	5	0.0233821743229072	1	1	NaN	302	5	50	1	121	221	321	NaN	521	0.136824523098767	1	1	NaN	3363143.6579705	NaN	3363144.6413755	3363145.15793338
80	18	0	0	90	36.1581920903955	36.241610738255	18	0.600044256225228	2	6	2	NaN	1	4	0.0233821743229072	1	1	NaN	303	5	51	1	121	221	321	NaN	521	0.558276770636439	2	0	NaN	3363146.1080776	NaN	3363147.091623	3363147.60818423
80	18	0	0	90	36.1581920903955	36.241610738255	18	0.600044256225228	2	6	1	NaN	1	5	0.0233821743229072	1	1	NaN	304	5	52	1	121	221	321	NaN	521	0.171526570338756	2	0	NaN	3363148.9751765	NaN	3363149.9585711	3363150.47512153
80	18	0	0	90	36.1581920903955	36.241610738255	11	0.36669371213764	2	3	6	NaN	1	4	0.0233821743229072	1	1	NaN	305	5	53	1	121	221	321	NaN	521	0.12006721785292	1	1	NaN	3363151.4586706	NaN	3363152.4421478	3363152.95869698
80	18	0	0	90	36.1581920903955	36.241610738255	23	0.766723216287792	2	11	6	NaN	2	5	0.0233821743229072	1	1	NaN	306	5	54	1	121	221	321	NaN	521	0.246717118192464	2	1	NaN	3363153.8923274	NaN	3363154.8757111	3363155.39227588
80	18	0	0	90	36.1581920903955	36.241610738255	24	0.800059008300304	2	8	1	NaN	2	4	0.0233821743229072	1	1	NaN	307	5	55	1	121	221	321	NaN	521	0.367344370111823	2	1	NaN	3363156.4592354	NaN	3363157.4426441	3363157.95919173
80	18	0	0	90	36.1581920903955	36.241610738255	9	0.300022128112614	2	1	4	NaN	1	3	0.0233821743229072	1	1	NaN	308	5	56	1	121	221	321	NaN	521	0.243917770683765	2	0	NaN	3363159.1428341	NaN	3363160.1262379	3363160.64278933
80	18	0	0	90	36.1581920903955	36.241610738255	9	0.300022128112614	2	8	4	NaN	2	4	0.0233821743229072	1	1	NaN	309	5	57	1	121	221	321	NaN	521	0.277025570161641	2	1	NaN	3363161.7097504	NaN	3363162.6931533	3363163.20969953
80	18	0	0	90	36.1581920903955	36.241610738255	21	0.700051632262766	2	6	2	NaN	1	5	0.0233821743229072	1	1	NaN	310	5	58	1	121	221	321	NaN	521	0.156591870822012	2	0	NaN	3363164.3100437	NaN	3363165.2934135	3363165.80996663
80	18	0	0	90	36.1581920903955	36.241610738255	21	0.700051632262766	2	4	3	NaN	1	4	0.0233821743229072	1	1	NaN	311	5	59	1	121	221	321	NaN	521	0.13805812317878	2	0	NaN	3363166.7769172	NaN	3363167.7602974	3363168.27687488
80	18	0	0	90	36.1581920903955	36.241610738255	0	0	1	11	5	NaN	2	3	0.0233821743229072	1	1	NaN	312	5	60	1	111	211	311	NaN	511	1.82662317017093	2	1	NaN	3363169.5437296	NaN	3363170.5272753	3363171.04380143
80	18	0	0	90	36.1581920903955	36.241610738255	22	0.733387424275279	2	8	3	NaN	2	3	0.0233821743229072	1	1	NaN	313	5	61	1	121	221	321	NaN	521	0.540493323002011	2	1	NaN	3363173.6941464	NaN	3363174.6777	3363175.19421888
80	18	0	0	90	36.1581920903955	36.241610738255	15	0.50003688018769	2	2	2	NaN	1	5	0.0233821743229072	1	1	NaN	314	5	62	1	121	221	321	NaN	521	0.658147065434605	1	1	NaN	3363176.544539	NaN	3363177.5279403	3363178.04448943
80	18	0	0	90	36.1581920903955	36.241610738255	8	0.266686336100101	2	9	4	NaN	2	5	0.0233821743229072	1	1	NaN	315	5	63	1	121	221	321	NaN	521	0.145797770470381	2	1	NaN	3363179.7448304	NaN	3363180.7282673	3363181.24481063
80	18	0	0	90	36.1581920903955	36.241610738255	14	0.466701088175178	2	10	5	NaN	2	3	0.0233821743229072	1	1	NaN	316	6	1	1	121	221	321	NaN	521	3.19561997521669	2	1	NaN	3363195.0630249	NaN	3363196.0464342	3363196.56298972
80	18	0	0	90	36.1581920903955	36.241610738255	0	0	1	5	5	NaN	1	5	0.0233821743229072	1	1	NaN	317	6	2	1	111	211	311	NaN	511	0.396655975375324	2	0	NaN	3363200.6302249	NaN	3363201.6137143	3363202.13019682
80	18	0	0	90	36.1581920903955	36.241610738255	23	0.766723216287792	2	8	6	NaN	2	3	0.0233821743229072	1	1	NaN	318	6	3	1	121	221	321	NaN	521	0.0103893233463168	1	0	NaN	3363203.3471759	NaN	3363204.3305782	3363204.84712958
80	18	0	0	90	36.1581920903955	36.241610738255	23	0.766723216287792	2	10	3	NaN	2	4	0.0233821743229072	1	1	NaN	319	6	4	1	121	221	321	NaN	521	0.234926742501557	2	1	NaN	3363205.6640767	NaN	3363206.6474621	3363207.16402266
80	18	0	0	90	36.1581920903955	36.241610738255	7	0.233350544087589	2	6	6	NaN	1	3	0.0233821743229072	1	1	NaN	320	6	5	1	121	221	321	NaN	521	0.132442122790962	1	1	NaN	3363208.2141979	NaN	3363209.1977195	3363209.71427838
80	18	0	0	90	36.1581920903955	36.241610738255	0	0	1	7	5	NaN	2	4	0.0233821743229072	1	1	NaN	321	6	6	1	111	211	311	NaN	511	0.25855747051537	1	0	NaN	3363210.6645647	NaN	3363211.6480072	3363212.16450853
80	18	0	0	90	36.1581920903955	36.241610738255	24	0.800059008300304	2	12	6	NaN	2	3	0.0233821743229072	1	1	NaN	322	6	7	1	121	221	321	NaN	521	0.107293023262173	2	1	NaN	3363213.2313276	NaN	3363214.2148961	3363214.73143028
80	18	0	0	90	36.1581920903955	36.241610738255	19	0.633380048237741	2	8	1	NaN	2	5	0.0233821743229072	1	1	NaN	323	6	8	1	121	221	321	NaN	521	1.05026217037812	2	1	NaN	3363215.6484201	NaN	3363216.6317933	3363217.14832993
80	18	0	0	90	36.1581920903955	36.241610738255	6	0.200014752075076	2	5	6	NaN	1	5	0.0233821743229072	1	1	NaN	324	6	9	1	121	221	321	NaN	521	0.779693822842091	1	1	NaN	3363219.01538	NaN	3363219.998782	3363220.51534078
80	18	0	0	90	36.1581920903955	36.241610738255	8	0.266686336100101	2	1	3	NaN	1	4	0.0233821743229072	1	1	NaN	325	6	10	1	121	221	321	NaN	521	0.0104042706079781	1	1	NaN	3363222.0990275	NaN	3363223.0824129	3363223.59896773
80	18	0	0	90	36.1581920903955	36.241610738255	0	0	1	10	3	NaN	2	5	0.0233821743229072	1	1	NaN	326	6	11	1	111	211	311	NaN	511	0.179035370238125	2	1	NaN	3363224.4159182	NaN	3363225.3993079	3363225.91585753
80	18	0	0	90	36.1581920903955	36.241610738255	7	0.233350544087589	2	3	6	NaN	1	4	0.0233821743229072	1	1	NaN	327	6	12	1	121	221	321	NaN	521	0.230456870049238	2	0	NaN	3363226.9161565	NaN	3363227.8995589	3363228.41611583
80	18	0	0	90	36.1581920903955	36.241610738255	17	0.566708464212716	2	3	5	NaN	1	4	0.0233821743229072	1	1	NaN	328	6	13	1	121	221	321	NaN	521	0.288634018041193	2	0	NaN	3363229.4664023	NaN	3363230.4498192	3363230.96636458
80	18	0	0	90	36.1581920903955	36.241610738255	6	0.200014752075076	2	9	6	NaN	2	3	0.0233821743229072	1	1	NaN	329	6	14	1	121	221	321	NaN	521	0.0799883706495166	1	0	NaN	3363232.0666707	NaN	3363233.0500624	3363233.56661233
80	18	0	0	90	36.1581920903955	36.241610738255	16	0.533372672200203	2	11	2	NaN	2	5	0.0233821743229072	1	1	NaN	330	6	15	1	121	221	321	NaN	521	0.224169422872365	2	1	NaN	3363234.4668964	NaN	3363235.4502958	3363235.96685698
80	18	0	0	90	36.1581920903955	36.241610738255	22	0.733387424275279	2	10	2	NaN	2	4	0.0233821743229072	1	1	NaN	331	6	16	1	121	221	321	NaN	521	0.154368170071393	2	1	NaN	3363237.0003799	NaN	3363237.983886	3363238.50043073
80	18	0	0	90	36.1581920903955	36.241610738255	9	0.300022128112614	2	10	1	NaN	2	3	0.0233821743229072	1	1	NaN	332	6	17	1	121	221	321	NaN	521	0.135066870599985	2	1	NaN	3363239.4673998	NaN	3363240.4508058	3363240.96734223
80	18	0	0	90	36.1581920903955	36.241610738255	23	0.766723216287792	2	7	2	NaN	2	4	0.0233821743229072	1	1	NaN	333	6	18	1	121	221	321	NaN	521	0.301115670707077	2	1	NaN	3363241.9175131	NaN	3363242.9010259	3363243.41758313
80	18	0	0	90	36.1581920903955	36.241610738255	20	0.666715840250254	2	8	1	NaN	2	5	0.0233821743229072	1	1	NaN	334	6	19	1	121	221	321	NaN	521	0.476216327864677	2	1	NaN	3363244.5345646	NaN	3363245.5179779	3363246.03450567
80	18	0	0	90	36.1581920903955	36.241610738255	11	0.36669371213764	2	5	1	NaN	1	3	0.0233821743229072	1	1	NaN	335	6	20	1	121	221	321	NaN	521	0.0288724703714252	1	1	NaN	3363247.3181729	NaN	3363248.3015645	3363248.81811063
80	18	0	0	90	36.1581920903955	36.241610738255	9	0.300022128112614	2	3	1	NaN	1	5	0.0233821743229072	1	1	NaN	336	6	21	1	121	221	321	NaN	521	0.311203722842038	2	0	NaN	3363249.6517969	NaN	3363250.6351557	3363251.15167618
80	18	0	0	90	36.1581920903955	36.241610738255	22	0.733387424275279	2	5	6	NaN	1	3	0.0233821743229072	1	1	NaN	337	6	22	1	121	221	321	NaN	521	0.110113470349461	2	0	NaN	3363252.2686534	NaN	3363253.2520443	3363253.76859783
80	18	0	0	90	36.1581920903955	36.241610738255	8	0.266686336100101	2	11	6	NaN	2	3	0.0233821743229072	1	1	NaN	338	6	23	1	121	221	321	NaN	521	0.605367995332927	1	0	NaN	3363254.6854302	NaN	3363255.6689504	3363256.185513
80	18	0	0	90	36.1581920903955	36.241610738255	13	0.433365296162665	2	10	3	NaN	2	4	0.0233821743229072	1	1	NaN	339	6	24	1	121	221	321	NaN	521	0.256521270144731	2	1	NaN	3363257.6025107	NaN	3363258.5859127	3363259.10244783
80	18	0	0	90	36.1581920903955	36.241610738255	18	0.600044256225228	2	1	3	NaN	1	3	0.0233821743229072	1	1	NaN	340	6	25	1	121	221	321	NaN	521	0.177629023324698	2	0	NaN	3363260.1694392	NaN	3363261.1527731	3363261.66937738
80	18	0	0	90	36.1581920903955	36.241610738255	24	0.800059008300304	2	3	2	NaN	1	5	0.0233821743229072	1	1	NaN	341	6	26	1	121	221	321	NaN	521	0.213176517747343	1	1	NaN	3363262.6695474	NaN	3363263.6530613	3363264.16961838
80	18	0	0	90	36.1581920903955	36.241610738255	24	0.800059008300304	2	10	3	NaN	2	3	0.0233821743229072	1	1	NaN	342	6	27	1	121	221	321	NaN	521	0.288637070450932	1	0	NaN	3363265.1864517	NaN	3363266.1699672	3363266.68652683
80	18	0	0	90	36.1581920903955	36.241610738255	6	0.200014752075076	2	5	3	NaN	1	3	0.0233821743229072	1	1	NaN	343	6	28	1	121	221	321	NaN	521	0.0961411707103252	1	1	NaN	3363267.7867581	NaN	3363268.7702696	3363269.28678663
80	18	0	0	90	36.1581920903955	36.241610738255	21	0.700051632262766	2	7	5	NaN	2	4	0.0233821743229072	1	1	NaN	344	6	29	1	121	221	321	NaN	521	0.583615723066032	2	1	NaN	3363270.1869634	NaN	3363271.1704733	3363271.68702798
80	18	0	0	90	36.1581920903955	36.241610738255	23	0.766723216287792	2	4	3	NaN	1	5	0.0233821743229072	1	1	NaN	345	6	30	1	121	221	321	NaN	521	0.699514370411634	1	1	NaN	3363273.0873468	NaN	3363274.0707559	3363274.58730843
80	18	0	0	90	36.1581920903955	36.241610738255	25	0.833394800312817	2	3	3	NaN	1	3	0.0233821743229072	1	1	NaN	346	6	31	1	121	221	321	NaN	521	0.186618523206562	1	1	NaN	3363276.1043171	NaN	3363277.0877197	3363277.60427408
80	18	0	0	90	36.1581920903955	36.241610738255	22	0.733387424275279	2	3	5	NaN	1	5	0.0233821743229072	1	1	NaN	347	6	32	1	121	221	321	NaN	521	0.0703618177212775	1	1	NaN	3363278.6045649	NaN	3363279.5879656	3363280.10451378
80	18	0	0	90	36.1581920903955	36.241610738255	25	0.833394800312817	2	12	5	NaN	2	4	0.0233821743229072	1	1	NaN	348	6	33	1	121	221	321	NaN	521	0.878909923136234	2	1	NaN	3363280.9880953	NaN	3363281.9715367	3363282.48808838
80	18	0	0	90	36.1581920903955	36.241610738255	16	0.533372672200203	2	9	4	NaN	2	3	0.0233821743229072	1	1	NaN	349	6	34	1	121	221	321	NaN	521	0.175061570480466	1	0	NaN	3363284.1717822	NaN	3363285.1551585	3363285.67173133
80	18	0	0	90	36.1581920903955	36.241610738255	8	0.266686336100101	2	12	3	NaN	2	5	0.0233821743229072	1	1	NaN	350	6	35	1	121	221	321	NaN	521	0.819776522926986	1	0	NaN	3363286.6553608	NaN	3363287.6387579	3363288.15531238
80	18	0	0	90	36.1581920903955	36.241610738255	10	0.333357920125127	2	6	5	NaN	1	3	0.0233821743229072	1	1	NaN	351	6	36	1	121	221	321	NaN	521	0.269691070541739	1	1	NaN	3363289.7890044	NaN	3363290.7723826	3363291.28894583
80	18	0	0	90	36.1581920903955	36.241610738255	21	0.700051632262766	2	6	3	NaN	1	3	0.0233821743229072	1	1	NaN	352	6	37	1	121	221	321	NaN	521	0.0103857228532434	1	1	NaN	3363292.372449	NaN	3363293.3559907	3363293.87254308
80	18	0	0	90	36.1581920903955	36.241610738255	14	0.466701088175178	2	7	6	NaN	2	5	0.0233821743229072	1	1	NaN	353	6	38	1	121	221	321	NaN	521	0.0975113706663251	2	1	NaN	3363294.6895187	NaN	3363295.6728657	3363296.18942943
80	18	0	0	90	36.1581920903955	36.241610738255	16	0.533372672200203	2	8	2	NaN	2	3	0.0233821743229072	1	1	NaN	354	6	39	1	121	221	321	NaN	521	0.120472822804004	2	1	NaN	3363297.1063677	NaN	3363298.0897861	3363298.60634198
80	18	0	0	90	36.1581920903955	36.241610738255	25	0.833394800312817	2	4	1	NaN	1	5	0.0233821743229072	1	1	NaN	355	6	40	1	121	221	321	NaN	521	0.111046770121902	2	0	NaN	3363299.5399123	NaN	3363300.5233458	3363301.03990653
80	18	0	0	90	36.1581920903955	36.241610738255	23	0.766723216287792	2	1	6	NaN	1	4	0.0233821743229072	1	1	NaN	356	6	41	1	121	221	321	NaN	521	0.453268922865391	2	0	NaN	3363301.9735376	NaN	3363302.9569375	3363303.47348608
80	18	0	0	90	36.1581920903955	36.241610738255	25	0.833394800312817	2	11	4	NaN	2	5	0.0233821743229072	1	1	NaN	357	6	42	1	121	221	321	NaN	521	0.0624494706280529	2	1	NaN	3363304.7404807	NaN	3363305.7238688	3363306.24041483
80	18	0	0	90	36.1581920903955	36.241610738255	10	0.333357920125127	2	1	4	NaN	1	5	0.0233821743229072	1	1	NaN	358	6	43	1	121	221	321	NaN	521	0.215130622964352	1	1	NaN	3363307.1240289	NaN	3363308.1074354	3363308.62398698
80	18	0	0	90	36.1581920903955	36.241610738255	18	0.600044256225228	2	5	5	NaN	1	5	0.0233821743229072	1	1	NaN	359	6	44	1	121	221	321	NaN	521	0.113275370560586	2	0	NaN	3363309.6576168	NaN	3363310.6410068	3363311.15756123
80	18	0	0	90	36.1581920903955	36.241610738255	12	0.400029504150152	2	1	6	NaN	1	4	0.0233821743229072	1	1	NaN	360	6	45	1	121	221	321	NaN	521	0.168775417841971	2	0	NaN	3363312.0745111	NaN	3363313.0579245	3363313.57446888
80	18	0	0	90	36.1581920903955	36.241610738255	19	0.633380048237741	2	1	6	NaN	1	5	0.0233821743229072	1	1	NaN	361	6	46	1	121	221	321	NaN	521	0.124782470520586	1	1	NaN	3363314.5580997	NaN	3363315.5414943	3363316.05804583
80	18	0	0	90	36.1581920903955	36.241610738255	24	0.800059008300304	2	5	3	NaN	1	5	0.0233821743229072	1	1	NaN	362	6	47	1	121	221	321	NaN	521	0.915523923467845	1	1	NaN	3363316.9916603	NaN	3363317.9750486	3363318.49162118
80	18	0	0	90	36.1581920903955	36.241610738255	21	0.700051632262766	2	3	2	NaN	1	3	0.0233821743229072	1	1	NaN	363	6	48	1	121	221	321	NaN	521	0.0984007227234542	1	1	NaN	3363320.2086901	NaN	3363321.1920346	3363321.70860508
80	18	0	0	90	36.1581920903955	36.241610738255	7	0.233350544087589	2	7	3	NaN	2	4	0.0233821743229072	1	1	NaN	364	6	49	1	121	221	321	NaN	521	0.065318422857672	1	0	NaN	3363322.6254207	NaN	3363323.609026	3363324.12550178
80	18	0	0	90	36.1581920903955	36.241610738255	24	0.800059008300304	2	9	1	NaN	2	3	0.0233821743229072	1	1	NaN	365	6	50	1	121	221	321	NaN	521	0.0577434175647795	1	0	NaN	3363325.0092085	NaN	3363325.9925237	3363326.50907698
80	18	0	0	90	36.1581920903955	36.241610738255	14	0.466701088175178	2	1	5	NaN	1	4	0.0233821743229072	1	1	NaN	366	6	51	1	121	221	321	NaN	521	0.0749272229149938	1	1	NaN	3363327.3759896	NaN	3363328.3594538	3363328.87598128
80	18	0	0	90	36.1581920903955	36.241610738255	13	0.433365296162665	2	1	4	NaN	1	3	0.0233821743229072	1	1	NaN	367	6	52	1	121	221	321	NaN	521	0.123502170201391	1	1	NaN	3363329.7595613	NaN	3363330.7429828	3363331.25953553
80	18	0	0	90	36.1581920903955	36.241610738255	20	0.666715840250254	2	6	6	NaN	1	3	0.0233821743229072	1	1	NaN	368	6	53	1	121	221	321	NaN	521	0.0103953229263425	1	1	NaN	3363332.1931687	NaN	3363333.1765597	3363333.69311418
80	18	0	0	90	36.1581920903955	36.241610738255	24	0.800059008300304	2	5	5	NaN	1	5	0.0233821743229072	1	1	NaN	369	6	54	1	121	221	321	NaN	521	0.380804570391774	1	1	NaN	3363334.509923	NaN	3363335.4934562	3363336.01000513
80	18	0	0	90	36.1581920903955	36.241610738255	15	0.50003688018769	2	6	3	NaN	1	5	0.0233821743229072	1	1	NaN	370	6	55	1	121	221	321	NaN	521	0.136605723295361	1	1	NaN	3363337.2103242	NaN	3363338.1937256	3363338.71027228
80	18	0	0	90	36.1581920903955	36.241610738255	0	0	1	2	5	NaN	1	5	0.0233821743229072	1	1	NaN	371	6	56	1	111	211	311	NaN	511	0.206206370610744	1	1	NaN	3363339.6604377	NaN	3363340.6439531	3363341.16051713
80	18	0	0	90	36.1581920903955	36.241610738255	12	0.400029504150152	2	6	6	NaN	1	3	0.0233821743229072	1	1	NaN	372	6	57	1	121	221	321	NaN	521	0.521766623016447	2	0	NaN	3363342.1774823	NaN	3363343.1608678	3363343.67743118
80	18	0	0	90	36.1581920903955	36.241610738255	22	0.733387424275279	2	6	1	NaN	1	3	0.0233821743229072	1	1	NaN	373	6	58	1	121	221	321	NaN	521	0.0104102706536651	1	1	NaN	3363345.0110911	NaN	3363345.9944836	3363346.51103593
80	18	0	0	90	36.1581920903955	36.241610738255	22	0.733387424275279	2	1	6	NaN	1	3	0.0233821743229072	1	1	NaN	374	6	59	1	121	221	321	NaN	521	0.138309775386006	1	1	NaN	3363347.3446549	NaN	3363348.3280586	3363348.84460682
80	18	0	0	90	36.1581920903955	36.241610738255	9	0.300022128112614	2	3	3	NaN	1	5	0.0233821743229072	1	1	NaN	375	6	60	1	121	221	321	NaN	521	0.192165174987167	1	1	NaN	3363349.7948668	NaN	3363350.778294	3363351.29484762
80	18	0	0	90	36.1581920903955	36.241610738255	10	0.333357920125127	2	8	2	NaN	2	5	0.0233821743229072	1	1	NaN	376	6	61	1	121	221	321	NaN	521	0.0758984703570604	2	1	NaN	3363352.2951378	NaN	3363353.2785846	3363353.79508943
80	18	0	0	90	36.1581920903955	36.241610738255	18	0.600044256225228	2	12	1	NaN	2	4	0.0233821743229072	1	1	NaN	377	6	62	1	121	221	321	NaN	521	0.260616770479828	1	0	NaN	3363354.6786998	NaN	3363355.6621107	3363356.17865113
80	18	0	0	90	36.1581920903955	36.241610738255	6	0.200014752075076	2	2	5	NaN	1	4	0.0233821743229072	1	1	NaN	378	6	63	1	121	221	321	NaN	521	0.188852170482278	1	1	NaN	3363357.2623058	NaN	3363358.2456991	3363358.76224243
80	18	0	0	90	36.1581920903955	36.241610738255	6	0.200014752075076	2	10	5	NaN	2	4	0.0233821743229072	1	1	NaN	379	7	1	1	121	221	321	NaN	521	0.411422138102353	2	1	NaN	3363363.4795642	NaN	3363364.4629716	3363364.97952376
80	18	0	0	90	36.1581920903955	36.241610738255	22	0.733387424275279	2	11	6	NaN	2	4	0.0233821743229072	1	1	NaN	380	7	2	1	121	221	321	NaN	521	0.246628922875971	2	1	NaN	3363366.1965006	NaN	3363367.1798983	3363367.69644848
80	18	0	0	90	36.1581920903955	36.241610738255	21	0.700051632262766	2	2	5	NaN	1	4	0.0233821743229072	1	1	NaN	381	7	3	1	121	221	321	NaN	521	0.223837470635772	1	1	NaN	3363368.7633353	NaN	3363369.7468275	3363370.26336433
80	18	0	0	90	36.1581920903955	36.241610738255	15	0.50003688018769	2	9	5	NaN	2	4	0.0233821743229072	1	1	NaN	382	7	4	1	121	221	321	NaN	521	0.0580123704858124	2	1	NaN	3363371.2970245	NaN	3363372.2803928	3363372.79695133
80	18	0	0	90	36.1581920903955	36.241610738255	25	0.833394800312817	2	8	1	NaN	2	3	0.0233821743229072	1	1	NaN	383	7	5	1	121	221	321	NaN	521	0.23521362291649	1	0	NaN	3363373.6637838	NaN	3363374.6472984	3363375.16385718
80	18	0	0	90	36.1581920903955	36.241610738255	18	0.600044256225228	2	7	5	NaN	2	5	0.0233821743229072	1	1	NaN	384	7	6	1	121	221	321	NaN	521	0.844872170127928	1	0	NaN	3363376.2141483	NaN	3363377.1975402	3363377.71409963
80	18	0	0	90	36.1581920903955	36.241610738255	15	0.50003688018769	2	3	5	NaN	1	5	0.0233821743229072	1	1	NaN	385	7	7	1	121	221	321	NaN	521	0.0866095279343426	1	1	NaN	3363379.3644611	NaN	3363380.3478629	3363380.86441557
80	18	0	0	90	36.1581920903955	36.241610738255	13	0.433365296162665	2	3	4	NaN	1	4	0.0233821743229072	1	1	NaN	386	7	8	1	121	221	321	NaN	521	0.0104097705334425	1	1	NaN	3363381.7647009	NaN	3363382.7480978	3363383.26464363
80	18	0	0	90	36.1581920903955	36.241610738255	10	0.333357920125127	2	2	6	NaN	1	3	0.0233821743229072	1	1	NaN	387	7	9	1	121	221	321	NaN	521	0.393331323284656	1	1	NaN	3363384.0815212	NaN	3363385.0649897	3363385.58154678
80	18	0	0	90	36.1581920903955	36.241610738255	13	0.433365296162665	2	1	5	NaN	1	4	0.0233821743229072	1	1	NaN	388	7	10	1	121	221	321	NaN	521	0.141330770216882	1	1	NaN	3363386.7818202	NaN	3363387.7652443	3363388.28180513
80	18	0	0	90	36.1581920903955	36.241610738255	24	0.800059008300304	2	11	1	NaN	2	4	0.0233821743229072	1	1	NaN	389	7	11	1	121	221	321	NaN	521	0.202826322987676	2	1	NaN	3363389.232108	NaN	3363390.2155057	3363390.73205278
80	18	0	0	90	36.1581920903955	36.241610738255	14	0.466701088175178	2	3	2	NaN	1	3	0.0233821743229072	1	1	NaN	390	7	12	1	121	221	321	NaN	521	0.261917875148356	2	0	NaN	3363391.7490185	NaN	3363392.7324151	3363393.24896572
80	18	0	0	90	36.1581920903955	36.241610738255	6	0.200014752075076	2	12	3	NaN	2	5	0.0233821743229072	1	1	NaN	391	7	13	1	121	221	321	NaN	521	0.214914423413575	2	1	NaN	3363394.3160124	NaN	3363395.2993346	3363395.81588708
80	18	0	0	90	36.1581920903955	36.241610738255	25	0.833394800312817	2	4	5	NaN	1	5	0.0233821743229072	1	1	NaN	392	7	14	1	121	221	321	NaN	521	0.24977557035163	1	1	NaN	3363396.8495143	NaN	3363397.8329197	3363398.34946043
80	18	0	0	90	36.1581920903955	36.241610738255	24	0.800059008300304	2	7	6	NaN	2	5	0.0233821743229072	1	1	NaN	393	7	15	1	121	221	321	NaN	521	0.275187622755766	2	1	NaN	3363399.3997631	NaN	3363400.3831485	3363400.89971978
80	18	0	0	90	36.1581920903955	36.241610738255	23	0.766723216287792	2	6	2	NaN	1	3	0.0233821743229072	1	1	NaN	394	7	16	1	121	221	321	NaN	521	0.123055570293218	1	1	NaN	3363402.0000227	NaN	3363402.9834044	3363403.49996443
80	18	0	0	90	36.1581920903955	36.241610738255	17	0.566708464212716	2	12	5	NaN	2	4	0.0233821743229072	1	1	NaN	395	7	17	1	121	221	321	NaN	521	0.241450770758092	2	1	NaN	3363404.4335876	NaN	3363405.4169886	3363405.93354083
80	18	0	0	90	36.1581920903955	36.241610738255	17	0.566708464212716	2	11	1	NaN	2	5	0.0233821743229072	1	1	NaN	396	7	18	1	121	221	321	NaN	521	0.130569617729634	2	1	NaN	3363407.000498	NaN	3363407.9838871	3363408.50045648
80	18	0	0	90	36.1581920903955	36.241610738255	8	0.266686336100101	2	4	4	NaN	1	4	0.0233821743229072	1	1	NaN	397	7	19	1	121	221	321	NaN	521	0.232653323095292	2	0	NaN	3363409.4507721	NaN	3363410.4341531	3363410.95070288
80	18	0	0	90	36.1581920903955	36.241610738255	23	0.766723216287792	2	12	1	NaN	2	4	0.0233821743229072	1	1	NaN	398	7	20	1	121	221	321	NaN	521	0.473831270355731	2	1	NaN	3363412.0010409	NaN	3363412.9843914	3363413.50096353
80	18	0	0	90	36.1581920903955	36.241610738255	8	0.266686336100101	2	3	5	NaN	1	4	0.0233821743229072	1	1	NaN	399	7	21	1	121	221	321	NaN	521	0.0424612704664469	1	1	NaN	3363414.7846059	NaN	3363415.7680046	3363416.28455723
80	18	0	0	90	36.1581920903955	36.241610738255	13	0.433365296162665	2	8	1	NaN	2	3	0.0233821743229072	1	1	NaN	400	7	22	1	121	221	321	NaN	521	0.772582270670682	2	1	NaN	3363417.1348473	NaN	3363418.1182373	3363418.63478053
80	18	0	0	90	36.1581920903955	36.241610738255	22	0.733387424275279	2	4	5	NaN	1	3	0.0233821743229072	1	1	NaN	401	7	23	1	121	221	321	NaN	521	0.0645355228334665	1	1	NaN	3363420.21843	NaN	3363421.2018779	3363421.71842908
80	18	0	0	90	36.1581920903955	36.241610738255	12	0.400029504150152	2	5	5	NaN	1	3	0.0233821743229072	1	1	NaN	402	7	24	1	121	221	321	NaN	521	0.1849659178406	2	0	NaN	3363422.6020295	NaN	3363423.5854292	3363424.10199348
80	18	0	0	90	36.1581920903955	36.241610738255	11	0.36669371213764	2	1	1	NaN	1	3	0.0233821743229072	1	1	NaN	403	7	25	1	121	221	321	NaN	521	0.612992922775447	2	0	NaN	3363425.1022911	NaN	3363426.0856793	3363426.60224118
80	18	0	0	90	36.1581920903955	36.241610738255	23	0.766723216287792	2	9	3	NaN	2	3	0.0233821743229072	1	1	NaN	404	7	26	1	121	221	321	NaN	521	0.0792641704902053	1	0	NaN	3363428.0359074	NaN	3363429.0193047	3363429.53585553
80	18	0	0	90	36.1581920903955	36.241610738255	11	0.36669371213764	2	4	6	NaN	1	3	0.0233821743229072	1	1	NaN	405	7	27	1	121	221	321	NaN	521	0.319852489978075	1	1	NaN	3363430.4194699	NaN	3363431.4028754	3363431.91942291
80	18	0	0	90	36.1581920903955	36.241610738255	0	0	1	9	3	NaN	2	3	0.0233821743229072	1	1	NaN	406	7	28	1	111	211	311	NaN	511	0.19002279965207	1	0	NaN	3363433.0530778	NaN	3363434.0364607	3363434.5530364
80	18	0	0	90	36.1581920903955	36.241610738255	24	0.800059008300304	2	6	2	NaN	1	4	0.0233821743229072	1	1	NaN	407	7	29	1	121	221	321	NaN	521	0.0410711229778826	1	1	NaN	3363435.5699874	NaN	3363436.5533706	3363437.06992788
80	18	0	0	90	36.1581920903955	36.241610738255	24	0.800059008300304	2	1	5	NaN	1	3	0.0233821743229072	1	1	NaN	408	7	30	1	121	221	321	NaN	521	0.0104207177646458	1	1	NaN	3363437.920217	NaN	3363438.9036149	3363439.42015438
80	18	0	0	90	36.1581920903955	36.241610738255	13	0.433365296162665	2	5	3	NaN	1	5	0.0233821743229072	1	1	NaN	409	7	31	1	121	221	321	NaN	521	0.541502622887492	1	1	NaN	3363440.2537722	NaN	3363441.2371733	3363441.75372978
80	18	0	0	90	36.1581920903955	36.241610738255	7	0.233350544087589	2	12	1	NaN	2	5	0.0233821743229072	1	1	NaN	410	7	32	1	121	221	321	NaN	521	0.106317317578942	1	0	NaN	3363443.1207553	NaN	3363444.1041129	3363444.62067378
80	18	0	0	90	36.1581920903955	36.241610738255	0	0	1	1	3	NaN	1	4	0.0233821743229072	1	1	NaN	411	7	33	1	111	211	311	NaN	511	0.153743123169988	1	1	NaN	3363445.5376351	NaN	3363446.5210172	3363447.03758148
80	18	0	0	90	36.1581920903955	36.241610738255	7	0.233350544087589	2	1	5	NaN	1	5	0.0233821743229072	1	1	NaN	412	7	34	1	121	221	321	NaN	521	0.12662007054314	2	0	NaN	3363448.0044035	NaN	3363448.9879278	3363449.50448313
80	18	0	0	90	36.1581920903955	36.241610738255	21	0.700051632262766	2	3	6	NaN	1	4	0.0233821743229072	1	1	NaN	413	7	35	1	121	221	321	NaN	521	0.0843060230836272	2	0	NaN	3363450.4547772	NaN	3363451.4381777	3363451.95473288
80	18	0	0	90	36.1581920903955	36.241610738255	12	0.400029504150152	2	11	1	NaN	2	5	0.0233821743229072	1	1	NaN	414	7	36	1	121	221	321	NaN	521	0.116147070191801	2	1	NaN	3363452.8550218	NaN	3363453.8383993	3363454.35496023
80	18	0	0	90	36.1581920903955	36.241610738255	9	0.300022128112614	2	2	1	NaN	1	3	0.0233821743229072	1	1	NaN	415	7	37	1	121	221	321	NaN	521	0.274417222943157	2	0	NaN	3363455.2885968	NaN	3363456.27206	3363456.78853488
80	18	0	0	90	36.1581920903955	36.241610738255	9	0.300022128112614	2	11	2	NaN	2	3	0.0233821743229072	1	1	NaN	416	7	38	1	121	221	321	NaN	521	0.266800518147647	2	1	NaN	3363457.8721061	NaN	3363458.8556434	3363459.37211978
80	18	0	0	90	36.1581920903955	36.241610738255	7	0.233350544087589	2	4	3	NaN	1	4	0.0233821743229072	1	1	NaN	417	7	39	1	121	221	321	NaN	521	0.659506470430642	1	1	NaN	3363460.4557478	NaN	3363461.4391396	3363461.95570883
80	18	0	0	90	36.1581920903955	36.241610738255	21	0.700051632262766	2	4	3	NaN	1	3	0.0233821743229072	1	1	NaN	418	7	40	1	121	221	321	NaN	521	0.083702317904681	1	1	NaN	3363463.4393939	NaN	3363464.4228115	3363464.93933588
80	18	0	0	90	36.1581920903955	36.241610738255	18	0.600044256225228	2	11	4	NaN	2	3	0.0233821743229072	1	1	NaN	419	7	41	1	121	221	321	NaN	521	0.296813999768347	2	1	NaN	3363465.9062955	NaN	3363466.8896796	3363467.4062656
80	18	0	0	90	36.1581920903955	36.241610738255	6	0.200014752075076	2	7	3	NaN	2	3	0.0233821743229072	1	1	NaN	420	7	42	1	121	221	321	NaN	521	0.176453070249408	2	1	NaN	3363468.5064082	NaN	3363469.4899387	3363470.00649453
80	18	0	0	90	36.1581920903955	36.241610738255	11	0.36669371213764	2	1	1	NaN	1	5	0.0233821743229072	1	1	NaN	421	7	43	1	121	221	321	NaN	521	0.0923359231092036	2	0	NaN	3363471.0067192	NaN	3363471.9901841	3363472.50674438
80	18	0	0	90	36.1581920903955	36.241610738255	7	0.233350544087589	2	9	4	NaN	2	5	0.0233821743229072	1	1	NaN	422	7	44	1	121	221	321	NaN	521	0.164011585060507	2	1	NaN	3363473.406909	NaN	3363474.390419	3363474.90698481
80	18	0	0	90	36.1581920903955	36.241610738255	10	0.333357920125127	2	2	2	NaN	1	5	0.0233821743229072	1	1	NaN	423	7	45	1	121	221	321	NaN	521	0.176641970407218	2	0	NaN	3363475.8905987	NaN	3363476.8740184	3363477.39055783
80	18	0	0	90	36.1581920903955	36.241610738255	8	0.266686336100101	2	5	2	NaN	1	3	0.0233821743229072	1	1	NaN	424	7	46	1	121	221	321	NaN	521	0.237189970444888	2	0	NaN	3363478.3740917	NaN	3363479.3575789	3363479.87413223
80	18	0	0	90	36.1581920903955	36.241610738255	21	0.700051632262766	2	11	3	NaN	2	4	0.0233821743229072	1	1	NaN	425	7	47	1	121	221	321	NaN	521	0.215006323065609	2	1	NaN	3363480.9242935	NaN	3363481.9078406	3363482.42439038
80	18	0	0	90	36.1581920903955	36.241610738255	12	0.400029504150152	2	5	2	NaN	1	4	0.0233821743229072	1	1	NaN	426	7	48	1	121	221	321	NaN	521	0.248957770410925	2	0	NaN	3363483.4580144	NaN	3363484.4414208	3363484.95796623
80	18	0	0	90	36.1581920903955	36.241610738255	11	0.36669371213764	2	4	2	NaN	1	4	0.0233821743229072	1	1	NaN	427	7	49	1	121	221	321	NaN	521	0.0663066180422902	2	0	NaN	3363486.0248087	NaN	3363487.0083493	3363487.52487778
80	18	0	0	90	36.1581920903955	36.241610738255	8	0.266686336100101	2	3	1	NaN	1	4	0.0233821743229072	1	1	NaN	428	7	50	1	121	221	321	NaN	521	0.250603622756898	2	0	NaN	3363488.4084751	NaN	3363489.391891	3363489.90844548
80	18	0	0	90	36.1581920903955	36.241610738255	25	0.833394800312817	2	5	6	NaN	1	5	0.0233821743229072	1	1	NaN	429	7	51	1	121	221	321	NaN	521	0.156060323119164	2	0	NaN	3363490.9753192	NaN	3363491.9588297	3363492.47537538
80	18	0	0	90	36.1581920903955	36.241610738255	19	0.633380048237741	2	5	3	NaN	1	5	0.0233821743229072	1	1	NaN	430	7	52	1	121	221	321	NaN	521	0.384945837780833	2	0	NaN	3363493.4423368	NaN	3363494.4257545	3363494.94228036
80	18	0	0	90	36.1581920903955	36.241610738255	20	0.666715840250254	2	1	4	NaN	1	4	0.0233821743229072	1	1	NaN	431	7	53	1	121	221	321	NaN	521	0.18858152301982	2	0	NaN	3363496.1424503	NaN	3363497.1259943	3363497.64254848
80	18	0	0	90	36.1581920903955	36.241610738255	22	0.733387424275279	2	6	4	NaN	1	4	0.0233821743229072	1	1	NaN	432	7	54	1	121	221	321	NaN	521	0.0963733703829348	1	1	NaN	3363498.6428549	NaN	3363499.6262574	3363500.14278603
80	18	0	0	90	36.1581920903955	36.241610738255	17	0.566708464212716	2	9	5	NaN	2	3	0.0233821743229072	1	1	NaN	433	7	55	1	121	221	321	NaN	521	0.119353023357689	1	0	NaN	3363501.0597008	NaN	3363502.0431863	3363502.55969918
80	18	0	0	90	36.1581920903955	36.241610738255	10	0.333357920125127	2	4	2	NaN	1	3	0.0233821743229072	1	1	NaN	434	7	56	1	121	221	321	NaN	521	0.221816370263696	2	0	NaN	3363503.4933451	NaN	3363504.4767111	3363504.99326203
80	18	0	0	90	36.1581920903955	36.241610738255	9	0.300022128112614	2	1	3	NaN	1	3	0.0233821743229072	1	1	NaN	435	7	57	1	121	221	321	NaN	521	0.272208670154214	2	0	NaN	3363506.0269012	NaN	3363507.0102966	3363507.52684283
80	18	0	0	90	36.1581920903955	36.241610738255	20	0.666715840250254	2	7	2	NaN	2	4	0.0233821743229072	1	1	NaN	436	7	58	1	121	221	321	NaN	521	0.0487370705232024	1	0	NaN	3363508.6103536	NaN	3363509.5938844	3363510.11043583
80	18	0	0	90	36.1581920903955	36.241610738255	20	0.666715840250254	2	2	4	NaN	1	5	0.0233821743229072	1	1	NaN	437	7	59	1	121	221	321	NaN	521	0.153752323240042	2	0	NaN	3363510.9772804	NaN	3363511.9607923	3363512.47734038
80	18	0	0	90	36.1581920903955	36.241610738255	19	0.633380048237741	2	8	3	NaN	2	4	0.0233821743229072	1	1	NaN	438	7	60	1	121	221	321	NaN	521	0.24683647044003	2	1	NaN	3363513.4442936	NaN	3363514.4276904	3363514.94424013
80	18	0	0	90	36.1581920903955	36.241610738255	15	0.50003688018769	2	8	3	NaN	2	5	0.0233821743229072	1	1	NaN	439	7	61	1	121	221	321	NaN	521	0.240086570382118	2	1	NaN	3363516.0112158	NaN	3363516.9946024	3363517.51115613
80	18	0	0	90	36.1581920903955	36.241610738255	6	0.200014752075076	2	7	1	NaN	2	3	0.0233821743229072	1	1	NaN	440	7	62	1	121	221	321	NaN	521	0.209810570348054	2	1	NaN	3363518.5614697	NaN	3363519.5448603	3363520.06140973
80	18	0	0	90	36.1581920903955	36.241610738255	17	0.566708464212716	2	12	2	NaN	2	4	0.0233821743229072	1	1	NaN	441	7	63	1	121	221	321	NaN	521	0.204588123131543	2	1	NaN	3363521.0783775	NaN	3363522.0617642	3363522.57833408
80	18	0	0	90	36.1581920903955	36.241610738255	10	0.333357920125127	2	1	3	NaN	1	5	0.0233821743229072	1	1	NaN	442	8	1	1	121	221	321	NaN	521	1.62791032344103	2	0	NaN	3363526.4955855	NaN	3363527.4790051	3363527.99552488
80	18	0	0	90	36.1581920903955	36.241610738255	22	0.733387424275279	2	3	4	NaN	1	5	0.0233821743229072	1	1	NaN	443	8	2	1	121	221	321	NaN	521	0.180931970477104	2	0	NaN	3363530.4459642	NaN	3363531.4293713	3363531.94591033
80	18	0	0	90	36.1581920903955	36.241610738255	15	0.50003688018769	2	9	6	NaN	2	4	0.0233821743229072	1	1	NaN	444	8	3	1	121	221	321	NaN	521	0.241229922976345	2	1	NaN	3363532.9462128	NaN	3363533.9296183	3363534.44615448
80	18	0	0	90	36.1581920903955	36.241610738255	14	0.466701088175178	2	10	6	NaN	2	3	0.0233821743229072	1	1	NaN	445	8	4	1	121	221	321	NaN	521	0.21861367020756	2	1	NaN	3363535.4964577	NaN	3363536.4798573	3363536.99640823
80	18	0	0	90	36.1581920903955	36.241610738255	7	0.233350544087589	2	5	1	NaN	1	3	0.0233821743229072	1	1	NaN	446	8	5	1	121	221	321	NaN	521	0.101345623377711	2	0	NaN	3363538.0300529	NaN	3363539.0134402	3363539.52999828
80	18	0	0	90	36.1581920903955	36.241610738255	11	0.36669371213764	2	10	6	NaN	2	5	0.0233821743229072	1	1	NaN	447	8	6	1	121	221	321	NaN	521	0.356053732801229	2	1	NaN	3363540.4469406	NaN	3363541.4303667	3363541.94689567
80	18	0	0	90	36.1581920903955	36.241610738255	25	0.833394800312817	2	10	6	NaN	2	3	0.0233821743229072	1	1	NaN	448	8	7	1	121	221	321	NaN	521	0.176913923118263	2	1	NaN	3363543.3305758	NaN	3363544.3139905	3363544.83051638
80	18	0	0	90	36.1581920903955	36.241610738255	9	0.300022128112614	2	6	5	NaN	1	4	0.0233821743229072	1	1	NaN	449	8	8	1	121	221	321	NaN	521	0.141130423173308	2	0	NaN	3363545.8141444	NaN	3363546.7975332	3363547.31409248
80	18	0	0	90	36.1581920903955	36.241610738255	17	0.566708464212716	2	8	2	NaN	2	4	0.0233821743229072	1	1	NaN	450	8	9	1	121	221	321	NaN	521	0.122803470585495	2	1	NaN	3363548.2644668	NaN	3363549.2477758	3363549.76432333
80	18	0	0	90	36.1581920903955	36.241610738255	11	0.36669371213764	2	2	1	NaN	1	5	0.0233821743229072	1	1	NaN	451	8	10	1	121	221	321	NaN	521	0.185499870683998	2	0	NaN	3363550.6979661	NaN	3363551.6813433	3363552.19789573
80	18	0	0	90	36.1581920903955	36.241610738255	16	0.533372672200203	2	9	4	NaN	2	5	0.0233821743229072	1	1	NaN	452	8	11	1	121	221	321	NaN	521	0.781326022930443	2	1	NaN	3363553.1981921	NaN	3363554.1816349	3363554.69815068
80	18	0	0	90	36.1581920903955	36.241610738255	19	0.633380048237741	2	10	5	NaN	2	5	0.0233821743229072	1	1	NaN	453	8	12	1	121	221	321	NaN	521	0.160917017608881	1	0	NaN	3363556.2984927	NaN	3363557.2818913	3363557.79844548
80	18	0	0	90	36.1581920903955	36.241610738255	6	0.200014752075076	2	6	1	NaN	1	5	0.0233821743229072	1	1	NaN	454	8	13	1	121	221	321	NaN	521	0.101218675263226	1	1	NaN	3363558.7820815	NaN	3363559.7654771	3363560.28202832
80	18	0	0	90	36.1581920903955	36.241610738255	19	0.633380048237741	2	5	5	NaN	1	3	0.0233821743229072	1	1	NaN	455	8	14	1	121	221	321	NaN	521	0.148374870419502	2	0	NaN	3363561.1989901	NaN	3363562.1823852	3363562.69892903
80	18	0	0	90	36.1581920903955	36.241610738255	24	0.800059008300304	2	12	5	NaN	2	4	0.0233821743229072	1	1	NaN	456	8	15	1	121	221	321	NaN	521	0.153435870539397	2	1	NaN	3363563.6658944	NaN	3363564.649294	3363565.16584143
80	18	0	0	90	36.1581920903955	36.241610738255	17	0.566708464212716	2	4	4	NaN	1	3	0.0233821743229072	1	1	NaN	457	8	16	1	121	221	321	NaN	521	0.134557217825204	2	0	NaN	3363566.1326655	NaN	3363567.1161843	3363567.63274858
