subjno	age	gender	isPractice	viewdist	CmToPixX	CmToPixY	SOA_frm	SOA_time	targNum	targID	targExample	targRace	targGender	firstTargPos	contrast	familiarity	curr_staircase	iStair	TrialNum	BlockNum	blktrl	sessionNum	TC_FIXATION	TC_RSVP_START	TC_RSVP_END	TC_BLANK	TC_RESPONSE_ONSET	RT2afc	resp_2afc	acc	RSVPOnsetVBL	RSVPOnsetTime	RSVPOffsetVBL	RSVPOffsetTime	startrt_2afc
12	18	1	0	90	36.1581920903955	36.241610738255	18	0.600042384043336	2	2	5	NaN	1	3	0.211735715598392	1	1	NaN	1	1	1	1	121	221	321	NaN	521	1.23671422735788	1	1	NaN	1794836.7476738	NaN	1794837.7309614	1794838.26409187
12	18	1	0	90	36.1581920903955	36.241610738255	25	0.833392200060189	2	7	1	NaN	2	5	0.211735715598392	1	1	NaN	2	1	2	1	121	221	321	NaN	521	0.16433992725797	2	1	NaN	1794840.348007	NaN	1794841.3313182	1794841.86444057
12	18	1	0	90	36.1581920903955	36.241610738255	24	0.800056512057781	2	7	4	NaN	2	4	0.211735715598392	1	1	NaN	3	1	3	1	121	221	321	NaN	521	0.0106057650409639	2	1	NaN	1794843.4147637	NaN	1794844.3981793	1794844.91473164
12	18	1	0	90	36.1581920903955	36.241610738255	16	0.533371008038521	2	11	6	NaN	2	4	0.211735715598392	1	1	NaN	4	1	4	1	121	221	321	NaN	521	0.300717122387141	2	1	NaN	1794845.748354	NaN	1794846.7317421	1794847.24830418
12	18	1	0	90	36.1581920903955	36.241610738255	12	0.400028256028891	2	7	4	NaN	2	4	0.211735715598392	1	1	NaN	5	1	5	1	121	221	321	NaN	521	0.363430332392454	2	1	NaN	1794848.3652729	NaN	1794849.3486667	1794849.86522247
12	18	1	0	90	36.1581920903955	36.241610738255	9	0.300021192021668	2	12	5	NaN	2	4	0.211735715598392	1	1	NaN	6	1	6	1	121	221	321	NaN	521	0.583783822366968	2	1	NaN	1794851.0488879	NaN	1794852.0322561	1794852.54882658
12	18	1	0	90	36.1581920903955	36.241610738255	14	0.466699632033706	2	12	2	NaN	2	5	0.211735715598392	1	1	NaN	7	1	7	1	121	221	321	NaN	521	0.515175927430391	2	1	NaN	1794853.9658193	NaN	1794854.9492127	1794855.46578497
12	18	1	0	90	36.1581920903955	36.241610738255	11	0.366692568026483	2	7	3	NaN	2	4	0.211735715598392	1	1	NaN	8	1	8	1	121	221	321	NaN	521	0.201422375161201	1	0	NaN	1794856.7995511	NaN	1794857.7828309	1794858.29939692
12	18	1	0	90	36.1581920903955	36.241610738255	0	0	1	12	5	NaN	2	3	0.211735715598392	1	1	NaN	9	1	9	1	111	211	311	NaN	511	0.356208669953048	2	1	NaN	1794859.3163376	NaN	1794860.2997559	1794860.81630713
12	18	1	0	90	36.1581920903955	36.241610738255	9	0.300021192021668	2	8	6	NaN	2	3	0.211735715598392	1	1	NaN	10	1	10	1	121	221	321	NaN	521	0.0104071700479835	2	1	NaN	1794861.9999701	NaN	1794862.9833381	1794863.49990183
12	18	1	0	90	36.1581920903955	36.241610738255	9	0.300021192021668	2	5	4	NaN	1	5	0.211735715598392	1	1	NaN	11	1	11	1	121	221	321	NaN	521	0.0104089700616896	1	1	NaN	1794864.3335035	NaN	1794865.3168982	1794865.83346683
12	18	1	0	90	36.1581920903955	36.241610738255	12	0.400028256028891	2	1	3	NaN	1	4	0.211735715598392	1	1	NaN	12	1	12	1	121	221	321	NaN	521	3.51772692240775	1	1	NaN	1794866.6670852	NaN	1794867.6504763	1794868.16703028
12	18	1	0	90	36.1581920903955	36.241610738255	11	0.366692568026483	2	4	6	NaN	1	3	0.211735715598392	1	1	NaN	13	1	13	1	121	221	321	NaN	521	0.483572490047663	1	1	NaN	1794872.5009906	NaN	1794873.4843833	1794874.00093801
12	18	1	0	90	36.1581920903955	36.241610738255	13	0.433363944031298	2	2	5	NaN	1	5	0.211735715598392	1	1	NaN	14	1	14	1	121	221	321	NaN	521	0.347866242285818	1	1	NaN	1794875.3012818	NaN	1794876.284634	1794876.80121006
12	18	1	0	90	36.1581920903955	36.241610738255	22	0.733385136052966	2	11	5	NaN	2	5	0.211735715598392	1	1	NaN	15	1	15	1	121	221	321	NaN	521	0.44835227006115	2	1	NaN	1794877.9681907	NaN	1794878.9516091	1794879.46814253
12	18	1	0	90	36.1581920903955	36.241610738255	15	0.500035320036113	2	11	4	NaN	2	5	0.211735715598392	1	1	NaN	16	1	16	1	121	221	321	NaN	521	0.481529999990016	2	1	NaN	1794880.7350502	NaN	1794881.7185301	1794882.2350818
12	18	1	0	90	36.1581920903955	36.241610738255	16	0.533371008038521	2	9	4	NaN	2	4	0.211735715598392	1	1	NaN	17	1	17	1	121	221	321	NaN	521	0.409169517457485	2	1	NaN	1794883.5353845	NaN	1794884.5187921	1794885.03535038
12	18	1	0	90	36.1581920903955	36.241610738255	24	0.800056512057781	2	2	6	NaN	1	4	0.211735715598392	1	1	NaN	18	1	18	1	121	221	321	NaN	521	0.468309322372079	1	1	NaN	1794886.2523512	NaN	1794887.2357371	1794887.75229568
12	18	1	0	90	36.1581920903955	36.241610738255	17	0.566706696040928	2	6	5	NaN	1	4	0.211735715598392	1	1	NaN	19	1	19	1	121	221	321	NaN	521	0.405107717262581	1	1	NaN	1794889.0359455	NaN	1794890.019331	1794890.53588978
12	18	1	0	90	36.1581920903955	36.241610738255	23	0.766720824055374	2	12	3	NaN	2	4	0.211735715598392	1	1	NaN	20	1	20	1	121	221	321	NaN	521	0.328274422325194	2	1	NaN	1794891.752772	NaN	1794892.7362621	1794893.25282708
12	18	1	0	90	36.1581920903955	36.241610738255	14	0.466699632033706	2	2	4	NaN	1	5	0.211735715598392	1	1	NaN	21	1	21	1	121	221	321	NaN	521	0.0104081698227674	1	1	NaN	1794894.4031373	NaN	1794895.3865273	1794895.90308973
12	18	1	0	90	36.1581920903955	36.241610738255	14	0.466699632033706	2	12	1	NaN	2	5	0.211735715598392	1	1	NaN	22	1	22	1	121	221	321	NaN	521	0.416332722408697	2	1	NaN	1794896.7367151	NaN	1794897.7200806	1794898.23664748
12	18	1	0	90	36.1581920903955	36.241610738255	22	0.733385136052966	2	10	6	NaN	2	4	0.211735715598392	1	1	NaN	23	1	23	1	121	221	321	NaN	521	0.474752917420119	2	1	NaN	1794899.4703082	NaN	1794900.4536988	1794900.97025318
12	18	1	0	90	36.1581920903955	36.241610738255	16	0.533371008038521	2	12	2	NaN	2	3	0.211735715598392	1	1	NaN	24	1	24	1	121	221	321	NaN	521	0.954472222365439	2	1	NaN	1794902.2705845	NaN	1794903.2539498	1794903.77053208
12	18	1	0	90	36.1581920903955	36.241610738255	7	0.233349816016853	2	7	6	NaN	2	5	0.211735715598392	1	1	NaN	25	1	25	1	121	221	321	NaN	521	0.566373422509059	2	1	NaN	1794905.5542724	NaN	1794906.5376271	1794907.05418888
12	18	1	0	90	36.1581920903955	36.241610738255	17	0.566706696040928	2	4	2	NaN	1	5	0.211735715598392	1	1	NaN	26	1	26	1	121	221	321	NaN	521	0.307178922463208	2	0	NaN	1794908.4378414	NaN	1794909.4212375	1794909.93779638
12	18	1	0	90	36.1581920903955	36.241610738255	0	0	1	9	2	NaN	2	4	0.211735715598392	1	1	NaN	27	1	27	1	111	211	311	NaN	511	0.714232069905847	1	0	NaN	1794911.0547775	NaN	1794912.0381584	1794912.55472983
12	18	1	0	90	36.1581920903955	36.241610738255	18	0.600042384043336	2	11	3	NaN	2	3	0.211735715598392	1	1	NaN	28	1	28	1	121	221	321	NaN	521	0.376385422423482	2	1	NaN	1794914.0883993	NaN	1794915.0718116	1794915.58836278
12	18	1	0	90	36.1581920903955	36.241610738255	25	0.833392200060189	2	7	5	NaN	2	5	0.211735715598392	1	1	NaN	29	1	29	1	121	221	321	NaN	521	0.284428175073117	2	1	NaN	1794916.7886816	NaN	1794917.7720653	1794918.28861913
12	18	1	0	90	36.1581920903955	36.241610738255	7	0.233349816016853	2	9	6	NaN	2	3	0.211735715598392	1	1	NaN	30	1	30	1	121	221	321	NaN	521	0.379612575052306	2	1	NaN	1794919.3888149	NaN	1794920.3723101	1794920.88888742
12	18	1	0	90	36.1581920903955	36.241610738255	21	0.700049448050559	2	12	1	NaN	2	4	0.211735715598392	1	1	NaN	31	1	31	1	121	221	321	NaN	521	0.359798270044848	2	1	NaN	1794922.0892213	NaN	1794923.0725827	1794923.58915233
12	18	1	0	90	36.1581920903955	36.241610738255	0	0	1	8	2	NaN	2	4	0.211735715598392	1	1	NaN	32	1	32	1	111	211	311	NaN	511	0.643877422437072	1	0	NaN	1794924.7727889	NaN	1794925.7561802	1794926.27274518
12	18	1	0	90	36.1581920903955	36.241610738255	19	0.633378072045743	2	3	1	NaN	1	4	0.211735715598392	1	1	NaN	33	1	33	1	121	221	321	NaN	521	0.484914769884199	1	1	NaN	1794927.739761	NaN	1794928.7231363	1794929.23970603
12	18	1	0	90	36.1581920903955	36.241610738255	22	0.733385136052966	2	7	6	NaN	2	5	0.211735715598392	1	1	NaN	34	1	34	1	121	221	321	NaN	521	0.340668122284114	2	1	NaN	1794930.5400191	NaN	1794931.523417	1794932.03998228
12	18	1	0	90	36.1581920903955	36.241610738255	25	0.833392200060189	2	5	4	NaN	1	4	0.211735715598392	1	1	NaN	35	1	35	1	121	221	321	NaN	521	0.490102769806981	1	1	NaN	1794933.2069599	NaN	1794934.1903575	1794934.70691013
12	18	1	0	90	36.1581920903955	36.241610738255	16	0.533371008038521	2	1	1	NaN	1	5	0.211735715598392	1	1	NaN	36	1	36	1	121	221	321	NaN	521	0.417898322455585	1	1	NaN	1794936.0072229	NaN	1794936.9906372	1794937.50718158
12	18	1	0	90	36.1581920903955	36.241610738255	8	0.26668550401926	2	2	2	NaN	1	5	0.211735715598392	1	1	NaN	37	1	37	1	121	221	321	NaN	521	0.316190217388794	1	1	NaN	1794938.7408361	NaN	1794939.7242173	1794940.24077488
12	18	1	0	90	36.1581920903955	36.241610738255	8	0.26668550401926	2	4	3	NaN	1	4	0.211735715598392	1	1	NaN	38	1	38	1	121	221	321	NaN	521	0.378337622387335	1	1	NaN	1794941.3744181	NaN	1794942.3578234	1794942.87437638
12	18	1	0	90	36.1581920903955	36.241610738255	19	0.633378072045743	2	10	5	NaN	2	4	0.211735715598392	1	1	NaN	39	1	39	1	121	221	321	NaN	521	0.382417374989018	2	1	NaN	1794944.0746874	NaN	1794945.0580936	1794945.57464462
12	18	1	0	90	36.1581920903955	36.241610738255	17	0.566706696040928	2	9	1	NaN	2	4	0.211735715598392	1	1	NaN	40	1	40	1	121	221	321	NaN	521	0.521706017432734	1	0	NaN	1794946.7749582	NaN	1794947.7583591	1794948.27491268
12	18	1	0	90	36.1581920903955	36.241610738255	19	0.633378072045743	2	11	5	NaN	2	5	0.211735715598392	1	1	NaN	41	1	41	1	121	221	321	NaN	521	0.168132522376254	2	1	NaN	1794949.6085686	NaN	1794950.5919574	1794951.10853338
12	18	1	0	90	36.1581920903955	36.241610738255	9	0.300021192021668	2	10	2	NaN	2	3	0.211735715598392	1	1	NaN	42	1	42	1	121	221	321	NaN	521	0.260503869969398	2	1	NaN	1794952.0919989	NaN	1794953.0755667	1794953.59209973
12	18	1	0	90	36.1581920903955	36.241610738255	17	0.566706696040928	2	12	1	NaN	2	5	0.211735715598392	1	1	NaN	43	1	43	1	121	221	321	NaN	521	0.413026069989428	2	1	NaN	1794954.6757531	NaN	1794955.6591283	1794956.17568423
12	18	1	0	90	36.1581920903955	36.241610738255	11	0.366692568026483	2	9	4	NaN	2	4	0.211735715598392	1	1	NaN	44	1	44	1	121	221	321	NaN	521	0.312148517463356	2	1	NaN	1794957.3926886	NaN	1794958.376052	1794958.89262278
12	18	1	0	90	36.1581920903955	36.241610738255	16	0.533371008038521	2	7	1	NaN	2	3	0.211735715598392	1	1	NaN	45	1	45	1	121	221	321	NaN	521	0.342852022498846	2	1	NaN	1794960.0262497	NaN	1794961.0096507	1794961.52621528
12	18	1	0	90	36.1581920903955	36.241610738255	14	0.466699632033706	2	9	1	NaN	2	5	0.211735715598392	1	1	NaN	46	1	46	1	121	221	321	NaN	521	0.388332795118913	2	1	NaN	1794962.6764163	NaN	1794963.659944	1794964.1764787
12	18	1	0	90	36.1581920903955	36.241610738255	10	0.333356880024075	2	6	5	NaN	1	4	0.211735715598392	1	1	NaN	47	1	47	1	121	221	321	NaN	521	0.463841069955379	1	1	NaN	1794965.3768065	NaN	1794966.3602368	1794966.87673843
12	18	1	0	90	36.1581920903955	36.241610738255	25	0.833392200060189	2	2	4	NaN	1	4	0.211735715598392	1	1	NaN	48	1	48	1	121	221	321	NaN	521	0.01040417002514	1	1	NaN	1794968.1437362	NaN	1794969.1271095	1794969.64366773
12	18	1	0	90	36.1581920903955	36.241610738255	7	0.233349816016853	2	4	1	NaN	1	3	0.211735715598392	1	1	NaN	49	1	49	1	121	221	321	NaN	521	0.556140870088711	2	0	NaN	1794970.460631	NaN	1794971.44402	1794971.96056633
12	18	1	0	90	36.1581920903955	36.241610738255	9	0.300021192021668	2	12	2	NaN	2	4	0.211735715598392	1	1	NaN	50	1	50	1	121	221	321	NaN	521	0.417137022363022	2	1	NaN	1794973.3275886	NaN	1794974.3109946	1794974.82751998
12	18	1	0	90	36.1581920903955	36.241610738255	21	0.700049448050559	2	3	3	NaN	1	5	0.211735715598392	1	1	NaN	51	1	51	1	121	221	321	NaN	521	0.243866842472926	1	1	NaN	1794976.0611673	NaN	1794977.0445821	1794977.56113246
12	18	1	0	90	36.1581920903955	36.241610738255	23	0.766720824055374	2	8	2	NaN	2	3	0.211735715598392	1	1	NaN	52	1	52	1	121	221	321	NaN	521	0.965532265137881	1	0	NaN	1794978.6112873	NaN	1794979.5948244	1794980.11136483
12	18	1	0	90	36.1581920903955	36.241610738255	10	0.333356880024075	2	1	1	NaN	1	4	0.211735715598392	1	1	NaN	53	1	53	1	121	221	321	NaN	521	1.50672506494448	1	1	NaN	1794982.2784085	NaN	1794983.2618371	1794983.77839433
12	18	1	0	90	36.1581920903955	36.241610738255	12	0.400028256028891	2	7	3	NaN	2	4	0.211735715598392	1	1	NaN	54	1	54	1	121	221	321	NaN	521	0.713696522405371	1	0	NaN	1794986.0954881	NaN	1794987.0788784	1794987.59544888
12	18	1	0	90	36.1581920903955	36.241610738255	19	0.633378072045743	2	8	2	NaN	2	3	0.211735715598392	1	1	NaN	55	1	55	1	121	221	321	NaN	521	0.0797898699529469	2	1	NaN	1794989.1291098	NaN	1794990.1125258	1794990.62907813
12	18	1	0	90	36.1581920903955	36.241610738255	12	0.400028256028891	2	2	2	NaN	1	5	0.211735715598392	1	1	NaN	56	1	56	1	121	221	321	NaN	521	0.0103955224622041	1	1	NaN	1794991.9126327	NaN	1794992.8961117	1794993.41268128
12	18	1	0	90	36.1581920903955	36.241610738255	8	0.26668550401926	2	2	3	NaN	1	3	0.211735715598392	1	1	NaN	57	1	57	1	121	221	321	NaN	521	0.219457569997758	1	1	NaN	1794994.2296118	NaN	1794995.2130346	1794995.72957743
12	18	1	0	90	36.1581920903955	36.241610738255	11	0.366692568026483	2	3	4	NaN	1	3	0.211735715598392	1	1	NaN	58	1	58	1	121	221	321	NaN	521	0.412388722412288	1	1	NaN	1794997.1964566	NaN	1794998.1799699	1794998.69653618
12	18	1	0	90	36.1581920903955	36.241610738255	7	0.233349816016853	2	3	3	NaN	1	5	0.211735715598392	1	1	NaN	59	1	59	1	121	221	321	NaN	521	0.495443822350353	1	1	NaN	1794999.9134952	NaN	1795000.8969066	1795001.41348088
12	18	1	0	90	36.1581920903955	36.241610738255	20	0.666713760048151	2	12	4	NaN	2	3	0.211735715598392	1	1	NaN	60	1	60	1	121	221	321	NaN	521	0.599085322348401	1	0	NaN	1795002.7138111	NaN	1795003.6971793	1795004.21374628
12	18	1	0	90	36.1581920903955	36.241610738255	25	0.833392200060189	2	4	4	NaN	1	4	0.211735715598392	1	1	NaN	61	1	61	1	121	221	321	NaN	521	0.299190565012395	1	1	NaN	1795005.6141868	NaN	1795006.5974638	1795007.11402354
12	18	1	0	90	36.1581920903955	36.241610738255	7	0.233349816016853	2	6	4	NaN	1	3	0.211735715598392	1	1	NaN	62	1	62	1	121	221	321	NaN	521	1.0338729172945	1	1	NaN	1795008.2310618	NaN	1795009.2143972	1795009.73094528
12	18	1	0	90	36.1581920903955	36.241610738255	22	0.733385136052966	2	8	4	NaN	2	3	0.211735715598392	1	1	NaN	63	1	63	1	121	221	321	NaN	521	0.363546717446297	2	1	NaN	1795011.581312	NaN	1795012.5647209	1795013.08127258
12	18	1	0	90	36.1581920903955	36.241610738255	18	0.600042384043336	2	10	1	NaN	2	5	0.211735715598392	1	1	NaN	64	2	1	1	121	221	321	NaN	521	0.397189022507519	2	1	NaN	1795066.2199972	NaN	1795067.2034653	1795067.71999658
12	18	1	0	90	36.1581920903955	36.241610738255	24	0.800056512057781	2	12	3	NaN	2	4	0.211735715598392	1	1	NaN	65	2	2	1	121	221	321	NaN	521	0.423857222311199	2	1	NaN	1795068.9369852	NaN	1795069.9202597	1795070.43692708
12	18	1	0	90	36.1581920903955	36.241610738255	0	0	1	11	6	NaN	2	4	0.211735715598392	1	1	NaN	66	2	3	1	111	211	311	NaN	511	0.362461064942181	2	1	NaN	1795071.6705523	NaN	1795072.6539653	1795073.17052124
12	18	1	0	90	36.1581920903955	36.241610738255	11	0.366692568026483	2	8	5	NaN	2	5	0.211735715598392	1	1	NaN	67	2	4	1	121	221	321	NaN	521	0.0104234700556844	1	0	NaN	1795074.3541695	NaN	1795075.337576	1795075.85411383
12	18	1	0	90	36.1581920903955	36.241610738255	20	0.666713760048151	2	3	6	NaN	1	5	0.211735715598392	1	1	NaN	68	2	5	1	121	221	321	NaN	521	0.169947170186788	1	1	NaN	1795076.6710562	NaN	1795077.6544494	1795078.17101773
12	18	1	0	90	36.1581920903955	36.241610738255	6	0.200014128014445	2	3	5	NaN	1	3	0.211735715598392	1	1	NaN	69	2	6	1	121	221	321	NaN	521	0.326378775062039	1	1	NaN	1795079.1545063	NaN	1795080.1380396	1795080.65460113
12	18	1	0	90	36.1581920903955	36.241610738255	9	0.300021192021668	2	1	6	NaN	1	3	0.211735715598392	1	1	NaN	70	2	7	1	121	221	321	NaN	521	0.372575469780713	1	1	NaN	1795081.7882358	NaN	1795082.7716794	1795083.28818873
12	18	1	0	90	36.1581920903955	36.241610738255	10	0.333356880024075	2	11	4	NaN	2	5	0.211735715598392	1	1	NaN	71	2	8	1	121	221	321	NaN	521	1.34521252219565	2	1	NaN	1795084.4718568	NaN	1795085.4552139	1795085.97178518
12	18	1	0	90	36.1581920903955	36.241610738255	9	0.300021192021668	2	11	4	NaN	2	5	0.211735715598392	1	1	NaN	72	2	9	1	121	221	321	NaN	521	0.414900269825011	2	1	NaN	1795088.1221962	NaN	1795089.1055729	1795089.62214633
12	18	1	0	90	36.1581920903955	36.241610738255	17	0.566706696040928	2	12	3	NaN	2	3	0.211735715598392	1	1	NaN	73	2	10	1	121	221	321	NaN	521	0.345566170057282	2	1	NaN	1795090.8557871	NaN	1795091.8391902	1795092.35575903
12	18	1	0	90	36.1581920903955	36.241610738255	7	0.233349816016853	2	12	6	NaN	2	4	0.211735715598392	1	1	NaN	74	2	11	1	121	221	321	NaN	521	0.420907022198662	2	1	NaN	1795093.5560449	NaN	1795094.5394555	1795095.05600988
12	18	1	0	90	36.1581920903955	36.241610738255	10	0.333356880024075	2	12	2	NaN	2	3	0.211735715598392	1	1	NaN	75	2	12	1	121	221	321	NaN	521	0.399008669890463	2	1	NaN	1795096.28968	NaN	1795097.273045	1795097.78960873
12	18	1	0	90	36.1581920903955	36.241610738255	20	0.666713760048151	2	8	4	NaN	2	3	0.211735715598392	1	1	NaN	76	2	13	1	121	221	321	NaN	521	0.690696470206603	2	1	NaN	1795099.0065771	NaN	1795099.9899832	1795100.50654233
12	18	1	0	90	36.1581920903955	36.241610738255	20	0.666713760048151	2	11	6	NaN	2	4	0.211735715598392	1	1	NaN	77	2	14	1	121	221	321	NaN	521	0.322235122323036	2	1	NaN	1795102.0068873	NaN	1795102.9902816	1795103.50684158
12	18	1	0	90	36.1581920903955	36.241610738255	11	0.366692568026483	2	9	2	NaN	2	5	0.211735715598392	1	1	NaN	78	2	15	1	121	221	321	NaN	521	0.264904522337019	1	0	NaN	1795104.6404921	NaN	1795105.6238616	1795106.14043888
12	18	1	0	90	36.1581920903955	36.241610738255	21	0.700049448050559	2	3	4	NaN	1	5	0.211735715598392	1	1	NaN	79	2	16	1	121	221	321	NaN	521	0.232986122369766	1	1	NaN	1795107.224085	NaN	1795108.2074703	1795108.72402288
12	18	1	0	90	36.1581920903955	36.241610738255	14	0.466699632033706	2	1	6	NaN	1	3	0.211735715598392	1	1	NaN	80	2	17	1	121	221	321	NaN	521	0.059434570139274	1	1	NaN	1795109.7575856	NaN	1795110.7410927	1795111.25760583
12	18	1	0	90	36.1581920903955	36.241610738255	6	0.200014128014445	2	1	5	NaN	1	4	0.211735715598392	1	1	NaN	81	2	18	1	121	221	321	NaN	521	0.436133722541854	1	1	NaN	1795112.1412343	NaN	1795113.1246432	1795113.64116458
12	18	1	0	90	36.1581920903955	36.241610738255	6	0.200014128014445	2	10	5	NaN	2	4	0.211735715598392	1	1	NaN	82	2	19	1	121	221	321	NaN	521	0.557993217371404	1	0	NaN	1795114.8914972	NaN	1795115.874876	1795116.39144648
12	18	1	0	90	36.1581920903955	36.241610738255	7	0.233349816016853	2	10	1	NaN	2	5	0.211735715598392	1	1	NaN	83	2	20	1	121	221	321	NaN	521	0.0103730750270188	2	1	NaN	1795117.7584308	NaN	1795118.7418269	1795119.25839703
12	18	1	0	90	36.1581920903955	36.241610738255	21	0.700049448050559	2	2	4	NaN	1	5	0.211735715598392	1	1	NaN	84	2	21	1	121	221	321	NaN	521	0.301076122326776	1	1	NaN	1795120.0919987	NaN	1795121.0753939	1795121.59195898
12	18	1	0	90	36.1581920903955	36.241610738255	8	0.26668550401926	2	1	1	NaN	1	4	0.211735715598392	1	1	NaN	85	2	22	1	121	221	321	NaN	521	0.348131022416055	1	1	NaN	1795122.7089605	NaN	1795123.6923148	1795124.20887518
12	18	1	0	90	36.1581920903955	36.241610738255	9	0.300021192021668	2	4	5	NaN	1	4	0.211735715598392	1	1	NaN	86	2	23	1	121	221	321	NaN	521	0.281500165117905	1	1	NaN	1795125.3758415	NaN	1795126.3592731	1795126.87580123
12	18	1	0	90	36.1581920903955	36.241610738255	23	0.766720824055374	2	2	1	NaN	1	4	0.211735715598392	1	1	NaN	87	2	24	1	121	221	321	NaN	521	1.24879887513816	1	1	NaN	1795127.9761269	NaN	1795128.9594652	1795129.47606382
12	18	1	0	90	36.1581920903955	36.241610738255	19	0.633378072045743	2	9	1	NaN	2	5	0.211735715598392	1	1	NaN	88	2	25	1	121	221	321	NaN	521	0.138293017400429	2	1	NaN	1795131.5431351	NaN	1795132.5265307	1795133.04307048
12	18	1	0	90	36.1581920903955	36.241610738255	16	0.533371008038521	2	5	6	NaN	1	4	0.211735715598392	1	1	NaN	89	2	26	1	121	221	321	NaN	521	0.0717008174397051	2	0	NaN	1795133.9933758	NaN	1795134.9768032	1795135.49331178
12	18	1	0	90	36.1581920903955	36.241610738255	19	0.633378072045743	2	3	1	NaN	1	5	0.211735715598392	1	1	NaN	90	2	27	1	121	221	321	NaN	521	0.362372717354447	1	1	NaN	1795136.7270807	NaN	1795137.7103742	1795138.22691678
12	18	1	0	90	36.1581920903955	36.241610738255	10	0.333356880024075	2	3	1	NaN	1	3	0.211735715598392	1	1	NaN	91	2	28	1	121	221	321	NaN	521	0.334380822489038	1	1	NaN	1795139.4105648	NaN	1795140.3939632	1795140.91052258
12	18	1	0	90	36.1581920903955	36.241610738255	8	0.26668550401926	2	9	3	NaN	2	3	0.211735715598392	1	1	NaN	92	2	29	1	121	221	321	NaN	521	0.276311522349715	2	1	NaN	1795142.0607281	NaN	1795143.0442236	1795143.56078618
12	18	1	0	90	36.1581920903955	36.241610738255	18	0.600042384043336	2	2	1	NaN	1	3	0.211735715598392	1	1	NaN	93	2	30	1	121	221	321	NaN	521	0.395646122517064	1	1	NaN	1795144.8776455	NaN	1795145.8611826	1795146.37772428
12	18	1	0	90	36.1581920903955	36.241610738255	24	0.800056512057781	2	6	3	NaN	1	3	0.211735715598392	1	1	NaN	94	2	31	1	121	221	321	NaN	521	0.272477442398667	1	1	NaN	1795147.9446658	NaN	1795148.9280315	1795149.44470376
12	18	1	0	90	36.1581920903955	36.241610738255	19	0.633378072045743	2	4	4	NaN	1	5	0.211735715598392	1	1	NaN	95	2	32	1	121	221	321	NaN	521	0.320617384975776	1	1	NaN	1795150.5283291	NaN	1795151.5117162	1795152.02827651
12	18	1	0	90	36.1581920903955	36.241610738255	7	0.233349816016853	2	11	6	NaN	2	3	0.211735715598392	1	1	NaN	96	2	33	1	121	221	321	NaN	521	0.455059817293659	2	1	NaN	1795153.1619435	NaN	1795154.1453218	1795154.66187078
12	18	1	0	90	36.1581920903955	36.241610738255	6	0.200014128014445	2	4	6	NaN	1	4	0.211735715598392	1	1	NaN	97	2	34	1	121	221	321	NaN	521	0.400479822186753	1	1	NaN	1795155.9288034	NaN	1795156.9122611	1795157.42880888
12	18	1	0	90	36.1581920903955	36.241610738255	23	0.766720824055374	2	10	2	NaN	2	3	0.211735715598392	1	1	NaN	98	2	35	1	121	221	321	NaN	521	0.459428422385827	2	1	NaN	1795158.6457806	NaN	1795159.629186	1795160.14574798
12	18	1	0	90	36.1581920903955	36.241610738255	8	0.26668550401926	2	5	2	NaN	1	5	0.211735715598392	1	1	NaN	99	2	36	1	121	221	321	NaN	521	0.484206222463399	1	1	NaN	1795161.4127131	NaN	1795162.3961555	1795162.91268538
12	18	1	0	90	36.1581920903955	36.241610738255	23	0.766720824055374	2	11	2	NaN	2	3	0.211735715598392	1	1	NaN	100	2	37	1	121	221	321	NaN	521	0.708705817349255	2	1	NaN	1795164.1963223	NaN	1795165.1797289	1795165.69628268
12	18	1	0	90	36.1581920903955	36.241610738255	14	0.466699632033706	2	4	6	NaN	1	5	0.211735715598392	1	1	NaN	101	2	38	1	121	221	321	NaN	521	0.443784922361374	1	1	NaN	1795167.2131842	NaN	1795168.1966863	1795168.71325328
12	18	1	0	90	36.1581920903955	36.241610738255	20	0.666713760048151	2	7	2	NaN	2	4	0.211735715598392	1	1	NaN	102	2	39	1	121	221	321	NaN	521	0.405613669892773	2	1	NaN	1795169.9634507	NaN	1795170.9469585	1795171.46354923
12	18	1	0	90	36.1581920903955	36.241610738255	21	0.700049448050559	2	4	5	NaN	1	3	0.211735715598392	1	1	NaN	103	2	40	1	121	221	321	NaN	521	0.45655312249437	1	1	NaN	1795172.6805308	NaN	1795173.6638955	1795174.18045798
12	18	1	0	90	36.1581920903955	36.241610738255	7	0.233349816016853	2	3	4	NaN	1	4	0.211735715598392	1	1	NaN	104	2	41	1	121	221	321	NaN	521	0.314863822422922	1	1	NaN	1795175.6140038	NaN	1795176.5975174	1795177.11408428
12	18	1	0	90	36.1581920903955	36.241610738255	14	0.466699632033706	2	8	2	NaN	2	5	0.211735715598392	1	1	NaN	105	2	42	1	121	221	321	NaN	521	0.321511769900098	2	1	NaN	1795178.2477105	NaN	1795179.2311212	1795179.74766653
12	18	1	0	90	36.1581920903955	36.241610738255	0	0	1	9	1	NaN	2	5	0.211735715598392	1	1	NaN	106	2	43	1	111	211	311	NaN	511	0.360169522464275	1	0	NaN	1795180.8811989	NaN	1795181.8647092	1795182.38126828
12	18	1	0	90	36.1581920903955	36.241610738255	8	0.26668550401926	2	5	2	NaN	1	4	0.211735715598392	1	1	NaN	107	2	44	1	121	221	321	NaN	521	0.316811622353271	1	1	NaN	1795183.5482557	NaN	1795184.5316241	1795185.04818648
12	18	1	0	90	36.1581920903955	36.241610738255	0	0	1	4	5	NaN	1	5	0.211735715598392	1	1	NaN	108	2	45	1	111	211	311	NaN	511	0.291175974998623	1	1	NaN	1795186.1818261	NaN	1795187.165278	1795187.68177973
12	18	1	0	90	36.1581920903955	36.241610738255	17	0.566706696040928	2	9	3	NaN	2	4	0.211735715598392	1	1	NaN	109	2	46	1	121	221	321	NaN	521	0.458994522225112	2	1	NaN	1795188.7820839	NaN	1795189.7654763	1795190.28203888
12	18	1	0	90	36.1581920903955	36.241610738255	14	0.466699632033706	2	5	5	NaN	1	4	0.211735715598392	1	1	NaN	110	2	47	1	121	221	321	NaN	521	0.75602212222293	1	1	NaN	1795191.5490116	NaN	1795192.5324391	1795193.04898188
12	18	1	0	90	36.1581920903955	36.241610738255	11	0.366692568026483	2	2	4	NaN	1	5	0.211735715598392	1	1	NaN	111	2	48	1	121	221	321	NaN	521	0.75325676985085	1	1	NaN	1795194.6158733	NaN	1795195.599381	1795196.11595243
12	18	1	0	90	36.1581920903955	36.241610738255	25	0.833392200060189	2	1	2	NaN	1	5	0.211735715598392	1	1	NaN	112	2	49	1	121	221	321	NaN	521	0.622079869965091	1	1	NaN	1795197.6829741	NaN	1795198.6663586	1795199.18292113
12	18	1	0	90	36.1581920903955	36.241610738255	11	0.366692568026483	2	6	2	NaN	1	5	0.211735715598392	1	1	NaN	113	2	50	1	121	221	321	NaN	521	0.880373622523621	1	1	NaN	1795200.6164495	NaN	1795201.6000195	1795202.11653728
12	18	1	0	90	36.1581920903955	36.241610738255	17	0.566706696040928	2	3	6	NaN	1	5	0.211735715598392	1	1	NaN	114	2	51	1	121	221	321	NaN	521	0.432290022494271	1	1	NaN	1795203.8169142	NaN	1795204.8002896	1795205.31685898
12	18	1	0	90	36.1581920903955	36.241610738255	7	0.233349816016853	2	5	3	NaN	1	4	0.211735715598392	1	1	NaN	115	2	52	1	121	221	321	NaN	521	0.401960874907672	1	1	NaN	1795206.5671639	NaN	1795207.5505736	1795208.06712822
12	18	1	0	90	36.1581920903955	36.241610738255	24	0.800056512057781	2	4	2	NaN	1	3	0.211735715598392	1	1	NaN	116	2	53	1	121	221	321	NaN	521	0.964942270191386	2	0	NaN	1795209.284112	NaN	1795210.2674971	1795210.78406133
12	18	1	0	90	36.1581920903955	36.241610738255	16	0.533371008038521	2	5	1	NaN	1	5	0.211735715598392	1	1	NaN	117	2	54	1	121	221	321	NaN	521	0.449325637426227	1	1	NaN	1795212.5677587	NaN	1795213.5511648	1795214.06771406
12	18	1	0	90	36.1581920903955	36.241610738255	7	0.233349816016853	2	1	3	NaN	1	4	0.211735715598392	1	1	NaN	118	2	55	1	121	221	321	NaN	521	0.426871217321604	1	1	NaN	1795215.3346952	NaN	1795216.3180895	1795216.83464368
12	18	1	0	90	36.1581920903955	36.241610738255	25	0.833392200060189	2	10	3	NaN	2	5	0.211735715598392	1	1	NaN	119	2	56	1	121	221	321	NaN	521	0.364849080098793	2	1	NaN	1795218.0682952	NaN	1795219.0517034	1795219.56826232
12	18	1	0	90	36.1581920903955	36.241610738255	18	0.600042384043336	2	3	1	NaN	1	5	0.211735715598392	1	1	NaN	120	2	57	1	121	221	321	NaN	521	0.337974317371845	1	1	NaN	1795220.7352543	NaN	1795221.718633	1795222.23517518
12	18	1	0	90	36.1581920903955	36.241610738255	10	0.333356880024075	2	10	4	NaN	2	3	0.211735715598392	1	1	NaN	121	2	58	1	121	221	321	NaN	521	0.479758222587407	2	1	NaN	1795223.3855002	NaN	1795224.3688799	1795224.88544098
12	18	1	0	90	36.1581920903955	36.241610738255	18	0.600042384043336	2	9	6	NaN	2	3	0.211735715598392	1	1	NaN	122	2	59	1	121	221	321	NaN	521	0.727981722215191	2	1	NaN	1795226.1691283	NaN	1795227.1524885	1795227.66905408
12	18	1	0	90	36.1581920903955	36.241610738255	21	0.700049448050559	2	9	3	NaN	2	5	0.211735715598392	1	1	NaN	123	2	60	1	121	221	321	NaN	521	0.558350417297333	2	1	NaN	1795229.2027504	NaN	1795230.1861311	1795230.70267508
12	18	1	0	90	36.1581920903955	36.241610738255	19	0.633378072045743	2	1	3	NaN	1	4	0.211735715598392	1	1	NaN	124	2	61	1	121	221	321	NaN	521	0.355668617179617	1	1	NaN	1795232.06961	NaN	1795233.053121	1795233.56962198
12	18	1	0	90	36.1581920903955	36.241610738255	25	0.833392200060189	2	10	3	NaN	2	3	0.211735715598392	1	1	NaN	125	2	62	1	121	221	321	NaN	521	0.560910122236237	2	1	NaN	1795234.7366228	NaN	1795235.7200133	1795236.23655618
12	18	1	0	90	36.1581920903955	36.241610738255	9	0.300021192021668	2	8	3	NaN	2	5	0.211735715598392	1	1	NaN	126	2	63	1	121	221	321	NaN	521	0.36591286980547	2	1	NaN	1795237.6035562	NaN	1795238.5869487	1795239.10351663
12	18	1	0	90	36.1581920903955	36.241610738255	6	0.200014128014445	2	8	1	NaN	2	4	0.211735715598392	1	1	NaN	127	3	1	1	121	221	321	NaN	521	0.631226522382349	2	1	NaN	1795270.290082	NaN	1795271.2735015	1795271.79005498
12	18	1	0	90	36.1581920903955	36.241610738255	24	0.800056512057781	2	6	3	NaN	1	3	0.211735715598392	1	1	NaN	128	3	2	1	121	221	321	NaN	521	0.344808775000274	1	1	NaN	1795273.2404086	NaN	1795274.2237865	1795274.74034773
12	18	1	0	90	36.1581920903955	36.241610738255	10	0.333356880024075	2	4	2	NaN	1	3	0.211735715598392	1	1	NaN	129	3	3	1	121	221	321	NaN	521	0.510782822268084	1	1	NaN	1795275.8906505	NaN	1795276.8740404	1795277.39062718
12	18	1	0	90	36.1581920903955	36.241610738255	18	0.600042384043336	2	11	2	NaN	2	5	0.211735715598392	1	1	NaN	130	3	4	1	121	221	321	NaN	521	0.485681870020926	2	1	NaN	1795278.7075899	NaN	1795279.6910018	1795280.20754543
12	18	1	0	90	36.1581920903955	36.241610738255	6	0.200014128014445	2	11	3	NaN	2	4	0.211735715598392	1	1	NaN	131	3	5	1	121	221	321	NaN	521	0.613789370050654	2	1	NaN	1795281.5078585	NaN	1795282.4912684	1795283.00782363
12	18	1	0	90	36.1581920903955	36.241610738255	18	0.600042384043336	2	7	5	NaN	2	4	0.211735715598392	1	1	NaN	132	3	6	1	121	221	321	NaN	521	0.575957522494718	2	1	NaN	1795284.4414755	NaN	1795285.4248866	1795285.94143738
12	18	1	0	90	36.1581920903955	36.241610738255	21	0.700049448050559	2	6	5	NaN	1	4	0.211735715598392	1	1	NaN	133	3	7	1	121	221	321	NaN	521	0.324015117483214	1	1	NaN	1795287.3250218	NaN	1795288.3085161	1795288.82505368
12	18	1	0	90	36.1581920903955	36.241610738255	17	0.566706696040928	2	10	1	NaN	2	3	0.211735715598392	1	1	NaN	134	3	8	1	121	221	321	NaN	521	0.538914842531085	2	1	NaN	1795289.9587179	NaN	1795290.9420895	1795291.45865316
12	18	1	0	90	36.1581920903955	36.241610738255	15	0.500035320036113	2	1	6	NaN	1	5	0.211735715598392	1	1	NaN	135	3	9	1	121	221	321	NaN	521	0.384289817418903	1	1	NaN	1795292.8089551	NaN	1795293.7923674	1795294.30892558
12	18	1	0	90	36.1581920903955	36.241610738255	25	0.833392200060189	2	6	2	NaN	1	4	0.211735715598392	1	1	NaN	136	3	10	1	121	221	321	NaN	521	0.451915922341868	1	1	NaN	1795295.5092803	NaN	1795296.4926376	1795297.00920698
12	18	1	0	90	36.1581920903955	36.241610738255	10	0.333356880024075	2	9	4	NaN	2	5	0.211735715598392	1	1	NaN	137	3	11	1	121	221	321	NaN	521	0.364908022340387	2	1	NaN	1795298.2761752	NaN	1795299.2595693	1795299.77614398
12	18	1	0	90	36.1581920903955	36.241610738255	13	0.433363944031298	2	11	2	NaN	2	4	0.211735715598392	1	1	NaN	138	3	12	1	121	221	321	NaN	521	0.593508822377771	2	1	NaN	1795300.9597962	NaN	1795301.943169	1795302.45972828
12	18	1	0	90	36.1581920903955	36.241610738255	13	0.433363944031298	2	7	3	NaN	2	5	0.211735715598392	1	1	NaN	139	3	13	1	121	221	321	NaN	521	0.452522017294541	2	1	NaN	1795303.876729	NaN	1795304.8601237	1795305.37669408
12	18	1	0	90	36.1581920903955	36.241610738255	7	0.233349816016853	2	2	6	NaN	1	3	0.211735715598392	1	1	NaN	140	3	14	1	121	221	321	NaN	521	0.34987852233462	1	1	NaN	1795306.6437148	NaN	1795307.627071	1795308.14362708
12	18	1	0	90	36.1581920903955	36.241610738255	8	0.26668550401926	2	6	1	NaN	1	4	0.211735715598392	1	1	NaN	141	3	15	1	121	221	321	NaN	521	0.451252922415733	1	1	NaN	1795309.293916	NaN	1795310.277331	1795310.79389358
12	18	1	0	90	36.1581920903955	36.241610738255	14	0.466699632033706	2	10	5	NaN	2	4	0.211735715598392	1	1	NaN	142	3	16	1	121	221	321	NaN	521	0.388525527436286	2	1	NaN	1795312.0607365	NaN	1795313.044263	1795313.56083347
12	18	1	0	90	36.1581920903955	36.241610738255	17	0.566706696040928	2	11	2	NaN	2	5	0.211735715598392	1	1	NaN	143	3	17	1	121	221	321	NaN	521	0.464546617353335	2	1	NaN	1795314.7611462	NaN	1795315.7445575	1795316.26108488
12	18	1	0	90	36.1581920903955	36.241610738255	10	0.333356880024075	2	7	2	NaN	2	3	0.211735715598392	1	1	NaN	144	3	18	1	121	221	321	NaN	521	0.400906070135534	2	1	NaN	1795317.5447456	NaN	1795318.5281419	1795319.04469483
12	18	1	0	90	36.1581920903955	36.241610738255	6	0.200014128014445	2	2	3	NaN	1	4	0.211735715598392	1	1	NaN	145	3	19	1	121	221	321	NaN	521	0.323695417260751	1	1	NaN	1795320.2615571	NaN	1795321.245064	1795321.76162368
12	18	1	0	90	36.1581920903955	36.241610738255	21	0.700049448050559	2	4	3	NaN	1	3	0.211735715598392	1	1	NaN	146	3	20	1	121	221	321	NaN	521	0.378422874957323	1	1	NaN	1795322.89526	NaN	1795323.8786789	1795324.39523012
12	18	1	0	90	36.1581920903955	36.241610738255	12	0.400028256028891	2	10	1	NaN	2	5	0.211735715598392	1	1	NaN	147	3	21	1	121	221	321	NaN	521	0.29437317000702	2	1	NaN	1795325.5788653	NaN	1795326.5622627	1795327.07882463
12	18	1	0	90	36.1581920903955	36.241610738255	20	0.666713760048151	2	3	4	NaN	1	4	0.211735715598392	1	1	NaN	148	3	22	1	121	221	321	NaN	521	0.494067179970443	1	1	NaN	1795328.1791282	NaN	1795329.1625181	1795329.67908472
12	18	1	0	90	36.1581920903955	36.241610738255	13	0.433363944031298	2	12	2	NaN	2	4	0.211735715598392	1	1	NaN	149	3	23	1	121	221	321	NaN	521	0.525904137408361	1	0	NaN	1795330.9794073	NaN	1795331.962789	1795332.47935666
12	18	1	0	90	36.1581920903955	36.241610738255	23	0.766720824055374	2	7	2	NaN	2	4	0.211735715598392	1	1	NaN	150	3	24	1	121	221	321	NaN	521	0.428104170132428	2	1	NaN	1795333.8129055	NaN	1795334.7964533	1795335.31296473
12	18	1	0	90	36.1581920903955	36.241610738255	21	0.700049448050559	2	7	1	NaN	2	5	0.211735715598392	1	1	NaN	151	3	25	1	121	221	321	NaN	521	0.302510822424665	2	1	NaN	1795336.5465036	NaN	1795337.5300052	1795338.04657148
12	18	1	0	90	36.1581920903955	36.241610738255	7	0.233349816016853	2	9	1	NaN	2	4	0.211735715598392	1	1	NaN	152	3	26	1	121	221	321	NaN	521	0.325736822327599	2	1	NaN	1795339.1635613	NaN	1795340.1469225	1795340.66349158
12	18	1	0	90	36.1581920903955	36.241610738255	16	0.533371008038521	2	4	2	NaN	1	5	0.211735715598392	1	1	NaN	153	3	27	1	121	221	321	NaN	521	0.292243822244927	1	1	NaN	1795341.7970153	NaN	1795342.7805297	1795343.29708028
12	18	1	0	90	36.1581920903955	36.241610738255	19	0.633378072045743	2	12	3	NaN	2	3	0.211735715598392	1	1	NaN	154	3	28	1	121	221	321	NaN	521	0.419986222404987	2	1	NaN	1795344.3973777	NaN	1795345.3808749	1795345.89733638
12	18	1	0	90	36.1581920903955	36.241610738255	24	0.800056512057781	2	4	4	NaN	1	4	0.211735715598392	1	1	NaN	155	3	29	1	121	221	321	NaN	521	0.4303043698892	1	1	NaN	1795347.1309885	NaN	1795348.114429	1795348.63094403
12	18	1	0	90	36.1581920903955	36.241610738255	23	0.766720824055374	2	6	2	NaN	1	5	0.211735715598392	1	1	NaN	156	3	30	1	121	221	321	NaN	521	0.304116274928674	1	1	NaN	1795349.8812592	NaN	1795350.8646872	1795351.38121613
12	18	1	0	90	36.1581920903955	36.241610738255	20	0.666713760048151	2	4	3	NaN	1	4	0.211735715598392	1	1	NaN	157	3	31	1	121	221	321	NaN	521	0.2951789223589	1	1	NaN	1795352.4981939	NaN	1795353.4815853	1795353.99814118
12	18	1	0	90	36.1581920903955	36.241610738255	15	0.500035320036113	2	9	2	NaN	2	3	0.211735715598392	1	1	NaN	158	3	32	1	121	221	321	NaN	521	0.327150470111519	2	1	NaN	1795355.0985394	NaN	1795356.0818242	1795356.59839223
12	18	1	0	90	36.1581920903955	36.241610738255	18	0.600042384043336	2	6	6	NaN	1	3	0.211735715598392	1	1	NaN	159	3	33	1	121	221	321	NaN	521	0.324813569895923	1	1	NaN	1795357.7486817	NaN	1795358.7321171	1795359.24865443
12	18	1	0	90	36.1581920903955	36.241610738255	17	0.566706696040928	2	8	5	NaN	2	5	0.211735715598392	1	1	NaN	160	3	34	1	121	221	321	NaN	521	0.435393222374842	2	1	NaN	1795360.382167	NaN	1795361.3656841	1795361.88224288
12	18	1	0	90	36.1581920903955	36.241610738255	22	0.733385136052966	2	8	5	NaN	2	4	0.211735715598392	1	1	NaN	161	3	35	1	121	221	321	NaN	521	0.492808922426775	2	1	NaN	1795363.1325657	NaN	1795364.115958	1795364.63251538
12	18	1	0	90	36.1581920903955	36.241610738255	10	0.333356880024075	2	12	5	NaN	2	5	0.211735715598392	1	1	NaN	162	3	36	1	121	221	321	NaN	521	0.427786622196436	2	1	NaN	1795365.9495022	NaN	1795366.9328888	1795367.44944988
12	18	1	0	90	36.1581920903955	36.241610738255	13	0.433363944031298	2	12	4	NaN	2	3	0.211735715598392	1	1	NaN	163	3	37	1	121	221	321	NaN	521	0.254598669940606	1	0	NaN	1795368.6832137	NaN	1795369.6664996	1795370.18306083
12	18	1	0	90	36.1581920903955	36.241610738255	13	0.433363944031298	2	10	4	NaN	2	5	0.211735715598392	1	1	NaN	164	3	38	1	121	221	321	NaN	521	0.263420922448859	2	1	NaN	1795371.2500248	NaN	1795372.233433	1795372.74998558
12	18	1	0	90	36.1581920903955	36.241610738255	22	0.733385136052966	2	1	2	NaN	1	3	0.211735715598392	1	1	NaN	165	3	39	1	121	221	321	NaN	521	0.159784284885973	1	1	NaN	1795373.8336209	NaN	1795374.817068	1795375.33358542
12	18	1	0	90	36.1581920903955	36.241610738255	7	0.233349816016853	2	12	4	NaN	2	4	0.211735715598392	1	1	NaN	166	3	40	1	121	221	321	NaN	521	0.628738970030099	2	1	NaN	1795376.3005164	NaN	1795377.2839229	1795377.80047223
12	18	1	0	90	36.1581920903955	36.241610738255	20	0.666713760048151	2	5	1	NaN	1	5	0.211735715598392	1	1	NaN	167	3	41	1	121	221	321	NaN	521	0.327227569883689	1	1	NaN	1795379.2341294	NaN	1795380.2175547	1795380.73409723
12	18	1	0	90	36.1581920903955	36.241610738255	17	0.566706696040928	2	7	4	NaN	2	3	0.211735715598392	1	1	NaN	168	3	42	1	121	221	321	NaN	521	0.373218175023794	2	1	NaN	1795381.8844563	NaN	1795382.8678088	1795383.38436222
12	18	1	0	90	36.1581920903955	36.241610738255	0	0	1	6	3	NaN	1	5	0.211735715598392	1	1	NaN	169	3	43	1	111	211	311	NaN	511	0.257582222344354	1	1	NaN	1795384.5679877	NaN	1795385.5514118	1795386.06795138
12	18	1	0	90	36.1581920903955	36.241610738255	23	0.766720824055374	2	10	4	NaN	2	3	0.211735715598392	1	1	NaN	170	3	44	1	121	221	321	NaN	521	0.282745275180787	2	1	NaN	1795387.1349134	NaN	1795388.1183144	1795388.63487842
12	18	1	0	90	36.1581920903955	36.241610738255	12	0.400028256028891	2	11	6	NaN	2	4	0.211735715598392	1	1	NaN	171	3	45	1	121	221	321	NaN	521	0.298247217200696	2	1	NaN	1795389.735182	NaN	1795390.718567	1795391.23512798
12	18	1	0	90	36.1581920903955	36.241610738255	10	0.333356880024075	2	4	4	NaN	1	3	0.211735715598392	1	1	NaN	172	3	46	1	121	221	321	NaN	521	0.161222274880856	1	1	NaN	1795392.3520913	NaN	1795393.3354951	1795393.85205823
12	18	1	0	90	36.1581920903955	36.241610738255	22	0.733385136052966	2	4	6	NaN	1	3	0.211735715598392	1	1	NaN	173	3	47	1	121	221	321	NaN	521	0.261529069859535	1	1	NaN	1795394.8356812	NaN	1795395.8190609	1795396.33562943
12	18	1	0	90	36.1581920903955	36.241610738255	21	0.700049448050559	2	8	3	NaN	2	4	0.211735715598392	1	1	NaN	174	3	48	1	121	221	321	NaN	521	0.230104275047779	2	1	NaN	1795397.4192912	NaN	1795398.4025603	1795398.91922362
12	18	1	0	90	36.1581920903955	36.241610738255	23	0.766720824055374	2	4	1	NaN	1	3	0.211735715598392	1	1	NaN	175	3	49	1	121	221	321	NaN	521	0.472267270088196	2	0	NaN	1795399.9694977	NaN	1795400.9529125	1795401.46946553
12	18	1	0	90	36.1581920903955	36.241610738255	10	0.333356880024075	2	3	3	NaN	1	4	0.211735715598392	1	1	NaN	176	3	50	1	121	221	321	NaN	521	0.240120022557676	1	1	NaN	1795402.753087	NaN	1795403.7365228	1795404.25307278
12	18	1	0	90	36.1581920903955	36.241610738255	21	0.700049448050559	2	2	1	NaN	1	5	0.211735715598392	1	1	NaN	177	3	51	1	121	221	321	NaN	521	0.514362622518092	1	1	NaN	1795405.3033965	NaN	1795406.2867924	1795406.80332568
12	18	1	0	90	36.1581920903955	36.241610738255	0	0	1	5	3	NaN	1	5	0.211735715598392	1	1	NaN	178	3	52	1	111	211	311	NaN	511	0.384756574872881	1	1	NaN	1795408.1369877	NaN	1795409.1203893	1795409.63694283
12	18	1	0	90	36.1581920903955	36.241610738255	10	0.333356880024075	2	9	6	NaN	2	3	0.211735715598392	1	1	NaN	179	3	53	1	121	221	321	NaN	521	0.382891522487625	2	1	NaN	1795410.9706003	NaN	1795411.9540049	1795412.47054918
12	18	1	0	90	36.1581920903955	36.241610738255	25	0.833392200060189	2	11	2	NaN	2	3	0.211735715598392	1	1	NaN	180	3	54	1	121	221	321	NaN	521	0.362557517364621	2	1	NaN	1795413.6708621	NaN	1795414.6542599	1795415.17081028
12	18	1	0	90	36.1581920903955	36.241610738255	25	0.833392200060189	2	6	6	NaN	1	3	0.211735715598392	1	1	NaN	181	3	55	1	121	221	321	NaN	521	0.246958722360432	1	1	NaN	1795416.354444	NaN	1795417.3378529	1795417.85441328
12	18	1	0	90	36.1581920903955	36.241610738255	12	0.400028256028891	2	5	5	NaN	1	5	0.211735715598392	1	1	NaN	182	3	56	1	121	221	321	NaN	521	0.336006474914029	1	1	NaN	1795418.921376	NaN	1795419.9047706	1795420.42133242
12	18	1	0	90	36.1581920903955	36.241610738255	22	0.733385136052966	2	9	5	NaN	2	5	0.211735715598392	1	1	NaN	183	3	57	1	121	221	321	NaN	521	0.662136122351512	1	0	NaN	1795421.5716404	NaN	1795422.5550291	1795423.07159458
12	18	1	0	90	36.1581920903955	36.241610738255	16	0.533371008038521	2	3	4	NaN	1	4	0.211735715598392	1	1	NaN	184	3	58	1	121	221	321	NaN	521	0.334212322253734	1	1	NaN	1795424.5552645	NaN	1795425.5386701	1795426.05521388
12	18	1	0	90	36.1581920903955	36.241610738255	12	0.400028256028891	2	9	4	NaN	2	4	0.211735715598392	1	1	NaN	185	3	59	1	121	221	321	NaN	521	0.260168769862503	2	1	NaN	1795427.2055159	NaN	1795428.1889129	1795428.70547963
12	18	1	0	90	36.1581920903955	36.241610738255	23	0.766720824055374	2	12	4	NaN	2	3	0.211735715598392	1	1	NaN	186	3	60	1	121	221	321	NaN	521	0.261303322389722	2	1	NaN	1795429.7724613	NaN	1795430.7558291	1795431.27239838
12	18	1	0	90	36.1581920903955	36.241610738255	15	0.500035320036113	2	4	5	NaN	1	4	0.211735715598392	1	1	NaN	187	3	61	1	121	221	321	NaN	521	0.270379622234032	1	1	NaN	1795432.3393468	NaN	1795433.3227741	1795433.83931228
12	18	1	0	90	36.1581920903955	36.241610738255	16	0.533371008038521	2	6	2	NaN	1	4	0.211735715598392	1	1	NaN	188	3	62	1	121	221	321	NaN	521	0.918409175006673	1	1	NaN	1795434.9229457	NaN	1795435.906346	1795436.42290963
12	18	1	0	90	36.1581920903955	36.241610738255	16	0.533371008038521	2	4	4	NaN	1	3	0.211735715598392	1	1	NaN	189	3	63	1	121	221	321	NaN	521	0.309121269965544	2	0	NaN	1795438.1566066	NaN	1795439.1399774	1795439.65655573
12	18	1	0	90	36.1581920903955	36.241610738255	14	0.466699632033706	2	4	1	NaN	1	5	0.211735715598392	1	1	NaN	190	4	1	1	121	221	321	NaN	521	0.0103958223480731	1	1	NaN	1795467.1427838	NaN	1795468.1261747	1795468.64274088
12	18	1	0	90	36.1581920903955	36.241610738255	19	0.633378072045743	2	5	5	NaN	1	4	0.211735715598392	1	1	NaN	191	4	2	1	121	221	321	NaN	521	0.366196474991739	1	1	NaN	1795469.4595567	NaN	1795470.4430793	1795470.95963352
12	18	1	0	90	36.1581920903955	36.241610738255	20	0.666713760048151	2	5	2	NaN	1	4	0.211735715598392	1	1	NaN	192	4	3	1	121	221	321	NaN	521	0.370638374937698	1	1	NaN	1795472.1432674	NaN	1795473.1266654	1795473.64322113
12	18	1	0	90	36.1581920903955	36.241610738255	6	0.200014128014445	2	6	4	NaN	1	4	0.211735715598392	1	1	NaN	193	4	4	1	121	221	321	NaN	521	0.334670322248712	1	1	NaN	1795474.826894	NaN	1795475.810282	1795476.32682138
12	18	1	0	90	36.1581920903955	36.241610738255	19	0.633378072045743	2	7	6	NaN	2	5	0.211735715598392	1	1	NaN	194	4	5	1	121	221	321	NaN	521	0.260652917204425	2	1	NaN	1795477.4769981	NaN	1795478.4605404	1795478.97707948
12	18	1	0	90	36.1581920903955	36.241610738255	24	0.800056512057781	2	5	6	NaN	1	4	0.211735715598392	1	1	NaN	195	4	6	1	121	221	321	NaN	521	0.333747322205454	1	1	NaN	1795480.0439635	NaN	1795481.027447	1795481.54400758
12	18	1	0	90	36.1581920903955	36.241610738255	8	0.26668550401926	2	11	5	NaN	2	4	0.211735715598392	1	1	NaN	196	4	7	1	121	221	321	NaN	521	0.347550632432103	1	0	NaN	1795482.69432	NaN	1795483.6777131	1795484.19426107
12	18	1	0	90	36.1581920903955	36.241610738255	10	0.333356880024075	2	5	2	NaN	1	4	0.211735715598392	1	1	NaN	197	4	8	1	121	221	321	NaN	521	0.27224234235473	1	1	NaN	1795485.361241	NaN	1795486.3446373	1795486.86120186
12	18	1	0	90	36.1581920903955	36.241610738255	12	0.400028256028891	2	11	3	NaN	2	4	0.211735715598392	1	1	NaN	198	4	9	1	121	221	321	NaN	521	0.384801817359403	2	1	NaN	1795487.9448174	NaN	1795488.9282243	1795489.44477148
12	18	1	0	90	36.1581920903955	36.241610738255	15	0.500035320036113	2	3	6	NaN	1	5	0.211735715598392	1	1	NaN	199	4	10	1	121	221	321	NaN	521	0.22074232227169	1	1	NaN	1795490.6451044	NaN	1795491.6284847	1795492.14503978
12	18	1	0	90	36.1581920903955	36.241610738255	15	0.500035320036113	2	10	6	NaN	2	5	0.211735715598392	1	1	NaN	200	4	11	1	121	221	321	NaN	521	0.287072317209095	2	1	NaN	1795493.178684	NaN	1795494.1620652	1795494.67862318
12	18	1	0	90	36.1581920903955	36.241610738255	25	0.833392200060189	2	12	1	NaN	2	5	0.211735715598392	1	1	NaN	201	4	12	1	121	221	321	NaN	521	0.614628474926576	2	1	NaN	1795495.778986	NaN	1795496.7623217	1795497.27888583
12	18	1	0	90	36.1581920903955	36.241610738255	14	0.466699632033706	2	8	4	NaN	2	5	0.211735715598392	1	1	NaN	202	4	13	1	121	221	321	NaN	521	0.29736747010611	2	1	NaN	1795498.7124285	NaN	1795499.6959485	1795500.21250683
12	18	1	0	90	36.1581920903955	36.241610738255	22	0.733385136052966	2	6	1	NaN	1	5	0.211735715598392	1	1	NaN	203	4	14	1	121	221	321	NaN	521	0.376569722546265	1	1	NaN	1795501.3128286	NaN	1795502.296246	1795502.81276058
12	18	1	0	90	36.1581920903955	36.241610738255	9	0.300021192021668	2	11	2	NaN	2	3	0.211735715598392	1	1	NaN	204	4	15	1	121	221	321	NaN	521	0.348866595188156	2	1	NaN	1795503.9964227	NaN	1795504.9798074	1795505.4963638
12	18	1	0	90	36.1581920903955	36.241610738255	0	0	1	1	3	NaN	1	5	0.211735715598392	1	1	NaN	205	4	16	1	111	211	311	NaN	511	0.154123174957931	1	1	NaN	1795506.6633337	NaN	1795507.6467374	1795508.16328173
12	18	1	0	90	36.1581920903955	36.241610738255	14	0.466699632033706	2	2	4	NaN	1	5	0.211735715598392	1	1	NaN	206	4	17	1	121	221	321	NaN	521	0.351338174892589	1	1	NaN	1795509.1302357	NaN	1795510.1136346	1795510.63020013
12	18	1	0	90	36.1581920903955	36.241610738255	8	0.26668550401926	2	6	2	NaN	1	3	0.211735715598392	1	1	NaN	207	4	18	1	121	221	321	NaN	521	0.132434575119987	1	1	NaN	1795511.7971661	NaN	1795512.7805678	1795513.29712842
12	18	1	0	90	36.1581920903955	36.241610738255	21	0.700049448050559	2	11	5	NaN	2	4	0.211735715598392	1	1	NaN	208	4	19	1	121	221	321	NaN	521	0.282140569994226	2	1	NaN	1795514.2475204	NaN	1795515.2308041	1795515.74736963
12	18	1	0	90	36.1581920903955	36.241610738255	22	0.733385136052966	2	7	2	NaN	2	5	0.211735715598392	1	1	NaN	209	4	20	1	121	221	321	NaN	521	0.433852022280917	2	1	NaN	1795516.8476659	NaN	1795517.8310521	1795518.34762048
12	18	1	0	90	36.1581920903955	36.241610738255	24	0.800056512057781	2	10	2	NaN	2	3	0.211735715598392	1	1	NaN	210	4	21	1	121	221	321	NaN	521	0.411553469952196	2	1	NaN	1795519.597932	NaN	1795520.5813375	1795521.09789273
12	18	1	0	90	36.1581920903955	36.241610738255	9	0.300021192021668	2	9	2	NaN	2	5	0.211735715598392	1	1	NaN	211	4	22	1	121	221	321	NaN	521	0.463156674988568	2	1	NaN	1795522.3148713	NaN	1795523.2982981	1795523.81482622
12	18	1	0	90	36.1581920903955	36.241610738255	10	0.333356880024075	2	10	6	NaN	2	3	0.211735715598392	1	1	NaN	212	4	23	1	121	221	321	NaN	521	0.656207669992	1	0	NaN	1795525.0817849	NaN	1795526.0652108	1795526.58176613
12	18	1	0	90	36.1581920903955	36.241610738255	21	0.700049448050559	2	11	5	NaN	2	5	0.211735715598392	1	1	NaN	213	4	24	1	121	221	321	NaN	521	0.617087622405961	2	1	NaN	1795528.0487826	NaN	1795529.0321766	1795529.54872688
12	18	1	0	90	36.1581920903955	36.241610738255	22	0.733385136052966	2	3	4	NaN	1	4	0.211735715598392	1	1	NaN	214	4	25	1	121	221	321	NaN	521	0.331508422503248	1	1	NaN	1795530.9823892	NaN	1795531.965807	1795532.48234698
12	18	1	0	90	36.1581920903955	36.241610738255	15	0.500035320036113	2	8	3	NaN	2	5	0.211735715598392	1	1	NaN	215	4	26	1	121	221	321	NaN	521	0.40891014249064	2	1	NaN	1795533.6326647	NaN	1795534.6160632	1795535.13260436
12	18	1	0	90	36.1581920903955	36.241610738255	9	0.300021192021668	2	2	5	NaN	1	3	0.211735715598392	1	1	NaN	216	4	27	1	121	221	321	NaN	521	0.395982822403312	1	1	NaN	1795536.3495774	NaN	1795537.3329647	1795537.84954318
12	18	1	0	90	36.1581920903955	36.241610738255	17	0.566706696040928	2	4	2	NaN	1	4	0.211735715598392	1	1	NaN	217	4	28	1	121	221	321	NaN	521	0.471437017200515	1	1	NaN	1795539.0665188	NaN	1795540.0499089	1795540.56646818
12	18	1	0	90	36.1581920903955	36.241610738255	14	0.466699632033706	2	7	6	NaN	2	3	0.211735715598392	1	1	NaN	218	4	29	1	121	221	321	NaN	521	0.383545617340133	2	1	NaN	1795541.8501218	NaN	1795542.8335245	1795543.35008098
12	18	1	0	90	36.1581920903955	36.241610738255	6	0.200014128014445	2	9	3	NaN	2	5	0.211735715598392	1	1	NaN	219	4	30	1	121	221	321	NaN	521	0.515260517364368	2	1	NaN	1795544.5504084	NaN	1795545.5337774	1795546.05034178
12	18	1	0	90	36.1581920903955	36.241610738255	11	0.366692568026483	2	10	4	NaN	2	5	0.211735715598392	1	1	NaN	220	4	31	1	121	221	321	NaN	521	0.521734517300501	2	1	NaN	1795547.3839898	NaN	1795548.3673953	1795548.88395208
12	18	1	0	90	36.1581920903955	36.241610738255	19	0.633378072045743	2	1	4	NaN	1	3	0.211735715598392	1	1	NaN	221	4	32	1	121	221	321	NaN	521	0.392330169910565	1	1	NaN	1795550.2176166	NaN	1795551.2009983	1795551.71756383
12	18	1	0	90	36.1581920903955	36.241610738255	15	0.500035320036113	2	6	4	NaN	1	4	0.211735715598392	1	1	NaN	222	4	33	1	121	221	321	NaN	521	0.412105469964445	1	1	NaN	1795552.9179888	NaN	1795553.9013299	1795554.41783383
12	18	1	0	90	36.1581920903955	36.241610738255	24	0.800056512057781	2	9	6	NaN	2	3	0.211735715598392	1	1	NaN	223	4	34	1	121	221	321	NaN	521	0.606109922518954	2	1	NaN	1795555.6514676	NaN	1795556.6348829	1795557.15143278
12	18	1	0	90	36.1581920903955	36.241610738255	0	0	1	10	2	NaN	2	3	0.211735715598392	1	1	NaN	224	4	35	1	111	211	311	NaN	511	0.337135422509164	2	1	NaN	1795558.5683097	NaN	1795559.5518442	1795560.06839238
12	18	1	0	90	36.1581920903955	36.241610738255	14	0.466699632033706	2	5	6	NaN	1	5	0.211735715598392	1	1	NaN	225	4	36	1	121	221	321	NaN	521	0.375081022502854	1	1	NaN	1795561.2187114	NaN	1795562.2020788	1795562.71864718
12	18	1	0	90	36.1581920903955	36.241610738255	23	0.766720824055374	2	5	3	NaN	1	4	0.211735715598392	1	1	NaN	226	4	37	1	121	221	321	NaN	521	0.456104417564347	1	1	NaN	1795563.9856291	NaN	1795564.9690383	1795565.48558328
12	18	1	0	90	36.1581920903955	36.241610738255	20	0.666713760048151	2	7	1	NaN	2	4	0.211735715598392	1	1	NaN	227	4	38	1	121	221	321	NaN	521	0.281135222408921	2	1	NaN	1795566.75259	NaN	1795567.735962	1795568.25252778
12	18	1	0	90	36.1581920903955	36.241610738255	9	0.300021192021668	2	3	4	NaN	1	5	0.211735715598392	1	1	NaN	228	4	39	1	121	221	321	NaN	521	0.31363862240687	1	1	NaN	1795569.3361561	NaN	1795570.3195518	1795570.83611748
12	18	1	0	90	36.1581920903955	36.241610738255	0	0	1	2	3	NaN	1	4	0.211735715598392	1	1	NaN	229	4	40	1	111	211	311	NaN	511	0.488189922412857	1	1	NaN	1795571.9696429	NaN	1795572.9531514	1795573.46970218
12	18	1	0	90	36.1581920903955	36.241610738255	18	0.600042384043336	2	10	4	NaN	2	4	0.211735715598392	1	1	NaN	230	4	41	1	121	221	321	NaN	521	0.455893674865365	1	0	NaN	1795574.7700133	NaN	1795575.7534154	1795576.26997893
12	18	1	0	90	36.1581920903955	36.241610738255	8	0.26668550401926	2	1	2	NaN	1	4	0.211735715598392	1	1	NaN	231	4	42	1	121	221	321	NaN	521	0.368779822485521	1	1	NaN	1795577.5369878	NaN	1795578.5203555	1795579.03692158
12	18	1	0	90	36.1581920903955	36.241610738255	9	0.300021192021668	2	7	2	NaN	2	4	0.211735715598392	1	1	NaN	232	4	43	1	121	221	321	NaN	521	0.35704657016322	2	1	NaN	1795580.2205714	NaN	1795581.2039666	1795581.72051143
12	18	1	0	90	36.1581920903955	36.241610738255	7	0.233349816016853	2	11	5	NaN	2	3	0.211735715598392	1	1	NaN	233	4	44	1	121	221	321	NaN	521	0.778276494937018	2	1	NaN	1795582.8873645	NaN	1795583.8708972	1795584.38745671
12	18	1	0	90	36.1581920903955	36.241610738255	8	0.26668550401926	2	7	3	NaN	2	3	0.211735715598392	1	1	NaN	234	4	45	1	121	221	321	NaN	521	0.230525569990277	1	0	NaN	1795585.9712159	NaN	1795586.9544864	1795587.47108363
12	18	1	0	90	36.1581920903955	36.241610738255	22	0.733385136052966	2	5	5	NaN	1	5	0.211735715598392	1	1	NaN	235	4	46	1	121	221	321	NaN	521	0.464285522466525	1	1	NaN	1795588.521396	NaN	1795589.5047904	1795590.02133358
12	18	1	0	90	36.1581920903955	36.241610738255	22	0.733385136052966	2	12	5	NaN	2	4	0.211735715598392	1	1	NaN	236	4	47	1	121	221	321	NaN	521	0.337071232497692	2	1	NaN	1795591.3049863	NaN	1795592.2883409	1795592.80493697
12	18	1	0	90	36.1581920903955	36.241610738255	0	0	1	2	3	NaN	1	3	0.211735715598392	1	1	NaN	237	4	48	1	111	211	311	NaN	511	0.534797260072082	1	1	NaN	1795593.9551229	NaN	1795594.9386533	1795595.45519884
12	18	1	0	90	36.1581920903955	36.241610738255	14	0.466699632033706	2	1	4	NaN	1	4	0.211735715598392	1	1	NaN	238	4	49	1	121	221	321	NaN	521	0.300317770102993	1	1	NaN	1795596.8053828	NaN	1795597.7889274	1795598.30548283
12	18	1	0	90	36.1581920903955	36.241610738255	8	0.26668550401926	2	9	4	NaN	2	5	0.211735715598392	1	1	NaN	239	4	50	1	121	221	321	NaN	521	0.49112903745845	2	1	NaN	1795599.4224591	NaN	1795600.405843	1795600.92240776
12	18	1	0	90	36.1581920903955	36.241610738255	22	0.733385136052966	2	9	6	NaN	2	5	0.211735715598392	1	1	NaN	240	4	51	1	121	221	321	NaN	521	0.45089261722751	1	0	NaN	1795602.2227116	NaN	1795603.2061252	1795603.72267428
12	18	1	0	90	36.1581920903955	36.241610738255	20	0.666713760048151	2	9	1	NaN	2	5	0.211735715598392	1	1	NaN	241	4	52	1	121	221	321	NaN	521	0.356398075120524	2	1	NaN	1795604.9896881	NaN	1795605.9730545	1795606.48962072
12	18	1	0	90	36.1581920903955	36.241610738255	25	0.833392200060189	2	12	1	NaN	2	5	0.211735715598392	1	1	NaN	242	4	53	1	121	221	321	NaN	521	0.321445770096034	2	1	NaN	1795607.656574	NaN	1795608.6399934	1795609.15654883
12	18	1	0	90	36.1581920903955	36.241610738255	24	0.800056512057781	2	11	1	NaN	2	5	0.211735715598392	1	1	NaN	243	4	54	1	121	221	321	NaN	521	0.311765522463247	2	1	NaN	1795610.2902093	NaN	1795611.2735802	1795611.79013778
12	18	1	0	90	36.1581920903955	36.241610738255	18	0.600042384043336	2	6	4	NaN	1	3	0.211735715598392	1	1	NaN	244	4	55	1	121	221	321	NaN	521	0.310525317443535	1	1	NaN	1795612.9071041	NaN	1795613.8904958	1795614.40705898
12	18	1	0	90	36.1581920903955	36.241610738255	17	0.566706696040928	2	3	2	NaN	1	5	0.211735715598392	1	1	NaN	245	4	56	1	121	221	321	NaN	521	0.34959288011305	1	1	NaN	1795615.5240537	NaN	1795616.5073471	1795617.02399062
12	18	1	0	90	36.1581920903955	36.241610738255	14	0.466699632033706	2	11	1	NaN	2	4	0.211735715598392	1	1	NaN	246	4	57	1	121	221	321	NaN	521	0.0667371901217848	2	1	NaN	1795618.1908154	NaN	1795619.1743814	1795619.69091781
12	18	1	0	90	36.1581920903955	36.241610738255	22	0.733385136052966	2	5	2	NaN	1	4	0.211735715598392	1	1	NaN	247	4	58	1	121	221	321	NaN	521	0.0103950223419815	1	1	NaN	1795620.574543	NaN	1795621.5579223	1795622.07447548
12	18	1	0	90	36.1581920903955	36.241610738255	22	0.733385136052966	2	11	3	NaN	2	4	0.211735715598392	1	1	NaN	248	4	59	1	121	221	321	NaN	521	0.302321422379464	1	0	NaN	1795622.8914068	NaN	1795623.8748203	1795624.39138078
12	18	1	0	90	36.1581920903955	36.241610738255	12	0.400028256028891	2	6	6	NaN	1	3	0.211735715598392	1	1	NaN	249	4	60	1	121	221	321	NaN	521	0.309325174894184	1	1	NaN	1795625.508222	NaN	1795626.4917448	1795627.00830423
12	18	1	0	90	36.1581920903955	36.241610738255	22	0.733385136052966	2	10	3	NaN	2	3	0.211735715598392	1	1	NaN	250	4	61	1	121	221	321	NaN	521	0.068536969833076	2	1	NaN	1795628.1253549	NaN	1795629.1086642	1795629.62522183
12	18	1	0	90	36.1581920903955	36.241610738255	16	0.533371008038521	2	8	6	NaN	2	5	0.211735715598392	1	1	NaN	251	4	62	1	121	221	321	NaN	521	0.349008674966171	2	1	NaN	1795630.508824	NaN	1795631.4922484	1795632.00879583
12	18	1	0	90	36.1581920903955	36.241610738255	6	0.200014128014445	2	7	6	NaN	2	4	0.211735715598392	1	1	NaN	252	4	63	1	121	221	321	NaN	521	0.321977069834247	2	1	NaN	1795633.1758507	NaN	1795634.1591705	1795634.67572413
12	18	1	0	90	36.1581920903955	36.241610738255	18	0.600042384043336	2	4	5	NaN	1	4	0.211735715598392	1	1	NaN	253	5	1	1	121	221	321	NaN	521	0.284150870051235	1	1	NaN	1795678.2135038	NaN	1795679.1969257	1795679.71348103
12	18	1	0	90	36.1581920903955	36.241610738255	7	0.233349816016853	2	5	3	NaN	1	3	0.211735715598392	1	1	NaN	254	5	2	1	121	221	321	NaN	521	0.236063675023615	1	1	NaN	1795680.8136572	NaN	1795681.7971863	1795682.31372882
12	18	1	0	90	36.1581920903955	36.241610738255	21	0.700049448050559	2	6	3	NaN	1	3	0.211735715598392	1	1	NaN	255	5	3	1	121	221	321	NaN	521	0.237870722543448	1	1	NaN	1795683.3640194	NaN	1795684.3474244	1795684.86399108
12	18	1	0	90	36.1581920903955	36.241610738255	11	0.366692568026483	2	7	1	NaN	2	3	0.211735715598392	1	1	NaN	256	5	4	1	121	221	321	NaN	521	0.311533722328022	2	1	NaN	1795685.9142894	NaN	1795686.8976921	1795687.41423728
12	18	1	0	90	36.1581920903955	36.241610738255	10	0.333356880024075	2	2	6	NaN	1	3	0.211735715598392	1	1	NaN	257	5	5	1	121	221	321	NaN	521	0.325943069998175	1	1	NaN	1795688.5478791	NaN	1795689.5312684	1795690.04783333
12	18	1	0	90	36.1581920903955	36.241610738255	9	0.300021192021668	2	7	1	NaN	2	3	0.211735715598392	1	1	NaN	258	5	6	1	121	221	321	NaN	521	0.260264942189679	2	1	NaN	1795691.1814888	NaN	1795692.1648663	1795692.68142436
12	18	1	0	90	36.1581920903955	36.241610738255	8	0.26668550401926	2	4	1	NaN	1	5	0.211735715598392	1	1	NaN	259	5	7	1	121	221	321	NaN	521	0.333750122459605	1	1	NaN	1795693.7483715	NaN	1795694.7317642	1795695.24834278
12	18	1	0	90	36.1581920903955	36.241610738255	20	0.666713760048151	2	1	3	NaN	1	5	0.211735715598392	1	1	NaN	260	5	8	1	121	221	321	NaN	521	0.347180774901062	1	1	NaN	1795696.3985234	NaN	1795697.382044	1795697.89860553
12	18	1	0	90	36.1581920903955	36.241610738255	12	0.400028256028891	2	4	5	NaN	1	4	0.211735715598392	1	1	NaN	261	5	9	1	121	221	321	NaN	521	0.360683270031586	1	1	NaN	1795699.0655856	NaN	1795700.0489289	1795700.56553223
12	18	1	0	90	36.1581920903955	36.241610738255	21	0.700049448050559	2	10	6	NaN	2	4	0.211735715598392	1	1	NaN	262	5	10	1	121	221	321	NaN	521	0.3085640699137	2	1	NaN	1795701.7491812	NaN	1795702.7325533	1795703.24912623
12	18	1	0	90	36.1581920903955	36.241610738255	25	0.833392200060189	2	11	1	NaN	2	5	0.211735715598392	1	1	NaN	263	5	11	1	121	221	321	NaN	521	0.404065479757264	2	1	NaN	1795704.3660982	NaN	1795705.349487	1795705.86605442
12	18	1	0	90	36.1581920903955	36.241610738255	0	0	1	6	6	NaN	1	5	0.211735715598392	1	1	NaN	264	5	12	1	111	211	311	NaN	511	0.23884202237241	1	1	NaN	1795707.083045	NaN	1795708.0664177	1795708.58297528
12	18	1	0	90	36.1581920903955	36.241610738255	24	0.800056512057781	2	8	2	NaN	2	4	0.211735715598392	1	1	NaN	265	5	13	1	121	221	321	NaN	521	0.552964417496696	1	0	NaN	1795709.6332687	NaN	1795710.6166723	1795711.13322958
12	18	1	0	90	36.1581920903955	36.241610738255	25	0.833392200060189	2	1	1	NaN	1	5	0.211735715598392	1	1	NaN	266	5	14	1	121	221	321	NaN	521	0.437461022287607	1	1	NaN	1795712.5002658	NaN	1795713.4836385	1795714.00018278
12	18	1	0	90	36.1581920903955	36.241610738255	22	0.733385136052966	2	4	3	NaN	1	4	0.211735715598392	1	1	NaN	267	5	15	1	121	221	321	NaN	521	0.311063770204782	1	1	NaN	1795715.2504958	NaN	1795716.2338904	1795716.75045693
12	18	1	0	90	36.1581920903955	36.241610738255	12	0.400028256028891	2	12	3	NaN	2	4	0.211735715598392	1	1	NaN	268	5	16	1	121	221	321	NaN	521	0.301484895171598	2	1	NaN	1795717.8841053	NaN	1795718.8674996	1795719.3840514
12	18	1	0	90	36.1581920903955	36.241610738255	25	0.833392200060189	2	8	5	NaN	2	5	0.211735715598392	1	1	NaN	269	5	17	1	121	221	321	NaN	521	0.717200869927183	2	1	NaN	1795720.501024	NaN	1795721.4844087	1795722.00096973
12	18	1	0	90	36.1581920903955	36.241610738255	6	0.200014128014445	2	5	6	NaN	1	3	0.211735715598392	1	1	NaN	270	5	18	1	121	221	321	NaN	521	0.523209084989503	1	1	NaN	1795723.5346432	NaN	1795724.5180768	1795725.03460422
12	18	1	0	90	36.1581920903955	36.241610738255	17	0.566706696040928	2	1	5	NaN	1	4	0.211735715598392	1	1	NaN	271	5	19	1	121	221	321	NaN	521	0.385940170148388	1	1	NaN	1795726.3682961	NaN	1795727.351655	1795727.86821533
12	18	1	0	90	36.1581920903955	36.241610738255	20	0.666713760048151	2	8	5	NaN	2	4	0.211735715598392	1	1	NaN	272	5	20	1	121	221	321	NaN	521	0.469742189859971	2	1	NaN	1795729.0684468	NaN	1795730.0519169	1795730.56847381
12	18	1	0	90	36.1581920903955	36.241610738255	12	0.400028256028891	2	6	3	NaN	1	3	0.211735715598392	1	1	NaN	273	5	21	1	121	221	321	NaN	521	0.373903217492625	1	1	NaN	1795731.8521168	NaN	1795732.835578	1795733.35208128
12	18	1	0	90	36.1581920903955	36.241610738255	16	0.533371008038521	2	7	4	NaN	2	5	0.211735715598392	1	1	NaN	274	5	22	1	121	221	321	NaN	521	0.314117274945602	1	0	NaN	1795734.5357235	NaN	1795735.5190362	1795736.03568163
12	18	1	0	90	36.1581920903955	36.241610738255	10	0.333356880024075	2	7	3	NaN	2	5	0.211735715598392	1	1	NaN	275	5	23	1	121	221	321	NaN	521	0.744543069973588	1	0	NaN	1795737.1693178	NaN	1795738.1527159	1795738.66927253
12	18	1	0	90	36.1581920903955	36.241610738255	18	0.600042384043336	2	3	5	NaN	1	5	0.211735715598392	1	1	NaN	276	5	24	1	121	221	321	NaN	521	0.317878074944019	1	1	NaN	1795740.2361558	NaN	1795741.2196764	1795741.73624622
12	18	1	0	90	36.1581920903955	36.241610738255	6	0.200014128014445	2	11	2	NaN	2	4	0.211735715598392	1	1	NaN	277	5	25	1	121	221	321	NaN	521	0.372064470080659	2	1	NaN	1795742.8697795	NaN	1795743.8532908	1795744.36983473
12	18	1	0	90	36.1581920903955	36.241610738255	7	0.233349816016853	2	6	1	NaN	1	4	0.211735715598392	1	1	NaN	278	5	26	1	121	221	321	NaN	521	0.328517870046198	1	1	NaN	1795745.5534769	NaN	1795746.5368631	1795747.05342193
12	18	1	0	90	36.1581920903955	36.241610738255	24	0.800056512057781	2	5	6	NaN	1	3	0.211735715598392	1	1	NaN	279	5	27	1	121	221	321	NaN	521	0.334617022424936	1	1	NaN	1795748.1869742	NaN	1795749.1704463	1795749.68702678
12	18	1	0	90	36.1581920903955	36.241610738255	8	0.26668550401926	2	7	1	NaN	2	5	0.211735715598392	1	1	NaN	280	5	28	1	121	221	321	NaN	521	0.324587122304365	2	1	NaN	1795750.8373392	NaN	1795751.8207176	1795752.33727818
12	18	1	0	90	36.1581920903955	36.241610738255	12	0.400028256028891	2	4	1	NaN	1	3	0.211735715598392	1	1	NaN	281	5	29	1	121	221	321	NaN	521	0.274909627391025	1	1	NaN	1795753.4709295	NaN	1795754.4543209	1795754.97086897
12	18	1	0	90	36.1581920903955	36.241610738255	25	0.833392200060189	2	5	3	NaN	1	4	0.211735715598392	1	1	NaN	282	5	30	1	121	221	321	NaN	521	0.451716795098037	1	1	NaN	1795756.0545266	NaN	1795757.0378989	1795757.5544624
12	18	1	0	90	36.1581920903955	36.241610738255	11	0.366692568026483	2	5	2	NaN	1	5	0.211735715598392	1	1	NaN	283	5	31	1	121	221	321	NaN	521	0.388656770111993	1	1	NaN	1795758.8214666	NaN	1795759.8048497	1795760.32140133
12	18	1	0	90	36.1581920903955	36.241610738255	18	0.600042384043336	2	7	5	NaN	2	4	0.211735715598392	1	1	NaN	284	5	32	1	121	221	321	NaN	521	0.240510722389445	1	0	NaN	1795761.5216073	NaN	1795762.5051161	1795763.02167128
12	18	1	0	90	36.1581920903955	36.241610738255	22	0.733385136052966	2	1	6	NaN	1	5	0.211735715598392	1	1	NaN	285	5	33	1	121	221	321	NaN	521	0.369948527542874	1	1	NaN	1795764.0719544	NaN	1795765.0552601	1795765.57193847
12	18	1	0	90	36.1581920903955	36.241610738255	10	0.333356880024075	2	8	6	NaN	2	3	0.211735715598392	1	1	NaN	286	5	34	1	121	221	321	NaN	521	0.478688017465174	2	1	NaN	1795766.7556654	NaN	1795767.7389668	1795768.25551578
12	18	1	0	90	36.1581920903955	36.241610738255	6	0.200014128014445	2	6	3	NaN	1	5	0.211735715598392	1	1	NaN	287	5	35	1	121	221	321	NaN	521	0.414027742343023	1	1	NaN	1795769.5558156	NaN	1795770.5392311	1795771.05579776
12	18	1	0	90	36.1581920903955	36.241610738255	0	0	1	3	1	NaN	1	4	0.211735715598392	1	1	NaN	288	5	36	1	111	211	311	NaN	511	0.312383770011365	1	1	NaN	1795772.2894424	NaN	1795773.2728187	1795773.78938633
12	18	1	0	90	36.1581920903955	36.241610738255	21	0.700049448050559	2	1	2	NaN	1	4	0.211735715598392	1	1	NaN	289	5	37	1	121	221	321	NaN	521	0.238945617340505	1	1	NaN	1795774.9230228	NaN	1795775.9064884	1795776.42297848
12	18	1	0	90	36.1581920903955	36.241610738255	24	0.800056512057781	2	11	4	NaN	2	3	0.211735715598392	1	1	NaN	290	5	38	1	121	221	321	NaN	521	0.336678322404623	2	1	NaN	1795777.4733002	NaN	1795778.4566637	1795778.97323158
12	18	1	0	90	36.1581920903955	36.241610738255	21	0.700049448050559	2	1	6	NaN	1	3	0.211735715598392	1	1	NaN	291	5	39	1	121	221	321	NaN	521	0.27878166991286	1	1	NaN	1795780.1234467	NaN	1795781.1069275	1795781.62348573
12	18	1	0	90	36.1581920903955	36.241610738255	16	0.533371008038521	2	3	2	NaN	1	3	0.211735715598392	1	1	NaN	292	5	40	1	121	221	321	NaN	521	0.230058575049043	1	1	NaN	1795782.7238364	NaN	1795783.7072117	1795784.22375412
12	18	1	0	90	36.1581920903955	36.241610738255	0	0	1	7	5	NaN	2	4	0.211735715598392	1	1	NaN	293	5	41	1	111	211	311	NaN	511	0.240602569887415	2	1	NaN	1795785.2572654	NaN	1795786.240754	1795786.75732253
12	18	1	0	90	36.1581920903955	36.241610738255	14	0.466699632033706	2	3	5	NaN	1	3	0.211735715598392	1	1	NaN	294	5	42	1	121	221	321	NaN	521	0.202402569819242	1	1	NaN	1795787.807647	NaN	1795788.7910632	1795789.30758403
12	18	1	0	90	36.1581920903955	36.241610738255	20	0.666713760048151	2	10	4	NaN	2	4	0.211735715598392	1	1	NaN	295	5	43	1	121	221	321	NaN	521	0.30988042219542	2	1	NaN	1795790.3245612	NaN	1795791.3079276	1795791.82449458
12	18	1	0	90	36.1581920903955	36.241610738255	12	0.400028256028891	2	10	2	NaN	2	5	0.211735715598392	1	1	NaN	296	5	44	1	121	221	321	NaN	521	0.427733522374183	2	1	NaN	1795792.9581603	NaN	1795793.9415125	1795794.45808998
12	18	1	0	90	36.1581920903955	36.241610738255	10	0.333356880024075	2	1	5	NaN	1	4	0.211735715598392	1	1	NaN	297	5	45	1	121	221	321	NaN	521	0.333528470015153	1	1	NaN	1795795.7084141	NaN	1795796.6918135	1795797.20836013
12	18	1	0	90	36.1581920903955	36.241610738255	15	0.500035320036113	2	12	4	NaN	2	5	0.211735715598392	1	1	NaN	298	5	46	1	121	221	321	NaN	521	0.372910132398829	1	0	NaN	1795798.5253356	NaN	1795799.5087488	1795800.02531357
12	18	1	0	90	36.1581920903955	36.241610738255	23	0.766720824055374	2	1	1	NaN	1	4	0.211735715598392	1	1	NaN	299	5	47	1	121	221	321	NaN	521	0.345469717402011	1	1	NaN	1795801.208957	NaN	1795802.1923423	1795802.70889498
12	18	1	0	90	36.1581920903955	36.241610738255	19	0.633378072045743	2	12	6	NaN	2	5	0.211735715598392	1	1	NaN	300	5	48	1	121	221	321	NaN	521	0.342498274985701	2	1	NaN	1795803.8758912	NaN	1795804.8592745	1795805.37582633
12	18	1	0	90	36.1581920903955	36.241610738255	23	0.766720824055374	2	9	5	NaN	2	3	0.211735715598392	1	1	NaN	301	5	49	1	121	221	321	NaN	521	0.475675722351298	2	1	NaN	1795806.5261347	NaN	1795807.5095158	1795808.02609088
12	18	1	0	90	36.1581920903955	36.241610738255	15	0.500035320036113	2	3	6	NaN	1	4	0.211735715598392	1	1	NaN	302	5	50	1	121	221	321	NaN	521	0.300600875169039	1	1	NaN	1795809.3097773	NaN	1795810.2931273	1795810.80970152
12	18	1	0	90	36.1581920903955	36.241610738255	11	0.366692568026483	2	8	1	NaN	2	5	0.211735715598392	1	1	NaN	303	5	51	1	121	221	321	NaN	521	0.38200739515014	2	1	NaN	1795812.2599494	NaN	1795813.2434208	1795813.7599905
12	18	1	0	90	36.1581920903955	36.241610738255	16	0.533371008038521	2	11	1	NaN	2	4	0.211735715598392	1	1	NaN	304	5	52	1	121	221	321	NaN	521	0.361660422291607	2	1	NaN	1795814.960186	NaN	1795815.9437127	1795816.46024398
12	18	1	0	90	36.1581920903955	36.241610738255	23	0.766720824055374	2	4	6	NaN	1	4	0.211735715598392	1	1	NaN	305	5	53	1	121	221	321	NaN	521	1.30289861746132	1	1	NaN	1795817.6272104	NaN	1795818.6106052	1795819.12717138
12	18	1	0	90	36.1581920903955	36.241610738255	13	0.433363944031298	2	1	4	NaN	1	3	0.211735715598392	1	1	NaN	306	5	54	1	121	221	321	NaN	521	0.661823175149038	1	1	NaN	1795821.2442411	NaN	1795822.2276542	1795822.74420532
12	18	1	0	90	36.1581920903955	36.241610738255	16	0.533371008038521	2	2	6	NaN	1	5	0.211735715598392	1	1	NaN	307	5	55	1	121	221	321	NaN	521	0.398152222391218	1	1	NaN	1795824.227898	NaN	1795825.2112644	1795825.72782978
12	18	1	0	90	36.1581920903955	36.241610738255	23	0.766720824055374	2	9	4	NaN	2	4	0.211735715598392	1	1	NaN	308	5	56	1	121	221	321	NaN	521	0.593519374961033	2	1	NaN	1795826.9447936	NaN	1795827.9282173	1795828.44476732
12	18	1	0	90	36.1581920903955	36.241610738255	10	0.333356880024075	2	8	6	NaN	2	3	0.211735715598392	1	1	NaN	309	5	57	1	121	221	321	NaN	521	1.07619382231496	2	1	NaN	1795829.8617571	NaN	1795830.8451505	1795831.36171128
12	18	1	0	90	36.1581920903955	36.241610738255	15	0.500035320036113	2	4	3	NaN	1	5	0.211735715598392	1	1	NaN	310	5	58	1	121	221	321	NaN	521	0.499908175086603	1	1	NaN	1795833.2620981	NaN	1795834.2455205	1795834.76205302
12	18	1	0	90	36.1581920903955	36.241610738255	15	0.500035320036113	2	6	1	NaN	1	3	0.211735715598392	1	1	NaN	311	5	59	1	121	221	321	NaN	521	0.402836570050567	1	1	NaN	1795836.079062	NaN	1795837.0624221	1795837.57899413
12	18	1	0	90	36.1581920903955	36.241610738255	24	0.800056512057781	2	9	3	NaN	2	5	0.211735715598392	1	1	NaN	312	5	60	1	121	221	321	NaN	521	0.614220174960792	2	1	NaN	1795838.7959733	NaN	1795839.7793679	1795840.29592813
12	18	1	0	90	36.1581920903955	36.241610738255	24	0.800056512057781	2	8	4	NaN	2	5	0.211735715598392	1	1	NaN	313	5	61	1	121	221	321	NaN	521	0.32151782233268	2	1	NaN	1795841.7129391	NaN	1795842.6963193	1795843.21288418
12	18	1	0	90	36.1581920903955	36.241610738255	17	0.566706696040928	2	8	2	NaN	2	4	0.211735715598392	1	1	NaN	314	5	62	1	121	221	321	NaN	521	0.543482822366059	2	1	NaN	1795844.3465123	NaN	1795845.3299151	1795845.84646548
12	18	1	0	90	36.1581920903955	36.241610738255	10	0.333356880024075	2	5	4	NaN	1	5	0.211735715598392	1	1	NaN	315	5	63	1	121	221	321	NaN	521	0.669463117374107	1	1	NaN	1795847.1967913	NaN	1795848.1801864	1795848.69674288
12	18	1	0	90	36.1581920903955	36.241610738255	15	0.500035320036113	2	11	1	NaN	2	4	0.211735715598392	1	1	NaN	316	6	1	1	121	221	321	NaN	521	0.525802022311836	2	1	NaN	1795879.1165916	NaN	1795880.1000013	1795880.61655088
12	18	1	0	90	36.1581920903955	36.241610738255	23	0.766720824055374	2	7	4	NaN	2	5	0.211735715598392	1	1	NaN	317	6	2	1	121	221	321	NaN	521	0.428334769792855	2	1	NaN	1795881.9502276	NaN	1795882.9336172	1795883.45016683
12	18	1	0	90	36.1581920903955	36.241610738255	11	0.366692568026483	2	6	4	NaN	1	5	0.211735715598392	1	1	NaN	318	6	3	1	121	221	321	NaN	521	0.221974884858355	1	1	NaN	1795884.7004785	NaN	1795885.683879	1795886.20043322
12	18	1	0	90	36.1581920903955	36.241610738255	19	0.633378072045743	2	5	5	NaN	1	3	0.211735715598392	1	1	NaN	319	6	4	1	121	221	321	NaN	521	0.527976922225207	1	1	NaN	1795887.2340586	NaN	1795888.2174559	1795888.73401858
12	18	1	0	90	36.1581920903955	36.241610738255	24	0.800056512057781	2	1	4	NaN	1	4	0.211735715598392	1	1	NaN	320	6	5	1	121	221	321	NaN	521	0.43846756988205	1	1	NaN	1795890.0675524	NaN	1795891.0510644	1795891.56763213
12	18	1	0	90	36.1581920903955	36.241610738255	14	0.466699632033706	2	6	6	NaN	1	4	0.211735715598392	1	1	NaN	321	6	6	1	121	221	321	NaN	521	0.352026175009087	1	1	NaN	1795892.8179614	NaN	1795893.8013524	1795894.31790512
12	18	1	0	90	36.1581920903955	36.241610738255	16	0.533371008038521	2	10	5	NaN	2	5	0.211735715598392	1	1	NaN	322	6	7	1	121	221	321	NaN	521	0.325522822327912	2	1	NaN	1795895.4848696	NaN	1795896.4683178	1795896.98483258
12	18	1	0	90	36.1581920903955	36.241610738255	17	0.566706696040928	2	2	6	NaN	1	4	0.211735715598392	1	1	NaN	323	6	8	1	121	221	321	NaN	521	0.859576222486794	1	1	NaN	1795898.1183283	NaN	1795899.101855	1795899.61842178
12	18	1	0	90	36.1581920903955	36.241610738255	15	0.500035320036113	2	7	2	NaN	2	4	0.211735715598392	1	1	NaN	324	6	9	1	121	221	321	NaN	521	0.403991970000789	2	1	NaN	1795901.3021156	NaN	1795902.2854121	1795902.80207163
12	18	1	0	90	36.1581920903955	36.241610738255	13	0.433363944031298	2	11	6	NaN	2	3	0.211735715598392	1	1	NaN	325	6	10	1	121	221	321	NaN	521	0.414888417348266	2	1	NaN	1795904.0190641	NaN	1795905.0024921	1795905.51899798
12	18	1	0	90	36.1581920903955	36.241610738255	7	0.233349816016853	2	7	4	NaN	2	3	0.211735715598392	1	1	NaN	326	6	11	1	121	221	321	NaN	521	0.46598976990208	2	1	NaN	1795906.7360237	NaN	1795907.7193784	1795908.23593443
12	18	1	0	90	36.1581920903955	36.241610738255	6	0.200014128014445	2	9	2	NaN	2	4	0.211735715598392	1	1	NaN	327	6	12	1	121	221	321	NaN	521	0.322803260060027	1	0	NaN	1795909.5196036	NaN	1795910.5029704	1795911.01955324
12	18	1	0	90	36.1581920903955	36.241610738255	6	0.200014128014445	2	1	5	NaN	1	3	0.211735715598392	1	1	NaN	328	6	13	1	121	221	321	NaN	521	0.489214370027184	1	1	NaN	1795912.1531928	NaN	1795913.1365764	1795913.65316653
12	18	1	0	90	36.1581920903955	36.241610738255	17	0.566706696040928	2	10	5	NaN	2	3	0.211735715598392	1	1	NaN	329	6	14	1	121	221	321	NaN	521	0.432082122424617	2	1	NaN	1795914.9701432	NaN	1795915.9535355	1795916.47007998
12	18	1	0	90	36.1581920903955	36.241610738255	0	0	1	5	6	NaN	1	3	0.211735715598392	1	1	NaN	330	6	15	1	111	211	311	NaN	511	0.441849770024419	1	1	NaN	1795917.7203936	NaN	1795918.703808	1795919.22034953
12	18	1	0	90	36.1581920903955	36.241610738255	20	0.666713760048151	2	11	3	NaN	2	3	0.211735715598392	1	1	NaN	331	6	16	1	121	221	321	NaN	521	0.771306222304702	2	1	NaN	1795920.4706836	NaN	1795921.4540496	1795921.97061698
12	18	1	0	90	36.1581920903955	36.241610738255	14	0.466699632033706	2	11	4	NaN	2	5	0.211735715598392	1	1	NaN	332	6	17	1	121	221	321	NaN	521	0.695866717491299	2	1	NaN	1795923.5542892	NaN	1795924.5377039	1795925.05424418
12	18	1	0	90	36.1581920903955	36.241610738255	11	0.366692568026483	2	1	1	NaN	1	4	0.211735715598392	1	1	NaN	333	6	18	1	121	221	321	NaN	521	0.367425975156948	1	1	NaN	1795926.5544756	NaN	1795927.5379763	1795928.05455082
12	18	1	0	90	36.1581920903955	36.241610738255	15	0.500035320036113	2	9	3	NaN	2	5	0.211735715598392	1	1	NaN	334	6	19	1	121	221	321	NaN	521	0.396231322549284	2	1	NaN	1795929.2381821	NaN	1795930.22157	1795930.73815098
12	18	1	0	90	36.1581920903955	36.241610738255	18	0.600042384043336	2	1	3	NaN	1	3	0.211735715598392	1	1	NaN	335	6	20	1	121	221	321	NaN	521	0.415705922292545	1	1	NaN	1795931.9384703	NaN	1795932.9218365	1795933.43841478
12	18	1	0	90	36.1581920903955	36.241610738255	12	0.400028256028891	2	12	1	NaN	2	5	0.211735715598392	1	1	NaN	336	6	21	1	121	221	321	NaN	521	0.298421322368085	2	1	NaN	1795934.6719364	NaN	1795935.6555191	1795936.17201598
12	18	1	0	90	36.1581920903955	36.241610738255	9	0.300021192021668	2	3	6	NaN	1	4	0.211735715598392	1	1	NaN	337	6	22	1	121	221	321	NaN	521	0.313547117402777	1	1	NaN	1795937.2890007	NaN	1795938.2723745	1795938.78892788
12	18	1	0	90	36.1581920903955	36.241610738255	20	0.666713760048151	2	2	1	NaN	1	5	0.211735715598392	1	1	NaN	338	6	23	1	121	221	321	NaN	521	0.367974242428318	1	1	NaN	1795939.922571	NaN	1795940.9059586	1795941.42253246
12	18	1	0	90	36.1581920903955	36.241610738255	16	0.533371008038521	2	9	5	NaN	2	4	0.211735715598392	1	1	NaN	339	6	24	1	121	221	321	NaN	521	0.252007622271776	1	0	NaN	1795942.6061902	NaN	1795943.5895603	1795944.10612268
12	18	1	0	90	36.1581920903955	36.241610738255	10	0.333356880024075	2	11	1	NaN	2	4	0.211735715598392	1	1	NaN	340	6	25	1	121	221	321	NaN	521	0.477527322247624	2	1	NaN	1795945.173113	NaN	1795946.1564816	1795946.67304978
12	18	1	0	90	36.1581920903955	36.241610738255	23	0.766720824055374	2	2	2	NaN	1	4	0.211735715598392	1	1	NaN	341	6	26	1	121	221	321	NaN	521	0.341341860126704	1	1	NaN	1795947.9732295	NaN	1795948.9567617	1795949.47330834
12	18	1	0	90	36.1581920903955	36.241610738255	18	0.600042384043336	2	12	2	NaN	2	4	0.211735715598392	1	1	NaN	342	6	27	1	121	221	321	NaN	521	0.506907217437401	2	1	NaN	1795950.6236266	NaN	1795951.6070138	1795952.12357178
12	18	1	0	90	36.1581920903955	36.241610738255	25	0.833392200060189	2	9	2	NaN	2	5	0.211735715598392	1	1	NaN	343	6	28	1	121	221	321	NaN	521	0.601915874984115	1	0	NaN	1795953.4405861	NaN	1795954.4239932	1795954.94052593
12	18	1	0	90	36.1581920903955	36.241610738255	13	0.433363944031298	2	9	4	NaN	2	4	0.211735715598392	1	1	NaN	344	6	29	1	121	221	321	NaN	521	0.372696470003575	2	1	NaN	1795956.3575337	NaN	1795957.3409223	1795957.85748133
12	18	1	0	90	36.1581920903955	36.241610738255	12	0.400028256028891	2	5	1	NaN	1	3	0.211735715598392	1	1	NaN	345	6	30	1	121	221	321	NaN	521	0.32907532225363	1	1	NaN	1795959.0411185	NaN	1795960.0245207	1795960.54107478
12	18	1	0	90	36.1581920903955	36.241610738255	13	0.433363944031298	2	8	1	NaN	2	4	0.211735715598392	1	1	NaN	346	6	31	1	121	221	321	NaN	521	0.438790675019845	2	1	NaN	1795961.6914026	NaN	1795962.6747747	1795963.19132913
12	18	1	0	90	36.1581920903955	36.241610738255	19	0.633378072045743	2	11	4	NaN	2	3	0.211735715598392	1	1	NaN	347	6	32	1	121	221	321	NaN	521	0.576646122382954	2	1	NaN	1795964.4416577	NaN	1795965.4250342	1795965.94159888
12	18	1	0	90	36.1581920903955	36.241610738255	17	0.566706696040928	2	5	4	NaN	1	4	0.211735715598392	1	1	NaN	348	6	33	1	121	221	321	NaN	521	0.388055822346359	1	1	NaN	1795967.341923	NaN	1795968.3253232	1795968.84189468
12	18	1	0	90	36.1581920903955	36.241610738255	19	0.633378072045743	2	6	2	NaN	1	5	0.211735715598392	1	1	NaN	349	6	34	1	121	221	321	NaN	521	0.328297122148797	1	1	NaN	1795970.042219	NaN	1795971.0256034	1795971.54214738
12	18	1	0	90	36.1581920903955	36.241610738255	12	0.400028256028891	2	8	3	NaN	2	4	0.211735715598392	1	1	NaN	350	6	35	1	121	221	321	NaN	521	0.333714469801635	2	1	NaN	1795972.692323	NaN	1795973.6758522	1795974.19240563
12	18	1	0	90	36.1581920903955	36.241610738255	21	0.700049448050559	2	5	1	NaN	1	4	0.211735715598392	1	1	NaN	351	6	36	1	121	221	321	NaN	521	0.315353817306459	1	1	NaN	1795975.3427372	NaN	1795976.3261048	1795976.84267248
12	18	1	0	90	36.1581920903955	36.241610738255	12	0.400028256028891	2	8	5	NaN	2	4	0.211735715598392	1	1	NaN	352	6	37	1	121	221	321	NaN	521	0.617717769928277	2	1	NaN	1795977.9763201	NaN	1795978.9596972	1795979.47626983
12	18	1	0	90	36.1581920903955	36.241610738255	11	0.366692568026483	2	10	1	NaN	2	3	0.211735715598392	1	1	NaN	353	6	38	1	121	221	321	NaN	521	0.764196122530848	2	1	NaN	1795980.9099405	NaN	1795981.8933237	1795982.40988708
12	18	1	0	90	36.1581920903955	36.241610738255	6	0.200014128014445	2	3	5	NaN	1	5	0.211735715598392	1	1	NaN	354	6	39	1	121	221	321	NaN	521	0.392886422341689	1	1	NaN	1795983.9934749	NaN	1795984.976956	1795985.49352718
12	18	1	0	90	36.1581920903955	36.241610738255	6	0.200014128014445	2	5	1	NaN	1	3	0.211735715598392	1	1	NaN	355	6	40	1	121	221	321	NaN	521	0.916614622343332	1	1	NaN	1795986.6938614	NaN	1795987.6772154	1795988.19378248
12	18	1	0	90	36.1581920903955	36.241610738255	16	0.533371008038521	2	8	3	NaN	2	5	0.211735715598392	1	1	NaN	356	6	41	1	121	221	321	NaN	521	0.571222122292966	2	1	NaN	1795989.9108174	NaN	1795990.894209	1795991.41077088
12	18	1	0	90	36.1581920903955	36.241610738255	8	0.26668550401926	2	3	2	NaN	1	3	0.211735715598392	1	1	NaN	357	6	42	1	121	221	321	NaN	521	0.425494669936597	1	1	NaN	1795992.9611437	NaN	1795993.9445048	1795994.46106453
12	18	1	0	90	36.1581920903955	36.241610738255	20	0.666713760048151	2	4	1	NaN	1	5	0.211735715598392	1	1	NaN	358	6	43	1	121	221	321	NaN	521	0.403564170002937	1	1	NaN	1795995.6947154	NaN	1795996.6781116	1795997.19467433
12	18	1	0	90	36.1581920903955	36.241610738255	7	0.233349816016853	2	2	3	NaN	1	3	0.211735715598392	1	1	NaN	359	6	44	1	121	221	321	NaN	521	0.318648622371256	1	1	NaN	1795998.4116545	NaN	1795999.3950526	1795999.91159968
12	18	1	0	90	36.1581920903955	36.241610738255	22	0.733385136052966	2	2	3	NaN	1	3	0.211735715598392	1	1	NaN	360	6	45	1	121	221	321	NaN	521	0.509238669881597	1	1	NaN	1796001.0452599	NaN	1796002.0286312	1796002.54519943
12	18	1	0	90	36.1581920903955	36.241610738255	18	0.600042384043336	2	4	3	NaN	1	4	0.211735715598392	1	1	NaN	361	6	46	1	121	221	321	NaN	521	1.22040431248024	1	1	NaN	1796003.8621761	NaN	1796004.8455967	1796005.36213349
12	18	1	0	90	36.1581920903955	36.241610738255	8	0.26668550401926	2	8	4	NaN	2	5	0.211735715598392	1	1	NaN	362	6	47	1	121	221	321	NaN	521	0.502377222292125	1	0	NaN	1796007.3957325	NaN	1796008.3792658	1796008.89582028
12	18	1	0	90	36.1581920903955	36.241610738255	11	0.366692568026483	2	11	1	NaN	2	3	0.211735715598392	1	1	NaN	363	6	48	1	121	221	321	NaN	521	0.365481722401455	2	1	NaN	1796010.21283	NaN	1796011.1962057	1796011.71276888
12	18	1	0	90	36.1581920903955	36.241610738255	18	0.600042384043336	2	9	6	NaN	2	3	0.211735715598392	1	1	NaN	364	6	49	1	121	221	321	NaN	521	0.44195696990937	2	1	NaN	1796012.8964049	NaN	1796013.879807	1796014.39636353
12	18	1	0	90	36.1581920903955	36.241610738255	6	0.200014128014445	2	7	6	NaN	2	3	0.211735715598392	1	1	NaN	365	6	50	1	121	221	321	NaN	521	0.323920822469518	2	1	NaN	1796015.6466826	NaN	1796016.6300691	1796017.14662768
12	18	1	0	90	36.1581920903955	36.241610738255	17	0.566706696040928	2	11	3	NaN	2	4	0.211735715598392	1	1	NaN	366	6	51	1	121	221	321	NaN	521	0.3539941648487	2	1	NaN	1796018.2801246	NaN	1796019.2636993	1796019.78022924
12	18	1	0	90	36.1581920903955	36.241610738255	20	0.666713760048151	2	6	5	NaN	1	4	0.211735715598392	1	1	NaN	367	6	52	1	121	221	321	NaN	521	0.343451970024034	1	1	NaN	1796020.9472171	NaN	1796021.9305922	1796022.44715043
12	18	1	0	90	36.1581920903955	36.241610738255	11	0.366692568026483	2	5	3	NaN	1	5	0.211735715598392	1	1	NaN	368	6	53	1	121	221	321	NaN	521	0.345365922199562	1	1	NaN	1796023.6808056	NaN	1796024.6641971	1796025.18075578
12	18	1	0	90	36.1581920903955	36.241610738255	11	0.366692568026483	2	2	5	NaN	1	3	0.211735715598392	1	1	NaN	369	6	54	1	121	221	321	NaN	521	0.374456822406501	1	1	NaN	1796026.3477096	NaN	1796027.3311356	1796027.84768398
12	18	1	0	90	36.1581920903955	36.241610738255	21	0.700049448050559	2	5	2	NaN	1	3	0.211735715598392	1	1	NaN	370	6	55	1	121	221	321	NaN	521	0.275320169981569	1	1	NaN	1796029.0313254	NaN	1796030.0147383	1796030.53128363
12	18	1	0	90	36.1581920903955	36.241610738255	13	0.433363944031298	2	5	4	NaN	1	3	0.211735715598392	1	1	NaN	371	6	56	1	121	221	321	NaN	521	0.251452194992453	1	1	NaN	1796031.6147819	NaN	1796032.5983174	1796033.1148781
12	18	1	0	90	36.1581920903955	36.241610738255	24	0.800056512057781	2	3	2	NaN	1	3	0.211735715598392	1	1	NaN	372	6	57	1	121	221	321	NaN	521	0.484395570121706	1	1	NaN	1796034.1818427	NaN	1796035.1652306	1796035.68178753
12	18	1	0	90	36.1581920903955	36.241610738255	22	0.733385136052966	2	3	5	NaN	1	3	0.211735715598392	1	1	NaN	373	6	58	1	121	221	321	NaN	521	0.356583870016038	1	1	NaN	1796036.9821128	NaN	1796037.965497	1796038.48206563
12	18	1	0	90	36.1581920903955	36.241610738255	14	0.466699632033706	2	10	6	NaN	2	4	0.211735715598392	1	1	NaN	374	6	59	1	121	221	321	NaN	521	0.321381217334419	2	1	NaN	1796039.6490671	NaN	1796040.6324294	1796041.14899018
12	18	1	0	90	36.1581920903955	36.241610738255	23	0.766720824055374	2	3	5	NaN	1	4	0.211735715598392	1	1	NaN	375	6	60	1	121	221	321	NaN	521	0.264045922318473	1	1	NaN	1796042.2826381	NaN	1796043.2660152	1796043.78258478
12	18	1	0	90	36.1581920903955	36.241610738255	16	0.533371008038521	2	6	3	NaN	1	4	0.211735715598392	1	1	NaN	376	6	61	1	121	221	321	NaN	521	0.312468569958583	1	1	NaN	1796044.8662251	NaN	1796045.8496082	1796046.36617333
12	18	1	0	90	36.1581920903955	36.241610738255	20	0.666713760048151	2	2	1	NaN	1	5	0.211735715598392	1	1	NaN	377	6	62	1	121	221	321	NaN	521	0.0103925224393606	1	1	NaN	1796047.4831602	NaN	1796048.4665287	1796048.98309508
12	18	1	0	90	36.1581920903955	36.241610738255	13	0.433363944031298	2	9	5	NaN	2	4	0.211735715598392	1	1	NaN	378	6	63	1	121	221	321	NaN	521	0.289917369838804	2	1	NaN	1796049.8166918	NaN	1796050.8000976	1796051.31665593
12	18	1	0	90	36.1581920903955	36.241610738255	24	0.800056512057781	2	12	6	NaN	2	5	0.211735715598392	1	1	NaN	379	7	1	1	121	221	321	NaN	521	0.50687752221711	2	1	NaN	1796071.7355198	NaN	1796072.7189227	1796073.23547858
12	18	1	0	90	36.1581920903955	36.241610738255	25	0.833392200060189	2	4	1	NaN	1	3	0.211735715598392	1	1	NaN	380	7	2	1	121	221	321	NaN	521	0.507183822337538	1	1	NaN	1796074.7191494	NaN	1796075.7025639	1796076.21910818
12	18	1	0	90	36.1581920903955	36.241610738255	15	0.500035320036113	2	2	6	NaN	1	5	0.211735715598392	1	1	NaN	381	7	3	1	121	221	321	NaN	521	0.345946017419919	1	1	NaN	1796077.5527622	NaN	1796078.5361561	1796079.05270728
12	18	1	0	90	36.1581920903955	36.241610738255	24	0.800056512057781	2	3	3	NaN	1	5	0.211735715598392	1	1	NaN	382	7	4	1	121	221	321	NaN	521	0.599640875123441	1	1	NaN	1796080.2030151	NaN	1796081.1864073	1796081.70298082
12	18	1	0	90	36.1581920903955	36.241610738255	19	0.633378072045743	2	9	5	NaN	2	5	0.211735715598392	1	1	NaN	383	7	5	1	121	221	321	NaN	521	0.266740327235311	2	1	NaN	1796083.1199586	NaN	1796084.1033779	1796084.61993567
12	18	1	0	90	36.1581920903955	36.241610738255	17	0.566706696040928	2	5	1	NaN	1	5	0.211735715598392	1	1	NaN	384	7	6	1	121	221	321	NaN	521	1.08290332229808	1	1	NaN	1796085.703557	NaN	1796086.6869711	1796087.20351628
12	18	1	0	90	36.1581920903955	36.241610738255	19	0.633378072045743	2	2	6	NaN	1	4	0.211735715598392	1	1	NaN	385	7	7	1	121	221	321	NaN	521	0.395135827362537	1	1	NaN	1796089.087223	NaN	1796090.0706276	1796090.58718077
12	18	1	0	90	36.1581920903955	36.241610738255	22	0.733385136052966	2	12	3	NaN	2	5	0.211735715598392	1	1	NaN	386	7	8	1	121	221	321	NaN	521	0.302235574927181	2	1	NaN	1796091.8041611	NaN	1796092.7875723	1796093.30412013
12	18	1	0	90	36.1581920903955	36.241610738255	17	0.566706696040928	2	2	3	NaN	1	3	0.211735715598392	1	1	NaN	387	7	9	1	121	221	321	NaN	521	0.349663117434829	1	1	NaN	1796094.4209628	NaN	1796095.404472	1796095.92103208
12	18	1	0	90	36.1581920903955	36.241610738255	19	0.633378072045743	2	8	1	NaN	2	3	0.211735715598392	1	1	NaN	388	7	10	1	121	221	321	NaN	521	0.338465575128794	2	1	NaN	1796097.087887	NaN	1796098.071405	1796098.58797322
12	18	1	0	90	36.1581920903955	36.241610738255	18	0.600042384043336	2	1	5	NaN	1	5	0.211735715598392	1	1	NaN	389	7	11	1	121	221	321	NaN	521	0.288162569981068	1	1	NaN	1796099.7382765	NaN	1796100.7216739	1796101.23822983
12	18	1	0	90	36.1581920903955	36.241610738255	17	0.566706696040928	2	7	2	NaN	2	3	0.211735715598392	1	1	NaN	390	7	12	1	121	221	321	NaN	521	0.519995275186375	2	1	NaN	1796102.3385751	NaN	1796103.3219186	1796103.83848962
12	18	1	0	90	36.1581920903955	36.241610738255	25	0.833392200060189	2	2	1	NaN	1	4	0.211735715598392	1	1	NaN	391	7	13	1	121	221	321	NaN	521	0.390546469949186	1	1	NaN	1796105.1721681	NaN	1796106.1555655	1796106.67208713
12	18	1	0	90	36.1581920903955	36.241610738255	15	0.500035320036113	2	5	5	NaN	1	5	0.211735715598392	1	1	NaN	392	7	14	1	121	221	321	NaN	521	0.290001722518355	1	1	NaN	1796107.8724243	NaN	1796108.8558096	1796109.37235698
12	18	1	0	90	36.1581920903955	36.241610738255	24	0.800056512057781	2	10	3	NaN	2	3	0.211735715598392	1	1	NaN	393	7	15	1	121	221	321	NaN	521	0.257634980138391	2	1	NaN	1796110.472672	NaN	1796111.4560537	1796111.97261152
12	18	1	0	90	36.1581920903955	36.241610738255	20	0.666713760048151	2	1	6	NaN	1	4	0.211735715598392	1	1	NaN	394	7	16	1	121	221	321	NaN	521	0.298725974978879	1	1	NaN	1796113.0395988	NaN	1796114.0229927	1796114.53953953
12	18	1	0	90	36.1581920903955	36.241610738255	7	0.233349816016853	2	1	2	NaN	1	5	0.211735715598392	1	1	NaN	395	7	17	1	121	221	321	NaN	521	0.407221870031208	1	1	NaN	1796115.7231679	NaN	1796116.7065623	1796117.22312413
12	18	1	0	90	36.1581920903955	36.241610738255	19	0.633378072045743	2	4	4	NaN	1	4	0.211735715598392	1	1	NaN	396	7	18	1	121	221	321	NaN	521	0.282200874993578	1	1	NaN	1796118.4401816	NaN	1796119.4235214	1796119.94007033
12	18	1	0	90	36.1581920903955	36.241610738255	6	0.200014128014445	2	12	5	NaN	2	4	0.211735715598392	1	1	NaN	397	7	19	1	121	221	321	NaN	521	0.290119270095602	2	1	NaN	1796121.040391	NaN	1796122.023765	1796122.54032523
12	18	1	0	90	36.1581920903955	36.241610738255	25	0.833392200060189	2	8	5	NaN	2	5	0.211735715598392	1	1	NaN	398	7	20	1	121	221	321	NaN	521	0.353933574864641	2	1	NaN	1796123.6406588	NaN	1796124.624018	1796125.14060033
12	18	1	0	90	36.1581920903955	36.241610738255	9	0.300021192021668	2	2	2	NaN	1	3	0.211735715598392	1	1	NaN	399	7	21	1	121	221	321	NaN	521	0.279246569843963	2	0	NaN	1796126.3075384	NaN	1796127.2909989	1796127.80750653
12	18	1	0	90	36.1581920903955	36.241610738255	15	0.500035320036113	2	7	5	NaN	2	5	0.211735715598392	1	1	NaN	400	7	22	1	121	221	321	NaN	521	0.0634010224603117	2	1	NaN	1796128.8910118	NaN	1796129.8745174	1796130.39108648
12	18	1	0	90	36.1581920903955	36.241610738255	23	0.766720824055374	2	8	6	NaN	2	3	0.211735715598392	1	1	NaN	401	7	23	1	121	221	321	NaN	521	0.159872069954872	2	1	NaN	1796131.2747085	NaN	1796132.2581063	1796132.77466213
12	18	1	0	90	36.1581920903955	36.241610738255	18	0.600042384043336	2	8	6	NaN	2	5	0.211735715598392	1	1	NaN	402	7	24	1	121	221	321	NaN	521	0.228197422577068	2	1	NaN	1796133.7582962	NaN	1796134.7416755	1796135.25825528
12	18	1	0	90	36.1581920903955	36.241610738255	11	0.366692568026483	2	3	6	NaN	1	5	0.211735715598392	1	1	NaN	403	7	25	1	121	221	321	NaN	521	0.286602965090424	1	1	NaN	1796136.2918791	NaN	1796137.2752643	1796137.79181124
12	18	1	0	90	36.1581920903955	36.241610738255	0	0	1	3	3	NaN	1	4	0.211735715598392	1	1	NaN	404	7	26	1	111	211	311	NaN	511	0.318245522212237	1	1	NaN	1796138.8921201	NaN	1796139.8756129	1796140.39207298
12	18	1	0	90	36.1581920903955	36.241610738255	9	0.300021192021668	2	4	3	NaN	1	3	0.211735715598392	1	1	NaN	405	7	27	1	121	221	321	NaN	521	0.300868822261691	1	1	NaN	1796141.5257289	NaN	1796142.5091095	1796143.02567168
12	18	1	0	90	36.1581920903955	36.241610738255	12	0.400028256028891	2	3	3	NaN	1	5	0.211735715598392	1	1	NaN	406	7	28	1	121	221	321	NaN	521	0.483797422377393	1	1	NaN	1796144.1426594	NaN	1796145.1260259	1796145.64259338
12	18	1	0	90	36.1581920903955	36.241610738255	20	0.666713760048151	2	9	1	NaN	2	5	0.211735715598392	1	1	NaN	407	7	29	1	121	221	321	NaN	521	0.323672269936651	1	0	NaN	1796146.9429208	NaN	1796147.9263109	1796148.44286063
12	18	1	0	90	36.1581920903955	36.241610738255	15	0.500035320036113	2	12	3	NaN	2	4	0.211735715598392	1	1	NaN	408	7	30	1	121	221	321	NaN	521	0.498312674928457	1	0	NaN	1796149.5764981	NaN	1796150.5599485	1796151.07645803
12	18	1	0	90	36.1581920903955	36.241610738255	18	0.600042384043336	2	8	3	NaN	2	5	0.211735715598392	1	1	NaN	409	7	31	1	121	221	321	NaN	521	0.273388069821522	1	0	NaN	1796152.3934577	NaN	1796153.3768288	1796153.89340153
12	18	1	0	90	36.1581920903955	36.241610738255	15	0.500035320036113	2	1	2	NaN	1	5	0.211735715598392	1	1	NaN	410	7	32	1	121	221	321	NaN	521	0.288861074950546	1	1	NaN	1796154.9937003	NaN	1796155.9770927	1796156.49366272
12	18	1	0	90	36.1581920903955	36.241610738255	23	0.766720824055374	2	1	5	NaN	1	3	0.211735715598392	1	1	NaN	411	7	33	1	121	221	321	NaN	521	0.312767127295956	1	1	NaN	1796157.5939533	NaN	1796158.5773573	1796159.09391667
12	18	1	0	90	36.1581920903955	36.241610738255	11	0.366692568026483	2	1	4	NaN	1	5	0.211735715598392	1	1	NaN	412	7	34	1	121	221	321	NaN	521	0.327052722219378	1	1	NaN	1796160.2275767	NaN	1796161.2109467	1796161.72749898
12	18	1	0	90	36.1581920903955	36.241610738255	7	0.233349816016853	2	10	6	NaN	2	3	0.211735715598392	1	1	NaN	413	7	35	1	121	221	321	NaN	521	0.276846575085074	2	1	NaN	1796162.8778185	NaN	1796163.8611956	1796164.37777112
12	18	1	0	90	36.1581920903955	36.241610738255	13	0.433363944031298	2	4	6	NaN	1	4	0.211735715598392	1	1	NaN	414	7	36	1	121	221	321	NaN	521	0.276937627466395	2	0	NaN	1796165.4613856	NaN	1796166.4447812	1796166.96134887
12	18	1	0	90	36.1581920903955	36.241610738255	8	0.26668550401926	2	3	2	NaN	1	3	0.211735715598392	1	1	NaN	415	7	37	1	121	221	321	NaN	521	0.388935717288405	1	1	NaN	1796168.061656	NaN	1796169.0450247	1796169.56159818
12	18	1	0	90	36.1581920903955	36.241610738255	8	0.26668550401926	2	11	6	NaN	2	4	0.211735715598392	1	1	NaN	416	7	38	1	121	221	321	NaN	521	0.408790322486311	2	1	NaN	1796170.7619374	NaN	1796171.7453006	1796172.26186448
12	18	1	0	90	36.1581920903955	36.241610738255	7	0.233349816016853	2	4	5	NaN	1	5	0.211735715598392	1	1	NaN	417	7	39	1	121	221	321	NaN	521	0.571478569880128	1	1	NaN	1796173.4788515	NaN	1796174.4622493	1796174.97879893
12	18	1	0	90	36.1581920903955	36.241610738255	14	0.466699632033706	2	3	2	NaN	1	3	0.211735715598392	1	1	NaN	418	7	40	1	121	221	321	NaN	521	0.288173974957317	1	1	NaN	1796176.3623968	NaN	1796177.345854	1796177.86242863
12	18	1	0	90	36.1581920903955	36.241610738255	6	0.200014128014445	2	4	2	NaN	1	3	0.211735715598392	1	1	NaN	419	7	41	1	121	221	321	NaN	521	0.287817469798028	1	1	NaN	1796178.9627367	NaN	1796179.9461137	1796180.46267683
12	18	1	0	90	36.1581920903955	36.241610738255	19	0.633378072045743	2	6	5	NaN	1	3	0.211735715598392	1	1	NaN	420	7	42	1	121	221	321	NaN	521	0.471569822402671	2	0	NaN	1796181.5629977	NaN	1796182.5463486	1796183.06292678
12	18	1	0	90	36.1581920903955	36.241610738255	25	0.833392200060189	2	3	2	NaN	1	3	0.211735715598392	1	1	NaN	421	7	43	1	121	221	321	NaN	521	0.351912169950083	1	1	NaN	1796184.3464922	NaN	1796185.3299709	1796185.84653743
12	18	1	0	90	36.1581920903955	36.241610738255	14	0.466699632033706	2	6	4	NaN	1	5	0.211735715598392	1	1	NaN	422	7	44	1	121	221	321	NaN	521	0.309005195042118	1	1	NaN	1796187.013561	NaN	1796187.9969437	1796188.51346901
12	18	1	0	90	36.1581920903955	36.241610738255	9	0.300021192021668	2	10	1	NaN	2	4	0.211735715598392	1	1	NaN	423	7	45	1	121	221	321	NaN	521	0.324037817306817	2	1	NaN	1796189.6304514	NaN	1796190.6138383	1796191.13038408
12	18	1	0	90	36.1581920903955	36.241610738255	16	0.533371008038521	2	10	3	NaN	2	5	0.211735715598392	1	1	NaN	424	7	46	1	121	221	321	NaN	521	0.410874774912372	2	1	NaN	1796192.264022	NaN	1796193.2474221	1796193.76398903
12	18	1	0	90	36.1581920903955	36.241610738255	6	0.200014128014445	2	2	5	NaN	1	5	0.211735715598392	1	1	NaN	425	7	47	1	121	221	321	NaN	521	0.469883870100603	1	1	NaN	1796194.9809441	NaN	1796195.9643705	1796196.48092013
12	18	1	0	90	36.1581920903955	36.241610738255	12	0.400028256028891	2	1	6	NaN	1	3	0.211735715598392	1	1	NaN	426	7	48	1	121	221	321	NaN	521	0.365883702412248	1	1	NaN	1796197.7645735	NaN	1796198.7479558	1796199.2645206
12	18	1	0	90	36.1581920903955	36.241610738255	8	0.26668550401926	2	8	2	NaN	2	3	0.211735715598392	1	1	NaN	427	7	49	1	121	221	321	NaN	521	0.586677122395486	2	1	NaN	1796200.448163	NaN	1796201.4315651	1796201.94812588
12	18	1	0	90	36.1581920903955	36.241610738255	22	0.733385136052966	2	2	2	NaN	1	3	0.211735715598392	1	1	NaN	428	7	50	1	121	221	321	NaN	521	0.358491622377187	1	1	NaN	1796203.3484761	NaN	1796204.3318601	1796204.84839918
12	18	1	0	90	36.1581920903955	36.241610738255	13	0.433363944031298	2	2	1	NaN	1	5	0.211735715598392	1	1	NaN	429	7	51	1	121	221	321	NaN	521	0.347113217227161	1	1	NaN	1796206.0153659	NaN	1796206.9987743	1796207.51532968
12	18	1	0	90	36.1581920903955	36.241610738255	0	0	1	12	6	NaN	2	4	0.211735715598392	1	1	NaN	430	7	52	1	111	211	311	NaN	511	0.632389322388917	1	0	NaN	1796208.682192	NaN	1796209.6657317	1796210.18226598
12	18	1	0	90	36.1581920903955	36.241610738255	10	0.333356880024075	2	2	2	NaN	1	5	0.211735715598392	1	1	NaN	431	7	53	1	121	221	321	NaN	521	0.458341969875619	1	1	NaN	1796211.6325953	NaN	1796212.616001	1796213.13255783
12	18	1	0	90	36.1581920903955	36.241610738255	8	0.26668550401926	2	10	4	NaN	2	4	0.211735715598392	1	1	NaN	432	7	54	1	121	221	321	NaN	521	0.427086422452703	2	1	NaN	1796214.3994231	NaN	1796215.382929	1796215.89948698
12	18	1	0	90	36.1581920903955	36.241610738255	20	0.666713760048151	2	12	1	NaN	2	3	0.211735715598392	1	1	NaN	433	7	55	1	121	221	321	NaN	521	0.285488869994879	2	1	NaN	1796217.1331342	NaN	1796218.1166	1796218.63309543
12	18	1	0	90	36.1581920903955	36.241610738255	15	0.500035320036113	2	5	5	NaN	1	3	0.211735715598392	1	1	NaN	434	7	56	1	121	221	321	NaN	521	0.493516322225332	2	0	NaN	1796219.7332438	NaN	1796220.7168064	1796221.23334798
12	18	1	0	90	36.1581920903955	36.241610738255	6	0.200014128014445	2	8	1	NaN	2	3	0.211735715598392	1	1	NaN	435	7	57	1	121	221	321	NaN	521	0.380566327366978	2	1	NaN	1796222.5503469	NaN	1796223.5337445	1796224.05029867
12	18	1	0	90	36.1581920903955	36.241610738255	24	0.800056512057781	2	1	5	NaN	1	3	0.211735715598392	1	1	NaN	436	7	58	1	121	221	321	NaN	521	0.336042669834569	1	1	NaN	1796225.2506162	NaN	1796226.2340182	1796226.75055423
12	18	1	0	90	36.1581920903955	36.241610738255	19	0.633378072045743	2	7	5	NaN	2	3	0.211735715598392	1	1	NaN	437	7	59	1	121	221	321	NaN	521	0.278051170054823	2	1	NaN	1796227.900848	NaN	1796228.8842612	1796229.40082383
12	18	1	0	90	36.1581920903955	36.241610738255	13	0.433363944031298	2	8	4	NaN	2	3	0.211735715598392	1	1	NaN	438	7	60	1	121	221	321	NaN	521	0.430448674829677	2	1	NaN	1796230.4844392	NaN	1796231.467836	1796231.98441073
12	18	1	0	90	36.1581920903955	36.241610738255	21	0.700049448050559	2	9	5	NaN	2	5	0.211735715598392	1	1	NaN	439	7	61	1	121	221	321	NaN	521	0.495641069952399	2	1	NaN	1796233.2347341	NaN	1796234.2181146	1796234.73467663
12	18	1	0	90	36.1581920903955	36.241610738255	23	0.766720824055374	2	5	4	NaN	1	3	0.211735715598392	1	1	NaN	440	7	62	1	121	221	321	NaN	521	0.303239470114931	1	1	NaN	1796236.0517479	NaN	1796237.0350767	1796237.55161593
12	18	1	0	90	36.1581920903955	36.241610738255	7	0.233349816016853	2	8	1	NaN	2	4	0.211735715598392	1	1	NaN	441	7	63	1	121	221	321	NaN	521	0.0699884223286062	2	1	NaN	1796238.6685876	NaN	1796239.6519735	1796240.16855018
12	18	1	0	90	36.1581920903955	36.241610738255	0	0	1	11	5	NaN	2	3	0.211735715598392	1	1	NaN	442	8	1	1	111	211	311	NaN	511	1.02877818490379	2	1	NaN	1796254.8700775	NaN	1796255.8535925	1796256.37014412
12	18	1	0	90	36.1581920903955	36.241610738255	13	0.433363944031298	2	10	6	NaN	2	5	0.211735715598392	1	1	NaN	443	8	2	1	121	221	321	NaN	521	2.07011647010222	2	1	NaN	1796258.2206118	NaN	1796259.2039072	1796259.72046553
12	18	1	0	90	36.1581920903955	36.241610738255	15	0.500035320036113	2	10	3	NaN	2	5	0.211735715598392	1	1	NaN	444	8	3	1	121	221	321	NaN	521	0.550707569811493	2	1	NaN	1796262.6042975	NaN	1796263.5876829	1796264.10422893
12	18	1	0	90	36.1581920903955	36.241610738255	18	0.600042384043336	2	5	1	NaN	1	4	0.211735715598392	1	1	NaN	445	8	4	1	121	221	321	NaN	521	0.467731222510338	1	1	NaN	1796265.4713039	NaN	1796266.4545187	1796266.97117528
12	18	1	0	90	36.1581920903955	36.241610738255	8	0.26668550401926	2	12	6	NaN	2	3	0.211735715598392	1	1	NaN	446	8	5	1	121	221	321	NaN	521	0.571728564798832	1	0	NaN	1796268.2546977	NaN	1796269.2382307	1796269.75477694
12	18	1	0	90	36.1581920903955	36.241610738255	13	0.433363944031298	2	1	4	NaN	1	3	0.211735715598392	1	1	NaN	447	8	6	1	121	221	321	NaN	521	0.3041885222774	1	1	NaN	1796271.1384531	NaN	1796272.1218584	1796272.63840428
12	18	1	0	90	36.1581920903955	36.241610738255	23	0.766720824055374	2	3	5	NaN	1	3	0.211735715598392	1	1	NaN	448	8	7	1	121	221	321	NaN	521	0.311263190116733	1	1	NaN	1796273.7552544	NaN	1796274.7387788	1796275.25533231
12	18	1	0	90	36.1581920903955	36.241610738255	21	0.700049448050559	2	12	5	NaN	2	4	0.211735715598392	1	1	NaN	449	8	8	1	121	221	321	NaN	521	0.34164207498543	1	0	NaN	1796276.3889751	NaN	1796277.3723505	1796277.88892042
12	18	1	0	90	36.1581920903955	36.241610738255	9	0.300021192021668	2	1	3	NaN	1	5	0.211735715598392	1	1	NaN	450	8	9	1	121	221	321	NaN	521	0.403312127338722	1	1	NaN	1796279.0392215	NaN	1796280.022624	1796280.53917657
12	18	1	0	90	36.1581920903955	36.241610738255	19	0.633378072045743	2	2	4	NaN	1	4	0.211735715598392	1	1	NaN	451	8	10	1	121	221	321	NaN	521	0.438564317300916	1	1	NaN	1796281.7561737	NaN	1796282.7396146	1796283.25610688
12	18	1	0	90	36.1581920903955	36.241610738255	0	0	1	7	6	NaN	2	4	0.211735715598392	1	1	NaN	452	8	11	1	111	211	311	NaN	511	0.360094122355804	1	0	NaN	1796284.5064318	NaN	1796285.4898233	1796286.00638378
12	18	1	0	90	36.1581920903955	36.241610738255	15	0.500035320036113	2	8	6	NaN	2	4	0.211735715598392	1	1	NaN	453	8	12	1	121	221	321	NaN	521	0.0103744750376791	1	0	NaN	1796287.1733676	NaN	1796288.1567415	1796288.67331613
12	18	1	0	90	36.1581920903955	36.241610738255	11	0.366692568026483	2	12	4	NaN	2	4	0.211735715598392	1	1	NaN	454	8	13	1	121	221	321	NaN	521	0.287758617429063	2	1	NaN	1796289.5067777	NaN	1796290.4903121	1796291.00686718
12	18	1	0	90	36.1581920903955	36.241610738255	0	0	1	4	6	NaN	1	4	0.211735715598392	1	1	NaN	455	8	14	1	111	211	311	NaN	511	0.367951922351494	2	0	NaN	1796292.1071748	NaN	1796293.0905631	1796293.60711878
12	18	1	0	90	36.1581920903955	36.241610738255	12	0.400028256028891	2	3	6	NaN	1	4	0.211735715598392	1	1	NaN	456	8	15	1	121	221	321	NaN	521	0.0360640699509531	1	1	NaN	1796294.79081	NaN	1796295.7741857	1796296.29072653
12	18	1	0	90	36.1581920903955	36.241610738255	18	0.600042384043336	2	12	4	NaN	2	3	0.211735715598392	1	1	NaN	457	8	16	1	121	221	321	NaN	521	0.397756822407246	2	1	NaN	1796297.140958	NaN	1796298.1244104	1796298.64094998
12	18	1	0	90	36.1581920903955	36.241610738255	14	0.466699632033706	2	9	2	NaN	2	5	0.211735715598392	1	1	NaN	458	8	17	1	121	221	321	NaN	521	0.411410922417417	2	1	NaN	1796299.9913537	NaN	1796300.9746661	1796301.49123998
12	18	1	0	90	36.1581920903955	36.241610738255	13	0.433363944031298	2	6	6	NaN	1	3	0.211735715598392	1	1	NaN	459	8	18	1	121	221	321	NaN	521	0.270304122474045	1	1	NaN	1796302.7247836	NaN	1796303.7082714	1796304.22483338
12	18	1	0	90	36.1581920903955	36.241610738255	25	0.833392200060189	2	3	3	NaN	1	5	0.211735715598392	1	1	NaN	460	8	19	1	121	221	321	NaN	521	0.326620270032436	1	1	NaN	1796305.3084598	NaN	1796306.2918791	1796306.80841993
