subjno	age	gender	isPractice	viewdist	CmToPixX	CmToPixY	SOA_frm	SOA_time	targNum	targID	targExample	targRace	targGender	firstTargPos	contrast	familiarity	curr_staircase	iStair	TrialNum	BlockNum	blktrl	sessionNum	TC_FIXATION	TC_RSVP_START	TC_RSVP_END	TC_BLANK	TC_RESPONSE_ONSET	RT2afc	resp_2afc	acc	RSVPOnsetVBL	RSVPOnsetTime	RSVPOffsetVBL	RSVPOffsetTime	startrt_2afc
87	18	0	0	90	36.1581920903955	36.241610738255	22	0.733382496237755	2	1	2	NaN	1	4	0.0399923138539248	0	1	NaN	1	1	1	1	120	220	320	NaN	520	0.370577675290406	2	0	NaN	4822754.8734357	NaN	4822755.8567106	4822756.38983352
87	18	0	0	90	36.1581920903955	36.241610738255	23	0.766718064248562	2	4	5	NaN	1	4	0.0399923138539248	0	1	NaN	2	1	2	1	120	220	320	NaN	520	0.172552274540067	2	0	NaN	4822757.6070205	NaN	4822758.590317	4822759.12344133
87	18	0	0	90	36.1581920903955	36.241610738255	18	0.600040224194527	2	3	6	NaN	1	3	0.0399923138539248	0	1	NaN	3	1	3	1	120	220	320	NaN	520	0.150743179023266	1	1	NaN	4822760.3570736	NaN	4822761.3404876	4822761.85704192
87	18	0	0	90	36.1581920903955	36.241610738255	25	0.833389200270176	2	2	3	NaN	1	5	0.0399923138539248	0	1	NaN	4	1	4	1	120	220	320	NaN	520	1.85979896970093	2	0	NaN	4822762.8240125	NaN	4822763.8074445	4822764.32394953
87	18	0	0	90	36.1581920903955	36.241610738255	20	0.666711360216141	2	5	5	NaN	1	4	0.0399923138539248	0	1	NaN	5	1	5	1	120	220	320	NaN	520	0.0104674641042948	1	1	NaN	4822767.0077368	NaN	4822767.9911535	4822768.50768554
87	18	0	0	90	36.1581920903955	36.241610738255	18	0.600040224194527	2	3	3	NaN	1	5	0.0399923138539248	0	1	NaN	6	1	6	1	120	220	320	NaN	520	0.010421616025269	1	1	NaN	4822769.3411777	NaN	4822770.3247126	4822770.84125288
87	18	0	0	90	36.1581920903955	36.241610738255	23	0.766718064248562	2	8	2	NaN	2	3	0.0399923138539248	0	1	NaN	7	1	7	1	120	220	320	NaN	520	0.208952369168401	1	0	NaN	4822771.674844	NaN	4822772.6582741	4822773.17481633
87	18	0	0	90	36.1581920903955	36.241610738255	14	0.466697952151299	2	10	3	NaN	2	3	0.0399923138539248	0	1	NaN	8	1	8	1	120	220	320	NaN	520	0.219322522170842	2	1	NaN	4822774.2083288	NaN	4822775.1918508	4822775.70840838
87	18	0	0	90	36.1581920903955	36.241610738255	7	0.233348976075649	2	6	4	NaN	1	4	0.0399923138539248	0	1	NaN	9	1	9	1	120	220	320	NaN	520	0.0460053700953722	1	1	NaN	4822776.7420506	NaN	4822777.7254374	4822778.24198613
87	18	0	0	90	36.1581920903955	36.241610738255	24	0.800053632259369	2	7	6	NaN	2	5	0.0399923138539248	0	1	NaN	10	1	10	1	120	220	320	NaN	520	0.134826568886638	2	1	NaN	4822779.1088267	NaN	4822780.0923784	4822780.60888463
87	18	0	0	90	36.1581920903955	36.241610738255	14	0.466697952151299	2	12	5	NaN	2	4	0.0399923138539248	0	1	NaN	11	1	11	1	120	220	320	NaN	520	0.181111669167876	1	0	NaN	4822781.5590548	NaN	4822782.54261	4822783.05912153
87	18	0	0	90	36.1581920903955	36.241610738255	16	0.533369088172913	2	8	2	NaN	2	4	0.0399923138539248	0	1	NaN	12	1	12	1	120	220	320	NaN	520	1.38456178456545	2	1	NaN	4822784.0594306	NaN	4822785.0428268	4822785.55937042
87	18	0	0	90	36.1581920903955	36.241610738255	25	0.833389200270176	2	6	5	NaN	1	5	0.0399923138539248	0	1	NaN	13	1	13	1	120	220	320	NaN	520	0.0104272169992328	1	1	NaN	4822787.7597953	NaN	4822788.7431973	4822789.25973318
87	18	0	0	90	36.1581920903955	36.241610738255	8	0.266684544086456	2	5	4	NaN	1	3	0.0399923138539248	0	1	NaN	14	1	14	1	120	220	320	NaN	520	0.0104036694392562	1	1	NaN	4822790.0933508	NaN	4822791.0767511	4822791.59330533
87	18	0	0	90	36.1581920903955	36.241610738255	24	0.800053632259369	2	5	3	NaN	1	4	0.0399923138539248	0	1	NaN	15	1	15	1	120	220	320	NaN	520	2.26486492156982	2	0	NaN	4822792.4269201	NaN	4822793.4102951	4822793.92686138
87	18	0	0	90	36.1581920903955	36.241610738255	24	0.800053632259369	2	11	4	NaN	2	4	0.0399923138539248	0	1	NaN	16	1	16	1	120	220	320	NaN	520	0.0104111693799496	2	1	NaN	4822797.0105523	NaN	4822797.9941058	4822798.51064333
87	18	0	0	90	36.1581920903955	36.241610738255	20	0.666711360216141	2	4	2	NaN	1	5	0.0399923138539248	0	1	NaN	17	1	17	1	120	220	320	NaN	520	0.0104068694636226	2	0	NaN	4822799.3442124	NaN	4822800.3277004	4822800.84421093
87	18	0	0	90	36.1581920903955	36.241610738255	18	0.600040224194527	2	4	5	NaN	1	4	0.0399923138539248	0	1	NaN	18	1	18	1	120	220	320	NaN	520	0.0104267690330744	1	1	NaN	4822801.6778214	NaN	4822802.6612258	4822803.17777373
87	18	0	0	90	36.1581920903955	36.241610738255	16	0.533369088172913	2	11	2	NaN	2	4	0.0399923138539248	0	1	NaN	19	1	19	1	120	220	320	NaN	520	0.224519069306552	2	1	NaN	4822804.0113964	NaN	4822804.9947729	4822805.51133783
87	18	0	0	90	36.1581920903955	36.241610738255	11	0.366691248118877	2	5	3	NaN	1	5	0.0399923138539248	0	1	NaN	20	1	20	1	120	220	320	NaN	520	0.0104096699506044	1	1	NaN	4822806.5617091	NaN	4822807.5450775	4822808.06158773
87	18	0	0	90	36.1581920903955	36.241610738255	9	0.300020112097263	2	5	6	NaN	1	4	0.0399923138539248	0	1	NaN	21	1	21	1	120	220	320	NaN	520	0.0102597950026393	2	0	NaN	4822808.8783767	NaN	4822809.8619585	4822810.37848001
87	18	0	0	90	36.1581920903955	36.241610738255	10	0.33335568010807	2	12	4	NaN	2	5	0.0399923138539248	0	1	NaN	22	1	22	1	120	220	320	NaN	520	0.119852868840098	2	1	NaN	4822811.2120949	NaN	4822812.1954933	4822812.71203723
87	18	0	0	90	36.1581920903955	36.241610738255	7	0.233348976075649	2	9	5	NaN	2	4	0.0399923138539248	0	1	NaN	23	1	23	1	120	220	320	NaN	520	0.174186216667295	1	0	NaN	4822813.6455418	NaN	4822814.6290667	4822815.14561468
87	18	0	0	90	36.1581920903955	36.241610738255	15	0.500033520162106	2	5	4	NaN	1	5	0.0399923138539248	0	1	NaN	24	1	24	1	120	220	320	NaN	520	0.0347284218296409	1	1	NaN	4822816.1292026	NaN	4822817.1127001	4822817.62919778
87	18	0	0	90	36.1581920903955	36.241610738255	9	0.300020112097263	2	11	1	NaN	2	5	0.0399923138539248	0	1	NaN	25	1	25	1	120	220	320	NaN	520	0.0104064689949155	2	1	NaN	4822818.4793482	NaN	4822819.4628919	4822819.97942343
87	18	0	0	90	36.1581920903955	36.241610738255	21	0.700046928226948	2	9	1	NaN	2	4	0.0399923138539248	0	1	NaN	26	1	26	1	120	220	320	NaN	520	0.0104210693389177	1	0	NaN	4822820.8130446	NaN	4822821.7964446	4822822.31298753
87	18	0	0	90	36.1581920903955	36.241610738255	24	0.800053632259369	2	2	3	NaN	1	4	0.0399923138539248	0	1	NaN	27	1	27	1	120	220	320	NaN	520	0.010501011274755	2	0	NaN	4822823.1632441	NaN	4822824.146668	4822824.66322789
87	18	0	0	90	36.1581920903955	36.241610738255	24	0.800053632259369	2	12	4	NaN	2	4	0.0399923138539248	0	1	NaN	28	1	28	1	120	220	320	NaN	520	0.0598110696300864	1	0	NaN	4822825.4800834	NaN	4822826.4635692	4822826.98011283
87	18	0	0	90	36.1581920903955	36.241610738255	13	0.433362384140491	2	2	4	NaN	1	3	0.0399923138539248	0	1	NaN	29	1	29	1	120	220	320	NaN	520	0.0610196692869067	2	0	NaN	4822827.8469498	NaN	4822828.830465	4822829.34701633
87	18	0	0	90	36.1581920903955	36.241610738255	16	0.533369088172913	2	4	3	NaN	1	5	0.0399923138539248	0	1	NaN	30	1	30	1	120	220	320	NaN	520	0.0104406168684363	1	1	NaN	4822830.2306399	NaN	4822831.2140415	4822831.73057628
87	18	0	0	90	36.1581920903955	36.241610738255	12	0.400026816129684	2	8	6	NaN	2	3	0.0399923138539248	0	1	NaN	31	1	31	1	120	220	320	NaN	520	2.02399737015367	1	0	NaN	4822832.5642162	NaN	4822833.547589	4822834.06414483
87	18	0	0	90	36.1581920903955	36.241610738255	18	0.600040224194527	2	5	1	NaN	1	5	0.0399923138539248	0	1	NaN	32	1	32	1	120	220	320	NaN	520	0.905277969315648	2	0	NaN	4822836.9146182	NaN	4822837.8980237	4822838.41457463
87	18	0	0	90	36.1581920903955	36.241610738255	17	0.56670465618372	2	11	3	NaN	2	3	0.0399923138539248	0	1	NaN	33	1	33	1	120	220	320	NaN	520	0.0723325163125992	1	0	NaN	4822840.1316214	NaN	4822841.115029	4822841.63155438
87	18	0	0	90	36.1581920903955	36.241610738255	13	0.433362384140491	2	12	1	NaN	2	4	0.0399923138539248	0	1	NaN	34	1	34	1	120	220	320	NaN	520	0.0104089695960283	2	1	NaN	4822842.5318842	NaN	4822843.5152493	4822844.03179393
87	18	0	0	90	36.1581920903955	36.241610738255	7	0.233348976075649	2	1	6	NaN	1	4	0.0399923138539248	0	1	NaN	35	1	35	1	120	220	320	NaN	520	0.202666269615293	1	1	NaN	4822844.8654045	NaN	4822845.8488401	4822846.36535333
87	18	0	0	90	36.1581920903955	36.241610738255	11	0.366691248118877	2	4	6	NaN	1	5	0.0399923138539248	0	1	NaN	36	1	36	1	120	220	320	NaN	520	0.645711169578135	2	0	NaN	4822847.3823282	NaN	4822848.3657281	4822848.88226573
87	18	0	0	90	36.1581920903955	36.241610738255	12	0.400026816129684	2	4	3	NaN	1	4	0.0399923138539248	0	1	NaN	37	1	37	1	120	220	320	NaN	520	0.518604269251227	2	0	NaN	4822850.3492906	NaN	4822851.3326685	4822851.84923323
87	18	0	0	90	36.1581920903955	36.241610738255	21	0.700046928226948	2	2	1	NaN	1	3	0.0399923138539248	0	1	NaN	38	1	38	1	120	220	320	NaN	520	0.0103762755170465	1	1	NaN	4822853.1829012	NaN	4822854.1662962	4822854.68284142
87	18	0	0	90	36.1581920903955	36.241610738255	9	0.300020112097263	2	11	6	NaN	2	4	0.0399923138539248	0	1	NaN	39	1	39	1	120	220	320	NaN	520	0.488248969428241	2	1	NaN	4822855.4997852	NaN	4822856.4831776	4822856.99973763
87	18	0	0	90	36.1581920903955	36.241610738255	20	0.666711360216141	2	12	3	NaN	2	4	0.0399923138539248	0	1	NaN	40	1	40	1	120	220	320	NaN	520	0.0640751169994473	2	1	NaN	4822858.3000696	NaN	4822859.2834648	4822859.80000338
87	18	0	0	90	36.1581920903955	36.241610738255	14	0.466697952151299	2	10	1	NaN	2	3	0.0399923138539248	0	1	NaN	41	1	41	1	120	220	320	NaN	520	0.472921669483185	1	0	NaN	4822860.6669555	NaN	4822861.6503732	4822862.16691303
87	18	0	0	90	36.1581920903955	36.241610738255	6	0.200013408064842	2	10	2	NaN	2	4	0.0399923138539248	0	1	NaN	42	1	42	1	120	220	320	NaN	520	0.361357537098229	2	1	NaN	4822863.4505863	NaN	4822864.4340113	4822864.95051696
87	18	0	0	90	36.1581920903955	36.241610738255	13	0.433362384140491	2	12	2	NaN	2	3	0.0399923138539248	0	1	NaN	43	1	43	1	120	220	320	NaN	520	0.0104104690253735	2	1	NaN	4822866.1341824	NaN	4822867.1175958	4822867.63411083
87	18	0	0	90	36.1581920903955	36.241610738255	12	0.400026816129684	2	2	4	NaN	1	3	0.0399923138539248	0	1	NaN	44	1	44	1	120	220	320	NaN	520	0.032220121473074	2	0	NaN	4822868.467744	NaN	4822869.4511484	4822869.96768128
87	18	0	0	90	36.1581920903955	36.241610738255	10	0.33335568010807	2	10	2	NaN	2	3	0.0399923138539248	0	1	NaN	45	1	45	1	120	220	320	NaN	520	0.11387696955353	2	1	NaN	4822870.8179583	NaN	4822871.8013631	4822872.31790533
87	18	0	0	90	36.1581920903955	36.241610738255	20	0.666711360216141	2	11	1	NaN	2	3	0.0399923138539248	0	1	NaN	46	1	46	1	120	220	320	NaN	520	0.520519769750535	1	0	NaN	4822873.2515325	NaN	4822874.2349346	4822874.75147753
87	18	0	0	90	36.1581920903955	36.241610738255	8	0.266684544086456	2	9	4	NaN	2	3	0.0399923138539248	0	1	NaN	47	1	47	1	120	220	320	NaN	520	0.0104298163205385	2	1	NaN	4822876.0850202	NaN	4822877.0685738	4822877.58509528
87	18	0	0	90	36.1581920903955	36.241610738255	24	0.800053632259369	2	3	3	NaN	1	5	0.0399923138539248	0	1	NaN	48	1	48	1	120	220	320	NaN	520	0.0103927217423916	2	0	NaN	4822878.4019084	NaN	4822879.3854499	4822879.90200368
87	18	0	0	90	36.1581920903955	36.241610738255	24	0.800053632259369	2	7	4	NaN	2	4	0.0399923138539248	0	1	NaN	49	1	49	1	120	220	320	NaN	520	0.116617069579661	1	0	NaN	4822880.7355984	NaN	4822881.7190123	4822882.23554833
87	18	0	0	90	36.1581920903955	36.241610738255	23	0.766718064248562	2	12	3	NaN	2	3	0.0399923138539248	0	1	NaN	50	1	50	1	120	220	320	NaN	520	0.0589198218658566	2	1	NaN	4822883.1691968	NaN	4822884.152583	4822884.66913078
87	18	0	0	90	36.1581920903955	36.241610738255	7	0.233348976075649	2	2	5	NaN	1	3	0.0399923138539248	0	1	NaN	51	1	51	1	120	220	320	NaN	520	0.0104201696813107	2	0	NaN	4822885.5361822	NaN	4822886.5194759	4822887.03602403
87	18	0	0	90	36.1581920903955	36.241610738255	0	0	1	6	2	NaN	1	5	0.0399923138539248	0	1	NaN	52	1	52	1	110	210	310	NaN	510	0.0104090748354793	1	1	NaN	4822887.8529717	NaN	4822888.8363652	4822889.35292563
87	18	0	0	90	36.1581920903955	36.241610738255	24	0.800053632259369	2	6	5	NaN	1	3	0.0399923138539248	0	1	NaN	53	1	53	1	120	220	320	NaN	520	0.626466269604862	2	0	NaN	4822890.1699567	NaN	4822891.1532659	4822891.66981433
87	18	0	0	90	36.1581920903955	36.241610738255	23	0.766718064248562	2	9	1	NaN	2	3	0.0399923138539248	0	1	NaN	54	1	54	1	120	220	320	NaN	520	0.287836226634681	1	0	NaN	4822893.8201984	NaN	4822894.8036381	4822895.32017717
87	18	0	0	90	36.1581920903955	36.241610738255	10	0.33335568010807	2	3	1	NaN	1	3	0.0399923138539248	0	1	NaN	55	1	55	1	120	220	320	NaN	520	0.0104134697467089	2	0	NaN	4822896.4204935	NaN	4822897.4039365	4822897.92043223
87	18	0	0	90	36.1581920903955	36.241610738255	16	0.533369088172913	2	7	2	NaN	2	5	0.0399923138539248	0	1	NaN	56	1	56	1	120	220	320	NaN	520	0.0102733420208097	1	0	NaN	4822898.7373858	NaN	4822899.720772	4822900.23733166
87	18	0	0	90	36.1581920903955	36.241610738255	19	0.633375792205334	2	6	3	NaN	1	3	0.0399923138539248	0	1	NaN	57	1	57	1	120	220	320	NaN	520	0.784319669008255	1	1	NaN	4822901.2042895	NaN	4822902.1876898	4822902.70423763
87	18	0	0	90	36.1581920903955	36.241610738255	21	0.700046928226948	2	9	6	NaN	2	5	0.0399923138539248	0	1	NaN	58	1	58	1	120	220	320	NaN	520	0.395357169210911	1	0	NaN	4822904.3045945	NaN	4822905.2879871	4822905.80453813
87	18	0	0	90	36.1581920903955	36.241610738255	18	0.600040224194527	2	9	4	NaN	2	5	0.0399923138539248	0	1	NaN	59	1	59	1	120	220	320	NaN	520	0.830548021942377	2	1	NaN	4822907.0215438	NaN	4822908.0049304	4822908.52147148
87	18	0	0	90	36.1581920903955	36.241610738255	12	0.400026816129684	2	9	3	NaN	2	3	0.0399923138539248	0	1	NaN	60	1	60	1	120	220	320	NaN	520	0.5685801692307	1	0	NaN	4822910.1718348	NaN	4822911.1552363	4822911.67178853
87	18	0	0	90	36.1581920903955	36.241610738255	20	0.666711360216141	2	8	3	NaN	2	4	0.0399923138539248	0	1	NaN	61	1	61	1	120	220	320	NaN	520	0.236503669992089	2	1	NaN	4822913.0554505	NaN	4822914.0388544	4822914.55540313
87	18	0	0	90	36.1581920903955	36.241610738255	19	0.633375792205334	2	2	1	NaN	1	5	0.0399923138539248	0	1	NaN	62	1	62	1	120	220	320	NaN	520	0.550303231924772	1	1	NaN	4822915.6057042	NaN	4822916.5891158	4822917.10565727
87	18	0	0	90	36.1581920903955	36.241610738255	23	0.766718064248562	2	10	1	NaN	2	3	0.0399923138539248	0	1	NaN	63	1	63	1	120	220	320	NaN	520	0.531775269657373	2	1	NaN	4822918.4726541	NaN	4822919.4560818	4822919.97259743
87	18	0	0	90	36.1581920903955	36.241610738255	13	0.433362384140491	2	2	4	NaN	1	3	0.0399923138539248	0	1	NaN	64	2	1	1	120	220	320	NaN	520	0.0105320168659091	2	0	NaN	4822929.7570741	NaN	4822930.7404839	4822931.25703978
87	18	0	0	90	36.1581920903955	36.241610738255	10	0.33335568010807	2	11	2	NaN	2	5	0.0399923138539248	0	1	NaN	65	2	2	1	120	220	320	NaN	520	0.121107568964362	1	0	NaN	4822932.7074251	NaN	4822933.6907878	4822934.20733903
87	18	0	0	90	36.1581920903955	36.241610738255	13	0.433362384140491	2	11	1	NaN	2	4	0.0399923138539248	0	1	NaN	66	2	3	1	120	220	320	NaN	520	1.49513272196054	2	1	NaN	4822935.1409697	NaN	4822936.1243562	4822936.64089748
87	18	0	0	90	36.1581920903955	36.241610738255	12	0.400026816129684	2	12	5	NaN	2	3	0.0399923138539248	0	1	NaN	67	2	4	1	120	220	320	NaN	520	0.0104238167405128	2	1	NaN	4822938.9579999	NaN	4822939.9413968	4822940.45794418
87	18	0	0	90	36.1581920903955	36.241610738255	18	0.600040224194527	2	12	6	NaN	2	4	0.0399923138539248	0	1	NaN	68	2	5	1	120	220	320	NaN	520	0.552576469257474	2	1	NaN	4822941.2915625	NaN	4822942.2749679	4822942.79151183
87	18	0	0	90	36.1581920903955	36.241610738255	8	0.266684544086456	2	11	2	NaN	2	3	0.0399923138539248	0	1	NaN	69	2	6	1	120	220	320	NaN	520	0.413474769331515	2	1	NaN	4822944.1585123	NaN	4822945.1419095	4822945.65846093
87	18	0	0	90	36.1581920903955	36.241610738255	14	0.466697952151299	2	11	3	NaN	2	5	0.0399923138539248	0	1	NaN	70	2	7	1	120	220	320	NaN	520	0.94395256973803	1	0	NaN	4822946.8921186	NaN	4822947.8755341	4822948.39205873
87	18	0	0	90	36.1581920903955	36.241610738255	11	0.366691248118877	2	4	4	NaN	1	5	0.0399923138539248	0	1	NaN	71	2	8	1	120	220	320	NaN	520	0.0102728419005871	2	0	NaN	4822950.609068	NaN	4822951.5925785	4822952.10909446
87	18	0	0	90	36.1581920903955	36.241610738255	9	0.300020112097263	2	2	1	NaN	1	5	0.0399923138539248	0	1	NaN	72	2	9	1	120	220	320	NaN	520	0.486205816268921	2	0	NaN	4822952.9260295	NaN	4822953.9094364	4822954.42598348
87	18	0	0	90	36.1581920903955	36.241610738255	0	0	1	11	5	NaN	2	5	0.0399923138539248	0	1	NaN	73	2	10	1	110	210	310	NaN	510	0.0104117691516876	2	1	NaN	4822955.7263181	NaN	4822956.7097177	4822957.22625843
87	18	0	0	90	36.1581920903955	36.241610738255	14	0.466697952151299	2	8	4	NaN	2	5	0.0399923138539248	0	1	NaN	74	2	11	1	120	220	320	NaN	520	0.0104130692780018	2	1	NaN	4822958.1765269	NaN	4822959.1599705	4822959.67650703
87	18	0	0	90	36.1581920903955	36.241610738255	16	0.533369088172913	2	5	1	NaN	1	4	0.0399923138539248	0	1	NaN	75	2	12	1	120	220	320	NaN	520	0.010410369373858	1	1	NaN	4822960.4933416	NaN	4822961.4769321	4822961.99339933
87	18	0	0	90	36.1581920903955	36.241610738255	20	0.666711360216141	2	9	5	NaN	2	3	0.0399923138539248	0	1	NaN	76	2	13	1	120	220	320	NaN	520	0.137156789191067	2	1	NaN	4822962.8270087	NaN	4822963.8104226	4822964.32696741
87	18	0	0	90	36.1581920903955	36.241610738255	17	0.56670465618372	2	9	4	NaN	2	4	0.0399923138539248	0	1	NaN	77	2	14	1	120	220	320	NaN	520	0.350840269587934	1	0	NaN	4822965.2772341	NaN	4822966.2606488	4822966.77719953
87	18	0	0	90	36.1581920903955	36.241610738255	0	0	1	5	6	NaN	1	5	0.0399923138539248	0	1	NaN	78	2	15	1	110	210	310	NaN	510	0.800601669587195	1	1	NaN	4822969.6276571	NaN	4822970.6110991	4822971.12763473
87	18	0	0	90	36.1581920903955	36.241610738255	8	0.266684544086456	2	2	5	NaN	1	5	0.0399923138539248	0	1	NaN	79	2	16	1	120	220	320	NaN	520	2.3795741694048	2	0	NaN	4822972.7446634	NaN	4822973.7280626	4822974.24460823
87	18	0	0	90	36.1581920903955	36.241610738255	23	0.766718064248562	2	3	3	NaN	1	4	0.0399923138539248	0	1	NaN	80	2	17	1	120	220	320	NaN	520	0.0710040163248777	2	0	NaN	4822977.8451307	NaN	4822978.8285601	4822979.34510128
87	18	0	0	90	36.1581920903955	36.241610738255	18	0.600040224194527	2	8	5	NaN	2	4	0.0399923138539248	0	1	NaN	81	2	18	1	120	220	320	NaN	520	0.607647821307182	1	0	NaN	4822980.2286327	NaN	4822981.2121304	4822981.72867998
87	18	0	0	90	36.1581920903955	36.241610738255	6	0.200013408064842	2	9	6	NaN	2	5	0.0399923138539248	0	1	NaN	82	2	19	1	120	220	320	NaN	520	0.0104124695062637	2	1	NaN	4822983.1456041	NaN	4822984.1290781	4822984.64562353
87	18	0	0	90	36.1581920903955	36.241610738255	17	0.56670465618372	2	10	1	NaN	2	5	0.0399923138539248	0	1	NaN	83	2	20	1	120	220	320	NaN	520	0.0295516699552536	1	0	NaN	4822985.4625956	NaN	4822986.4459694	4822986.96252373
87	18	0	0	90	36.1581920903955	36.241610738255	17	0.56670465618372	2	6	4	NaN	1	5	0.0399923138539248	0	1	NaN	84	2	21	1	120	220	320	NaN	520	0.440197870135307	1	1	NaN	4822987.7961363	NaN	4822988.7795712	4822989.29608333
87	18	0	0	90	36.1581920903955	36.241610738255	24	0.800053632259369	2	12	3	NaN	2	3	0.0399923138539248	0	1	NaN	85	2	22	1	120	220	320	NaN	520	0.0104064689949155	1	0	NaN	4822990.5463467	NaN	4822991.5298394	4822992.04635653
87	18	0	0	90	36.1581920903955	36.241610738255	6	0.200013408064842	2	8	6	NaN	2	5	0.0399923138539248	0	1	NaN	86	2	23	1	120	220	320	NaN	520	2.00461236946285	2	1	NaN	4822992.8799764	NaN	4822993.8633671	4822994.37992003
87	18	0	0	90	36.1581920903955	36.241610738255	19	0.633375792205334	2	11	5	NaN	2	4	0.0399923138539248	0	1	NaN	87	2	24	1	120	220	320	NaN	520	0.0104127693921328	2	1	NaN	4822997.1970596	NaN	4822998.180456	4822998.69701023
87	18	0	0	90	36.1581920903955	36.241610738255	25	0.833389200270176	2	3	3	NaN	1	5	0.0399923138539248	0	1	NaN	88	2	25	1	120	220	320	NaN	520	0.778592443093657	1	1	NaN	4822999.5139765	NaN	4823000.4973773	4823001.01391326
87	18	0	0	90	36.1581920903955	36.241610738255	12	0.400026816129684	2	11	5	NaN	2	4	0.0399923138539248	0	1	NaN	89	2	26	1	120	220	320	NaN	520	0.831123821437359	1	0	NaN	4823002.5976101	NaN	4823003.5809856	4823004.09754178
87	18	0	0	90	36.1581920903955	36.241610738255	15	0.500033520162106	2	11	2	NaN	2	5	0.0399923138539248	0	1	NaN	90	2	27	1	120	220	320	NaN	520	0.0340380696579814	2	1	NaN	4823006.0979132	NaN	4823007.0813439	4823007.59789443
87	18	0	0	90	36.1581920903955	36.241610738255	18	0.600040224194527	2	1	5	NaN	1	3	0.0399923138539248	0	1	NaN	91	2	28	1	120	220	320	NaN	520	0.0104651702567935	2	0	NaN	4823008.4481902	NaN	4823009.4315617	4823009.94811453
87	18	0	0	90	36.1581920903955	36.241610738255	9	0.300020112097263	2	7	1	NaN	2	3	0.0399923138539248	0	1	NaN	92	2	29	1	120	220	320	NaN	520	0.0852224165573716	2	1	NaN	4823010.814958	NaN	4823011.7984766	4823012.31501278
87	18	0	0	90	36.1581920903955	36.241610738255	9	0.300020112097263	2	3	4	NaN	1	4	0.0399923138539248	0	1	NaN	93	2	30	1	120	220	320	NaN	520	0.205122416839004	1	1	NaN	4823013.2153149	NaN	4823014.1987007	4823014.71524738
87	18	0	0	90	36.1581920903955	36.241610738255	0	0	1	11	6	NaN	2	4	0.0399923138539248	0	1	NaN	94	2	31	1	110	210	310	NaN	510	0.576158774085343	2	1	NaN	4823015.7322142	NaN	4823016.7156177	4823017.23217383
87	18	0	0	90	36.1581920903955	36.241610738255	16	0.533369088172913	2	10	5	NaN	2	5	0.0399923138539248	0	1	NaN	95	2	32	1	120	220	320	NaN	520	2.23582296911627	2	1	NaN	4823018.6325152	NaN	4823019.6159286	4823020.13245493
87	18	0	0	90	36.1581920903955	36.241610738255	11	0.366691248118877	2	9	1	NaN	2	4	0.0399923138539248	0	1	NaN	96	2	33	1	120	220	320	NaN	520	0.405428169295192	1	0	NaN	4823023.1829964	NaN	4823024.1663456	4823024.68290383
87	18	0	0	90	36.1581920903955	36.241610738255	12	0.400026816129684	2	6	1	NaN	1	4	0.0399923138539248	0	1	NaN	97	2	34	1	120	220	320	NaN	520	0.0104093691334128	1	1	NaN	4823025.8998322	NaN	4823026.8832954	4823027.39982913
87	18	0	0	90	36.1581920903955	36.241610738255	21	0.700046928226948	2	10	4	NaN	2	3	0.0399923138539248	0	1	NaN	98	2	35	1	120	220	320	NaN	520	0.119461569003761	2	1	NaN	4823028.3167653	NaN	4823029.3001752	4823029.81673513
87	18	0	0	90	36.1581920903955	36.241610738255	7	0.233348976075649	2	6	3	NaN	1	4	0.0399923138539248	0	1	NaN	99	2	36	1	120	220	320	NaN	520	0.0104081695899367	1	1	NaN	4823030.7835701	NaN	4823031.7671059	4823032.28364873
87	18	0	0	90	36.1581920903955	36.241610738255	20	0.666711360216141	2	7	5	NaN	2	3	0.0399923138539248	0	1	NaN	100	2	37	1	120	220	320	NaN	520	2.06536226999015	2	1	NaN	4823033.2672766	NaN	4823034.2506747	4823034.76722093
87	18	0	0	90	36.1581920903955	36.241610738255	19	0.633375792205334	2	7	3	NaN	2	5	0.0399923138539248	0	1	NaN	101	2	38	1	120	220	320	NaN	520	0.257180116139352	1	0	NaN	4823037.6510167	NaN	4823038.6344409	4823039.15099178
87	18	0	0	90	36.1581920903955	36.241610738255	17	0.56670465618372	2	4	3	NaN	1	3	0.0399923138539248	0	1	NaN	102	2	39	1	120	220	320	NaN	520	0.209484216757119	2	0	NaN	4823040.2346269	NaN	4823041.2180382	4823041.73457478
87	18	0	0	90	36.1581920903955	36.241610738255	13	0.433362384140491	2	1	2	NaN	1	3	0.0399923138539248	0	1	NaN	103	2	40	1	120	220	320	NaN	520	0.0104142697528005	2	0	NaN	4823042.7514377	NaN	4823043.7349641	4823044.25148693
87	18	0	0	90	36.1581920903955	36.241610738255	25	0.833389200270176	2	9	6	NaN	2	5	0.0399923138539248	0	1	NaN	104	2	41	1	120	220	320	NaN	520	0.031262569129467	1	0	NaN	4823045.0851015	NaN	4823046.0685628	4823046.58505753
87	18	0	0	90	36.1581920903955	36.241610738255	16	0.533369088172913	2	3	6	NaN	1	4	0.0399923138539248	0	1	NaN	105	2	42	1	120	220	320	NaN	520	1.40093342121691	1	1	NaN	4823047.435309	NaN	4823048.4187355	4823048.93528188
87	18	0	0	90	36.1581920903955	36.241610738255	13	0.433362384140491	2	4	1	NaN	1	5	0.0399923138539248	0	1	NaN	106	2	43	1	120	220	320	NaN	520	2.08400076907128	2	0	NaN	4823051.1523629	NaN	4823052.1357725	4823052.65231073
87	18	0	0	90	36.1581920903955	36.241610738255	10	0.33335568010807	2	7	4	NaN	2	4	0.0399923138539248	0	1	NaN	107	2	44	1	120	220	320	NaN	520	0.235753416083753	2	1	NaN	4823055.5528095	NaN	4823056.5361996	4823057.05274208
87	18	0	0	90	36.1581920903955	36.241610738255	11	0.366691248118877	2	11	1	NaN	2	3	0.0399923138539248	0	1	NaN	108	2	45	1	120	220	320	NaN	520	0.0530980220064521	1	0	NaN	4823058.1030588	NaN	4823059.0864899	4823059.60299508
87	18	0	0	90	36.1581920903955	36.241610738255	15	0.500033520162106	2	6	5	NaN	1	4	0.0399923138539248	0	1	NaN	109	2	46	1	120	220	320	NaN	520	0.0104100694879889	1	1	NaN	4823060.4699644	NaN	4823061.4533507	4823061.96990433
87	18	0	0	90	36.1581920903955	36.241610738255	16	0.533369088172913	2	1	4	NaN	1	5	0.0399923138539248	0	1	NaN	110	2	47	1	120	220	320	NaN	520	0.385857169516385	2	0	NaN	4823062.7867231	NaN	4823063.770261	4823064.28679693
87	18	0	0	90	36.1581920903955	36.241610738255	19	0.633375792205334	2	12	5	NaN	2	5	0.0399923138539248	0	1	NaN	111	2	48	1	120	220	320	NaN	520	0.557144969701767	1	0	NaN	4823065.4870821	NaN	4823066.4705148	4823066.98706393
87	18	0	0	90	36.1581920903955	36.241610738255	10	0.33335568010807	2	8	2	NaN	2	5	0.0399923138539248	0	1	NaN	112	2	49	1	120	220	320	NaN	520	1.76262756995857	2	1	NaN	4823068.3540608	NaN	4823069.3374527	4823069.85400723
87	18	0	0	90	36.1581920903955	36.241610738255	16	0.533369088172913	2	5	5	NaN	1	3	0.0399923138539248	0	1	NaN	113	2	50	1	120	220	320	NaN	520	0.819560268893838	1	1	NaN	4823072.9212033	NaN	4823073.9045775	4823074.42111873
87	18	0	0	90	36.1581920903955	36.241610738255	20	0.666711360216141	2	2	5	NaN	1	4	0.0399923138539248	0	1	NaN	114	2	51	1	120	220	320	NaN	520	0.757843816652894	2	0	NaN	4823076.0546912	NaN	4823077.038268	4823077.55476038
87	18	0	0	90	36.1581920903955	36.241610738255	8	0.266684544086456	2	8	1	NaN	2	5	0.0399923138539248	0	1	NaN	115	2	52	1	120	220	320	NaN	520	0.0104052694514394	1	0	NaN	4823079.1217979	NaN	4823080.1051751	4823080.62173933
87	18	0	0	90	36.1581920903955	36.241610738255	23	0.766718064248562	2	3	5	NaN	1	4	0.0399923138539248	0	1	NaN	116	2	53	1	120	220	320	NaN	520	0.66998369526118	2	0	NaN	4823081.4386752	NaN	4823082.4220836	4823082.9386408
87	18	0	0	90	36.1581920903955	36.241610738255	17	0.56670465618372	2	1	4	NaN	1	3	0.0399923138539248	0	1	NaN	117	2	54	1	120	220	320	NaN	520	0.981968370266259	1	1	NaN	4823084.4223252	NaN	4823085.4057254	4823085.92225203
87	18	0	0	90	36.1581920903955	36.241610738255	25	0.833389200270176	2	7	5	NaN	2	4	0.0399923138539248	0	1	NaN	118	2	55	1	120	220	320	NaN	520	0.473605069331825	1	0	NaN	4823087.7226394	NaN	4823088.7060371	4823089.22258003
87	18	0	0	90	36.1581920903955	36.241610738255	22	0.733382496237755	2	9	6	NaN	2	4	0.0399923138539248	0	1	NaN	119	2	56	1	120	220	320	NaN	520	0.938130143098533	2	1	NaN	4823090.5062464	NaN	4823091.4896426	4823092.00619476
87	18	0	0	90	36.1581920903955	36.241610738255	20	0.666711360216141	2	6	2	NaN	1	5	0.0399923138539248	0	1	NaN	120	2	57	1	120	220	320	NaN	520	0.479837468825281	2	0	NaN	4823093.7565595	NaN	4823094.7399577	4823095.25650483
87	18	0	0	90	36.1581920903955	36.241610738255	13	0.433362384140491	2	5	1	NaN	1	3	0.0399923138539248	0	1	NaN	121	2	58	1	120	220	320	NaN	520	0.0104067688807845	2	0	NaN	4823096.5568959	NaN	4823097.5402381	4823098.05678113
87	18	0	0	90	36.1581920903955	36.241610738255	8	0.266684544086456	2	8	1	NaN	2	5	0.0399923138539248	0	1	NaN	122	2	59	1	120	220	320	NaN	520	0.0102814426645637	1	0	NaN	4823098.8736906	NaN	4823099.857115	4823100.37368846
87	18	0	0	90	36.1581920903955	36.241610738255	13	0.433362384140491	2	5	1	NaN	1	5	0.0399923138539248	0	1	NaN	123	2	60	1	120	220	320	NaN	520	0.429750669747591	2	0	NaN	4823101.9906684	NaN	4823102.9741365	4823103.49064753
87	18	0	0	90	36.1581920903955	36.241610738255	6	0.200013408064842	2	4	4	NaN	1	5	0.0399923138539248	0	1	NaN	124	2	61	1	120	220	320	NaN	520	0.751271716319025	1	1	NaN	4823104.7409733	NaN	4823105.7243704	4823106.24091398
87	18	0	0	90	36.1581920903955	36.241610738255	15	0.500033520162106	2	10	2	NaN	2	4	0.0399923138539248	0	1	NaN	125	2	62	1	120	220	320	NaN	520	0.116718963719904	1	0	NaN	4823107.8078184	NaN	4823108.7913433	4823109.30788284
87	18	0	0	90	36.1581920903955	36.241610738255	12	0.400026816129684	2	3	5	NaN	1	5	0.0399923138539248	0	1	NaN	126	2	63	1	120	220	320	NaN	520	0.0104219699278474	2	0	NaN	4823110.2415126	NaN	4823111.2249115	4823111.74145723
87	18	0	0	90	36.1581920903955	36.241610738255	6	0.200013408064842	2	1	3	NaN	1	3	0.0399923138539248	0	1	NaN	127	3	1	1	120	220	320	NaN	520	0.116333569400012	2	0	NaN	4823118.1922947	NaN	4823119.1756983	4823119.69223713
87	18	0	0	90	36.1581920903955	36.241610738255	7	0.233348976075649	2	3	5	NaN	1	4	0.0399923138539248	0	1	NaN	128	3	2	1	120	220	320	NaN	520	2.57867276947945	1	1	NaN	4823120.6258204	NaN	4823121.6092649	4823122.12581263
87	18	0	0	90	36.1581920903955	36.241610738255	21	0.700046928226948	2	12	1	NaN	2	4	0.0399923138539248	0	1	NaN	129	3	3	1	120	220	320	NaN	520	0.0104122702032328	2	1	NaN	4823125.5096839	NaN	4823126.4931968	4823127.00963133
87	18	0	0	90	36.1581920903955	36.241610738255	22	0.733382496237755	2	7	3	NaN	2	3	0.0399923138539248	0	1	NaN	130	3	4	1	120	220	320	NaN	520	1.79422596935183	2	1	NaN	4823127.8265741	NaN	4823128.8099764	4823129.32652343
87	18	0	0	90	36.1581920903955	36.241610738255	13	0.433362384140491	2	3	2	NaN	1	5	0.0399923138539248	0	1	NaN	131	3	5	1	120	220	320	NaN	520	0.010410369373858	2	0	NaN	4823131.943662	NaN	4823132.9270842	4823133.44359753
87	18	0	0	90	36.1581920903955	36.241610738255	24	0.800053632259369	2	10	6	NaN	2	4	0.0399923138539248	0	1	NaN	132	3	6	1	120	220	320	NaN	520	0.103906469419599	1	0	NaN	4823134.260524	NaN	4823135.2440138	4823135.76048993
87	18	0	0	90	36.1581920903955	36.241610738255	25	0.833389200270176	2	5	2	NaN	1	3	0.0399923138539248	0	1	NaN	133	3	7	1	120	220	320	NaN	520	0.0708320215344429	1	1	NaN	4823136.6774677	NaN	4823137.6608436	4823138.17740008
87	18	0	0	90	36.1581920903955	36.241610738255	20	0.666711360216141	2	11	4	NaN	2	4	0.0399923138539248	0	1	NaN	134	3	8	1	120	220	320	NaN	520	0.0314470697194338	2	1	NaN	4823139.0610169	NaN	4823140.0444021	4823140.56095793
87	18	0	0	90	36.1581920903955	36.241610738255	9	0.300020112097263	2	1	1	NaN	1	4	0.0399923138539248	0	1	NaN	135	3	9	1	120	220	320	NaN	520	0.0103949215263128	1	1	NaN	4823141.4112682	NaN	4823142.3946435	4823142.91120188
87	18	0	0	90	36.1581920903955	36.241610738255	21	0.700046928226948	2	3	5	NaN	1	4	0.0399923138539248	0	1	NaN	136	3	10	1	120	220	320	NaN	520	0.0104124695062637	2	0	NaN	4823143.7281547	NaN	4823144.7115408	4823145.22808673
87	18	0	0	90	36.1581920903955	36.241610738255	20	0.666711360216141	2	3	5	NaN	1	5	0.0399923138539248	0	1	NaN	137	3	11	1	120	220	320	NaN	520	0.0954409642145038	1	1	NaN	4823146.0449269	NaN	4823147.0285401	4823147.54497874
87	18	0	0	90	36.1581920903955	36.241610738255	7	0.233348976075649	2	5	3	NaN	1	4	0.0399923138539248	0	1	NaN	138	3	12	1	120	220	320	NaN	520	0.010425016283989	2	0	NaN	4823148.4452593	NaN	4823149.4286302	4823149.94521848
87	18	0	0	90	36.1581920903955	36.241610738255	25	0.833389200270176	2	9	1	NaN	2	3	0.0399923138539248	0	1	NaN	139	3	13	1	120	220	320	NaN	520	0.177932121790946	2	1	NaN	4823150.7788336	NaN	4823151.7622456	4823152.27878968
87	18	0	0	90	36.1581920903955	36.241610738255	0	0	1	10	3	NaN	2	5	0.0399923138539248	0	1	NaN	140	3	14	1	110	210	310	NaN	510	0.288602769374847	1	0	NaN	4823153.3956335	NaN	4823154.3791643	4823154.89571223
87	18	0	0	90	36.1581920903955	36.241610738255	0	0	1	8	2	NaN	2	5	0.0399923138539248	0	1	NaN	141	3	15	1	110	210	310	NaN	510	1.82464407011867	2	1	NaN	4823155.9958893	NaN	4823156.9794131	4823157.49595563
87	18	0	0	90	36.1581920903955	36.241610738255	9	0.300020112097263	2	7	4	NaN	2	4	0.0399923138539248	0	1	NaN	142	3	16	1	120	220	320	NaN	520	0.0104086697101593	1	0	NaN	4823160.1296779	NaN	4823161.1131541	4823161.62969873
87	18	0	0	90	36.1581920903955	36.241610738255	19	0.633375792205334	2	2	3	NaN	1	5	0.0399923138539248	0	1	NaN	143	3	17	1	120	220	320	NaN	520	0.0104227690026164	1	1	NaN	4823162.4465778	NaN	4823163.4300565	4823163.94659213
87	18	0	0	90	36.1581920903955	36.241610738255	9	0.300020112097263	2	4	6	NaN	1	4	0.0399923138539248	0	1	NaN	144	3	18	1	120	220	320	NaN	520	0.0104065695777535	2	0	NaN	4823164.7802095	NaN	4823165.7636152	4823166.28015673
87	18	0	0	90	36.1581920903955	36.241610738255	17	0.56670465618372	2	5	5	NaN	1	5	0.0399923138539248	0	1	NaN	145	3	19	1	120	220	320	NaN	520	0.0103864744305611	2	0	NaN	4823167.0969829	NaN	4823168.0804943	4823168.59705883
87	18	0	0	90	36.1581920903955	36.241610738255	6	0.200013408064842	2	2	5	NaN	1	3	0.0399923138539248	0	1	NaN	146	3	20	1	120	220	320	NaN	520	0.0104067688807845	1	1	NaN	4823169.4306707	NaN	4823170.414068	4823170.93061563
87	18	0	0	90	36.1581920903955	36.241610738255	25	0.833389200270176	2	1	6	NaN	1	3	0.0399923138539248	0	1	NaN	147	3	21	1	120	220	320	NaN	520	0.0103960214182734	2	0	NaN	4823171.7475318	NaN	4823172.7309648	4823173.24751698
87	18	0	0	90	36.1581920903955	36.241610738255	19	0.633375792205334	2	10	4	NaN	2	4	0.0399923138539248	0	1	NaN	148	3	22	1	120	220	320	NaN	520	0.156034869141877	1	0	NaN	4823174.0644629	NaN	4823175.0477722	4823175.56440153
87	18	0	0	90	36.1581920903955	36.241610738255	24	0.800053632259369	2	1	4	NaN	1	4	0.0399923138539248	0	1	NaN	149	3	23	1	120	220	320	NaN	520	0.0104382643476129	2	0	NaN	4823176.531461	NaN	4823177.5147598	4823178.03130974
87	18	0	0	90	36.1581920903955	36.241610738255	14	0.466697952151299	2	1	4	NaN	1	4	0.0399923138539248	0	1	NaN	150	3	24	1	120	220	320	NaN	520	1.64421726949513	1	1	NaN	4823178.8482535	NaN	4823179.8316619	4823180.34820663
87	18	0	0	90	36.1581920903955	36.241610738255	13	0.433362384140491	2	9	1	NaN	2	3	0.0399923138539248	0	1	NaN	151	3	25	1	120	220	320	NaN	520	0.12587867025286	2	1	NaN	4823182.7986495	NaN	4823183.7820549	4823184.29860193
87	18	0	0	90	36.1581920903955	36.241610738255	9	0.300020112097263	2	9	6	NaN	2	5	0.0399923138539248	0	1	NaN	152	3	26	1	120	220	320	NaN	520	0.548324016854167	1	0	NaN	4823185.2322274	NaN	4823186.2156131	4823186.73216478
87	18	0	0	90	36.1581920903955	36.241610738255	8	0.266684544086456	2	12	3	NaN	2	3	0.0399923138539248	0	1	NaN	153	3	27	1	120	220	320	NaN	520	0.617975969798863	2	1	NaN	4823188.082496	NaN	4823189.0659045	4823189.58245753
87	18	0	0	90	36.1581920903955	36.241610738255	10	0.33335568010807	2	6	2	NaN	1	3	0.0399923138539248	0	1	NaN	154	3	28	1	120	220	320	NaN	520	0.0103974211961031	1	1	NaN	4823191.0161372	NaN	4823191.9995167	4823192.51607128
87	18	0	0	90	36.1581920903955	36.241610738255	19	0.633375792205334	2	12	2	NaN	2	5	0.0399923138539248	0	1	NaN	155	3	29	1	120	220	320	NaN	520	0.0104457642883062	2	1	NaN	4823193.332888	NaN	4823194.3164146	4823194.83296654
87	18	0	0	90	36.1581920903955	36.241610738255	21	0.700046928226948	2	1	6	NaN	1	5	0.0399923138539248	0	1	NaN	156	3	30	1	120	220	320	NaN	520	0.0746691701933742	1	1	NaN	4823195.6499229	NaN	4823196.6333161	4823197.14986323
87	18	0	0	90	36.1581920903955	36.241610738255	0	0	1	1	5	NaN	1	3	0.0399923138539248	0	1	NaN	157	3	31	1	110	210	310	NaN	510	0.0590401692315936	1	1	NaN	4823198.0333666	NaN	4823199.0169062	4823199.53342383
87	18	0	0	90	36.1581920903955	36.241610738255	7	0.233348976075649	2	11	1	NaN	2	4	0.0399923138539248	0	1	NaN	158	3	32	1	120	220	320	NaN	520	0.010322636924684	2	1	NaN	4823200.4003679	NaN	4823201.3837758	4823201.90033056
87	18	0	0	90	36.1581920903955	36.241610738255	9	0.300020112097263	2	8	6	NaN	2	5	0.0399923138539248	0	1	NaN	159	3	33	1	120	220	320	NaN	520	0.158991621807218	2	1	NaN	4823202.7339451	NaN	4823203.7173532	4823204.23389058
87	18	0	0	90	36.1581920903955	36.241610738255	21	0.700046928226948	2	2	3	NaN	1	3	0.0399923138539248	0	1	NaN	160	3	34	1	120	220	320	NaN	520	0.115358927287161	1	1	NaN	4823205.200727	NaN	4823206.1842399	4823206.70080797
87	18	0	0	90	36.1581920903955	36.241610738255	18	0.600040224194527	2	10	4	NaN	2	3	0.0399923138539248	0	1	NaN	161	3	35	1	120	220	320	NaN	520	0.362356069497764	2	1	NaN	4823207.6344272	NaN	4823208.6178404	4823209.13437023
87	18	0	0	90	36.1581920903955	36.241610738255	6	0.200013408064842	2	6	2	NaN	1	3	0.0399923138539248	0	1	NaN	162	3	36	1	120	220	320	NaN	520	0.183074369095266	1	1	NaN	4823210.3013556	NaN	4823211.2847407	4823211.80130183
87	18	0	0	90	36.1581920903955	36.241610738255	11	0.366691248118877	2	12	1	NaN	2	4	0.0399923138539248	0	1	NaN	163	3	37	1	120	220	320	NaN	520	0.162933169864118	2	1	NaN	4823212.8016182	NaN	4823213.7850032	4823214.30155043
87	18	0	0	90	36.1581920903955	36.241610738255	25	0.833389200270176	2	4	5	NaN	1	5	0.0399923138539248	0	1	NaN	164	3	38	1	120	220	320	NaN	520	0.0104207694530487	2	0	NaN	4823215.2851762	NaN	4823216.2685749	4823216.78512713
87	18	0	0	90	36.1581920903955	36.241610738255	18	0.600040224194527	2	6	1	NaN	1	4	0.0399923138539248	0	1	NaN	165	3	39	1	120	220	320	NaN	520	0.650391164235771	2	0	NaN	4823217.6020746	NaN	4823218.5854826	4823219.10203394
87	18	0	0	90	36.1581920903955	36.241610738255	19	0.633375792205334	2	4	2	NaN	1	4	0.0399923138539248	0	1	NaN	166	3	40	1	120	220	320	NaN	520	0.0836219899356365	1	1	NaN	4823220.568909	NaN	4823221.5524676	4823222.06898911
87	18	0	0	90	36.1581920903955	36.241610738255	17	0.56670465618372	2	11	6	NaN	2	3	0.0399923138539248	0	1	NaN	167	3	41	1	120	220	320	NaN	520	0.125816222280264	1	0	NaN	4823223.1026264	NaN	4823224.0859952	4823224.60256478
87	18	0	0	90	36.1581920903955	36.241610738255	22	0.733382496237755	2	2	4	NaN	1	3	0.0399923138539248	0	1	NaN	168	3	42	1	120	220	320	NaN	520	0.068563069216907	1	1	NaN	4823225.536188	NaN	4823226.5195839	4823227.03613653
87	18	0	0	90	36.1581920903955	36.241610738255	19	0.633375792205334	2	1	4	NaN	1	4	0.0399923138539248	0	1	NaN	169	3	43	1	120	220	320	NaN	520	0.0607374692335725	2	0	NaN	4823227.9197639	NaN	4823228.9031752	4823229.41970333
87	18	0	0	90	36.1581920903955	36.241610738255	0	0	1	1	1	NaN	1	4	0.0399923138539248	0	1	NaN	170	3	44	1	110	210	310	NaN	510	0.0102686425670981	2	0	NaN	4823230.3200042	NaN	4823231.3033899	4823231.81994616
87	18	0	0	90	36.1581920903955	36.241610738255	17	0.56670465618372	2	8	2	NaN	2	5	0.0399923138539248	0	1	NaN	171	3	45	1	120	220	320	NaN	520	0.0791087793186307	1	0	NaN	4823232.6535629	NaN	4823233.6369547	4823234.15350202
87	18	0	0	90	36.1581920903955	36.241610738255	7	0.233348976075649	2	1	1	NaN	1	3	0.0399923138539248	0	1	NaN	172	3	46	1	120	220	320	NaN	520	0.422818269580603	1	1	NaN	4823235.0537929	NaN	4823236.0371899	4823236.55373563
87	18	0	0	90	36.1581920903955	36.241610738255	0	0	1	12	6	NaN	2	4	0.0399923138539248	0	1	NaN	173	3	47	1	110	210	310	NaN	510	0.0104092694818974	2	1	NaN	4823237.7873858	NaN	4823238.7707949	4823239.28733843
87	18	0	0	90	36.1581920903955	36.241610738255	6	0.200013408064842	2	9	5	NaN	2	4	0.0399923138539248	0	1	NaN	174	3	48	1	120	220	320	NaN	520	0.0104104690253735	2	1	NaN	4823240.1042972	NaN	4823241.087711	4823241.60424043
87	18	0	0	90	36.1581920903955	36.241610738255	25	0.833389200270176	2	12	3	NaN	2	4	0.0399923138539248	0	1	NaN	175	3	49	1	120	220	320	NaN	520	0.0954291690140963	2	1	NaN	4823242.42118	NaN	4823243.4045924	4823243.92112783
87	18	0	0	90	36.1581920903955	36.241610738255	8	0.266684544086456	2	4	2	NaN	1	4	0.0399923138539248	0	1	NaN	176	3	50	1	120	220	320	NaN	520	1.40727746952325	1	1	NaN	4823244.8214135	NaN	4823245.8048241	4823246.32136063
87	18	0	0	90	36.1581920903955	36.241610738255	15	0.500033520162106	2	12	5	NaN	2	5	0.0399923138539248	0	1	NaN	177	3	51	1	120	220	320	NaN	520	0.0341247702017426	1	0	NaN	4823248.5383574	NaN	4823249.5218595	4823250.03839673
87	18	0	0	90	36.1581920903955	36.241610738255	11	0.366691248118877	2	7	4	NaN	2	3	0.0399923138539248	0	1	NaN	178	3	52	1	120	220	320	NaN	520	0.0105028171092272	2	1	NaN	4823250.8886829	NaN	4823251.8720799	4823252.38863078
87	18	0	0	90	36.1581920903955	36.241610738255	15	0.500033520162106	2	7	5	NaN	2	4	0.0399923138539248	0	1	NaN	179	3	53	1	120	220	320	NaN	520	2.00646436959505	1	0	NaN	4823253.2222396	NaN	4823254.2056583	4823254.72218623
87	18	0	0	90	36.1581920903955	36.241610738255	19	0.633375792205334	2	9	3	NaN	2	3	0.0399923138539248	0	1	NaN	180	3	54	1	120	220	320	NaN	520	0.385075216181576	2	1	NaN	4823257.5393788	NaN	4823258.5227149	4823259.03927478
87	18	0	0	90	36.1581920903955	36.241610738255	14	0.466697952151299	2	4	4	NaN	1	5	0.0399923138539248	0	1	NaN	181	3	55	1	120	220	320	NaN	520	0.47714576497674	1	1	NaN	4823260.2395962	NaN	4823261.2230013	4823261.73955274
87	18	0	0	90	36.1581920903955	36.241610738255	16	0.533369088172913	2	4	6	NaN	1	5	0.0399923138539248	0	1	NaN	182	3	56	1	120	220	320	NaN	520	0.0104137696325779	1	1	NaN	4823263.4232242	NaN	4823264.4066381	4823264.92319023
87	18	0	0	90	36.1581920903955	36.241610738255	9	0.300020112097263	2	12	1	NaN	2	4	0.0399923138539248	0	1	NaN	183	3	57	1	120	220	320	NaN	520	2.3608371168375	2	1	NaN	4823265.7401306	NaN	4823266.7235468	4823267.24008068
87	18	0	0	90	36.1581920903955	36.241610738255	25	0.833389200270176	2	7	1	NaN	2	5	0.0399923138539248	0	1	NaN	184	3	58	1	120	220	320	NaN	520	0.0852497164160013	2	1	NaN	4823270.4072715	NaN	4823271.390671	4823271.90720848
87	18	0	0	90	36.1581920903955	36.241610738255	0	0	1	10	3	NaN	2	4	0.0399923138539248	0	1	NaN	185	3	59	1	110	210	310	NaN	510	0.0104258162900805	1	0	NaN	4823272.8075018	NaN	4823273.790903	4823274.30744808
87	18	0	0	90	36.1581920903955	36.241610738255	21	0.700046928226948	2	11	1	NaN	2	5	0.0399923138539248	0	1	NaN	186	3	60	1	120	220	320	NaN	520	0.431827764958143	2	1	NaN	4823275.141072	NaN	4823276.1244668	4823276.64101844
87	18	0	0	90	36.1581920903955	36.241610738255	8	0.266684544086456	2	4	1	NaN	1	3	0.0399923138539248	0	1	NaN	187	3	61	1	120	220	320	NaN	520	0.0157402688637376	1	1	NaN	4823278.5247041	NaN	4823279.5081841	4823280.02467833
87	18	0	0	90	36.1581920903955	36.241610738255	14	0.466697952151299	2	5	1	NaN	1	4	0.0399923138539248	0	1	NaN	188	3	62	1	120	220	320	NaN	520	0.010443969629705	2	0	NaN	4823280.8583021	NaN	4823281.8416969	4823282.35824393
87	18	0	0	90	36.1581920903955	36.241610738255	7	0.233348976075649	2	8	2	NaN	2	3	0.0399923138539248	0	1	NaN	189	3	63	1	120	220	320	NaN	520	1.71688536927104	2	1	NaN	4823283.191855	NaN	4823284.1752373	4823284.69180593
87	18	0	0	90	36.1581920903955	36.241610738255	10	0.33335568010807	2	10	1	NaN	2	4	0.0399923138539248	0	1	NaN	190	4	1	1	120	220	320	NaN	520	0.518634642474353	2	1	NaN	4823292.9262459	NaN	4823293.9095694	4823294.42610816
87	18	0	0	90	36.1581920903955	36.241610738255	22	0.733382496237755	2	6	6	NaN	1	5	0.0399923138539248	0	1	NaN	191	4	2	1	120	220	320	NaN	520	0.0104108694940805	1	1	NaN	4823295.7597712	NaN	4823296.7431574	4823297.25970523
87	18	0	0	90	36.1581920903955	36.241610738255	18	0.600040224194527	2	12	2	NaN	2	3	0.0399923138539248	0	1	NaN	192	4	3	1	120	220	320	NaN	520	0.0104062221944332	2	1	NaN	4823298.0933217	NaN	4823299.0767681	4823299.59327418
87	18	0	0	90	36.1581920903955	36.241610738255	12	0.400026816129684	2	7	1	NaN	2	4	0.0399923138539248	0	1	NaN	193	4	4	1	120	220	320	NaN	520	0.121837869286537	2	1	NaN	4823300.4268866	NaN	4823301.4102785	4823301.92682663
87	18	0	0	90	36.1581920903955	36.241610738255	24	0.800053632259369	2	9	1	NaN	2	4	0.0399923138539248	0	1	NaN	194	4	5	1	120	220	320	NaN	520	2.27255322225392	1	0	NaN	4823302.8604688	NaN	4823303.843858	4823304.36041318
87	18	0	0	90	36.1581920903955	36.241610738255	18	0.600040224194527	2	7	6	NaN	2	5	0.0399923138539248	0	1	NaN	195	4	6	1	120	220	320	NaN	520	0.010400322265923	2	1	NaN	4823307.4441817	NaN	4823308.4276496	4823308.94419478
87	18	0	0	90	36.1581920903955	36.241610738255	21	0.700046928226948	2	10	4	NaN	2	5	0.0399923138539248	0	1	NaN	196	4	7	1	120	220	320	NaN	520	0.243417569436133	1	0	NaN	4823309.7611317	NaN	4823310.7445335	4823311.26108343
87	18	0	0	90	36.1581920903955	36.241610738255	0	0	1	3	2	NaN	1	4	0.0399923138539248	0	1	NaN	197	4	8	1	110	210	310	NaN	510	0.0104290163144469	2	0	NaN	4823312.311386	NaN	4823313.2947872	4823313.81133278
87	18	0	0	90	36.1581920903955	36.241610738255	21	0.700046928226948	2	8	6	NaN	2	5	0.0399923138539248	0	1	NaN	198	4	9	1	120	220	320	NaN	520	0.0104239694774151	2	1	NaN	4823314.6281635	NaN	4823315.6116869	4823316.12823393
87	18	0	0	90	36.1581920903955	36.241610738255	21	0.700046928226948	2	12	3	NaN	2	4	0.0399923138539248	0	1	NaN	199	4	10	1	120	220	320	NaN	520	0.0104168690741062	1	0	NaN	4823316.9451743	NaN	4823317.9285968	4823318.44512783
87	18	0	0	90	36.1581920903955	36.241610738255	10	0.33335568010807	2	12	6	NaN	2	5	0.0399923138539248	0	1	NaN	200	4	11	1	120	220	320	NaN	520	1.59861982148141	2	1	NaN	4823319.2620962	NaN	4823320.2454743	4823320.76202098
87	18	0	0	90	36.1581920903955	36.241610738255	22	0.733382496237755	2	3	4	NaN	1	5	0.0399923138539248	0	1	NaN	201	4	12	1	120	220	320	NaN	520	0.0336789693683386	1	1	NaN	4823323.1791444	NaN	4823324.1625209	4823324.67907163
87	18	0	0	90	36.1581920903955	36.241610738255	22	0.733382496237755	2	7	5	NaN	2	4	0.0399923138539248	0	1	NaN	202	4	13	1	120	220	320	NaN	520	0.0193041162565351	1	0	NaN	4823325.5293686	NaN	4823326.5127576	4823327.02929598
87	18	0	0	90	36.1581920903955	36.241610738255	6	0.200013408064842	2	2	5	NaN	1	4	0.0399923138539248	0	1	NaN	203	4	14	1	120	220	320	NaN	520	0.0104087693616748	1	1	NaN	4823327.8629214	NaN	4823328.846318	4823329.36286493
87	18	0	0	90	36.1581920903955	36.241610738255	20	0.666711360216141	2	7	6	NaN	2	3	0.0399923138539248	0	1	NaN	204	4	15	1	120	220	320	NaN	520	0.832703653723001	1	0	NaN	4823330.1796817	NaN	4823331.1631891	4823331.67975495
87	18	0	0	90	36.1581920903955	36.241610738255	0	0	1	4	5	NaN	1	5	0.0399923138539248	0	1	NaN	205	4	16	1	110	210	310	NaN	510	0.0104090692475438	2	0	NaN	4823333.3301164	NaN	4823334.3135226	4823334.83006293
87	18	0	0	90	36.1581920903955	36.241610738255	18	0.600040224194527	2	7	3	NaN	2	3	0.0399923138539248	0	1	NaN	206	4	17	1	120	220	320	NaN	520	0.0104412641376257	2	1	NaN	4823335.6470228	NaN	4823336.6304862	4823337.14696124
87	18	0	0	90	36.1581920903955	36.241610738255	9	0.300020112097263	2	9	5	NaN	2	5	0.0399923138539248	0	1	NaN	207	4	18	1	120	220	320	NaN	520	0.0467226691544056	1	0	NaN	4823338.0138057	NaN	4823338.997323	4823339.51386063
87	18	0	0	90	36.1581920903955	36.241610738255	23	0.766718064248562	2	8	1	NaN	2	5	0.0399923138539248	0	1	NaN	208	4	19	1	120	220	320	NaN	520	0.535978069528937	2	1	NaN	4823340.3808061	NaN	4823341.3641937	4823341.88076113
87	18	0	0	90	36.1581920903955	36.241610738255	21	0.700046928226948	2	6	3	NaN	1	3	0.0399923138539248	0	1	NaN	209	4	20	1	120	220	320	NaN	520	0.010409570299089	1	1	NaN	4823343.2310926	NaN	4823344.2145013	4823344.73103753
87	18	0	0	90	36.1581920903955	36.241610738255	17	0.56670465618372	2	10	1	NaN	2	3	0.0399923138539248	0	1	NaN	210	4	21	1	120	220	320	NaN	520	0.0104275168851018	2	1	NaN	4823345.5479882	NaN	4823346.531405	4823347.04794308
87	18	0	0	90	36.1581920903955	36.241610738255	7	0.233348976075649	2	7	6	NaN	2	3	0.0399923138539248	0	1	NaN	211	4	22	1	120	220	320	NaN	520	0.0104221701622009	2	1	NaN	4823348.0815409	NaN	4823349.0649688	4823349.58152003
87	18	0	0	90	36.1581920903955	36.241610738255	7	0.233348976075649	2	12	4	NaN	2	4	0.0399923138539248	0	1	NaN	212	4	23	1	120	220	320	NaN	520	0.166354569606483	2	1	NaN	4823350.3984789	NaN	4823351.3818656	4823351.89841363
87	18	0	0	90	36.1581920903955	36.241610738255	15	0.500033520162106	2	12	6	NaN	2	5	0.0399923138539248	0	1	NaN	213	4	24	1	120	220	320	NaN	520	0.0266019692644477	2	1	NaN	4823352.8820397	NaN	4823353.8654432	4823354.38199693
87	18	0	0	90	36.1581920903955	36.241610738255	9	0.300020112097263	2	4	4	NaN	1	5	0.0399923138539248	0	1	NaN	214	4	25	1	120	220	320	NaN	520	0.0764981172978878	1	1	NaN	4823355.2322684	NaN	4823356.2156797	4823356.73223408
87	18	0	0	90	36.1581920903955	36.241610738255	16	0.533369088172913	2	7	6	NaN	2	3	0.0399923138539248	0	1	NaN	215	4	26	1	120	220	320	NaN	520	0.0104133691638708	2	1	NaN	4823358.0325199	NaN	4823359.0159491	4823359.53250233
87	18	0	0	90	36.1581920903955	36.241610738255	0	0	1	4	1	NaN	1	5	0.0399923138539248	0	1	NaN	216	4	27	1	110	210	310	NaN	510	0.19126327522099	1	1	NaN	4823360.3493231	NaN	4823361.3328483	4823361.84939783
87	18	0	0	90	36.1581920903955	36.241610738255	8	0.266684544086456	2	11	1	NaN	2	5	0.0399923138539248	0	1	NaN	217	4	28	1	120	220	320	NaN	520	0.0511951697990298	2	1	NaN	4823362.8497049	NaN	4823363.8330884	4823364.34963423
87	18	0	0	90	36.1581920903955	36.241610738255	21	0.700046928226948	2	4	1	NaN	1	5	0.0399923138539248	0	1	NaN	218	4	29	1	120	220	320	NaN	520	0.0104353167116642	1	1	NaN	4823365.2165897	NaN	4823366.1999948	4823366.71653338
87	18	0	0	90	36.1581920903955	36.241610738255	20	0.666711360216141	2	6	3	NaN	1	4	0.0399923138539248	0	1	NaN	219	4	30	1	120	220	320	NaN	520	0.0104102697223425	2	0	NaN	4823367.5334884	NaN	4823368.5168826	4823369.03342773
87	18	0	0	90	36.1581920903955	36.241610738255	12	0.400026816129684	2	12	3	NaN	2	5	0.0399923138539248	0	1	NaN	220	4	31	1	120	220	320	NaN	520	0.0104111693799496	1	0	NaN	4823369.8503803	NaN	4823370.833777	4823371.35033243
87	18	0	0	90	36.1581920903955	36.241610738255	25	0.833389200270176	2	8	5	NaN	2	3	0.0399923138539248	0	1	NaN	221	4	32	1	120	220	320	NaN	520	0.229774221777916	1	0	NaN	4823372.1671462	NaN	4823373.1506751	4823373.66722768
87	18	0	0	90	36.1581920903955	36.241610738255	16	0.533369088172913	2	2	3	NaN	1	5	0.0399923138539248	0	1	NaN	222	4	33	1	120	220	320	NaN	520	0.48731026891619	1	1	NaN	4823374.7175159	NaN	4823375.700929	4823376.21747093
87	18	0	0	90	36.1581920903955	36.241610738255	22	0.733382496237755	2	10	2	NaN	2	5	0.0399923138539248	0	1	NaN	223	4	34	1	120	220	320	NaN	520	0.063077169470489	2	1	NaN	4823377.5177546	NaN	4823378.5012233	4823379.01775113
87	18	0	0	90	36.1581920903955	36.241610738255	7	0.233348976075649	2	3	2	NaN	1	4	0.0399923138539248	0	1	NaN	224	4	35	1	120	220	320	NaN	520	0.0104284165427089	1	1	NaN	4823379.8847218	NaN	4823380.8680818	4823381.38464208
87	18	0	0	90	36.1581920903955	36.241610738255	14	0.466697952151299	2	5	1	NaN	1	4	0.0399923138539248	0	1	NaN	225	4	36	1	120	220	320	NaN	520	1.80346806999296	2	0	NaN	4823382.2015905	NaN	4823383.1849959	4823383.70153773
87	18	0	0	90	36.1581920903955	36.241610738255	20	0.666711360216141	2	3	2	NaN	1	3	0.0399923138539248	0	1	NaN	226	4	37	1	120	220	320	NaN	520	0.142125869169831	2	0	NaN	4823386.3185628	NaN	4823387.3020717	4823387.81861653
87	18	0	0	90	36.1581920903955	36.241610738255	25	0.833389200270176	2	4	1	NaN	1	4	0.0399923138539248	0	1	NaN	227	4	38	1	120	220	320	NaN	520	0.0758479693904519	1	1	NaN	4823388.7688942	NaN	4823389.7523663	4823390.26885363
87	18	0	0	90	36.1581920903955	36.241610738255	21	0.700046928226948	2	11	4	NaN	2	5	0.0399923138539248	0	1	NaN	228	4	39	1	120	220	320	NaN	520	0.220070021227002	2	1	NaN	4823391.1523514	NaN	4823392.1358714	4823392.65241818
87	18	0	0	90	36.1581920903955	36.241610738255	18	0.600040224194527	2	2	6	NaN	1	4	0.0399923138539248	0	1	NaN	229	4	40	1	120	220	320	NaN	520	0.0103995213285089	1	1	NaN	4823394.0860751	NaN	4823395.0695228	4823395.58605078
87	18	0	0	90	36.1581920903955	36.241610738255	10	0.33335568010807	2	9	5	NaN	2	4	0.0399923138539248	0	1	NaN	230	4	41	1	120	220	320	NaN	520	0.153176716528833	2	1	NaN	4823396.4196537	NaN	4823397.4030485	4823397.91960418
87	18	0	0	90	36.1581920903955	36.241610738255	23	0.766718064248562	2	5	2	NaN	1	3	0.0399923138539248	0	1	NaN	231	4	42	1	120	220	320	NaN	520	0.126275169663131	1	1	NaN	4823398.8865629	NaN	4823399.8699723	4823400.38651053
87	18	0	0	90	36.1581920903955	36.241610738255	12	0.400026816129684	2	9	2	NaN	2	3	0.0399923138539248	0	1	NaN	232	4	43	1	120	220	320	NaN	520	0.010414969176054	1	0	NaN	4823401.3201394	NaN	4823402.3035367	4823402.82008693
87	18	0	0	90	36.1581920903955	36.241610738255	9	0.300020112097263	2	1	4	NaN	1	3	0.0399923138539248	0	1	NaN	233	4	44	1	120	220	320	NaN	520	0.0958290426060557	1	1	NaN	4823403.6370704	NaN	4823404.6204229	4823405.13698276
87	18	0	0	90	36.1581920903955	36.241610738255	14	0.466697952151299	2	1	1	NaN	1	5	0.0399923138539248	0	1	NaN	234	4	45	1	120	220	320	NaN	520	0.895489670336246	2	0	NaN	4823406.03727	NaN	4823407.0206706	4823407.53722243
87	18	0	0	90	36.1581920903955	36.241610738255	9	0.300020112097263	2	10	6	NaN	2	3	0.0399923138539248	0	1	NaN	235	4	46	1	120	220	320	NaN	520	0.33563646953553	1	0	NaN	4823409.2374717	NaN	4823410.2209839	4823410.73752683
87	18	0	0	90	36.1581920903955	36.241610738255	21	0.700046928226948	2	6	2	NaN	1	3	0.0399923138539248	0	1	NaN	236	4	47	1	120	220	320	NaN	520	0.0104246158152819	1	1	NaN	4823411.8877271	NaN	4823412.8712411	4823413.38779008
87	18	0	0	90	36.1581920903955	36.241610738255	25	0.833389200270176	2	8	3	NaN	2	4	0.0399923138539248	0	1	NaN	237	4	48	1	120	220	320	NaN	520	0.0104251699522138	2	1	NaN	4823414.2047385	NaN	4823415.1881427	4823415.70468483
87	18	0	0	90	36.1581920903955	36.241610738255	18	0.600040224194527	2	4	2	NaN	1	5	0.0399923138539248	0	1	NaN	238	4	49	1	120	220	320	NaN	520	1.7475066697225	1	1	NaN	4823416.5216342	NaN	4823417.505055	4823418.02158473
87	18	0	0	90	36.1581920903955	36.241610738255	24	0.800053632259369	2	10	4	NaN	2	4	0.0399923138539248	0	1	NaN	239	4	50	1	120	220	320	NaN	520	0.0104124695062637	1	0	NaN	4823420.5887817	NaN	4823421.5721461	4823422.08864593
87	18	0	0	90	36.1581920903955	36.241610738255	23	0.766718064248562	2	7	4	NaN	2	4	0.0399923138539248	0	1	NaN	240	4	51	1	120	220	320	NaN	520	0.0912606697529554	2	1	NaN	4823422.9055889	NaN	4823423.8889914	4823424.40554463
87	18	0	0	90	36.1581920903955	36.241610738255	13	0.433362384140491	2	6	6	NaN	1	3	0.0399923138539248	0	1	NaN	241	4	52	1	120	220	320	NaN	520	0.203343069180846	1	1	NaN	4823425.3057146	NaN	4823426.2892294	4823426.80578063
87	18	0	0	90	36.1581920903955	36.241610738255	15	0.500033520162106	2	2	2	NaN	1	3	0.0399923138539248	0	1	NaN	242	4	53	1	120	220	320	NaN	520	0.010424517095089	2	0	NaN	4823427.8227559	NaN	4823428.8061266	4823429.32269208
87	18	0	0	90	36.1581920903955	36.241610738255	15	0.500033520162106	2	1	6	NaN	1	5	0.0399923138539248	0	1	NaN	243	4	54	1	120	220	320	NaN	520	0.0104105696082115	2	0	NaN	4823430.3229973	NaN	4823431.3063754	4823431.82294203
87	18	0	0	90	36.1581920903955	36.241610738255	16	0.533369088172913	2	2	2	NaN	1	4	0.0399923138539248	0	1	NaN	244	4	55	1	120	220	320	NaN	520	0.373095615766943	2	0	NaN	4823432.6397569	NaN	4823433.6232896	4823434.13983268
87	18	0	0	90	36.1581920903955	36.241610738255	11	0.366691248118877	2	1	4	NaN	1	4	0.0399923138539248	0	1	NaN	245	4	56	1	120	220	320	NaN	520	1.54434286989272	2	0	NaN	4823435.9568764	NaN	4823436.9402789	4823437.45682443
87	18	0	0	90	36.1581920903955	36.241610738255	14	0.466697952151299	2	3	1	NaN	1	4	0.0399923138539248	0	1	NaN	246	4	57	1	120	220	320	NaN	520	0.0207948163151741	2	0	NaN	4823439.8239264	NaN	4823440.8073237	4823441.32387318
87	18	0	0	90	36.1581920903955	36.241610738255	20	0.666711360216141	2	9	5	NaN	2	5	0.0399923138539248	0	1	NaN	247	4	58	1	120	220	320	NaN	520	0.45572688896209	2	1	NaN	4823442.1573781	NaN	4823443.1408889	4823443.65744631
87	18	0	0	90	36.1581920903955	36.241610738255	16	0.533369088172913	2	10	6	NaN	2	3	0.0399923138539248	0	1	NaN	248	4	59	1	120	220	320	NaN	520	0.352479916997254	1	0	NaN	4823444.9244268	NaN	4823445.9078754	4823446.42437158
87	18	0	0	90	36.1581920903955	36.241610738255	14	0.466697952151299	2	7	5	NaN	2	4	0.0399923138539248	0	1	NaN	249	4	60	1	120	220	320	NaN	520	0.0104077700525522	1	0	NaN	4823448.0580462	NaN	4823449.0414661	4823449.55802133
87	18	0	0	90	36.1581920903955	36.241610738255	13	0.433362384140491	2	1	5	NaN	1	4	0.0399923138539248	0	1	NaN	250	4	61	1	120	220	320	NaN	520	0.0104435160756111	1	1	NaN	4823450.3749591	NaN	4823451.3583603	4823451.87490418
87	18	0	0	90	36.1581920903955	36.241610738255	20	0.666711360216141	2	1	5	NaN	1	4	0.0399923138539248	0	1	NaN	251	4	62	1	120	220	320	NaN	520	0.33685271628201	1	1	NaN	4823452.6918586	NaN	4823453.6752491	4823454.19180038
87	18	0	0	90	36.1581920903955	36.241610738255	18	0.600040224194527	2	8	5	NaN	2	5	0.0399923138539248	0	1	NaN	252	4	63	1	120	220	320	NaN	520	0.0103514790534973	1	0	NaN	4823455.3421276	NaN	4823456.325516	4823456.84207302
87	18	0	0	90	36.1581920903955	36.241610738255	15	0.500033520162106	2	9	4	NaN	2	5	0.0399923138539248	0	1	NaN	253	5	1	1	120	220	320	NaN	520	0.0104090692475438	2	1	NaN	4823460.3092474	NaN	4823461.2926743	4823461.80921913
87	18	0	0	90	36.1581920903955	36.241610738255	10	0.33335568010807	2	5	4	NaN	1	4	0.0399923138539248	0	1	NaN	254	5	2	1	120	220	320	NaN	520	1.6750969691202	1	1	NaN	4823462.6261906	NaN	4823463.6095732	4823464.12611683
87	18	0	0	90	36.1581920903955	36.241610738255	6	0.200013408064842	2	11	3	NaN	2	5	0.0399923138539248	0	1	NaN	255	5	3	1	120	220	320	NaN	520	1.76291836984456	2	1	NaN	4823466.6098825	NaN	4823467.5933152	4823468.10984573
87	18	0	0	90	36.1581920903955	36.241610738255	14	0.466697952151299	2	2	3	NaN	1	5	0.0399923138539248	0	1	NaN	256	5	4	1	120	220	320	NaN	520	0.295298416167498	2	0	NaN	4823470.6936288	NaN	4823471.6770436	4823472.19357118
87	18	0	0	90	36.1581920903955	36.241610738255	6	0.200013408064842	2	12	5	NaN	2	5	0.0399923138539248	0	1	NaN	257	5	5	1	120	220	320	NaN	520	0.263352269306779	2	1	NaN	4823473.2937471	NaN	4823474.2772987	4823474.79382733
87	18	0	0	90	36.1581920903955	36.241610738255	20	0.666711360216141	2	10	5	NaN	2	3	0.0399923138539248	0	1	NaN	258	5	6	1	120	220	320	NaN	520	0.159657869488001	1	0	NaN	4823475.8774684	NaN	4823476.8607901	4823477.37741753
87	18	0	0	90	36.1581920903955	36.241610738255	15	0.500033520162106	2	8	3	NaN	2	4	0.0399923138539248	0	1	NaN	259	5	7	1	120	220	320	NaN	520	0.0442265691235662	1	0	NaN	4823478.344264	NaN	4823479.3277835	4823479.84432723
87	18	0	0	90	36.1581920903955	36.241610738255	10	0.33335568010807	2	6	4	NaN	1	5	0.0399923138539248	0	1	NaN	260	5	8	1	120	220	320	NaN	520	0.0104613108560443	1	1	NaN	4823480.7113164	NaN	4823481.694683	4823482.21122479
87	18	0	0	90	36.1581920903955	36.241610738255	6	0.200013408064842	2	7	3	NaN	2	4	0.0399923138539248	0	1	NaN	261	5	9	1	120	220	320	NaN	520	0.0104940067976713	1	0	NaN	4823483.0281701	NaN	4823484.0115515	4823484.52812339
87	18	0	0	90	36.1581920903955	36.241610738255	19	0.633375792205334	2	1	3	NaN	1	4	0.0399923138539248	0	1	NaN	262	5	10	1	120	220	320	NaN	520	0.0102511951699853	2	0	NaN	4823485.3449446	NaN	4823486.3284627	4823486.8450239
87	18	0	0	90	36.1581920903955	36.241610738255	23	0.766718064248562	2	1	3	NaN	1	4	0.0399923138539248	0	1	NaN	263	5	11	1	120	220	320	NaN	520	0.0102877896279097	1	1	NaN	4823487.661958	NaN	4823488.6454249	4823489.16191011
87	18	0	0	90	36.1581920903955	36.241610738255	17	0.56670465618372	2	12	6	NaN	2	4	0.0399923138539248	0	1	NaN	264	5	12	1	120	220	320	NaN	520	0.0102462479844689	1	0	NaN	4823489.9788639	NaN	4823490.962257	4823491.47883145
87	18	0	0	90	36.1581920903955	36.241610738255	12	0.400026816129684	2	11	6	NaN	2	5	0.0399923138539248	0	1	NaN	265	5	13	1	120	220	320	NaN	520	0.010419269092381	1	0	NaN	4823492.2957809	NaN	4823493.2791536	4823493.79570023
87	18	0	0	90	36.1581920903955	36.241610738255	15	0.500033520162106	2	10	1	NaN	2	4	0.0399923138539248	0	1	NaN	266	5	14	1	120	220	320	NaN	520	0.184342231601477	1	0	NaN	4823494.612546	NaN	4823495.596061	4823496.11259267
87	18	0	0	90	36.1581920903955	36.241610738255	11	0.366691248118877	2	3	6	NaN	1	4	0.0399923138539248	0	1	NaN	267	5	15	1	120	220	320	NaN	520	0.0120390690863132	2	0	NaN	4823497.1128953	NaN	4823498.0962953	4823498.61283853
87	18	0	0	90	36.1581920903955	36.241610738255	22	0.733382496237755	2	4	6	NaN	1	4	0.0399923138539248	0	1	NaN	268	5	16	1	120	220	320	NaN	520	0.0104087693616748	1	1	NaN	4823499.4297951	NaN	4823500.413198	4823500.92973053
87	18	0	0	90	36.1581920903955	36.241610738255	12	0.400026816129684	2	10	5	NaN	2	4	0.0399923138539248	0	1	NaN	269	5	17	1	120	220	320	NaN	520	0.0904317377135158	1	0	NaN	4823501.7466756	NaN	4823502.7301326	4823503.24663006
87	18	0	0	90	36.1581920903955	36.241610738255	25	0.833389200270176	2	12	1	NaN	2	5	0.0399923138539248	0	1	NaN	270	5	18	1	120	220	320	NaN	520	0.170399121940136	2	1	NaN	4823504.1469156	NaN	4823505.1303584	4823505.64687368
87	18	0	0	90	36.1581920903955	36.241610738255	11	0.366691248118877	2	11	6	NaN	2	4	0.0399923138539248	0	1	NaN	271	5	19	1	120	220	320	NaN	520	0.118473942391574	1	0	NaN	4823506.6304955	NaN	4823507.6138796	4823508.13045166
87	18	0	0	90	36.1581920903955	36.241610738255	15	0.500033520162106	2	5	3	NaN	1	5	0.0399923138539248	0	1	NaN	272	5	20	1	120	220	320	NaN	520	1.55717036966234	1	1	NaN	4823509.0639699	NaN	4823510.0474543	4823510.56401473
87	18	0	0	90	36.1581920903955	36.241610738255	7	0.233348976075649	2	2	4	NaN	1	3	0.0399923138539248	0	1	NaN	273	5	21	1	120	220	320	NaN	520	0.0104274163022637	2	0	NaN	4823514.7646093	NaN	4823515.7480258	4823516.26457888
87	18	0	0	90	36.1581920903955	36.241610738255	19	0.633375792205334	2	3	3	NaN	1	3	0.0399923138539248	0	1	NaN	274	5	22	1	120	220	320	NaN	520	0.0102872895076871	1	1	NaN	4823517.0814099	NaN	4823518.0649129	4823518.58148021
87	18	0	0	90	36.1581920903955	36.241610738255	0	0	1	7	1	NaN	2	3	0.0399923138539248	0	1	NaN	275	5	23	1	110	210	310	NaN	510	0.405843868851662	2	1	NaN	4823519.415094	NaN	4823520.3983796	4823520.91503473
87	18	0	0	90	36.1581920903955	36.241610738255	17	0.56670465618372	2	2	6	NaN	1	3	0.0399923138539248	0	1	NaN	276	5	24	1	120	220	320	NaN	520	0.0104144690558314	2	0	NaN	4823522.1320271	NaN	4823523.115409	4823523.63197013
87	18	0	0	90	36.1581920903955	36.241610738255	25	0.833389200270176	2	3	5	NaN	1	3	0.0399923138539248	0	1	NaN	277	5	25	1	120	220	320	NaN	520	0.0104119693860412	1	1	NaN	4823524.4487887	NaN	4823525.4323279	4823525.94885823
87	18	0	0	90	36.1581920903955	36.241610738255	0	0	1	2	6	NaN	1	3	0.0399923138539248	0	1	NaN	278	5	26	1	110	210	310	NaN	510	0.13480996992439	1	1	NaN	4823526.7825139	NaN	4823527.7659087	4823528.28242853
87	18	0	0	90	36.1581920903955	36.241610738255	17	0.56670465618372	2	9	2	NaN	2	3	0.0399923138539248	0	1	NaN	279	5	27	1	120	220	320	NaN	520	0.010276042856276	1	0	NaN	4823529.2327148	NaN	4823530.2161206	4823530.73266566
87	18	0	0	90	36.1581920903955	36.241610738255	23	0.766718064248562	2	11	6	NaN	2	3	0.0399923138539248	0	1	NaN	280	5	28	1	120	220	320	NaN	520	0.671467369422317	2	1	NaN	4823531.5496771	NaN	4823532.5330147	4823533.04956343
87	18	0	0	90	36.1581920903955	36.241610738255	22	0.733382496237755	2	2	5	NaN	1	5	0.0399923138539248	0	1	NaN	281	5	29	1	120	220	320	NaN	520	0.399728922173381	1	1	NaN	4823534.5332403	NaN	4823535.5166447	4823536.03318978
87	18	0	0	90	36.1581920903955	36.241610738255	25	0.833389200270176	2	11	3	NaN	2	5	0.0399923138539248	0	1	NaN	282	5	30	1	120	220	320	NaN	520	0.55474506970495	1	0	NaN	4823537.2501785	NaN	4823538.2335563	4823538.75012243
87	18	0	0	90	36.1581920903955	36.241610738255	11	0.366691248118877	2	8	3	NaN	2	4	0.0399923138539248	0	1	NaN	283	5	31	1	120	220	320	NaN	520	0.0104102697223425	2	1	NaN	4823540.1171337	NaN	4823541.1005307	4823541.61707063
87	18	0	0	90	36.1581920903955	36.241610738255	23	0.766718064248562	2	1	5	NaN	1	5	0.0399923138539248	0	1	NaN	284	5	32	1	120	220	320	NaN	520	0.578633616678417	2	0	NaN	4823542.4506579	NaN	4823543.4340926	4823543.95063288
87	18	0	0	90	36.1581920903955	36.241610738255	11	0.366691248118877	2	1	6	NaN	1	3	0.0399923138539248	0	1	NaN	285	5	33	1	120	220	320	NaN	520	0.0104175694286823	1	1	NaN	4823545.3509702	NaN	4823546.3343668	4823546.85091473
87	18	0	0	90	36.1581920903955	36.241610738255	9	0.300020112097263	2	6	5	NaN	1	5	0.0399923138539248	0	1	NaN	286	5	34	1	120	220	320	NaN	520	0.201098985038698	1	1	NaN	4823547.667864	NaN	4823548.6512635	4823549.16781402
87	18	0	0	90	36.1581920903955	36.241610738255	21	0.700046928226948	2	7	1	NaN	2	4	0.0399923138539248	0	1	NaN	287	5	35	1	120	220	320	NaN	520	2.62061897013336	1	0	NaN	4823550.1848241	NaN	4823551.1681758	4823551.68472803
87	18	0	0	90	36.1581920903955	36.241610738255	7	0.233348976075649	2	10	3	NaN	2	5	0.0399923138539248	0	1	NaN	288	5	36	1	120	220	320	NaN	520	0.0104177696630359	2	1	NaN	4823555.1186041	NaN	4823556.1019952	4823556.61854143
87	18	0	0	90	36.1581920903955	36.241610738255	15	0.500033520162106	2	7	5	NaN	2	3	0.0399923138539248	0	1	NaN	289	5	37	1	120	220	320	NaN	520	0.689393921755254	2	1	NaN	4823557.4354865	NaN	4823558.4189023	4823558.93544358
87	18	0	0	90	36.1581920903955	36.241610738255	8	0.266684544086456	2	1	2	NaN	1	3	0.0399923138539248	0	1	NaN	290	5	38	1	120	220	320	NaN	520	0.105199969373643	1	1	NaN	4823560.4357971	NaN	4823561.4191823	4823561.93572853
87	18	0	0	90	36.1581920903955	36.241610738255	11	0.366691248118877	2	5	4	NaN	1	5	0.0399923138539248	0	1	NaN	291	5	39	1	120	220	320	NaN	520	0.0244129691272974	2	0	NaN	4823562.852714	NaN	4823563.8360916	4823564.35264443
87	18	0	0	90	36.1581920903955	36.241610738255	21	0.700046928226948	2	8	1	NaN	2	3	0.0399923138539248	0	1	NaN	292	5	40	1	120	220	320	NaN	520	0.915112916380167	1	0	NaN	4823565.1862609	NaN	4823566.1696587	4823566.68620528
87	18	0	0	90	36.1581920903955	36.241610738255	12	0.400026816129684	2	3	1	NaN	1	3	0.0399923138539248	0	1	NaN	293	5	41	1	120	220	320	NaN	520	0.0490217702463269	1	1	NaN	4823568.4199118	NaN	4823569.4033059	4823569.91984733
87	18	0	0	90	36.1581920903955	36.241610738255	11	0.366691248118877	2	7	3	NaN	2	5	0.0399923138539248	0	1	NaN	294	5	42	1	120	220	320	NaN	520	0.178609269671142	1	0	NaN	4823570.7866819	NaN	4823571.7702047	4823572.28675253
87	18	0	0	90	36.1581920903955	36.241610738255	21	0.700046928226948	2	7	6	NaN	2	5	0.0399923138539248	0	1	NaN	295	5	43	1	120	220	320	NaN	520	0.0104073695838451	2	1	NaN	4823573.2870465	NaN	4823574.2704395	4823574.78699293
87	18	0	0	90	36.1581920903955	36.241610738255	17	0.56670465618372	2	7	2	NaN	2	3	0.0399923138539248	0	1	NaN	296	5	44	1	120	220	320	NaN	520	0.0104167694225907	1	0	NaN	4823575.6039759	NaN	4823576.5873423	4823577.10389093
87	18	0	0	90	36.1581920903955	36.241610738255	0	0	1	3	1	NaN	1	3	0.0399923138539248	0	1	NaN	297	5	45	1	110	210	310	NaN	510	1.64459257945418	1	1	NaN	4823577.9208382	NaN	4823578.9042465	4823579.42078962
87	18	0	0	90	36.1581920903955	36.241610738255	10	0.33335568010807	2	2	1	NaN	1	3	0.0399923138539248	0	1	NaN	298	5	46	1	120	220	320	NaN	520	0.0104234162718058	2	0	NaN	4823581.8710931	NaN	4823582.8546354	4823583.37117548
87	18	0	0	90	36.1581920903955	36.241610738255	20	0.666711360216141	2	8	3	NaN	2	4	0.0399923138539248	0	1	NaN	299	5	47	1	120	220	320	NaN	520	0.0354545162990689	1	0	NaN	4823584.3214636	NaN	4823585.3048672	4823585.82141348
87	18	0	0	90	36.1581920903955	36.241610738255	23	0.766718064248562	2	12	2	NaN	2	4	0.0399923138539248	0	1	NaN	300	5	48	1	120	220	320	NaN	520	0.0104175694286823	2	1	NaN	4823586.671706	NaN	4823587.6550847	4823588.17164723
87	18	0	0	90	36.1581920903955	36.241610738255	7	0.233348976075649	2	8	6	NaN	2	4	0.0399923138539248	0	1	NaN	301	5	49	1	120	220	320	NaN	520	0.0403662212193012	2	1	NaN	4823588.9884484	NaN	4823589.9720061	4823590.48854298
87	18	0	0	90	36.1581920903955	36.241610738255	16	0.533369088172913	2	9	4	NaN	2	4	0.0399923138539248	0	1	NaN	302	5	50	1	120	220	320	NaN	520	0.162425870075822	2	1	NaN	4823591.3388293	NaN	4823592.3222507	4823592.83877293
87	18	0	0	90	36.1581920903955	36.241610738255	17	0.56670465618372	2	7	4	NaN	2	5	0.0399923138539248	0	1	NaN	303	5	51	1	120	220	320	NaN	520	0.0306389220058918	1	0	NaN	4823593.8224028	NaN	4823594.8058175	4823595.32235538
87	18	0	0	90	36.1581920903955	36.241610738255	13	0.433362384140491	2	7	3	NaN	2	3	0.0399923138539248	0	1	NaN	304	5	52	1	120	220	320	NaN	520	0.128799769096076	1	0	NaN	4823596.1725019	NaN	4823597.1561392	4823597.67258273
87	18	0	0	90	36.1581920903955	36.241610738255	6	0.200013408064842	2	4	6	NaN	1	5	0.0399923138539248	0	1	NaN	305	5	53	1	120	220	320	NaN	520	0.010438316501677	1	1	NaN	4823598.60613	NaN	4823599.5896081	4823600.10614788
87	18	0	0	90	36.1581920903955	36.241610738255	20	0.666711360216141	2	5	2	NaN	1	3	0.0399923138539248	0	1	NaN	306	5	54	1	120	220	320	NaN	520	2.10626558959484	2	0	NaN	4823600.9231022	NaN	4823601.9065143	4823602.42304981
87	18	0	0	90	36.1581920903955	36.241610738255	13	0.433362384140491	2	8	5	NaN	2	3	0.0399923138539248	0	1	NaN	307	5	55	1	120	220	320	NaN	520	0.160815378651023	1	0	NaN	4823605.3401984	NaN	4823606.3236021	4823606.84015342
87	18	0	0	90	36.1581920903955	36.241610738255	0	0	1	9	2	NaN	2	4	0.0399923138539248	0	1	NaN	308	5	56	1	110	210	310	NaN	510	0.589265068992972	1	0	NaN	4823607.8237942	NaN	4823608.80717	4823609.32373203
87	18	0	0	90	36.1581920903955	36.241610738255	12	0.400026816129684	2	5	4	NaN	1	5	0.0399923138539248	0	1	NaN	309	5	57	1	120	220	320	NaN	520	0.865414369851351	2	0	NaN	4823610.7240683	NaN	4823611.7074679	4823612.22400993
87	18	0	0	90	36.1581920903955	36.241610738255	17	0.56670465618372	2	3	3	NaN	1	4	0.0399923138539248	0	1	NaN	310	5	58	1	120	220	320	NaN	520	0.0104066217318177	2	0	NaN	4823613.9077167	NaN	4823614.8911094	4823615.40766038
87	18	0	0	90	36.1581920903955	36.241610738255	11	0.366691248118877	2	2	1	NaN	1	4	0.0399923138539248	0	1	NaN	311	5	59	1	120	220	320	NaN	520	0.010290989652276	1	1	NaN	4823616.2412801	NaN	4823617.2246669	4823617.74123061
87	18	0	0	90	36.1581920903955	36.241610738255	16	0.533369088172913	2	3	2	NaN	1	5	0.0399923138539248	0	1	NaN	312	5	60	1	120	220	320	NaN	520	0.0544919697567821	1	1	NaN	4823618.5748417	NaN	4823619.5582446	4823620.07478563
87	18	0	0	90	36.1581920903955	36.241610738255	18	0.600040224194527	2	11	6	NaN	2	3	0.0399923138539248	0	1	NaN	313	5	61	1	120	220	320	NaN	520	0.159546322189271	1	0	NaN	4823620.9417526	NaN	4823621.9251411	4823622.44168738
87	18	0	0	90	36.1581920903955	36.241610738255	22	0.733382496237755	2	12	2	NaN	2	4	0.0399923138539248	0	1	NaN	314	5	62	1	120	220	320	NaN	520	0.140817869454622	2	1	NaN	4823623.4085753	NaN	4823624.3920533	4823624.90859203
87	18	0	0	90	36.1581920903955	36.241610738255	17	0.56670465618372	2	3	4	NaN	1	3	0.0399923138539248	0	1	NaN	315	5	63	1	120	220	320	NaN	520	0.506198070012033	2	0	NaN	4823625.8588877	NaN	4823626.8422976	4823627.35883053
87	18	0	0	90	36.1581920903955	36.241610738255	14	0.466697952151299	2	4	1	NaN	1	4	0.0399923138539248	0	1	NaN	316	6	1	1	120	220	320	NaN	520	0.0104206698015332	2	0	NaN	4823636.6266172	NaN	4823637.6100098	4823638.12655283
87	18	0	0	90	36.1581920903955	36.241610738255	19	0.633375792205334	2	8	5	NaN	2	4	0.0399923138539248	0	1	NaN	317	6	2	1	120	220	320	NaN	520	0.0104385642334819	2	1	NaN	4823638.9433739	NaN	4823639.9269087	4823640.44345194
87	18	0	0	90	36.1581920903955	36.241610738255	19	0.633375792205334	2	4	3	NaN	1	5	0.0399923138539248	0	1	NaN	318	6	3	1	120	220	320	NaN	520	0.62471666932106	2	0	NaN	4823641.2602752	NaN	4823642.2437971	4823642.76034243
87	18	0	0	90	36.1581920903955	36.241610738255	24	0.800053632259369	2	8	1	NaN	2	3	0.0399923138539248	0	1	NaN	319	6	4	1	120	220	320	NaN	520	0.010410369373858	2	1	NaN	4823644.1940316	NaN	4823645.17742	4823645.69396933
87	18	0	0	90	36.1581920903955	36.241610738255	12	0.400026816129684	2	2	2	NaN	1	4	0.0399923138539248	0	1	NaN	320	6	5	1	120	220	320	NaN	520	0.0104108694940805	1	1	NaN	4823646.5109113	NaN	4823647.4942982	4823648.01085993
87	18	0	0	90	36.1581920903955	36.241610738255	13	0.433362384140491	2	10	3	NaN	2	5	0.0399923138539248	0	1	NaN	321	6	6	1	120	220	320	NaN	520	0.0104252165183425	1	0	NaN	4823648.827808	NaN	4823649.8112225	4823650.32775108
87	18	0	0	90	36.1581920903955	36.241610738255	18	0.600040224194527	2	6	1	NaN	1	3	0.0399923138539248	0	1	NaN	322	6	7	1	120	220	320	NaN	520	1.73273056931794	1	1	NaN	4823651.1447002	NaN	4823652.128103	4823652.64465473
87	18	0	0	90	36.1581920903955	36.241610738255	22	0.733382496237755	2	6	3	NaN	1	4	0.0399923138539248	0	1	NaN	323	6	8	1	120	220	320	NaN	520	2.06676436960697	1	1	NaN	4823655.1783281	NaN	4823656.1618868	4823656.67838263
87	18	0	0	90	36.1581920903955	36.241610738255	16	0.533369088172913	2	8	3	NaN	2	4	0.0399923138539248	0	1	NaN	324	6	9	1	120	220	320	NaN	520	0.0104230688884854	2	1	NaN	4823659.562193	NaN	4823660.5455967	4823661.06214963
87	18	0	0	90	36.1581920903955	36.241610738255	13	0.433362384140491	2	11	3	NaN	2	3	0.0399923138539248	0	1	NaN	325	6	10	1	120	220	320	NaN	520	0.190071269869804	2	1	NaN	4823661.8789696	NaN	4823662.8624864	4823663.37903423
87	18	0	0	90	36.1581920903955	36.241610738255	13	0.433362384140491	2	4	3	NaN	1	4	0.0399923138539248	0	1	NaN	326	6	11	1	120	220	320	NaN	520	0.337977016344666	1	1	NaN	4823664.3793319	NaN	4823665.3627394	4823665.87928358
87	18	0	0	90	36.1581920903955	36.241610738255	20	0.666711360216141	2	12	4	NaN	2	3	0.0399923138539248	0	1	NaN	327	6	12	1	120	220	320	NaN	520	0.183862268924713	2	1	NaN	4823667.0296179	NaN	4823668.0130058	4823668.52956903
87	18	0	0	90	36.1581920903955	36.241610738255	8	0.266684544086456	2	7	4	NaN	2	4	0.0399923138539248	0	1	NaN	328	6	13	1	120	220	320	NaN	520	0.123315716162324	1	0	NaN	4823669.5298365	NaN	4823670.5132439	4823671.02981038
87	18	0	0	90	36.1581920903955	36.241610738255	16	0.533369088172913	2	9	3	NaN	2	3	0.0399923138539248	0	1	NaN	329	6	14	1	120	220	320	NaN	520	0.0104595106095076	1	0	NaN	4823671.9632972	NaN	4823672.946828	4823673.46335869
87	18	0	0	90	36.1581920903955	36.241610738255	22	0.733382496237755	2	11	5	NaN	2	5	0.0399923138539248	0	1	NaN	330	6	15	1	120	220	320	NaN	520	0.020095469430089	2	1	NaN	4823674.2969792	NaN	4823675.2803755	4823675.79692703
87	18	0	0	90	36.1581920903955	36.241610738255	21	0.700046928226948	2	5	2	NaN	1	5	0.0399923138539248	0	1	NaN	331	6	16	1	120	220	320	NaN	520	0.0104125691577792	1	1	NaN	4823676.6305439	NaN	4823677.61394	4823678.13048833
87	18	0	0	90	36.1581920903955	36.241610738255	10	0.33335568010807	2	4	3	NaN	1	4	0.0399923138539248	0	1	NaN	332	6	17	1	120	220	320	NaN	520	0.0104287695139647	1	1	NaN	4823678.9474477	NaN	4823679.9308373	4823680.44738053
87	18	0	0	90	36.1581920903955	36.241610738255	9	0.300020112097263	2	3	2	NaN	1	3	0.0399923138539248	0	1	NaN	333	6	18	1	120	220	320	NaN	520	0.700876969844103	2	0	NaN	4823681.264377	NaN	4823682.2477269	4823682.76427713
87	18	0	0	90	36.1581920903955	36.241610738255	13	0.433362384140491	2	3	1	NaN	1	5	0.0399923138539248	0	1	NaN	334	6	19	1	120	220	320	NaN	520	0.68398176971823	2	0	NaN	4823684.2812338	NaN	4823685.2646934	4823685.78123993
87	18	0	0	90	36.1581920903955	36.241610738255	22	0.733382496237755	2	1	6	NaN	1	5	0.0399923138539248	0	1	NaN	335	6	20	1	120	220	320	NaN	520	1.11532336939126	1	1	NaN	4823687.2814674	NaN	4823688.2649921	4823688.78153523
87	18	0	0	90	36.1581920903955	36.241610738255	8	0.266684544086456	2	2	5	NaN	1	4	0.0399923138539248	0	1	NaN	336	6	21	1	120	220	320	NaN	520	0.0898152701556683	2	0	NaN	4823690.7152996	NaN	4823691.6986451	4823692.21521423
87	18	0	0	90	36.1581920903955	36.241610738255	23	0.766718064248562	2	9	1	NaN	2	4	0.0399923138539248	0	1	NaN	337	6	22	1	120	220	320	NaN	520	0.0104196164757013	2	1	NaN	4823693.1153452	NaN	4823694.0988968	4823694.61545488
87	18	0	0	90	36.1581920903955	36.241610738255	6	0.200013408064842	2	8	6	NaN	2	5	0.0399923138539248	0	1	NaN	338	6	23	1	120	220	320	NaN	520	1.28411891683936	1	0	NaN	4823695.4489499	NaN	4823696.4324737	4823696.94900228
87	18	0	0	90	36.1581920903955	36.241610738255	6	0.200013408064842	2	10	6	NaN	2	4	0.0399923138539248	0	1	NaN	339	6	24	1	120	220	320	NaN	520	0.452227616682649	1	0	NaN	4823699.0494144	NaN	4823700.0328146	4823700.54935818
87	18	0	0	90	36.1581920903955	36.241610738255	23	0.766718064248562	2	6	1	NaN	1	4	0.0399923138539248	0	1	NaN	340	6	25	1	120	220	320	NaN	520	0.0104184169322252	2	0	NaN	4823701.8164482	NaN	4823702.799753	4823703.31629518
87	18	0	0	90	36.1581920903955	36.241610738255	8	0.266684544086456	2	10	5	NaN	2	4	0.0399923138539248	0	1	NaN	341	6	26	1	120	220	320	NaN	520	0.431618669070303	1	0	NaN	4823704.149916	NaN	4823705.1333157	4823705.64986943
87	18	0	0	90	36.1581920903955	36.241610738255	11	0.366691248118877	2	10	3	NaN	2	3	0.0399923138539248	0	1	NaN	342	6	27	1	120	220	320	NaN	520	0.497046769596636	2	1	NaN	4823706.9001773	NaN	4823707.8835856	4823708.40013723
87	18	0	0	90	36.1581920903955	36.241610738255	9	0.300020112097263	2	12	6	NaN	2	3	0.0399923138539248	0	1	NaN	343	6	28	1	120	220	320	NaN	520	1.02444796916097	2	1	NaN	4823709.7171317	NaN	4823710.7005417	4823711.21707633
87	18	0	0	90	36.1581920903955	36.241610738255	14	0.466697952151299	2	2	2	NaN	1	5	0.0399923138539248	0	1	NaN	344	6	29	1	120	220	320	NaN	520	0.0103999208658934	1	1	NaN	4823713.0508713	NaN	4823714.034187	4823714.55074178
87	18	0	0	90	36.1581920903955	36.241610738255	17	0.56670465618372	2	6	5	NaN	1	4	0.0399923138539248	0	1	NaN	345	6	30	1	120	220	320	NaN	520	1.35744106955826	2	0	NaN	4823715.3676868	NaN	4823716.3510866	4823716.86763603
87	18	0	0	90	36.1581920903955	36.241610738255	7	0.233348976075649	2	4	2	NaN	1	5	0.0399923138539248	0	1	NaN	346	6	31	1	120	220	320	NaN	520	0.034413069486618	1	1	NaN	4823719.0346197	NaN	4823720.018127	4823720.53465503
87	18	0	0	90	36.1581920903955	36.241610738255	9	0.300020112097263	2	10	4	NaN	2	3	0.0399923138539248	0	1	NaN	347	6	32	1	120	220	320	NaN	520	0.628547669388354	2	1	NaN	4823721.3849497	NaN	4823722.3683661	4823722.88488863
87	18	0	0	90	36.1581920903955	36.241610738255	6	0.200013408064842	2	3	4	NaN	1	5	0.0399923138539248	0	1	NaN	348	6	33	1	120	220	320	NaN	520	0.230664069764316	1	1	NaN	4823724.3185741	NaN	4823725.3019565	4823725.81853703
87	18	0	0	90	36.1581920903955	36.241610738255	12	0.400026816129684	2	8	4	NaN	2	4	0.0399923138539248	0	1	NaN	349	6	34	1	120	220	320	NaN	520	0.456456369720399	2	1	NaN	4823726.8688267	NaN	4823727.852214	4823728.36876653
87	18	0	0	90	36.1581920903955	36.241610738255	13	0.433362384140491	2	10	6	NaN	2	3	0.0399923138539248	0	1	NaN	350	6	35	1	120	220	320	NaN	520	0.0573778701946139	2	1	NaN	4823729.6357526	NaN	4823730.6191576	4823731.13570113
87	18	0	0	90	36.1581920903955	36.241610738255	11	0.366691248118877	2	6	1	NaN	1	3	0.0399923138539248	0	1	NaN	351	6	36	1	120	220	320	NaN	520	0.730848794803023	1	1	NaN	4823732.0026586	NaN	4823732.986053	4823733.50261001
87	18	0	0	90	36.1581920903955	36.241610738255	8	0.266684544086456	2	3	1	NaN	1	4	0.0399923138539248	0	1	NaN	352	6	37	1	120	220	320	NaN	520	0.880719716660678	2	0	NaN	4823735.0529652	NaN	4823736.0363754	4823736.55289498
87	18	0	0	90	36.1581920903955	36.241610738255	19	0.633375792205334	2	5	2	NaN	1	3	0.0399923138539248	0	1	NaN	353	6	38	1	120	220	320	NaN	520	0.671975669451058	2	0	NaN	4823738.2531309	NaN	4823739.2366774	4823739.75321273
87	18	0	0	90	36.1581920903955	36.241610738255	17	0.56670465618372	2	5	2	NaN	1	3	0.0399923138539248	0	1	NaN	354	6	39	1	120	220	320	NaN	520	0.0103900209069252	1	1	NaN	4823741.2368909	NaN	4823742.2203227	4823742.73684698
87	18	0	0	90	36.1581920903955	36.241610738255	25	0.833389200270176	2	2	4	NaN	1	4	0.0399923138539248	0	1	NaN	355	6	40	1	120	220	320	NaN	520	0.0102818896993995	2	0	NaN	4823743.5536672	NaN	4823744.5371879	4823745.05374111
87	18	0	0	90	36.1581920903955	36.241610738255	6	0.200013408064842	2	3	3	NaN	1	4	0.0399923138539248	0	1	NaN	356	6	41	1	120	220	320	NaN	520	0.165939421392977	1	1	NaN	4823745.8873559	NaN	4823746.8707479	4823747.38730078
87	18	0	0	90	36.1581920903955	36.241610738255	22	0.733382496237755	2	11	3	NaN	2	4	0.0399923138539248	0	1	NaN	357	6	42	1	120	220	320	NaN	520	0.146240969188511	2	1	NaN	4823748.3709272	NaN	4823749.3543402	4823749.87087873
87	18	0	0	90	36.1581920903955	36.241610738255	15	0.500033520162106	2	8	5	NaN	2	3	0.0399923138539248	0	1	NaN	358	6	43	1	120	220	320	NaN	520	2.11977611668408	2	1	NaN	4823750.8378394	NaN	4823751.8212344	4823752.33777798
87	18	0	0	90	36.1581920903955	36.241610738255	24	0.800053632259369	2	8	1	NaN	2	3	0.0399923138539248	0	1	NaN	359	6	44	1	120	220	320	NaN	520	1.52563026919961	1	0	NaN	4823755.2716083	NaN	4823756.2550074	4823756.77155283
87	18	0	0	90	36.1581920903955	36.241610738255	25	0.833389200270176	2	10	4	NaN	2	5	0.0399923138539248	0	1	NaN	360	6	45	1	120	220	320	NaN	520	0.764304569922388	2	1	NaN	4823759.1053286	NaN	4823760.0887252	4823760.60526483
87	18	0	0	90	36.1581920903955	36.241610738255	22	0.733382496237755	2	5	6	NaN	1	3	0.0399923138539248	0	1	NaN	361	6	46	1	120	220	320	NaN	520	0.1682522688061	1	1	NaN	4823762.1889529	NaN	4823763.1723522	4823763.68890173
87	18	0	0	90	36.1581920903955	36.241610738255	8	0.266684544086456	2	1	5	NaN	1	3	0.0399923138539248	0	1	NaN	362	6	47	1	120	220	320	NaN	520	0.55674872174859	2	0	NaN	4823764.6724599	NaN	4823765.6559667	4823766.17248688
87	18	0	0	90	36.1581920903955	36.241610738255	14	0.466697952151299	2	7	1	NaN	2	4	0.0399923138539248	0	1	NaN	363	6	48	1	120	220	320	NaN	520	0.113681969232857	1	0	NaN	4823767.5393693	NaN	4823768.5228945	4823769.03942903
87	18	0	0	90	36.1581920903955	36.241610738255	14	0.466697952151299	2	6	6	NaN	1	3	0.0399923138539248	0	1	NaN	364	6	49	1	120	220	320	NaN	520	0.0104112690314651	1	1	NaN	4823769.973048	NaN	4823770.9564565	4823771.47300113
87	18	0	0	90	36.1581920903955	36.241610738255	0	0	1	8	6	NaN	2	4	0.0399923138539248	0	1	NaN	365	6	50	1	110	210	310	NaN	510	0.0673654703423381	1	0	NaN	4823772.2899063	NaN	4823773.2733227	4823773.78989253
87	18	0	0	90	36.1581920903955	36.241610738255	6	0.200013408064842	2	12	2	NaN	2	4	0.0399923138539248	0	1	NaN	366	6	51	1	120	220	320	NaN	520	0.0104232700541615	2	1	NaN	4823774.673523	NaN	4823775.656916	4823776.17346023
87	18	0	0	90	36.1581920903955	36.241610738255	21	0.700046928226948	2	4	1	NaN	1	3	0.0399923138539248	0	1	NaN	367	6	52	1	120	220	320	NaN	520	0.270935568958521	2	0	NaN	4823776.9903411	NaN	4823777.9737933	4823778.49035393
87	18	0	0	90	36.1581920903955	36.241610738255	0	0	1	6	6	NaN	1	3	0.0399923138539248	0	1	NaN	368	6	53	1	110	210	310	NaN	510	0.0104073695838451	2	0	NaN	4823779.573992	NaN	4823780.5573938	4823781.07395613
87	18	0	0	90	36.1581920903955	36.241610738255	7	0.233348976075649	2	7	2	NaN	2	3	0.0399923138539248	0	1	NaN	369	6	54	1	120	220	320	NaN	520	0.0103985220193863	2	1	NaN	4823781.907567	NaN	4823782.8909828	4823783.40751288
87	18	0	0	90	36.1581920903955	36.241610738255	9	0.300020112097263	2	5	1	NaN	1	4	0.0399923138539248	0	1	NaN	370	6	55	1	120	220	320	NaN	520	0.0104159703478217	1	1	NaN	4823784.2244511	NaN	4823785.2078628	4823785.72440013
87	18	0	0	90	36.1581920903955	36.241610738255	24	0.800053632259369	2	4	3	NaN	1	5	0.0399923138539248	0	1	NaN	371	6	56	1	120	220	320	NaN	520	0.208282769657671	1	1	NaN	4823786.5414086	NaN	4823787.524747	4823788.04129913
87	18	0	0	90	36.1581920903955	36.241610738255	24	0.800053632259369	2	1	3	NaN	1	5	0.0399923138539248	0	1	NaN	372	6	57	1	120	220	320	NaN	520	0.435028916224837	2	0	NaN	4823789.0582549	NaN	4823790.0416631	4823790.55820498
87	18	0	0	90	36.1581920903955	36.241610738255	20	0.666711360216141	2	2	4	NaN	1	5	0.0399923138539248	0	1	NaN	373	6	58	1	120	220	320	NaN	520	0.0103024374693632	1	1	NaN	4823791.8085383	NaN	4823792.7919217	4823793.30848476
87	18	0	0	90	36.1581920903955	36.241610738255	11	0.366691248118877	2	10	6	NaN	2	4	0.0399923138539248	0	1	NaN	374	6	59	1	120	220	320	NaN	520	0.0104097696021199	2	1	NaN	4823794.1421031	NaN	4823795.1255013	4823795.64203893
87	18	0	0	90	36.1581920903955	36.241610738255	15	0.500033520162106	2	6	4	NaN	1	5	0.0399923138539248	0	1	NaN	375	6	60	1	120	220	320	NaN	520	0.0104045690968633	1	1	NaN	4823796.5256671	NaN	4823797.5090703	4823798.02560553
87	18	0	0	90	36.1581920903955	36.241610738255	7	0.233348976075649	2	11	2	NaN	2	5	0.0399923138539248	0	1	NaN	376	6	61	1	120	220	320	NaN	520	0.251299458555877	2	1	NaN	4823798.8593226	NaN	4823799.8426232	4823800.35917404
87	18	0	0	90	36.1581920903955	36.241610738255	12	0.400026816129684	2	4	4	NaN	1	3	0.0399923138539248	0	1	NaN	377	6	62	1	120	220	320	NaN	520	0.217329169623554	1	1	NaN	4823801.4761292	NaN	4823802.4595487	4823802.97609893
87	18	0	0	90	36.1581920903955	36.241610738255	12	0.400026816129684	2	5	5	NaN	1	5	0.0399923138539248	0	1	NaN	378	6	63	1	120	220	320	NaN	520	0.563486670143902	2	0	NaN	4823804.0097504	NaN	4823804.993134	4823805.50967913
87	18	0	0	90	36.1581920903955	36.241610738255	25	0.833389200270176	2	1	1	NaN	1	3	0.0399923138539248	0	1	NaN	379	7	1	1	120	220	320	NaN	520	0.269586469046772	2	0	NaN	4823816.9276477	NaN	4823817.9110687	4823818.42761293
87	18	0	0	90	36.1581920903955	36.241610738255	0	0	1	5	6	NaN	1	4	0.0399923138539248	0	1	NaN	380	7	2	1	110	210	310	NaN	510	0.0461654169484973	1	1	NaN	4823819.5112471	NaN	4823820.4946651	4823821.01119658
87	18	0	0	90	36.1581920903955	36.241610738255	19	0.633375792205334	2	11	2	NaN	2	4	0.0399923138539248	0	1	NaN	381	7	3	1	120	220	320	NaN	520	0.327541870065033	2	1	NaN	4823821.8781548	NaN	4823822.8615553	4823823.37810263
87	18	0	0	90	36.1581920903955	36.241610738255	15	0.500033520162106	2	1	1	NaN	1	5	0.0399923138539248	0	1	NaN	382	7	4	1	120	220	320	NaN	520	0.0104063693434	1	1	NaN	4823824.5282802	NaN	4823825.511817	4823826.02836493
87	18	0	0	90	36.1581920903955	36.241610738255	8	0.266684544086456	2	9	2	NaN	2	3	0.0399923138539248	0	1	NaN	383	7	5	1	120	220	320	NaN	520	1.3923747157678	2	1	NaN	4823826.8452076	NaN	4823827.8287077	4823828.34525438
87	18	0	0	90	36.1581920903955	36.241610738255	10	0.33335568010807	2	2	6	NaN	1	4	0.0399923138539248	0	1	NaN	384	7	6	1	120	220	320	NaN	520	0.49182846955955	1	1	NaN	4823830.5455451	NaN	4823831.5290962	4823832.04561923
87	18	0	0	90	36.1581920903955	36.241610738255	22	0.733382496237755	2	12	1	NaN	2	3	0.0399923138539248	0	1	NaN	385	7	7	1	120	220	320	NaN	520	0.435417921282351	2	1	NaN	4823833.345947	NaN	4823834.3293494	4823834.84590478
87	18	0	0	90	36.1581920903955	36.241610738255	13	0.433362384140491	2	7	1	NaN	2	3	0.0399923138539248	0	1	NaN	386	7	8	1	120	220	320	NaN	520	1.9095453703776	1	0	NaN	4823836.0962108	NaN	4823837.0795984	4823837.59616483
87	18	0	0	90	36.1581920903955	36.241610738255	18	0.600040224194527	2	9	3	NaN	2	3	0.0399923138539248	0	1	NaN	387	7	9	1	120	220	320	NaN	520	0.010405570268631	2	1	NaN	4823840.3133321	NaN	4823841.2967383	4823841.81325303
87	18	0	0	90	36.1581920903955	36.241610738255	8	0.266684544086456	2	6	2	NaN	1	4	0.0399923138539248	0	1	NaN	388	7	10	1	120	220	320	NaN	520	0.839644369669259	1	1	NaN	4823842.6301998	NaN	4823843.613592	4823844.13013953
87	18	0	0	90	36.1581920903955	36.241610738255	19	0.633375792205334	2	6	3	NaN	1	5	0.0399923138539248	0	1	NaN	389	7	11	1	120	220	320	NaN	520	0.649255469441414	1	1	NaN	4823845.780505	NaN	4823846.7639057	4823847.28045113
87	18	0	0	90	36.1581920903955	36.241610738255	9	0.300020112097263	2	8	4	NaN	2	5	0.0399923138539248	0	1	NaN	390	7	12	1	120	220	320	NaN	520	0.465339469723403	1	0	NaN	4823848.9641422	NaN	4823849.9475524	4823850.46409563
87	18	0	0	90	36.1581920903955	36.241610738255	21	0.700046928226948	2	5	5	NaN	1	5	0.0399923138539248	0	1	NaN	391	7	13	1	120	220	320	NaN	520	0.129649316892028	2	0	NaN	4823851.7477754	NaN	4823852.7311589	4823853.24770138
87	18	0	0	90	36.1581920903955	36.241610738255	8	0.266684544086456	2	12	4	NaN	2	3	0.0399923138539248	0	1	NaN	392	7	14	1	120	220	320	NaN	520	0.0104102697223425	2	1	NaN	4823854.1979913	NaN	4823855.1814183	4823855.69794873
87	18	0	0	90	36.1581920903955	36.241610738255	10	0.33335568010807	2	11	4	NaN	2	3	0.0399923138539248	0	1	NaN	393	7	15	1	120	220	320	NaN	520	0.0104237170889974	1	0	NaN	4823856.5149009	NaN	4823857.4982796	4823858.01483578
87	18	0	0	90	36.1581920903955	36.241610738255	16	0.533369088172913	2	11	3	NaN	2	3	0.0399923138539248	0	1	NaN	394	7	16	1	120	220	320	NaN	520	0.0375127699226141	2	1	NaN	4823858.8317882	NaN	4823859.815203	4823860.33173253
87	18	0	0	90	36.1581920903955	36.241610738255	10	0.33335568010807	2	8	3	NaN	2	5	0.0399923138539248	0	1	NaN	395	7	17	1	120	220	320	NaN	520	0.703399069607258	1	0	NaN	4823861.182052	NaN	4823862.1654187	4823862.68196563
87	18	0	0	90	36.1581920903955	36.241610738255	11	0.366691248118877	2	12	5	NaN	2	4	0.0399923138539248	0	1	NaN	396	7	18	1	120	220	320	NaN	520	0.0543239694088697	2	1	NaN	4823864.1989885	NaN	4823865.1823795	4823865.69892713
87	18	0	0	90	36.1581920903955	36.241610738255	18	0.600040224194527	2	11	5	NaN	2	3	0.0399923138539248	0	1	NaN	397	7	19	1	120	220	320	NaN	520	0.143662626855075	1	0	NaN	4823866.5657583	NaN	4823867.5493098	4823868.06583727
87	18	0	0	90	36.1581920903955	36.241610738255	24	0.800053632259369	2	2	3	NaN	1	5	0.0399923138539248	0	1	NaN	398	7	20	1	120	220	320	NaN	520	0.0104077700525522	2	0	NaN	4823869.032782	NaN	4823870.0161928	4823870.53273453
87	18	0	0	90	36.1581920903955	36.241610738255	11	0.366691248118877	2	6	4	NaN	1	3	0.0399923138539248	0	1	NaN	399	7	21	1	120	220	320	NaN	520	0.0104235168546438	1	1	NaN	4823871.3664216	NaN	4823872.349801	4823872.86630198
87	18	0	0	90	36.1581920903955	36.241610738255	20	0.666711360216141	2	10	3	NaN	2	4	0.0399923138539248	0	1	NaN	400	7	22	1	120	220	320	NaN	520	0.0105056539177895	2	1	NaN	4823873.6831311	NaN	4823874.6666551	4823875.18318495
87	18	0	0	90	36.1581920903955	36.241610738255	23	0.766718064248562	2	2	6	NaN	1	5	0.0399923138539248	0	1	NaN	401	7	23	1	120	220	320	NaN	520	0.0104182157665491	2	0	NaN	4823876.0001204	NaN	4823876.9835141	4823877.50008398
87	18	0	0	90	36.1581920903955	36.241610738255	6	0.200013408064842	2	11	4	NaN	2	4	0.0399923138539248	0	1	NaN	402	7	24	1	120	220	320	NaN	520	0.224389116279781	2	1	NaN	4823878.317033	NaN	4823879.3004343	4823879.81697758
87	18	0	0	90	36.1581920903955	36.241610738255	22	0.733382496237755	2	3	4	NaN	1	3	0.0399923138539248	0	1	NaN	403	7	25	1	120	220	320	NaN	520	1.52315747831017	2	0	NaN	4823880.8505079	NaN	4823881.8340181	4823882.35057052
87	18	0	0	90	36.1581920903955	36.241610738255	14	0.466697952151299	2	11	5	NaN	2	5	0.0399923138539248	0	1	NaN	404	7	26	1	120	220	320	NaN	520	0.377289569936693	1	0	NaN	4823884.6841804	NaN	4823885.6677624	4823886.18427443
87	18	0	0	90	36.1581920903955	36.241610738255	6	0.200013408064842	2	1	2	NaN	1	5	0.0399923138539248	0	1	NaN	405	7	27	1	120	220	320	NaN	520	0.284822016023099	1	1	NaN	4823887.3845955	NaN	4823888.3679891	4823888.88453588
87	18	0	0	90	36.1581920903955	36.241610738255	6	0.200013408064842	2	6	5	NaN	1	4	0.0399923138539248	0	1	NaN	406	7	28	1	120	220	320	NaN	520	0.20538866892457	1	1	NaN	4823889.9681049	NaN	4823890.9516563	4823891.46812763
87	18	0	0	90	36.1581920903955	36.241610738255	14	0.466697952151299	2	12	2	NaN	2	3	0.0399923138539248	0	1	NaN	407	7	29	1	120	220	320	NaN	520	0.0406140694394708	2	1	NaN	4823892.4850689	NaN	4823893.468496	4823893.98504463
87	18	0	0	90	36.1581920903955	36.241610738255	14	0.466697952151299	2	9	4	NaN	2	4	0.0399923138539248	0	1	NaN	408	7	30	1	120	220	320	NaN	520	0.426456768997014	1	0	NaN	4823894.8353328	NaN	4823895.8187292	4823896.33527123
87	18	0	0	90	36.1581920903955	36.241610738255	19	0.633375792205334	2	9	3	NaN	2	5	0.0399923138539248	0	1	NaN	409	7	31	1	120	220	320	NaN	520	0.444979069754481	1	0	NaN	4823897.5687809	NaN	4823898.5523525	4823899.06887853
87	18	0	0	90	36.1581920903955	36.241610738255	10	0.33335568010807	2	9	2	NaN	2	4	0.0399923138539248	0	1	NaN	410	7	32	1	120	220	320	NaN	520	8.02977086976171	1	0	NaN	4823900.3358668	NaN	4823901.3192763	4823901.83581143
87	18	0	0	90	36.1581920903955	36.241610738255	0	0	1	2	1	NaN	1	3	0.0399923138539248	0	1	NaN	411	7	33	1	110	210	310	NaN	510	1.08723746985197	1	1	NaN	4823910.8702691	NaN	4823911.8536437	4823912.37017893
87	18	0	0	90	36.1581920903955	36.241610738255	19	0.633375792205334	2	8	4	NaN	2	4	0.0399923138539248	0	1	NaN	412	7	34	1	120	220	320	NaN	520	0.582882969640195	2	1	NaN	4823914.2705879	NaN	4823915.2539535	4823915.77052013
87	18	0	0	90	36.1581920903955	36.241610738255	19	0.633375792205334	2	5	6	NaN	1	4	0.0399923138539248	0	1	NaN	413	7	35	1	120	220	320	NaN	520	1.32265776954591	1	1	NaN	4823917.1708479	NaN	4823918.1542525	4823918.67079823
87	18	0	0	90	36.1581920903955	36.241610738255	7	0.233348976075649	2	4	5	NaN	1	5	0.0399923138539248	0	1	NaN	414	7	36	1	120	220	320	NaN	520	0.0103931222110987	1	1	NaN	4823920.8045579	NaN	4823921.787948	4823922.30449978
87	18	0	0	90	36.1581920903955	36.241610738255	11	0.366691248118877	2	8	2	NaN	2	5	0.0399923138539248	0	1	NaN	415	7	37	1	120	220	320	NaN	520	0.0104105696082115	2	1	NaN	4823923.1381558	NaN	4823924.1215128	4823924.63806223
87	18	0	0	90	36.1581920903955	36.241610738255	23	0.766718064248562	2	11	4	NaN	2	3	0.0399923138539248	0	1	NaN	416	7	38	1	120	220	320	NaN	520	0.0305482214316726	1	0	NaN	4823925.4549963	NaN	4823926.4383992	4823926.95495508
87	18	0	0	90	36.1581920903955	36.241610738255	24	0.800053632259369	2	6	6	NaN	1	3	0.0399923138539248	0	1	NaN	417	7	39	1	120	220	320	NaN	520	0.0104172695428133	1	1	NaN	4823927.7885813	NaN	4823928.7719948	4823929.28851523
87	18	0	0	90	36.1581920903955	36.241610738255	15	0.500033520162106	2	9	3	NaN	2	3	0.0399923138539248	0	1	NaN	418	7	40	1	120	220	320	NaN	520	1.92438856977969	2	1	NaN	4823930.1054562	NaN	4823931.0888613	4823931.60540463
87	18	0	0	90	36.1581920903955	36.241610738255	21	0.700046928226948	2	1	6	NaN	1	3	0.0399923138539248	0	1	NaN	419	7	41	1	120	220	320	NaN	520	0.1142089208588	2	0	NaN	4823934.3392019	NaN	4823935.3225843	4823935.83916098
87	18	0	0	90	36.1581920903955	36.241610738255	13	0.433362384140491	2	9	2	NaN	2	4	0.0399923138539248	0	1	NaN	420	7	42	1	120	220	320	NaN	520	0.817466869018972	1	0	NaN	4823936.7559899	NaN	4823937.7395146	4823938.25606473
87	18	0	0	90	36.1581920903955	36.241610738255	22	0.733382496237755	2	9	2	NaN	2	5	0.0399923138539248	0	1	NaN	421	7	43	1	120	220	320	NaN	520	3.13990601617843	2	1	NaN	4823939.8897583	NaN	4823940.8731488	4823941.38970258
87	18	0	0	90	36.1581920903955	36.241610738255	13	0.433362384140491	2	8	4	NaN	2	3	0.0399923138539248	0	1	NaN	422	7	44	1	120	220	320	NaN	520	0.225068669766188	2	1	NaN	4823945.3402872	NaN	4823946.3236936	4823946.84023343
87	18	0	0	90	36.1581920903955	36.241610738255	22	0.733382496237755	2	8	4	NaN	2	4	0.0399923138539248	0	1	NaN	423	7	45	1	120	220	320	NaN	520	1.83968256879598	2	1	NaN	4823947.9737617	NaN	4823948.95729	4823949.47383493
87	18	0	0	90	36.1581920903955	36.241610738255	20	0.666711360216141	2	4	4	NaN	1	5	0.0399923138539248	0	1	NaN	424	7	46	1	120	220	320	NaN	520	1.58451956976205	1	1	NaN	4823952.1409535	NaN	4823953.1243639	4823953.64090623
87	18	0	0	90	36.1581920903955	36.241610738255	25	0.833389200270176	2	5	4	NaN	1	5	0.0399923138539248	0	1	NaN	425	7	47	1	120	220	320	NaN	520	0.972112216055393	2	0	NaN	4823956.0414356	NaN	4823957.0247417	4823957.54128738
87	18	0	0	90	36.1581920903955	36.241610738255	14	0.466697952151299	2	3	6	NaN	1	5	0.0399923138539248	0	1	NaN	426	7	48	1	120	220	320	NaN	520	0.0104301162064075	1	1	NaN	4823959.3250355	NaN	4823960.3083943	4823960.82494878
87	18	0	0	90	36.1581920903955	36.241610738255	22	0.733382496237755	2	4	5	NaN	1	3	0.0399923138539248	0	1	NaN	427	7	49	1	120	220	320	NaN	520	0.435732510872185	2	0	NaN	4823961.6417727	NaN	4823962.6253155	4823963.14183449
87	18	0	0	90	36.1581920903955	36.241610738255	7	0.233348976075649	2	5	3	NaN	1	3	0.0399923138539248	0	1	NaN	428	7	50	1	120	220	320	NaN	520	0.901170579716563	1	1	NaN	4823964.3921633	NaN	4823965.3755762	4823965.89211572
87	18	0	0	90	36.1581920903955	36.241610738255	24	0.800053632259369	2	11	2	NaN	2	3	0.0399923138539248	0	1	NaN	429	7	51	1	120	220	320	NaN	520	0.720130070112646	2	1	NaN	4823967.9258162	NaN	4823968.9092458	4823969.42579203
87	18	0	0	90	36.1581920903955	36.241610738255	22	0.733382496237755	2	8	1	NaN	2	3	0.0399923138539248	0	1	NaN	430	7	52	1	120	220	320	NaN	520	0.390051169320941	2	1	NaN	4823971.1594751	NaN	4823972.1428932	4823972.65944373
87	18	0	0	90	36.1581920903955	36.241610738255	18	0.600040224194527	2	1	5	NaN	1	3	0.0399923138539248	0	1	NaN	431	7	53	1	120	220	320	NaN	520	1.39421461708844	1	1	NaN	4823973.8597557	NaN	4823974.8431628	4823975.35971408
87	18	0	0	90	36.1581920903955	36.241610738255	16	0.533369088172913	2	6	5	NaN	1	4	0.0399923138539248	0	1	NaN	432	7	54	1	120	220	320	NaN	520	1.66955566965044	2	0	NaN	4823977.5599848	NaN	4823978.5435251	4823979.06006823
87	18	0	0	90	36.1581920903955	36.241610738255	24	0.800053632259369	2	4	6	NaN	1	3	0.0399923138539248	0	1	NaN	433	7	55	1	120	220	320	NaN	520	0.269836168736219	1	1	NaN	4823981.5437941	NaN	4823982.5272519	4823983.04379603
87	18	0	0	90	36.1581920903955	36.241610738255	10	0.33335568010807	2	5	5	NaN	1	5	0.0399923138539248	0	1	NaN	434	7	56	1	120	220	320	NaN	520	0.190036470070481	2	0	NaN	4823984.1274415	NaN	4823985.1108484	4823985.62738803
87	18	0	0	90	36.1581920903955	36.241610738255	15	0.500033520162106	2	3	2	NaN	1	5	0.0399923138539248	0	1	NaN	435	7	57	1	120	220	320	NaN	520	0.0104410648345947	2	0	NaN	4823986.6442071	NaN	4823987.6277587	4823988.14429064
87	18	0	0	90	36.1581920903955	36.241610738255	8	0.266684544086456	2	10	5	NaN	2	3	0.0399923138539248	0	1	NaN	436	7	58	1	120	220	320	NaN	520	0.0103999217972159	1	0	NaN	4823988.9612455	NaN	4823989.9446452	4823990.46119368
87	18	0	0	90	36.1581920903955	36.241610738255	12	0.400026816129684	2	7	2	NaN	2	5	0.0399923138539248	0	1	NaN	437	7	59	1	120	220	320	NaN	520	0.206729469820857	1	0	NaN	4823991.2948056	NaN	4823992.2782544	4823992.79475203
87	18	0	0	90	36.1581920903955	36.241610738255	8	0.266684544086456	2	7	2	NaN	2	5	0.0399923138539248	0	1	NaN	438	7	60	1	120	220	320	NaN	520	0.0104133700951934	2	1	NaN	4823993.8117257	NaN	4823994.7951102	4823995.31166503
87	18	0	0	90	36.1581920903955	36.241610738255	22	0.733382496237755	2	5	5	NaN	1	3	0.0399923138539248	0	1	NaN	439	7	61	1	120	220	320	NaN	520	0.0104006212204695	1	1	NaN	4823996.1286274	NaN	4823997.1120182	4823997.62857178
87	18	0	0	90	36.1581920903955	36.241610738255	9	0.300020112097263	2	2	1	NaN	1	5	0.0399923138539248	0	1	NaN	440	7	62	1	120	220	320	NaN	520	0.0104116695001721	2	0	NaN	4823998.4620699	NaN	4823999.4455803	4823999.96212433
87	18	0	0	90	36.1581920903955	36.241610738255	11	0.366691248118877	2	2	2	NaN	1	3	0.0399923138539248	0	1	NaN	441	7	63	1	120	220	320	NaN	520	0.0665973210707307	1	1	NaN	4824000.7790593	NaN	4824001.76247	4824002.27902508
87	18	0	0	90	36.1581920903955	36.241610738255	17	0.56670465618372	2	12	4	NaN	2	5	0.0399923138539248	0	1	NaN	442	8	1	1	120	220	320	NaN	520	0.357521369121969	2	1	NaN	4824015.2804014	NaN	4824016.2638716	4824016.78043973
87	18	0	0	90	36.1581920903955	36.241610738255	25	0.833389200270176	2	11	4	NaN	2	3	0.0399923138539248	0	1	NaN	443	8	2	1	120	220	320	NaN	520	0.0104124695062637	2	1	NaN	4824017.9474243	NaN	4824018.9308454	4824019.44737343
87	18	0	0	90	36.1581920903955	36.241610738255	10	0.33335568010807	2	1	3	NaN	1	4	0.0399923138539248	0	1	NaN	444	8	3	1	120	220	320	NaN	520	0.0103957215324044	1	1	NaN	4824020.2643237	NaN	4824021.2477227	4824021.76427108
87	18	0	0	90	36.1581920903955	36.241610738255	23	0.766718064248562	2	7	3	NaN	2	4	0.0399923138539248	0	1	NaN	445	8	4	1	120	220	320	NaN	520	0.336643969640136	2	1	NaN	4824022.5811006	NaN	4824023.5646203	4824024.08116133
87	18	0	0	90	36.1581920903955	36.241610738255	10	0.33335568010807	2	1	2	NaN	1	4	0.0399923138539248	0	1	NaN	446	8	5	1	120	220	320	NaN	520	0.0104201687499881	1	1	NaN	4824025.2314844	NaN	4824026.2148776	4824026.73142483
87	18	0	0	90	36.1581920903955	36.241610738255	6	0.200013408064842	2	5	6	NaN	1	5	0.0399923138539248	0	1	NaN	447	8	6	1	120	220	320	NaN	520	0.0104097696021199	1	1	NaN	4824027.5650711	NaN	4824028.5484197	4824029.06498473
87	18	0	0	90	36.1581920903955	36.241610738255	22	0.733382496237755	2	10	2	NaN	2	5	0.0399923138539248	0	1	NaN	448	8	7	1	120	220	320	NaN	520	0.172056969255209	1	0	NaN	4824029.8819457	NaN	4824030.865348	4824031.38188443
87	18	0	0	90	36.1581920903955	36.241610738255	24	0.800053632259369	2	5	6	NaN	1	4	0.0399923138539248	0	1	NaN	449	8	8	1	120	220	320	NaN	520	0.16028046887368	1	1	NaN	4824032.3653913	NaN	4824033.3488956	4824033.86545763
87	18	0	0	90	36.1581920903955	36.241610738255	7	0.233348976075649	2	12	5	NaN	2	4	0.0399923138539248	0	1	NaN	450	8	9	1	120	220	320	NaN	520	0.010396221652627	2	1	NaN	4824034.8324212	NaN	4824035.8157078	4824036.33236738
87	18	0	0	90	36.1581920903955	36.241610738255	15	0.500033520162106	2	2	2	NaN	1	4	0.0399923138539248	0	1	NaN	451	8	10	1	120	220	320	NaN	520	0.111838569864631	1	1	NaN	4824037.1659911	NaN	4824038.1492681	4824038.66593203
87	18	0	0	90	36.1581920903955	36.241610738255	10	0.33335568010807	2	3	1	NaN	1	3	0.0399923138539248	0	1	NaN	452	8	11	1	120	220	320	NaN	520	1.45410706941038	2	0	NaN	4824039.5995638	NaN	4824040.5829553	4824041.09949993
87	18	0	0	90	36.1581920903955	36.241610738255	11	0.366691248118877	2	9	5	NaN	2	3	0.0399923138539248	0	1	NaN	453	8	12	1	120	220	320	NaN	520	0.0102826897054911	1	0	NaN	4824043.3666183	NaN	4824044.3499897	4824044.86654911
87	18	0	0	90	36.1581920903955	36.241610738255	25	0.833389200270176	2	6	6	NaN	1	3	0.0399923138539248	0	1	NaN	454	8	13	1	120	220	320	NaN	520	0.0104107689112425	1	1	NaN	4824045.7001736	NaN	4824046.6835551	4824047.20010083
87	18	0	0	90	36.1581920903955	36.241610738255	0	0	1	7	2	NaN	2	5	0.0399923138539248	0	1	NaN	455	8	14	1	110	210	310	NaN	510	0.140345669351518	2	1	NaN	4824048.0337302	NaN	4824049.0171236	4824049.53366383
87	18	0	0	90	36.1581920903955	36.241610738255	12	0.400026816129684	2	10	2	NaN	2	5	0.0399923138539248	0	1	NaN	456	8	15	1	120	220	320	NaN	520	1.54568456951529	1	0	NaN	4824050.4839643	NaN	4824051.4673961	4824051.98390743
87	18	0	0	90	36.1581920903955	36.241610738255	0	0	1	12	1	NaN	2	3	0.0399923138539248	0	1	NaN	457	8	16	1	110	210	310	NaN	510	0.694896069355309	2	1	NaN	4824054.3510256	NaN	4824055.3343949	4824055.85095353
