subjno	age	gender	isPractice	viewdist	CmToPixX	CmToPixY	SOA_frm	SOA_time	targNum	targID	targExample	targRace	targGender	firstTargPos	contrast	familiarity	curr_staircase	iStair	TrialNum	BlockNum	blktrl	sessionNum	TC_FIXATION	TC_RSVP_START	TC_RSVP_END	TC_BLANK	TC_RESPONSE_ONSET	RT2afc	resp_2afc	acc	RSVPOnsetVBL	RSVPOnsetTime	RSVPOffsetVBL	RSVPOffsetTime	startrt_2afc
95	19	1	0	90	36.1581920903955	36.241610738255	8	0.266693664044142	2	2	2	NaN	1	4	0.0382915101775862	1	1	NaN	1	1	1	2	121	221	321	NaN	521	0.746711831539869	1	1	NaN	3379285.2942414	NaN	3379286.2775179	3379286.81063557
95	19	1	0	90	36.1581920903955	36.241610738255	16	0.533387328088283	2	10	4	NaN	2	4	0.0382915101775862	1	1	NaN	2	1	2	2	121	221	321	NaN	521	0.293839331716299	2	1	NaN	3379288.411211	NaN	3379289.394462	3379289.92761257
95	19	1	0	90	36.1581920903955	36.241610738255	25	0.833417700137943	2	12	6	NaN	2	3	0.0382915101775862	1	1	NaN	3	1	3	2	121	221	321	NaN	521	0.0104102799668908	2	1	NaN	3379291.0445483	NaN	3379292.0278785	3379292.56119222
95	19	1	0	90	36.1581920903955	36.241610738255	20	0.666734160110354	2	11	4	NaN	2	4	0.0382915101775862	1	1	NaN	4	1	4	2	121	221	321	NaN	521	0.342971836216748	1	0	NaN	3379293.3948256	NaN	3379294.3782067	3379294.89476766
95	19	1	0	90	36.1581920903955	36.241610738255	22	0.73340757612139	2	2	2	NaN	1	4	0.0382915101775862	1	1	NaN	5	1	5	2	121	221	321	NaN	521	0.0104288756847382	1	1	NaN	3379296.0616868	NaN	3379297.0451353	3379297.56168592
95	19	1	0	90	36.1581920903955	36.241610738255	25	0.833417700137943	2	4	6	NaN	1	4	0.0382915101775862	1	1	NaN	6	1	6	2	121	221	321	NaN	521	0.36629602778703	1	1	NaN	3379298.395405	NaN	3379299.3787303	3379299.89524677
95	19	1	0	90	36.1581920903955	36.241610738255	25	0.833417700137943	2	8	2	NaN	2	3	0.0382915101775862	1	1	NaN	7	1	7	2	121	221	321	NaN	521	0.178813975304365	2	1	NaN	3379301.078889	NaN	3379302.0622882	3379302.57883872
95	19	1	0	90	36.1581920903955	36.241610738255	11	0.366703788060695	2	12	1	NaN	2	3	0.0382915101775862	1	1	NaN	8	1	8	2	121	221	321	NaN	521	0.342236527707428	1	0	NaN	3379303.5791436	NaN	3379304.5625435	3379305.07908567
95	19	1	0	90	36.1581920903955	36.241610738255	18	0.600060744099319	2	2	4	NaN	1	4	0.0382915101775862	1	1	NaN	9	1	9	2	121	221	321	NaN	521	1.16327207582071	1	1	NaN	3379306.2460647	NaN	3379307.2294739	3379307.74601822
95	19	1	0	90	36.1581920903955	36.241610738255	13	0.43337720407173	2	10	4	NaN	2	3	0.0382915101775862	1	1	NaN	10	1	10	2	121	221	321	NaN	521	0.519593528006226	1	0	NaN	3379309.7297467	NaN	3379310.7131446	3379311.22969597
95	19	1	0	90	36.1581920903955	36.241610738255	22	0.73340757612139	2	9	6	NaN	2	4	0.0382915101775862	1	1	NaN	11	1	11	2	121	221	321	NaN	521	0.0104135754518211	1	0	NaN	3379312.5632253	NaN	3379313.5467603	3379314.06330262
95	19	1	0	90	36.1581920903955	36.241610738255	12	0.400040496066213	2	3	2	NaN	1	4	0.0382915101775862	1	1	NaN	12	1	12	2	121	221	321	NaN	521	0.136882927734405	1	1	NaN	3379314.8969147	NaN	3379315.8803065	3379316.39686727
95	19	1	0	90	36.1581920903955	36.241610738255	11	0.366703788060695	2	5	2	NaN	1	4	0.0382915101775862	1	1	NaN	13	1	13	2	121	221	321	NaN	521	0.213435375597328	2	0	NaN	3379317.3638203	NaN	3379318.3472203	3379318.86377962
95	19	1	0	90	36.1581920903955	36.241610738255	22	0.73340757612139	2	2	6	NaN	1	3	0.0382915101775862	1	1	NaN	14	1	14	2	121	221	321	NaN	521	0.0104003273881972	1	1	NaN	3379319.897433	NaN	3379320.8808031	3379321.39736007
95	19	1	0	90	36.1581920903955	36.241610738255	24	0.800080992132425	2	2	5	NaN	1	3	0.0382915101775862	1	1	NaN	15	1	15	2	121	221	321	NaN	521	0.530289375688881	1	1	NaN	3379322.230967	NaN	3379323.2144155	3379323.73092042
95	19	1	0	90	36.1581920903955	36.241610738255	7	0.233356956038624	2	1	4	NaN	1	5	0.0382915101775862	1	1	NaN	16	1	16	2	121	221	321	NaN	521	0.152622527908534	2	0	NaN	3379325.081264	NaN	3379326.0646474	3379326.58120027
95	19	1	0	90	36.1581920903955	36.241610738255	18	0.600060744099319	2	2	5	NaN	1	4	0.0382915101775862	1	1	NaN	17	1	17	2	121	221	321	NaN	521	0.348906575702131	1	1	NaN	3379327.5648198	NaN	3379328.5482205	3379329.06477182
95	19	1	0	90	36.1581920903955	36.241610738255	13	0.43337720407173	2	5	6	NaN	1	5	0.0382915101775862	1	1	NaN	18	1	18	2	121	221	321	NaN	521	0.337525323498994	2	0	NaN	3379330.2317544	NaN	3379331.2151407	3379331.73170038
95	19	1	0	90	36.1581920903955	36.241610738255	10	0.333367080055177	2	1	2	NaN	1	4	0.0382915101775862	1	1	NaN	19	1	19	2	121	221	321	NaN	521	0.182657323312014	1	1	NaN	3379332.8987714	NaN	3379333.8821204	3379334.39862748
95	19	1	0	90	36.1581920903955	36.241610738255	21	0.700070868115872	2	6	1	NaN	1	3	0.0382915101775862	1	1	NaN	20	1	20	2	121	221	321	NaN	521	1.62688962789252	1	1	NaN	3379335.3989263	NaN	3379336.3823284	3379336.89887477
95	19	1	0	90	36.1581920903955	36.241610738255	6	0.200020248033106	2	7	3	NaN	2	3	0.0382915101775862	1	1	NaN	21	1	21	2	121	221	321	NaN	521	0.330099028069526	1	0	NaN	3379339.7994661	NaN	3379340.782771	3379341.29931107
95	19	1	0	90	36.1581920903955	36.241610738255	25	0.833417700137943	2	8	5	NaN	2	4	0.0382915101775862	1	1	NaN	22	1	22	2	121	221	321	NaN	521	1.14401382766664	2	1	NaN	3379342.4496189	NaN	3379343.4330149	3379343.94956257
95	19	1	0	90	36.1581920903955	36.241610738255	16	0.533387328088283	2	5	1	NaN	1	3	0.0382915101775862	1	1	NaN	23	1	23	2	121	221	321	NaN	521	0.0103993276134133	2	0	NaN	3379345.9166164	NaN	3379346.9000305	3379347.41658077
95	19	1	0	90	36.1581920903955	36.241610738255	11	0.366703788060695	2	6	5	NaN	1	3	0.0382915101775862	1	1	NaN	24	1	24	2	121	221	321	NaN	521	0.375355175230652	2	0	NaN	3379348.2502086	NaN	3379349.2335815	3379349.75013552
95	19	1	0	90	36.1581920903955	36.241610738255	16	0.533387328088283	2	11	5	NaN	2	4	0.0382915101775862	1	1	NaN	25	1	25	2	121	221	321	NaN	521	0.0103927277959883	2	1	NaN	3379350.9503424	NaN	3379351.9338444	3379352.45040817
95	19	1	0	90	36.1581920903955	36.241610738255	10	0.333367080055177	2	7	2	NaN	2	5	0.0382915101775862	1	1	NaN	26	1	26	2	121	221	321	NaN	521	0.96522452775389	2	1	NaN	3379353.2840107	NaN	3379354.2674142	3379354.78396307
95	19	1	0	90	36.1581920903955	36.241610738255	22	0.73340757612139	2	8	4	NaN	2	4	0.0382915101775862	1	1	NaN	27	1	27	2	121	221	321	NaN	521	0.0977977234870195	1	0	NaN	3379356.5675496	NaN	3379357.5510712	3379358.06761228
95	19	1	0	90	36.1581920903955	36.241610738255	9	0.300030372049659	2	1	6	NaN	1	3	0.0382915101775862	1	1	NaN	28	1	28	2	121	221	321	NaN	521	0.120827327482402	2	0	NaN	3379358.9845682	NaN	3379359.9679571	3379360.48452197
95	19	1	0	90	36.1581920903955	36.241610738255	24	0.800080992132425	2	6	6	NaN	1	5	0.0382915101775862	1	1	NaN	29	1	29	2	121	221	321	NaN	521	0.967666875571012	1	1	NaN	3379361.4180252	NaN	3379362.4015466	3379362.91809892
95	19	1	0	90	36.1581920903955	36.241610738255	14	0.466713912077248	2	8	3	NaN	2	5	0.0382915101775862	1	1	NaN	30	1	30	2	121	221	321	NaN	521	0.0103945280425251	1	0	NaN	3379364.7018034	NaN	3379365.6852025	3379366.20174847
95	19	1	0	90	36.1581920903955	36.241610738255	0	0	1	8	5	NaN	2	5	0.0382915101775862	1	1	NaN	31	1	31	2	111	211	311	NaN	511	0.878496575169265	2	1	NaN	3379367.0353542	NaN	3379368.0187605	3379368.53530622
95	19	1	0	90	36.1581920903955	36.241610738255	18	0.600060744099319	2	7	2	NaN	2	5	0.0382915101775862	1	1	NaN	32	1	32	2	121	221	321	NaN	521	0.254115727730095	2	1	NaN	3379370.2357297	NaN	3379371.2190706	3379371.73564117
95	19	1	0	90	36.1581920903955	36.241610738255	12	0.400040496066213	2	1	2	NaN	1	3	0.0382915101775862	1	1	NaN	33	1	33	2	121	221	321	NaN	521	1.22278877533972	2	0	NaN	3379372.8025946	NaN	3379373.7859969	3379374.30254702
95	19	1	0	90	36.1581920903955	36.241610738255	24	0.800080992132425	2	5	3	NaN	1	5	0.0382915101775862	1	1	NaN	34	1	34	2	121	221	321	NaN	521	0.232594527769834	2	0	NaN	3379376.3529484	NaN	3379377.3363225	3379377.85289037
95	19	1	0	90	36.1581920903955	36.241610738255	24	0.800080992132425	2	4	1	NaN	1	3	0.0382915101775862	1	1	NaN	35	1	35	2	121	221	321	NaN	521	0.234284528065473	2	0	NaN	3379378.9031896	NaN	3379379.8865876	3379380.40314787
95	19	1	0	90	36.1581920903955	36.241610738255	15	0.500050620082766	2	1	1	NaN	1	4	0.0382915101775862	1	1	NaN	36	1	36	2	121	221	321	NaN	521	0.484046327881515	1	1	NaN	3379381.4534491	NaN	3379382.4368203	3379382.95338857
95	19	1	0	90	36.1581920903955	36.241610738255	0	0	1	6	4	NaN	1	4	0.0382915101775862	1	1	NaN	37	1	37	2	111	211	311	NaN	511	0.0104144755750895	1	1	NaN	3379384.2535803	NaN	3379385.2371057	3379385.75366002
95	19	1	0	90	36.1581920903955	36.241610738255	16	0.533387328088283	2	4	2	NaN	1	3	0.0382915101775862	1	1	NaN	38	1	38	2	121	221	321	NaN	521	0.17510142782703	1	1	NaN	3379386.5705038	NaN	3379387.5540086	3379388.07055617
95	19	1	0	90	36.1581920903955	36.241610738255	6	0.200020248033106	2	11	4	NaN	2	4	0.0382915101775862	1	1	NaN	39	1	39	2	121	221	321	NaN	521	0.0992283918894827	2	1	NaN	3379389.0541862	NaN	3379390.0375874	3379390.55413701
95	19	1	0	90	36.1581920903955	36.241610738255	0	0	1	2	6	NaN	1	5	0.0382915101775862	1	1	NaN	40	1	40	2	111	211	311	NaN	511	0.26660472759977	1	1	NaN	3379391.4710914	NaN	3379392.4544771	3379392.97104327
95	19	1	0	90	36.1581920903955	36.241610738255	0	0	1	8	2	NaN	2	5	0.0382915101775862	1	1	NaN	41	1	41	2	111	211	311	NaN	511	0.0103785796090961	1	0	NaN	3379394.0546848	NaN	3379395.0380737	3379395.55463092
95	19	1	0	90	36.1581920903955	36.241610738255	12	0.400040496066213	2	7	5	NaN	2	3	0.0382915101775862	1	1	NaN	42	1	42	2	121	221	321	NaN	521	0.173642475157976	1	0	NaN	3379396.388256	NaN	3379397.3716301	3379397.88819132
95	19	1	0	90	36.1581920903955	36.241610738255	10	0.333367080055177	2	11	1	NaN	2	3	0.0382915101775862	1	1	NaN	43	1	43	2	121	221	321	NaN	521	1.23298252793029	2	1	NaN	3379398.8884629	NaN	3379399.8718748	3379400.38843507
95	19	1	0	90	36.1581920903955	36.241610738255	10	0.333367080055177	2	11	3	NaN	2	4	0.0382915101775862	1	1	NaN	44	1	44	2	121	221	321	NaN	521	0.0103968274779618	1	0	NaN	3379402.422158	NaN	3379403.4055669	3379403.92211967
95	19	1	0	90	36.1581920903955	36.241610738255	6	0.200020248033106	2	1	1	NaN	1	3	0.0382915101775862	1	1	NaN	45	1	45	2	121	221	321	NaN	521	0.222462327685207	1	1	NaN	3379404.7389287	NaN	3379405.7224491	3379406.23901257
95	19	1	0	90	36.1581920903955	36.241610738255	6	0.200020248033106	2	6	1	NaN	1	4	0.0382915101775862	1	1	NaN	46	1	46	2	121	221	321	NaN	521	0.0168782277032733	1	1	NaN	3379407.27265	NaN	3379408.256037	3379408.77258937
95	19	1	0	90	36.1581920903955	36.241610738255	19	0.633397452104837	2	11	6	NaN	2	4	0.0382915101775862	1	1	NaN	47	1	47	2	121	221	321	NaN	521	0.867208527866751	1	0	NaN	3379409.6061979	NaN	3379410.5896025	3379411.10617277
95	19	1	0	90	36.1581920903955	36.241610738255	18	0.600060744099319	2	1	1	NaN	1	3	0.0382915101775862	1	1	NaN	48	1	48	2	121	221	321	NaN	521	0.115572727750987	1	1	NaN	3379412.7898437	NaN	3379413.773245	3379414.28979227
95	19	1	0	90	36.1581920903955	36.241610738255	17	0.566724036093801	2	8	2	NaN	2	5	0.0382915101775862	1	1	NaN	49	1	49	2	121	221	321	NaN	521	0.0103923273272812	1	0	NaN	3379415.2232969	NaN	3379416.2068125	3379416.72337367
95	19	1	0	90	36.1581920903955	36.241610738255	8	0.266693664044142	2	6	6	NaN	1	5	0.0382915101775862	1	1	NaN	50	1	50	2	121	221	321	NaN	521	0.0104382233694196	1	1	NaN	3379417.5402745	NaN	3379418.5237097	3379419.04025408
95	19	1	0	90	36.1581920903955	36.241610738255	20	0.666734160110354	2	3	5	NaN	1	4	0.0382915101775862	1	1	NaN	51	1	51	2	121	221	321	NaN	521	0.0103970277123153	1	1	NaN	3379419.8570794	NaN	3379420.8406186	3379421.35715827
95	19	1	0	90	36.1581920903955	36.241610738255	12	0.400040496066213	2	3	3	NaN	1	3	0.0382915101775862	1	1	NaN	52	1	52	2	121	221	321	NaN	521	0.0103097436949611	2	0	NaN	3379422.1741052	NaN	3379423.1575018	3379423.67405936
95	19	1	0	90	36.1581920903955	36.241610738255	17	0.566724036093801	2	3	1	NaN	1	4	0.0382915101775862	1	1	NaN	53	1	53	2	121	221	321	NaN	521	0.206245639827102	2	0	NaN	3379424.5076573	NaN	3379425.491057	3379426.00761806
95	19	1	0	90	36.1581920903955	36.241610738255	15	0.500050620082766	2	3	6	NaN	1	4	0.0382915101775862	1	1	NaN	54	1	54	2	121	221	321	NaN	521	0.14497767528519	1	1	NaN	3379427.0245892	NaN	3379428.0079647	3379428.52451682
95	19	1	0	90	36.1581920903955	36.241610738255	14	0.466713912077248	2	11	3	NaN	2	3	0.0382915101775862	1	1	NaN	55	1	55	2	121	221	321	NaN	521	0.0706188757903874	1	0	NaN	3379429.4749186	NaN	3379430.4582817	3379430.97475992
95	19	1	0	90	36.1581920903955	36.241610738255	12	0.400040496066213	2	11	5	NaN	2	3	0.0382915101775862	1	1	NaN	56	1	56	2	121	221	321	NaN	521	0.01039012754336	2	1	NaN	3379431.8583944	NaN	3379432.8417779	3379433.35833557
95	19	1	0	90	36.1581920903955	36.241610738255	13	0.43337720407173	2	2	5	NaN	1	3	0.0382915101775862	1	1	NaN	57	1	57	2	121	221	321	NaN	521	0.1542017753236	1	1	NaN	3379434.1752699	NaN	3379435.1586885	3379435.67522692
95	19	1	0	90	36.1581920903955	36.241610738255	0	0	1	1	3	NaN	1	5	0.0382915101775862	1	1	NaN	58	1	58	2	111	211	311	NaN	511	0.0713362754322588	1	1	NaN	3379436.6421129	NaN	3379437.6255907	3379438.14213112
95	19	1	0	90	36.1581920903955	36.241610738255	15	0.500050620082766	2	7	1	NaN	2	5	0.0382915101775862	1	1	NaN	59	1	59	2	121	221	321	NaN	521	0.295743975788355	1	0	NaN	3379439.0256955	NaN	3379440.0091632	3379440.52569832
95	19	1	0	90	36.1581920903955	36.241610738255	8	0.266693664044142	2	4	4	NaN	1	5	0.0382915101775862	1	1	NaN	60	1	60	2	121	221	321	NaN	521	0.271233427803963	1	1	NaN	3379441.6426149	NaN	3379442.6260706	3379443.14262477
95	19	1	0	90	36.1581920903955	36.241610738255	17	0.566724036093801	2	5	1	NaN	1	4	0.0382915101775862	1	1	NaN	61	1	61	2	121	221	321	NaN	521	0.303347575478256	1	1	NaN	3379444.2262027	NaN	3379445.2096791	3379445.72621352
95	19	1	0	90	36.1581920903955	36.241610738255	6	0.200020248033106	2	7	3	NaN	2	4	0.0382915101775862	1	1	NaN	62	1	62	2	121	221	321	NaN	521	0.0942916278727353	1	0	NaN	3379446.8431884	NaN	3379447.8265783	3379448.34313537
95	19	1	0	90	36.1581920903955	36.241610738255	16	0.533387328088283	2	11	4	NaN	2	4	0.0382915101775862	1	1	NaN	63	1	63	2	121	221	321	NaN	521	0.0935079278424382	2	1	NaN	3379449.2600831	NaN	3379450.2434916	3379450.76004017
95	19	1	0	90	36.1581920903955	36.241610738255	24	0.800080992132425	2	8	3	NaN	2	4	0.0382915101775862	1	1	NaN	64	2	1	2	121	221	321	NaN	521	0.0104330275207758	2	1	NaN	3379459.0443541	NaN	3379460.0277749	3379460.54433277
95	19	1	0	90	36.1581920903955	36.241610738255	23	0.766744284126908	2	3	6	NaN	1	3	0.0382915101775862	1	1	NaN	65	2	2	2	121	221	321	NaN	521	0.192284127697349	1	1	NaN	3379461.3612818	NaN	3379462.3446785	3379462.86122267
95	19	1	0	90	36.1581920903955	36.241610738255	16	0.533387328088283	2	12	3	NaN	2	4	0.0382915101775862	1	1	NaN	66	2	3	2	121	221	321	NaN	521	0.0103963278234005	1	0	NaN	3379463.8615087	NaN	3379464.8449209	3379465.36146887
95	19	1	0	90	36.1581920903955	36.241610738255	19	0.633397452104837	2	5	5	NaN	1	3	0.0382915101775862	1	1	NaN	67	2	4	2	121	221	321	NaN	521	0.143102827481925	1	1	NaN	3379466.178416	NaN	3379467.1618588	3379467.67836007
95	19	1	0	90	36.1581920903955	36.241610738255	20	0.666734160110354	2	7	5	NaN	2	5	0.0382915101775862	1	1	NaN	68	2	5	2	121	221	321	NaN	521	1.00428127544001	2	1	NaN	3379468.645326	NaN	3379469.6287191	3379470.14526922
95	19	1	0	90	36.1581920903955	36.241610738255	9	0.300030372049659	2	10	1	NaN	2	4	0.0382915101775862	1	1	NaN	69	2	6	2	121	221	321	NaN	521	1.00734052760527	2	1	NaN	3379471.9622004	NaN	3379472.9457132	3379473.46226237
95	19	1	0	90	36.1581920903955	36.241610738255	18	0.600060744099319	2	12	4	NaN	2	4	0.0382915101775862	1	1	NaN	70	2	7	2	121	221	321	NaN	521	0.0104087754152715	2	1	NaN	3379475.2793054	NaN	3379476.2627066	3379476.77924702
95	19	1	0	90	36.1581920903955	36.241610738255	0	0	1	3	3	NaN	1	5	0.0382915101775862	1	1	NaN	71	2	8	2	111	211	311	NaN	511	0.157746127806604	1	1	NaN	3379477.5962906	NaN	3379478.5795931	3379479.09614617
95	19	1	0	90	36.1581920903955	36.241610738255	17	0.566724036093801	2	11	5	NaN	2	4	0.0382915101775862	1	1	NaN	72	2	9	2	121	221	321	NaN	521	1.10646832734346	2	1	NaN	3379480.0630909	NaN	3379481.0465095	3379481.56305907
95	19	1	0	90	36.1581920903955	36.241610738255	25	0.833417700137943	2	1	6	NaN	1	5	0.0382915101775862	1	1	NaN	73	2	10	2	121	221	321	NaN	521	0.0734864273108542	2	0	NaN	3379483.4801069	NaN	3379484.4635422	3379484.98005957
95	19	1	0	90	36.1581920903955	36.241610738255	18	0.600060744099319	2	3	1	NaN	1	3	0.0382915101775862	1	1	NaN	74	2	11	2	121	221	321	NaN	521	0.129915475845337	1	1	NaN	3379485.8636722	NaN	3379486.8471311	3379487.36362692
95	19	1	0	90	36.1581920903955	36.241610738255	10	0.333367080055177	2	9	4	NaN	2	4	0.0382915101775862	1	1	NaN	75	2	12	2	121	221	321	NaN	521	0.319614327978343	1	0	NaN	3379488.3139116	NaN	3379489.297412	3379489.81387737
95	19	1	0	90	36.1581920903955	36.241610738255	0	0	1	11	2	NaN	2	5	0.0382915101775862	1	1	NaN	76	2	13	2	111	211	311	NaN	511	0.254070175811648	1	0	NaN	3379490.9475284	NaN	3379491.93095	3379492.44745292
95	19	1	0	90	36.1581920903955	36.241610738255	19	0.633397452104837	2	3	1	NaN	1	5	0.0382915101775862	1	1	NaN	77	2	14	2	121	221	321	NaN	521	0.01519327564165	1	1	NaN	3379493.5144283	NaN	3379494.4978228	3379495.01437072
95	19	1	0	90	36.1581920903955	36.241610738255	16	0.533387328088283	2	5	2	NaN	1	5	0.0382915101775862	1	1	NaN	78	2	15	2	121	221	321	NaN	521	0.0103929280303419	1	1	NaN	3379495.8479892	NaN	3379496.8313834	3379497.34793587
95	19	1	0	90	36.1581920903955	36.241610738255	12	0.400040496066213	2	10	3	NaN	2	5	0.0382915101775862	1	1	NaN	79	2	16	2	121	221	321	NaN	521	0.0104105756618083	2	1	NaN	3379498.1815557	NaN	3379499.1649371	3379499.68149432
95	19	1	0	90	36.1581920903955	36.241610738255	6	0.200020248033106	2	3	4	NaN	1	3	0.0382915101775862	1	1	NaN	80	2	17	2	121	221	321	NaN	521	0.334565475583076	1	1	NaN	3379500.5150966	NaN	3379501.4985124	3379502.01505652
95	19	1	0	90	36.1581920903955	36.241610738255	19	0.633397452104837	2	2	3	NaN	1	4	0.0382915101775862	1	1	NaN	81	2	18	2	121	221	321	NaN	521	0.0103963278234005	1	1	NaN	3379503.1654047	NaN	3379504.1487714	3379504.66531287
95	19	1	0	90	36.1581920903955	36.241610738255	22	0.73340757612139	2	3	2	NaN	1	4	0.0382915101775862	1	1	NaN	82	2	19	2	121	221	321	NaN	521	0.191276175435632	1	1	NaN	3379505.4823547	NaN	3379506.4656567	3379506.98221012
95	19	1	0	90	36.1581920903955	36.241610738255	11	0.366703788060695	2	11	4	NaN	2	5	0.0382915101775862	1	1	NaN	83	2	20	2	121	221	321	NaN	521	0.467579327523708	1	0	NaN	3379507.982381	NaN	3379508.9659129	3379509.48245857
95	19	1	0	90	36.1581920903955	36.241610738255	7	0.233356956038624	2	7	2	NaN	2	3	0.0382915101775862	1	1	NaN	84	2	21	2	121	221	321	NaN	521	0.0104566719383001	1	0	NaN	3379510.7661086	NaN	3379511.7495557	3379512.26605633
95	19	1	0	90	36.1581920903955	36.241610738255	8	0.266693664044142	2	9	1	NaN	2	3	0.0382915101775862	1	1	NaN	85	2	22	2	121	221	321	NaN	521	1.02231917530298	2	1	NaN	3379513.0996862	NaN	3379514.0830674	3379514.59962232
95	19	1	0	90	36.1581920903955	36.241610738255	6	0.200020248033106	2	8	6	NaN	2	4	0.0382915101775862	1	1	NaN	86	2	23	2	121	221	321	NaN	521	0.224702527746558	2	1	NaN	3379516.4333373	NaN	3379517.4167335	3379517.93329237
95	19	1	0	90	36.1581920903955	36.241610738255	8	0.266693664044142	2	10	2	NaN	2	4	0.0382915101775862	1	1	NaN	87	2	24	2	121	221	321	NaN	521	0.0103956279344857	2	1	NaN	3379518.966842	NaN	3379519.9503188	3379520.46686837
95	19	1	0	90	36.1581920903955	36.241610738255	17	0.566724036093801	2	1	4	NaN	1	4	0.0382915101775862	1	1	NaN	88	2	25	2	121	221	321	NaN	521	0.317837023176253	1	1	NaN	3379521.283878	NaN	3379522.2672082	3379522.78375448
95	19	1	0	90	36.1581920903955	36.241610738255	23	0.766744284126908	2	5	1	NaN	1	5	0.0382915101775862	1	1	NaN	89	2	26	2	121	221	321	NaN	521	1.15661422768608	1	1	NaN	3379523.917411	NaN	3379524.9008023	3379525.41735397
95	19	1	0	90	36.1581920903955	36.241610738255	25	0.833417700137943	2	4	2	NaN	1	3	0.0382915101775862	1	1	NaN	90	2	27	2	121	221	321	NaN	521	0.329095575492829	1	1	NaN	3379527.3844556	NaN	3379528.3678051	3379528.88435752
95	19	1	0	90	36.1581920903955	36.241610738255	22	0.73340757612139	2	9	6	NaN	2	3	0.0382915101775862	1	1	NaN	91	2	28	2	121	221	321	NaN	521	0.215216027572751	1	0	NaN	3379530.0346831	NaN	3379531.0180651	3379531.53461257
95	19	1	0	90	36.1581920903955	36.241610738255	6	0.200020248033106	2	2	3	NaN	1	3	0.0382915101775862	1	1	NaN	92	2	29	2	121	221	321	NaN	521	0.0104002277366817	1	1	NaN	3379532.5682451	NaN	3379533.5516493	3379534.06819967
95	19	1	0	90	36.1581920903955	36.241610738255	25	0.833417700137943	2	9	2	NaN	2	4	0.0382915101775862	1	1	NaN	93	2	30	2	121	221	321	NaN	521	0.908443227875978	2	1	NaN	3379534.8850244	NaN	3379535.8685616	3379536.38509437
95	19	1	0	90	36.1581920903955	36.241610738255	22	0.73340757612139	2	5	6	NaN	1	4	0.0382915101775862	1	1	NaN	94	2	31	2	121	221	321	NaN	521	0.499642828013748	1	1	NaN	3379538.1019968	NaN	3379539.0855264	3379539.60208397
95	19	1	0	90	36.1581920903955	36.241610738255	16	0.533387328088283	2	3	5	NaN	1	3	0.0382915101775862	1	1	NaN	95	2	32	2	121	221	321	NaN	521	0.13714652787894	2	0	NaN	3379541.3523241	NaN	3379542.3358529	3379542.85239437
95	19	1	0	90	36.1581920903955	36.241610738255	6	0.200020248033106	2	12	1	NaN	2	3	0.0382915101775862	1	1	NaN	96	2	33	2	121	221	321	NaN	521	0.886782627552748	2	1	NaN	3379543.8025608	NaN	3379544.7860859	3379545.30264037
95	19	1	0	90	36.1581920903955	36.241610738255	19	0.633397452104837	2	1	6	NaN	1	3	0.0382915101775862	1	1	NaN	97	2	34	2	121	221	321	NaN	521	0.230675375554711	1	1	NaN	3379547.0028914	NaN	3379547.9863998	3379548.50294722
95	19	1	0	90	36.1581920903955	36.241610738255	22	0.73340757612139	2	5	1	NaN	1	4	0.0382915101775862	1	1	NaN	98	2	35	2	121	221	321	NaN	521	1.23253022320569	1	1	NaN	3379549.5532491	NaN	3379550.5366795	3379551.05319128
95	19	1	0	90	36.1581920903955	36.241610738255	16	0.533387328088283	2	2	6	NaN	1	5	0.0382915101775862	1	1	NaN	99	2	36	2	121	221	321	NaN	521	0.233962627593428	1	1	NaN	3379553.103611	NaN	3379554.0870043	3379554.60354547
95	19	1	0	90	36.1581920903955	36.241610738255	9	0.300030372049659	2	3	4	NaN	1	4	0.0382915101775862	1	1	NaN	100	2	37	2	121	221	321	NaN	521	0.195651575922966	2	0	NaN	3379555.6538421	NaN	3379556.6372529	3379557.15379012
95	19	1	0	90	36.1581920903955	36.241610738255	11	0.366703788060695	2	9	3	NaN	2	5	0.0382915101775862	1	1	NaN	101	2	38	2	121	221	321	NaN	521	0.0104048275388777	1	0	NaN	3379558.1541006	NaN	3379559.13749	3379559.65405947
95	19	1	0	90	36.1581920903955	36.241610738255	12	0.400040496066213	2	6	1	NaN	1	5	0.0382915101775862	1	1	NaN	102	2	39	2	121	221	321	NaN	521	0.787027528043836	1	1	NaN	3379560.470982	NaN	3379561.4543835	3379561.97093807
95	19	1	0	90	36.1581920903955	36.241610738255	10	0.333367080055177	2	1	1	NaN	1	4	0.0382915101775862	1	1	NaN	103	2	40	2	121	221	321	NaN	521	0.238454427570105	1	1	NaN	3379563.5713258	NaN	3379564.5547024	3379565.07124227
95	19	1	0	90	36.1581920903955	36.241610738255	18	0.600060744099319	2	9	4	NaN	2	5	0.0382915101775862	1	1	NaN	104	2	41	2	121	221	321	NaN	521	0.0104121277108788	1	0	NaN	3379566.1215385	NaN	3379567.1049398	3379567.62149637
95	19	1	0	90	36.1581920903955	36.241610738255	15	0.500050620082766	2	1	4	NaN	1	4	0.0382915101775862	1	1	NaN	105	2	42	2	121	221	321	NaN	521	0.659220339730382	1	1	NaN	3379568.4384307	NaN	3379569.4218346	3379569.93838456
95	19	1	0	90	36.1581920903955	36.241610738255	15	0.500050620082766	2	2	4	NaN	1	5	0.0382915101775862	1	1	NaN	106	2	43	2	121	221	321	NaN	521	0.0104009276255965	1	1	NaN	3379571.4220621	NaN	3379572.4054685	3379572.92200887
95	19	1	0	90	36.1581920903955	36.241610738255	13	0.43337720407173	2	10	5	NaN	2	3	0.0382915101775862	1	1	NaN	107	2	44	2	121	221	321	NaN	521	0.0104118753224611	1	0	NaN	3379573.7389856	NaN	3379574.7223494	3379575.23890162
95	19	1	0	90	36.1581920903955	36.241610738255	18	0.600060744099319	2	6	5	NaN	1	4	0.0382915101775862	1	1	NaN	108	2	45	2	121	221	321	NaN	521	0.210126627702266	2	0	NaN	3379576.0558408	NaN	3379577.0392455	3379577.55580407
95	19	1	0	90	36.1581920903955	36.241610738255	19	0.633397452104837	2	3	1	NaN	1	3	0.0382915101775862	1	1	NaN	109	2	46	2	121	221	321	NaN	521	0.188859827816486	1	1	NaN	3379578.5727785	NaN	3379579.5561581	3379580.07270697
95	19	1	0	90	36.1581920903955	36.241610738255	8	0.266693664044142	2	1	3	NaN	1	4	0.0382915101775862	1	1	NaN	110	2	47	2	121	221	321	NaN	521	0.010412975680083	1	1	NaN	3379581.0730041	NaN	3379582.056429	3379582.57294982
95	19	1	0	90	36.1581920903955	36.241610738255	9	0.300030372049659	2	6	6	NaN	1	5	0.0382915101775862	1	1	NaN	111	2	48	2	121	221	321	NaN	521	0.283824739977717	1	1	NaN	3379583.3898951	NaN	3379584.3732915	3379584.88984816
95	19	1	0	90	36.1581920903955	36.241610738255	23	0.766744284126908	2	2	3	NaN	1	3	0.0382915101775862	1	1	NaN	112	2	49	2	121	221	321	NaN	521	0.0104421717114747	1	1	NaN	3379585.9901556	NaN	3379586.9735683	3379587.49010823
95	19	1	0	90	36.1581920903955	36.241610738255	13	0.43337720407173	2	12	5	NaN	2	3	0.0382915101775862	1	1	NaN	113	2	50	2	121	221	321	NaN	521	0.0380778280086815	2	1	NaN	3379588.3237206	NaN	3379589.307115	3379589.82366387
95	19	1	0	90	36.1581920903955	36.241610738255	23	0.766744284126908	2	9	4	NaN	2	5	0.0382915101775862	1	1	NaN	114	2	51	2	121	221	321	NaN	521	0.735965275671333	2	1	NaN	3379590.6739459	NaN	3379591.6573406	3379592.17389192
95	19	1	0	90	36.1581920903955	36.241610738255	14	0.466713912077248	2	8	1	NaN	2	5	0.0382915101775862	1	1	NaN	115	2	52	2	121	221	321	NaN	521	1.01341453148052	2	1	NaN	3379593.7241216	NaN	3379594.7076335	3379595.22420387
95	19	1	0	90	36.1581920903955	36.241610738255	21	0.700070868115872	2	1	6	NaN	1	3	0.0382915101775862	1	1	NaN	116	2	53	2	121	221	321	NaN	521	0.367728627752513	1	1	NaN	3379597.0577945	NaN	3379598.0413105	3379598.55785817
95	19	1	0	90	36.1581920903955	36.241610738255	7	0.233356956038624	2	4	2	NaN	1	4	0.0382915101775862	1	1	NaN	117	2	54	2	121	221	321	NaN	521	0.0103980279527605	1	1	NaN	3379599.7414999	NaN	3379600.7248983	3379601.24144957
95	19	1	0	90	36.1581920903955	36.241610738255	23	0.766744284126908	2	4	4	NaN	1	3	0.0382915101775862	1	1	NaN	118	2	55	2	121	221	321	NaN	521	0.286837975494564	2	0	NaN	3379602.075077	NaN	3379603.0584692	3379603.57500692
95	19	1	0	90	36.1581920903955	36.241610738255	7	0.233356956038624	2	7	1	NaN	2	5	0.0382915101775862	1	1	NaN	119	2	56	2	121	221	321	NaN	521	0.390813027974218	2	1	NaN	3379604.6753195	NaN	3379605.6586918	3379606.17526487
95	19	1	0	90	36.1581920903955	36.241610738255	20	0.666734160110354	2	11	6	NaN	2	5	0.0382915101775862	1	1	NaN	120	2	57	2	121	221	321	NaN	521	0.17849092790857	2	1	NaN	3379607.3755818	NaN	3379608.3589758	3379608.87553577
95	19	1	0	90	36.1581920903955	36.241610738255	21	0.700070868115872	2	11	1	NaN	2	3	0.0382915101775862	1	1	NaN	121	2	58	2	121	221	321	NaN	521	0.222384527791291	2	1	NaN	3379609.8758386	NaN	3379610.8592066	3379611.37577907
95	19	1	0	90	36.1581920903955	36.241610738255	13	0.43337720407173	2	1	5	NaN	1	4	0.0382915101775862	1	1	NaN	122	2	59	2	121	221	321	NaN	521	0.848385275807232	1	1	NaN	3379612.4094286	NaN	3379613.3927247	3379613.90936492
95	19	1	0	90	36.1581920903955	36.241610738255	9	0.300030372049659	2	11	2	NaN	2	5	0.0382915101775862	1	1	NaN	123	2	60	2	121	221	321	NaN	521	0.0974154756404459	2	1	NaN	3379615.5763938	NaN	3379616.5597911	3379617.07633692
95	19	1	0	90	36.1581920903955	36.241610738255	16	0.533387328088283	2	7	6	NaN	2	3	0.0382915101775862	1	1	NaN	124	2	61	2	121	221	321	NaN	521	0.168696675915271	1	0	NaN	3379617.9931665	NaN	3379618.976688	3379619.49323512
95	19	1	0	90	36.1581920903955	36.241610738255	10	0.333367080055177	2	5	4	NaN	1	3	0.0382915101775862	1	1	NaN	125	2	62	2	121	221	321	NaN	521	0.725064179860055	1	1	NaN	3379620.4768765	NaN	3379621.4602794	3379621.97682312
95	19	1	0	90	36.1581920903955	36.241610738255	16	0.533387328088283	2	12	2	NaN	2	3	0.0382915101775862	1	1	NaN	126	2	63	2	121	221	321	NaN	521	0.843217175453901	2	1	NaN	3379623.5104919	NaN	3379624.4938869	3379625.01044642
95	19	1	0	90	36.1581920903955	36.241610738255	16	0.533387328088283	2	9	6	NaN	2	4	0.0382915101775862	1	1	NaN	127	3	1	2	121	221	321	NaN	521	0.227910975459963	2	1	NaN	3379647.6461982	NaN	3379648.6296004	3379649.14614842
95	19	1	0	90	36.1581920903955	36.241610738255	23	0.766744284126908	2	11	2	NaN	2	4	0.0382915101775862	1	1	NaN	128	3	2	2	121	221	321	NaN	521	0.125370427500457	1	0	NaN	3379650.1964552	NaN	3379651.1798539	3379651.69639797
95	19	1	0	90	36.1581920903955	36.241610738255	7	0.233356956038624	2	5	2	NaN	1	5	0.0382915101775862	1	1	NaN	129	3	3	2	121	221	321	NaN	521	0.483832327648997	2	0	NaN	3379652.6298999	NaN	3379653.6134224	3379654.12996267
95	19	1	0	90	36.1581920903955	36.241610738255	13	0.43337720407173	2	6	3	NaN	1	3	0.0382915101775862	1	1	NaN	130	3	4	2	121	221	321	NaN	521	0.0104015278629959	1	1	NaN	3379655.4302932	NaN	3379656.4136892	3379656.93023947
95	19	1	0	90	36.1581920903955	36.241610738255	19	0.633397452104837	2	5	5	NaN	1	4	0.0382915101775862	1	1	NaN	131	3	5	2	121	221	321	NaN	521	0.814996175467968	2	0	NaN	3379657.7472721	NaN	3379658.7305885	3379659.24713052
95	19	1	0	90	36.1581920903955	36.241610738255	24	0.800080992132425	2	5	4	NaN	1	5	0.0382915101775862	1	1	NaN	132	3	6	2	121	221	321	NaN	521	0.208885327447206	2	0	NaN	3379660.8808656	NaN	3379661.8642284	3379662.38077537
95	19	1	0	90	36.1581920903955	36.241610738255	0	0	1	10	6	NaN	2	3	0.0382915101775862	1	1	NaN	133	3	7	2	111	211	311	NaN	511	1.12403957545757	2	1	NaN	3379663.3977478	NaN	3379664.3811377	3379664.89768392
95	19	1	0	90	36.1581920903955	36.241610738255	21	0.700070868115872	2	9	2	NaN	2	4	0.0382915101775862	1	1	NaN	134	3	8	2	121	221	321	NaN	521	0.978539527859539	1	0	NaN	3379666.8313678	NaN	3379667.8148094	3379668.33135447
95	19	1	0	90	36.1581920903955	36.241610738255	23	0.766744284126908	2	7	5	NaN	2	4	0.0382915101775862	1	1	NaN	135	3	9	2	121	221	321	NaN	521	0.18994002789259	1	0	NaN	3379670.1317168	NaN	3379671.1151302	3379671.63169037
95	19	1	0	90	36.1581920903955	36.241610738255	13	0.43337720407173	2	8	6	NaN	2	4	0.0382915101775862	1	1	NaN	136	3	10	2	121	221	321	NaN	521	0.0739272753708065	2	1	NaN	3379672.6318806	NaN	3379673.6153718	3379674.13192382
95	19	1	0	90	36.1581920903955	36.241610738255	14	0.466713912077248	2	12	6	NaN	2	5	0.0382915101775862	1	1	NaN	137	3	11	2	121	221	321	NaN	521	0.234310727566481	1	0	NaN	3379675.0155435	NaN	3379675.9988687	3379676.51549917
95	19	1	0	90	36.1581920903955	36.241610738255	13	0.43337720407173	2	4	5	NaN	1	5	0.0382915101775862	1	1	NaN	138	3	12	2	121	221	321	NaN	521	0.0103975278325379	2	0	NaN	3379677.5658056	NaN	3379678.549099	3379679.06574097
95	19	1	0	90	36.1581920903955	36.241610738255	25	0.833417700137943	2	6	2	NaN	1	4	0.0382915101775862	1	1	NaN	139	3	13	2	121	221	321	NaN	521	0.239527523517609	1	1	NaN	3379679.8827833	NaN	3379680.8660774	3379681.38263098
95	19	1	0	90	36.1581920903955	36.241610738255	21	0.700070868115872	2	1	2	NaN	1	4	0.0382915101775862	1	1	NaN	140	3	14	2	121	221	321	NaN	521	1.02488502766937	1	1	NaN	3379682.4329224	NaN	3379683.4163371	3379683.93288667
95	19	1	0	90	36.1581920903955	36.241610738255	24	0.800080992132425	2	9	6	NaN	2	4	0.0382915101775862	1	1	NaN	141	3	15	2	121	221	321	NaN	521	1.35450553940609	1	0	NaN	3379685.7832658	NaN	3379686.7666646	3379687.28321956
95	19	1	0	90	36.1581920903955	36.241610738255	12	0.400040496066213	2	9	5	NaN	2	3	0.0382915101775862	1	1	NaN	142	3	16	2	121	221	321	NaN	521	0.247785627841949	1	0	NaN	3379689.4504279	NaN	3379690.4336936	3379690.95024437
95	19	1	0	90	36.1581920903955	36.241610738255	17	0.566724036093801	2	9	4	NaN	2	4	0.0382915101775862	1	1	NaN	143	3	17	2	121	221	321	NaN	521	0.280847144313157	1	0	NaN	3379692.0172135	NaN	3379693.0006138	3379693.51716736
95	19	1	0	90	36.1581920903955	36.241610738255	18	0.600060744099319	2	8	2	NaN	2	3	0.0382915101775862	1	1	NaN	144	3	18	2	121	221	321	NaN	521	0.264980528037995	1	0	NaN	3379694.6008149	NaN	3379695.5842058	3379696.10075027
95	19	1	0	90	36.1581920903955	36.241610738255	11	0.366703788060695	2	7	2	NaN	2	4	0.0382915101775862	1	1	NaN	145	3	19	2	121	221	321	NaN	521	0.209447875618935	2	1	NaN	3379697.1842451	NaN	3379698.16782	3379698.68432802
95	19	1	0	90	36.1581920903955	36.241610738255	7	0.233356956038624	2	8	6	NaN	2	4	0.0382915101775862	1	1	NaN	146	3	20	2	121	221	321	NaN	521	0.94851397536695	2	1	NaN	3379699.7012364	NaN	3379700.6847007	3379701.20124172
95	19	1	0	90	36.1581920903955	36.241610738255	20	0.666734160110354	2	10	5	NaN	2	3	0.0382915101775862	1	1	NaN	147	3	21	2	121	221	321	NaN	521	0.0103994277305901	2	1	NaN	3379702.9682951	NaN	3379703.9516931	3379704.46823837
95	19	1	0	90	36.1581920903955	36.241610738255	19	0.633397452104837	2	1	6	NaN	1	5	0.0382915101775862	1	1	NaN	148	3	22	2	121	221	321	NaN	521	0.820946679916233	1	1	NaN	3379705.2851725	NaN	3379706.2685883	3379706.78513392
95	19	1	0	90	36.1581920903955	36.241610738255	20	0.666734160110354	2	5	6	NaN	1	3	0.0382915101775862	1	1	NaN	149	3	23	2	121	221	321	NaN	521	0.0104131754487753	1	1	NaN	3379708.4187102	NaN	3379709.4022166	3379709.91878342
95	19	1	0	90	36.1581920903955	36.241610738255	13	0.43337720407173	2	7	6	NaN	2	4	0.0382915101775862	1	1	NaN	150	3	24	2	121	221	321	NaN	521	0.0103978277184069	2	1	NaN	3379710.7524012	NaN	3379711.7357766	3379712.25233397
95	19	1	0	90	36.1581920903955	36.241610738255	17	0.566724036093801	2	2	4	NaN	1	5	0.0382915101775862	1	1	NaN	151	3	25	2	121	221	321	NaN	521	0.644931275397539	2	0	NaN	3379713.0692859	NaN	3379714.0527194	3379714.56922002
95	19	1	0	90	36.1581920903955	36.241610738255	17	0.566724036093801	2	10	5	NaN	2	3	0.0382915101775862	1	1	NaN	152	3	26	2	121	221	321	NaN	521	0.262065775692463	2	1	NaN	3379716.036244	NaN	3379717.0196236	3379717.53618112
95	19	1	0	90	36.1581920903955	36.241610738255	20	0.666734160110354	2	2	2	NaN	1	5	0.0382915101775862	1	1	NaN	153	3	27	2	121	221	321	NaN	521	0.214980175718665	1	1	NaN	3379718.6031609	NaN	3379719.5866087	3379720.10309892
95	19	1	0	90	36.1581920903955	36.241610738255	7	0.233356956038624	2	11	5	NaN	2	3	0.0382915101775862	1	1	NaN	154	3	28	2	121	221	321	NaN	521	0.305443227756768	2	1	NaN	3379721.1367449	NaN	3379722.1201187	3379722.63668507
95	19	1	0	90	36.1581920903955	36.241610738255	10	0.333367080055177	2	12	6	NaN	2	4	0.0382915101775862	1	1	NaN	155	3	29	2	121	221	321	NaN	521	0.280642571859062	1	0	NaN	3379723.7535334	NaN	3379724.7370502	3379725.25359793
95	19	1	0	90	36.1581920903955	36.241610738255	19	0.633397452104837	2	6	6	NaN	1	5	0.0382915101775862	1	1	NaN	156	3	30	2	121	221	321	NaN	521	0.407645127736032	1	1	NaN	3379726.3705701	NaN	3379727.3539779	3379727.87052967
95	19	1	0	90	36.1581920903955	36.241610738255	25	0.833417700137943	2	9	6	NaN	2	5	0.0382915101775862	1	1	NaN	157	3	31	2	121	221	321	NaN	521	0.290587127674371	1	0	NaN	3379729.0874899	NaN	3379730.0709065	3379730.58748197
95	19	1	0	90	36.1581920903955	36.241610738255	21	0.700070868115872	2	7	2	NaN	2	4	0.0382915101775862	1	1	NaN	158	3	32	2	121	221	321	NaN	521	1.15457279188558	2	1	NaN	3379731.6877889	NaN	3379732.6711921	3379733.18771861
95	19	1	0	90	36.1581920903955	36.241610738255	7	0.233356956038624	2	9	2	NaN	2	5	0.0382915101775862	1	1	NaN	159	3	33	2	121	221	321	NaN	521	0.103206875734031	2	1	NaN	3379735.1547751	NaN	3379736.1381816	3379736.65471742
95	19	1	0	90	36.1581920903955	36.241610738255	10	0.333367080055177	2	4	6	NaN	1	5	0.0382915101775862	1	1	NaN	160	3	34	2	121	221	321	NaN	521	0.98265262786299	2	0	NaN	3379737.5716035	NaN	3379738.555072	3379739.07162757
95	19	1	0	90	36.1581920903955	36.241610738255	18	0.600060744099319	2	12	3	NaN	2	4	0.0382915101775862	1	1	NaN	161	3	35	2	121	221	321	NaN	521	0.193951627705246	2	1	NaN	3379740.871999	NaN	3379741.8554223	3379742.37195577
95	19	1	0	90	36.1581920903955	36.241610738255	0	0	1	7	6	NaN	2	3	0.0382915101775862	1	1	NaN	162	3	36	2	111	211	311	NaN	511	0.278088423423469	2	1	NaN	3379743.3722544	NaN	3379744.3556413	3379744.87218808
95	19	1	0	90	36.1581920903955	36.241610738255	10	0.333367080055177	2	4	1	NaN	1	3	0.0382915101775862	1	1	NaN	163	3	37	2	121	221	321	NaN	521	0.382557528093457	1	1	NaN	3379745.9558308	NaN	3379746.9392318	3379747.45578677
95	19	1	0	90	36.1581920903955	36.241610738255	9	0.300030372049659	2	2	1	NaN	1	3	0.0382915101775862	1	1	NaN	164	3	38	2	121	221	321	NaN	521	0.793776927515864	2	0	NaN	3379748.8559913	NaN	3379749.839513	3379750.35606537
95	19	1	0	90	36.1581920903955	36.241610738255	14	0.466713912077248	2	1	5	NaN	1	4	0.0382915101775862	1	1	NaN	165	3	39	2	121	221	321	NaN	521	0.365218435879797	1	1	NaN	3379751.973104	NaN	3379752.9564818	3379753.47306586
95	19	1	0	90	36.1581920903955	36.241610738255	21	0.700070868115872	2	10	2	NaN	2	5	0.0382915101775862	1	1	NaN	166	3	40	2	121	221	321	NaN	521	0.274013827554882	1	0	NaN	3379754.6400979	NaN	3379755.6234091	3379756.13996237
95	19	1	0	90	36.1581920903955	36.241610738255	22	0.73340757612139	2	11	3	NaN	2	4	0.0382915101775862	1	1	NaN	167	3	41	2	121	221	321	NaN	521	0.0104217757470906	2	1	NaN	3379757.223566	NaN	3379758.2070021	3379758.72354762
95	19	1	0	90	36.1581920903955	36.241610738255	0	0	1	1	2	NaN	1	4	0.0382915101775862	1	1	NaN	168	3	42	2	111	211	311	NaN	511	0.125608871690929	1	1	NaN	3379759.5405038	NaN	3379760.5238847	3379761.04044483
95	19	1	0	90	36.1581920903955	36.241610738255	24	0.800080992132425	2	10	2	NaN	2	5	0.0382915101775862	1	1	NaN	169	3	43	2	121	221	321	NaN	521	0.947828075382859	2	1	NaN	3379761.9740572	NaN	3379762.9574677	3379763.47401942
95	19	1	0	90	36.1581920903955	36.241610738255	10	0.333367080055177	2	3	3	NaN	1	3	0.0382915101775862	1	1	NaN	170	3	44	2	121	221	321	NaN	521	0.22495582792908	1	1	NaN	3379765.2410668	NaN	3379766.2244801	3379766.74100097
95	19	1	0	90	36.1581920903955	36.241610738255	23	0.766744284126908	2	12	5	NaN	2	4	0.0382915101775862	1	1	NaN	171	3	45	2	121	221	321	NaN	521	0.0104106753133237	1	0	NaN	3379767.7912983	NaN	3379768.7747055	3379769.29125642
95	19	1	0	90	36.1581920903955	36.241610738255	19	0.633397452104837	2	11	6	NaN	2	5	0.0382915101775862	1	1	NaN	172	3	46	2	121	221	321	NaN	521	0.637636396568269	1	0	NaN	3379770.108202	NaN	3379771.0915875	3379771.6081561
95	19	1	0	90	36.1581920903955	36.241610738255	18	0.600060744099319	2	5	1	NaN	1	3	0.0382915101775862	1	1	NaN	173	3	47	2	121	221	321	NaN	521	1.5193816437386	2	0	NaN	3379773.0584961	NaN	3379774.0418972	3379774.55844646
95	19	1	0	90	36.1581920903955	36.241610738255	19	0.633397452104837	2	2	4	NaN	1	5	0.0382915101775862	1	1	NaN	174	3	48	2	121	221	321	NaN	521	0.693782275542617	1	1	NaN	3379776.8921224	NaN	3379777.8755991	3379778.39214042
95	19	1	0	90	36.1581920903955	36.241610738255	12	0.400040496066213	2	11	1	NaN	2	5	0.0382915101775862	1	1	NaN	175	3	49	2	121	221	321	NaN	521	0.894646727945656	2	1	NaN	3379780.2590698	NaN	3379781.2426004	3379781.75914507
95	19	1	0	90	36.1581920903955	36.241610738255	17	0.566724036093801	2	11	2	NaN	2	5	0.0382915101775862	1	1	NaN	176	3	50	2	121	221	321	NaN	521	0.278981627896428	2	1	NaN	3379783.4595256	NaN	3379784.4428029	3379784.95945957
95	19	1	0	90	36.1581920903955	36.241610738255	9	0.300030372049659	2	4	1	NaN	1	5	0.0382915101775862	1	1	NaN	177	3	51	2	121	221	321	NaN	521	0.0104091754183173	1	1	NaN	3379786.0430085	NaN	3379787.0264944	3379787.54304512
95	19	1	0	90	36.1581920903955	36.241610738255	21	0.700070868115872	2	11	5	NaN	2	5	0.0382915101775862	1	1	NaN	178	3	52	2	121	221	321	NaN	521	0.169695575721562	2	1	NaN	3379788.3766659	NaN	3379789.36005	3379789.87661322
95	19	1	0	90	36.1581920903955	36.241610738255	0	0	1	5	2	NaN	1	4	0.0382915101775862	1	1	NaN	179	3	53	2	111	211	311	NaN	511	0.0104094757698476	1	1	NaN	3379790.8602302	NaN	3379791.8436523	3379792.36017512
95	19	1	0	90	36.1581920903955	36.241610738255	21	0.700070868115872	2	10	1	NaN	2	5	0.0382915101775862	1	1	NaN	180	3	54	2	121	221	321	NaN	521	0.320224275812507	2	1	NaN	3379793.1938001	NaN	3379794.1772087	3379794.69374522
95	19	1	0	90	36.1581920903955	36.241610738255	19	0.633397452104837	2	12	2	NaN	2	4	0.0382915101775862	1	1	NaN	181	3	55	2	121	221	321	NaN	521	0.599066827911884	2	1	NaN	3379795.8274239	NaN	3379796.8108001	3379797.32733817
95	19	1	0	90	36.1581920903955	36.241610738255	23	0.766744284126908	2	8	1	NaN	2	4	0.0382915101775862	1	1	NaN	182	3	56	2	121	221	321	NaN	521	0.153678928036243	2	1	NaN	3379798.7443594	NaN	3379799.7277367	3379800.24429097
95	19	1	0	90	36.1581920903955	36.241610738255	12	0.400040496066213	2	4	5	NaN	1	3	0.0382915101775862	1	1	NaN	183	3	57	2	121	221	321	NaN	521	0.0387563756667078	1	1	NaN	3379801.2112986	NaN	3379802.1946347	3379802.71119032
95	19	1	0	90	36.1581920903955	36.241610738255	17	0.566724036093801	2	8	1	NaN	2	4	0.0382915101775862	1	1	NaN	184	3	58	2	121	221	321	NaN	521	0.0104274759069085	1	0	NaN	3379803.5614788	NaN	3379804.5448713	3379805.06142872
95	19	1	0	90	36.1581920903955	36.241610738255	21	0.700070868115872	2	9	1	NaN	2	4	0.0382915101775862	1	1	NaN	185	3	59	2	121	221	321	NaN	521	0.195576391648501	2	1	NaN	3379805.8782306	NaN	3379806.8618273	3379807.37833771
95	19	1	0	90	36.1581920903955	36.241610738255	13	0.43337720407173	2	9	1	NaN	2	5	0.0382915101775862	1	1	NaN	186	3	60	2	121	221	321	NaN	521	0.167036775499582	2	1	NaN	3379808.3952837	NaN	3379809.3787028	3379809.89523682
95	19	1	0	90	36.1581920903955	36.241610738255	24	0.800080992132425	2	12	1	NaN	2	4	0.0382915101775862	1	1	NaN	187	3	61	2	121	221	321	NaN	521	0.0102856922894716	2	1	NaN	3379811.0789462	NaN	3379812.0622803	3379812.57884311
95	19	1	0	90	36.1581920903955	36.241610738255	7	0.233356956038624	2	10	6	NaN	2	3	0.0382915101775862	1	1	NaN	188	3	62	2	121	221	321	NaN	521	0.246298088226467	1	0	NaN	3379813.3957751	NaN	3379814.3791774	3379814.89572751
95	19	1	0	90	36.1581920903955	36.241610738255	0	0	1	9	5	NaN	2	5	0.0382915101775862	1	1	NaN	189	3	63	2	111	211	311	NaN	511	0.615384527482092	2	1	NaN	3379815.9626914	NaN	3379816.9461348	3379817.46264857
95	19	1	0	90	36.1581920903955	36.241610738255	0	0	1	6	3	NaN	1	5	0.0382915101775862	1	1	NaN	190	4	1	2	111	211	311	NaN	511	0.304826027713716	2	0	NaN	3379832.2976244	NaN	3379833.2810318	3379833.79758057
95	19	1	0	90	36.1581920903955	36.241610738255	0	0	1	5	4	NaN	1	3	0.0382915101775862	1	1	NaN	191	4	2	2	111	211	311	NaN	511	0.687975391745567	1	1	NaN	3379834.9146426	NaN	3379835.8979527	3379836.41450201
95	19	1	0	90	36.1581920903955	36.241610738255	6	0.200020248033106	2	5	5	NaN	1	4	0.0382915101775862	1	1	NaN	192	4	3	2	121	221	321	NaN	521	0.0103959278203547	1	1	NaN	3379837.9148408	NaN	3379838.8982429	3379839.41480147
95	19	1	0	90	36.1581920903955	36.241610738255	15	0.500050620082766	2	12	5	NaN	2	3	0.0382915101775862	1	1	NaN	193	4	4	2	121	221	321	NaN	521	0.346638427581638	1	0	NaN	3379840.2317831	NaN	3379841.2151319	3379841.73168447
95	19	1	0	90	36.1581920903955	36.241610738255	7	0.233356956038624	2	5	5	NaN	1	5	0.0382915101775862	1	1	NaN	194	4	5	2	121	221	321	NaN	521	0.01034388365224	1	1	NaN	3379842.8986624	NaN	3379843.8820615	3379844.39861152
95	19	1	0	90	36.1581920903955	36.241610738255	21	0.700070868115872	2	3	4	NaN	1	3	0.0382915101775862	1	1	NaN	195	4	6	2	121	221	321	NaN	521	0.866334775462747	2	0	NaN	3379845.2155971	NaN	3379846.1989651	3379846.71550892
95	19	1	0	90	36.1581920903955	36.241610738255	25	0.833417700137943	2	3	3	NaN	1	5	0.0382915101775862	1	1	NaN	196	4	7	2	121	221	321	NaN	521	0.419408975634724	1	1	NaN	3379848.3992099	NaN	3379849.3826035	3379849.89915582
95	19	1	0	90	36.1581920903955	36.241610738255	17	0.566724036093801	2	4	6	NaN	1	4	0.0382915101775862	1	1	NaN	197	4	8	2	121	221	321	NaN	521	0.549753927625716	1	1	NaN	3379851.1326821	NaN	3379852.1162052	3379852.63275437
95	19	1	0	90	36.1581920903955	36.241610738255	7	0.233356956038624	2	9	5	NaN	2	3	0.0382915101775862	1	1	NaN	198	4	9	2	121	221	321	NaN	521	0.306263275910169	1	0	NaN	3379853.9996439	NaN	3379854.9831541	3379855.49971672
95	19	1	0	90	36.1581920903955	36.241610738255	23	0.766744284126908	2	5	3	NaN	1	4	0.0382915101775862	1	1	NaN	199	4	10	2	121	221	321	NaN	521	0.0103899277746677	2	0	NaN	3379856.6165614	NaN	3379857.6000737	3379858.11662667
95	19	1	0	90	36.1581920903955	36.241610738255	8	0.266693664044142	2	5	4	NaN	1	4	0.0382915101775862	1	1	NaN	200	4	11	2	121	221	321	NaN	521	0.699828275945038	1	1	NaN	3379858.9502388	NaN	3379859.9336218	3379860.45019662
95	19	1	0	90	36.1581920903955	36.241610738255	7	0.233356956038624	2	11	2	NaN	2	5	0.0382915101775862	1	1	NaN	201	4	12	2	121	221	321	NaN	521	0.0104096275754273	2	1	NaN	3379861.9671986	NaN	3379862.9505966	3379863.46715317
95	19	1	0	90	36.1581920903955	36.241610738255	14	0.466713912077248	2	6	3	NaN	1	5	0.0382915101775862	1	1	NaN	202	4	13	2	121	221	321	NaN	521	0.765987528022379	1	1	NaN	3379864.2840942	NaN	3379865.2675121	3379865.78404617
95	19	1	0	90	36.1581920903955	36.241610738255	22	0.73340757612139	2	12	5	NaN	2	4	0.0382915101775862	1	1	NaN	203	4	14	2	121	221	321	NaN	521	0.386728927958757	2	1	NaN	3379867.3677474	NaN	3379868.3511265	3379868.86768077
95	19	1	0	90	36.1581920903955	36.241610738255	23	0.766744284126908	2	11	3	NaN	2	5	0.0382915101775862	1	1	NaN	204	4	15	2	121	221	321	NaN	521	0.285888127982616	2	1	NaN	3379870.06799	NaN	3379871.0513937	3379871.56795127
95	19	1	0	90	36.1581920903955	36.241610738255	6	0.200020248033106	2	9	1	NaN	2	3	0.0382915101775862	1	1	NaN	205	4	16	2	121	221	321	NaN	521	0.0104137756861746	1	0	NaN	3379872.6682626	NaN	3379873.6516593	3379874.16819962
95	19	1	0	90	36.1581920903955	36.241610738255	24	0.800080992132425	2	4	3	NaN	1	5	0.0382915101775862	1	1	NaN	206	4	17	2	121	221	321	NaN	521	0.673011075239629	2	0	NaN	3379874.9850205	NaN	3379875.9685479	3379876.48508902
95	19	1	0	90	36.1581920903955	36.241610738255	8	0.266693664044142	2	3	2	NaN	1	3	0.0382915101775862	1	1	NaN	207	4	18	2	121	221	321	NaN	521	0.0103931277990341	1	1	NaN	3379877.9687864	NaN	3379878.952173	3379879.46872187
95	19	1	0	90	36.1581920903955	36.241610738255	14	0.466713912077248	2	2	3	NaN	1	3	0.0382915101775862	1	1	NaN	208	4	19	2	121	221	321	NaN	521	0.0104138758033514	2	0	NaN	3379880.2855361	NaN	3379881.2690665	3379881.78561712
95	19	1	0	90	36.1581920903955	36.241610738255	21	0.700070868115872	2	3	1	NaN	1	3	0.0382915101775862	1	1	NaN	209	4	20	2	121	221	321	NaN	521	0.990773827768862	1	1	NaN	3379882.61923	NaN	3379883.6026236	3379884.11917457
95	19	1	0	90	36.1581920903955	36.241610738255	13	0.43337720407173	2	6	3	NaN	1	5	0.0382915101775862	1	1	NaN	210	4	21	2	121	221	321	NaN	521	0.570535675156862	1	1	NaN	3379885.9195488	NaN	3379886.9029511	3379887.41950132
95	19	1	0	90	36.1581920903955	36.241610738255	13	0.43337720407173	2	12	2	NaN	2	3	0.0382915101775862	1	1	NaN	211	4	22	2	121	221	321	NaN	521	0.0103309359401464	1	0	NaN	3379888.803174	NaN	3379889.7865589	3379890.30311956
95	19	1	0	90	36.1581920903955	36.241610738255	13	0.43337720407173	2	8	1	NaN	2	4	0.0382915101775862	1	1	NaN	212	4	23	2	121	221	321	NaN	521	0.0104059274308383	1	0	NaN	3379891.1200597	NaN	3379892.103441	3379892.62001607
95	19	1	0	90	36.1581920903955	36.241610738255	16	0.533387328088283	2	2	3	NaN	1	3	0.0382915101775862	1	1	NaN	213	4	24	2	121	221	321	NaN	521	0.741515228059143	1	1	NaN	3379893.4368323	NaN	3379894.4203608	3379894.93690317
95	19	1	0	90	36.1581920903955	36.241610738255	13	0.43337720407173	2	3	6	NaN	1	5	0.0382915101775862	1	1	NaN	214	4	25	2	121	221	321	NaN	521	0.642984627746046	1	1	NaN	3379896.4872449	NaN	3379897.4706525	3379897.98720767
95	19	1	0	90	36.1581920903955	36.241610738255	25	0.833417700137943	2	1	5	NaN	1	3	0.0382915101775862	1	1	NaN	215	4	26	2	121	221	321	NaN	521	0.708587780129164	2	0	NaN	3379899.4375645	NaN	3379900.4209307	3379900.93749162
95	19	1	0	90	36.1581920903955	36.241610738255	14	0.466713912077248	2	10	1	NaN	2	4	0.0382915101775862	1	1	NaN	216	4	27	2	121	221	321	NaN	521	0.09966672770679	2	1	NaN	3379902.4544907	NaN	3379903.4379111	3379903.95445977
95	19	1	0	90	36.1581920903955	36.241610738255	12	0.400040496066213	2	7	4	NaN	2	3	0.0382915101775862	1	1	NaN	217	4	28	2	121	221	321	NaN	521	0.298733427654952	2	1	NaN	3379904.8712788	NaN	3379905.8548314	3379906.37135167
95	19	1	0	90	36.1581920903955	36.241610738255	8	0.266693664044142	2	10	1	NaN	2	4	0.0382915101775862	1	1	NaN	218	4	29	2	121	221	321	NaN	521	0.378189827781171	2	1	NaN	3379907.4882638	NaN	3379908.4717295	3379908.98828447
95	19	1	0	90	36.1581920903955	36.241610738255	19	0.633397452104837	2	6	4	NaN	1	5	0.0382915101775862	1	1	NaN	219	4	30	2	121	221	321	NaN	521	0.0103983278386295	1	1	NaN	3379910.188593	NaN	3379911.1719861	3379911.68855007
95	19	1	0	90	36.1581920903955	36.241610738255	25	0.833417700137943	2	3	2	NaN	1	4	0.0382915101775862	1	1	NaN	220	4	31	2	121	221	321	NaN	521	0.224785175640136	1	1	NaN	3379912.5055135	NaN	3379913.488886	3379914.00544232
95	19	1	0	90	36.1581920903955	36.241610738255	11	0.366703788060695	2	10	3	NaN	2	3	0.0382915101775862	1	1	NaN	221	4	32	2	121	221	321	NaN	521	0.0832198755815625	2	1	NaN	3379915.0390695	NaN	3379916.0224659	3379916.53902422
95	19	1	0	90	36.1581920903955	36.241610738255	12	0.400040496066213	2	12	5	NaN	2	3	0.0382915101775862	1	1	NaN	222	4	33	2	121	221	321	NaN	521	0.0103976274840534	1	0	NaN	3379917.4392986	NaN	3379918.4227279	3379918.93926317
95	19	1	0	90	36.1581920903955	36.241610738255	23	0.766744284126908	2	10	1	NaN	2	4	0.0382915101775862	1	1	NaN	223	4	34	2	121	221	321	NaN	521	0.010419275611639	2	1	NaN	3379919.7562404	NaN	3379920.7395881	3379921.25614852
95	19	1	0	90	36.1581920903955	36.241610738255	21	0.700070868115872	2	4	2	NaN	1	3	0.0382915101775862	1	1	NaN	224	4	35	2	121	221	321	NaN	521	0.44901897571981	2	0	NaN	3379922.0729709	NaN	3379923.056487	3379923.57303962
95	19	1	0	90	36.1581920903955	36.241610738255	10	0.333367080055177	2	7	1	NaN	2	3	0.0382915101775862	1	1	NaN	225	4	36	2	121	221	321	NaN	521	1.05798362754285	2	1	NaN	3379924.8400272	NaN	3379925.8234285	3379926.33997767
95	19	1	0	90	36.1581920903955	36.241610738255	24	0.800080992132425	2	12	6	NaN	2	5	0.0382915101775862	1	1	NaN	226	4	37	2	121	221	321	NaN	521	0.44312607543543	1	0	NaN	3379928.207024	NaN	3379929.1904508	3379929.70697262
95	19	1	0	90	36.1581920903955	36.241610738255	24	0.800080992132425	2	3	1	NaN	1	5	0.0382915101775862	1	1	NaN	227	4	38	2	121	221	321	NaN	521	0.72468948783353	1	1	NaN	3379930.9739634	NaN	3379931.9573479	3379932.47392141
95	19	1	0	90	36.1581920903955	36.241610738255	9	0.300030372049659	2	6	6	NaN	1	4	0.0382915101775862	1	1	NaN	228	4	39	2	121	221	321	NaN	521	0.0104069276712835	1	1	NaN	3379934.0075847	NaN	3379934.9909972	3379935.50755187
95	19	1	0	90	36.1581920903955	36.241610738255	20	0.666734160110354	2	9	6	NaN	2	3	0.0382915101775862	1	1	NaN	229	4	40	2	121	221	321	NaN	521	0.605507727712393	1	0	NaN	3379936.3412375	NaN	3379937.324556	3379937.84111027
95	19	1	0	90	36.1581920903955	36.241610738255	17	0.566724036093801	2	9	5	NaN	2	4	0.0382915101775862	1	1	NaN	230	4	41	2	121	221	321	NaN	521	0.0104112755507231	1	0	NaN	3379939.2581007	NaN	3379940.241509	3379940.75806462
95	19	1	0	90	36.1581920903955	36.241610738255	7	0.233356956038624	2	2	5	NaN	1	4	0.0382915101775862	1	1	NaN	231	4	42	2	121	221	321	NaN	521	0.019306527916342	1	1	NaN	3379941.5750236	NaN	3379942.5583913	3379943.07495747
95	19	1	0	90	36.1581920903955	36.241610738255	19	0.633397452104837	2	4	4	NaN	1	5	0.0382915101775862	1	1	NaN	232	4	43	2	121	221	321	NaN	521	0.133619727566838	2	0	NaN	3379943.9085546	NaN	3379944.8919691	3379945.40851667
95	19	1	0	90	36.1581920903955	36.241610738255	19	0.633397452104837	2	10	4	NaN	2	3	0.0382915101775862	1	1	NaN	233	4	44	2	121	221	321	NaN	521	0.0104091754183173	2	1	NaN	3379946.3588104	NaN	3379947.3422358	3379947.85875402
95	19	1	0	90	36.1581920903955	36.241610738255	9	0.300030372049659	2	7	6	NaN	2	3	0.0382915101775862	1	1	NaN	234	4	45	2	121	221	321	NaN	521	0.598365031648427	2	1	NaN	3379948.6755762	NaN	3379949.6591011	3379950.17565217
95	19	1	0	90	36.1581920903955	36.241610738255	14	0.466713912077248	2	4	5	NaN	1	5	0.0382915101775862	1	1	NaN	235	4	46	2	121	221	321	NaN	521	0.0815086276270449	1	1	NaN	3379951.5926696	NaN	3379952.57604	3379953.09260607
95	19	1	0	90	36.1581920903955	36.241610738255	13	0.43337720407173	2	5	6	NaN	1	4	0.0382915101775862	1	1	NaN	236	4	47	2	121	221	321	NaN	521	0.761445027776062	2	0	NaN	3379953.992883	NaN	3379954.9762772	3379955.49283487
95	19	1	0	90	36.1581920903955	36.241610738255	8	0.266693664044142	2	1	3	NaN	1	5	0.0382915101775862	1	1	NaN	237	4	48	2	121	221	321	NaN	521	0.357818027492613	1	1	NaN	3379957.0765581	NaN	3379958.0599365	3379958.57646927
95	19	1	0	90	36.1581920903955	36.241610738255	17	0.566724036093801	2	12	6	NaN	2	3	0.0382915101775862	1	1	NaN	238	4	49	2	121	221	321	NaN	521	0.314605127554387	2	1	NaN	3379959.7434437	NaN	3379960.7268557	3379961.24340697
95	19	1	0	90	36.1581920903955	36.241610738255	7	0.233356956038624	2	10	6	NaN	2	3	0.0382915101775862	1	1	NaN	239	4	50	2	121	221	321	NaN	521	0.0411340277642012	2	1	NaN	3379962.3770526	NaN	3379963.3604434	3379963.87699327
95	19	1	0	90	36.1581920903955	36.241610738255	0	0	1	9	3	NaN	2	4	0.0382915101775862	1	1	NaN	240	4	51	2	111	211	311	NaN	511	0.699283075518906	2	1	NaN	3379964.7272651	NaN	3379965.7106748	3379966.22722492
95	19	1	0	90	36.1581920903955	36.241610738255	11	0.366703788060695	2	2	6	NaN	1	3	0.0382915101775862	1	1	NaN	241	4	52	2	121	221	321	NaN	521	0.0103946276940405	1	1	NaN	3379967.7274443	NaN	3379968.7109681	3379969.22751827
95	19	1	0	90	36.1581920903955	36.241610738255	10	0.333367080055177	2	10	4	NaN	2	4	0.0382915101775862	1	1	NaN	242	4	53	2	121	221	321	NaN	521	0.590163723565638	2	1	NaN	3379970.0444608	NaN	3379971.0278924	3379971.54440408
95	19	1	0	90	36.1581920903955	36.241610738255	14	0.466713912077248	2	11	6	NaN	2	4	0.0382915101775862	1	1	NaN	243	4	54	2	121	221	321	NaN	521	0.01039182767272	2	1	NaN	3379972.9447623	NaN	3379973.9281408	3379974.44469667
95	19	1	0	90	36.1581920903955	36.241610738255	14	0.466713912077248	2	5	2	NaN	1	5	0.0382915101775862	1	1	NaN	244	4	55	2	121	221	321	NaN	521	0.164199975784868	1	1	NaN	3379975.2781697	NaN	3379976.2617	3379976.77825322
95	19	1	0	90	36.1581920903955	36.241610738255	17	0.566724036093801	2	7	4	NaN	2	5	0.0382915101775862	1	1	NaN	245	4	56	2	121	221	321	NaN	521	1.03218572773039	2	1	NaN	3379977.7618924	NaN	3379978.7452816	3379979.26183377
95	19	1	0	90	36.1581920903955	36.241610738255	8	0.266693664044142	2	7	4	NaN	2	5	0.0382915101775862	1	1	NaN	246	4	57	2	121	221	321	NaN	521	0.0104276235215366	2	1	NaN	3379981.1121016	NaN	3379982.0956467	3379982.61215688
95	19	1	0	90	36.1581920903955	36.241610738255	10	0.333367080055177	2	3	4	NaN	1	4	0.0382915101775862	1	1	NaN	247	4	58	2	121	221	321	NaN	521	0.813254227861762	1	1	NaN	3379983.4289786	NaN	3379984.4125039	3379984.92905737
95	19	1	0	90	36.1581920903955	36.241610738255	7	0.233356956038624	2	3	3	NaN	1	4	0.0382915101775862	1	1	NaN	248	4	59	2	121	221	321	NaN	521	0.128574823495001	1	1	NaN	3379986.5460769	NaN	3379987.5294713	3379988.04602038
95	19	1	0	90	36.1581920903955	36.241610738255	9	0.300030372049659	2	8	1	NaN	2	4	0.0382915101775862	1	1	NaN	249	4	60	2	121	221	321	NaN	521	0.543016327545047	1	0	NaN	3379988.9796616	NaN	3379989.9630365	3379990.47960047
95	19	1	0	90	36.1581920903955	36.241610738255	20	0.666734160110354	2	2	1	NaN	1	5	0.0382915101775862	1	1	NaN	250	4	61	2	121	221	321	NaN	521	0.0203804234042764	1	1	NaN	3379991.8299279	NaN	3379992.8133384	3379993.32987868
95	19	1	0	90	36.1581920903955	36.241610738255	23	0.766744284126908	2	6	5	NaN	1	5	0.0382915101775862	1	1	NaN	251	4	62	2	121	221	321	NaN	521	0.566770628094673	1	1	NaN	3379994.1634834	NaN	3379995.1468942	3379995.66343857
95	19	1	0	90	36.1581920903955	36.241610738255	19	0.633397452104837	2	8	2	NaN	2	5	0.0382915101775862	1	1	NaN	252	4	63	2	121	221	321	NaN	521	0.323115475475788	1	0	NaN	3379997.0470966	NaN	3379998.0305064	3379998.54705922
95	19	1	0	90	36.1581920903955	36.241610738255	18	0.600060744099319	2	11	1	NaN	2	5	0.0382915101775862	1	1	NaN	253	5	1	2	121	221	321	NaN	521	0.010409127920866	2	1	NaN	3380018.9159234	NaN	3380019.8993085	3380020.41586517
95	19	1	0	90	36.1581920903955	36.241610738255	16	0.533387328088283	2	6	2	NaN	1	4	0.0382915101775862	1	1	NaN	254	5	2	2	121	221	321	NaN	521	0.0103939278051257	1	1	NaN	3380021.2328265	NaN	3380022.2161987	3380022.73276217
95	19	1	0	90	36.1581920903955	36.241610738255	6	0.200020248033106	2	4	3	NaN	1	4	0.0382915101775862	1	1	NaN	255	5	3	2	121	221	321	NaN	521	0.404351227451116	1	1	NaN	3380023.5662867	NaN	3380024.5497706	3380025.06633797
95	19	1	0	90	36.1581920903955	36.241610738255	24	0.800080992132425	2	8	6	NaN	2	5	0.0382915101775862	1	1	NaN	256	5	4	2	121	221	321	NaN	521	1.03944182768464	1	0	NaN	3380026.2833067	NaN	3380027.2666844	3380027.78325227
95	19	1	0	90	36.1581920903955	36.241610738255	9	0.300030372049659	2	12	4	NaN	2	4	0.0382915101775862	1	1	NaN	257	5	5	2	121	221	321	NaN	521	0.2411362756975	2	1	NaN	3380029.6336372	NaN	3380030.6170184	3380031.13357872
95	19	1	0	90	36.1581920903955	36.241610738255	24	0.800080992132425	2	11	2	NaN	2	4	0.0382915101775862	1	1	NaN	258	5	6	2	121	221	321	NaN	521	0.954519427381456	2	1	NaN	3380032.183891	NaN	3380033.1672788	3380033.68383987
95	19	1	0	90	36.1581920903955	36.241610738255	14	0.466713912077248	2	3	5	NaN	1	5	0.0382915101775862	1	1	NaN	259	5	7	2	121	221	321	NaN	521	1.15949687594548	2	0	NaN	3380035.4508601	NaN	3380036.4342682	3380036.95082172
95	19	1	0	90	36.1581920903955	36.241610738255	21	0.700070868115872	2	5	2	NaN	1	3	0.0382915101775862	1	1	NaN	260	5	8	2	121	221	321	NaN	521	0.17980622779578	2	0	NaN	3380039.3344542	NaN	3380040.3179809	3380040.83453627
95	19	1	0	90	36.1581920903955	36.241610738255	17	0.566724036093801	2	3	6	NaN	1	3	0.0382915101775862	1	1	NaN	261	5	9	2	121	221	321	NaN	521	0.503457727842033	1	1	NaN	3380041.8348234	NaN	3380042.8182246	3380043.33478267
95	19	1	0	90	36.1581920903955	36.241610738255	16	0.533387328088283	2	8	4	NaN	2	4	0.0382915101775862	1	1	NaN	262	5	10	2	121	221	321	NaN	521	0.070726131554693	1	0	NaN	3380044.6517831	NaN	3380045.635174	3380046.15171877
95	19	1	0	90	36.1581920903955	36.241610738255	23	0.766744284126908	2	2	2	NaN	1	5	0.0382915101775862	1	1	NaN	263	5	11	2	121	221	321	NaN	521	1.01498987572268	1	1	NaN	3380047.0352518	NaN	3380048.018733	3380048.53528452
95	19	1	0	90	36.1581920903955	36.241610738255	0	0	1	12	1	NaN	2	5	0.0382915101775862	1	1	NaN	264	5	12	2	111	211	311	NaN	511	0.0104043278843164	2	1	NaN	3380050.3690016	NaN	3380051.3523988	3380051.86895057
95	19	1	0	90	36.1581920903955	36.241610738255	24	0.800080992132425	2	1	4	NaN	1	5	0.0382915101775862	1	1	NaN	265	5	13	2	121	221	321	NaN	521	0.500362128019333	1	1	NaN	3380052.6858892	NaN	3380053.6693015	3380054.18585007
95	19	1	0	90	36.1581920903955	36.241610738255	11	0.366703788060695	2	9	4	NaN	2	4	0.0382915101775862	1	1	NaN	266	5	14	2	121	221	321	NaN	521	0.123547875788063	2	1	NaN	3380055.5028892	NaN	3380056.4862721	3380057.00278102
95	19	1	0	90	36.1581920903955	36.241610738255	18	0.600060744099319	2	3	4	NaN	1	3	0.0382915101775862	1	1	NaN	267	5	15	2	121	221	321	NaN	521	0.0103916279040277	1	1	NaN	3380057.9364084	NaN	3380058.9199293	3380059.43636197
95	19	1	0	90	36.1581920903955	36.241610738255	19	0.633397452104837	2	9	3	NaN	2	4	0.0382915101775862	1	1	NaN	268	5	16	2	121	221	321	NaN	521	0.805022927932441	2	1	NaN	3380060.2533102	NaN	3380061.2367071	3380061.75325757
95	19	1	0	90	36.1581920903955	36.241610738255	23	0.766744284126908	2	3	5	NaN	1	5	0.0382915101775862	1	1	NaN	269	5	17	2	121	221	321	NaN	521	0.447374375537038	1	1	NaN	3380063.3869421	NaN	3380064.3703396	3380064.88689902
95	19	1	0	90	36.1581920903955	36.241610738255	18	0.600060744099319	2	7	5	NaN	2	4	0.0382915101775862	1	1	NaN	270	5	18	2	121	221	321	NaN	521	0.280878928024322	1	0	NaN	3380066.1537776	NaN	3380067.1372869	3380067.65382707
95	19	1	0	90	36.1581920903955	36.241610738255	23	0.766744284126908	2	6	5	NaN	1	5	0.0382915101775862	1	1	NaN	271	5	19	2	121	221	321	NaN	521	0.296775175724179	1	1	NaN	3380068.7374665	NaN	3380069.7208776	3380070.23741252
95	19	1	0	90	36.1581920903955	36.241610738255	6	0.200020248033106	2	10	2	NaN	2	4	0.0382915101775862	1	1	NaN	272	5	20	2	121	221	321	NaN	521	0.184515127912164	2	1	NaN	3380071.3543917	NaN	3380072.3377965	3380072.85434527
95	19	1	0	90	36.1581920903955	36.241610738255	13	0.43337720407173	2	2	2	NaN	1	3	0.0382915101775862	1	1	NaN	273	5	21	2	121	221	321	NaN	521	0.180157823488116	2	0	NaN	3380073.8546216	NaN	3380074.8380283	3380075.35457748
95	19	1	0	90	36.1581920903955	36.241610738255	13	0.43337720407173	2	11	3	NaN	2	3	0.0382915101775862	1	1	NaN	274	5	22	2	121	221	321	NaN	521	1.04771892772987	2	1	NaN	3380076.3549432	NaN	3380077.3382881	3380077.85482447
95	19	1	0	90	36.1581920903955	36.241610738255	19	0.633397452104837	2	12	2	NaN	2	3	0.0382915101775862	1	1	NaN	275	5	23	2	121	221	321	NaN	521	3.54445187561214	2	1	NaN	3380079.7218795	NaN	3380080.7052741	3380081.22183072
95	19	1	0	90	36.1581920903955	36.241610738255	23	0.766744284126908	2	10	5	NaN	2	4	0.0382915101775862	1	1	NaN	276	5	24	2	121	221	321	NaN	521	0.0103969275951385	2	1	NaN	3380085.5724625	NaN	3380086.5558531	3380087.07240177
95	19	1	0	90	36.1581920903955	36.241610738255	11	0.366703788060695	2	12	4	NaN	2	5	0.0382915101775862	1	1	NaN	277	5	25	2	121	221	321	NaN	521	1.34426727565005	2	1	NaN	3380087.9059992	NaN	3380088.8894093	3380089.40596812
95	19	1	0	90	36.1581920903955	36.241610738255	12	0.400040496066213	2	4	5	NaN	1	4	0.0382915101775862	1	1	NaN	278	5	26	2	121	221	321	NaN	521	0.0103916279040277	1	1	NaN	3380091.5564065	NaN	3380092.5397701	3380093.05631417
95	19	1	0	90	36.1581920903955	36.241610738255	18	0.600060744099319	2	11	4	NaN	2	3	0.0382915101775862	1	1	NaN	279	5	27	2	121	221	321	NaN	521	0.0104160755872726	1	0	NaN	3380093.8733521	NaN	3380094.8567024	3380095.37322032
95	19	1	0	90	36.1581920903955	36.241610738255	0	0	1	2	1	NaN	1	4	0.0382915101775862	1	1	NaN	280	5	28	2	111	211	311	NaN	511	0.188681391999125	1	1	NaN	3380096.190153	NaN	3380097.173561	3380097.69011001
95	19	1	0	90	36.1581920903955	36.241610738255	17	0.566724036093801	2	10	5	NaN	2	5	0.0382915101775862	1	1	NaN	281	5	29	2	121	221	321	NaN	521	0.640156775247306	2	1	NaN	3380098.6903944	NaN	3380099.6737995	3380100.19035132
95	19	1	0	90	36.1581920903955	36.241610738255	14	0.466713912077248	2	3	3	NaN	1	5	0.0382915101775862	1	1	NaN	282	5	30	2	121	221	321	NaN	521	0.193042328115553	2	0	NaN	3380102.0574165	NaN	3380103.0407798	3380103.55735287
95	19	1	0	90	36.1581920903955	36.241610738255	23	0.766744284126908	2	7	1	NaN	2	4	0.0382915101775862	1	1	NaN	283	5	31	2	121	221	321	NaN	521	0.132858376018703	2	1	NaN	3380104.5576363	NaN	3380105.5410417	3380106.05760602
95	19	1	0	90	36.1581920903955	36.241610738255	10	0.333367080055177	2	2	5	NaN	1	3	0.0382915101775862	1	1	NaN	284	5	32	2	121	221	321	NaN	521	1.17053622798994	1	1	NaN	3380107.0077674	NaN	3380107.9912841	3380108.50783327
95	19	1	0	90	36.1581920903955	36.241610738255	0	0	1	3	2	NaN	1	4	0.0382915101775862	1	1	NaN	285	5	33	2	111	211	311	NaN	511	0.206758675165474	1	1	NaN	3380110.4915576	NaN	3380111.474955	3380111.99150512
95	19	1	0	90	36.1581920903955	36.241610738255	22	0.73340757612139	2	4	3	NaN	1	5	0.0382915101775862	1	1	NaN	286	5	34	2	121	221	321	NaN	521	0.0103954277001321	1	1	NaN	3380113.0084882	NaN	3380113.9918722	3380114.50842387
95	19	1	0	90	36.1581920903955	36.241610738255	24	0.800080992132425	2	1	2	NaN	1	4	0.0382915101775862	1	1	NaN	287	5	35	2	121	221	321	NaN	521	0.213195975869894	1	1	NaN	3380115.3252443	NaN	3380116.3087723	3380116.82531982
95	19	1	0	90	36.1581920903955	36.241610738255	13	0.43337720407173	2	11	4	NaN	2	5	0.0382915101775862	1	1	NaN	288	5	36	2	121	221	321	NaN	521	0.207546975463629	1	0	NaN	3380117.8589502	NaN	3380118.8423462	3380119.35890042
95	19	1	0	90	36.1581920903955	36.241610738255	19	0.633397452104837	2	7	1	NaN	2	5	0.0382915101775862	1	1	NaN	289	5	37	2	121	221	321	NaN	521	0.626980728004128	2	1	NaN	3380120.3759111	NaN	3380121.3593035	3380121.87581267
95	19	1	0	90	36.1581920903955	36.241610738255	9	0.300030372049659	2	8	6	NaN	2	5	0.0382915101775862	1	1	NaN	290	5	38	2	121	221	321	NaN	521	0.941088527906686	2	1	NaN	3380123.3094994	NaN	3380124.2928708	3380124.80942777
95	19	1	0	90	36.1581920903955	36.241610738255	19	0.633397452104837	2	7	5	NaN	2	3	0.0382915101775862	1	1	NaN	291	5	39	2	121	221	321	NaN	521	0.13055922742933	1	0	NaN	3380126.5597997	NaN	3380127.5432094	3380128.05976457
95	19	1	0	90	36.1581920903955	36.241610738255	7	0.233356956038624	2	8	4	NaN	2	5	0.0382915101775862	1	1	NaN	292	5	40	2	121	221	321	NaN	521	0.010396427474916	2	1	NaN	3380128.9933749	NaN	3380129.9768327	3380130.49332277
95	19	1	0	90	36.1581920903955	36.241610738255	10	0.333367080055177	2	9	4	NaN	2	3	0.0382915101775862	1	1	NaN	293	5	41	2	121	221	321	NaN	521	1.29203248396516	2	1	NaN	3380131.3102626	NaN	3380132.2936646	3380132.81022402
95	19	1	0	90	36.1581920903955	36.241610738255	23	0.766744284126908	2	8	3	NaN	2	4	0.0382915101775862	1	1	NaN	294	5	42	2	121	221	321	NaN	521	0.195854427758604	2	1	NaN	3380134.9105428	NaN	3380135.894002	3380136.41056607
95	19	1	0	90	36.1581920903955	36.241610738255	23	0.766744284126908	2	12	4	NaN	2	4	0.0382915101775862	1	1	NaN	295	5	43	2	121	221	321	NaN	521	0.215512727852911	1	0	NaN	3380137.4107361	NaN	3380138.3942579	3380138.91081307
95	19	1	0	90	36.1581920903955	36.241610738255	20	0.666734160110354	2	3	2	NaN	1	3	0.0382915101775862	1	1	NaN	296	5	44	2	121	221	321	NaN	521	0.322062539402395	1	1	NaN	3380139.9444438	NaN	3380140.9278504	3380141.44439246
95	19	1	0	90	36.1581920903955	36.241610738255	20	0.666734160110354	2	7	4	NaN	2	4	0.0382915101775862	1	1	NaN	297	5	45	2	121	221	321	NaN	521	0.0104095754213631	1	0	NaN	3380142.578037	NaN	3380143.5614391	3380144.07798702
95	19	1	0	90	36.1581920903955	36.241610738255	12	0.400040496066213	2	10	2	NaN	2	3	0.0382915101775862	1	1	NaN	298	5	46	2	121	221	321	NaN	521	0.707619427703321	1	0	NaN	3380144.8949266	NaN	3380145.878322	3380146.39488497
95	19	1	0	90	36.1581920903955	36.241610738255	11	0.366703788060695	2	8	5	NaN	2	4	0.0382915101775862	1	1	NaN	299	5	47	2	121	221	321	NaN	521	0.658542375545949	2	1	NaN	3380147.9119003	NaN	3380148.8952944	3380149.41184252
95	19	1	0	90	36.1581920903955	36.241610738255	12	0.400040496066213	2	8	3	NaN	2	5	0.0382915101775862	1	1	NaN	300	5	48	2	121	221	321	NaN	521	0.0104047753848135	2	1	NaN	3380150.8788616	NaN	3380151.8622501	3380152.37879502
95	19	1	0	90	36.1581920903955	36.241610738255	15	0.500050620082766	2	2	2	NaN	1	4	0.0382915101775862	1	1	NaN	301	5	49	2	121	221	321	NaN	521	0.919157675467432	1	1	NaN	3380153.1957443	NaN	3380154.1791443	3380154.69568762
95	19	1	0	90	36.1581920903955	36.241610738255	21	0.700070868115872	2	2	1	NaN	1	5	0.0382915101775862	1	1	NaN	302	5	50	2	121	221	321	NaN	521	0.0104151754640043	1	1	NaN	3380156.4294051	NaN	3380157.4127824	3380157.92934712
95	19	1	0	90	36.1581920903955	36.241610738255	19	0.633397452104837	2	10	6	NaN	2	3	0.0382915101775862	1	1	NaN	303	5	51	2	121	221	321	NaN	521	0.0104063753969967	2	1	NaN	3380158.7462672	NaN	3380159.7296962	3380160.24624042
95	19	1	0	90	36.1581920903955	36.241610738255	7	0.233356956038624	2	12	2	NaN	2	4	0.0382915101775862	1	1	NaN	304	5	52	2	121	221	321	NaN	521	0.722929427865893	2	1	NaN	3380161.0798629	NaN	3380162.0632519	3380162.57979617
95	19	1	0	90	36.1581920903955	36.241610738255	22	0.73340757612139	2	8	5	NaN	2	5	0.0382915101775862	1	1	NaN	305	5	53	2	121	221	321	NaN	521	0.0102741438895464	1	0	NaN	3380164.1134697	NaN	3380165.096871	3380165.61343676
95	19	1	0	90	36.1581920903955	36.241610738255	12	0.400040496066213	2	8	5	NaN	2	3	0.0382915101775862	1	1	NaN	306	5	54	2	121	221	321	NaN	521	0.563333427999169	2	1	NaN	3380166.4470536	NaN	3380167.4304702	3380167.94699347
95	19	1	0	90	36.1581920903955	36.241610738255	8	0.266693664044142	2	9	2	NaN	2	4	0.0382915101775862	1	1	NaN	307	5	55	2	121	221	321	NaN	521	0.136475275270641	1	0	NaN	3380169.3139886	NaN	3380170.2974331	3380170.81393652
95	19	1	0	90	36.1581920903955	36.241610738255	10	0.333367080055177	2	5	1	NaN	1	4	0.0382915101775862	1	1	NaN	308	5	56	2	121	221	321	NaN	521	0.782381127588451	1	1	NaN	3380171.7642246	NaN	3380172.7476133	3380173.26417757
95	19	1	0	90	36.1581920903955	36.241610738255	20	0.666734160110354	2	5	3	NaN	1	4	0.0382915101775862	1	1	NaN	309	5	57	2	121	221	321	NaN	521	0.401721275411546	1	1	NaN	3380175.0811029	NaN	3380176.0645203	3380176.58116422
95	19	1	0	90	36.1581920903955	36.241610738255	15	0.500050620082766	2	10	4	NaN	2	3	0.0382915101775862	1	1	NaN	310	5	58	2	121	221	321	NaN	521	0.0103945275768638	2	1	NaN	3380177.7981641	NaN	3380178.7815355	3380179.29811547
95	19	1	0	90	36.1581920903955	36.241610738255	8	0.266693664044142	2	7	5	NaN	2	4	0.0382915101775862	1	1	NaN	311	5	59	2	121	221	321	NaN	521	0.431898523122072	1	0	NaN	3380180.1151544	NaN	3380181.0985037	3380181.61499338
95	19	1	0	90	36.1581920903955	36.241610738255	15	0.500050620082766	2	8	5	NaN	2	4	0.0382915101775862	1	1	NaN	312	5	60	2	121	221	321	NaN	521	0.313186927698553	2	1	NaN	3380182.8653334	NaN	3380183.8487223	3380184.36527527
95	19	1	0	90	36.1581920903955	36.241610738255	12	0.400040496066213	2	5	6	NaN	1	5	0.0382915101775862	1	1	NaN	313	5	61	2	121	221	321	NaN	521	2.14402187522501	1	1	NaN	3380185.4989072	NaN	3380186.482305	3380186.99885422
95	19	1	0	90	36.1581920903955	36.241610738255	14	0.466713912077248	2	7	2	NaN	2	3	0.0382915101775862	1	1	NaN	314	5	62	2	121	221	321	NaN	521	0.796930019743741	2	1	NaN	3380189.9660234	NaN	3380190.9493951	3380191.46595938
95	19	1	0	90	36.1581920903955	36.241610738255	17	0.566724036093801	2	7	4	NaN	2	5	0.0382915101775862	1	1	NaN	315	5	63	2	121	221	321	NaN	521	0.719494275283068	1	0	NaN	3380193.0829717	NaN	3380194.0663818	3380194.58294062
95	19	1	0	90	36.1581920903955	36.241610738255	24	0.800080992132425	2	7	1	NaN	2	3	0.0382915101775862	1	1	NaN	316	6	1	2	121	221	321	NaN	521	0.0103928279131651	2	1	NaN	3380223.0859201	NaN	3380224.069327	3380224.58587367
95	19	1	0	90	36.1581920903955	36.241610738255	20	0.666734160110354	2	1	5	NaN	1	3	0.0382915101775862	1	1	NaN	317	6	2	2	121	221	321	NaN	521	0.311650027986616	1	1	NaN	3380225.4028356	NaN	3380226.3862231	3380226.90277047
95	19	1	0	90	36.1581920903955	36.241610738255	6	0.200020248033106	2	9	3	NaN	2	3	0.0382915101775862	1	1	NaN	318	6	3	2	121	221	321	NaN	521	0.342909787781537	2	1	NaN	3380228.0196155	NaN	3380229.0031912	3380229.51969471
95	19	1	0	90	36.1581920903955	36.241610738255	21	0.700070868115872	2	5	3	NaN	1	3	0.0382915101775862	1	1	NaN	319	6	4	2	121	221	321	NaN	521	0.0119964275509119	2	0	NaN	3380230.6866777	NaN	3380231.6700859	3380232.18662127
95	19	1	0	90	36.1581920903955	36.241610738255	11	0.366703788060695	2	1	4	NaN	1	3	0.0382915101775862	1	1	NaN	320	6	5	2	121	221	321	NaN	521	0.36698937555775	1	1	NaN	3380233.0035695	NaN	3380233.9869649	3380234.50351152
95	19	1	0	90	36.1581920903955	36.241610738255	9	0.300030372049659	2	5	3	NaN	1	3	0.0382915101775862	1	1	NaN	321	6	6	2	121	221	321	NaN	521	0.010398528072983	1	1	NaN	3380235.6871761	NaN	3380236.670561	3380237.18711097
95	19	1	0	90	36.1581920903955	36.241610738255	25	0.833417700137943	2	5	5	NaN	1	3	0.0382915101775862	1	1	NaN	322	6	7	2	121	221	321	NaN	521	0.55029452778399	1	1	NaN	3380238.0207159	NaN	3380239.0041168	3380239.52067677
95	19	1	0	90	36.1581920903955	36.241610738255	23	0.766744284126908	2	1	4	NaN	1	5	0.0382915101775862	1	1	NaN	323	6	8	2	121	221	321	NaN	521	0.219149775803089	1	1	NaN	3380240.8876821	NaN	3380241.8710828	3380242.38761762
95	19	1	0	90	36.1581920903955	36.241610738255	23	0.766744284126908	2	9	1	NaN	2	4	0.0382915101775862	1	1	NaN	324	6	9	2	121	221	321	NaN	521	0.0934335277415812	2	1	NaN	3380243.4212461	NaN	3380244.404647	3380244.92120887
95	19	1	0	90	36.1581920903955	36.241610738255	21	0.700070868115872	2	4	6	NaN	1	3	0.0382915101775862	1	1	NaN	325	6	10	2	121	221	321	NaN	521	0.909229023382068	1	1	NaN	3380245.8214453	NaN	3380246.8048899	3380247.32143198
95	19	1	0	90	36.1581920903955	36.241610738255	16	0.533387328088283	2	9	3	NaN	2	3	0.0382915101775862	1	1	NaN	326	6	11	2	121	221	321	NaN	521	0.724607275333256	2	1	NaN	3380249.0384672	NaN	3380250.0218667	3380250.53842502
95	19	1	0	90	36.1581920903955	36.241610738255	10	0.333367080055177	2	12	2	NaN	2	5	0.0382915101775862	1	1	NaN	327	6	12	2	121	221	321	NaN	521	0.321870875544846	2	1	NaN	3380252.0887766	NaN	3380253.0722333	3380253.58872262
95	19	1	0	90	36.1581920903955	36.241610738255	24	0.800080992132425	2	9	1	NaN	2	3	0.0382915101775862	1	1	NaN	328	6	13	2	121	221	321	NaN	521	0.536142527591437	2	1	NaN	3380254.7223526	NaN	3380255.7057704	3380256.22233407
95	19	1	0	90	36.1581920903955	36.241610738255	15	0.500050620082766	2	5	4	NaN	1	4	0.0382915101775862	1	1	NaN	329	6	14	2	121	221	321	NaN	521	0.5501893395558	2	0	NaN	3380257.5725065	NaN	3380258.5560386	3380259.07259506
95	19	1	0	90	36.1581920903955	36.241610738255	22	0.73340757612139	2	3	5	NaN	1	5	0.0382915101775862	1	1	NaN	330	6	15	2	121	221	321	NaN	521	0.0102580962702632	1	1	NaN	3380260.4394592	NaN	3380261.422985	3380261.9395435
95	19	1	0	90	36.1581920903955	36.241610738255	9	0.300030372049659	2	4	4	NaN	1	5	0.0382915101775862	1	1	NaN	331	6	16	2	121	221	321	NaN	521	0.430146327707916	2	0	NaN	3380262.7563594	NaN	3380263.739873	3380264.25643267
95	19	1	0	90	36.1581920903955	36.241610738255	25	0.833417700137943	2	2	1	NaN	1	5	0.0382915101775862	1	1	NaN	332	6	17	2	121	221	321	NaN	521	0.271721527446061	1	1	NaN	3380265.5067459	NaN	3380266.4901523	3380267.00671757
95	19	1	0	90	36.1581920903955	36.241610738255	6	0.200020248033106	2	2	4	NaN	1	5	0.0382915101775862	1	1	NaN	333	6	18	2	121	221	321	NaN	521	0.160308675374836	1	1	NaN	3380268.090335	NaN	3380269.0737413	3380269.59028502
95	19	1	0	90	36.1581920903955	36.241610738255	22	0.73340757612139	2	10	4	NaN	2	4	0.0382915101775862	1	1	NaN	334	6	19	2	121	221	321	NaN	521	0.0104074757546186	1	0	NaN	3380270.5572638	NaN	3380271.5406283	3380272.05719202
95	19	1	0	90	36.1581920903955	36.241610738255	21	0.700070868115872	2	12	5	NaN	2	5	0.0382915101775862	1	1	NaN	335	6	20	2	121	221	321	NaN	521	0.143836175557226	2	1	NaN	3380272.8908062	NaN	3380273.8742011	3380274.39075992
95	19	1	0	90	36.1581920903955	36.241610738255	18	0.600060744099319	2	4	1	NaN	1	3	0.0382915101775862	1	1	NaN	336	6	21	2	121	221	321	NaN	521	1.05288494424894	1	1	NaN	3380275.3576681	NaN	3380276.3411217	3380276.85767026
95	19	1	0	90	36.1581920903955	36.241610738255	9	0.300030372049659	2	2	6	NaN	1	3	0.0382915101775862	1	1	NaN	337	6	22	2	121	221	321	NaN	521	0.0620280797593296	1	1	NaN	3380278.7247136	NaN	3380279.7081269	3380280.22466982
95	19	1	0	90	36.1581920903955	36.241610738255	24	0.800080992132425	2	2	4	NaN	1	5	0.0382915101775862	1	1	NaN	338	6	23	2	121	221	321	NaN	521	0.0104364277794957	1	1	NaN	3380281.1081556	NaN	3380282.0915862	3380282.60823467
95	19	1	0	90	36.1581920903955	36.241610738255	16	0.533387328088283	2	6	2	NaN	1	5	0.0382915101775862	1	1	NaN	339	6	24	2	121	221	321	NaN	521	0.673492727801204	1	1	NaN	3380283.4251827	NaN	3380284.4084664	3380284.92512797
95	19	1	0	90	36.1581920903955	36.241610738255	6	0.200020248033106	2	3	3	NaN	1	4	0.0382915101775862	1	1	NaN	340	6	25	2	121	221	321	NaN	521	0.562181075569242	1	1	NaN	3380286.4087952	NaN	3380287.3922146	3380287.90875142
95	19	1	0	90	36.1581920903955	36.241610738255	18	0.600060744099319	2	9	4	NaN	2	5	0.0382915101775862	1	1	NaN	341	6	26	2	121	221	321	NaN	521	0.0624693757854402	1	0	NaN	3380289.2924143	NaN	3380290.2758096	3380290.79236982
95	19	1	0	90	36.1581920903955	36.241610738255	8	0.266693664044142	2	5	5	NaN	1	4	0.0382915101775862	1	1	NaN	342	6	27	2	121	221	321	NaN	521	0.686591175850481	2	0	NaN	3380291.6759809	NaN	3380292.6593809	3380293.17593302
95	19	1	0	90	36.1581920903955	36.241610738255	11	0.366703788060695	2	4	1	NaN	1	5	0.0382915101775862	1	1	NaN	343	6	28	2	121	221	321	NaN	521	0.494446844328195	1	1	NaN	3380294.6762803	NaN	3380295.6596667	3380296.17622736
95	19	1	0	90	36.1581920903955	36.241610738255	9	0.300030372049659	2	3	4	NaN	1	3	0.0382915101775862	1	1	NaN	344	6	29	2	121	221	321	NaN	521	0.438566175755113	1	1	NaN	3380297.4765451	NaN	3380298.4599619	3380298.97649382
95	19	1	0	90	36.1581920903955	36.241610738255	18	0.600060744099319	2	10	3	NaN	2	3	0.0382915101775862	1	1	NaN	345	6	30	2	121	221	321	NaN	521	0.175932127516717	2	1	NaN	3380300.2266902	NaN	3380301.210211	3380301.72676337
95	19	1	0	90	36.1581920903955	36.241610738255	22	0.73340757612139	2	7	3	NaN	2	3	0.0382915101775862	1	1	NaN	346	6	31	2	121	221	321	NaN	521	0.500282575841993	1	0	NaN	3380302.7103911	NaN	3380303.6938	3380304.21033872
95	19	1	0	90	36.1581920903955	36.241610738255	15	0.500050620082766	2	3	6	NaN	1	4	0.0382915101775862	1	1	NaN	347	6	32	2	121	221	321	NaN	521	0.78748029191047	1	1	NaN	3380305.527353	NaN	3380306.5107312	3380307.02729891
95	19	1	0	90	36.1581920903955	36.241610738255	15	0.500050620082766	2	11	6	NaN	2	4	0.0382915101775862	1	1	NaN	348	6	33	2	121	221	321	NaN	521	0.639073275495321	1	0	NaN	3380308.6275232	NaN	3380309.6110427	3380310.12759552
95	19	1	0	90	36.1581920903955	36.241610738255	11	0.366703788060695	2	7	6	NaN	2	4	0.0382915101775862	1	1	NaN	349	6	34	2	121	221	321	NaN	521	0.0104073756374419	1	0	NaN	3380311.594597	NaN	3380312.5779984	3380313.09454472
95	19	1	0	90	36.1581920903955	36.241610738255	16	0.533387328088283	2	1	5	NaN	1	3	0.0382915101775862	1	1	NaN	350	6	35	2	121	221	321	NaN	521	0.370797175448388	1	1	NaN	3380313.9281519	NaN	3380314.9115601	3380315.42810542
95	19	1	0	90	36.1581920903955	36.241610738255	9	0.300030372049659	2	12	6	NaN	2	3	0.0382915101775862	1	1	NaN	351	6	36	2	121	221	321	NaN	521	1.29487172747031	2	1	NaN	3380316.6117807	NaN	3380317.5951611	3380318.11170767
95	19	1	0	90	36.1581920903955	36.241610738255	20	0.666734160110354	2	8	3	NaN	2	3	0.0382915101775862	1	1	NaN	352	6	37	2	121	221	321	NaN	521	0.437987428158522	2	1	NaN	3380320.2287947	NaN	3380321.212189	3380321.72873507
95	19	1	0	90	36.1581920903955	36.241610738255	6	0.200020248033106	2	1	6	NaN	1	5	0.0382915101775862	1	1	NaN	353	6	38	2	121	221	321	NaN	521	0.127619327511638	1	1	NaN	3380322.9790698	NaN	3380323.9624544	3380324.47899647
95	19	1	0	90	36.1581920903955	36.241610738255	11	0.366703788060695	2	1	3	NaN	1	3	0.0382915101775862	1	1	NaN	354	6	39	2	121	221	321	NaN	521	0.318134423345327	2	0	NaN	3380325.4126303	NaN	3380326.3960353	3380326.91257068
95	19	1	0	90	36.1581920903955	36.241610738255	7	0.233356956038624	2	2	1	NaN	1	3	0.0382915101775862	1	1	NaN	355	6	40	2	121	221	321	NaN	521	1.47684112749994	1	1	NaN	3380328.0462261	NaN	3380329.0296095	3380329.54615797
95	19	1	0	90	36.1581920903955	36.241610738255	22	0.73340757612139	2	6	5	NaN	1	5	0.0382915101775862	1	1	NaN	356	6	41	2	121	221	321	NaN	521	0.124545675702393	2	0	NaN	3380332.8465875	NaN	3380333.8300821	3380334.34663332
95	19	1	0	90	36.1581920903955	36.241610738255	15	0.500050620082766	2	7	4	NaN	2	4	0.0382915101775862	1	1	NaN	357	6	42	2	121	221	321	NaN	521	0.178506827447563	2	1	NaN	3380335.2802492	NaN	3380336.2636414	3380336.78020107
95	19	1	0	90	36.1581920903955	36.241610738255	6	0.200020248033106	2	4	5	NaN	1	5	0.0382915101775862	1	1	NaN	358	6	43	2	121	221	321	NaN	521	0.494290327653289	1	1	NaN	3380337.7804987	NaN	3380338.7639022	3380339.28045257
95	19	1	0	90	36.1581920903955	36.241610738255	8	0.266693664044142	2	2	1	NaN	1	3	0.0382915101775862	1	1	NaN	359	6	44	2	121	221	321	NaN	521	0.0104112755507231	1	1	NaN	3380340.5807847	NaN	3380341.5641735	3380342.08072102
95	19	1	0	90	36.1581920903955	36.241610738255	21	0.700070868115872	2	8	1	NaN	2	3	0.0382915101775862	1	1	NaN	360	6	45	2	121	221	321	NaN	521	1.1369621232152	1	0	NaN	3380342.8976631	NaN	3380343.881068	3380344.39762518
95	19	1	0	90	36.1581920903955	36.241610738255	22	0.73340757612139	2	1	6	NaN	1	3	0.0382915101775862	1	1	NaN	361	6	46	2	121	221	321	NaN	521	0.159186283592135	2	0	NaN	3380346.3480092	NaN	3380347.3314173	3380347.84796502
95	19	1	0	90	36.1581920903955	36.241610738255	10	0.333367080055177	2	6	3	NaN	1	5	0.0382915101775862	1	1	NaN	362	6	47	2	121	221	321	NaN	521	0.692283527925611	1	1	NaN	3380348.8149212	NaN	3380349.7983281	3380350.31486587
95	19	1	0	90	36.1581920903955	36.241610738255	20	0.666734160110354	2	9	5	NaN	2	3	0.0382915101775862	1	1	NaN	363	6	48	2	121	221	321	NaN	521	0.61967252753675	1	0	NaN	3380351.8151851	NaN	3380352.7986145	3380353.31516887
95	19	1	0	90	36.1581920903955	36.241610738255	15	0.500050620082766	2	12	4	NaN	2	4	0.0382915101775862	1	1	NaN	364	6	49	2	121	221	321	NaN	521	0.0104075758717954	1	0	NaN	3380354.7488249	NaN	3380355.7322325	3380356.24877922
95	19	1	0	90	36.1581920903955	36.241610738255	11	0.366703788060695	2	11	6	NaN	2	5	0.0382915101775862	1	1	NaN	365	6	50	2	121	221	321	NaN	521	0.0102542964741588	1	0	NaN	3380357.0824003	NaN	3380358.0657866	3380358.582362
95	19	1	0	90	36.1581920903955	36.241610738255	20	0.666734160110354	2	12	2	NaN	2	5	0.0382915101775862	1	1	NaN	366	6	51	2	121	221	321	NaN	521	0.0102859921753407	2	1	NaN	3380359.4158833	NaN	3380360.3993479	3380360.91591521
95	19	1	0	90	36.1581920903955	36.241610738255	19	0.633397452104837	2	8	2	NaN	2	4	0.0382915101775862	1	1	NaN	367	6	52	2	121	221	321	NaN	521	0.0103954277001321	1	0	NaN	3380361.7328128	NaN	3380362.7162444	3380363.23279467
95	19	1	0	90	36.1581920903955	36.241610738255	6	0.200020248033106	2	5	1	NaN	1	4	0.0382915101775862	1	1	NaN	368	6	53	2	121	221	321	NaN	521	0.505426988005638	1	1	NaN	3380364.0497511	NaN	3380365.0331328	3380365.54969921
95	19	1	0	90	36.1581920903955	36.241610738255	13	0.43337720407173	2	9	5	NaN	2	5	0.0382915101775862	1	1	NaN	369	6	54	2	121	221	321	NaN	521	0.010391179472208	2	1	NaN	3380366.8667052	NaN	3380367.8500715	3380368.36663342
95	19	1	0	90	36.1581920903955	36.241610738255	16	0.533387328088283	2	10	6	NaN	2	4	0.0382915101775862	1	1	NaN	370	6	55	2	121	221	321	NaN	521	0.322522927541286	2	1	NaN	3380369.200265	NaN	3380370.1836428	3380370.70020277
95	19	1	0	90	36.1581920903955	36.241610738255	9	0.300030372049659	2	11	5	NaN	2	3	0.0382915101775862	1	1	NaN	371	6	56	2	121	221	321	NaN	521	0.449367627967149	2	1	NaN	3380371.8338353	NaN	3380372.8172382	3380373.33378957
95	19	1	0	90	36.1581920903955	36.241610738255	15	0.500050620082766	2	9	3	NaN	2	4	0.0382915101775862	1	1	NaN	372	6	57	2	121	221	321	NaN	521	0.402368427719921	2	1	NaN	3380374.6007568	NaN	3380375.5842226	3380376.10072377
95	19	1	0	90	36.1581920903955	36.241610738255	14	0.466713912077248	2	6	1	NaN	1	4	0.0382915101775862	1	1	NaN	373	6	58	2	121	221	321	NaN	521	0.0103947278112173	1	1	NaN	3380377.317575	NaN	3380378.3011079	3380378.81765467
95	19	1	0	90	36.1581920903955	36.241610738255	0	0	1	11	1	NaN	2	5	0.0382915101775862	1	1	NaN	374	6	59	2	111	211	311	NaN	511	0.120276427827775	2	1	NaN	3380379.6344805	NaN	3380380.6179835	3380381.13455637
95	19	1	0	90	36.1581920903955	36.241610738255	25	0.833417700137943	2	11	5	NaN	2	5	0.0382915101775862	1	1	NaN	375	6	60	2	121	221	321	NaN	521	0.010375979822129	1	0	NaN	3380382.0682168	NaN	3380383.0515689	3380383.56812392
95	19	1	0	90	36.1581920903955	36.241610738255	8	0.266693664044142	2	4	4	NaN	1	3	0.0382915101775862	1	1	NaN	376	6	61	2	121	221	321	NaN	521	0.0104117756709456	1	1	NaN	3380384.3850308	NaN	3380385.3684696	3380385.88501692
95	19	1	0	90	36.1581920903955	36.241610738255	23	0.766744284126908	2	4	2	NaN	1	5	0.0382915101775862	1	1	NaN	377	6	62	2	121	221	321	NaN	521	0.116870675701648	1	1	NaN	3380386.7018364	NaN	3380387.6853907	3380388.20191032
95	19	1	0	90	36.1581920903955	36.241610738255	14	0.466713912077248	2	7	3	NaN	2	3	0.0382915101775862	1	1	NaN	378	6	63	2	121	221	321	NaN	521	0.010394127573818	1	0	NaN	3380389.1355392	NaN	3380390.1189224	3380390.63548607
95	19	1	0	90	36.1581920903955	36.241610738255	12	0.400040496066213	2	9	6	NaN	2	5	0.0382915101775862	1	1	NaN	379	7	1	2	121	221	321	NaN	521	0.278894971590489	1	0	NaN	3380408.404085	NaN	3380409.3874857	3380409.90403673
95	19	1	0	90	36.1581920903955	36.241610738255	12	0.400040496066213	2	6	4	NaN	1	4	0.0382915101775862	1	1	NaN	380	7	2	2	121	221	321	NaN	521	0.69446602743119	2	0	NaN	3380411.0043476	NaN	3380411.9877405	3380412.50428747
95	19	1	0	90	36.1581920903955	36.241610738255	14	0.466713912077248	2	9	2	NaN	2	4	0.0382915101775862	1	1	NaN	381	7	3	2	121	221	321	NaN	521	0.550170975271612	2	1	NaN	3380414.0046339	NaN	3380414.9880278	3380415.50458992
95	19	1	0	90	36.1581920903955	36.241610738255	17	0.566724036093801	2	6	2	NaN	1	5	0.0382915101775862	1	1	NaN	382	7	4	2	121	221	321	NaN	521	0.627724427729845	1	1	NaN	3380416.8716003	NaN	3380417.8549803	3380418.37153877
95	19	1	0	90	36.1581920903955	36.241610738255	17	0.566724036093801	2	5	2	NaN	1	4	0.0382915101775862	1	1	NaN	383	7	5	2	121	221	321	NaN	521	0.285373475402594	1	1	NaN	3380419.8217548	NaN	3380420.8052843	3380421.32182332
95	19	1	0	90	36.1581920903955	36.241610738255	14	0.466713912077248	2	2	6	NaN	1	4	0.0382915101775862	1	1	NaN	384	7	6	2	121	221	321	NaN	521	0.0104390233755112	1	1	NaN	3380422.4221786	NaN	3380423.405524	3380423.92207598
95	19	1	0	90	36.1581920903955	36.241610738255	0	0	1	7	3	NaN	2	3	0.0382915101775862	1	1	NaN	385	7	7	2	111	211	311	NaN	511	0.648227875120938	1	0	NaN	3380424.739031	NaN	3380425.7224169	3380426.23897372
95	19	1	0	90	36.1581920903955	36.241610738255	6	0.200020248033106	2	8	4	NaN	2	4	0.0382915101775862	1	1	NaN	386	7	8	2	121	221	321	NaN	521	1.04080842342228	2	1	NaN	3380427.7060071	NaN	3380428.6893812	3380429.20592158
95	19	1	0	90	36.1581920903955	36.241610738255	6	0.200020248033106	2	12	3	NaN	2	5	0.0382915101775862	1	1	NaN	387	7	9	2	121	221	321	NaN	521	0.68255532765761	1	0	NaN	3380431.0563358	NaN	3380432.0397156	3380432.55625567
95	19	1	0	90	36.1581920903955	36.241610738255	11	0.366703788060695	2	4	4	NaN	1	3	0.0382915101775862	1	1	NaN	388	7	10	2	121	221	321	NaN	521	0.0103957275860012	1	1	NaN	3380434.0566203	NaN	3380435.040004	3380435.55654997
95	19	1	0	90	36.1581920903955	36.241610738255	11	0.366703788060695	2	3	4	NaN	1	5	0.0382915101775862	1	1	NaN	389	7	11	2	121	221	321	NaN	521	0.893356727901846	1	1	NaN	3380436.3734939	NaN	3380437.3568914	3380437.87344787
95	19	1	0	90	36.1581920903955	36.241610738255	0	0	1	4	3	NaN	1	5	0.0382915101775862	1	1	NaN	390	7	12	2	111	211	311	NaN	511	0.0103971278294921	1	1	NaN	3380439.5738202	NaN	3380440.5572335	3380441.07376377
95	19	1	0	90	36.1581920903955	36.241610738255	16	0.533387328088283	2	3	6	NaN	1	4	0.0382915101775862	1	1	NaN	391	7	13	2	121	221	321	NaN	521	0.191571427509189	1	1	NaN	3380441.9073421	NaN	3380442.8907715	3380443.40732597
95	19	1	0	90	36.1581920903955	36.241610738255	19	0.633397452104837	2	9	1	NaN	2	5	0.0382915101775862	1	1	NaN	392	7	14	2	121	221	321	NaN	521	0.179309227503836	1	0	NaN	3380444.4077305	NaN	3380445.3910044	3380445.90756957
95	19	1	0	90	36.1581920903955	36.241610738255	15	0.500050620082766	2	4	5	NaN	1	4	0.0382915101775862	1	1	NaN	393	7	15	2	121	221	321	NaN	521	0.182963227853179	1	1	NaN	3380446.9078527	NaN	3380447.8912598	3380448.40781857
95	19	1	0	90	36.1581920903955	36.241610738255	11	0.366703788060695	2	5	3	NaN	1	3	0.0382915101775862	1	1	NaN	394	7	16	2	121	221	321	NaN	521	0.491194927599281	1	1	NaN	3380449.4081143	NaN	3380450.3915015	3380450.90805057
95	19	1	0	90	36.1581920903955	36.241610738255	15	0.500050620082766	2	6	3	NaN	1	5	0.0382915101775862	1	1	NaN	395	7	17	2	121	221	321	NaN	521	0.922445827629417	1	1	NaN	3380452.2083684	NaN	3380453.1917755	3380453.70832467
95	19	1	0	90	36.1581920903955	36.241610738255	18	0.600060744099319	2	4	6	NaN	1	4	0.0382915101775862	1	1	NaN	396	7	18	2	121	221	321	NaN	521	0.0103937280364335	1	1	NaN	3380455.4420349	NaN	3380456.4254282	3380456.94198307
95	19	1	0	90	36.1581920903955	36.241610738255	0	0	1	4	6	NaN	1	3	0.0382915101775862	1	1	NaN	397	7	19	2	111	211	311	NaN	511	0.0103946276940405	1	1	NaN	3380457.7589295	NaN	3380458.7422939	3380459.25887427
95	19	1	0	90	36.1581920903955	36.241610738255	15	0.500050620082766	2	10	3	NaN	2	5	0.0382915101775862	1	1	NaN	398	7	20	2	121	221	321	NaN	521	0.486453727819026	1	0	NaN	3380460.0925186	NaN	3380461.0758983	3380461.59243857
95	19	1	0	90	36.1581920903955	36.241610738255	25	0.833417700137943	2	5	6	NaN	1	5	0.0382915101775862	1	1	NaN	399	7	21	2	121	221	321	NaN	521	0.534496871754527	1	1	NaN	3380462.8927574	NaN	3380463.8761611	3380464.39270363
95	19	1	0	90	36.1581920903955	36.241610738255	14	0.466713912077248	2	1	3	NaN	1	5	0.0382915101775862	1	1	NaN	400	7	22	2	121	221	321	NaN	521	0.39598582778126	2	0	NaN	3380465.7430688	NaN	3380466.7264382	3380467.24299697
95	19	1	0	90	36.1581920903955	36.241610738255	20	0.666734160110354	2	12	3	NaN	2	5	0.0382915101775862	1	1	NaN	401	7	23	2	121	221	321	NaN	521	0.423760075587779	2	1	NaN	3380468.4433108	NaN	3380469.4267461	3380469.94325882
95	19	1	0	90	36.1581920903955	36.241610738255	15	0.500050620082766	2	5	5	NaN	1	4	0.0382915101775862	1	1	NaN	402	7	24	2	121	221	321	NaN	521	0.0103936279192567	1	1	NaN	3380471.1768997	NaN	3380472.1603159	3380472.67685617
95	19	1	0	90	36.1581920903955	36.241610738255	9	0.300030372049659	2	9	2	NaN	2	3	0.0382915101775862	1	1	NaN	403	7	25	2	121	221	321	NaN	521	0.0104518756270409	2	1	NaN	3380473.4937836	NaN	3380474.4772369	3380474.99374262
95	19	1	0	90	36.1581920903955	36.241610738255	17	0.566724036093801	2	2	4	NaN	1	5	0.0382915101775862	1	1	NaN	404	7	26	2	121	221	321	NaN	521	0.0103763798251748	1	1	NaN	3380475.8107056	NaN	3380476.7940896	3380477.31065102
95	19	1	0	90	36.1581920903955	36.241610738255	25	0.833417700137943	2	11	1	NaN	2	5	0.0382915101775862	1	1	NaN	405	7	27	2	121	221	321	NaN	521	0.707809127867222	1	0	NaN	3380478.127594	NaN	3380479.1110153	3380479.62753757
95	19	1	0	90	36.1581920903955	36.241610738255	10	0.333367080055177	2	2	5	NaN	1	5	0.0382915101775862	1	1	NaN	406	7	28	2	121	221	321	NaN	521	0.298867975827307	1	1	NaN	3380481.1445448	NaN	3380482.1279395	3380482.64449812
95	19	1	0	90	36.1581920903955	36.241610738255	24	0.800080992132425	2	10	6	NaN	2	5	0.0382915101775862	1	1	NaN	407	7	29	2	121	221	321	NaN	521	0.417414127849042	1	0	NaN	3380483.7613484	NaN	3380484.744875	3380485.26142627
95	19	1	0	90	36.1581920903955	36.241610738255	19	0.633397452104837	2	4	3	NaN	1	5	0.0382915101775862	1	1	NaN	408	7	30	2	121	221	321	NaN	521	0.252300200052559	1	1	NaN	3380486.4949637	NaN	3380487.4785127	3380487.9950353
95	19	1	0	90	36.1581920903955	36.241610738255	10	0.333367080055177	2	8	6	NaN	2	3	0.0382915101775862	1	1	NaN	409	7	31	2	121	221	321	NaN	521	0.613381127826869	1	0	NaN	3380489.0619863	NaN	3380490.0454012	3380490.56194447
95	19	1	0	90	36.1581920903955	36.241610738255	24	0.800080992132425	2	7	1	NaN	2	3	0.0382915101775862	1	1	NaN	410	7	32	2	121	221	321	NaN	521	0.799437523353845	2	1	NaN	3380491.9956204	NaN	3380492.9790095	3380493.49556098
95	19	1	0	90	36.1581920903955	36.241610738255	17	0.566724036093801	2	12	4	NaN	2	3	0.0382915101775862	1	1	NaN	411	7	33	2	121	221	321	NaN	521	0.330615675542504	1	0	NaN	3380495.1125838	NaN	3380496.0959954	3380496.61252932
95	19	1	0	90	36.1581920903955	36.241610738255	15	0.500050620082766	2	6	5	NaN	1	5	0.0382915101775862	1	1	NaN	412	7	34	2	121	221	321	NaN	521	0.0104064275510609	2	0	NaN	3380497.7628501	NaN	3380498.7462325	3380499.26279047
95	19	1	0	90	36.1581920903955	36.241610738255	18	0.600060744099319	2	8	4	NaN	2	3	0.0382915101775862	1	1	NaN	413	7	35	2	121	221	321	NaN	521	0.218567327596247	1	0	NaN	3380500.0963992	NaN	3380501.0798002	3380501.59635947
95	19	1	0	90	36.1581920903955	36.241610738255	14	0.466713912077248	2	5	6	NaN	1	5	0.0382915101775862	1	1	NaN	414	7	36	2	121	221	321	NaN	521	1.04498007567599	2	0	NaN	3380502.6300098	NaN	3380503.6133831	3380504.12993682
95	19	1	0	90	36.1581920903955	36.241610738255	9	0.300030372049659	2	9	3	NaN	2	4	0.0382915101775862	1	1	NaN	415	7	37	2	121	221	321	NaN	521	0.213963623624295	2	1	NaN	3380505.996974	NaN	3380506.9803839	3380507.49692718
95	19	1	0	90	36.1581920903955	36.241610738255	8	0.266693664044142	2	3	2	NaN	1	5	0.0382915101775862	1	1	NaN	416	7	38	2	121	221	321	NaN	521	0.0885050273500383	1	1	NaN	3380508.530562	NaN	3380509.5139661	3380510.03052067
95	19	1	0	90	36.1581920903955	36.241610738255	8	0.266693664044142	2	11	3	NaN	2	3	0.0382915101775862	1	1	NaN	417	7	39	2	121	221	321	NaN	521	0.0104156755842268	1	0	NaN	3380510.930915	NaN	3380511.9141962	3380512.43075442
95	19	1	0	90	36.1581920903955	36.241610738255	7	0.233356956038624	2	4	2	NaN	1	5	0.0382915101775862	1	1	NaN	418	7	40	2	121	221	321	NaN	521	0.499192275572568	1	1	NaN	3380513.2477061	NaN	3380514.2311363	3380514.74764542
95	19	1	0	90	36.1581920903955	36.241610738255	22	0.73340757612139	2	12	3	NaN	2	4	0.0382915101775862	1	1	NaN	419	7	41	2	121	221	321	NaN	521	0.0103899273090065	1	0	NaN	3380516.0646553	NaN	3380517.0480377	3380517.56458987
95	19	1	0	90	36.1581920903955	36.241610738255	8	0.266693664044142	2	6	2	NaN	1	5	0.0382915101775862	1	1	NaN	420	7	42	2	121	221	321	NaN	521	0.0768346916884184	1	1	NaN	3380518.3982088	NaN	3380519.3815931	3380519.89816131
95	19	1	0	90	36.1581920903955	36.241610738255	8	0.266693664044142	2	12	4	NaN	2	5	0.0382915101775862	1	1	NaN	421	7	43	2	121	221	321	NaN	521	0.701194175519049	2	1	NaN	3380520.7818181	NaN	3380521.7652079	3380522.28171162
95	19	1	0	90	36.1581920903955	36.241610738255	21	0.700070868115872	2	7	2	NaN	2	3	0.0382915101775862	1	1	NaN	422	7	44	2	121	221	321	NaN	521	0.492214127909392	2	1	NaN	3380523.7987325	NaN	3380524.782134	3380525.29868117
95	19	1	0	90	36.1581920903955	36.241610738255	12	0.400040496066213	2	5	4	NaN	1	4	0.0382915101775862	1	1	NaN	423	7	45	2	121	221	321	NaN	521	0.0104224234819412	1	1	NaN	3380526.5990097	NaN	3380527.5824137	3380528.09894638
95	19	1	0	90	36.1581920903955	36.241610738255	13	0.43337720407173	2	4	3	NaN	1	5	0.0382915101775862	1	1	NaN	424	7	46	2	121	221	321	NaN	521	0.0103971273638308	1	1	NaN	3380528.9325578	NaN	3380529.9159571	3380530.43251527
95	19	1	0	90	36.1581920903955	36.241610738255	25	0.833417700137943	2	7	6	NaN	2	4	0.0382915101775862	1	1	NaN	425	7	47	2	121	221	321	NaN	521	0.0104579757899046	1	0	NaN	3380531.2661267	NaN	3380532.2495322	3380532.76607532
95	19	1	0	90	36.1581920903955	36.241610738255	16	0.533387328088283	2	7	3	NaN	2	3	0.0382915101775862	1	1	NaN	426	7	48	2	121	221	321	NaN	521	0.419924328103662	1	0	NaN	3380533.58306	NaN	3380534.5664533	3380535.08297487
95	19	1	0	90	36.1581920903955	36.241610738255	6	0.200020248033106	2	6	4	NaN	1	3	0.0382915101775862	1	1	NaN	427	7	49	2	121	221	321	NaN	521	0.0104097751900554	1	1	NaN	3380536.3165186	NaN	3380537.3000227	3380537.81657772
95	19	1	0	90	36.1581920903955	36.241610738255	22	0.73340757612139	2	11	3	NaN	2	4	0.0382915101775862	1	1	NaN	428	7	50	2	121	221	321	NaN	521	0.369562827516347	1	0	NaN	3380538.6334165	NaN	3380539.6169187	3380540.13347117
95	19	1	0	90	36.1581920903955	36.241610738255	7	0.233356956038624	2	6	1	NaN	1	4	0.0382915101775862	1	1	NaN	429	7	51	2	121	221	321	NaN	521	0.0780395758338273	2	0	NaN	3380541.3171301	NaN	3380542.300537	3380542.81705872
95	19	1	0	90	36.1581920903955	36.241610738255	14	0.466713912077248	2	9	2	NaN	2	4	0.0382915101775862	1	1	NaN	430	7	52	2	121	221	321	NaN	521	0.32631082739681	1	0	NaN	3380543.7006883	NaN	3380544.684064	3380545.20062607
95	19	1	0	90	36.1581920903955	36.241610738255	18	0.600060744099319	2	5	4	NaN	1	4	0.0382915101775862	1	1	NaN	431	7	53	2	121	221	321	NaN	521	0.156266227830201	1	1	NaN	3380546.3509343	NaN	3380547.3343364	3380547.85089387
95	19	1	0	90	36.1581920903955	36.241610738255	7	0.233356956038624	2	12	3	NaN	2	5	0.0382915101775862	1	1	NaN	432	7	54	2	121	221	321	NaN	521	0.0103970277123153	1	0	NaN	3380548.817869	NaN	3380549.8012479	3380550.31780437
95	19	1	0	90	36.1581920903955	36.241610738255	0	0	1	12	1	NaN	2	5	0.0382915101775862	1	1	NaN	433	7	55	2	111	211	311	NaN	511	0.0103962277062237	2	1	NaN	3380551.1347358	NaN	3380552.1181309	3380552.63469857
95	19	1	0	90	36.1581920903955	36.241610738255	14	0.466713912077248	2	4	1	NaN	1	4	0.0382915101775862	1	1	NaN	434	7	56	2	121	221	321	NaN	521	0.519226723350585	1	1	NaN	3380553.4683306	NaN	3380554.4517145	3380554.96824908
95	19	1	0	90	36.1581920903955	36.241610738255	8	0.266693664044142	2	11	2	NaN	2	5	0.0382915101775862	1	1	NaN	435	7	57	2	121	221	321	NaN	521	0.125559075269848	1	0	NaN	3380556.3019158	NaN	3380557.2852922	3380557.80186032
95	19	1	0	90	36.1581920903955	36.241610738255	21	0.700070868115872	2	12	6	NaN	2	4	0.0382915101775862	1	1	NaN	436	7	58	2	121	221	321	NaN	521	0.507560127414763	2	1	NaN	3380558.7354605	NaN	3380559.7188842	3380560.23544317
95	19	1	0	90	36.1581920903955	36.241610738255	22	0.73340757612139	2	1	2	NaN	1	4	0.0382915101775862	1	1	NaN	437	7	59	2	121	221	321	NaN	521	0.21913677547127	2	0	NaN	3380561.552417	NaN	3380562.5357906	3380563.05237792
95	19	1	0	90	36.1581920903955	36.241610738255	20	0.666734160110354	2	6	6	NaN	1	5	0.0382915101775862	1	1	NaN	438	7	60	2	121	221	321	NaN	521	0.709102944005281	1	1	NaN	3380564.0860345	NaN	3380565.0694183	3380565.58596556
95	19	1	0	90	36.1581920903955	36.241610738255	7	0.233356956038624	2	6	4	NaN	1	3	0.0382915101775862	1	1	NaN	439	7	61	2	121	221	321	NaN	521	0.563958275597543	1	1	NaN	3380567.1029607	NaN	3380568.0863595	3380568.60291722
95	19	1	0	90	36.1581920903955	36.241610738255	9	0.300030372049659	2	5	3	NaN	1	4	0.0382915101775862	1	1	NaN	440	7	62	2	121	221	321	NaN	521	0.0104104755446315	1	1	NaN	3380569.96992	NaN	3380570.953366	3380571.46986462
95	19	1	0	90	36.1581920903955	36.241610738255	21	0.700070868115872	2	6	1	NaN	1	4	0.0382915101775862	1	1	NaN	441	7	63	2	121	221	321	NaN	521	0.0104604759253561	1	1	NaN	3380572.303492	NaN	3380573.2868865	3380573.80342662
95	19	1	0	90	36.1581920903955	36.241610738255	8	0.266693664044142	2	12	5	NaN	2	3	0.0382915101775862	1	1	NaN	442	8	1	2	121	221	321	NaN	521	0.0104095754213631	1	0	NaN	3380583.1044147	NaN	3380584.0879343	3380584.60449412
95	19	1	0	90	36.1581920903955	36.241610738255	11	0.366703788060695	2	3	5	NaN	1	5	0.0382915101775862	1	1	NaN	443	8	2	2	121	221	321	NaN	521	0.133851527702063	1	1	NaN	3380585.4214639	NaN	3380586.4048416	3380586.92139007
95	19	1	0	90	36.1581920903955	36.241610738255	14	0.466713912077248	2	10	3	NaN	2	5	0.0382915101775862	1	1	NaN	444	8	3	2	121	221	321	NaN	521	0.0104100755415857	2	1	NaN	3380587.8717001	NaN	3380588.8550796	3380589.37162652
95	19	1	0	90	36.1581920903955	36.241610738255	11	0.366703788060695	2	10	5	NaN	2	3	0.0382915101775862	1	1	NaN	445	8	4	2	121	221	321	NaN	521	0.62976722791791	2	1	NaN	3380590.2052502	NaN	3380591.1886215	3380591.70518907
95	19	1	0	90	36.1581920903955	36.241610738255	18	0.600060744099319	2	1	3	NaN	1	3	0.0382915101775862	1	1	NaN	446	8	5	2	121	221	321	NaN	521	0.464697127696127	2	0	NaN	3380593.1388535	NaN	3380594.1223157	3380594.63881037
95	19	1	0	90	36.1581920903955	36.241610738255	21	0.700070868115872	2	2	6	NaN	1	5	0.0382915101775862	1	1	NaN	447	8	6	2	121	221	321	NaN	521	0.129064527805895	2	0	NaN	3380595.9224638	NaN	3380596.9058391	3380597.42241627
95	19	1	0	90	36.1581920903955	36.241610738255	20	0.666734160110354	2	4	4	NaN	1	3	0.0382915101775862	1	1	NaN	448	8	7	2	121	221	321	NaN	521	0.0104334279894829	2	0	NaN	3380598.3727193	NaN	3380599.3560953	3380599.87266017
95	19	1	0	90	36.1581920903955	36.241610738255	22	0.73340757612139	2	10	1	NaN	2	4	0.0382915101775862	1	1	NaN	449	8	8	2	121	221	321	NaN	521	0.0175175233744085	1	0	NaN	3380600.6896048	NaN	3380601.6728892	3380602.18954028
95	19	1	0	90	36.1581920903955	36.241610738255	7	0.233356956038624	2	1	1	NaN	1	5	0.0382915101775862	1	1	NaN	450	8	9	2	121	221	321	NaN	521	0.723875375464559	1	1	NaN	3380603.023156	NaN	3380604.0065633	3380604.52310362
95	19	1	0	90	36.1581920903955	36.241610738255	20	0.666734160110354	2	6	3	NaN	1	4	0.0382915101775862	1	1	NaN	451	8	10	2	121	221	321	NaN	521	0.938308083917946	1	1	NaN	3380606.0567936	NaN	3380607.0402008	3380607.55674442
95	19	1	0	90	36.1581920903955	36.241610738255	10	0.333367080055177	2	6	1	NaN	1	4	0.0382915101775862	1	1	NaN	452	8	11	2	121	221	321	NaN	521	0.736381827387959	1	1	NaN	3380609.3069882	NaN	3380610.2905109	3380610.80708217
95	19	1	0	90	36.1581920903955	36.241610738255	8	0.266693664044142	2	8	5	NaN	2	3	0.0382915101775862	1	1	NaN	453	8	12	2	121	221	321	NaN	521	0.101794827729464	1	0	NaN	3380612.3574186	NaN	3380613.3408025	3380613.85735447
95	19	1	0	90	36.1581920903955	36.241610738255	24	0.800080992132425	2	3	6	NaN	1	5	0.0382915101775862	1	1	NaN	454	8	13	2	121	221	321	NaN	521	0.412809183355421	1	1	NaN	3380614.7743096	NaN	3380615.7577079	3380616.27426782
95	19	1	0	90	36.1581920903955	36.241610738255	15	0.500050620082766	2	4	3	NaN	1	5	0.0382915101775862	1	1	NaN	455	8	14	2	121	221	321	NaN	521	0.711150123272091	1	1	NaN	3380617.5077923	NaN	3380618.4912257	3380619.00785738
95	19	1	0	90	36.1581920903955	36.241610738255	13	0.43337720407173	2	7	3	NaN	2	4	0.0382915101775862	1	1	NaN	456	8	15	2	121	221	321	NaN	521	0.374113275669515	1	0	NaN	3380620.5248846	NaN	3380621.5082805	3380622.02483212
95	19	1	0	90	36.1581920903955	36.241610738255	0	0	1	10	5	NaN	2	4	0.0382915101775862	1	1	NaN	457	8	16	2	111	211	311	NaN	511	2.13093542773277	2	1	NaN	3380623.2085747	NaN	3380624.1918661	3380624.70842077
95	19	1	0	90	36.1581920903955	36.241610738255	6	0.200020248033106	2	10	6	NaN	2	5	0.0382915101775862	1	1	NaN	458	8	17	2	121	221	321	NaN	521	0.128277971874923	2	1	NaN	3380627.6588989	NaN	3380628.6423214	3380629.15885193
