subjno	age	gender	isPractice	viewdist	CmToPixX	CmToPixY	SOA_frm	SOA_time	targNum	targID	targExample	targRace	targGender	firstTargPos	contrast	familiarity	curr_staircase	iStair	TrialNum	BlockNum	blktrl	sessionNum	TC_FIXATION	TC_RSVP_START	TC_RSVP_END	TC_BLANK	TC_RESPONSE_ONSET	RT2afc	resp_2afc	acc	RSVPOnsetVBL	RSVPOnsetTime	RSVPOffsetVBL	RSVPOffsetTime	startrt_2afc
117	23	0	0	90	36.1581920903955	36.241610738255	18	0.600041951537132	2	10	1	NaN	2	4	0.0501030471703878	1	1	NaN	1	1	1	2	121	221	321	NaN	521	0.991954259574413	1	0	NaN	5704831.2994298	NaN	5704832.2826827	5704832.81581314
117	23	0	0	90	36.1581920903955	36.241610738255	12	0.400027967691422	2	2	4	NaN	1	4	0.0501030471703878	1	1	NaN	2	1	2	2	121	221	321	NaN	521	1.82519777491689	2	0	NaN	5704834.6664172	NaN	5704835.6496907	5704836.18280623
117	23	0	0	90	36.1581920903955	36.241610738255	12	0.400027967691422	2	6	6	NaN	1	4	0.0501030471703878	1	1	NaN	3	1	3	2	121	221	321	NaN	521	0.342713512480259	1	1	NaN	5704838.9331984	NaN	5704839.91668	5704840.43322079
117	23	0	0	90	36.1581920903955	36.241610738255	10	0.333356639742851	2	10	4	NaN	2	5	0.0501030471703878	1	1	NaN	4	1	4	2	121	221	321	NaN	521	0.29187158960849	1	0	NaN	5704841.600208	NaN	5704842.5836244	5704843.10016431
117	23	0	0	90	36.1581920903955	36.241610738255	12	0.400027967691422	2	3	3	NaN	1	3	0.0501030471703878	1	1	NaN	5	1	5	2	121	221	321	NaN	521	0.699127621948719	1	1	NaN	5704844.2171533	NaN	5704845.2005546	5704845.71707538
117	23	0	0	90	36.1581920903955	36.241610738255	8	0.266685311794281	2	11	5	NaN	2	4	0.0501030471703878	1	1	NaN	6	1	6	2	121	221	321	NaN	521	0.449691968970001	1	0	NaN	5704847.2341241	NaN	5704848.2175893	5704848.73403853
117	23	0	0	90	36.1581920903955	36.241610738255	22	0.733384607434273	2	4	1	NaN	1	3	0.0501030471703878	1	1	NaN	7	1	7	2	121	221	321	NaN	521	0.507242470048368	1	1	NaN	5704850.0010298	NaN	5704850.9844335	5704851.50097433
117	23	0	0	90	36.1581920903955	36.241610738255	17	0.566706287562847	2	1	1	NaN	1	3	0.0501030471703878	1	1	NaN	8	1	8	2	121	221	321	NaN	521	0.081319522112608	1	1	NaN	5704852.8345175	NaN	5704853.8180582	5704854.33458758
117	23	0	0	90	36.1581920903955	36.241610738255	22	0.733384607434273	2	1	2	NaN	1	3	0.0501030471703878	1	1	NaN	9	1	9	2	121	221	321	NaN	521	0.273206270299852	1	1	NaN	5704855.2349578	NaN	5704856.2182834	5704856.73482713
117	23	0	0	90	36.1581920903955	36.241610738255	10	0.333356639742851	2	4	3	NaN	1	3	0.0501030471703878	1	1	NaN	10	1	10	2	121	221	321	NaN	521	0.353898169472814	1	1	NaN	5704857.8183641	NaN	5704858.8018727	5704859.31840893
117	23	0	0	90	36.1581920903955	36.241610738255	14	0.466699295639992	2	10	6	NaN	2	5	0.0501030471703878	1	1	NaN	11	1	11	2	121	221	321	NaN	521	0.229727869853377	1	0	NaN	5704860.5020557	NaN	5704861.4854732	5704862.00201283
117	23	0	0	90	36.1581920903955	36.241610738255	23	0.766720271408558	2	11	2	NaN	2	5	0.0501030471703878	1	1	NaN	12	1	12	2	121	221	321	NaN	521	0.0315255420282483	2	1	NaN	5704863.0523083	NaN	5704864.0357148	5704864.55226546
117	23	0	0	90	36.1581920903955	36.241610738255	25	0.833391599357128	2	9	2	NaN	2	3	0.0501030471703878	1	1	NaN	13	1	13	2	121	221	321	NaN	521	0.233309568837285	2	1	NaN	5704865.4024028	NaN	5704866.385975	5704866.90249273
117	23	0	0	90	36.1581920903955	36.241610738255	13	0.433363631665707	2	1	6	NaN	1	5	0.0501030471703878	1	1	NaN	14	1	14	2	121	221	321	NaN	521	0.235106422565877	1	1	NaN	5704867.9528243	NaN	5704868.9361951	5704869.45274888
117	23	0	0	90	36.1581920903955	36.241610738255	0	0	1	3	5	NaN	1	5	0.0501030471703878	1	1	NaN	15	1	15	2	111	211	311	NaN	511	0.149026163853705	1	1	NaN	5704870.5030404	NaN	5704871.4864499	5704872.00299474
117	23	0	0	90	36.1581920903955	36.241610738255	16	0.533370623588562	2	1	2	NaN	1	4	0.0501030471703878	1	1	NaN	16	1	16	2	121	221	321	NaN	521	0.19384106900543	1	1	NaN	5704872.9699568	NaN	5704873.9533557	5704874.46990053
117	23	0	0	90	36.1581920903955	36.241610738255	25	0.833391599357128	2	10	1	NaN	2	4	0.0501030471703878	1	1	NaN	17	1	17	2	121	221	321	NaN	521	0.0104071693494916	1	0	NaN	5704875.486846	NaN	5704876.4702785	5704876.98681553
117	23	0	0	90	36.1581920903955	36.241610738255	6	0.200013983845711	2	2	4	NaN	1	3	0.0501030471703878	1	1	NaN	18	1	18	2	121	221	321	NaN	521	0.143915569409728	1	1	NaN	5704877.8204274	NaN	5704878.8038292	5704879.32037183
117	23	0	0	90	36.1581920903955	36.241610738255	25	0.833391599357128	2	7	4	NaN	2	5	0.0501030471703878	1	1	NaN	19	1	19	2	121	221	321	NaN	521	0.116792669519782	2	1	NaN	5704880.2873372	NaN	5704881.2707719	5704881.78728103
117	23	0	0	90	36.1581920903955	36.241610738255	16	0.533370623588562	2	5	1	NaN	1	5	0.0501030471703878	1	1	NaN	20	1	20	2	121	221	321	NaN	521	0.187470079399645	1	1	NaN	5704882.7208888	NaN	5704883.7042132	5704884.22085572
117	23	0	0	90	36.1581920903955	36.241610738255	10	0.333356639742851	2	11	2	NaN	2	4	0.0501030471703878	1	1	NaN	21	1	21	2	121	221	321	NaN	521	0.71022466942668	1	0	NaN	5704885.237826	NaN	5704886.2212319	5704886.73777033
117	23	0	0	90	36.1581920903955	36.241610738255	20	0.666713279485702	2	11	3	NaN	2	4	0.0501030471703878	1	1	NaN	22	1	22	2	121	221	321	NaN	521	0.141000722534955	2	1	NaN	5704888.2714538	NaN	5704889.2548848	5704889.77140648
117	23	0	0	90	36.1581920903955	36.241610738255	17	0.566706287562847	2	2	2	NaN	1	3	0.0501030471703878	1	1	NaN	23	1	23	2	121	221	321	NaN	521	0.081538469530642	1	1	NaN	5704890.7383635	NaN	5704891.7217697	5704892.23831223
117	23	0	0	90	36.1581920903955	36.241610738255	21	0.700048943459988	2	4	5	NaN	1	3	0.0501030471703878	1	1	NaN	24	1	24	2	121	221	321	NaN	521	0.897445169277489	1	1	NaN	5704893.1385994	NaN	5704894.1220249	5704894.63854353
117	23	0	0	90	36.1581920903955	36.241610738255	16	0.533370623588562	2	1	6	NaN	1	5	0.0501030471703878	1	1	NaN	25	1	25	2	121	221	321	NaN	521	0.472763168625534	1	1	NaN	5704896.3556122	NaN	5704897.3389872	5704897.85553193
117	23	0	0	90	36.1581920903955	36.241610738255	24	0.800055935382843	2	5	1	NaN	1	3	0.0501030471703878	1	1	NaN	26	1	26	2	121	221	321	NaN	521	0.320148622617126	1	1	NaN	5704899.1558569	NaN	5704900.1392494	5704900.65581168
117	23	0	0	90	36.1581920903955	36.241610738255	15	0.500034959614277	2	10	5	NaN	2	5	0.0501030471703878	1	1	NaN	27	1	27	2	121	221	321	NaN	521	0.23132112249732	1	0	NaN	5704901.789454	NaN	5704902.7728366	5704903.28940538
117	23	0	0	90	36.1581920903955	36.241610738255	24	0.800055935382843	2	11	1	NaN	2	4	0.0501030471703878	1	1	NaN	28	1	28	2	121	221	321	NaN	521	0.328288517892361	2	1	NaN	5704904.339703	NaN	5704905.3230972	5704905.83965068
117	23	0	0	90	36.1581920903955	36.241610738255	23	0.766720271408558	2	2	3	NaN	1	4	0.0501030471703878	1	1	NaN	29	1	29	2	121	221	321	NaN	521	1.35799556970596	1	1	NaN	5704906.9899536	NaN	5704907.9733615	5704908.48990673
117	23	0	0	90	36.1581920903955	36.241610738255	7	0.233349647819996	2	10	4	NaN	2	3	0.0501030471703878	1	1	NaN	30	1	30	2	121	221	321	NaN	521	0.555451069958508	2	1	NaN	5704910.6569863	NaN	5704911.6403863	5704912.15693193
117	23	0	0	90	36.1581920903955	36.241610738255	16	0.533370623588562	2	2	1	NaN	1	5	0.0501030471703878	1	1	NaN	31	1	31	2	121	221	321	NaN	521	0.264113964512944	1	1	NaN	5704913.523924	NaN	5704914.5073189	5704915.02387904
117	23	0	0	90	36.1581920903955	36.241610738255	21	0.700048943459988	2	11	3	NaN	2	5	0.0501030471703878	1	1	NaN	32	1	32	2	121	221	321	NaN	521	0.256916869431734	2	1	NaN	5704916.1075609	NaN	5704917.0909264	5704917.60746613
117	23	0	0	90	36.1581920903955	36.241610738255	11	0.366692303717136	2	1	5	NaN	1	3	0.0501030471703878	1	1	NaN	33	1	33	2	121	221	321	NaN	521	2.07300936896354	2	0	NaN	5704918.6911009	NaN	5704919.6745186	5704920.19105793
117	23	0	0	90	36.1581920903955	36.241610738255	22	0.733384607434273	2	4	2	NaN	1	4	0.0501030471703878	1	1	NaN	34	1	34	2	121	221	321	NaN	521	0.216466869227588	1	1	NaN	5704923.0915653	NaN	5704924.0749373	5704924.59148493
117	23	0	0	90	36.1581920903955	36.241610738255	19	0.633377615511417	2	6	3	NaN	1	3	0.0501030471703878	1	1	NaN	35	1	35	2	121	221	321	NaN	521	0.0103929229080677	1	1	NaN	5704925.6250093	NaN	5704926.6085237	5704927.12506688
117	23	0	0	90	36.1581920903955	36.241610738255	9	0.300020975768566	2	1	5	NaN	1	3	0.0501030471703878	1	1	NaN	36	1	36	2	121	221	321	NaN	521	0.229621663689613	1	1	NaN	5704927.9586854	NaN	5704928.9420863	5704929.45863264
117	23	0	0	90	36.1581920903955	36.241610738255	18	0.600041951537132	2	8	2	NaN	2	3	0.0501030471703878	1	1	NaN	37	1	37	2	121	221	321	NaN	521	0.199039169587195	1	0	NaN	5704930.5088514	NaN	5704931.4923598	5704932.00888693
117	23	0	0	90	36.1581920903955	36.241610738255	10	0.333356639742851	2	1	1	NaN	1	5	0.0501030471703878	1	1	NaN	38	1	38	2	121	221	321	NaN	521	1.92214523721486	1	1	NaN	5704933.0258537	NaN	5704934.0092616	5704934.52580306
117	23	0	0	90	36.1581920903955	36.241610738255	0	0	1	7	1	NaN	2	4	0.0501030471703878	1	1	NaN	39	1	39	2	111	211	311	NaN	511	0.97640507016331	2	1	NaN	5704937.2595961	NaN	5704938.2430055	5704938.75954823
117	23	0	0	90	36.1581920903955	36.241610738255	0	0	1	12	4	NaN	2	3	0.0501030471703878	1	1	NaN	40	1	40	2	111	211	311	NaN	511	0.164822316728532	2	1	NaN	5704940.5432582	NaN	5704941.5266631	5704942.04320358
117	23	0	0	90	36.1581920903955	36.241610738255	17	0.566706287562847	2	11	3	NaN	2	5	0.0501030471703878	1	1	NaN	41	1	41	2	121	221	321	NaN	521	0.24128111731261	2	1	NaN	5704943.0268405	NaN	5704944.0102471	5704944.52678308
117	23	0	0	90	36.1581920903955	36.241610738255	24	0.800055935382843	2	8	2	NaN	2	5	0.0501030471703878	1	1	NaN	42	1	42	2	121	221	321	NaN	521	0.122458022087812	2	1	NaN	5704945.5937486	NaN	5704946.5771409	5704947.09369658
117	23	0	0	90	36.1581920903955	36.241610738255	12	0.400027967691422	2	11	1	NaN	2	4	0.0501030471703878	1	1	NaN	43	1	43	2	121	221	321	NaN	521	0.0104014230892062	2	1	NaN	5704948.1272998	NaN	5704949.1107323	5704949.62728238
117	23	0	0	90	36.1581920903955	36.241610738255	11	0.366692303717136	2	3	2	NaN	1	3	0.0501030471703878	1	1	NaN	44	1	44	2	121	221	321	NaN	521	0.72821076400578	1	1	NaN	5704950.4440977	NaN	5704951.4276395	5704951.94416984
117	23	0	0	90	36.1581920903955	36.241610738255	16	0.533370623588562	2	4	5	NaN	1	3	0.0501030471703878	1	1	NaN	45	1	45	2	121	221	321	NaN	521	0.21354432310909	1	1	NaN	5704953.4945319	NaN	5704954.4779316	5704954.99447258
117	23	0	0	90	36.1581920903955	36.241610738255	23	0.766720271408558	2	11	3	NaN	2	5	0.0501030471703878	1	1	NaN	46	1	46	2	121	221	321	NaN	521	0.0104100694879889	2	1	NaN	5704956.0281067	NaN	5704957.0115131	5704957.52805103
117	23	0	0	90	36.1581920903955	36.241610738255	20	0.666713279485702	2	5	1	NaN	1	3	0.0501030471703878	1	1	NaN	47	1	47	2	121	221	321	NaN	521	0.131332568824291	1	1	NaN	5704958.3450093	NaN	5704959.3284056	5704959.84497133
117	23	0	0	90	36.1581920903955	36.241610738255	14	0.466699295639992	2	1	3	NaN	1	3	0.0501030471703878	1	1	NaN	48	1	48	2	121	221	321	NaN	521	0.256762822158635	1	1	NaN	5704960.7952404	NaN	5704961.7786445	5704962.29519878
117	23	0	0	90	36.1581920903955	36.241610738255	17	0.566706287562847	2	9	6	NaN	2	3	0.0501030471703878	1	1	NaN	49	1	49	2	121	221	321	NaN	521	0.521916969679296	1	0	NaN	5704963.3621604	NaN	5704964.3455626	5704964.86210953
117	23	0	0	90	36.1581920903955	36.241610738255	24	0.800055935382843	2	2	4	NaN	1	3	0.0501030471703878	1	1	NaN	50	1	50	2	121	221	321	NaN	521	0.20819537434727	1	1	NaN	5704966.1957761	NaN	5704967.1791853	5704967.69572673
117	23	0	0	90	36.1581920903955	36.241610738255	14	0.466699295639992	2	4	5	NaN	1	4	0.0501030471703878	1	1	NaN	51	1	51	2	121	221	321	NaN	521	0.195343222469091	1	1	NaN	5704968.7126812	NaN	5704969.6960869	5704970.21263558
117	23	0	0	90	36.1581920903955	36.241610738255	22	0.733384607434273	2	10	1	NaN	2	4	0.0501030471703878	1	1	NaN	52	1	52	2	121	221	321	NaN	521	0.159213269129395	2	1	NaN	5704971.2129331	NaN	5704972.1963331	5704972.71287513
117	23	0	0	90	36.1581920903955	36.241610738255	20	0.666713279485702	2	10	4	NaN	2	5	0.0501030471703878	1	1	NaN	53	1	53	2	121	221	321	NaN	521	0.0683223688974977	2	1	NaN	5704973.6798372	NaN	5704974.6632462	5704975.17978643
117	23	0	0	90	36.1581920903955	36.241610738255	15	0.500034959614277	2	5	6	NaN	1	3	0.0501030471703878	1	1	NaN	54	1	54	2	121	221	321	NaN	521	0.3699572943151	1	1	NaN	5704976.5301031	NaN	5704977.5135149	5704978.03009441
117	23	0	0	90	36.1581920903955	36.241610738255	17	0.566706287562847	2	4	6	NaN	1	5	0.0501030471703878	1	1	NaN	55	1	55	2	121	221	321	NaN	521	2.1427839640528	1	1	NaN	5704979.2137141	NaN	5704980.1971262	5704980.71365804
117	23	0	0	90	36.1581920903955	36.241610738255	8	0.266685311794281	2	9	1	NaN	2	3	0.0501030471703878	1	1	NaN	56	1	56	2	121	221	321	NaN	521	0.142543769441545	1	0	NaN	5704984.3974357	NaN	5704985.3809576	5704985.89750633
117	23	0	0	90	36.1581920903955	36.241610738255	11	0.366692303717136	2	11	6	NaN	2	3	0.0501030471703878	1	1	NaN	57	1	57	2	121	221	321	NaN	521	0.188075069338083	2	1	NaN	5704986.8477883	NaN	5704987.8312467	5704988.34775203
117	23	0	0	90	36.1581920903955	36.241610738255	22	0.733384607434273	2	12	3	NaN	2	5	0.0501030471703878	1	1	NaN	58	1	58	2	121	221	321	NaN	521	0.087979769334197	2	1	NaN	5704989.3479208	NaN	5704990.3314665	5704990.84800463
117	23	0	0	90	36.1581920903955	36.241610738255	6	0.200013983845711	2	12	5	NaN	2	5	0.0501030471703878	1	1	NaN	59	1	59	2	121	221	321	NaN	521	0.935943074524403	1	0	NaN	5704991.7482828	NaN	5704992.7316855	5704993.24823673
117	23	0	0	90	36.1581920903955	36.241610738255	15	0.500034959614277	2	12	6	NaN	2	3	0.0501030471703878	1	1	NaN	60	1	60	2	121	221	321	NaN	521	0.0695233698934317	2	1	NaN	5704994.9985757	NaN	5704995.9819803	5704996.49854473
117	23	0	0	90	36.1581920903955	36.241610738255	13	0.433363631665707	2	5	5	NaN	1	4	0.0501030471703878	1	1	NaN	61	1	61	2	121	221	321	NaN	521	1.11012126877904	2	0	NaN	5704997.3820661	NaN	5704998.3655813	5704998.88211313
117	23	0	0	90	36.1581920903955	36.241610738255	23	0.766720271408558	2	4	3	NaN	1	4	0.0501030471703878	1	1	NaN	62	1	62	2	121	221	321	NaN	521	0.173368822783232	1	1	NaN	5705000.7991694	NaN	5705001.7825946	5705002.29912148
117	23	0	0	90	36.1581920903955	36.241610738255	10	0.333356639742851	2	7	4	NaN	2	5	0.0501030471703878	1	1	NaN	63	1	63	2	121	221	321	NaN	521	0.329096569679677	1	0	NaN	5705003.2994258	NaN	5705004.2828195	5705004.79936023
117	23	0	0	90	36.1581920903955	36.241610738255	9	0.300020975768566	2	9	3	NaN	2	3	0.0501030471703878	1	1	NaN	64	2	1	2	121	221	321	NaN	521	0.350657969713211	2	1	NaN	5705007.1496665	NaN	5705008.1332055	5705008.64973773
117	23	0	0	90	36.1581920903955	36.241610738255	22	0.733384607434273	2	7	2	NaN	2	4	0.0501030471703878	1	1	NaN	65	2	2	2	121	221	321	NaN	521	0.195451169274747	2	1	NaN	5705009.8167201	NaN	5705010.8001369	5705011.31666483
117	23	0	0	90	36.1581920903955	36.241610738255	18	0.600041951537132	2	11	6	NaN	2	4	0.0501030471703878	1	1	NaN	66	2	3	2	121	221	321	NaN	521	0.230867569334805	2	1	NaN	5705012.3335032	NaN	5705013.3170342	5705013.83358013
117	23	0	0	90	36.1581920903955	36.241610738255	16	0.533370623588562	2	10	2	NaN	2	3	0.0501030471703878	1	1	NaN	67	2	4	2	121	221	321	NaN	521	0.160012922249734	2	1	NaN	5705014.8838903	NaN	5705015.8672796	5705016.38384108
117	23	0	0	90	36.1581920903955	36.241610738255	21	0.700048943459988	2	7	4	NaN	2	4	0.0501030471703878	1	1	NaN	68	2	5	2	121	221	321	NaN	521	0.03750288952142	2	1	NaN	5705017.3507994	NaN	5705018.3342015	5705018.85074261
117	23	0	0	90	36.1581920903955	36.241610738255	7	0.233349647819996	2	3	5	NaN	1	3	0.0501030471703878	1	1	NaN	69	2	6	2	121	221	321	NaN	521	0.535083069466054	2	0	NaN	5705019.7010384	NaN	5705020.6844214	5705021.20097693
117	23	0	0	90	36.1581920903955	36.241610738255	19	0.633377615511417	2	11	2	NaN	2	3	0.0501030471703878	1	1	NaN	70	2	7	2	121	221	321	NaN	521	0.244942569173872	2	1	NaN	5705022.5512972	NaN	5705023.5347046	5705024.05125363
117	23	0	0	90	36.1581920903955	36.241610738255	21	0.700048943459988	2	1	4	NaN	1	4	0.0501030471703878	1	1	NaN	71	2	8	2	121	221	321	NaN	521	0.077929669059813	1	1	NaN	5705025.1181269	NaN	5705026.1016299	5705026.61817503
117	23	0	0	90	36.1581920903955	36.241610738255	11	0.366692303717136	2	1	5	NaN	1	3	0.0501030471703878	1	1	NaN	72	2	9	2	121	221	321	NaN	521	0.069658868946135	1	1	NaN	5705027.5184576	NaN	5705028.5018623	5705029.01840173
117	23	0	0	90	36.1581920903955	36.241610738255	9	0.300020975768566	2	6	2	NaN	1	4	0.0501030471703878	1	1	NaN	73	2	10	2	121	221	321	NaN	521	0.227620169520378	1	1	NaN	5705029.9687049	NaN	5705030.9521074	5705031.46865653
117	23	0	0	90	36.1581920903955	36.241610738255	7	0.233349647819996	2	2	1	NaN	1	5	0.0501030471703878	1	1	NaN	74	2	11	2	121	221	321	NaN	521	0.246363068930805	1	1	NaN	5705032.5021578	NaN	5705033.4856839	5705034.00222803
117	23	0	0	90	36.1581920903955	36.241610738255	10	0.333356639742851	2	6	4	NaN	1	3	0.0501030471703878	1	1	NaN	75	2	12	2	121	221	321	NaN	521	0.223339922726154	1	1	NaN	5705035.0692104	NaN	5705036.0526365	5705036.56915828
117	23	0	0	90	36.1581920903955	36.241610738255	18	0.600041951537132	2	9	6	NaN	2	5	0.0501030471703878	1	1	NaN	76	2	13	2	121	221	321	NaN	521	0.700727822259068	1	0	NaN	5705037.7193325	NaN	5705038.7028688	5705039.21940638
117	23	0	0	90	36.1581920903955	36.241610738255	13	0.433363631665707	2	12	6	NaN	2	4	0.0501030471703878	1	1	NaN	77	2	14	2	121	221	321	NaN	521	0.139802042394876	2	1	NaN	5705040.7364422	NaN	5705041.7198508	5705042.23637896
117	23	0	0	90	36.1581920903955	36.241610738255	12	0.400027967691422	2	6	1	NaN	1	4	0.0501030471703878	1	1	NaN	78	2	15	2	121	221	321	NaN	521	0.417488269507885	1	1	NaN	5705043.1866715	NaN	5705044.170084	5705044.68661113
117	23	0	0	90	36.1581920903955	36.241610738255	23	0.766720271408558	2	5	6	NaN	1	3	0.0501030471703878	1	1	NaN	79	2	16	2	121	221	321	NaN	521	0.0998277692124248	1	1	NaN	5705045.9202651	NaN	5705046.903669	5705047.42021253
117	23	0	0	90	36.1581920903955	36.241610738255	18	0.600041951537132	2	9	2	NaN	2	4	0.0501030471703878	1	1	NaN	80	2	17	2	121	221	321	NaN	521	0.259431469254196	1	0	NaN	5705048.3371992	NaN	5705049.3205745	5705049.83711513
117	23	0	0	90	36.1581920903955	36.241610738255	0	0	1	2	2	NaN	1	5	0.0501030471703878	1	1	NaN	81	2	18	2	111	211	311	NaN	511	0.116209069266915	2	0	NaN	5705050.9040919	NaN	5705051.8874809	5705052.40403263
117	23	0	0	90	36.1581920903955	36.241610738255	7	0.233349647819996	2	5	3	NaN	1	5	0.0501030471703878	1	1	NaN	82	2	19	2	121	221	321	NaN	521	0.338607022538781	1	1	NaN	5705053.3377505	NaN	5705054.3209542	5705054.83760758
117	23	0	0	90	36.1581920903955	36.241610738255	11	0.366692303717136	2	8	2	NaN	2	3	0.0501030471703878	1	1	NaN	83	2	20	2	121	221	321	NaN	521	0.152302922680974	1	0	NaN	5705055.9879246	NaN	5705056.9713659	5705057.48787378
117	23	0	0	90	36.1581920903955	36.241610738255	15	0.500034959614277	2	10	5	NaN	2	3	0.0501030471703878	1	1	NaN	84	2	21	2	121	221	321	NaN	521	0.261374942958355	2	1	NaN	5705058.4548338	NaN	5705059.4382321	5705059.95478156
117	23	0	0	90	36.1581920903955	36.241610738255	22	0.733384607434273	2	2	4	NaN	1	4	0.0501030471703878	1	1	NaN	85	2	22	2	121	221	321	NaN	521	0.14233302231878	1	1	NaN	5705061.0384168	NaN	5705062.021849	5705062.53836228
117	23	0	0	90	36.1581920903955	36.241610738255	21	0.700048943459988	2	2	6	NaN	1	4	0.0501030471703878	1	1	NaN	86	2	23	2	121	221	321	NaN	521	0.131578722968698	1	1	NaN	5705063.488696	NaN	5705064.4720656	5705064.98861428
117	23	0	0	90	36.1581920903955	36.241610738255	6	0.200013983845711	2	11	1	NaN	2	4	0.0501030471703878	1	1	NaN	87	2	24	2	121	221	321	NaN	521	0.105331390164793	2	1	NaN	5705065.9388999	NaN	5705066.9222281	5705067.43885121
117	23	0	0	90	36.1581920903955	36.241610738255	17	0.566706287562847	2	11	6	NaN	2	4	0.0501030471703878	1	1	NaN	88	2	25	2	121	221	321	NaN	521	0.290700974874198	2	1	NaN	5705068.7057045	NaN	5705069.6892512	5705070.20578363
117	23	0	0	90	36.1581920903955	36.241610738255	10	0.333356639742851	2	7	3	NaN	2	4	0.0501030471703878	1	1	NaN	89	2	26	2	121	221	321	NaN	521	0.210152668878436	2	1	NaN	5705071.3059752	NaN	5705072.2894895	5705072.80603763
117	23	0	0	90	36.1581920903955	36.241610738255	0	0	1	11	4	NaN	2	5	0.0501030471703878	1	1	NaN	90	2	27	2	111	211	311	NaN	511	0.0133801801130176	1	0	NaN	5705073.822994	NaN	5705074.8064217	5705075.32296352
117	23	0	0	90	36.1581920903955	36.241610738255	17	0.566706287562847	2	5	2	NaN	1	4	0.0501030471703878	1	1	NaN	91	2	28	2	121	221	321	NaN	521	0.159536669962108	1	1	NaN	5705076.1566107	NaN	5705077.1399635	5705077.65651153
117	23	0	0	90	36.1581920903955	36.241610738255	13	0.433363631665707	2	2	3	NaN	1	5	0.0501030471703878	1	1	NaN	92	2	29	2	121	221	321	NaN	521	0.356689669191837	1	1	NaN	5705078.6234887	NaN	5705079.606879	5705080.12342463
117	23	0	0	90	36.1581920903955	36.241610738255	25	0.833391599357128	2	2	3	NaN	1	3	0.0501030471703878	1	1	NaN	93	2	30	2	121	221	321	NaN	521	0.0104132695123553	1	1	NaN	5705081.290487	NaN	5705082.27381	5705082.79034783
117	23	0	0	90	36.1581920903955	36.241610738255	10	0.333356639742851	2	9	1	NaN	2	3	0.0501030471703878	1	1	NaN	94	2	31	2	121	221	321	NaN	521	0.212801022455096	2	1	NaN	5705083.6071788	NaN	5705084.5906994	5705085.10725178
117	23	0	0	90	36.1581920903955	36.241610738255	6	0.200013983845711	2	6	1	NaN	1	3	0.0501030471703878	1	1	NaN	95	2	32	2	121	221	321	NaN	521	0.0240087695419788	1	1	NaN	5705086.1242212	NaN	5705087.1076174	5705087.62416913
117	23	0	0	90	36.1581920903955	36.241610738255	22	0.733384607434273	2	6	2	NaN	1	5	0.0501030471703878	1	1	NaN	96	2	33	2	121	221	321	NaN	521	0.218470016494393	1	1	NaN	5705088.4577698	NaN	5705089.4411872	5705089.95773188
117	23	0	0	90	36.1581920903955	36.241610738255	7	0.233349647819996	2	2	1	NaN	1	4	0.0501030471703878	1	1	NaN	97	2	34	2	121	221	321	NaN	521	0.21304976940155	1	1	NaN	5705090.9913591	NaN	5705091.9747682	5705092.49130093
117	23	0	0	90	36.1581920903955	36.241610738255	12	0.400027967691422	2	3	6	NaN	1	4	0.0501030471703878	1	1	NaN	98	2	35	2	121	221	321	NaN	521	0.967329069972038	1	1	NaN	5705093.5249606	NaN	5705094.5083488	5705095.02488583
117	23	0	0	90	36.1581920903955	36.241610738255	9	0.300020975768566	2	7	5	NaN	2	3	0.0501030471703878	1	1	NaN	99	2	36	2	121	221	321	NaN	521	0.315738669596612	1	0	NaN	5705096.8085937	NaN	5705097.7920029	5705098.30855213
117	23	0	0	90	36.1581920903955	36.241610738255	13	0.433363631665707	2	8	5	NaN	2	3	0.0501030471703878	1	1	NaN	100	2	37	2	121	221	321	NaN	521	0.0420921640470624	2	1	NaN	5705099.4421819	NaN	5705100.4255858	5705100.94213384
117	23	0	0	90	36.1581920903955	36.241610738255	7	0.233349647819996	2	1	2	NaN	1	3	0.0501030471703878	1	1	NaN	101	2	38	2	121	221	321	NaN	521	0.923261822201312	1	1	NaN	5705101.8090906	NaN	5705102.7924841	5705103.30905138
117	23	0	0	90	36.1581920903955	36.241610738255	7	0.233349647819996	2	7	4	NaN	2	3	0.0501030471703878	1	1	NaN	102	2	39	2	121	221	321	NaN	521	0.233455469831824	2	1	NaN	5705105.0427309	NaN	5705106.0261468	5705106.54267993
117	23	0	0	90	36.1581920903955	36.241610738255	12	0.400027967691422	2	9	3	NaN	2	4	0.0501030471703878	1	1	NaN	103	2	40	2	121	221	321	NaN	521	0.403342569246888	2	1	NaN	5705107.5929811	NaN	5705108.5763904	5705109.09292993
117	23	0	0	90	36.1581920903955	36.241610738255	19	0.633377615511417	2	12	4	NaN	2	5	0.0501030471703878	1	1	NaN	104	2	41	2	121	221	321	NaN	521	0.326321123167872	2	1	NaN	5705110.309922	NaN	5705111.2933133	5705111.80987308
117	23	0	0	90	36.1581920903955	36.241610738255	11	0.366692303717136	2	9	4	NaN	2	5	0.0501030471703878	1	1	NaN	105	2	42	2	121	221	321	NaN	521	0.0104635646566749	1	0	NaN	5705112.9601867	NaN	5705113.943579	5705114.46012774
117	23	0	0	90	36.1581920903955	36.241610738255	6	0.200013983845711	2	9	1	NaN	2	4	0.0501030471703878	1	1	NaN	106	2	43	2	121	221	321	NaN	521	0.910829122178257	1	0	NaN	5705115.2937681	NaN	5705116.2771508	5705116.79369868
117	23	0	0	90	36.1581920903955	36.241610738255	22	0.733384607434273	2	8	6	NaN	2	3	0.0501030471703878	1	1	NaN	107	2	44	2	121	221	321	NaN	521	1.05344911757857	2	1	NaN	5705118.527396	NaN	5705119.510796	5705120.02734648
117	23	0	0	90	36.1581920903955	36.241610738255	10	0.333356639742851	2	2	5	NaN	1	3	0.0501030471703878	1	1	NaN	108	2	45	2	121	221	321	NaN	521	0.0104150697588921	1	1	NaN	5705121.8944003	NaN	5705122.8777927	5705123.39433663
117	23	0	0	90	36.1581920903955	36.241610738255	18	0.600041951537132	2	6	3	NaN	1	3	0.0501030471703878	1	1	NaN	109	2	46	2	121	221	321	NaN	521	0.227628570050001	1	1	NaN	5705124.3446081	NaN	5705125.3280283	5705125.84457673
117	23	0	0	90	36.1581920903955	36.241610738255	21	0.700048943459988	2	11	5	NaN	2	5	0.0501030471703878	1	1	NaN	110	2	47	2	121	221	321	NaN	521	0.165425869636238	2	1	NaN	5705126.8948891	NaN	5705127.8783052	5705128.39483343
117	23	0	0	90	36.1581920903955	36.241610738255	12	0.400027967691422	2	4	4	NaN	1	3	0.0501030471703878	1	1	NaN	111	2	48	2	121	221	321	NaN	521	0.193769969977438	1	1	NaN	5705129.3784594	NaN	5705130.3618643	5705130.87840363
117	23	0	0	90	36.1581920903955	36.241610738255	9	0.300020975768566	2	1	2	NaN	1	4	0.0501030471703878	1	1	NaN	112	2	49	2	121	221	321	NaN	521	0.0775465695187449	1	1	NaN	5705131.87858	NaN	5705132.862118	5705133.37865163
117	23	0	0	90	36.1581920903955	36.241610738255	14	0.466699295639992	2	3	4	NaN	1	5	0.0501030471703878	1	1	NaN	113	2	50	2	121	221	321	NaN	521	0.58246906939894	1	1	NaN	5705134.2622868	NaN	5705135.2456702	5705135.76221413
117	23	0	0	90	36.1581920903955	36.241610738255	22	0.733384607434273	2	1	1	NaN	1	5	0.0501030471703878	1	1	NaN	114	2	51	2	121	221	321	NaN	521	0.473615622147918	1	1	NaN	5705137.1625569	NaN	5705138.145961	5705138.66250738
117	23	0	0	90	36.1581920903955	36.241610738255	20	0.666713279485702	2	3	2	NaN	1	5	0.0501030471703878	1	1	NaN	115	2	52	2	121	221	321	NaN	521	0.586731422692537	1	1	NaN	5705139.9461599	NaN	5705140.9295545	5705141.44612098
117	23	0	0	90	36.1581920903955	36.241610738255	7	0.233349647819996	2	8	1	NaN	2	5	0.0501030471703878	1	1	NaN	116	2	53	2	121	221	321	NaN	521	0.341914944350719	1	0	NaN	5705142.8464542	NaN	5705143.8298537	5705144.34639206
117	23	0	0	90	36.1581920903955	36.241610738255	9	0.300020975768566	2	6	5	NaN	1	4	0.0501030471703878	1	1	NaN	117	2	54	2	121	221	321	NaN	521	0.436024023219943	2	0	NaN	5705145.4967152	NaN	5705146.4801017	5705146.99666168
117	23	0	0	90	36.1581920903955	36.241610738255	0	0	1	10	2	NaN	2	4	0.0501030471703878	1	1	NaN	118	2	55	2	111	211	311	NaN	511	0.0104092704132199	2	1	NaN	5705148.2469747	NaN	5705149.2303841	5705149.74692793
117	23	0	0	90	36.1581920903955	36.241610738255	11	0.366692303717136	2	10	6	NaN	2	5	0.0501030471703878	1	1	NaN	119	2	56	2	121	221	321	NaN	521	0.264843123033643	2	1	NaN	5705150.5638739	NaN	5705151.547287	5705152.06381928
117	23	0	0	90	36.1581920903955	36.241610738255	19	0.633377615511417	2	3	2	NaN	1	4	0.0501030471703878	1	1	NaN	120	2	57	2	121	221	321	NaN	521	0.0168879693374038	1	1	NaN	5705153.1473359	NaN	5705154.1308573	5705154.64740793
117	23	0	0	90	36.1581920903955	36.241610738255	6	0.200013983845711	2	5	3	NaN	1	5	0.0501030471703878	1	1	NaN	121	2	58	2	121	221	321	NaN	521	0.010410369373858	1	1	NaN	5705155.4809568	NaN	5705156.4644254	5705156.98096463
117	23	0	0	90	36.1581920903955	36.241610738255	23	0.766720271408558	2	8	5	NaN	2	3	0.0501030471703878	1	1	NaN	122	2	59	2	121	221	321	NaN	521	0.170901569537818	1	0	NaN	5705157.8812379	NaN	5705158.8646548	5705159.38120543
117	23	0	0	90	36.1581920903955	36.241610738255	9	0.300020975768566	2	12	4	NaN	2	3	0.0501030471703878	1	1	NaN	123	2	60	2	121	221	321	NaN	521	0.0236812699586153	2	1	NaN	5705160.3647245	NaN	5705161.3482299	5705161.86477843
117	23	0	0	90	36.1581920903955	36.241610738255	19	0.633377615511417	2	5	5	NaN	1	5	0.0501030471703878	1	1	NaN	124	2	61	2	121	221	321	NaN	521	0.31405780185014	1	1	NaN	5705162.6984214	NaN	5705163.6818258	5705164.198348
117	23	0	0	90	36.1581920903955	36.241610738255	24	0.800055935382843	2	12	3	NaN	2	5	0.0501030471703878	1	1	NaN	125	2	62	2	121	221	321	NaN	521	0.120406922884285	2	1	NaN	5705165.3319843	NaN	5705166.3152926	5705166.83194148
117	23	0	0	90	36.1581920903955	36.241610738255	8	0.266685311794281	2	9	2	NaN	2	3	0.0501030471703878	1	1	NaN	126	2	63	2	121	221	321	NaN	521	0.0788390701636672	2	1	NaN	5705167.7655497	NaN	5705168.7489678	5705169.26550543
117	23	0	0	90	36.1581920903955	36.241610738255	11	0.366692303717136	2	10	6	NaN	2	4	0.0501030471703878	1	1	NaN	127	3	1	2	121	221	321	NaN	521	0.223961885087192	1	0	NaN	5705171.9326353	NaN	5705172.9160413	5705173.43258991
117	23	0	0	90	36.1581920903955	36.241610738255	8	0.266685311794281	2	11	5	NaN	2	4	0.0501030471703878	1	1	NaN	128	3	2	2	121	221	321	NaN	521	0.162506869062781	2	1	NaN	5705174.4662375	NaN	5705175.449628	5705175.96616283
117	23	0	0	90	36.1581920903955	36.241610738255	18	0.600041951537132	2	3	5	NaN	1	5	0.0501030471703878	1	1	NaN	129	3	3	2	121	221	321	NaN	521	0.279156263917685	1	1	NaN	5705176.9331301	NaN	5705177.916532	5705178.43307024
117	23	0	0	90	36.1581920903955	36.241610738255	16	0.533370623588562	2	12	6	NaN	2	3	0.0501030471703878	1	1	NaN	130	3	4	2	121	221	321	NaN	521	0.0870310170575976	2	1	NaN	5705179.5333869	NaN	5705180.5167952	5705181.03333038
117	23	0	0	90	36.1581920903955	36.241610738255	18	0.600041951537132	2	4	6	NaN	1	3	0.0501030471703878	1	1	NaN	131	3	5	2	121	221	321	NaN	521	0.325111369602382	2	0	NaN	5705181.9835227	NaN	5705182.9670305	5705183.48357573
117	23	0	0	90	36.1581920903955	36.241610738255	8	0.266685311794281	2	2	6	NaN	1	4	0.0501030471703878	1	1	NaN	132	3	6	2	121	221	321	NaN	521	0.11532902251929	2	0	NaN	5705184.6172171	NaN	5705185.6006134	5705186.11715968
117	23	0	0	90	36.1581920903955	36.241610738255	6	0.200013983845711	2	10	2	NaN	2	3	0.0501030471703878	1	1	NaN	133	3	7	2	121	221	321	NaN	521	0.191286974586546	2	1	NaN	5705187.1174702	NaN	5705188.1008522	5705188.61741883
117	23	0	0	90	36.1581920903955	36.241610738255	12	0.400027967691422	2	1	6	NaN	1	3	0.0501030471703878	1	1	NaN	134	3	8	2	121	221	321	NaN	521	0.11407766956836	1	1	NaN	5705189.6343709	NaN	5705190.6177898	5705191.13432793
117	23	0	0	90	36.1581920903955	36.241610738255	23	0.766720271408558	2	6	4	NaN	1	3	0.0501030471703878	1	1	NaN	135	3	9	2	121	221	321	NaN	521	0.102507817558944	1	1	NaN	5705192.1179471	NaN	5705193.1013721	5705193.61790448
117	23	0	0	90	36.1581920903955	36.241610738255	9	0.300020975768566	2	5	4	NaN	1	3	0.0501030471703878	1	1	NaN	136	3	10	2	121	221	321	NaN	521	0.381430517882109	1	1	NaN	5705194.5349528	NaN	5705195.5182636	5705196.03480138
117	23	0	0	90	36.1581920903955	36.241610738255	16	0.533370623588562	2	11	3	NaN	2	3	0.0501030471703878	1	1	NaN	137	3	11	2	121	221	321	NaN	521	0.169258169829845	2	1	NaN	5705197.2351389	NaN	5705198.2185271	5705198.73507853
117	23	0	0	90	36.1581920903955	36.241610738255	6	0.200013983845711	2	10	3	NaN	2	5	0.0501030471703878	1	1	NaN	138	3	12	2	121	221	321	NaN	521	0.2937016421929	2	1	NaN	5705199.7186944	NaN	5705200.7020911	5705201.21865466
117	23	0	0	90	36.1581920903955	36.241610738255	22	0.733384607434273	2	6	5	NaN	1	5	0.0501030471703878	1	1	NaN	139	3	13	2	121	221	321	NaN	521	0.10954712331295	1	1	NaN	5705202.3188485	NaN	5705203.3023922	5705203.81890958
117	23	0	0	90	36.1581920903955	36.241610738255	18	0.600041951537132	2	11	2	NaN	2	4	0.0501030471703878	1	1	NaN	140	3	14	2	121	221	321	NaN	521	0.0444519696757197	1	0	NaN	5705204.7357336	NaN	5705205.7192479	5705206.23580083
117	23	0	0	90	36.1581920903955	36.241610738255	10	0.333356639742851	2	5	2	NaN	1	4	0.0501030471703878	1	1	NaN	141	3	15	2	121	221	321	NaN	521	0.0623384695500135	2	0	NaN	5705207.085975	NaN	5705208.0694927	5705208.58603353
117	23	0	0	90	36.1581920903955	36.241610738255	21	0.700048943459988	2	3	5	NaN	1	3	0.0501030471703878	1	1	NaN	142	3	16	2	121	221	321	NaN	521	0.383199117146432	1	1	NaN	5705209.4696521	NaN	5705210.4530615	5705210.96960228
117	23	0	0	90	36.1581920903955	36.241610738255	20	0.666713279485702	2	7	3	NaN	2	4	0.0501030471703878	1	1	NaN	143	3	17	2	121	221	321	NaN	521	0.490875022485852	1	0	NaN	5705212.1699119	NaN	5705213.1533246	5705213.66987628
117	23	0	0	90	36.1581920903955	36.241610738255	12	0.400027967691422	2	5	4	NaN	1	5	0.0501030471703878	1	1	NaN	144	3	18	2	121	221	321	NaN	521	0.34664305485785	1	1	NaN	5705214.9700681	NaN	5705215.9535888	5705216.47014584
117	23	0	0	90	36.1581920903955	36.241610738255	0	0	1	6	1	NaN	1	5	0.0501030471703878	1	1	NaN	145	3	19	2	111	211	311	NaN	511	0.0103915231302381	1	1	NaN	5705217.6204597	NaN	5705218.6038633	5705219.12041118
117	23	0	0	90	36.1581920903955	36.241610738255	20	0.666713279485702	2	11	5	NaN	2	5	0.0501030471703878	1	1	NaN	146	3	20	2	121	221	321	NaN	521	0.794423390179873	2	1	NaN	5705219.9540191	NaN	5705220.9374615	5705221.45397301
117	23	0	0	90	36.1581920903955	36.241610738255	22	0.733384607434273	2	5	2	NaN	1	3	0.0501030471703878	1	1	NaN	147	3	21	2	121	221	321	NaN	521	0.502239570021629	2	0	NaN	5705223.0543468	NaN	5705224.0377163	5705224.55427693
117	23	0	0	90	36.1581920903955	36.241610738255	21	0.700048943459988	2	5	2	NaN	1	4	0.0501030471703878	1	1	NaN	148	3	22	2	121	221	321	NaN	521	0.173320717178285	1	1	NaN	5705225.8712611	NaN	5705226.8546646	5705227.37121608
117	23	0	0	90	36.1581920903955	36.241610738255	23	0.766720271408558	2	7	2	NaN	2	4	0.0501030471703878	1	1	NaN	149	3	23	2	121	221	321	NaN	521	0.233656869269907	2	1	NaN	5705228.3548373	NaN	5705229.3382508	5705229.85479193
117	23	0	0	90	36.1581920903955	36.241610738255	11	0.366692303717136	2	4	3	NaN	1	4	0.0501030471703878	1	1	NaN	150	3	24	2	121	221	321	NaN	521	0.107345389202237	2	0	NaN	5705230.9051264	NaN	5705231.8884886	5705232.40504861
117	23	0	0	90	36.1581920903955	36.241610738255	15	0.500034959614277	2	9	3	NaN	2	5	0.0501030471703878	1	1	NaN	151	3	25	2	121	221	321	NaN	521	0.386780831962824	2	1	NaN	5705233.3220183	NaN	5705234.3053846	5705234.82195347
117	23	0	0	90	36.1581920903955	36.241610738255	24	0.800055935382843	2	7	1	NaN	2	5	0.0501030471703878	1	1	NaN	152	3	26	2	121	221	321	NaN	521	0.550107669085264	2	1	NaN	5705236.022282	NaN	5705237.0056446	5705237.52220493
117	23	0	0	90	36.1581920903955	36.241610738255	14	0.466699295639992	2	6	2	NaN	1	3	0.0501030471703878	1	1	NaN	153	3	27	2	121	221	321	NaN	521	0.339889869093895	2	0	NaN	5705238.8725598	NaN	5705239.8559393	5705240.37248413
117	23	0	0	90	36.1581920903955	36.241610738255	7	0.233349647819996	2	12	4	NaN	2	3	0.0501030471703878	1	1	NaN	154	3	28	2	121	221	321	NaN	521	0.177630569785833	2	1	NaN	5705241.5227053	NaN	5705242.506187	5705243.02274593
117	23	0	0	90	36.1581920903955	36.241610738255	12	0.400027967691422	2	10	4	NaN	2	4	0.0501030471703878	1	1	NaN	155	3	29	2	121	221	321	NaN	521	0.0375236431136727	2	1	NaN	5705244.0230491	NaN	5705245.0064534	5705245.52300796
117	23	0	0	90	36.1581920903955	36.241610738255	6	0.200013983845711	2	2	2	NaN	1	5	0.0501030471703878	1	1	NaN	156	3	30	2	121	221	321	NaN	521	0.263273443095386	2	0	NaN	5705246.3733049	NaN	5705247.356663	5705247.87323426
117	23	0	0	90	36.1581920903955	36.241610738255	25	0.833391599357128	2	6	6	NaN	1	5	0.0501030471703878	1	1	NaN	157	3	31	2	121	221	321	NaN	521	0.296264070086181	1	1	NaN	5705248.9400617	NaN	5705249.9236067	5705250.44014433
117	23	0	0	90	36.1581920903955	36.241610738255	12	0.400027967691422	2	10	2	NaN	2	4	0.0501030471703878	1	1	NaN	158	3	32	2	121	221	321	NaN	521	0.207302222959697	2	1	NaN	5705251.5571197	NaN	5705252.5405293	5705253.05707488
117	23	0	0	90	36.1581920903955	36.241610738255	17	0.566706287562847	2	5	1	NaN	1	5	0.0501030471703878	1	1	NaN	159	3	33	2	121	221	321	NaN	521	0.0744886696338654	1	1	NaN	5705254.0740292	NaN	5705255.0574556	5705255.57398733
117	23	0	0	90	36.1581920903955	36.241610738255	19	0.633377615511417	2	10	5	NaN	2	3	0.0501030471703878	1	1	NaN	160	3	34	2	121	221	321	NaN	521	0.254919389262795	1	0	NaN	5705256.5576102	NaN	5705257.5410416	5705258.05755961
117	23	0	0	90	36.1581920903955	36.241610738255	8	0.266685311794281	2	1	4	NaN	1	4	0.0501030471703878	1	1	NaN	161	3	35	2	121	221	321	NaN	521	0.192004969343543	1	1	NaN	5705259.1244108	NaN	5705260.1079324	5705260.62447663
117	23	0	0	90	36.1581920903955	36.241610738255	15	0.500034959614277	2	4	4	NaN	1	3	0.0501030471703878	1	1	NaN	162	3	36	2	121	221	321	NaN	521	0.0518240695819259	1	1	NaN	5705261.6246752	NaN	5705262.6081844	5705263.12472053
117	23	0	0	90	36.1581920903955	36.241610738255	0	0	1	12	2	NaN	2	3	0.0501030471703878	1	1	NaN	163	3	37	2	111	211	311	NaN	511	0.180700569413602	2	1	NaN	5705263.9916818	NaN	5705264.9750922	5705265.49162103
117	23	0	0	90	36.1581920903955	36.241610738255	25	0.833391599357128	2	8	5	NaN	2	4	0.0501030471703878	1	1	NaN	164	3	38	2	121	221	321	NaN	521	1.68064772244543	2	1	NaN	5705266.4919245	NaN	5705267.475334	5705267.99186488
117	23	0	0	90	36.1581920903955	36.241610738255	17	0.566706287562847	2	6	6	NaN	1	5	0.0501030471703878	1	1	NaN	165	3	39	2	121	221	321	NaN	521	0.112149269320071	1	1	NaN	5705270.4923132	NaN	5705271.4757192	5705271.99228493
117	23	0	0	90	36.1581920903955	36.241610738255	14	0.466699295639992	2	12	5	NaN	2	5	0.0501030471703878	1	1	NaN	166	3	40	2	121	221	321	NaN	521	0.103363969363272	2	1	NaN	5705272.9091976	NaN	5705273.8926178	5705274.40915933
117	23	0	0	90	36.1581920903955	36.241610738255	18	0.600041951537132	2	6	4	NaN	1	5	0.0501030471703878	1	1	NaN	167	3	41	2	121	221	321	NaN	521	0.186428570188582	1	1	NaN	5705275.4261211	NaN	5705276.4095594	5705276.92607503
117	23	0	0	90	36.1581920903955	36.241610738255	0	0	1	9	2	NaN	2	4	0.0501030471703878	1	1	NaN	168	3	42	2	111	211	311	NaN	511	0.662231341935694	1	0	NaN	5705277.9263738	NaN	5705278.9097699	5705279.42633436
117	23	0	0	90	36.1581920903955	36.241610738255	13	0.433363631665707	2	1	2	NaN	1	4	0.0501030471703878	1	1	NaN	169	3	43	2	121	221	321	NaN	521	0.0104030231013894	1	1	NaN	5705280.8932076	NaN	5705281.8767789	5705282.39328378
117	23	0	0	90	36.1581920903955	36.241610738255	9	0.300020975768566	2	8	5	NaN	2	5	0.0501030471703878	1	1	NaN	170	3	44	2	121	221	321	NaN	521	0.138420069590211	1	0	NaN	5705283.2102605	NaN	5705284.1936315	5705284.71016893
117	23	0	0	90	36.1581920903955	36.241610738255	25	0.833391599357128	2	2	6	NaN	1	5	0.0501030471703878	1	1	NaN	171	3	45	2	121	221	321	NaN	521	0.216127837076783	1	1	NaN	5705285.6604701	NaN	5705286.6439071	5705287.16042336
117	23	0	0	90	36.1581920903955	36.241610738255	23	0.766720271408558	2	10	6	NaN	2	5	0.0501030471703878	1	1	NaN	172	3	46	2	121	221	321	NaN	521	1.12250381708145	1	0	NaN	5705288.1940525	NaN	5705289.1774484	5705289.69399408
117	23	0	0	90	36.1581920903955	36.241610738255	7	0.233349647819996	2	4	5	NaN	1	4	0.0501030471703878	1	1	NaN	173	3	47	2	121	221	321	NaN	521	0.168749169446528	1	1	NaN	5705291.6277161	NaN	5705292.6111274	5705293.12766313
117	23	0	0	90	36.1581920903955	36.241610738255	12	0.400027967691422	2	2	6	NaN	1	5	0.0501030471703878	1	1	NaN	174	3	48	2	121	221	321	NaN	521	0.245546665042639	1	1	NaN	5705294.1113044	NaN	5705295.0947299	5705295.61124044
117	23	0	0	90	36.1581920903955	36.241610738255	21	0.700048943459988	2	9	5	NaN	2	5	0.0501030471703878	1	1	NaN	175	3	49	2	121	221	321	NaN	521	0.384942369535565	2	1	NaN	5705296.8114403	NaN	5705297.7949678	5705298.31150823
117	23	0	0	90	36.1581920903955	36.241610738255	9	0.300020975768566	2	3	3	NaN	1	3	0.0501030471703878	1	1	NaN	176	3	50	2	121	221	321	NaN	521	0.196972317993641	1	1	NaN	5705299.5117061	NaN	5705300.4952155	5705301.01177708
117	23	0	0	90	36.1581920903955	36.241610738255	7	0.233349647819996	2	5	5	NaN	1	3	0.0501030471703878	1	1	NaN	177	3	51	2	121	221	321	NaN	521	0.101082669571042	1	1	NaN	5705302.0954342	NaN	5705303.0788158	5705303.59536233
117	23	0	0	90	36.1581920903955	36.241610738255	16	0.533370623588562	2	6	5	NaN	1	3	0.0501030471703878	1	1	NaN	178	3	52	2	121	221	321	NaN	521	0.436138675548136	1	1	NaN	5705304.5122473	NaN	5705305.4957166	5705306.01227352
117	23	0	0	90	36.1581920903955	36.241610738255	9	0.300020975768566	2	5	4	NaN	1	5	0.0501030471703878	1	1	NaN	179	3	53	2	121	221	321	NaN	521	0.133978969417512	1	1	NaN	5705307.2626032	NaN	5705308.2459686	5705308.76253493
117	23	0	0	90	36.1581920903955	36.241610738255	13	0.433363631665707	2	3	6	NaN	1	5	0.0501030471703878	1	1	NaN	180	3	54	2	121	221	321	NaN	521	0.139090069569647	1	1	NaN	5705309.7293959	NaN	5705310.7129051	5705311.22944063
117	23	0	0	90	36.1581920903955	36.241610738255	16	0.533370623588562	2	7	2	NaN	2	5	0.0501030471703878	1	1	NaN	181	3	55	2	121	221	321	NaN	521	0.264745170250535	2	1	NaN	5705312.1796865	NaN	5705313.163166	5705313.67968343
117	23	0	0	90	36.1581920903955	36.241610738255	16	0.533370623588562	2	10	2	NaN	2	4	0.0501030471703878	1	1	NaN	182	3	56	2	121	221	321	NaN	521	0.0732870697975159	2	1	NaN	5705314.763323	NaN	5705315.7467273	5705316.26326713
117	23	0	0	90	36.1581920903955	36.241610738255	23	0.766720271408558	2	9	2	NaN	2	4	0.0501030471703878	1	1	NaN	183	3	57	2	121	221	321	NaN	521	0.13407756946981	2	1	NaN	5705317.2468498	NaN	5705318.2303035	5705318.74684933
117	23	0	0	90	36.1581920903955	36.241610738255	23	0.766720271408558	2	7	1	NaN	2	5	0.0501030471703878	1	1	NaN	184	3	58	2	121	221	321	NaN	521	0.147412169724703	2	1	NaN	5705319.6971767	NaN	5705320.6805406	5705321.19708453
117	23	0	0	90	36.1581920903955	36.241610738255	25	0.833391599357128	2	5	6	NaN	1	4	0.0501030471703878	1	1	NaN	185	3	59	2	121	221	321	NaN	521	0.0718409698456526	1	1	NaN	5705322.1803139	NaN	5705323.1641213	5705323.68066813
117	23	0	0	90	36.1581920903955	36.241610738255	11	0.366692303717136	2	5	6	NaN	1	3	0.0501030471703878	1	1	NaN	186	3	60	2	121	221	321	NaN	521	0.312654869630933	1	1	NaN	5705324.5642844	NaN	5705325.5476699	5705326.06423253
117	23	0	0	90	36.1581920903955	36.241610738255	6	0.200013983845711	2	4	5	NaN	1	5	0.0501030471703878	1	1	NaN	187	3	61	2	121	221	321	NaN	521	0.0103939222171903	1	1	NaN	5705327.1978954	NaN	5705328.1813046	5705328.69782658
117	23	0	0	90	36.1581920903955	36.241610738255	18	0.600041951537132	2	5	4	NaN	1	5	0.0501030471703878	1	1	NaN	188	3	62	2	121	221	321	NaN	521	0.330151717178524	2	0	NaN	5705329.5147728	NaN	5705330.4981565	5705331.01472388
117	23	0	0	90	36.1581920903955	36.241610738255	20	0.666713279485702	2	2	3	NaN	1	3	0.0501030471703878	1	1	NaN	189	3	63	2	121	221	321	NaN	521	0.128598969429731	1	1	NaN	5705332.148355	NaN	5705333.1317572	5705333.64830683
117	23	0	0	90	36.1581920903955	36.241610738255	25	0.833391599357128	2	12	3	NaN	2	3	0.0501030471703878	1	1	NaN	190	4	1	2	121	221	321	NaN	521	0.449148175306618	2	1	NaN	5705382.0199664	NaN	5705383.0033316	5705383.51988262
117	23	0	0	90	36.1581920903955	36.241610738255	16	0.533370623588562	2	8	3	NaN	2	5	0.0501030471703878	1	1	NaN	191	4	2	2	121	221	321	NaN	521	0.201760422438383	2	1	NaN	5705384.7868653	NaN	5705385.7702577	5705386.28681548
117	23	0	0	90	36.1581920903955	36.241610738255	18	0.600041951537132	2	8	2	NaN	2	3	0.0501030471703878	1	1	NaN	192	4	3	2	121	221	321	NaN	521	3.60503546986729	2	1	NaN	5705387.3037817	NaN	5705388.2872019	5705388.80373353
117	23	0	0	90	36.1581920903955	36.241610738255	11	0.366692303717136	2	2	5	NaN	1	5	0.0501030471703878	1	1	NaN	193	4	4	2	121	221	321	NaN	521	0.15161516983062	2	0	NaN	5705393.221027	NaN	5705394.2044205	5705394.72097443
117	23	0	0	90	36.1581920903955	36.241610738255	23	0.766720271408558	2	10	1	NaN	2	3	0.0501030471703878	1	1	NaN	194	4	5	2	121	221	321	NaN	521	0.310494769364595	1	0	NaN	5705396.2545413	NaN	5705397.238065	5705397.75460763
117	23	0	0	90	36.1581920903955	36.241610738255	0	0	1	6	1	NaN	1	5	0.0501030471703878	1	1	NaN	195	4	6	2	111	211	311	NaN	511	0.228823970071971	1	1	NaN	5705398.8882481	NaN	5705399.8716358	5705400.38819673
117	23	0	0	90	36.1581920903955	36.241610738255	13	0.433363631665707	2	9	3	NaN	2	3	0.0501030471703878	1	1	NaN	196	4	7	2	121	221	321	NaN	521	0.462127069011331	1	0	NaN	5705401.4386044	NaN	5705402.4219101	5705402.93844553
117	23	0	0	90	36.1581920903955	36.241610738255	17	0.566706287562847	2	4	2	NaN	1	3	0.0501030471703878	1	1	NaN	197	4	8	2	121	221	321	NaN	521	0.158533969894052	1	1	NaN	5705404.2221348	NaN	5705405.2055082	5705405.72205813
117	23	0	0	90	36.1581920903955	36.241610738255	25	0.833391599357128	2	8	6	NaN	2	5	0.0501030471703878	1	1	NaN	198	4	9	2	121	221	321	NaN	521	0.20345510262996	1	0	NaN	5705406.689021	NaN	5705407.6724166	5705408.1889517
117	23	0	0	90	36.1581920903955	36.241610738255	25	0.833391599357128	2	11	6	NaN	2	5	0.0501030471703878	1	1	NaN	199	4	10	2	121	221	321	NaN	521	0.143058869056404	2	1	NaN	5705409.2059409	NaN	5705410.1893511	5705410.70587483
117	23	0	0	90	36.1581920903955	36.241610738255	15	0.500034959614277	2	11	4	NaN	2	5	0.0501030471703878	1	1	NaN	200	4	11	2	121	221	321	NaN	521	0.116694321855903	1	0	NaN	5705411.6561783	NaN	5705412.6396223	5705413.15612458
117	23	0	0	90	36.1581920903955	36.241610738255	9	0.300020975768566	2	4	4	NaN	1	3	0.0501030471703878	1	1	NaN	201	4	12	2	121	221	321	NaN	521	0.170972322113812	1	1	NaN	5705414.0896271	NaN	5705415.07315	5705415.58969688
117	23	0	0	90	36.1581920903955	36.241610738255	21	0.700048943459988	2	9	6	NaN	2	3	0.0501030471703878	1	1	NaN	202	4	13	2	121	221	321	NaN	521	0.0553989699110389	1	0	NaN	5705416.5733203	NaN	5705417.5567394	5705418.07326793
117	23	0	0	90	36.1581920903955	36.241610738255	14	0.466699295639992	2	10	5	NaN	2	4	0.0501030471703878	1	1	NaN	203	4	14	2	121	221	321	NaN	521	0.272589326836169	1	0	NaN	5705418.9402192	NaN	5705419.9236185	5705420.44017167
117	23	0	0	90	36.1581920903955	36.241610738255	6	0.200013983845711	2	8	5	NaN	2	3	0.0501030471703878	1	1	NaN	204	4	15	2	121	221	321	NaN	521	0.0729409698396921	2	1	NaN	5705421.5238232	NaN	5705422.5072096	5705423.02375353
117	23	0	0	90	36.1581920903955	36.241610738255	24	0.800055935382843	2	11	4	NaN	2	3	0.0501030471703878	1	1	NaN	205	4	16	2	121	221	321	NaN	521	0.161320769228041	2	1	NaN	5705423.907405	NaN	5705424.8907575	5705425.40731593
117	23	0	0	90	36.1581920903955	36.241610738255	20	0.666713279485702	2	9	4	NaN	2	5	0.0501030471703878	1	1	NaN	206	4	17	2	121	221	321	NaN	521	0.0104096699506044	2	1	NaN	5705426.3909536	NaN	5705427.3743758	5705427.89089743
117	23	0	0	90	36.1581920903955	36.241610738255	13	0.433363631665707	2	11	3	NaN	2	5	0.0501030471703878	1	1	NaN	207	4	18	2	121	221	321	NaN	521	0.840890879742801	2	1	NaN	5705428.7077189	NaN	5705429.6912386	5705430.20779932
117	23	0	0	90	36.1581920903955	36.241610738255	20	0.666713279485702	2	6	3	NaN	1	3	0.0501030471703878	1	1	NaN	208	4	19	2	121	221	321	NaN	521	0.192644969560206	2	0	NaN	5705432.9082301	NaN	5705433.8916576	5705434.40819953
117	23	0	0	90	36.1581920903955	36.241610738255	0	0	1	10	4	NaN	2	5	0.0501030471703878	1	1	NaN	209	4	20	2	111	211	311	NaN	511	0.0522702699527144	1	0	NaN	5705435.408375	NaN	5705436.3919089	5705436.90844353
117	23	0	0	90	36.1581920903955	36.241610738255	7	0.233349647819996	2	11	1	NaN	2	5	0.0501030471703878	1	1	NaN	210	4	21	2	121	221	321	NaN	521	0.117433269508183	2	1	NaN	5705437.7752697	NaN	5705438.7588058	5705439.27534503
117	23	0	0	90	36.1581920903955	36.241610738255	12	0.400027967691422	2	9	5	NaN	2	5	0.0501030471703878	1	1	NaN	211	4	22	2	121	221	321	NaN	521	0.403786822222173	1	0	NaN	5705440.2089702	NaN	5705441.1924086	5705441.70892428
117	23	0	0	90	36.1581920903955	36.241610738255	8	0.266685311794281	2	10	1	NaN	2	5	0.0501030471703878	1	1	NaN	212	4	23	2	121	221	321	NaN	521	0.0104122692719102	2	1	NaN	5705442.9259179	NaN	5705443.909307	5705444.42585753
117	23	0	0	90	36.1581920903955	36.241610738255	16	0.533370623588562	2	7	2	NaN	2	3	0.0501030471703878	1	1	NaN	213	4	24	2	121	221	321	NaN	521	0.137234569527209	2	1	NaN	5705445.2593894	NaN	5705446.2428669	5705446.75940983
117	23	0	0	90	36.1581920903955	36.241610738255	16	0.533370623588562	2	3	3	NaN	1	3	0.0501030471703878	1	1	NaN	214	4	25	2	121	221	321	NaN	521	0.654833816923201	1	1	NaN	5705447.7097054	NaN	5705448.6931205	5705449.20965188
117	23	0	0	90	36.1581920903955	36.241610738255	13	0.433363631665707	2	9	6	NaN	2	5	0.0501030471703878	1	1	NaN	215	4	26	2	121	221	321	NaN	521	0.312084069475532	2	1	NaN	5705450.6766823	NaN	5705451.6600664	5705452.17660763
117	23	0	0	90	36.1581920903955	36.241610738255	11	0.366692303717136	2	12	4	NaN	2	3	0.0501030471703878	1	1	NaN	216	4	27	2	121	221	321	NaN	521	0.13450706936419	2	1	NaN	5705453.3102732	NaN	5705454.293566	5705454.81020183
117	23	0	0	90	36.1581920903955	36.241610738255	0	0	1	8	3	NaN	2	4	0.0501030471703878	1	1	NaN	217	4	28	2	111	211	311	NaN	511	0.572169669903815	1	0	NaN	5705455.7605029	NaN	5705456.743888	5705457.26044753
117	23	0	0	90	36.1581920903955	36.241610738255	25	0.833391599357128	2	12	1	NaN	2	3	0.0501030471703878	1	1	NaN	218	4	29	2	121	221	321	NaN	521	0.096650268882513	2	1	NaN	5705458.6441226	NaN	5705459.6275444	5705460.14406293
117	23	0	0	90	36.1581920903955	36.241610738255	15	0.500034959614277	2	7	6	NaN	2	5	0.0501030471703878	1	1	NaN	219	4	30	2	121	221	321	NaN	521	0.0317922700196505	2	1	NaN	5705461.0610331	NaN	5705462.0444196	5705462.56096273
117	23	0	0	90	36.1581920903955	36.241610738255	19	0.633377615511417	2	7	6	NaN	2	4	0.0501030471703878	1	1	NaN	220	4	31	2	121	221	321	NaN	521	0.288738042116165	2	1	NaN	5705463.4445775	NaN	5705464.4279798	5705464.94454616
117	23	0	0	90	36.1581920903955	36.241610738255	12	0.400027967691422	2	12	2	NaN	2	4	0.0501030471703878	1	1	NaN	221	4	32	2	121	221	321	NaN	521	0.151180868968368	2	1	NaN	5705466.0615151	NaN	5705467.0449327	5705467.56145993
117	23	0	0	90	36.1581920903955	36.241610738255	21	0.700048943459988	2	6	5	NaN	1	3	0.0501030471703878	1	1	NaN	222	4	33	2	121	221	321	NaN	521	0.0104300696402788	2	0	NaN	5705468.5284219	NaN	5705469.51182	5705470.02836573
117	23	0	0	90	36.1581920903955	36.241610738255	25	0.833391599357128	2	3	2	NaN	1	4	0.0501030471703878	1	1	NaN	223	4	34	2	121	221	321	NaN	521	0.327245068736374	2	0	NaN	5705470.845317	NaN	5705471.8286912	5705472.34525673
117	23	0	0	90	36.1581920903955	36.241610738255	16	0.533370623588562	2	11	1	NaN	2	5	0.0501030471703878	1	1	NaN	224	4	35	2	121	221	321	NaN	521	0.629266869276762	1	0	NaN	5705473.4955838	NaN	5705474.478974	5705474.99552863
117	23	0	0	90	36.1581920903955	36.241610738255	17	0.566706287562847	2	2	3	NaN	1	5	0.0501030471703878	1	1	NaN	225	4	36	2	121	221	321	NaN	521	0.0957648381590843	1	1	NaN	5705476.4292251	NaN	5705477.4126313	5705477.92914856
117	23	0	0	90	36.1581920903955	36.241610738255	8	0.266685311794281	2	7	5	NaN	2	5	0.0501030471703878	1	1	NaN	226	4	37	2	121	221	321	NaN	521	0.158614570274949	2	1	NaN	5705478.8460964	NaN	5705479.8295194	5705480.34604773
117	23	0	0	90	36.1581920903955	36.241610738255	22	0.733384607434273	2	3	4	NaN	1	3	0.0501030471703878	1	1	NaN	227	4	38	2	121	221	321	NaN	521	0.619905122555792	1	1	NaN	5705481.3130697	NaN	5705482.2964053	5705482.81295698
117	23	0	0	90	36.1581920903955	36.241610738255	12	0.400027967691422	2	4	6	NaN	1	5	0.0501030471703878	1	1	NaN	228	4	39	2	121	221	321	NaN	521	0.0104144690558314	1	1	NaN	5705484.2466179	NaN	5705485.2300382	5705485.74657793
117	23	0	0	90	36.1581920903955	36.241610738255	23	0.766720271408558	2	12	2	NaN	2	3	0.0501030471703878	1	1	NaN	229	4	40	2	121	221	321	NaN	521	0.169559322297573	2	1	NaN	5705486.5635288	NaN	5705487.5469098	5705488.06347898
117	23	0	0	90	36.1581920903955	36.241610738255	12	0.400027967691422	2	8	4	NaN	2	5	0.0501030471703878	1	1	NaN	230	4	41	2	121	221	321	NaN	521	0.0103046894073486	2	1	NaN	5705489.0470789	NaN	5705490.0305041	5705490.54705111
117	23	0	0	90	36.1581920903955	36.241610738255	22	0.733384607434273	2	2	2	NaN	1	5	0.0501030471703878	1	1	NaN	231	4	42	2	121	221	321	NaN	521	0.192932469770312	2	0	NaN	5705491.3638584	NaN	5705492.3473956	5705492.86393983
117	23	0	0	90	36.1581920903955	36.241610738255	22	0.733384607434273	2	12	1	NaN	2	4	0.0501030471703878	1	1	NaN	232	4	43	2	121	221	321	NaN	521	0.269006023183465	2	1	NaN	5705493.8641181	NaN	5705494.847644	5705495.36419418
117	23	0	0	90	36.1581920903955	36.241610738255	10	0.333356639742851	2	5	3	NaN	1	5	0.0501030471703878	1	1	NaN	233	4	44	2	121	221	321	NaN	521	0.333375022746623	1	1	NaN	5705496.4478281	NaN	5705497.431218	5705497.94777208
117	23	0	0	90	36.1581920903955	36.241610738255	19	0.633377615511417	2	2	6	NaN	1	3	0.0501030471703878	1	1	NaN	234	4	45	2	121	221	321	NaN	521	0.305818469263613	1	1	NaN	5705499.31475	NaN	5705500.2981635	5705500.81472233
117	23	0	0	90	36.1581920903955	36.241610738255	24	0.800055935382843	2	10	2	NaN	2	5	0.0501030471703878	1	1	NaN	235	4	46	2	121	221	321	NaN	521	0.185169969685376	1	0	NaN	5705501.9317968	NaN	5705502.9151024	5705503.43164073
117	23	0	0	90	36.1581920903955	36.241610738255	11	0.366692303717136	2	12	6	NaN	2	5	0.0501030471703878	1	1	NaN	236	4	47	2	121	221	321	NaN	521	0.0690487176179886	2	1	NaN	5705504.4319474	NaN	5705505.4153674	5705505.93188748
117	23	0	0	90	36.1581920903955	36.241610738255	6	0.200013983845711	2	3	1	NaN	1	5	0.0501030471703878	1	1	NaN	237	4	48	2	121	221	321	NaN	521	0.0933814700692892	2	0	NaN	5705506.8155336	NaN	5705507.7989148	5705508.31546023
117	23	0	0	90	36.1581920903955	36.241610738255	14	0.466699295639992	2	3	1	NaN	1	5	0.0501030471703878	1	1	NaN	238	4	49	2	121	221	321	NaN	521	0.0105328494682908	1	1	NaN	5705509.2324162	NaN	5705510.2158163	5705510.73235305
117	23	0	0	90	36.1581920903955	36.241610738255	19	0.633377615511417	2	4	1	NaN	1	3	0.0501030471703878	1	1	NaN	239	4	50	2	121	221	321	NaN	521	0.806840226985514	1	1	NaN	5705511.5659785	NaN	5705512.5493765	5705513.06592497
117	23	0	0	90	36.1581920903955	36.241610738255	9	0.300020975768566	2	10	1	NaN	2	5	0.0501030471703878	1	1	NaN	240	4	51	2	121	221	321	NaN	521	0.0417886171489954	2	1	NaN	5705514.6829693	NaN	5705515.6663695	5705516.18289918
117	23	0	0	90	36.1581920903955	36.241610738255	7	0.233349647819996	2	12	5	NaN	2	3	0.0501030471703878	1	1	NaN	241	4	52	2	121	221	321	NaN	521	0.195608217269182	2	1	NaN	5705517.0331805	NaN	5705518.0165957	5705518.53313148
117	23	0	0	90	36.1581920903955	36.241610738255	15	0.500034959614277	2	8	2	NaN	2	4	0.0501030471703878	1	1	NaN	242	4	53	2	121	221	321	NaN	521	0.311427069827914	2	1	NaN	5705519.5499793	NaN	5705520.5334989	5705521.05003893
117	23	0	0	90	36.1581920903955	36.241610738255	9	0.300020975768566	2	2	5	NaN	1	4	0.0501030471703878	1	1	NaN	243	4	54	2	121	221	321	NaN	521	0.237497717142105	1	1	NaN	5705522.1836866	NaN	5705523.1670666	5705523.68363148
117	23	0	0	90	36.1581920903955	36.241610738255	19	0.633377615511417	2	5	3	NaN	1	3	0.0501030471703878	1	1	NaN	244	4	55	2	121	221	321	NaN	521	2.29534136969596	1	1	NaN	5705524.7339701	NaN	5705525.71734	5705526.23388453
117	23	0	0	90	36.1581920903955	36.241610738255	18	0.600041951537132	2	4	2	NaN	1	4	0.0501030471703878	1	1	NaN	245	4	56	2	121	221	321	NaN	521	0.0104151694104075	1	1	NaN	5705529.3510615	NaN	5705530.3344689	5705530.85100073
117	23	0	0	90	36.1581920903955	36.241610738255	13	0.433363631665707	2	3	3	NaN	1	4	0.0501030471703878	1	1	NaN	246	4	57	2	121	221	321	NaN	521	0.153308269567788	1	1	NaN	5705531.667959	NaN	5705532.6513438	5705533.16790293
117	23	0	0	90	36.1581920903955	36.241610738255	10	0.333356639742851	2	6	2	NaN	1	4	0.0501030471703878	1	1	NaN	247	4	58	2	121	221	321	NaN	521	0.0941977696493268	1	1	NaN	5705534.1347377	NaN	5705535.1182765	5705535.63480213
117	23	0	0	90	36.1581920903955	36.241610738255	8	0.266685311794281	2	3	3	NaN	1	5	0.0501030471703878	1	1	NaN	248	4	59	2	121	221	321	NaN	521	0.621156269684434	1	1	NaN	5705536.5517588	NaN	5705537.5350582	5705538.05170923
117	23	0	0	90	36.1581920903955	36.241610738255	21	0.700048943459988	2	5	5	NaN	1	3	0.0501030471703878	1	1	NaN	249	4	60	2	121	221	321	NaN	521	0.307486522942781	1	1	NaN	5705539.5853737	NaN	5705540.5687922	5705541.08534268
117	23	0	0	90	36.1581920903955	36.241610738255	11	0.366692303717136	2	11	2	NaN	2	5	0.0501030471703878	1	1	NaN	250	4	61	2	121	221	321	NaN	521	0.746559269726276	1	0	NaN	5705542.2023195	NaN	5705543.1858173	5705543.70226373
117	23	0	0	90	36.1581920903955	36.241610738255	7	0.233349647819996	2	11	6	NaN	2	5	0.0501030471703878	1	1	NaN	251	4	62	2	121	221	321	NaN	521	0.823622569441795	2	1	NaN	5705545.2693063	NaN	5705546.2526914	5705546.76922743
117	23	0	0	90	36.1581920903955	36.241610738255	19	0.633377615511417	2	3	2	NaN	1	3	0.0501030471703878	1	1	NaN	252	4	63	2	121	221	321	NaN	521	0.0979222692549229	2	0	NaN	5705548.4028079	NaN	5705549.3863275	5705549.90287613
117	23	0	0	90	36.1581920903955	36.241610738255	20	0.666713279485702	2	4	4	NaN	1	3	0.0501030471703878	1	1	NaN	253	5	1	2	121	221	321	NaN	521	0.530735969543457	1	1	NaN	5705551.7865905	NaN	5705552.7699998	5705553.28654243
117	23	0	0	90	36.1581920903955	36.241610738255	21	0.700048943459988	2	10	5	NaN	2	3	0.0501030471703878	1	1	NaN	254	5	2	2	121	221	321	NaN	521	0.224703169427812	1	0	NaN	5705554.62021	NaN	5705555.6036169	5705556.12015533
117	23	0	0	90	36.1581920903955	36.241610738255	14	0.466699295639992	2	6	1	NaN	1	3	0.0501030471703878	1	1	NaN	255	5	3	2	121	221	321	NaN	521	0.0103295855224133	1	1	NaN	5705557.1537883	NaN	5705558.1371908	5705558.65374061
117	23	0	0	90	36.1581920903955	36.241610738255	16	0.533370623588562	2	9	5	NaN	2	5	0.0501030471703878	1	1	NaN	256	5	4	2	121	221	321	NaN	521	0.0103951226919889	2	1	NaN	5705559.4706814	NaN	5705560.4540952	5705560.97063568
117	23	0	0	90	36.1581920903955	36.241610738255	21	0.700048943459988	2	12	2	NaN	2	5	0.0501030471703878	1	1	NaN	257	5	5	2	121	221	321	NaN	521	0.0104439640417695	1	0	NaN	5705561.904293	NaN	5705562.8876562	5705563.40419744
117	23	0	0	90	36.1581920903955	36.241610738255	16	0.533370623588562	2	4	1	NaN	1	3	0.0501030471703878	1	1	NaN	258	5	6	2	121	221	321	NaN	521	0.343855369836092	1	1	NaN	5705564.2211375	NaN	5705565.204543	5705565.72109073
117	23	0	0	90	36.1581920903955	36.241610738255	24	0.800055935382843	2	4	2	NaN	1	3	0.0501030471703878	1	1	NaN	259	5	7	2	121	221	321	NaN	521	0.324814569205046	1	1	NaN	5705566.8880789	NaN	5705567.8714756	5705568.38802073
117	23	0	0	90	36.1581920903955	36.241610738255	17	0.566706287562847	2	6	5	NaN	1	3	0.0501030471703878	1	1	NaN	260	5	8	2	121	221	321	NaN	521	0.523321822285652	1	1	NaN	5705569.5215098	NaN	5705570.5050652	5705571.02161918
117	23	0	0	90	36.1581920903955	36.241610738255	22	0.733384607434273	2	3	1	NaN	1	4	0.0501030471703878	1	1	NaN	261	5	9	2	121	221	321	NaN	521	0.185798022896051	2	0	NaN	5705572.3552329	NaN	5705573.3386761	5705573.85522288
117	23	0	0	90	36.1581920903955	36.241610738255	10	0.333356639742851	2	1	3	NaN	1	3	0.0501030471703878	1	1	NaN	262	5	10	2	121	221	321	NaN	521	0.133528523147106	1	1	NaN	5705574.8555223	NaN	5705575.8389639	5705576.35547998
117	23	0	0	90	36.1581920903955	36.241610738255	0	0	1	11	1	NaN	2	3	0.0501030471703878	1	1	NaN	263	5	11	2	111	211	311	NaN	511	0.0110653219744563	2	1	NaN	5705577.3057612	NaN	5705578.2891668	5705578.80572088
117	23	0	0	90	36.1581920903955	36.241610738255	22	0.733384607434273	2	11	5	NaN	2	4	0.0501030471703878	1	1	NaN	264	5	12	2	121	221	321	NaN	521	0.0543699180707335	2	1	NaN	5705579.6225356	NaN	5705580.6060335	5705581.12260888
117	23	0	0	90	36.1581920903955	36.241610738255	25	0.833391599357128	2	1	6	NaN	1	4	0.0501030471703878	1	1	NaN	265	5	13	2	121	221	321	NaN	521	0.127686522901058	1	1	NaN	5705581.9895648	NaN	5705582.9730094	5705583.48951368
117	23	0	0	90	36.1581920903955	36.241610738255	12	0.400027967691422	2	1	2	NaN	1	3	0.0501030471703878	1	1	NaN	266	5	14	2	121	221	321	NaN	521	0.0103265326470137	1	1	NaN	5705584.4398091	NaN	5705585.4231838	5705585.93974557
117	23	0	0	90	36.1581920903955	36.241610738255	0	0	1	2	3	NaN	1	5	0.0501030471703878	1	1	NaN	267	5	15	2	111	211	311	NaN	511	0.696281322278082	1	1	NaN	5705586.7566945	NaN	5705587.7400916	5705588.25664298
117	23	0	0	90	36.1581920903955	36.241610738255	19	0.633377615511417	2	9	3	NaN	2	5	0.0501030471703878	1	1	NaN	268	5	16	2	121	221	321	NaN	521	0.0637099696323276	2	1	NaN	5705589.7569692	NaN	5705590.7404348	5705591.25693773
117	23	0	0	90	36.1581920903955	36.241610738255	23	0.766720271408558	2	6	2	NaN	1	5	0.0501030471703878	1	1	NaN	269	5	17	2	121	221	321	NaN	521	0.39341502264142	1	1	NaN	5705592.1238868	NaN	5705593.1072893	5705593.62383528
117	23	0	0	90	36.1581920903955	36.241610738255	15	0.500034959614277	2	7	2	NaN	2	4	0.0501030471703878	1	1	NaN	270	5	18	2	121	221	321	NaN	521	1.46069071721286	2	1	NaN	5705594.8241463	NaN	5705595.8075334	5705596.32410228
117	23	0	0	90	36.1581920903955	36.241610738255	14	0.466699295639992	2	8	4	NaN	2	4	0.0501030471703878	1	1	NaN	271	5	19	2	121	221	321	NaN	521	0.278103717602789	1	0	NaN	5705598.5911858	NaN	5705599.5745925	5705600.09112918
117	23	0	0	90	36.1581920903955	36.241610738255	22	0.733384607434273	2	11	4	NaN	2	5	0.0501030471703878	1	1	NaN	272	5	20	2	121	221	321	NaN	521	0.637911669909954	2	1	NaN	5705601.1914391	NaN	5705602.1748429	5705602.69138603
117	23	0	0	90	36.1581920903955	36.241610738255	21	0.700048943459988	2	4	4	NaN	1	4	0.0501030471703878	1	1	NaN	273	5	21	2	121	221	321	NaN	521	0.0713737700134516	2	0	NaN	5705604.1417229	NaN	5705605.1251352	5705605.64168113
117	23	0	0	90	36.1581920903955	36.241610738255	6	0.200013983845711	2	6	1	NaN	1	5	0.0501030471703878	1	1	NaN	274	5	22	2	121	221	321	NaN	521	0.010399523191154	1	1	NaN	5705606.5752911	NaN	5705607.5587145	5705608.07525408
117	23	0	0	90	36.1581920903955	36.241610738255	15	0.500034959614277	2	2	4	NaN	1	4	0.0501030471703878	1	1	NaN	275	5	23	2	121	221	321	NaN	521	0.488477922976017	1	1	NaN	5705608.9088635	NaN	5705609.8922443	5705610.40882288
117	23	0	0	90	36.1581920903955	36.241610738255	9	0.300020975768566	2	11	2	NaN	2	3	0.0501030471703878	1	1	NaN	276	5	24	2	121	221	321	NaN	521	0.0104162693023682	2	1	NaN	5705611.7091431	NaN	5705612.692535	5705613.20908523
117	23	0	0	90	36.1581920903955	36.241610738255	7	0.233349647819996	2	6	1	NaN	1	4	0.0501030471703878	1	1	NaN	277	5	25	2	121	221	321	NaN	521	0.195088922977448	1	1	NaN	5705614.0259105	NaN	5705615.0094512	5705615.52599148
117	23	0	0	90	36.1581920903955	36.241610738255	15	0.500034959614277	2	4	3	NaN	1	5	0.0501030471703878	1	1	NaN	278	5	26	2	121	221	321	NaN	521	0.102125469595194	1	1	NaN	5705616.5429528	NaN	5705617.5263474	5705618.04289263
117	23	0	0	90	36.1581920903955	36.241610738255	24	0.800055935382843	2	6	6	NaN	1	3	0.0501030471703878	1	1	NaN	279	5	27	2	121	221	321	NaN	521	0.109203970059752	1	1	NaN	5705618.9598703	NaN	5705619.9432567	5705620.45979703
117	23	0	0	90	36.1581920903955	36.241610738255	22	0.733384607434273	2	9	4	NaN	2	5	0.0501030471703878	1	1	NaN	280	5	28	2	121	221	321	NaN	521	0.0195618690922856	2	1	NaN	5705621.393445	NaN	5705622.3768564	5705622.89337073
117	23	0	0	90	36.1581920903955	36.241610738255	8	0.266685311794281	2	8	1	NaN	2	5	0.0501030471703878	1	1	NaN	281	5	29	2	121	221	321	NaN	521	0.109949617646635	2	1	NaN	5705623.7270056	NaN	5705624.7103976	5705625.22692918
117	23	0	0	90	36.1581920903955	36.241610738255	23	0.766720271408558	2	1	5	NaN	1	3	0.0501030471703878	1	1	NaN	282	5	30	2	121	221	321	NaN	521	0.0104094697162509	1	1	NaN	5705626.1438955	NaN	5705627.1273068	5705627.64383483
117	23	0	0	90	36.1581920903955	36.241610738255	8	0.266685311794281	2	4	6	NaN	1	3	0.0501030471703878	1	1	NaN	283	5	31	2	121	221	321	NaN	521	0.159686774946749	2	0	NaN	5705628.4774444	NaN	5705629.4608624	5705629.97740362
117	23	0	0	90	36.1581920903955	36.241610738255	7	0.233349647819996	2	7	4	NaN	2	5	0.0501030471703878	1	1	NaN	284	5	32	2	121	221	321	NaN	521	3.82861746940762	2	1	NaN	5705630.9443833	NaN	5705631.9277487	5705632.44431173
117	23	0	0	90	36.1581920903955	36.241610738255	6	0.200013983845711	2	7	5	NaN	2	5	0.0501030471703878	1	1	NaN	285	5	33	2	121	221	321	NaN	521	0.310793370008469	2	1	NaN	5705637.0782445	NaN	5705638.0617073	5705638.57825003
117	23	0	0	90	36.1581920903955	36.241610738255	19	0.633377615511417	2	9	5	NaN	2	5	0.0501030471703878	1	1	NaN	286	5	34	2	121	221	321	NaN	521	0.693922917358577	2	1	NaN	5705639.6953189	NaN	5705640.678557	5705641.19517448
117	23	0	0	90	36.1581920903955	36.241610738255	25	0.833391599357128	2	7	1	NaN	2	3	0.0501030471703878	1	1	NaN	287	5	35	2	121	221	321	NaN	521	0.021496769040823	2	1	NaN	5705642.6955189	NaN	5705643.6789225	5705644.19546143
117	23	0	0	90	36.1581920903955	36.241610738255	9	0.300020975768566	2	11	1	NaN	2	3	0.0501030471703878	1	1	NaN	288	5	36	2	121	221	321	NaN	521	0.256675122305751	2	1	NaN	5705645.2124334	NaN	5705646.1958182	5705646.71238218
117	23	0	0	90	36.1581920903955	36.241610738255	15	0.500034959614277	2	2	2	NaN	1	3	0.0501030471703878	1	1	NaN	289	5	37	2	121	221	321	NaN	521	0.0104107698425651	2	0	NaN	5705647.7792221	NaN	5705648.7627547	5705649.27929223
117	23	0	0	90	36.1581920903955	36.241610738255	17	0.566706287562847	2	8	4	NaN	2	5	0.0501030471703878	1	1	NaN	290	5	38	2	121	221	321	NaN	521	0.0104066226631403	2	1	NaN	5705650.1794713	NaN	5705651.1629791	5705651.67953968
117	23	0	0	90	36.1581920903955	36.241610738255	13	0.433363631665707	2	2	1	NaN	1	4	0.0501030471703878	1	1	NaN	291	5	39	2	121	221	321	NaN	521	0.0104136699810624	1	1	NaN	5705652.5964406	NaN	5705653.5798945	5705654.09643153
117	23	0	0	90	36.1581920903955	36.241610738255	9	0.300020975768566	2	9	1	NaN	2	4	0.0501030471703878	1	1	NaN	292	5	40	2	121	221	321	NaN	521	0.115681969560683	2	1	NaN	5705654.9133903	NaN	5705655.8967825	5705656.41332613
117	23	0	0	90	36.1581920903955	36.241610738255	14	0.466699295639992	2	7	1	NaN	2	3	0.0501030471703878	1	1	NaN	293	5	41	2	121	221	321	NaN	521	0.0104142697528005	2	1	NaN	5705657.3469529	NaN	5705658.3303641	5705658.84690093
117	23	0	0	90	36.1581920903955	36.241610738255	0	0	1	9	4	NaN	2	3	0.0501030471703878	1	1	NaN	294	5	42	2	111	211	311	NaN	511	0.0292725693434477	2	1	NaN	5705659.6638392	NaN	5705660.6472322	5705661.16379883
117	23	0	0	90	36.1581920903955	36.241610738255	11	0.366692303717136	2	6	6	NaN	1	5	0.0501030471703878	1	1	NaN	295	5	43	2	121	221	321	NaN	521	0.0103903226554394	1	1	NaN	5705662.0140613	NaN	5705662.9975087	5705663.51402278
117	23	0	0	90	36.1581920903955	36.241610738255	24	0.800055935382843	2	12	3	NaN	2	4	0.0501030471703878	1	1	NaN	296	5	44	2	121	221	321	NaN	521	0.394086422398686	2	1	NaN	5705664.3309497	NaN	5705665.3143754	5705665.83092988
117	23	0	0	90	36.1581920903955	36.241610738255	12	0.400027967691422	2	7	1	NaN	2	3	0.0501030471703878	1	1	NaN	297	5	45	2	121	221	321	NaN	521	0.069960368797183	2	1	NaN	5705667.0312463	NaN	5705668.0145996	5705668.53118133
117	23	0	0	90	36.1581920903955	36.241610738255	19	0.633377615511417	2	7	5	NaN	2	4	0.0501030471703878	1	1	NaN	298	5	46	2	121	221	321	NaN	521	0.141296417452395	1	0	NaN	5705669.6480213	NaN	5705670.6315693	5705671.14811508
117	23	0	0	90	36.1581920903955	36.241610738255	15	0.500034959614277	2	3	6	NaN	1	3	0.0501030471703878	1	1	NaN	299	5	47	2	121	221	321	NaN	521	0.154508422128856	1	1	NaN	5705672.0982792	NaN	5705673.0818141	5705673.59835448
117	23	0	0	90	36.1581920903955	36.241610738255	20	0.666713279485702	2	9	1	NaN	2	4	0.0501030471703878	1	1	NaN	300	5	48	2	121	221	321	NaN	521	0.151816517114639	1	0	NaN	5705674.5653251	NaN	5705675.5486969	5705676.06526448
117	23	0	0	90	36.1581920903955	36.241610738255	23	0.766720271408558	2	4	6	NaN	1	5	0.0501030471703878	1	1	NaN	301	5	49	2	121	221	321	NaN	521	0.0104076694697142	1	1	NaN	5705677.0322268	NaN	5705678.0156273	5705678.53216483
117	23	0	0	90	36.1581920903955	36.241610738255	15	0.500034959614277	2	1	4	NaN	1	5	0.0501030471703878	1	1	NaN	302	5	50	2	121	221	321	NaN	521	0.359266922809184	1	1	NaN	5705679.3657809	NaN	5705680.349185	5705680.86575668
117	23	0	0	90	36.1581920903955	36.241610738255	8	0.266685311794281	2	3	4	NaN	1	4	0.0501030471703878	1	1	NaN	303	5	51	2	121	221	321	NaN	521	0.372342023067176	2	0	NaN	5705682.0327008	NaN	5705683.0161239	5705683.53265908
117	23	0	0	90	36.1581920903955	36.241610738255	19	0.633377615511417	2	4	1	NaN	1	4	0.0501030471703878	1	1	NaN	304	5	52	2	121	221	321	NaN	521	0.15275502204895	1	1	NaN	5705684.7163089	NaN	5705685.6997495	5705686.21625258
117	23	0	0	90	36.1581920903955	36.241610738255	19	0.633377615511417	2	8	1	NaN	2	4	0.0501030471703878	1	1	NaN	305	5	53	2	121	221	321	NaN	521	0.0104058692231774	2	1	NaN	5705687.1832344	NaN	5705688.1666196	5705688.68316233
117	23	0	0	90	36.1581920903955	36.241610738255	6	0.200013983845711	2	3	5	NaN	1	3	0.0501030471703878	1	1	NaN	306	5	54	2	121	221	321	NaN	521	0.328982522711158	1	1	NaN	5705689.500107	NaN	5705690.483502	5705691.00006548
117	23	0	0	90	36.1581920903955	36.241610738255	25	0.833391599357128	2	6	3	NaN	1	5	0.0501030471703878	1	1	NaN	307	5	55	2	121	221	321	NaN	521	0.167108769528568	1	1	NaN	5705692.150369	NaN	5705693.1337778	5705693.65031923
117	23	0	0	90	36.1581920903955	36.241610738255	10	0.333356639742851	2	8	4	NaN	2	5	0.0501030471703878	1	1	NaN	308	5	56	2	121	221	321	NaN	521	0.27507212292403	1	0	NaN	5705694.6339484	NaN	5705695.6172454	5705696.13390378
117	23	0	0	90	36.1581920903955	36.241610738255	19	0.633377615511417	2	2	1	NaN	1	5	0.0501030471703878	1	1	NaN	309	5	57	2	121	221	321	NaN	521	0.0675793224945664	1	1	NaN	5705697.2175379	NaN	5705698.2009438	5705698.71749048
117	23	0	0	90	36.1581920903955	36.241610738255	9	0.300020975768566	2	2	6	NaN	1	3	0.0501030471703878	1	1	NaN	310	5	58	2	121	221	321	NaN	521	0.228070423007011	1	1	NaN	5705699.6010093	NaN	5705700.5845053	5705701.10105828
117	23	0	0	90	36.1581920903955	36.241610738255	20	0.666713279485702	2	1	1	NaN	1	4	0.0501030471703878	1	1	NaN	311	5	59	2	121	221	321	NaN	521	0.046259569004178	1	1	NaN	5705702.3346894	NaN	5705703.3180942	5705703.83464773
117	23	0	0	90	36.1581920903955	36.241610738255	6	0.200013983845711	2	7	6	NaN	2	4	0.0501030471703878	1	1	NaN	312	5	60	2	121	221	321	NaN	521	0.0110128223896027	2	1	NaN	5705704.8181635	NaN	5705705.8016805	5705706.31823038
117	23	0	0	90	36.1581920903955	36.241610738255	0	0	1	5	1	NaN	1	3	0.0501030471703878	1	1	NaN	313	5	61	2	111	211	311	NaN	511	0.157374422997236	2	0	NaN	5705707.1518378	NaN	5705708.1352532	5705708.65179878
117	23	0	0	90	36.1581920903955	36.241610738255	10	0.333356639742851	2	9	3	NaN	2	3	0.0501030471703878	1	1	NaN	314	5	62	2	121	221	321	NaN	521	0.922825569286942	2	1	NaN	5705709.6186548	NaN	5705710.6021503	5705711.11869563
117	23	0	0	90	36.1581920903955	36.241610738255	0	0	1	3	6	NaN	1	4	0.0501030471703878	1	1	NaN	315	5	63	2	111	211	311	NaN	511	0.0247468687593937	2	0	NaN	5705712.8523916	NaN	5705713.8358097	5705714.35234793
117	23	0	0	90	36.1581920903955	36.241610738255	15	0.500034959614277	2	6	4	NaN	1	5	0.0501030471703878	1	1	NaN	316	6	1	2	121	221	321	NaN	521	0.288412669673562	2	0	NaN	5705716.2527448	NaN	5705717.2361583	5705717.75268283
117	23	0	0	90	36.1581920903955	36.241610738255	21	0.700048943459988	2	2	4	NaN	1	4	0.0501030471703878	1	1	NaN	317	6	2	2	121	221	321	NaN	521	0.0560373226180673	1	1	NaN	5705718.8529905	NaN	5705719.8363935	5705720.35294888
117	23	0	0	90	36.1581920903955	36.241610738255	0	0	1	1	5	NaN	1	5	0.0501030471703878	1	1	NaN	318	6	3	2	111	211	311	NaN	511	0.0297387698665261	1	1	NaN	5705721.303265	NaN	5705722.2866289	5705722.80317443
117	23	0	0	90	36.1581920903955	36.241610738255	17	0.566706287562847	2	3	1	NaN	1	5	0.0501030471703878	1	1	NaN	319	6	4	2	121	221	321	NaN	521	0.0104117691516876	1	1	NaN	5705723.6534584	NaN	5705724.6368597	5705725.15341053
117	23	0	0	90	36.1581920903955	36.241610738255	6	0.200013983845711	2	8	3	NaN	2	4	0.0501030471703878	1	1	NaN	320	6	5	2	121	221	321	NaN	521	0.0104134688153863	2	1	NaN	5705725.9702387	NaN	5705726.953749	5705727.47031423
117	23	0	0	90	36.1581920903955	36.241610738255	13	0.433363631665707	2	7	3	NaN	2	3	0.0501030471703878	1	1	NaN	321	6	6	2	121	221	321	NaN	521	0.010432617738843	2	1	NaN	5705728.2872519	NaN	5705729.2706579	5705729.78719678
117	23	0	0	90	36.1581920903955	36.241610738255	23	0.766720271408558	2	3	4	NaN	1	3	0.0501030471703878	1	1	NaN	322	6	7	2	121	221	321	NaN	521	0.361384622752666	2	0	NaN	5705730.604145	NaN	5705731.5875557	5705732.10410168
117	23	0	0	90	36.1581920903955	36.241610738255	25	0.833391599357128	2	3	2	NaN	1	3	0.0501030471703878	1	1	NaN	323	6	8	2	121	221	321	NaN	521	0.126160569489002	2	0	NaN	5705733.2710717	NaN	5705734.2544733	5705734.77102633
117	23	0	0	90	36.1581920903955	36.241610738255	24	0.800055935382843	2	10	3	NaN	2	5	0.0501030471703878	1	1	NaN	324	6	9	2	121	221	321	NaN	521	0.532562469132245	2	1	NaN	5705735.7045484	NaN	5705736.6880564	5705737.20459273
117	23	0	0	90	36.1581920903955	36.241610738255	20	0.666713279485702	2	8	5	NaN	2	3	0.0501030471703878	1	1	NaN	325	6	10	2	121	221	321	NaN	521	0.242699743248522	2	1	NaN	5705738.5549278	NaN	5705739.5383545	5705740.05487586
117	23	0	0	90	36.1581920903955	36.241610738255	8	0.266685311794281	2	10	3	NaN	2	5	0.0501030471703878	1	1	NaN	326	6	11	2	121	221	321	NaN	521	0.212028170004487	2	1	NaN	5705741.1051827	NaN	5705742.088569	5705742.60513253
117	23	0	0	90	36.1581920903955	36.241610738255	7	0.233349647819996	2	9	4	NaN	2	5	0.0501030471703878	1	1	NaN	327	6	12	2	121	221	321	NaN	521	0.222793417982757	2	1	NaN	5705743.6387596	NaN	5705744.6221393	5705745.13871598
117	23	0	0	90	36.1581920903955	36.241610738255	18	0.600041951537132	2	1	5	NaN	1	3	0.0501030471703878	1	1	NaN	328	6	13	2	121	221	321	NaN	521	0.153198570013046	1	1	NaN	5705746.1723611	NaN	5705747.1557469	5705747.67230783
117	23	0	0	90	36.1581920903955	36.241610738255	6	0.200013983845711	2	9	1	NaN	2	3	0.0501030471703878	1	1	NaN	329	6	14	2	121	221	321	NaN	521	0.0104054696857929	2	1	NaN	5705748.6392491	NaN	5705749.6226582	5705750.13919233
117	23	0	0	90	36.1581920903955	36.241610738255	20	0.666713279485702	2	12	4	NaN	2	5	0.0501030471703878	1	1	NaN	330	6	15	2	121	221	321	NaN	521	0.20893531665206	2	1	NaN	5705750.9561428	NaN	5705751.9395506	5705752.45610568
117	23	0	0	90	36.1581920903955	36.241610738255	21	0.700048943459988	2	10	4	NaN	2	5	0.0501030471703878	1	1	NaN	331	6	16	2	121	221	321	NaN	521	0.499429523013532	2	1	NaN	5705753.4897434	NaN	5705754.4731473	5705754.98967708
117	23	0	0	90	36.1581920903955	36.241610738255	18	0.600041951537132	2	12	1	NaN	2	5	0.0501030471703878	1	1	NaN	332	6	17	2	121	221	321	NaN	521	0.170797069557011	2	1	NaN	5705756.3066663	NaN	5705757.2900682	5705757.80661373
117	23	0	0	90	36.1581920903955	36.241610738255	11	0.366692303717136	2	2	5	NaN	1	4	0.0501030471703878	1	1	NaN	333	6	18	2	121	221	321	NaN	521	0.0790958693251014	1	1	NaN	5705758.790246	NaN	5705759.7736501	5705760.29018853
117	23	0	0	90	36.1581920903955	36.241610738255	15	0.500034959614277	2	12	3	NaN	2	4	0.0501030471703878	1	1	NaN	334	6	19	2	121	221	321	NaN	521	2.91944942250848	2	1	NaN	5705761.1904791	NaN	5705762.1738782	5705762.69043218
117	23	0	0	90	36.1581920903955	36.241610738255	6	0.200013983845711	2	1	3	NaN	1	4	0.0501030471703878	1	1	NaN	335	6	20	2	121	221	321	NaN	521	0.348952469415963	1	1	NaN	5705766.4242409	NaN	5705767.4077166	5705767.92427373
117	23	0	0	90	36.1581920903955	36.241610738255	12	0.400027967691422	2	11	5	NaN	2	5	0.0501030471703878	1	1	NaN	336	6	21	2	121	221	321	NaN	521	0.401872569695115	1	0	NaN	5705769.0912738	NaN	5705770.0746517	5705770.59120263
117	23	0	0	90	36.1581920903955	36.241610738255	10	0.333356639742851	2	3	6	NaN	1	4	0.0501030471703878	1	1	NaN	337	6	22	2	121	221	321	NaN	521	0.0103962225839496	1	1	NaN	5705771.8081871	NaN	5705772.7915865	5705773.30814678
117	23	0	0	90	36.1581920903955	36.241610738255	24	0.800055935382843	2	3	4	NaN	1	5	0.0501030471703878	1	1	NaN	338	6	23	2	121	221	321	NaN	521	0.0104131689295173	1	1	NaN	5705774.1417314	NaN	5705775.125144	5705775.64170043
117	23	0	0	90	36.1581920903955	36.241610738255	18	0.600041951537132	2	1	5	NaN	1	3	0.0501030471703878	1	1	NaN	339	6	24	2	121	221	321	NaN	521	0.0104320691898465	1	1	NaN	5705776.6585726	NaN	5705777.6420798	5705778.15860933
117	23	0	0	90	36.1581920903955	36.241610738255	22	0.733384607434273	2	7	6	NaN	2	4	0.0501030471703878	1	1	NaN	340	6	25	2	121	221	321	NaN	521	0.211357069201767	2	1	NaN	5705779.6422609	NaN	5705780.6256976	5705781.14223763
117	23	0	0	90	36.1581920903955	36.241610738255	16	0.533370623588562	2	6	3	NaN	1	4	0.0501030471703878	1	1	NaN	341	6	26	2	121	221	321	NaN	521	0.0933343693614006	1	1	NaN	5705782.1758843	NaN	5705783.1592711	5705783.67581883
117	23	0	0	90	36.1581920903955	36.241610738255	24	0.800055935382843	2	7	6	NaN	2	5	0.0501030471703878	1	1	NaN	342	6	27	2	121	221	321	NaN	521	0.172871669754386	2	1	NaN	5705784.5927964	NaN	5705785.5761848	5705786.09272033
117	23	0	0	90	36.1581920903955	36.241610738255	6	0.200013983845711	2	12	5	NaN	2	3	0.0501030471703878	1	1	NaN	343	6	28	2	121	221	321	NaN	521	0.240857822820544	1	0	NaN	5705787.0763915	NaN	5705788.0597406	5705788.57630378
117	23	0	0	90	36.1581920903955	36.241610738255	25	0.833391599357128	2	1	6	NaN	1	5	0.0501030471703878	1	1	NaN	344	6	29	2	121	221	321	NaN	521	0.0103020379319787	1	1	NaN	5705789.6432736	NaN	5705790.6266789	5705791.14322036
117	23	0	0	90	36.1581920903955	36.241610738255	12	0.400027967691422	2	5	5	NaN	1	4	0.0501030471703878	1	1	NaN	345	6	30	2	121	221	321	NaN	521	0.837050070054829	1	1	NaN	5705791.9601678	NaN	5705792.9435671	5705793.46011023
117	23	0	0	90	36.1581920903955	36.241610738255	7	0.233349647819996	2	10	3	NaN	2	4	0.0501030471703878	1	1	NaN	346	6	31	2	121	221	321	NaN	521	0.263270169496536	1	0	NaN	5705795.1104235	NaN	5705796.0938872	5705796.61042203
117	23	0	0	90	36.1581920903955	36.241610738255	20	0.666713279485702	2	3	3	NaN	1	4	0.0501030471703878	1	1	NaN	347	6	32	2	121	221	321	NaN	521	0.367501869797707	1	1	NaN	5705797.8940807	NaN	5705798.8774912	5705799.39403573
117	23	0	0	90	36.1581920903955	36.241610738255	10	0.333356639742851	2	12	1	NaN	2	3	0.0501030471703878	1	1	NaN	348	6	33	2	121	221	321	NaN	521	0.139570522122085	1	0	NaN	5705800.5776215	NaN	5705801.5611133	5705802.07763268
117	23	0	0	90	36.1581920903955	36.241610738255	17	0.566706287562847	2	1	3	NaN	1	5	0.0501030471703878	1	1	NaN	349	6	34	2	121	221	321	NaN	521	0.432743869721889	1	1	NaN	5705803.0444436	NaN	5705804.0279914	5705804.54453433
117	23	0	0	90	36.1581920903955	36.241610738255	18	0.600041951537132	2	5	2	NaN	1	3	0.0501030471703878	1	1	NaN	350	6	35	2	121	221	321	NaN	521	0.234436969272792	1	1	NaN	5705805.7948627	NaN	5705806.7782638	5705807.29481103
117	23	0	0	90	36.1581920903955	36.241610738255	14	0.466699295639992	2	12	2	NaN	2	5	0.0501030471703878	1	1	NaN	351	6	36	2	121	221	321	NaN	521	0.452486322261393	2	1	NaN	5705808.3451504	NaN	5705809.3284844	5705809.84506198
117	23	0	0	90	36.1581920903955	36.241610738255	17	0.566706287562847	2	9	3	NaN	2	4	0.0501030471703878	1	1	NaN	352	6	37	2	121	221	321	NaN	521	0.069099216721952	1	0	NaN	5705811.112062	NaN	5705812.0954484	5705812.61199248
117	23	0	0	90	36.1581920903955	36.241610738255	0	0	1	8	1	NaN	2	4	0.0501030471703878	1	1	NaN	353	6	38	2	111	211	311	NaN	511	0.077681022696197	2	1	NaN	5705813.4956402	NaN	5705814.4790186	5705814.99556818
117	23	0	0	90	36.1581920903955	36.241610738255	10	0.333356639742851	2	8	6	NaN	2	4	0.0501030471703878	1	1	NaN	354	6	39	2	121	221	321	NaN	521	0.614427389577031	2	1	NaN	5705816.0791738	NaN	5705817.062614	5705817.57915151
117	23	0	0	90	36.1581920903955	36.241610738255	0	0	1	7	3	NaN	2	4	0.0501030471703878	1	1	NaN	355	6	40	2	111	211	311	NaN	511	0.216470637358725	2	1	NaN	5705819.012689	NaN	5705819.9962213	5705820.51277466
117	23	0	0	90	36.1581920903955	36.241610738255	10	0.333356639742851	2	4	3	NaN	1	4	0.0501030471703878	1	1	NaN	356	6	41	2	121	221	321	NaN	521	0.138657954521477	1	1	NaN	5705821.5464288	NaN	5705822.5297899	5705823.04634535
117	23	0	0	90	36.1581920903955	36.241610738255	16	0.533370623588562	2	5	3	NaN	1	5	0.0501030471703878	1	1	NaN	357	6	42	2	121	221	321	NaN	521	0.0484894178807735	1	1	NaN	5705823.9966763	NaN	5705824.9800423	5705825.49659868
117	23	0	0	90	36.1581920903955	36.241610738255	23	0.766720271408558	2	2	4	NaN	1	4	0.0501030471703878	1	1	NaN	358	6	43	2	121	221	321	NaN	521	0.178201022557914	1	1	NaN	5705826.3635557	NaN	5705827.3469515	5705827.86350078
117	23	0	0	90	36.1581920903955	36.241610738255	13	0.433363631665707	2	10	3	NaN	2	4	0.0501030471703878	1	1	NaN	359	6	44	2	121	221	321	NaN	521	0.0103138377889991	1	0	NaN	5705828.8471196	NaN	5705829.8305033	5705830.34707166
117	23	0	0	90	36.1581920903955	36.241610738255	18	0.600041951537132	2	10	4	NaN	2	5	0.0501030471703878	1	1	NaN	360	6	45	2	121	221	321	NaN	521	0.136368323117495	2	1	NaN	5705831.1973297	NaN	5705832.1807558	5705832.69730178
117	23	0	0	90	36.1581920903955	36.241610738255	0	0	1	4	3	NaN	1	4	0.0501030471703878	1	1	NaN	361	6	46	2	111	211	311	NaN	511	0.0937445694580674	2	0	NaN	5705833.6475885	NaN	5705834.6309738	5705835.14754243
117	23	0	0	90	36.1581920903955	36.241610738255	14	0.466699295639992	2	4	4	NaN	1	4	0.0501030471703878	1	1	NaN	362	6	47	2	121	221	321	NaN	521	0.133039579726756	1	1	NaN	5705836.0645346	NaN	5705837.0479042	5705837.56444382
117	23	0	0	90	36.1581920903955	36.241610738255	10	0.333356639742851	2	11	2	NaN	2	4	0.0501030471703878	1	1	NaN	363	6	48	2	121	221	321	NaN	521	0.0580935692414641	2	1	NaN	5705838.5314068	NaN	5705839.5148144	5705840.03134893
117	23	0	0	90	36.1581920903955	36.241610738255	20	0.666713279485702	2	5	6	NaN	1	5	0.0501030471703878	1	1	NaN	364	6	49	2	121	221	321	NaN	521	0.250938069075346	2	0	NaN	5705840.8981735	NaN	5705841.8817338	5705842.39825013
117	23	0	0	90	36.1581920903955	36.241610738255	23	0.766720271408558	2	1	6	NaN	1	3	0.0501030471703878	1	1	NaN	365	6	50	2	121	221	321	NaN	521	0.0762377688661218	1	1	NaN	5705843.4652243	NaN	5705844.4486341	5705844.96516963
117	23	0	0	90	36.1581920903955	36.241610738255	6	0.200013983845711	2	5	4	NaN	1	5	0.0501030471703878	1	1	NaN	366	6	51	2	121	221	321	NaN	521	0.276558590121567	1	1	NaN	5705845.8487895	NaN	5705846.8321787	5705847.34873741
117	23	0	0	90	36.1581920903955	36.241610738255	9	0.300020975768566	2	8	6	NaN	2	4	0.0501030471703878	1	1	NaN	367	6	52	2	121	221	321	NaN	521	0.0689071221277118	2	1	NaN	5705848.4323763	NaN	5705849.4157793	5705849.93233428
117	23	0	0	90	36.1581920903955	36.241610738255	17	0.566706287562847	2	3	1	NaN	1	3	0.0501030471703878	1	1	NaN	368	6	53	2	121	221	321	NaN	521	0.229376370087266	2	0	NaN	5705850.8160488	NaN	5705851.7993539	5705852.31589213
117	23	0	0	90	36.1581920903955	36.241610738255	19	0.633377615511417	2	10	2	NaN	2	4	0.0501030471703878	1	1	NaN	369	6	54	2	121	221	321	NaN	521	0.152228322811425	2	1	NaN	5705853.3495243	NaN	5705854.3329121	5705854.84948338
117	23	0	0	90	36.1581920903955	36.241610738255	8	0.266685311794281	2	7	5	NaN	2	3	0.0501030471703878	1	1	NaN	370	6	55	2	121	221	321	NaN	521	0.549006338231266	2	1	NaN	5705855.8164349	NaN	5705856.7998383	5705857.31638326
117	23	0	0	90	36.1581920903955	36.241610738255	17	0.566706287562847	2	10	5	NaN	2	5	0.0501030471703878	1	1	NaN	371	6	56	2	121	221	321	NaN	521	0.490373569540679	1	0	NaN	5705858.6833834	NaN	5705859.6668083	5705860.18332593
117	23	0	0	90	36.1581920903955	36.241610738255	20	0.666713279485702	2	8	1	NaN	2	4	0.0501030471703878	1	1	NaN	372	6	57	2	121	221	321	NaN	521	0.40191796887666	1	0	NaN	5705861.4836519	NaN	5705862.4671178	5705862.98360453
117	23	0	0	90	36.1581920903955	36.241610738255	11	0.366692303717136	2	3	5	NaN	1	3	0.0501030471703878	1	1	NaN	373	6	58	2	121	221	321	NaN	521	0.669101669453084	1	1	NaN	5705864.2006915	NaN	5705865.1839995	5705865.70053783
117	23	0	0	90	36.1581920903955	36.241610738255	18	0.600041951537132	2	2	6	NaN	1	3	0.0501030471703878	1	1	NaN	374	6	59	2	121	221	321	NaN	521	0.249755416996777	1	1	NaN	5705867.4675545	NaN	5705868.450983	5705868.96752348
117	23	0	0	90	36.1581920903955	36.241610738255	25	0.833391599357128	2	9	6	NaN	2	4	0.0501030471703878	1	1	NaN	375	6	60	2	121	221	321	NaN	521	0.395293432287872	2	1	NaN	5705870.0344977	NaN	5705871.0178921	5705871.53445197
117	23	0	0	90	36.1581920903955	36.241610738255	8	0.266685311794281	2	12	5	NaN	2	4	0.0501030471703878	1	1	NaN	376	6	61	2	121	221	321	NaN	521	0.102667169645429	1	0	NaN	5705872.7347675	NaN	5705873.7181634	5705874.23471083
117	23	0	0	90	36.1581920903955	36.241610738255	25	0.833391599357128	2	4	1	NaN	1	3	0.0501030471703878	1	1	NaN	377	6	62	2	121	221	321	NaN	521	0.80607866961509	2	0	NaN	5705875.1516951	NaN	5705876.1350712	5705876.65161173
117	23	0	0	90	36.1581920903955	36.241610738255	6	0.200013983845711	2	1	2	NaN	1	4	0.0501030471703878	1	1	NaN	378	6	63	2	121	221	321	NaN	521	0.168402069248259	1	1	NaN	5705878.4853114	NaN	5705879.4687351	5705879.98526933
117	23	0	0	90	36.1581920903955	36.241610738255	11	0.366692303717136	2	6	2	NaN	1	4	0.0501030471703878	1	1	NaN	379	7	1	2	121	221	321	NaN	521	0.111660922877491	2	0	NaN	5705903.8377923	NaN	5705904.8211827	5705905.33777198
117	23	0	0	90	36.1581920903955	36.241610738255	8	0.266685311794281	2	8	3	NaN	2	5	0.0501030471703878	1	1	NaN	380	7	2	2	121	221	321	NaN	521	0.238428369164467	2	1	NaN	5705906.2713806	NaN	5705907.2548168	5705907.77134023
117	23	0	0	90	36.1581920903955	36.241610738255	20	0.666713279485702	2	10	6	NaN	2	4	0.0501030471703878	1	1	NaN	381	7	3	2	121	221	321	NaN	521	0.584145969711244	2	1	NaN	5705908.8215108	NaN	5705909.8050489	5705910.32158473
117	23	0	0	90	36.1581920903955	36.241610738255	12	0.400027967691422	2	12	5	NaN	2	5	0.0501030471703878	1	1	NaN	382	7	4	2	121	221	321	NaN	521	0.443355069495738	2	1	NaN	5705911.7219179	NaN	5705912.7053146	5705913.22186483
117	23	0	0	90	36.1581920903955	36.241610738255	14	0.466699295639992	2	2	3	NaN	1	3	0.0501030471703878	1	1	NaN	383	7	5	2	121	221	321	NaN	521	0.164561469107866	1	1	NaN	5705914.4887374	NaN	5705915.4722699	5705915.98880473
117	23	0	0	90	36.1581920903955	36.241610738255	24	0.800055935382843	2	1	4	NaN	1	4	0.0501030471703878	1	1	NaN	384	7	6	2	121	221	321	NaN	521	0.0649782698601484	1	1	NaN	5705916.972439	NaN	5705917.9558537	5705918.47238213
117	23	0	0	90	36.1581920903955	36.241610738255	13	0.433363631665707	2	4	6	NaN	1	3	0.0501030471703878	1	1	NaN	385	7	7	2	121	221	321	NaN	521	0.200813789851964	1	1	NaN	5705919.3726524	NaN	5705920.356094	5705920.87262551
117	23	0	0	90	36.1581920903955	36.241610738255	20	0.666713279485702	2	4	5	NaN	1	4	0.0501030471703878	1	1	NaN	386	7	8	2	121	221	321	NaN	521	0.163668669760227	1	1	NaN	5705921.889591	NaN	5705922.8729828	5705923.38953253
117	23	0	0	90	36.1581920903955	36.241610738255	24	0.800055935382843	2	9	6	NaN	2	3	0.0501030471703878	1	1	NaN	387	7	9	2	121	221	321	NaN	521	0.209092468954623	1	0	NaN	5705924.3565006	NaN	5705925.3399016	5705925.85644543
117	23	0	0	90	36.1581920903955	36.241610738255	14	0.466699295639992	2	2	5	NaN	1	4	0.0501030471703878	1	1	NaN	388	7	10	2	121	221	321	NaN	521	0.139720069244504	1	1	NaN	5705926.8900808	NaN	5705927.8734734	5705928.39002163
117	23	0	0	90	36.1581920903955	36.241610738255	8	0.266685311794281	2	5	3	NaN	1	3	0.0501030471703878	1	1	NaN	389	7	11	2	121	221	321	NaN	521	0.977053069509566	1	1	NaN	5705929.3403472	NaN	5705930.3237632	5705930.84026353
117	23	0	0	90	36.1581920903955	36.241610738255	18	0.600041951537132	2	3	6	NaN	1	4	0.0501030471703878	1	1	NaN	390	7	12	2	121	221	321	NaN	521	1.1951432749629	1	1	NaN	5705932.690626	NaN	5705933.6740518	5705934.19060463
117	23	0	0	90	36.1581920903955	36.241610738255	13	0.433363631665707	2	11	5	NaN	2	4	0.0501030471703878	1	1	NaN	391	7	13	2	121	221	321	NaN	521	0.222670475021005	1	0	NaN	5705936.1909906	NaN	5705937.1743731	5705937.69094303
117	23	0	0	90	36.1581920903955	36.241610738255	8	0.266685311794281	2	1	3	NaN	1	3	0.0501030471703878	1	1	NaN	392	7	14	2	121	221	321	NaN	521	0.0103443805128336	1	1	NaN	5705938.7244515	NaN	5705939.7079766	5705940.22452572
117	23	0	0	90	36.1581920903955	36.241610738255	19	0.633377615511417	2	11	3	NaN	2	3	0.0501030471703878	1	1	NaN	393	7	15	2	121	221	321	NaN	521	1.1396545227617	1	0	NaN	5705941.058137	NaN	5705942.0415357	5705942.55809108
117	23	0	0	90	36.1581920903955	36.241610738255	16	0.533370623588562	2	9	4	NaN	2	4	0.0501030471703878	1	1	NaN	394	7	16	2	121	221	321	NaN	521	0.185287264175713	2	1	NaN	5705944.5084893	NaN	5705945.4918742	5705946.00842294
117	23	0	0	90	36.1581920903955	36.241610738255	24	0.800055935382843	2	3	2	NaN	1	3	0.0501030471703878	1	1	NaN	395	7	17	2	121	221	321	NaN	521	0.0104058701545	1	1	NaN	5705947.0086712	NaN	5705947.9921215	5705948.50866793
117	23	0	0	90	36.1581920903955	36.241610738255	14	0.466699295639992	2	11	6	NaN	2	4	0.0501030471703878	1	1	NaN	396	7	18	2	121	221	321	NaN	521	0.176255837082863	2	1	NaN	5705949.3256151	NaN	5705950.3090468	5705950.82556676
117	23	0	0	90	36.1581920903955	36.241610738255	24	0.800055935382843	2	4	1	NaN	1	4	0.0501030471703878	1	1	NaN	397	7	19	2	121	221	321	NaN	521	0.0836602691560984	1	1	NaN	5705951.8258852	NaN	5705952.8092658	5705953.32580613
117	23	0	0	90	36.1581920903955	36.241610738255	23	0.766720271408558	2	9	2	NaN	2	5	0.0501030471703878	1	1	NaN	398	7	20	2	121	221	321	NaN	521	0.259351570159197	2	1	NaN	5705954.226103	NaN	5705955.2095291	5705955.72603623
117	23	0	0	90	36.1581920903955	36.241610738255	7	0.233349647819996	2	4	2	NaN	1	5	0.0501030471703878	1	1	NaN	399	7	21	2	121	221	321	NaN	521	0.172547769732773	1	1	NaN	5705956.7930133	NaN	5705957.7764156	5705958.29295893
117	23	0	0	90	36.1581920903955	36.241610738255	7	0.233349647819996	2	1	4	NaN	1	4	0.0501030471703878	1	1	NaN	400	7	22	2	121	221	321	NaN	521	0.264901622198522	1	1	NaN	5705959.2765716	NaN	5705960.2599811	5705960.77654318
117	23	0	0	90	36.1581920903955	36.241610738255	7	0.233349647819996	2	8	2	NaN	2	4	0.0501030471703878	1	1	NaN	401	7	23	2	121	221	321	NaN	521	0.17706516943872	2	1	NaN	5705961.8601823	NaN	5705962.8435607	5705963.36012683
117	23	0	0	90	36.1581920903955	36.241610738255	13	0.433363631665707	2	12	1	NaN	2	5	0.0501030471703878	1	1	NaN	402	7	24	2	121	221	321	NaN	521	0.010395722463727	2	1	NaN	5705964.3438473	NaN	5705965.3271514	5705965.84369928
117	23	0	0	90	36.1581920903955	36.241610738255	19	0.633377615511417	2	12	5	NaN	2	3	0.0501030471703878	1	1	NaN	403	7	25	2	121	221	321	NaN	521	0.192137469537556	2	1	NaN	5705966.6773178	NaN	5705967.6607446	5705968.17726763
117	23	0	0	90	36.1581920903955	36.241610738255	20	0.666713279485702	2	1	1	NaN	1	4	0.0501030471703878	1	1	NaN	404	7	26	2	121	221	321	NaN	521	0.0458880225196481	1	1	NaN	5705969.5276036	NaN	5705970.5109977	5705971.02755268
117	23	0	0	90	36.1581920903955	36.241610738255	20	0.666713279485702	2	7	2	NaN	2	4	0.0501030471703878	1	1	NaN	405	7	27	2	121	221	321	NaN	521	0.59096356946975	2	1	NaN	5705971.8945023	NaN	5705972.8778768	5705973.39444153
117	23	0	0	90	36.1581920903955	36.241610738255	23	0.766720271408558	2	12	2	NaN	2	4	0.0501030471703878	1	1	NaN	406	7	28	2	121	221	321	NaN	521	0.755180369131267	2	1	NaN	5705974.7946871	NaN	5705975.7781858	5705976.29472343
117	23	0	0	90	36.1581920903955	36.241610738255	10	0.333356639742851	2	12	1	NaN	2	5	0.0501030471703878	1	1	NaN	407	7	29	2	121	221	321	NaN	521	0.215764869004488	2	1	NaN	5705977.8617552	NaN	5705978.8451566	5705979.36169603
117	23	0	0	90	36.1581920903955	36.241610738255	22	0.733384607434273	2	10	3	NaN	2	3	0.0501030471703878	1	1	NaN	408	7	30	2	121	221	321	NaN	521	0.106118569150567	2	1	NaN	5705980.3953232	NaN	5705981.3787224	5705981.89527753
117	23	0	0	90	36.1581920903955	36.241610738255	13	0.433363631665707	2	8	4	NaN	2	5	0.0501030471703878	1	1	NaN	409	7	31	2	121	221	321	NaN	521	0.0104490639641881	2	1	NaN	5705982.8122311	NaN	5705983.795641	5705984.31217684
117	23	0	0	90	36.1581920903955	36.241610738255	14	0.466699295639992	2	1	4	NaN	1	3	0.0501030471703878	1	1	NaN	410	7	32	2	121	221	321	NaN	521	0.155640464276075	2	0	NaN	5705985.1457944	NaN	5705986.1292053	5705986.64573664
117	23	0	0	90	36.1581920903955	36.241610738255	15	0.500034959614277	2	3	4	NaN	1	4	0.0501030471703878	1	1	NaN	411	7	33	2	121	221	321	NaN	521	0.0104066701605916	1	1	NaN	5705987.6126991	NaN	5705988.596115	5705989.11264823
117	23	0	0	90	36.1581920903955	36.241610738255	24	0.800055935382843	2	5	1	NaN	1	5	0.0501030471703878	1	1	NaN	412	7	34	2	121	221	321	NaN	521	0.618579369969666	1	1	NaN	5705990.1629547	NaN	5705991.1463561	5705991.66290313
117	23	0	0	90	36.1581920903955	36.241610738255	19	0.633377615511417	2	1	3	NaN	1	4	0.0501030471703878	1	1	NaN	413	7	35	2	121	221	321	NaN	521	0.124951769597828	1	1	NaN	5705993.0965487	NaN	5705994.0799804	5705994.59652543
117	23	0	0	90	36.1581920903955	36.241610738255	22	0.733384607434273	2	5	4	NaN	1	3	0.0501030471703878	1	1	NaN	414	7	36	2	121	221	321	NaN	521	0.171390723437071	1	1	NaN	5705995.5302459	NaN	5705996.5134897	5705997.03009618
117	23	0	0	90	36.1581920903955	36.241610738255	23	0.766720271408558	2	5	1	NaN	1	4	0.0501030471703878	1	1	NaN	415	7	37	2	121	221	321	NaN	521	0.0877693695947528	1	1	NaN	5705998.0136042	NaN	5705998.9971318	5705999.51367293
117	23	0	0	90	36.1581920903955	36.241610738255	14	0.466699295639992	2	5	2	NaN	1	4	0.0501030471703878	1	1	NaN	416	7	38	2	121	221	321	NaN	521	0.339911922812462	1	1	NaN	5706000.5139817	NaN	5706001.4973717	5706002.01392558
117	23	0	0	90	36.1581920903955	36.241610738255	18	0.600041951537132	2	7	4	NaN	2	5	0.0501030471703878	1	1	NaN	417	7	39	2	121	221	321	NaN	521	0.105228822678328	1	0	NaN	5706003.1642614	NaN	5706004.1476514	5706004.66418548
117	23	0	0	90	36.1581920903955	36.241610738255	10	0.333356639742851	2	3	1	NaN	1	4	0.0501030471703878	1	1	NaN	418	7	40	2	121	221	321	NaN	521	0.208822822198272	1	1	NaN	5706005.5811385	NaN	5706006.5645341	5706007.08109198
117	23	0	0	90	36.1581920903955	36.241610738255	15	0.500034959614277	2	9	2	NaN	2	4	0.0501030471703878	1	1	NaN	419	7	41	2	121	221	321	NaN	521	0.16345776990056	1	0	NaN	5706008.0980601	NaN	5706009.0814523	5706009.59799973
117	23	0	0	90	36.1581920903955	36.241610738255	21	0.700048943459988	2	8	4	NaN	2	4	0.0501030471703878	1	1	NaN	420	7	42	2	121	221	321	NaN	521	0.185687864199281	1	0	NaN	5706010.9482399	NaN	5706011.9317282	5706012.44826924
117	23	0	0	90	36.1581920903955	36.241610738255	14	0.466699295639992	2	11	4	NaN	2	3	0.0501030471703878	1	1	NaN	421	7	43	2	121	221	321	NaN	521	0.0103991217911243	1	0	NaN	5706013.4485788	NaN	5706014.4319803	5706014.94852958
117	23	0	0	90	36.1581920903955	36.241610738255	15	0.500034959614277	2	1	4	NaN	1	3	0.0501030471703878	1	1	NaN	422	7	44	2	121	221	321	NaN	521	0.103394669480622	1	1	NaN	5706015.7821398	NaN	5706016.7655372	5706017.28208013
117	23	0	0	90	36.1581920903955	36.241610738255	12	0.400027967691422	2	8	3	NaN	2	3	0.0501030471703878	1	1	NaN	423	7	45	2	121	221	321	NaN	521	0.678912612609565	1	0	NaN	5706018.1990063	NaN	5706019.1824194	5706019.69899419
117	23	0	0	90	36.1581920903955	36.241610738255	6	0.200013983845711	2	4	4	NaN	1	4	0.0501030471703878	1	1	NaN	424	7	46	2	121	221	321	NaN	521	0.158170469105244	1	1	NaN	5706021.19934	NaN	5706022.1827471	5706022.69928303
117	23	0	0	90	36.1581920903955	36.241610738255	20	0.666713279485702	2	2	2	NaN	1	3	0.0501030471703878	1	1	NaN	425	7	47	2	121	221	321	NaN	521	0.299334017559886	1	1	NaN	5706023.6662328	NaN	5706024.6496485	5706025.16618948
117	23	0	0	90	36.1581920903955	36.241610738255	8	0.266685311794281	2	5	6	NaN	1	5	0.0501030471703878	1	1	NaN	426	7	48	2	121	221	321	NaN	521	0.0104295173659921	1	1	NaN	5706026.2831608	NaN	5706027.2665722	5706027.78311358
117	23	0	0	90	36.1581920903955	36.241610738255	18	0.600041951537132	2	7	3	NaN	2	3	0.0501030471703878	1	1	NaN	427	7	49	2	121	221	321	NaN	521	0.165455669164658	1	0	NaN	5706028.6001647	NaN	5706029.5834856	5706030.10001173
117	23	0	0	90	36.1581920903955	36.241610738255	9	0.300020975768566	2	4	2	NaN	1	5	0.0501030471703878	1	1	NaN	428	7	50	2	121	221	321	NaN	521	0.0419133696705103	1	1	NaN	5706031.0836457	NaN	5706032.0670453	5706032.58358793
117	23	0	0	90	36.1581920903955	36.241610738255	18	0.600041951537132	2	2	5	NaN	1	5	0.0501030471703878	1	1	NaN	429	7	51	2	121	221	321	NaN	521	0.099834717810154	2	0	NaN	5706033.4339234	NaN	5706034.4172669	5706034.93381078
117	23	0	0	90	36.1581920903955	36.241610738255	13	0.433363631665707	2	6	5	NaN	1	4	0.0501030471703878	1	1	NaN	430	7	52	2	121	221	321	NaN	521	0.0104272691532969	1	1	NaN	5706035.8507739	NaN	5706036.8341753	5706037.35072413
117	23	0	0	90	36.1581920903955	36.241610738255	16	0.533370623588562	2	12	3	NaN	2	5	0.0501030471703878	1	1	NaN	431	7	53	2	121	221	321	NaN	521	0.0103529803454876	2	1	NaN	5706038.1676592	NaN	5706039.151096	5706039.66761372
117	23	0	0	90	36.1581920903955	36.241610738255	15	0.500034959614277	2	11	4	NaN	2	4	0.0501030471703878	1	1	NaN	432	7	54	2	121	221	321	NaN	521	0.010439564473927	2	1	NaN	5706040.5678795	NaN	5706041.5513067	5706042.06784584
117	23	0	0	90	36.1581920903955	36.241610738255	6	0.200013983845711	2	11	4	NaN	2	4	0.0501030471703878	1	1	NaN	433	7	55	2	121	221	321	NaN	521	0.105007980018854	2	1	NaN	5706042.8847914	NaN	5706043.8682018	5706044.38474662
117	23	0	0	90	36.1581920903955	36.241610738255	8	0.266685311794281	2	2	1	NaN	1	4	0.0501030471703878	1	1	NaN	434	7	56	2	121	221	321	NaN	521	0.135789370164275	1	1	NaN	5706045.3015758	NaN	5706046.2850974	5706046.80164883
117	23	0	0	90	36.1581920903955	36.241610738255	7	0.233349647819996	2	6	3	NaN	1	4	0.0501030471703878	1	1	NaN	435	7	57	2	121	221	321	NaN	521	0.797729769721627	1	1	NaN	5706047.7519558	NaN	5706048.7353412	5706049.25189253
117	23	0	0	90	36.1581920903955	36.241610738255	16	0.533370623588562	2	3	4	NaN	1	4	0.0501030471703878	1	1	NaN	436	7	58	2	121	221	321	NaN	521	0.5528649892658	2	0	NaN	5706050.8689149	NaN	5706051.8523215	5706052.36886951
117	23	0	0	90	36.1581920903955	36.241610738255	7	0.233349647819996	2	3	6	NaN	1	3	0.0501030471703878	1	1	NaN	437	7	59	2	121	221	321	NaN	521	0.165742432698607	1	1	NaN	5706053.7358618	NaN	5706054.7192832	5706055.23581697
117	23	0	0	90	36.1581920903955	36.241610738255	24	0.800055935382843	2	2	5	NaN	1	4	0.0501030471703878	1	1	NaN	438	7	60	2	121	221	321	NaN	521	0.29836296942085	2	0	NaN	5706056.2193133	NaN	5706057.2028378	5706057.71938083
117	23	0	0	90	36.1581920903955	36.241610738255	24	0.800055935382843	2	6	6	NaN	1	4	0.0501030471703878	1	1	NaN	439	7	61	2	121	221	321	NaN	521	0.137217269279063	2	0	NaN	5706058.8363588	NaN	5706059.8197839	5706060.33630963
117	23	0	0	90	36.1581920903955	36.241610738255	11	0.366692303717136	2	5	5	NaN	1	3	0.0501030471703878	1	1	NaN	440	7	62	2	121	221	321	NaN	521	0.126964369788766	2	0	NaN	5706061.2866149	NaN	5706062.2700065	5706062.78654753
117	23	0	0	90	36.1581920903955	36.241610738255	19	0.633377615511417	2	1	6	NaN	1	4	0.0501030471703878	1	1	NaN	441	7	63	2	121	221	321	NaN	521	0.236834469251335	1	1	NaN	5706063.7367246	NaN	5706064.7202415	5706065.23678593
117	23	0	0	90	36.1581920903955	36.241610738255	20	0.666713279485702	2	12	6	NaN	2	5	0.0501030471703878	1	1	NaN	442	8	1	2	121	221	321	NaN	521	0.290224969387054	2	1	NaN	5706144.2114103	NaN	5706145.1948193	5706145.71136283
117	23	0	0	90	36.1581920903955	36.241610738255	9	0.300020975768566	2	12	2	NaN	2	4	0.0501030471703878	1	1	NaN	443	8	2	2	121	221	321	NaN	521	0.593988369219005	2	1	NaN	5706146.8115947	NaN	5706147.795122	5706148.31161043
117	23	0	0	90	36.1581920903955	36.241610738255	21	0.700048943459988	2	3	5	NaN	1	3	0.0501030471703878	1	1	NaN	444	8	3	2	121	221	321	NaN	521	0.612674889154732	2	0	NaN	5706149.7453181	NaN	5706150.7287074	5706151.24523271
117	23	0	0	90	36.1581920903955	36.241610738255	0	0	1	5	2	NaN	1	4	0.0501030471703878	1	1	NaN	445	8	4	2	111	211	311	NaN	511	0.303397469222546	1	1	NaN	5706152.6622652	NaN	5706153.6456259	5706154.16218563
117	23	0	0	90	36.1581920903955	36.241610738255	11	0.366692303717136	2	8	1	NaN	2	4	0.0501030471703878	1	1	NaN	446	8	5	2	121	221	321	NaN	521	0.142615369521081	1	0	NaN	5706155.2791905	NaN	5706156.2625674	5706156.77910373
117	23	0	0	90	36.1581920903955	36.241610738255	8	0.266685311794281	2	6	4	NaN	1	5	0.0501030471703878	1	1	NaN	447	8	6	2	121	221	321	NaN	521	0.268328017555177	1	1	NaN	5706157.7294082	NaN	5706158.7128503	5706159.22935618
117	23	0	0	90	36.1581920903955	36.241610738255	8	0.266685311794281	2	6	2	NaN	1	5	0.0501030471703878	1	1	NaN	448	8	7	2	121	221	321	NaN	521	0.420769168995321	1	1	NaN	5706160.3129792	NaN	5706161.2963923	5706161.81293513
117	23	0	0	90	36.1581920903955	36.241610738255	23	0.766720271408558	2	3	1	NaN	1	3	0.0501030471703878	1	1	NaN	449	8	8	2	121	221	321	NaN	521	65.46303391736	1	1	NaN	5706163.0464658	NaN	5706164.0299972	5706164.54653748
117	23	0	0	90	36.1581920903955	36.241610738255	11	0.366692303717136	2	7	5	NaN	2	3	0.0501030471703878	1	1	NaN	450	8	9	2	121	221	321	NaN	521	0.39220616966486	2	1	NaN	5706232.4700693	NaN	5706233.4534398	5706233.97001393
117	23	0	0	90	36.1581920903955	36.241610738255	11	0.366692303717136	2	7	3	NaN	2	5	0.0501030471703878	1	1	NaN	451	8	10	2	121	221	321	NaN	521	0.322808469645679	2	1	NaN	5706235.1870036	NaN	5706236.1704132	5706236.68694963
117	23	0	0	90	36.1581920903955	36.241610738255	14	0.466699295639992	2	8	1	NaN	2	3	0.0501030471703878	1	1	NaN	452	8	11	2	121	221	321	NaN	521	0.177055317908525	2	1	NaN	5706237.8205943	NaN	5706238.8039893	5706239.32053958
117	23	0	0	90	36.1581920903955	36.241610738255	13	0.433363631665707	2	6	4	NaN	1	4	0.0501030471703878	1	1	NaN	453	8	12	2	121	221	321	NaN	521	0.0931004220619798	1	1	NaN	5706240.3208409	NaN	5706241.3042547	5706241.82079218
117	23	0	0	90	36.1581920903955	36.241610738255	25	0.833391599357128	2	10	3	NaN	2	3	0.0501030471703878	1	1	NaN	454	8	13	2	121	221	321	NaN	521	0.484847469255328	2	1	NaN	5706242.7210738	NaN	5706243.7044834	5706244.22102563
117	23	0	0	90	36.1581920903955	36.241610738255	24	0.800055935382843	2	9	4	NaN	2	4	0.0501030471703878	1	1	NaN	455	8	14	2	121	221	321	NaN	521	0.117908569052815	1	0	NaN	5706245.6879424	NaN	5706246.671442	5706247.18799413
