subjno	age	gender	isPractice	viewdist	CmToPixX	CmToPixY	SOA_frm	SOA_time	targNum	targID	targExample	targRace	targGender	firstTargPos	contrast	familiarity	curr_staircase	iStair	TrialNum	BlockNum	blktrl	sessionNum	TC_FIXATION	TC_RSVP_START	TC_RSVP_END	TC_BLANK	TC_RESPONSE_ONSET	RT2afc	resp_2afc	acc	RSVPOnsetVBL	RSVPOnsetTime	RSVPOffsetVBL	RSVPOffsetTime	startrt_2afc
49	20	0	0	90	36.1581920903955	36.241610738255	19	0.633415083885193	2	11	2	NaN	2	3	0.0455522286888362	1	1	NaN	1	1	1	2	121	221	321	NaN	521	4.13940258417279	2	1	NaN	3184633.7292516	NaN	3184634.7125938	3184635.24572432
49	20	0	0	90	36.1581920903955	36.241610738255	25	0.833440899848938	2	11	1	NaN	2	4	0.0455522286888362	1	1	NaN	2	1	2	2	121	221	321	NaN	521	0.429714635480195	2	1	NaN	3184640.2466587	NaN	3184641.2299026	3184641.76304126
49	20	0	0	90	36.1581920903955	36.241610738255	15	0.500064539909363	2	1	2	NaN	1	4	0.0455522286888362	1	1	NaN	3	1	3	2	121	221	321	NaN	521	1.50318379001692	1	1	NaN	3184643.0133783	NaN	3184643.9967578	3184644.51330861
49	20	0	0	90	36.1581920903955	36.241610738255	23	0.766765627861023	2	11	5	NaN	2	3	0.0455522286888362	1	1	NaN	4	1	4	2	121	221	321	NaN	521	1.39759888406843	2	1	NaN	3184646.8470725	NaN	3184647.8304895	3184648.34702422
49	20	0	0	90	36.1581920903955	36.241610738255	19	0.633415083885193	2	9	3	NaN	2	3	0.0455522286888362	1	1	NaN	5	1	5	2	121	221	321	NaN	521	0.0803762939758599	1	0	NaN	3184650.5639488	NaN	3184651.5475459	3184652.06405031
49	20	0	0	90	36.1581920903955	36.241610738255	12	0.40005163192749	2	7	6	NaN	2	4	0.0455522286888362	1	1	NaN	6	1	6	2	121	221	321	NaN	521	0.536136880982667	2	1	NaN	3184652.9643404	NaN	3184653.9477349	3184654.46428482
49	20	0	0	90	36.1581920903955	36.241610738255	9	0.300038723945618	2	3	4	NaN	1	4	0.0455522286888362	1	1	NaN	7	1	7	2	121	221	321	NaN	521	1.03828733228147	1	1	NaN	3184655.8146339	NaN	3184656.798002	3184657.31455707
49	20	0	0	90	36.1581920903955	36.241610738255	15	0.500064539909363	2	9	6	NaN	2	5	0.0455522286888362	1	1	NaN	8	1	8	2	121	221	321	NaN	521	0.583239280618727	2	1	NaN	3184659.1816298	NaN	3184660.1650021	3184660.68156042
49	20	0	0	90	36.1581920903955	36.241610738255	20	0.66675271987915	2	4	3	NaN	1	5	0.0455522286888362	1	1	NaN	9	1	9	2	121	221	321	NaN	521	0.274579084012657	1	1	NaN	3184662.0819103	NaN	3184663.0653032	3184663.58184762
49	20	0	0	90	36.1581920903955	36.241610738255	20	0.66675271987915	2	12	5	NaN	2	5	0.0455522286888362	1	1	NaN	10	1	10	2	121	221	321	NaN	521	0.371203580871224	2	1	NaN	3184664.665495	NaN	3184665.6488884	3184666.16544232
49	20	0	0	90	36.1581920903955	36.241610738255	9	0.300038723945618	2	7	4	NaN	2	4	0.0455522286888362	1	1	NaN	11	1	11	2	121	221	321	NaN	521	0.519951981026679	2	1	NaN	3184667.3491026	NaN	3184668.3323699	3184668.84903072
49	20	0	0	90	36.1581920903955	36.241610738255	12	0.40005163192749	2	7	2	NaN	2	4	0.0455522286888362	1	1	NaN	12	1	12	2	121	221	321	NaN	521	0.430326683912426	1	0	NaN	3184670.1827101	NaN	3184671.1661204	3184671.68265002
49	20	0	0	90	36.1581920903955	36.241610738255	21	0.700090355873108	2	3	3	NaN	1	3	0.0455522286888362	1	1	NaN	13	1	13	2	121	221	321	NaN	521	0.170927380677313	1	1	NaN	3184673.2497428	NaN	3184674.233064	3184674.74960672
49	20	0	0	90	36.1581920903955	36.241610738255	16	0.53340217590332	2	4	2	NaN	1	3	0.0455522286888362	1	1	NaN	14	1	14	2	121	221	321	NaN	521	0.0104011325165629	1	1	NaN	3184675.7332768	NaN	3184676.7166268	3184677.23318657
49	20	0	0	90	36.1581920903955	36.241610738255	15	0.500064539909363	2	11	6	NaN	2	4	0.0455522286888362	1	1	NaN	15	1	15	2	121	221	321	NaN	521	0.505910880863667	1	0	NaN	3184678.0668231	NaN	3184679.0502451	3184679.56674912
49	20	0	0	90	36.1581920903955	36.241610738255	24	0.80010326385498	2	7	1	NaN	2	5	0.0455522286888362	1	1	NaN	16	1	16	2	121	221	321	NaN	521	0.0103651355020702	2	1	NaN	3184680.8837458	NaN	3184681.867143	3184682.38369726
49	20	0	0	90	36.1581920903955	36.241610738255	8	0.26670108795166	2	2	5	NaN	1	4	0.0455522286888362	1	1	NaN	17	1	17	2	121	221	321	NaN	521	0.516064032446593	1	1	NaN	3184683.2006483	NaN	3184684.1840213	3184684.70059027
49	20	0	0	90	36.1581920903955	36.241610738255	22	0.733427991867065	2	10	3	NaN	2	4	0.0455522286888362	1	1	NaN	18	1	18	2	121	221	321	NaN	521	0.026257180608809	2	1	NaN	3184686.0342641	NaN	3184687.0176283	3184687.53419232
49	20	0	0	90	36.1581920903955	36.241610738255	19	0.633415083885193	2	5	6	NaN	1	5	0.0455522286888362	1	1	NaN	19	1	19	2	121	221	321	NaN	521	0.218075080774724	1	1	NaN	3184689.2345405	NaN	3184690.2179598	3184690.73451042
49	20	0	0	90	36.1581920903955	36.241610738255	9	0.300038723945618	2	5	6	NaN	1	3	0.0455522286888362	1	1	NaN	20	1	20	2	121	221	321	NaN	521	8.17253968073055	1	1	NaN	3184691.7681528	NaN	3184692.7515379	3184693.26809532
49	20	0	0	90	36.1581920903955	36.241610738255	20	0.66675271987915	2	7	5	NaN	2	3	0.0455522286888362	1	1	NaN	21	1	21	2	121	221	321	NaN	521	0.4404167807661	1	0	NaN	3184702.2525048	NaN	3184703.2359026	3184703.75245692
49	20	0	0	90	36.1581920903955	36.241610738255	15	0.500064539909363	2	8	2	NaN	2	3	0.0455522286888362	1	1	NaN	22	1	22	2	121	221	321	NaN	521	0.0573200322687626	1	0	NaN	3184705.0194536	NaN	3184706.0028651	3184706.51940457
49	20	0	0	90	36.1581920903955	36.241610738255	15	0.500064539909363	2	4	2	NaN	1	4	0.0455522286888362	1	1	NaN	23	1	23	2	121	221	321	NaN	521	0.0822694771923125	1	1	NaN	3184707.3863435	NaN	3184708.3697416	3184708.88628932
49	20	0	0	90	36.1581920903955	36.241610738255	19	0.633415083885193	2	1	6	NaN	1	3	0.0455522286888362	1	1	NaN	24	1	24	2	121	221	321	NaN	521	0.202022528741509	1	1	NaN	3184709.7866818	NaN	3184710.7699785	3184711.28652777
49	20	0	0	90	36.1581920903955	36.241610738255	13	0.433389267921448	2	8	4	NaN	2	3	0.0455522286888362	1	1	NaN	25	1	25	2	121	221	321	NaN	521	0.325513332616538	2	1	NaN	3184712.3035038	NaN	3184713.2868894	3184713.80344757
49	20	0	0	90	36.1581920903955	36.241610738255	6	0.200025815963745	2	1	6	NaN	1	3	0.0455522286888362	1	1	NaN	26	1	26	2	121	221	321	NaN	521	0.0388091807253659	1	1	NaN	3184715.0537686	NaN	3184716.0371709	3184716.55371562
49	20	0	0	90	36.1581920903955	36.241610738255	9	0.300038723945618	2	1	1	NaN	1	3	0.0455522286888362	1	1	NaN	27	1	27	2	121	221	321	NaN	521	0.136359277181327	1	1	NaN	3184717.4206658	NaN	3184718.4040665	3184718.92062032
49	20	0	0	90	36.1581920903955	36.241610738255	20	0.66675271987915	2	5	4	NaN	1	4	0.0455522286888362	1	1	NaN	28	1	28	2	121	221	321	NaN	521	0.157656680326909	1	1	NaN	3184719.8709203	NaN	3184720.8543091	3184721.37085312
49	20	0	0	90	36.1581920903955	36.241610738255	23	0.766765627861023	2	8	3	NaN	2	3	0.0455522286888362	1	1	NaN	29	1	29	2	121	221	321	NaN	521	0.531232780311257	2	1	NaN	3184722.3378304	NaN	3184723.3212072	3184723.83775992
49	20	0	0	90	36.1581920903955	36.241610738255	6	0.200025815963745	2	8	2	NaN	2	4	0.0455522286888362	1	1	NaN	30	1	30	2	121	221	321	NaN	521	0.0104114804416895	2	1	NaN	3184725.7213923	NaN	3184726.7048982	3184727.22142962
49	20	0	0	90	36.1581920903955	36.241610738255	11	0.366713995933533	2	9	6	NaN	2	5	0.0455522286888362	1	1	NaN	31	1	31	2	121	221	321	NaN	521	0.0104218325577676	2	1	NaN	3184728.0549974	NaN	3184729.0384419	3184729.55499037
49	20	0	0	90	36.1581920903955	36.241610738255	23	0.766765627861023	2	10	2	NaN	2	4	0.0455522286888362	1	1	NaN	32	1	32	2	121	221	321	NaN	521	0.0104024326428771	2	1	NaN	3184730.3886168	NaN	3184731.3719031	3184731.88855937
49	20	0	0	90	36.1581920903955	36.241610738255	19	0.633415083885193	2	6	6	NaN	1	5	0.0455522286888362	1	1	NaN	33	1	33	2	121	221	321	NaN	521	0.0745708807371557	1	1	NaN	3184732.7221689	NaN	3184733.7056012	3184734.22211732
49	20	0	0	90	36.1581920903955	36.241610738255	9	0.300038723945618	2	6	4	NaN	1	3	0.0455522286888362	1	1	NaN	34	1	34	2	121	221	321	NaN	521	0.0104105323553085	1	1	NaN	3184735.7057715	NaN	3184736.6891996	3184737.20574547
49	20	0	0	90	36.1581920903955	36.241610738255	18	0.600077447891235	2	10	1	NaN	2	4	0.0455522286888362	1	1	NaN	35	1	35	2	121	221	321	NaN	521	0.0103972326032817	1	0	NaN	3184738.0226784	NaN	3184739.0061067	3184739.52264637
49	20	0	0	90	36.1581920903955	36.241610738255	11	0.366713995933533	2	6	3	NaN	1	5	0.0455522286888362	1	1	NaN	36	1	36	2	121	221	321	NaN	521	0.0104364324361086	1	1	NaN	3184740.3562524	NaN	3184741.3396475	3184741.85620317
49	20	0	0	90	36.1581920903955	36.241610738255	24	0.80010326385498	2	2	4	NaN	1	4	0.0455522286888362	1	1	NaN	37	1	37	2	121	221	321	NaN	521	3.07518027769402	1	1	NaN	3184742.6898129	NaN	3184743.6732146	3184744.18976252
49	20	0	0	90	36.1581920903955	36.241610738255	23	0.766765627861023	2	11	5	NaN	2	3	0.0455522286888362	1	1	NaN	38	1	38	2	121	221	321	NaN	521	1.12345688091591	2	1	NaN	3184748.0736852	NaN	3184749.0570693	3184749.57362652
49	20	0	0	90	36.1581920903955	36.241610738255	23	0.766765627861023	2	6	4	NaN	1	4	0.0455522286888362	1	1	NaN	39	1	39	2	121	221	321	NaN	521	0.0104151805862784	1	1	NaN	3184751.5073482	NaN	3184752.4907723	3184753.00729772
49	20	0	0	90	36.1581920903955	36.241610738255	18	0.600077447891235	2	3	4	NaN	1	5	0.0455522286888362	1	1	NaN	40	1	40	2	121	221	321	NaN	521	0.010411680676043	2	0	NaN	3184753.8242077	NaN	3184754.8076699	3184755.32418392
49	20	0	0	90	36.1581920903955	36.241610738255	22	0.733427991867065	2	2	2	NaN	1	3	0.0455522286888362	1	1	NaN	41	1	41	2	121	221	321	NaN	521	0.0102766454219818	1	1	NaN	3184756.5243783	NaN	3184757.5079001	3184758.02445605
49	20	0	0	90	36.1581920903955	36.241610738255	13	0.433389267921448	2	6	6	NaN	1	3	0.0455522286888362	1	1	NaN	42	1	42	2	121	221	321	NaN	521	0.0104482807219028	1	1	NaN	3184758.8580716	NaN	3184759.8414856	3184760.35802102
49	20	0	0	90	36.1581920903955	36.241610738255	7	0.233363451957703	2	1	2	NaN	1	4	0.0455522286888362	1	1	NaN	43	1	43	2	121	221	321	NaN	521	0.0103986323811114	1	1	NaN	3184761.4749967	NaN	3184762.4584147	3184762.97494547
49	20	0	0	90	36.1581920903955	36.241610738255	18	0.600077447891235	2	6	3	NaN	1	3	0.0455522286888362	1	1	NaN	44	1	44	2	121	221	321	NaN	521	0.0103935324586928	1	1	NaN	3184763.7917696	NaN	3184764.7752865	3184765.29184017
49	20	0	0	90	36.1581920903955	36.241610738255	17	0.566739811897278	2	2	6	NaN	1	5	0.0455522286888362	1	1	NaN	45	1	45	2	121	221	321	NaN	521	0.0104128806851804	2	0	NaN	3184766.4421254	NaN	3184767.4255302	3184767.94209902
49	20	0	0	90	36.1581920903955	36.241610738255	0	0	1	7	4	NaN	2	4	0.0455522286888362	1	1	NaN	46	1	46	2	111	211	311	NaN	511	0.674356332514435	2	1	NaN	3184768.842332	NaN	3184769.8257955	3184770.34233767
49	20	0	0	90	36.1581920903955	36.241610738255	22	0.733427991867065	2	3	4	NaN	1	4	0.0455522286888362	1	1	NaN	47	1	47	2	121	221	321	NaN	521	0.010411680676043	1	1	NaN	3184771.8258842	NaN	3184772.8093894	3184773.32595822
49	20	0	0	90	36.1581920903955	36.241610738255	6	0.200025815963745	2	2	1	NaN	1	5	0.0455522286888362	1	1	NaN	48	1	48	2	121	221	321	NaN	521	0.0618582325987518	1	1	NaN	3184774.1428971	NaN	3184775.1263006	3184775.64286167
49	20	0	0	90	36.1581920903955	36.241610738255	6	0.200025815963745	2	3	5	NaN	1	3	0.0455522286888362	1	1	NaN	49	1	49	2	121	221	321	NaN	521	0.0104169808328152	1	1	NaN	3184777.9265852	NaN	3184778.910108	3184779.42656012
49	20	0	0	90	36.1581920903955	36.241610738255	23	0.766765627861023	2	12	3	NaN	2	5	0.0455522286888362	1	1	NaN	50	1	50	2	121	221	321	NaN	521	0.0104439770802855	1	0	NaN	3184780.2435105	NaN	3184781.2269041	3184781.74344772
49	20	0	0	90	36.1581920903955	36.241610738255	23	0.766765627861023	2	2	2	NaN	1	5	0.0455522286888362	1	1	NaN	51	1	51	2	121	221	321	NaN	521	0.0104105807840824	1	1	NaN	3184782.5603999	NaN	3184783.5438367	3184784.06034352
49	20	0	0	90	36.1581920903955	36.241610738255	22	0.733427991867065	2	9	5	NaN	2	4	0.0455522286888362	1	1	NaN	52	1	52	2	121	221	321	NaN	521	0.0104485806077719	2	1	NaN	3184784.8772867	NaN	3184785.8606766	3184786.37724942
49	20	0	0	90	36.1581920903955	36.241610738255	17	0.566739811897278	2	11	2	NaN	2	5	0.0455522286888362	1	1	NaN	53	1	53	2	121	221	321	NaN	521	0.517371180932969	1	0	NaN	3184788.327616	NaN	3184789.311033	3184789.82757872
49	20	0	0	90	36.1581920903955	36.241610738255	10	0.333376359939575	2	3	5	NaN	1	5	0.0455522286888362	1	1	NaN	54	1	54	2	121	221	321	NaN	521	0.0104077807627618	1	1	NaN	3184791.8779449	NaN	3184792.8613849	3184793.37792892
49	20	0	0	90	36.1581920903955	36.241610738255	20	0.66675271987915	2	11	6	NaN	2	5	0.0455522286888362	1	1	NaN	55	1	55	2	121	221	321	NaN	521	0.679877229034901	1	0	NaN	3184794.444865	NaN	3184795.4282951	3184795.94485047
49	20	0	0	90	36.1581920903955	36.241610738255	7	0.233363451957703	2	12	4	NaN	2	4	0.0455522286888362	1	1	NaN	56	1	56	2	121	221	321	NaN	521	0.16863908059895	2	1	NaN	3184801.012278	NaN	3184801.9956174	3184802.51216722
49	20	0	0	90	36.1581920903955	36.241610738255	21	0.700090355873108	2	1	1	NaN	1	3	0.0455522286888362	1	1	NaN	57	1	57	2	121	221	321	NaN	521	0.811730480287224	2	0	NaN	3184804.5292061	NaN	3184805.5126101	3184806.02916562
49	20	0	0	90	36.1581920903955	36.241610738255	13	0.433389267921448	2	1	2	NaN	1	5	0.0455522286888362	1	1	NaN	58	1	58	2	121	221	321	NaN	521	0.010415380820632	1	1	NaN	3184807.6461925	NaN	3184808.6296014	3184809.14614032
49	20	0	0	90	36.1581920903955	36.241610738255	11	0.366713995933533	2	1	2	NaN	1	5	0.0455522286888362	1	1	NaN	59	1	59	2	121	221	321	NaN	521	0.0104166809469461	1	1	NaN	3184809.9630977	NaN	3184810.9465511	3184811.46305572
49	20	0	0	90	36.1581920903955	36.241610738255	19	0.633415083885193	2	10	6	NaN	2	3	0.0455522286888362	1	1	NaN	60	1	60	2	121	221	321	NaN	521	0.0104288808070123	1	0	NaN	3184812.2966574	NaN	3184813.2800489	3184813.79659512
49	20	0	0	90	36.1581920903955	36.241610738255	20	0.66675271987915	2	5	6	NaN	1	5	0.0455522286888362	1	1	NaN	61	1	61	2	121	221	321	NaN	521	0.010413680691272	1	1	NaN	3184814.6134364	NaN	3184815.596944	3184816.11349712
49	20	0	0	90	36.1581920903955	36.241610738255	17	0.566739811897278	2	3	2	NaN	1	4	0.0455522286888362	1	1	NaN	62	1	62	2	121	221	321	NaN	521	0.0823362804949284	1	1	NaN	3184816.9304631	NaN	3184817.9138411	3184818.43038722
49	20	0	0	90	36.1581920903955	36.241610738255	0	0	1	12	3	NaN	2	5	0.0455522286888362	1	1	NaN	63	1	63	2	111	211	311	NaN	511	0.0104163810610771	1	0	NaN	3184819.3306754	NaN	3184820.3140665	3184820.83062192
49	20	0	0	90	36.1581920903955	36.241610738255	16	0.53340217590332	2	9	1	NaN	2	4	0.0455522286888362	1	1	NaN	64	2	1	2	121	221	321	NaN	521	0.464484438765794	2	1	NaN	3184847.5167708	NaN	3184848.5001583	3184849.01673086
49	20	0	0	90	36.1581920903955	36.241610738255	14	0.466726903915405	2	1	4	NaN	1	4	0.0455522286888362	1	1	NaN	65	2	2	2	121	221	321	NaN	521	0.0104111810214818	1	1	NaN	3184850.3003895	NaN	3184851.2837766	3184851.80033482
49	20	0	0	90	36.1581920903955	36.241610738255	17	0.566739811897278	2	11	4	NaN	2	5	0.0455522286888362	1	1	NaN	66	2	3	2	121	221	321	NaN	521	0.451989884022623	1	0	NaN	3184852.617171	NaN	3184853.6006807	3184854.11723302
49	20	0	0	90	36.1581920903955	36.241610738255	21	0.700090355873108	2	4	3	NaN	1	3	0.0455522286888362	1	1	NaN	67	2	4	2	121	221	321	NaN	521	0.125049380585551	1	1	NaN	3184855.3842145	NaN	3184856.3676254	3184856.88416432
49	20	0	0	90	36.1581920903955	36.241610738255	19	0.633415083885193	2	2	4	NaN	1	5	0.0455522286888362	1	1	NaN	68	2	5	2	121	221	321	NaN	521	0.373547080904245	1	1	NaN	3184857.9678255	NaN	3184858.9512027	3184859.46777162
49	20	0	0	90	36.1581920903955	36.241610738255	12	0.40005163192749	2	9	3	NaN	2	3	0.0455522286888362	1	1	NaN	69	2	6	2	121	221	321	NaN	521	1.78585123596713	2	1	NaN	3184860.6514017	NaN	3184861.6348027	3184862.15135316
49	20	0	0	90	36.1581920903955	36.241610738255	8	0.26670108795166	2	3	1	NaN	1	4	0.0455522286888362	1	1	NaN	70	2	7	2	121	221	321	NaN	521	0.0104119810275733	1	1	NaN	3184864.7518043	NaN	3184865.735195	3184866.25175892
49	20	0	0	90	36.1581920903955	36.241610738255	18	0.600077447891235	2	4	3	NaN	1	3	0.0455522286888362	1	1	NaN	71	2	8	2	121	221	321	NaN	521	0.22425658069551	1	1	NaN	3184867.0687003	NaN	3184868.0521105	3184868.56864452
49	20	0	0	90	36.1581920903955	36.241610738255	18	0.600077447891235	2	2	6	NaN	1	3	0.0455522286888362	1	1	NaN	72	2	9	2	121	221	321	NaN	521	0.310329880565405	1	1	NaN	3184870.5023419	NaN	3184871.4857671	3184872.00231642
49	20	0	0	90	36.1581920903955	36.241610738255	0	0	1	8	2	NaN	2	3	0.0455522286888362	1	1	NaN	73	2	10	2	111	211	311	NaN	511	2.56600243831053	1	0	NaN	3184873.1192918	NaN	3184874.1026902	3184874.61924776
49	20	0	0	90	36.1581920903955	36.241610738255	9	0.300038723945618	2	10	1	NaN	2	3	0.0455522286888362	1	1	NaN	74	2	11	2	121	221	321	NaN	521	0.752838880289346	2	1	NaN	3184879.0198503	NaN	3184880.0032527	3184880.51982432
49	20	0	0	90	36.1581920903955	36.241610738255	19	0.633415083885193	2	7	4	NaN	2	4	0.0455522286888362	1	1	NaN	75	2	12	2	121	221	321	NaN	521	0.398023280780762	2	1	NaN	3184882.0868394	NaN	3184883.0702358	3184883.58678602
49	20	0	0	90	36.1581920903955	36.241610738255	25	0.833440899848938	2	4	1	NaN	1	5	0.0455522286888362	1	1	NaN	76	2	13	2	121	221	321	NaN	521	0.225192380603403	1	1	NaN	3184884.8037792	NaN	3184885.787177	3184886.30372932
49	20	0	0	90	36.1581920903955	36.241610738255	12	0.40005163192749	2	8	5	NaN	2	4	0.0455522286888362	1	1	NaN	77	2	14	2	121	221	321	NaN	521	0.107483377680182	2	1	NaN	3184887.3373365	NaN	3184888.3207566	3184888.83729872
49	20	0	0	90	36.1581920903955	36.241610738255	0	0	1	4	2	NaN	1	4	0.0455522286888362	1	1	NaN	78	2	15	2	111	211	311	NaN	511	0.178702580742538	1	1	NaN	3184889.7542524	NaN	3184890.7376524	3184891.25420542
49	20	0	0	90	36.1581920903955	36.241610738255	6	0.200025815963745	2	4	5	NaN	1	4	0.0455522286888362	1	1	NaN	79	2	16	2	121	221	321	NaN	521	0.0103960321284831	1	1	NaN	3184893.0712014	NaN	3184894.054678	3184894.57121007
49	20	0	0	90	36.1581920903955	36.241610738255	17	0.566739811897278	2	9	1	NaN	2	3	0.0455522286888362	1	1	NaN	80	2	17	2	121	221	321	NaN	521	0.148703180719167	2	1	NaN	3184896.0881891	NaN	3184897.0716595	3184897.58816782
49	20	0	0	90	36.1581920903955	36.241610738255	17	0.566739811897278	2	6	3	NaN	1	5	0.0455522286888362	1	1	NaN	81	2	18	2	121	221	321	NaN	521	0.0577482809312642	1	1	NaN	3184898.5551229	NaN	3184899.5385304	3184900.05507422
49	20	0	0	90	36.1581920903955	36.241610738255	13	0.433389267921448	2	9	1	NaN	2	3	0.0455522286888362	1	1	NaN	82	2	19	2	121	221	321	NaN	521	0.726848180405796	2	1	NaN	3184901.2220468	NaN	3184902.2054513	3184902.72200062
49	20	0	0	90	36.1581920903955	36.241610738255	12	0.40005163192749	2	3	1	NaN	1	5	0.0455522286888362	1	1	NaN	83	2	20	2	121	221	321	NaN	521	0.0290009323507547	1	1	NaN	3184904.2556794	NaN	3184905.2390848	3184905.75564207
49	20	0	0	90	36.1581920903955	36.241610738255	8	0.26670108795166	2	12	3	NaN	2	4	0.0455522286888362	1	1	NaN	84	2	21	2	121	221	321	NaN	521	0.0477115288376808	1	0	NaN	3184907.1892748	NaN	3184908.1727056	3184908.68926287
49	20	0	0	90	36.1581920903955	36.241610738255	24	0.80010326385498	2	5	1	NaN	1	5	0.0455522286888362	1	1	NaN	85	2	22	2	121	221	321	NaN	521	0.192713480908424	1	1	NaN	3184909.5562155	NaN	3184910.5395993	3184911.05616122
49	20	0	0	90	36.1581920903955	36.241610738255	9	0.300038723945618	2	7	5	NaN	2	5	0.0455522286888362	1	1	NaN	86	2	23	2	121	221	321	NaN	521	0.465479680802673	2	1	NaN	3184912.3398169	NaN	3184913.3232238	3184913.83975992
49	20	0	0	90	36.1581920903955	36.241610738255	11	0.366713995933533	2	6	5	NaN	1	5	0.0455522286888362	1	1	NaN	87	2	24	2	121	221	321	NaN	521	0.52932998072356	1	1	NaN	3184917.3236115	NaN	3184918.3070352	3184918.82358012
49	20	0	0	90	36.1581920903955	36.241610738255	25	0.833440899848938	2	11	6	NaN	2	4	0.0455522286888362	1	1	NaN	88	2	25	2	121	221	321	NaN	521	0.010443577542901	1	0	NaN	3184920.1572442	NaN	3184921.1406489	3184921.65718932
49	20	0	0	90	36.1581920903955	36.241610738255	11	0.366713995933533	2	1	5	NaN	1	3	0.0455522286888362	1	1	NaN	89	2	26	2	121	221	321	NaN	521	0.0104131805710495	1	1	NaN	3184922.4908113	NaN	3184923.4742153	3184923.99075822
49	20	0	0	90	36.1581920903955	36.241610738255	24	0.80010326385498	2	4	3	NaN	1	3	0.0455522286888362	1	1	NaN	90	2	27	2	121	221	321	NaN	521	0.010428280569613	1	1	NaN	3184924.8076982	NaN	3184925.7911248	3184926.30765602
49	20	0	0	90	36.1581920903955	36.241610738255	21	0.700090355873108	2	2	6	NaN	1	3	0.0455522286888362	1	1	NaN	91	2	28	2	121	221	321	NaN	521	3.07620318094268	1	1	NaN	3184928.8247382	NaN	3184929.8081711	3184930.32471372
49	20	0	0	90	36.1581920903955	36.241610738255	12	0.40005163192749	2	4	5	NaN	1	4	0.0455522286888362	1	1	NaN	92	2	29	2	121	221	321	NaN	521	0.0104105807840824	1	1	NaN	3184934.9586737	NaN	3184935.9420992	3184936.45865452
49	20	0	0	90	36.1581920903955	36.241610738255	13	0.433389267921448	2	7	2	NaN	2	3	0.0455522286888362	1	1	NaN	93	2	30	2	121	221	321	NaN	521	0.0104186804965138	1	0	NaN	3184937.5589199	NaN	3184938.542396	3184939.05890252
49	20	0	0	90	36.1581920903955	36.241610738255	22	0.733427991867065	2	7	2	NaN	2	4	0.0455522286888362	1	1	NaN	94	2	31	2	121	221	321	NaN	521	0.767274080775678	2	1	NaN	3184941.7260623	NaN	3184942.709405	3184943.22597992
49	20	0	0	90	36.1581920903955	36.241610738255	24	0.80010326385498	2	10	2	NaN	2	4	0.0455522286888362	1	1	NaN	95	2	32	2	121	221	321	NaN	521	10.2975392807275	2	1	NaN	3184946.8598379	NaN	3184947.8432528	3184948.35981482
49	20	0	0	90	36.1581920903955	36.241610738255	18	0.600077447891235	2	7	1	NaN	2	3	0.0455522286888362	1	1	NaN	96	2	33	2	121	221	321	NaN	521	0.217591829132289	2	1	NaN	3184959.827793	NaN	3184960.8111887	3184961.32775487
49	20	0	0	90	36.1581920903955	36.241610738255	14	0.466726903915405	2	12	2	NaN	2	4	0.0455522286888362	1	1	NaN	97	2	34	2	121	221	321	NaN	521	0.0515861809253693	2	1	NaN	3184962.3614003	NaN	3184963.3447948	3184963.86133982
49	20	0	0	90	36.1581920903955	36.241610738255	25	0.833440899848938	2	7	2	NaN	2	3	0.0455522286888362	1	1	NaN	98	2	35	2	121	221	321	NaN	521	0.01043258048594	2	1	NaN	3184964.7283174	NaN	3184965.7116893	3184966.22823932
49	20	0	0	90	36.1581920903955	36.241610738255	22	0.733427991867065	2	12	1	NaN	2	5	0.0455522286888362	1	1	NaN	99	2	36	2	121	221	321	NaN	521	0.675022029317915	2	1	NaN	3184980.729846	NaN	3184981.7132789	3184982.22981887
49	20	0	0	90	36.1581920903955	36.241610738255	23	0.766765627861023	2	8	6	NaN	2	4	0.0455522286888362	1	1	NaN	100	2	37	2	121	221	321	NaN	521	0.306451183743775	2	1	NaN	3184987.5305111	NaN	3184988.5139109	3184989.03048482
49	20	0	0	90	36.1581920903955	36.241610738255	23	0.766765627861023	2	7	5	NaN	2	4	0.0455522286888362	1	1	NaN	101	2	38	2	121	221	321	NaN	521	0.0103929322212934	2	1	NaN	3184990.1474532	NaN	3184991.1308575	3184991.64740097
49	20	0	0	90	36.1581920903955	36.241610738255	16	0.53340217590332	2	11	5	NaN	2	5	0.0455522286888362	1	1	NaN	102	2	39	2	121	221	321	NaN	521	0.0104149808175862	2	1	NaN	3184992.4643559	NaN	3184993.4477504	3184993.96429302
49	20	0	0	90	36.1581920903955	36.241610738255	17	0.566739811897278	2	2	3	NaN	1	4	0.0455522286888362	1	1	NaN	103	2	40	2	121	221	321	NaN	521	0.119841580279171	2	0	NaN	3184994.7812444	NaN	3184995.764642	3184996.28119872
49	20	0	0	90	36.1581920903955	36.241610738255	24	0.80010326385498	2	6	5	NaN	1	5	0.0455522286888362	1	1	NaN	104	2	41	2	121	221	321	NaN	521	0.0104307290166616	1	1	NaN	3184998.7315942	NaN	3184999.7150292	3185000.23158417
49	20	0	0	90	36.1581920903955	36.241610738255	19	0.633415083885193	2	10	1	NaN	2	4	0.0455522286888362	1	1	NaN	105	2	42	2	121	221	321	NaN	521	0.401914480607957	2	1	NaN	3185002.5153076	NaN	3185003.4987114	3185004.01527962
49	20	0	0	90	36.1581920903955	36.241610738255	25	0.833440899848938	2	9	2	NaN	2	3	0.0455522286888362	1	1	NaN	106	2	43	2	121	221	321	NaN	521	0.139074980746955	1	0	NaN	3185005.482188	NaN	3185006.4657232	3185006.98224192
49	20	0	0	90	36.1581920903955	36.241610738255	21	0.700090355873108	2	6	2	NaN	1	4	0.0455522286888362	1	1	NaN	107	2	44	2	121	221	321	NaN	521	0.768430180381984	2	0	NaN	3185007.9325372	NaN	3185008.915937	3185009.43248672
49	20	0	0	90	36.1581920903955	36.241610738255	24	0.80010326385498	2	12	2	NaN	2	4	0.0455522286888362	1	1	NaN	108	2	45	2	121	221	321	NaN	521	0.560499132145196	2	1	NaN	3185049.4365678	NaN	3185050.4200302	3185050.93656287
49	20	0	0	90	36.1581920903955	36.241610738255	24	0.80010326385498	2	8	4	NaN	2	3	0.0455522286888362	1	1	NaN	109	2	46	2	121	221	321	NaN	521	2.93402178073302	1	0	NaN	3185052.7035952	NaN	3185053.687018	3185054.20354792
49	20	0	0	90	36.1581920903955	36.241610738255	22	0.733427991867065	2	7	3	NaN	2	5	0.0455522286888362	1	1	NaN	110	2	47	2	121	221	321	NaN	521	0.251381677109748	2	1	NaN	3185057.9541377	NaN	3185058.9375271	3185059.45406052
49	20	0	0	90	36.1581920903955	36.241610738255	23	0.766765627861023	2	5	3	NaN	1	4	0.0455522286888362	1	1	NaN	111	2	48	2	121	221	321	NaN	521	0.010513577144593	1	1	NaN	3185060.5210574	NaN	3185061.5044225	3185062.02098242
49	20	0	0	90	36.1581920903955	36.241610738255	14	0.466726903915405	2	3	6	NaN	1	4	0.0455522286888362	1	1	NaN	112	2	49	2	121	221	321	NaN	521	0.0104447770863771	1	1	NaN	3185062.8545856	NaN	3185063.8380108	3185064.35454942
49	20	0	0	90	36.1581920903955	36.241610738255	16	0.53340217590332	2	6	5	NaN	1	4	0.0455522286888362	1	1	NaN	113	2	50	2	121	221	321	NaN	521	0.55286473268643	1	1	NaN	3185065.1881317	NaN	3185066.171564	3185066.68811077
49	20	0	0	90	36.1581920903955	36.241610738255	12	0.40005163192749	2	6	1	NaN	1	4	0.0455522286888362	1	1	NaN	114	2	51	2	121	221	321	NaN	521	0.24013408087194	1	1	NaN	3185068.4050111	NaN	3185069.3885559	3185069.90508982
49	20	0	0	90	36.1581920903955	36.241610738255	16	0.53340217590332	2	10	3	NaN	2	4	0.0455522286888362	1	1	NaN	115	2	52	2	121	221	321	NaN	521	0.010364493355155	2	1	NaN	3185070.9554017	NaN	3185071.9388059	3185072.45536751
49	20	0	0	90	36.1581920903955	36.241610738255	24	0.80010326385498	2	1	1	NaN	1	4	0.0455522286888362	1	1	NaN	116	2	53	2	121	221	321	NaN	521	0.220327029004693	1	1	NaN	3185073.2889421	NaN	3185074.2723691	3185074.78890177
49	20	0	0	90	36.1581920903955	36.241610738255	25	0.833440899848938	2	8	2	NaN	2	5	0.0455522286888362	1	1	NaN	117	2	54	2	121	221	321	NaN	521	0.0104792807251215	2	1	NaN	3185075.8225463	NaN	3185076.8059476	3185077.32249022
49	20	0	0	90	36.1581920903955	36.241610738255	12	0.40005163192749	2	10	6	NaN	2	3	0.0455522286888362	1	1	NaN	118	2	55	2	121	221	321	NaN	521	0.0104273809120059	2	1	NaN	3185078.1394458	NaN	3185079.1228377	3185079.63937882
49	20	0	0	90	36.1581920903955	36.241610738255	22	0.733427991867065	2	8	1	NaN	2	4	0.0455522286888362	1	1	NaN	119	2	56	2	121	221	321	NaN	521	0.0102611966431141	2	1	NaN	3185080.473	NaN	3185081.4564089	3185081.9729545
49	20	0	0	90	36.1581920903955	36.241610738255	6	0.200025815963745	2	2	1	NaN	1	4	0.0455522286888362	1	1	NaN	120	2	57	2	121	221	321	NaN	521	0.0104132806882262	1	1	NaN	3185082.8065728	NaN	3185083.7899569	3185084.30650632
49	20	0	0	90	36.1581920903955	36.241610738255	16	0.53340217590332	2	12	2	NaN	2	4	0.0455522286888362	1	1	NaN	121	2	58	2	121	221	321	NaN	521	0.0104140806943178	1	0	NaN	3185085.1234349	NaN	3185086.106853	3185086.62339862
49	20	0	0	90	36.1581920903955	36.241610738255	21	0.700090355873108	2	10	5	NaN	2	3	0.0455522286888362	1	1	NaN	122	2	59	2	121	221	321	NaN	521	0.0105361258611083	1	0	NaN	3185087.4570249	NaN	3185088.4404248	3185088.95696787
49	20	0	0	90	36.1581920903955	36.241610738255	25	0.833440899848938	2	6	5	NaN	1	3	0.0455522286888362	1	1	NaN	123	2	60	2	121	221	321	NaN	521	0.0104813808575273	1	1	NaN	3185089.7905988	NaN	3185090.7739932	3185091.29054972
49	20	0	0	90	36.1581920903955	36.241610738255	19	0.633415083885193	2	12	1	NaN	2	5	0.0455522286888362	1	1	NaN	124	2	61	2	121	221	321	NaN	521	0.897423080634326	2	1	NaN	3185092.1241486	NaN	3185093.1075613	3185093.62409842
49	20	0	0	90	36.1581920903955	36.241610738255	7	0.233363451957703	2	6	3	NaN	1	3	0.0455522286888362	1	1	NaN	125	2	62	2	121	221	321	NaN	521	0.0104148807004094	1	1	NaN	3185095.3411077	NaN	3185096.3245199	3185096.84107532
49	20	0	0	90	36.1581920903955	36.241610738255	12	0.40005163192749	2	5	2	NaN	1	5	0.0455522286888362	1	1	NaN	126	2	63	2	121	221	321	NaN	521	0.0104110324755311	1	1	NaN	3185097.874589	NaN	3185098.8580947	3185099.37465127
49	20	0	0	90	36.1581920903955	36.241610738255	6	0.200025815963745	2	5	1	NaN	1	4	0.0455522286888362	1	1	NaN	127	3	1	2	121	221	321	NaN	521	0.0104089807718992	1	1	NaN	3185124.8440425	NaN	3185125.8274633	3185126.34396882
49	20	0	0	90	36.1581920903955	36.241610738255	18	0.600077447891235	2	8	3	NaN	2	4	0.0455522286888362	1	1	NaN	128	3	2	2	121	221	321	NaN	521	0.0104002323932946	2	1	NaN	3185127.1609947	NaN	3185128.1443182	3185128.66086557
49	20	0	0	90	36.1581920903955	36.241610738255	19	0.633415083885193	2	8	5	NaN	2	4	0.0455522286888362	1	1	NaN	129	3	3	2	121	221	321	NaN	521	2.71073592593893	2	1	NaN	3185129.4943698	NaN	3185130.4778857	3185130.99442287
49	20	0	0	90	36.1581920903955	36.241610738255	7	0.233363451957703	2	8	2	NaN	2	5	0.0455522286888362	1	1	NaN	130	3	4	2	121	221	321	NaN	521	0.0104150804691017	2	1	NaN	3185134.5281795	NaN	3185135.5117175	3185136.02824832
49	20	0	0	90	36.1581920903955	36.241610738255	0	0	1	2	2	NaN	1	4	0.0455522286888362	1	1	NaN	131	3	5	2	111	211	311	NaN	511	0.0105105773545802	1	1	NaN	3185136.8619242	NaN	3185137.8452368	3185138.36181302
49	20	0	0	90	36.1581920903955	36.241610738255	8	0.26670108795166	2	4	2	NaN	1	3	0.0455522286888362	1	1	NaN	132	3	6	2	121	221	321	NaN	521	0.0104833808727562	1	1	NaN	3185139.1954516	NaN	3185140.178828	3185140.69540732
49	20	0	0	90	36.1581920903955	36.241610738255	11	0.366713995933533	2	9	2	NaN	2	3	0.0455522286888362	1	1	NaN	133	3	7	2	121	221	321	NaN	521	0.0104152807034552	1	0	NaN	3185141.5290067	NaN	3185142.512393	3185143.02894792
49	20	0	0	90	36.1581920903955	36.241610738255	6	0.200025815963745	2	9	5	NaN	2	4	0.0455522286888362	1	1	NaN	134	3	8	2	121	221	321	NaN	521	0.919260532595217	2	1	NaN	3185143.8625721	NaN	3185144.8460036	3185145.36250907
49	20	0	0	90	36.1581920903955	36.241610738255	19	0.633415083885193	2	3	6	NaN	1	4	0.0455522286888362	1	1	NaN	135	3	9	2	121	221	321	NaN	521	0.0104271289892495	1	1	NaN	3185147.0963131	NaN	3185148.0796083	3185148.59614737
49	20	0	0	90	36.1581920903955	36.241610738255	20	0.66675271987915	2	10	6	NaN	2	5	0.0455522286888362	1	1	NaN	136	3	10	2	121	221	321	NaN	521	0.0104178804904222	1	0	NaN	3185149.513085	NaN	3185150.4965087	3185151.01305892
49	20	0	0	90	36.1581920903955	36.241610738255	16	0.53340217590332	2	10	4	NaN	2	4	0.0455522286888362	1	1	NaN	137	3	11	2	121	221	321	NaN	521	0.010381483938545	2	1	NaN	3185151.8466763	NaN	3185152.8300755	3185153.34662922
49	20	0	0	90	36.1581920903955	36.241610738255	10	0.333376359939575	2	9	5	NaN	2	4	0.0455522286888362	1	1	NaN	138	3	12	2	121	221	321	NaN	521	0.0104277292266488	2	1	NaN	3185154.163625	NaN	3185155.1469976	3185155.66351657
49	20	0	0	90	36.1581920903955	36.241610738255	21	0.700090355873108	2	11	3	NaN	2	3	0.0455522286888362	1	1	NaN	139	3	13	2	121	221	321	NaN	521	0.212904780637473	1	0	NaN	3185156.4803323	NaN	3185157.4638563	3185157.98041092
49	20	0	0	90	36.1581920903955	36.241610738255	12	0.40005163192749	2	10	2	NaN	2	3	0.0455522286888362	1	1	NaN	140	3	14	2	121	221	321	NaN	521	0.0104158804751933	2	1	NaN	3185159.0140556	NaN	3185159.9974472	3185160.51398762
49	20	0	0	90	36.1581920903955	36.241610738255	16	0.53340217590332	2	2	6	NaN	1	4	0.0455522286888362	1	1	NaN	141	3	15	2	121	221	321	NaN	521	0.0104447775520384	1	1	NaN	3185161.3309372	NaN	3185162.3143285	3185162.83087962
49	20	0	0	90	36.1581920903955	36.241610738255	10	0.333376359939575	2	6	1	NaN	1	5	0.0455522286888362	1	1	NaN	142	3	16	2	121	221	321	NaN	521	0.0104454774409533	1	1	NaN	3185163.6645108	NaN	3185164.6479257	3185165.16445032
49	20	0	0	90	36.1581920903955	36.241610738255	11	0.366713995933533	2	10	4	NaN	2	4	0.0455522286888362	1	1	NaN	143	3	17	2	121	221	321	NaN	521	0.159192484337837	1	0	NaN	3185165.9980657	NaN	3185166.9814789	3185167.49801902
49	20	0	0	90	36.1581920903955	36.241610738255	16	0.53340217590332	2	7	3	NaN	2	3	0.0455522286888362	1	1	NaN	144	3	18	2	121	221	321	NaN	521	0.0104508842341602	2	1	NaN	3185168.4815216	NaN	3185169.4650434	3185169.98159832
49	20	0	0	90	36.1581920903955	36.241610738255	9	0.300038723945618	2	9	6	NaN	2	3	0.0455522286888362	1	1	NaN	145	3	19	2	121	221	321	NaN	521	0.0105096776969731	2	1	NaN	3185170.8818705	NaN	3185171.865292	3185172.38182592
49	20	0	0	90	36.1581920903955	36.241610738255	16	0.53340217590332	2	4	2	NaN	1	4	0.0455522286888362	1	1	NaN	146	3	20	2	121	221	321	NaN	521	0.0104182325303555	1	1	NaN	3185173.2154877	NaN	3185174.198851	3185174.71538127
49	20	0	0	90	36.1581920903955	36.241610738255	6	0.200025815963745	2	6	2	NaN	1	3	0.0455522286888362	1	1	NaN	147	3	21	2	121	221	321	NaN	521	0.010417980607599	1	1	NaN	3185175.9323632	NaN	3185176.9157738	3185177.43232162
49	20	0	0	90	36.1581920903955	36.241610738255	16	0.53340217590332	2	1	5	NaN	1	3	0.0455522286888362	1	1	NaN	148	3	22	2	121	221	321	NaN	521	0.675134180579334	1	1	NaN	3185178.2659433	NaN	3185179.2493756	3185179.76587962
49	20	0	0	90	36.1581920903955	36.241610738255	15	0.500064539909363	2	3	5	NaN	1	5	0.0455522286888362	1	1	NaN	149	3	23	2	121	221	321	NaN	521	0.235187180805951	1	1	NaN	3185181.2662254	NaN	3185182.2496507	3185182.76618102
49	20	0	0	90	36.1581920903955	36.241610738255	12	0.40005163192749	2	11	1	NaN	2	3	0.0455522286888362	1	1	NaN	150	3	24	2	121	221	321	NaN	521	0.108881284482777	1	0	NaN	3185183.8164638	NaN	3185184.7998981	3185185.31643342
49	20	0	0	90	36.1581920903955	36.241610738255	17	0.566739811897278	2	9	2	NaN	2	4	0.0455522286888362	1	1	NaN	151	3	25	2	121	221	321	NaN	521	0.195379332173616	1	0	NaN	3185186.2500752	NaN	3185187.2334821	3185187.74999797
49	20	0	0	90	36.1581920903955	36.241610738255	0	0	1	2	2	NaN	1	3	0.0455522286888362	1	1	NaN	152	3	26	2	111	211	311	NaN	511	0.182995399925858	1	1	NaN	3185188.7503146	NaN	3185189.7337044	3185190.250258
49	20	0	0	90	36.1581920903955	36.241610738255	10	0.333376359939575	2	6	4	NaN	1	4	0.0455522286888362	1	1	NaN	153	3	27	2	121	221	321	NaN	521	0.010274245403707	1	1	NaN	3185191.2504159	NaN	3185192.2339656	3185192.75050305
49	20	0	0	90	36.1581920903955	36.241610738255	11	0.366713995933533	2	8	3	NaN	2	4	0.0455522286888362	1	1	NaN	154	3	28	2	121	221	321	NaN	521	0.669883084017783	1	0	NaN	3185193.5674436	NaN	3185194.5508762	3185195.06739012
49	20	0	0	90	36.1581920903955	36.241610738255	13	0.433389267921448	2	5	4	NaN	1	4	0.0455522286888362	1	1	NaN	155	3	29	2	121	221	321	NaN	521	0.0104134804569185	1	1	NaN	3185196.5509443	NaN	3185197.5344629	3185198.05101272
49	20	0	0	90	36.1581920903955	36.241610738255	23	0.766765627861023	2	3	3	NaN	1	5	0.0455522286888362	1	1	NaN	156	3	30	2	121	221	321	NaN	521	0.0414289808832109	1	1	NaN	3185198.8679742	NaN	3185199.85139	3185200.36790492
49	20	0	0	90	36.1581920903955	36.241610738255	9	0.300038723945618	2	12	1	NaN	2	5	0.0455522286888362	1	1	NaN	157	3	31	2	121	221	321	NaN	521	0.010483780875802	2	1	NaN	3185201.3348805	NaN	3185202.3182834	3185202.83482002
49	20	0	0	90	36.1581920903955	36.241610738255	18	0.600077447891235	2	11	4	NaN	2	4	0.0455522286888362	1	1	NaN	158	3	32	2	121	221	321	NaN	521	0.0105056292377412	1	0	NaN	3185203.6684472	NaN	3185204.6518324	3185205.16838447
49	20	0	0	90	36.1581920903955	36.241610738255	18	0.600077447891235	2	2	5	NaN	1	5	0.0455522286888362	1	1	NaN	159	3	33	2	121	221	321	NaN	521	0.115328480489552	1	1	NaN	3185206.0019725	NaN	3185206.9854056	3185207.50193842
49	20	0	0	90	36.1581920903955	36.241610738255	13	0.433389267921448	2	5	3	NaN	1	4	0.0455522286888362	1	1	NaN	160	3	34	2	121	221	321	NaN	521	0.409929736051708	1	1	NaN	3185208.4355713	NaN	3185209.4189712	3185209.93551526
49	20	0	0	90	36.1581920903955	36.241610738255	22	0.733427991867065	2	11	3	NaN	2	4	0.0455522286888362	1	1	NaN	161	3	35	2	121	221	321	NaN	521	0.316920980811119	2	1	NaN	3185211.152493	NaN	3185212.1359031	3185212.65244982
49	20	0	0	90	36.1581920903955	36.241610738255	10	0.333376359939575	2	4	6	NaN	1	4	0.0455522286888362	1	1	NaN	162	3	36	2	121	221	321	NaN	521	0.0103759421035647	1	1	NaN	3185213.8027554	NaN	3185214.786166	3185215.30272456
49	20	0	0	90	36.1581920903955	36.241610738255	14	0.466726903915405	2	3	1	NaN	1	4	0.0455522286888362	1	1	NaN	163	3	37	2	121	221	321	NaN	521	0.0104787806048989	1	1	NaN	3185216.1363483	NaN	3185217.1197295	3185217.63627602
49	20	0	0	90	36.1581920903955	36.241610738255	19	0.633415083885193	2	4	1	NaN	1	4	0.0455522286888362	1	1	NaN	164	3	38	2	121	221	321	NaN	521	0.0103700417093933	1	1	NaN	3185218.4698818	NaN	3185219.4533068	3185219.96984086
49	20	0	0	90	36.1581920903955	36.241610738255	13	0.433389267921448	2	3	5	NaN	1	5	0.0455522286888362	1	1	NaN	165	3	39	2	121	221	321	NaN	521	0.233919128775597	2	0	NaN	3185220.8033567	NaN	3185221.7867907	3185222.30339117
49	20	0	0	90	36.1581920903955	36.241610738255	7	0.233363451957703	2	1	5	NaN	1	5	0.0455522286888362	1	1	NaN	166	3	40	2	121	221	321	NaN	521	0.0104734287597239	1	1	NaN	3185223.3537202	NaN	3185224.3370953	3185224.85364277
49	20	0	0	90	36.1581920903955	36.241610738255	6	0.200025815963745	2	5	1	NaN	1	4	0.0455522286888362	1	1	NaN	167	3	41	2	121	221	321	NaN	521	0.0104009322822094	1	1	NaN	3185225.6705948	NaN	3185226.6540125	3185227.17054497
49	20	0	0	90	36.1581920903955	36.241610738255	22	0.733427991867065	2	1	6	NaN	1	5	0.0455522286888362	1	1	NaN	168	3	42	2	121	221	321	NaN	521	0.121279780752957	1	1	NaN	3185228.0041581	NaN	3185228.987556	3185229.50409792
49	20	0	0	90	36.1581920903955	36.241610738255	0	0	1	6	6	NaN	1	5	0.0455522286888362	1	1	NaN	169	3	43	2	111	211	311	NaN	511	0.0104180807247758	1	1	NaN	3185230.4544269	NaN	3185231.4377985	3185231.95434652
49	20	0	0	90	36.1581920903955	36.241610738255	24	0.80010326385498	2	6	6	NaN	1	4	0.0455522286888362	1	1	NaN	170	3	44	2	121	221	321	NaN	521	0.0104821808636189	1	1	NaN	3185232.7711644	NaN	3185233.7547402	3185234.27123872
49	20	0	0	90	36.1581920903955	36.241610738255	15	0.500064539909363	2	8	6	NaN	2	3	0.0455522286888362	1	1	NaN	171	3	45	2	121	221	321	NaN	521	0.0104120806790888	1	0	NaN	3185235.1048857	NaN	3185236.0882765	3185236.60480442
49	20	0	0	90	36.1581920903955	36.241610738255	17	0.566739811897278	2	5	5	NaN	1	4	0.0455522286888362	1	1	NaN	172	3	46	2	121	221	321	NaN	521	0.0105965682305396	1	1	NaN	3185237.4384243	NaN	3185238.4218318	3185238.93835983
49	20	0	0	90	36.1581920903955	36.241610738255	13	0.433389267921448	2	8	1	NaN	2	3	0.0455522286888362	1	1	NaN	173	3	47	2	121	221	321	NaN	521	1.42531958036125	2	1	NaN	3185239.7719875	NaN	3185240.7553911	3185241.27192772
49	20	0	0	90	36.1581920903955	36.241610738255	12	0.40005163192749	2	1	4	NaN	1	5	0.0455522286888362	1	1	NaN	174	3	48	2	121	221	321	NaN	521	0.906894580461085	1	1	NaN	3185243.522221	NaN	3185244.5057579	3185245.02228782
49	20	0	0	90	36.1581920903955	36.241610738255	8	0.26670108795166	2	10	6	NaN	2	4	0.0455522286888362	1	1	NaN	175	3	49	2	121	221	321	NaN	521	0.338097180705518	2	1	NaN	3185246.7393469	NaN	3185247.7227239	3185248.23927922
49	20	0	0	90	36.1581920903955	36.241610738255	8	0.26670108795166	2	11	2	NaN	2	4	0.0455522286888362	1	1	NaN	176	3	50	2	121	221	321	NaN	521	0.010398690123111	2	1	NaN	3185249.4062892	NaN	3185250.3896652	3185250.90620391
49	20	0	0	90	36.1581920903955	36.241610738255	18	0.600077447891235	2	9	4	NaN	2	3	0.0455522286888362	1	1	NaN	177	3	51	2	121	221	321	NaN	521	0.0104689802974463	2	1	NaN	3185251.739813	NaN	3185252.72322	3185253.23976692
49	20	0	0	90	36.1581920903955	36.241610738255	7	0.233363451957703	2	6	5	NaN	1	5	0.0455522286888362	1	1	NaN	178	3	52	2	121	221	321	NaN	521	0.0104108806699514	1	1	NaN	3185254.0734002	NaN	3185255.056803	3185255.57332722
49	20	0	0	90	36.1581920903955	36.241610738255	11	0.366713995933533	2	4	1	NaN	1	5	0.0455522286888362	1	1	NaN	179	3	53	2	121	221	321	NaN	521	0.0105193774215877	1	1	NaN	3185256.4069634	NaN	3185257.3903578	3185257.90688612
49	20	0	0	90	36.1581920903955	36.241610738255	25	0.833440899848938	2	5	4	NaN	1	4	0.0455522286888362	1	1	NaN	180	3	54	2	121	221	321	NaN	521	0.0104001322761178	1	1	NaN	3185258.7405051	NaN	3185259.7239077	3185260.24044657
49	20	0	0	90	36.1581920903955	36.241610738255	16	0.53340217590332	2	2	3	NaN	1	5	0.0455522286888362	1	1	NaN	181	3	55	2	121	221	321	NaN	521	0.13137562898919	1	1	NaN	3185261.0739507	NaN	3185262.0574792	3185262.57400827
49	20	0	0	90	36.1581920903955	36.241610738255	22	0.733427991867065	2	12	1	NaN	2	3	0.0455522286888362	1	1	NaN	182	3	56	2	121	221	321	NaN	521	0.0105064772069454	1	0	NaN	3185263.5243235	NaN	3185264.5077289	3185265.02424962
49	20	0	0	90	36.1581920903955	36.241610738255	7	0.233363451957703	2	11	4	NaN	2	4	0.0455522286888362	1	1	NaN	183	3	57	2	121	221	321	NaN	521	0.0754717458039522	1	0	NaN	3185265.8579131	NaN	3185266.8412933	3185267.35783545
49	20	0	0	90	36.1581920903955	36.241610738255	20	0.66675271987915	2	9	3	NaN	2	3	0.0455522286888362	1	1	NaN	184	3	58	2	121	221	321	NaN	521	0.010448232293129	2	1	NaN	3185268.2414413	NaN	3185269.224879	3185269.74138967
49	20	0	0	90	36.1581920903955	36.241610738255	25	0.833440899848938	2	5	3	NaN	1	3	0.0455522286888362	1	1	NaN	185	3	59	2	121	221	321	NaN	521	0.0103832841850817	1	1	NaN	3185270.5750013	NaN	3185271.558416	3185272.07495102
49	20	0	0	90	36.1581920903955	36.241610738255	23	0.766765627861023	2	3	5	NaN	1	4	0.0455522286888362	1	1	NaN	186	3	60	2	121	221	321	NaN	521	0.0408998839557171	2	0	NaN	3185272.9085675	NaN	3185273.8919864	3185274.40851082
49	20	0	0	90	36.1581920903955	36.241610738255	13	0.433389267921448	2	11	2	NaN	2	3	0.0455522286888362	1	1	NaN	187	3	61	2	121	221	321	NaN	521	0.0103662870824337	2	1	NaN	3185275.2588937	NaN	3185276.2422369	3185276.75876501
49	20	0	0	90	36.1581920903955	36.241610738255	0	0	1	4	1	NaN	1	3	0.0455522286888362	1	1	NaN	188	3	62	2	111	211	311	NaN	511	0.0103425453417003	1	1	NaN	3185277.575694	NaN	3185278.5590814	3185279.07564735
49	20	0	0	90	36.1581920903955	36.241610738255	0	0	1	1	2	NaN	1	5	0.0455522286888362	1	1	NaN	189	3	63	2	111	211	311	NaN	511	0.0104491291567683	1	1	NaN	3185279.9092811	NaN	3185280.8926465	3185281.40919567
49	20	0	0	90	36.1581920903955	36.241610738255	8	0.26670108795166	2	11	3	NaN	2	3	0.0455522286888362	1	1	NaN	190	4	1	2	121	221	321	NaN	521	2.04912167740986	2	1	NaN	3185316.4128599	NaN	3185317.3962435	3185317.91278522
49	20	0	0	90	36.1581920903955	36.241610738255	8	0.26670108795166	2	3	2	NaN	1	3	0.0455522286888362	1	1	NaN	191	4	2	2	121	221	321	NaN	521	0.0105034806765616	1	1	NaN	3185320.7798583	NaN	3185321.76335	3185322.27987492
49	20	0	0	90	36.1581920903955	36.241610738255	24	0.80010326385498	2	1	4	NaN	1	3	0.0455522286888362	1	1	NaN	192	4	3	2	121	221	321	NaN	521	0.0920909810811281	1	1	NaN	3185323.1133782	NaN	3185324.0969255	3185324.61344122
49	20	0	0	90	36.1581920903955	36.241610738255	0	0	1	1	3	NaN	1	4	0.0455522286888362	1	1	NaN	193	4	4	2	111	211	311	NaN	511	0.883375290315598	1	1	NaN	3185325.530418	NaN	3185326.5137827	3185327.03035401
49	20	0	0	90	36.1581920903955	36.241610738255	21	0.700090355873108	2	5	6	NaN	1	5	0.0455522286888362	1	1	NaN	194	4	5	2	121	221	321	NaN	521	0.379216028843075	1	1	NaN	3185328.7305833	NaN	3185329.7141224	3185330.23065967
49	20	0	0	90	36.1581920903955	36.241610738255	13	0.433389267921448	2	7	3	NaN	2	5	0.0455522286888362	1	1	NaN	195	4	6	2	121	221	321	NaN	521	0.13462779391557	1	0	NaN	3185331.4309762	NaN	3185332.414395	3185332.93092981
49	20	0	0	90	36.1581920903955	36.241610738255	8	0.26670108795166	2	12	2	NaN	2	5	0.0455522286888362	1	1	NaN	196	4	7	2	121	221	321	NaN	521	0.0104165808297694	2	1	NaN	3185333.8812397	NaN	3185334.8646304	3185335.38116782
49	20	0	0	90	36.1581920903955	36.241610738255	11	0.366713995933533	2	5	4	NaN	1	5	0.0455522286888362	1	1	NaN	197	4	8	2	121	221	321	NaN	521	0.391167793888599	1	1	NaN	3185336.2147918	NaN	3185337.1981316	3185337.71474161
49	20	0	0	90	36.1581920903955	36.241610738255	14	0.466726903915405	2	11	1	NaN	2	4	0.0455522286888362	1	1	NaN	198	4	9	2	121	221	321	NaN	521	0.634318080730736	1	0	NaN	3185338.9317257	NaN	3185339.9151561	3185340.43165782
49	20	0	0	90	36.1581920903955	36.241610738255	14	0.466726903915405	2	2	3	NaN	1	5	0.0455522286888362	1	1	NaN	199	4	10	2	121	221	321	NaN	521	0.0274555804207921	1	1	NaN	3185341.88201	NaN	3185342.8654247	3185343.38195162
49	20	0	0	90	36.1581920903955	36.241610738255	0	0	1	3	1	NaN	1	5	0.0455522286888362	1	1	NaN	200	4	11	2	111	211	311	NaN	511	0.0104772322811186	1	1	NaN	3185344.2322567	NaN	3185345.2156491	3185345.73218627
49	20	0	0	90	36.1581920903955	36.241610738255	24	0.80010326385498	2	2	4	NaN	1	4	0.0455522286888362	1	1	NaN	201	4	12	2	121	221	321	NaN	521	0.0104244868271053	1	1	NaN	3185346.5657975	NaN	3185347.5491333	3185348.06574511
49	20	0	0	90	36.1581920903955	36.241610738255	8	0.26670108795166	2	1	6	NaN	1	4	0.0455522286888362	1	1	NaN	202	4	13	2	121	221	321	NaN	521	0.0262659806758165	1	1	NaN	3185348.8993715	NaN	3185349.882753	3185350.39930592
49	20	0	0	90	36.1581920903955	36.241610738255	15	0.500064539909363	2	12	4	NaN	2	4	0.0455522286888362	1	1	NaN	203	4	14	2	121	221	321	NaN	521	0.059951932169497	1	0	NaN	3185351.2495997	NaN	3185352.2329842	3185352.74953567
49	20	0	0	90	36.1581920903955	36.241610738255	21	0.700090355873108	2	12	3	NaN	2	4	0.0455522286888362	1	1	NaN	204	4	15	2	121	221	321	NaN	521	0.0104112806729972	2	1	NaN	3185353.6332773	NaN	3185354.6165767	3185355.13310422
49	20	0	0	90	36.1581920903955	36.241610738255	0	0	1	10	5	NaN	2	4	0.0455522286888362	1	1	NaN	205	4	16	2	111	211	311	NaN	511	0.0104135805740952	1	0	NaN	3185355.9667337	NaN	3185356.9501242	3185357.46666242
49	20	0	0	90	36.1581920903955	36.241610738255	9	0.300038723945618	2	11	2	NaN	2	5	0.0455522286888362	1	1	NaN	206	4	17	2	121	221	321	NaN	521	0.106051784008741	1	0	NaN	3185358.2834589	NaN	3185359.2670279	3185359.78356592
49	20	0	0	90	36.1581920903955	36.241610738255	10	0.333376359939575	2	8	4	NaN	2	3	0.0455522286888362	1	1	NaN	207	4	18	2	121	221	321	NaN	521	0.010497628711164	2	1	NaN	3185360.7172401	NaN	3185361.7005843	3185362.21714047
49	20	0	0	90	36.1581920903955	36.241610738255	15	0.500064539909363	2	2	5	NaN	1	3	0.0455522286888362	1	1	NaN	208	4	19	2	121	221	321	NaN	521	0.010411680676043	1	1	NaN	3185363.050774	NaN	3185364.0341414	3185364.55069312
49	20	0	0	90	36.1581920903955	36.241610738255	16	0.53340217590332	2	8	3	NaN	2	3	0.0455522286888362	1	1	NaN	209	4	20	2	121	221	321	NaN	521	2.54094178043306	2	1	NaN	3185365.8009907	NaN	3185366.7845094	3185367.30096382
49	20	0	0	90	36.1581920903955	36.241610738255	24	0.80010326385498	2	3	3	NaN	1	5	0.0455522286888362	1	1	NaN	210	4	21	2	121	221	321	NaN	521	0.202482480555773	1	1	NaN	3185371.4514481	NaN	3185372.4349591	3185372.95152722
49	20	0	0	90	36.1581920903955	36.241610738255	14	0.466726903915405	2	7	5	NaN	2	4	0.0455522286888362	1	1	NaN	211	4	22	2	121	221	321	NaN	521	0.829088477417827	1	0	NaN	3185373.9684958	NaN	3185374.9519919	3185375.46843982
49	20	0	0	90	36.1581920903955	36.241610738255	14	0.466726903915405	2	8	5	NaN	2	5	0.0455522286888362	1	1	NaN	212	4	23	2	121	221	321	NaN	521	0.0104934289120138	2	1	NaN	3185377.1188191	NaN	3185378.1021892	3185378.61873937
49	20	0	0	90	36.1581920903955	36.241610738255	15	0.500064539909363	2	7	1	NaN	2	3	0.0455522286888362	1	1	NaN	213	4	24	2	121	221	321	NaN	521	0.0104125323705375	2	1	NaN	3185379.4523599	NaN	3185380.4357718	3185380.95230087
49	20	0	0	90	36.1581920903955	36.241610738255	12	0.40005163192749	2	12	6	NaN	2	4	0.0455522286888362	1	1	NaN	214	4	25	2	121	221	321	NaN	521	0.164444680791348	1	0	NaN	3185381.7692574	NaN	3185382.7526678	3185383.26920252
49	20	0	0	90	36.1581920903955	36.241610738255	19	0.633415083885193	2	3	2	NaN	1	4	0.0455522286888362	1	1	NaN	215	4	26	2	121	221	321	NaN	521	0.448945281095803	1	1	NaN	3185384.2528521	NaN	3185385.2362588	3185385.75278342
49	20	0	0	90	36.1581920903955	36.241610738255	11	0.366713995933533	2	5	6	NaN	1	5	0.0455522286888362	1	1	NaN	216	4	27	2	121	221	321	NaN	521	0.0104103805497289	1	1	NaN	3185387.06966	NaN	3185388.0531803	3185388.56972812
49	20	0	0	90	36.1581920903955	36.241610738255	10	0.333376359939575	2	2	1	NaN	1	4	0.0455522286888362	1	1	NaN	217	4	28	2	121	221	321	NaN	521	0.0104476772248745	1	1	NaN	3185389.4033582	NaN	3185390.386745	3185390.90327612
49	20	0	0	90	36.1581920903955	36.241610738255	9	0.300038723945618	2	4	6	NaN	1	4	0.0455522286888362	1	1	NaN	218	4	29	2	121	221	321	NaN	521	0.0448281290009618	1	1	NaN	3185391.7369118	NaN	3185392.720304	3185393.23684437
49	20	0	0	90	36.1581920903955	36.241610738255	17	0.566739811897278	2	7	1	NaN	2	3	0.0455522286888362	1	1	NaN	219	4	30	2	121	221	321	NaN	521	0.0104237291961908	1	0	NaN	3185394.1036767	NaN	3185395.0871766	3185395.60374787
49	20	0	0	90	36.1581920903955	36.241610738255	9	0.300038723945618	2	1	1	NaN	1	3	0.0455522286888362	1	1	NaN	220	4	31	2	121	221	321	NaN	521	0.0104357842355967	1	1	NaN	3185396.5039311	NaN	3185397.4874351	3185398.00398802
49	20	0	0	90	36.1581920903955	36.241610738255	18	0.600077447891235	2	10	3	NaN	2	5	0.0455522286888362	1	1	NaN	221	4	32	2	121	221	321	NaN	521	1.99274108093232	2	1	NaN	3185398.8209113	NaN	3185399.8043481	3185400.32087382
49	20	0	0	90	36.1581920903955	36.241610738255	25	0.833440899848938	2	12	6	NaN	2	4	0.0455522286888362	1	1	NaN	222	4	33	2	121	221	321	NaN	521	0.0104298358783126	2	1	NaN	3185403.138024	NaN	3185404.1214267	3185404.63796086
49	20	0	0	90	36.1581920903955	36.241610738255	25	0.833440899848938	2	10	5	NaN	2	3	0.0455522286888362	1	1	NaN	223	4	34	2	121	221	321	NaN	521	1.06990497745574	2	1	NaN	3185405.4715077	NaN	3185406.4549982	3185406.97152842
49	20	0	0	90	36.1581920903955	36.241610738255	17	0.566739811897278	2	7	6	NaN	2	4	0.0455522286888362	1	1	NaN	224	4	35	2	121	221	321	NaN	521	0.238263928797096	2	1	NaN	3185408.855113	NaN	3185409.8386494	3185410.35518877
49	20	0	0	90	36.1581920903955	36.241610738255	6	0.200025815963745	2	12	6	NaN	2	5	0.0455522286888362	1	1	NaN	225	4	36	2	121	221	321	NaN	521	0.0104183806106448	2	1	NaN	3185411.4221749	NaN	3185412.4055808	3185412.92210882
49	20	0	0	90	36.1581920903955	36.241610738255	19	0.633415083885193	2	4	5	NaN	1	5	0.0455522286888362	1	1	NaN	226	4	37	2	121	221	321	NaN	521	0.0105172772891819	1	1	NaN	3185413.7557224	NaN	3185414.7391066	3185415.25567132
49	20	0	0	90	36.1581920903955	36.241610738255	22	0.733427991867065	2	4	1	NaN	1	4	0.0455522286888362	1	1	NaN	227	4	38	2	121	221	321	NaN	521	0.0104140806943178	1	1	NaN	3185416.089289	NaN	3185417.0727074	3185417.58923402
49	20	0	0	90	36.1581920903955	36.241610738255	19	0.633415083885193	2	1	2	NaN	1	5	0.0455522286888362	1	1	NaN	228	4	39	2	121	221	321	NaN	521	0.0227389289066195	1	1	NaN	3185418.4228627	NaN	3185419.4062501	3185419.92279317
49	20	0	0	90	36.1581920903955	36.241610738255	11	0.366713995933533	2	7	4	NaN	2	5	0.0455522286888362	1	1	NaN	229	4	40	2	121	221	321	NaN	521	0.0103728417307138	2	1	NaN	3185420.7563062	NaN	3185421.7398269	3185422.25636946
49	20	0	0	90	36.1581920903955	36.241610738255	7	0.233363451957703	2	8	4	NaN	2	5	0.0455522286888362	1	1	NaN	230	4	41	2	121	221	321	NaN	521	0.010487481020391	2	1	NaN	3185423.2232823	NaN	3185424.2067387	3185424.72328042
49	20	0	0	90	36.1581920903955	36.241610738255	19	0.633415083885193	2	7	2	NaN	2	3	0.0455522286888362	1	1	NaN	231	4	42	2	121	221	321	NaN	521	0.136691080871969	2	1	NaN	3185425.5569001	NaN	3185426.5402965	3185427.05682672
49	20	0	0	90	36.1581920903955	36.241610738255	13	0.433389267921448	2	11	1	NaN	2	4	0.0455522286888362	1	1	NaN	232	4	43	2	121	221	321	NaN	521	0.0104320286773145	2	1	NaN	3185428.0071174	NaN	3185428.9905364	3185429.50707567
49	20	0	0	90	36.1581920903955	36.241610738255	13	0.433389267921448	2	1	1	NaN	1	5	0.0455522286888362	1	1	NaN	233	4	44	2	121	221	321	NaN	521	0.0491517805494368	1	1	NaN	3185430.3407247	NaN	3185431.3241047	3185431.84063352
49	20	0	0	90	36.1581920903955	36.241610738255	13	0.433389267921448	2	10	1	NaN	2	3	0.0455522286888362	1	1	NaN	234	4	45	2	121	221	321	NaN	521	0.010483174584806	2	1	NaN	3185432.7076125	NaN	3185433.6910137	3185434.20753923
49	20	0	0	90	36.1581920903955	36.241610738255	13	0.433389267921448	2	9	6	NaN	2	3	0.0455522286888362	1	1	NaN	235	4	46	2	121	221	321	NaN	521	0.0284968321211636	2	1	NaN	3185435.0410253	NaN	3185436.0245681	3185436.54110417
49	20	0	0	90	36.1581920903955	36.241610738255	12	0.40005163192749	2	2	5	NaN	1	4	0.0455522286888362	1	1	NaN	236	4	47	2	121	221	321	NaN	521	0.190364093985409	2	0	NaN	3185437.3914069	NaN	3185438.3747875	3185438.89133051
49	20	0	0	90	36.1581920903955	36.241610738255	14	0.466726903915405	2	2	5	NaN	1	5	0.0455522286888362	1	1	NaN	237	4	48	2	121	221	321	NaN	521	0.313566180411726	1	1	NaN	3185439.9082999	NaN	3185440.8917139	3185441.40824212
49	20	0	0	90	36.1581920903955	36.241610738255	13	0.433389267921448	2	12	6	NaN	2	4	0.0455522286888362	1	1	NaN	238	4	49	2	121	221	321	NaN	521	0.0104148807004094	2	1	NaN	3185442.5418937	NaN	3185443.5252991	3185444.04183822
49	20	0	0	90	36.1581920903955	36.241610738255	23	0.766765627861023	2	1	1	NaN	1	4	0.0455522286888362	1	1	NaN	239	4	50	2	121	221	321	NaN	521	1.97078923229128	2	0	NaN	3185444.8587019	NaN	3185445.8422	3185446.35873257
49	20	0	0	90	36.1581920903955	36.241610738255	7	0.233363451957703	2	4	6	NaN	1	3	0.0455522286888362	1	1	NaN	240	4	51	2	121	221	321	NaN	521	0.0673452806659043	1	1	NaN	3185449.2425395	NaN	3185450.2259573	3185450.74250222
49	20	0	0	90	36.1581920903955	36.241610738255	15	0.500064539909363	2	10	6	NaN	2	4	0.0455522286888362	1	1	NaN	241	4	52	2	121	221	321	NaN	521	0.173897881060839	2	1	NaN	3185451.9761177	NaN	3185452.959541	3185453.47609002
49	20	0	0	90	36.1581920903955	36.241610738255	20	0.66675271987915	2	2	3	NaN	1	3	0.0455522286888362	1	1	NaN	242	4	53	2	121	221	321	NaN	521	0.0820503355935216	1	1	NaN	3185454.4597474	NaN	3185455.4431215	3185455.95967536
49	20	0	0	90	36.1581920903955	36.241610738255	0	0	1	3	2	NaN	1	4	0.0455522286888362	1	1	NaN	243	4	54	2	111	211	311	NaN	511	0.0104956808499992	1	1	NaN	3185456.8433	NaN	3185457.8267055	3185458.34324512
49	20	0	0	90	36.1581920903955	36.241610738255	20	0.66675271987915	2	4	4	NaN	1	3	0.0455522286888362	1	1	NaN	244	4	55	2	121	221	321	NaN	521	3.9893176802434	1	1	NaN	3185459.1768694	NaN	3185460.1602854	3185460.67680952
49	20	0	0	90	36.1581920903955	36.241610738255	11	0.366713995933533	2	11	4	NaN	2	3	0.0455522286888362	1	1	NaN	245	4	56	2	121	221	321	NaN	521	1.07947883242741	2	1	NaN	3185465.4941272	NaN	3185466.4775294	3185466.99409557
49	20	0	0	90	36.1581920903955	36.241610738255	18	0.600077447891235	2	5	4	NaN	1	3	0.0455522286888362	1	1	NaN	246	4	57	2	121	221	321	NaN	521	0.0104331290349364	1	1	NaN	3185468.8944709	NaN	3185469.8778699	3185470.39442567
49	20	0	0	90	36.1581920903955	36.241610738255	20	0.66675271987915	2	1	5	NaN	1	5	0.0455522286888362	1	1	NaN	247	4	58	2	121	221	321	NaN	521	0.0102957002818584	1	1	NaN	3185471.228034	NaN	3185472.2114377	3185472.727995
49	20	0	0	90	36.1581920903955	36.241610738255	0	0	1	8	6	NaN	2	4	0.0455522286888362	1	1	NaN	248	4	59	2	111	211	311	NaN	511	0.0104651325382292	2	1	NaN	3185473.5616277	NaN	3185474.544994	3185475.06154307
49	20	0	0	90	36.1581920903955	36.241610738255	21	0.700090355873108	2	9	2	NaN	2	3	0.0455522286888362	1	1	NaN	249	4	60	2	121	221	321	NaN	521	1.56654322892427	1	0	NaN	3185475.8951866	NaN	3185476.878598	3185477.39510947
49	20	0	0	90	36.1581920903955	36.241610738255	22	0.733427991867065	2	1	4	NaN	1	4	0.0455522286888362	1	1	NaN	250	4	61	2	121	221	321	NaN	521	0.235309280455112	1	1	NaN	3185479.7788828	NaN	3185480.7622858	3185481.27882462
49	20	0	0	90	36.1581920903955	36.241610738255	15	0.500064539909363	2	7	5	NaN	2	5	0.0455522286888362	1	1	NaN	251	4	62	2	121	221	321	NaN	521	1.18898792890832	2	1	NaN	3185482.3291254	NaN	3185483.3125468	3185483.82907897
49	20	0	0	90	36.1581920903955	36.241610738255	21	0.700090355873108	2	3	1	NaN	1	5	0.0455522286888362	1	1	NaN	252	4	63	2	121	221	321	NaN	521	0.0962347807362676	1	1	NaN	3185485.8293504	NaN	3185486.8128681	3185487.32942382
49	20	0	0	90	36.1581920903955	36.241610738255	15	0.500064539909363	2	6	1	NaN	1	5	0.0455522286888362	1	1	NaN	253	5	1	2	121	221	321	NaN	521	0.0104820807464421	1	1	NaN	3185519.1994191	NaN	3185520.1828209	3185520.69936172
49	20	0	0	90	36.1581920903955	36.241610738255	19	0.633415083885193	2	6	4	NaN	1	4	0.0455522286888362	1	1	NaN	254	5	2	2	121	221	321	NaN	521	0.0488358810544014	2	0	NaN	3185521.5331035	NaN	3185522.5163984	3185523.03293182
49	20	0	0	90	36.1581920903955	36.241610738255	21	0.700090355873108	2	7	2	NaN	2	4	0.0455522286888362	1	1	NaN	255	5	3	2	121	221	321	NaN	521	0.0104316286742687	1	0	NaN	3185523.8998721	NaN	3185524.8832849	3185525.39981527
49	20	0	0	90	36.1581920903955	36.241610738255	24	0.80010326385498	2	5	6	NaN	1	5	0.0455522286888362	1	1	NaN	256	5	4	2	121	221	321	NaN	521	0.204645032528788	1	1	NaN	3185526.2334138	NaN	3185527.2168408	3185527.73338077
49	20	0	0	90	36.1581920903955	36.241610738255	22	0.733427991867065	2	5	2	NaN	1	3	0.0455522286888362	1	1	NaN	257	5	5	2	121	221	321	NaN	521	0.0104464325122535	1	1	NaN	3185528.7670277	NaN	3185529.7504107	3185530.26697147
49	20	0	0	90	36.1581920903955	36.241610738255	12	0.40005163192749	2	11	2	NaN	2	5	0.0455522286888362	1	1	NaN	258	5	6	2	121	221	321	NaN	521	0.0104647325351834	2	1	NaN	3185531.1005361	NaN	3185532.0840032	3185532.60053207
49	20	0	0	90	36.1581920903955	36.241610738255	0	0	1	9	1	NaN	2	5	0.0455522286888362	1	1	NaN	259	5	7	2	111	211	311	NaN	511	0.108343984000385	1	0	NaN	3185533.4173564	NaN	3185534.400906	3185534.91742832
49	20	0	0	90	36.1581920903955	36.241610738255	6	0.200025815963745	2	10	1	NaN	2	3	0.0455522286888362	1	1	NaN	260	5	8	2	121	221	321	NaN	521	0.0105076772160828	2	1	NaN	3185535.8344033	NaN	3185536.8177918	3185537.33432762
49	20	0	0	90	36.1581920903955	36.241610738255	10	0.333376359939575	2	11	6	NaN	2	5	0.0455522286888362	1	1	NaN	261	5	9	2	121	221	321	NaN	521	1.17392667708918	1	0	NaN	3185538.1680314	NaN	3185539.1513402	3185539.66789192
49	20	0	0	90	36.1581920903955	36.241610738255	12	0.40005163192749	2	1	3	NaN	1	3	0.0455522286888362	1	1	NaN	262	5	10	2	121	221	321	NaN	521	0.0104182809591293	1	1	NaN	3185541.6683056	NaN	3185542.6516993	3185543.16823012
49	20	0	0	90	36.1581920903955	36.241610738255	7	0.233363451957703	2	7	6	NaN	2	4	0.0455522286888362	1	1	NaN	263	5	11	2	121	221	321	NaN	521	24.9239459773526	1	0	NaN	3185544.0018479	NaN	3185544.9852586	3185545.50179852
49	20	0	0	90	36.1581920903955	36.241610738255	10	0.333376359939575	2	7	4	NaN	2	4	0.0455522286888362	1	1	NaN	264	5	12	2	121	221	321	NaN	521	1.00798868061975	1	0	NaN	3185571.2378695	NaN	3185572.2212582	3185572.73780072
49	20	0	0	90	36.1581920903955	36.241610738255	18	0.600077447891235	2	1	3	NaN	1	3	0.0455522286888362	1	1	NaN	265	5	13	2	121	221	321	NaN	521	0.0510523742996156	2	0	NaN	3185574.5547302	NaN	3185575.5382586	3185576.05479763
49	20	0	0	90	36.1581920903955	36.241610738255	17	0.566739811897278	2	8	4	NaN	2	4	0.0455522286888362	1	1	NaN	266	5	14	2	121	221	321	NaN	521	0.0104141803458333	2	1	NaN	3185576.9217618	NaN	3185577.9051224	3185578.42169052
49	20	0	0	90	36.1581920903955	36.241610738255	7	0.233363451957703	2	7	2	NaN	2	5	0.0455522286888362	1	1	NaN	267	5	15	2	121	221	321	NaN	521	1.72710073227063	1	0	NaN	3185579.2386505	NaN	3185580.2219137	3185580.73859707
49	20	0	0	90	36.1581920903955	36.241610738255	0	0	1	5	6	NaN	1	5	0.0455522286888362	1	1	NaN	268	5	16	2	111	211	311	NaN	511	0.279252632055432	1	1	NaN	3185583.6222858	NaN	3185584.605805	3185585.12236237
49	20	0	0	90	36.1581920903955	36.241610738255	14	0.466726903915405	2	4	3	NaN	1	5	0.0455522286888362	1	1	NaN	269	5	17	2	121	221	321	NaN	521	0.0879521807655692	1	1	NaN	3185586.6059116	NaN	3185587.5894506	3185588.10598292
49	20	0	0	90	36.1581920903955	36.241610738255	19	0.633415083885193	2	5	5	NaN	1	5	0.0455522286888362	1	1	NaN	270	5	18	2	121	221	321	NaN	521	0.455504045356065	1	1	NaN	3185589.0062732	NaN	3185589.9896982	3185590.50621405
49	20	0	0	90	36.1581920903955	36.241610738255	25	0.833440899848938	2	12	5	NaN	2	3	0.0455522286888362	1	1	NaN	271	5	19	2	121	221	321	NaN	521	0.0104376836679876	1	0	NaN	3185591.7733014	NaN	3185592.7566181	3185593.27315962
49	20	0	0	90	36.1581920903955	36.241610738255	11	0.366713995933533	2	3	3	NaN	1	3	0.0455522286888362	1	1	NaN	272	5	20	2	121	221	321	NaN	521	0.0104170809499919	1	1	NaN	3185594.0901082	NaN	3185595.0735329	3185595.59004442
49	20	0	0	90	36.1581920903955	36.241610738255	23	0.766765627861023	2	4	4	NaN	1	5	0.0455522286888362	1	1	NaN	273	5	21	2	121	221	321	NaN	521	1.07093572895974	1	1	NaN	3185596.4070148	NaN	3185597.3904033	3185597.90693567
49	20	0	0	90	36.1581920903955	36.241610738255	22	0.733427991867065	2	4	5	NaN	1	3	0.0455522286888362	1	1	NaN	274	5	22	2	121	221	321	NaN	521	0.647130232304335	2	0	NaN	3185599.7905637	NaN	3185600.7740731	3185601.29060287
49	20	0	0	90	36.1581920903955	36.241610738255	0	0	1	5	2	NaN	1	4	0.0455522286888362	1	1	NaN	275	5	23	2	111	211	311	NaN	511	0.0104423770681024	1	1	NaN	3185602.7576329	NaN	3185603.7410122	3185604.25756532
49	20	0	0	90	36.1581920903955	36.241610738255	6	0.200025815963745	2	10	4	NaN	2	3	0.0455522286888362	1	1	NaN	276	5	24	2	121	221	321	NaN	521	0.0104506323114038	2	1	NaN	3185605.0745306	NaN	3185606.0579315	3185606.57445317
49	20	0	0	90	36.1581920903955	36.241610738255	21	0.700090355873108	2	11	1	NaN	2	3	0.0455522286888362	1	1	NaN	277	5	25	2	121	221	321	NaN	521	0.0104234805330634	1	0	NaN	3185607.4080922	NaN	3185608.3914627	3185608.90802342
49	20	0	0	90	36.1581920903955	36.241610738255	15	0.500064539909363	2	6	2	NaN	1	5	0.0455522286888362	1	1	NaN	278	5	26	2	121	221	321	NaN	521	0.0104174809530377	2	0	NaN	3185609.7249601	NaN	3185610.7083552	3185611.22491182
49	20	0	0	90	36.1581920903955	36.241610738255	25	0.833440899848938	2	2	6	NaN	1	5	0.0455522286888362	1	1	NaN	279	5	27	2	121	221	321	NaN	521	0.0104118804447353	1	1	NaN	3185612.0418594	NaN	3185613.0252637	3185613.54180732
49	20	0	0	90	36.1581920903955	36.241610738255	18	0.600077447891235	2	12	4	NaN	2	3	0.0455522286888362	1	1	NaN	280	5	28	2	121	221	321	NaN	521	0.0104948291555047	1	0	NaN	3185614.8254547	NaN	3185615.8088756	3185616.32541717
49	20	0	0	90	36.1581920903955	36.241610738255	22	0.733427991867065	2	11	5	NaN	2	3	0.0455522286888362	1	1	NaN	281	5	29	2	121	221	321	NaN	521	0.0104840807616711	1	0	NaN	3185617.1590303	NaN	3185618.1424341	3185618.65897942
49	20	0	0	90	36.1581920903955	36.241610738255	14	0.466726903915405	2	6	3	NaN	1	3	0.0455522286888362	1	1	NaN	282	5	30	2	121	221	321	NaN	521	0.0103181418962777	2	0	NaN	3185619.4926119	NaN	3185620.476014	3185620.99254616
49	20	0	0	90	36.1581920903955	36.241610738255	21	0.700090355873108	2	7	3	NaN	2	3	0.0455522286888362	1	1	NaN	283	5	31	2	121	221	321	NaN	521	0.0103539866395295	2	1	NaN	3185621.826179	NaN	3185622.8095585	3185623.32610401
49	20	0	0	90	36.1581920903955	36.241610738255	21	0.700090355873108	2	12	2	NaN	2	4	0.0455522286888362	1	1	NaN	284	5	32	2	121	221	321	NaN	521	0.608136780560017	1	0	NaN	3185624.5097263	NaN	3185625.493189	3185626.00970052
49	20	0	0	90	36.1581920903955	36.241610738255	8	0.26670108795166	2	2	2	NaN	1	5	0.0455522286888362	1	1	NaN	285	5	33	2	121	221	321	NaN	521	0.130644728895277	1	1	NaN	3185627.4433784	NaN	3185628.4268135	3185628.94332137
49	20	0	0	90	36.1581920903955	36.241610738255	7	0.233363451957703	2	2	1	NaN	1	5	0.0455522286888362	1	1	NaN	286	5	34	2	121	221	321	NaN	521	0.0105025288648903	1	1	NaN	3185629.8935064	NaN	3185630.8770422	3185631.39356657
49	20	0	0	90	36.1581920903955	36.241610738255	19	0.633415083885193	2	2	2	NaN	1	3	0.0455522286888362	1	1	NaN	287	5	35	2	121	221	321	NaN	521	0.0105077773332596	1	1	NaN	3185632.2271729	NaN	3185633.2105766	3185633.72711982
49	20	0	0	90	36.1581920903955	36.241610738255	9	0.300038723945618	2	4	4	NaN	1	3	0.0455522286888362	1	1	NaN	288	5	36	2	121	221	321	NaN	521	0.459594080690295	1	1	NaN	3185634.6107312	NaN	3185635.5941586	3185636.11071332
49	20	0	0	90	36.1581920903955	36.241610738255	18	0.600077447891235	2	1	5	NaN	1	5	0.0455522286888362	1	1	NaN	289	5	37	2	121	221	321	NaN	521	0.0104507808573544	1	1	NaN	3185638.7444816	NaN	3185639.7278932	3185640.24443172
49	20	0	0	90	36.1581920903955	36.241610738255	7	0.233363451957703	2	5	1	NaN	1	5	0.0455522286888362	1	1	NaN	290	5	38	2	121	221	321	NaN	521	0.0103987324982882	1	1	NaN	3185641.0613931	NaN	3185642.0448097	3185642.56133007
49	20	0	0	90	36.1581920903955	36.241610738255	20	0.66675271987915	2	12	4	NaN	2	5	0.0455522286888362	1	1	NaN	291	5	39	2	121	221	321	NaN	521	0.597248032223433	2	1	NaN	3185645.5451251	NaN	3185646.5284753	3185647.04510877
49	20	0	0	90	36.1581920903955	36.241610738255	23	0.766765627861023	2	5	3	NaN	1	5	0.0455522286888362	1	1	NaN	292	5	40	2	121	221	321	NaN	521	1.27185198059306	1	1	NaN	3185648.4621155	NaN	3185649.4455306	3185649.96206392
49	20	0	0	90	36.1581920903955	36.241610738255	21	0.700090355873108	2	1	4	NaN	1	4	0.0455522286888362	1	1	NaN	293	5	41	2	121	221	321	NaN	521	0.152589780278504	1	1	NaN	3185652.0458105	NaN	3185653.0292118	3185653.54573482
49	20	0	0	90	36.1581920903955	36.241610738255	23	0.766765627861023	2	9	5	NaN	2	3	0.0455522286888362	1	1	NaN	294	5	42	2	121	221	321	NaN	521	0.0104203806258738	2	1	NaN	3185654.5293756	NaN	3185655.512766	3185656.02931792
49	20	0	0	90	36.1581920903955	36.241610738255	6	0.200025815963745	2	7	6	NaN	2	3	0.0455522286888362	1	1	NaN	295	5	43	2	121	221	321	NaN	521	1.16703653242439	2	1	NaN	3185656.8629457	NaN	3185657.8463524	3185658.36287737
49	20	0	0	90	36.1581920903955	36.241610738255	6	0.200025815963745	2	12	3	NaN	2	4	0.0455522286888362	1	1	NaN	296	5	44	2	121	221	321	NaN	521	0.530752128921449	2	1	NaN	3185660.3633001	NaN	3185661.3466948	3185661.86321697
49	20	0	0	90	36.1581920903955	36.241610738255	24	0.80010326385498	2	4	1	NaN	1	4	0.0455522286888362	1	1	NaN	297	5	45	2	121	221	321	NaN	521	0.0406376868486404	1	1	NaN	3185663.213565	NaN	3185664.196953	3185664.71350451
49	20	0	0	90	36.1581920903955	36.241610738255	10	0.333376359939575	2	7	4	NaN	2	4	0.0455522286888362	1	1	NaN	298	5	46	2	121	221	321	NaN	521	0.0104380776174366	2	1	NaN	3185665.5637896	NaN	3185666.5472043	3185667.06372532
49	20	0	0	90	36.1581920903955	36.241610738255	7	0.233363451957703	2	10	2	NaN	2	5	0.0455522286888362	1	1	NaN	299	5	47	2	121	221	321	NaN	521	0.0104273287579417	2	1	NaN	3185667.8973541	NaN	3185668.8807529	3185669.39730057
49	20	0	0	90	36.1581920903955	36.241610738255	7	0.233363451957703	2	9	6	NaN	2	3	0.0455522286888362	1	1	NaN	300	5	48	2	121	221	321	NaN	521	0.0104854805395007	2	1	NaN	3185670.230914	NaN	3185671.2143133	3185671.73086272
49	20	0	0	90	36.1581920903955	36.241610738255	16	0.53340217590332	2	7	4	NaN	2	5	0.0455522286888362	1	1	NaN	301	5	49	2	121	221	321	NaN	521	0.0104317804798484	2	1	NaN	3185672.547799	NaN	3185673.5312003	3185674.04774872
49	20	0	0	90	36.1581920903955	36.241610738255	9	0.300038723945618	2	8	5	NaN	2	4	0.0455522286888362	1	1	NaN	302	5	50	2	121	221	321	NaN	521	0.0104127805680037	2	1	NaN	3185674.8647172	NaN	3185675.8480836	3185676.36464602
49	20	0	0	90	36.1581920903955	36.241610738255	8	0.26670108795166	2	9	1	NaN	2	4	0.0455522286888362	1	1	NaN	303	5	51	2	121	221	321	NaN	521	0.328076128847897	2	1	NaN	3185677.198151	NaN	3185678.1816702	3185678.69821897
49	20	0	0	90	36.1581920903955	36.241610738255	10	0.333376359939575	2	11	6	NaN	2	5	0.0455522286888362	1	1	NaN	304	5	52	2	121	221	321	NaN	521	0.349447580520064	1	0	NaN	3185679.848441	NaN	3185680.8319422	3185681.34847502
49	20	0	0	90	36.1581920903955	36.241610738255	24	0.80010326385498	2	11	3	NaN	2	4	0.0455522286888362	1	1	NaN	305	5	53	2	121	221	321	NaN	521	0.826466832309961	2	1	NaN	3185682.5154776	NaN	3185683.4988498	3185684.01540367
49	20	0	0	90	36.1581920903955	36.241610738255	13	0.433389267921448	2	3	2	NaN	1	5	0.0455522286888362	1	1	NaN	306	5	54	2	121	221	321	NaN	521	0.010477380361408	1	1	NaN	3185685.7159035	NaN	3185686.6991757	3185687.21571662
49	20	0	0	90	36.1581920903955	36.241610738255	23	0.766765627861023	2	4	6	NaN	1	3	0.0455522286888362	1	1	NaN	307	5	55	2	121	221	321	NaN	521	0.0714723807759583	1	1	NaN	3185688.3827215	NaN	3185689.3661147	3185689.88263752
49	20	0	0	90	36.1581920903955	36.241610738255	18	0.600077447891235	2	6	1	NaN	1	4	0.0455522286888362	1	1	NaN	308	5	56	2	121	221	321	NaN	521	0.128205680754036	1	1	NaN	3185690.7662661	NaN	3185691.74969	3185692.26621292
49	20	0	0	90	36.1581920903955	36.241610738255	17	0.566739811897278	2	1	4	NaN	1	3	0.0455522286888362	1	1	NaN	309	5	57	2	121	221	321	NaN	521	0.0105409743264318	1	1	NaN	3185693.2165075	NaN	3185694.1998999	3185694.71644793
49	20	0	0	90	36.1581920903955	36.241610738255	11	0.366713995933533	2	7	6	NaN	2	5	0.0455522286888362	1	1	NaN	310	5	58	2	121	221	321	NaN	521	1.68047763546929	2	1	NaN	3185695.5500882	NaN	3185696.5334774	3185697.05000866
49	20	0	0	90	36.1581920903955	36.241610738255	15	0.500064539909363	2	10	5	NaN	2	3	0.0455522286888362	1	1	NaN	311	5	59	2	121	221	321	NaN	521	0.0104195806197822	1	0	NaN	3185699.550456	NaN	3185700.5338489	3185701.05039902
49	20	0	0	90	36.1581920903955	36.241610738255	13	0.433389267921448	2	2	3	NaN	1	3	0.0455522286888362	1	1	NaN	312	5	60	2	121	221	321	NaN	521	0.377859432250261	1	1	NaN	3185701.8840305	NaN	3185702.8674334	3185703.38397357
49	20	0	0	90	36.1581920903955	36.241610738255	8	0.26670108795166	2	6	4	NaN	1	4	0.0455522286888362	1	1	NaN	313	5	61	2	121	221	321	NaN	521	0.214448780752718	1	1	NaN	3185704.5676241	NaN	3185705.5510637	3185706.06756782
49	20	0	0	90	36.1581920903955	36.241610738255	8	0.26670108795166	2	6	5	NaN	1	5	0.0455522286888362	1	1	NaN	314	5	62	2	121	221	321	NaN	521	0.0104289292357862	1	1	NaN	3185707.1011888	NaN	3185708.0846212	3185708.60115057
49	20	0	0	90	36.1581920903955	36.241610738255	9	0.300038723945618	2	9	1	NaN	2	4	0.0455522286888362	1	1	NaN	315	5	63	2	121	221	321	NaN	521	0.0104793808422983	2	1	NaN	3185709.4347778	NaN	3185710.4181579	3185710.93471272
49	20	0	0	90	36.1581920903955	36.241610738255	25	0.833440899848938	2	6	2	NaN	1	5	0.0455522286888362	1	1	NaN	316	6	1	2	121	221	321	NaN	521	0.638940629083663	1	1	NaN	3185766.6070694	NaN	3185767.5904503	3185768.10698897
49	20	0	0	90	36.1581920903955	36.241610738255	23	0.766765627861023	2	10	4	NaN	2	5	0.0455522286888362	1	1	NaN	317	6	2	2	121	221	321	NaN	521	0.584476832300425	1	0	NaN	3185769.5741444	NaN	3185770.5574072	3185771.07395087
49	20	0	0	90	36.1581920903955	36.241610738255	8	0.26670108795166	2	1	5	NaN	1	4	0.0455522286888362	1	1	NaN	318	6	3	2	121	221	321	NaN	521	0.131840783637017	1	1	NaN	3185772.4743034	NaN	3185773.4576905	3185773.97423642
49	20	0	0	90	36.1581920903955	36.241610738255	10	0.333376359939575	2	1	5	NaN	1	3	0.0455522286888362	1	1	NaN	319	6	4	2	121	221	321	NaN	521	0.0104788807220757	1	1	NaN	3185774.9243697	NaN	3185775.9079395	3185776.42447472
49	20	0	0	90	36.1581920903955	36.241610738255	10	0.333376359939575	2	12	3	NaN	2	5	0.0455522286888362	1	1	NaN	320	6	5	2	121	221	321	NaN	521	0.010398032143712	2	1	NaN	3185777.2580859	NaN	3185778.2415592	3185778.75803137
49	20	0	0	90	36.1581920903955	36.241610738255	14	0.466726903915405	2	1	3	NaN	1	4	0.0455522286888362	1	1	NaN	321	6	6	2	121	221	321	NaN	521	0.974426680710167	1	1	NaN	3185779.7917243	NaN	3185780.7750693	3185781.29160912
49	20	0	0	90	36.1581920903955	36.241610738255	6	0.200025815963745	2	7	1	NaN	2	5	0.0455522286888362	1	1	NaN	322	6	7	2	121	221	321	NaN	521	0.0103992326185107	2	1	NaN	3185783.0920178	NaN	3185784.0753811	3185784.59196047
49	20	0	0	90	36.1581920903955	36.241610738255	6	0.200025815963745	2	9	3	NaN	2	4	0.0455522286888362	1	1	NaN	323	6	8	2	121	221	321	NaN	521	0.0105014811269939	1	0	NaN	3185785.4255681	NaN	3185786.408964	3185786.92549972
49	20	0	0	90	36.1581920903955	36.241610738255	9	0.300038723945618	2	8	1	NaN	2	4	0.0455522286888362	1	1	NaN	324	6	9	2	121	221	321	NaN	521	0.263254180550575	1	0	NaN	3185787.7591428	NaN	3185788.7425152	3185789.25907302
49	20	0	0	90	36.1581920903955	36.241610738255	25	0.833440899848938	2	1	6	NaN	1	5	0.0455522286888362	1	1	NaN	325	6	10	2	121	221	321	NaN	521	0.0103569938801229	1	1	NaN	3185790.3427157	NaN	3185791.3260938	3185791.84265741
49	20	0	0	90	36.1581920903955	36.241610738255	23	0.766765627861023	2	7	5	NaN	2	3	0.0455522286888362	1	1	NaN	326	6	11	2	121	221	321	NaN	521	0.0104154804721475	1	0	NaN	3185792.6761473	NaN	3185793.6596626	3185794.17621532
49	20	0	0	90	36.1581920903955	36.241610738255	9	0.300038723945618	2	10	3	NaN	2	5	0.0455522286888362	1	1	NaN	327	6	12	2	121	221	321	NaN	521	0.0104101807810366	2	1	NaN	3185795.0098339	NaN	3185795.9932429	3185796.50977452
49	20	0	0	90	36.1581920903955	36.241610738255	10	0.333376359939575	2	5	2	NaN	1	4	0.0455522286888362	1	1	NaN	328	6	13	2	121	221	321	NaN	521	0.0104313287883997	1	1	NaN	3185797.3432686	NaN	3185798.3267819	3185798.84333707
49	20	0	0	90	36.1581920903955	36.241610738255	20	0.66675271987915	2	9	4	NaN	2	5	0.0455522286888362	1	1	NaN	329	6	14	2	121	221	321	NaN	521	0.0104173803701997	2	1	NaN	3185799.6602848	NaN	3185800.6436933	3185801.16023152
49	20	0	0	90	36.1581920903955	36.241610738255	21	0.700090355873108	2	9	2	NaN	2	3	0.0455522286888362	1	1	NaN	330	6	15	2	121	221	321	NaN	521	0.746373480651528	1	0	NaN	3185802.0438694	NaN	3185803.0272812	3185803.54380672
49	20	0	0	90	36.1581920903955	36.241610738255	10	0.333376359939575	2	2	3	NaN	1	3	0.0455522286888362	1	1	NaN	331	6	16	2	121	221	321	NaN	521	0.231863532681018	2	0	NaN	3185805.1108853	NaN	3185806.0942164	3185806.61076357
49	20	0	0	90	36.1581920903955	36.241610738255	12	0.40005163192749	2	2	4	NaN	1	4	0.0455522286888362	1	1	NaN	332	6	17	2	121	221	321	NaN	521	0.017295328900218	1	1	NaN	3185807.6610753	NaN	3185808.6444831	3185809.16101167
49	20	0	0	90	36.1581920903955	36.241610738255	10	0.333376359939575	2	3	4	NaN	1	5	0.0455522286888362	1	1	NaN	333	6	18	2	121	221	321	NaN	521	2.29186423262581	1	1	NaN	3185809.9944986	NaN	3185810.9780615	3185811.49458067
49	20	0	0	90	36.1581920903955	36.241610738255	22	0.733427991867065	2	3	5	NaN	1	4	0.0455522286888362	1	1	NaN	334	6	19	2	121	221	321	NaN	521	0.010430580470711	1	1	NaN	3185814.6117575	NaN	3185815.5951704	3185816.11170402
49	20	0	0	90	36.1581920903955	36.241610738255	8	0.26670108795166	2	7	1	NaN	2	3	0.0455522286888362	1	1	NaN	335	6	20	2	121	221	321	NaN	521	0.0104616326279938	2	1	NaN	3185816.9286078	NaN	3185817.9120576	3185818.42859477
49	20	0	0	90	36.1581920903955	36.241610738255	25	0.833440899848938	2	2	3	NaN	1	4	0.0455522286888362	1	1	NaN	336	6	21	2	121	221	321	NaN	521	0.743705281056464	2	0	NaN	3185819.4789305	NaN	3185820.46234	3185820.97886152
49	20	0	0	90	36.1581920903955	36.241610738255	13	0.433389267921448	2	12	1	NaN	2	3	0.0455522286888362	1	1	NaN	337	6	22	2	121	221	321	NaN	521	0.010379184037447	1	0	NaN	3185822.5458834	NaN	3185823.5292417	3185824.04581772
49	20	0	0	90	36.1581920903955	36.241610738255	7	0.233363451957703	2	5	5	NaN	1	5	0.0455522286888362	1	1	NaN	338	6	23	2	121	221	321	NaN	521	0.149160081055015	1	1	NaN	3185824.9292893	NaN	3185825.912858	3185826.42938112
49	20	0	0	90	36.1581920903955	36.241610738255	8	0.26670108795166	2	8	5	NaN	2	3	0.0455522286888362	1	1	NaN	339	6	24	2	121	221	321	NaN	521	3.28190910024568	2	1	NaN	3185827.3963535	NaN	3185828.3797561	3185828.8962919
49	20	0	0	90	36.1581920903955	36.241610738255	18	0.600077447891235	2	11	5	NaN	2	4	0.0455522286888362	1	1	NaN	340	6	25	2	121	221	321	NaN	521	0.0104426769539714	1	0	NaN	3185832.9969074	NaN	3185833.9802867	3185834.49684512
49	20	0	0	90	36.1581920903955	36.241610738255	23	0.766765627861023	2	1	3	NaN	1	5	0.0455522286888362	1	1	NaN	341	6	26	2	121	221	321	NaN	521	0.0103952325880527	1	1	NaN	3185835.3304767	NaN	3185836.3138695	3185836.83040147
49	20	0	0	90	36.1581920903955	36.241610738255	15	0.500064539909363	2	9	2	NaN	2	5	0.0455522286888362	1	1	NaN	342	6	27	2	121	221	321	NaN	521	0.278700680471957	2	1	NaN	3185837.6640283	NaN	3185838.6474373	3185839.16396852
49	20	0	0	90	36.1581920903955	36.241610738255	14	0.466726903915405	2	10	5	NaN	2	5	0.0455522286888362	1	1	NaN	343	6	28	2	121	221	321	NaN	521	0.0779340323060751	1	0	NaN	3185840.2642816	NaN	3185841.2476864	3185841.76422237
49	20	0	0	90	36.1581920903955	36.241610738255	9	0.300038723945618	2	2	6	NaN	1	4	0.0455522286888362	1	1	NaN	344	6	29	2	121	221	321	NaN	521	0.0104555319994688	1	1	NaN	3185842.6645153	NaN	3185843.6479145	3185844.16445707
49	20	0	0	90	36.1581920903955	36.241610738255	6	0.200025815963745	2	11	4	NaN	2	5	0.0455522286888362	1	1	NaN	345	6	30	2	121	221	321	NaN	521	0.608207932207733	1	0	NaN	3185844.9980863	NaN	3185845.9814948	3185846.49802027
49	20	0	0	90	36.1581920903955	36.241610738255	6	0.200025815963745	2	6	6	NaN	1	4	0.0455522286888362	1	1	NaN	346	6	31	2	121	221	321	NaN	521	0.899027580861002	1	1	NaN	3185847.9317051	NaN	3185848.9150935	3185849.43163732
49	20	0	0	90	36.1581920903955	36.241610738255	14	0.466726903915405	2	5	3	NaN	1	5	0.0455522286888362	1	1	NaN	347	6	32	2	121	221	321	NaN	521	0.0104769808240235	1	1	NaN	3185851.1485644	NaN	3185852.1320912	3185852.64862722
49	20	0	0	90	36.1581920903955	36.241610738255	10	0.333376359939575	2	1	6	NaN	1	5	0.0455522286888362	1	1	NaN	348	6	33	2	121	221	321	NaN	521	0.010485780891031	1	1	NaN	3185853.4822461	NaN	3185854.4656689	3185854.98219092
49	20	0	0	90	36.1581920903955	36.241610738255	21	0.700090355873108	2	4	5	NaN	1	4	0.0455522286888362	1	1	NaN	349	6	34	2	121	221	321	NaN	521	0.0104101807810366	1	1	NaN	3185855.8158213	NaN	3185856.7991993	3185857.31574282
49	20	0	0	90	36.1581920903955	36.241610738255	19	0.633415083885193	2	8	1	NaN	2	4	0.0455522286888362	1	1	NaN	350	6	35	2	121	221	321	NaN	521	0.186018180567771	2	1	NaN	3185858.1327199	NaN	3185859.1161097	3185859.63264712
49	20	0	0	90	36.1581920903955	36.241610738255	10	0.333376359939575	2	4	5	NaN	1	5	0.0455522286888362	1	1	NaN	351	6	36	2	121	221	321	NaN	521	0.010413380805403	1	1	NaN	3185861.0161922	NaN	3185861.9997307	3185862.51625672
49	20	0	0	90	36.1581920903955	36.241610738255	9	0.300038723945618	2	3	2	NaN	1	4	0.0455522286888362	1	1	NaN	352	6	37	2	121	221	321	NaN	521	0.0103818839415908	1	1	NaN	3185863.3332177	NaN	3185864.3166027	3185864.83315772
49	20	0	0	90	36.1581920903955	36.241610738255	14	0.466726903915405	2	8	6	NaN	2	4	0.0455522286888362	1	1	NaN	353	6	38	2	121	221	321	NaN	521	0.0104760807007551	2	1	NaN	3185865.6501157	NaN	3185866.6335233	3185867.15005432
49	20	0	0	90	36.1581920903955	36.241610738255	21	0.700090355873108	2	6	4	NaN	1	4	0.0455522286888362	1	1	NaN	354	6	39	2	121	221	321	NaN	521	0.0104646324180067	1	1	NaN	3185867.98367	NaN	3185868.9670709	3185869.48361807
49	20	0	0	90	36.1581920903955	36.241610738255	9	0.300038723945618	2	12	6	NaN	2	4	0.0455522286888362	1	1	NaN	355	6	40	2	121	221	321	NaN	521	0.0104841804131866	1	0	NaN	3185870.317085	NaN	3185871.3006433	3185871.81717732
49	20	0	0	90	36.1581920903955	36.241610738255	10	0.333376359939575	2	10	4	NaN	2	4	0.0455522286888362	1	1	NaN	356	6	41	2	121	221	321	NaN	521	0.163883080706	1	0	NaN	3185872.6507765	NaN	3185873.6341721	3185874.15072952
49	20	0	0	90	36.1581920903955	36.241610738255	22	0.733427991867065	2	8	3	NaN	2	5	0.0455522286888362	1	1	NaN	357	6	42	2	121	221	321	NaN	521	0.0104101807810366	2	1	NaN	3185875.1343904	NaN	3185876.1177856	3185876.63430782
49	20	0	0	90	36.1581920903955	36.241610738255	25	0.833440899848938	2	7	1	NaN	2	3	0.0455522286888362	1	1	NaN	358	6	43	2	121	221	321	NaN	521	0.267190880607814	2	1	NaN	3185877.4512603	NaN	3185878.4346696	3185878.95120062
49	20	0	0	90	36.1581920903955	36.241610738255	16	0.53340217590332	2	3	6	NaN	1	4	0.0455522286888362	1	1	NaN	359	6	44	2	121	221	321	NaN	521	0.491883080918342	1	1	NaN	3185880.0348548	NaN	3185881.0182679	3185881.53478782
49	20	0	0	90	36.1581920903955	36.241610738255	7	0.233363451957703	2	4	3	NaN	1	5	0.0455522286888362	1	1	NaN	360	6	45	2	121	221	321	NaN	521	0.0105139771476388	1	1	NaN	3185882.8517969	NaN	3185883.8351862	3185884.35173222
49	20	0	0	90	36.1581920903955	36.241610738255	24	0.80010326385498	2	7	3	NaN	2	3	0.0455522286888362	1	1	NaN	361	6	46	2	121	221	321	NaN	521	0.0103989904746413	1	0	NaN	3185885.185213	NaN	3185886.1687641	3185886.68530171
49	20	0	0	90	36.1581920903955	36.241610738255	18	0.600077447891235	2	3	6	NaN	1	5	0.0455522286888362	1	1	NaN	362	6	47	2	121	221	321	NaN	521	0.0104751805774868	1	1	NaN	3185887.5189198	NaN	3185888.5023196	3185889.01886642
49	20	0	0	90	36.1581920903955	36.241610738255	20	0.66675271987915	2	10	5	NaN	2	5	0.0455522286888362	1	1	NaN	363	6	48	2	121	221	321	NaN	521	0.0104836290702224	1	0	NaN	3185889.8358244	NaN	3185890.8192151	3185891.33575687
49	20	0	0	90	36.1581920903955	36.241610738255	25	0.833440899848938	2	10	4	NaN	2	3	0.0455522286888362	1	1	NaN	364	6	49	2	121	221	321	NaN	521	0.0103978323750198	2	1	NaN	3185892.1860576	NaN	3185893.1694491	3185893.68598617
49	20	0	0	90	36.1581920903955	36.241610738255	11	0.366713995933533	2	4	6	NaN	1	5	0.0455522286888362	1	1	NaN	365	6	50	2	121	221	321	NaN	521	0.0104481289163232	1	1	NaN	3185894.5196191	NaN	3185895.503011	3185896.01954287
49	20	0	0	90	36.1581920903955	36.241610738255	16	0.53340217590332	2	8	1	NaN	2	3	0.0455522286888362	1	1	NaN	366	6	51	2	121	221	321	NaN	521	0.010465532541275	1	0	NaN	3185896.8530419	NaN	3185897.8365674	3185898.35311407
49	20	0	0	90	36.1581920903955	36.241610738255	24	0.80010326385498	2	11	6	NaN	2	3	0.0455522286888362	1	1	NaN	367	6	52	2	121	221	321	NaN	521	0.219504380598664	2	1	NaN	3185899.1867327	NaN	3185900.1701367	3185900.68667292
49	20	0	0	90	36.1581920903955	36.241610738255	17	0.566739811897278	2	12	5	NaN	2	3	0.0455522286888362	1	1	NaN	368	6	53	2	121	221	321	NaN	521	0.0104256868362427	1	0	NaN	3185901.7370254	NaN	3185902.7203825	3185903.23693201
49	20	0	0	90	36.1581920903955	36.241610738255	14	0.466726903915405	2	10	1	NaN	2	3	0.0455522286888362	1	1	NaN	369	6	54	2	121	221	321	NaN	521	0.0805179802700877	1	0	NaN	3185904.0537516	NaN	3185905.037271	3185905.55381402
49	20	0	0	90	36.1581920903955	36.241610738255	18	0.600077447891235	2	7	3	NaN	2	5	0.0455522286888362	1	1	NaN	370	6	55	2	121	221	321	NaN	521	0.992909280583262	2	1	NaN	3185906.4374301	NaN	3185907.4208619	3185907.93737752
49	20	0	0	90	36.1581920903955	36.241610738255	15	0.500064539909363	2	1	4	NaN	1	4	0.0455522286888362	1	1	NaN	371	6	56	2	121	221	321	NaN	521	0.444086080882698	1	1	NaN	3185909.7544383	NaN	3185910.7378219	3185911.25437122
49	20	0	0	90	36.1581920903955	36.241610738255	11	0.366713995933533	2	8	4	NaN	2	5	0.0455522286888362	1	1	NaN	372	6	57	2	121	221	321	NaN	521	0.0104805803857744	2	1	NaN	3185912.5212267	NaN	3185913.5047842	3185914.02132042
49	20	0	0	90	36.1581920903955	36.241610738255	16	0.53340217590332	2	5	3	NaN	1	4	0.0455522286888362	1	1	NaN	373	6	58	2	121	221	321	NaN	521	0.010413680691272	1	1	NaN	3185914.838293	NaN	3185915.8216603	3185916.33820802
49	20	0	0	90	36.1581920903955	36.241610738255	9	0.300038723945618	2	6	1	NaN	1	4	0.0455522286888362	1	1	NaN	374	6	59	2	121	221	321	NaN	521	0.0104600321501493	1	1	NaN	3185917.1551487	NaN	3185918.1385634	3185918.65510527
49	20	0	0	90	36.1581920903955	36.241610738255	18	0.600077447891235	2	9	1	NaN	2	4	0.0455522286888362	1	1	NaN	375	6	60	2	121	221	321	NaN	521	0.0104777808301151	1	0	NaN	3185919.4885937	NaN	3185920.4721405	3185920.98867222
49	20	0	0	90	36.1581920903955	36.241610738255	21	0.700090355873108	2	5	1	NaN	1	5	0.0455522286888362	1	1	NaN	376	6	61	2	121	221	321	NaN	521	0.0104776807129383	1	1	NaN	3185921.8056157	NaN	3185922.7890251	3185923.30556322
49	20	0	0	90	36.1581920903955	36.241610738255	25	0.833440899848938	2	1	3	NaN	1	4	0.0455522286888362	1	1	NaN	377	6	62	2	121	221	321	NaN	521	0.0104356803931296	1	1	NaN	3185924.1390264	NaN	3185925.1225575	3185925.63912152
49	20	0	0	90	36.1581920903955	36.241610738255	14	0.466726903915405	2	9	5	NaN	2	5	0.0455522286888362	1	1	NaN	378	6	63	2	121	221	321	NaN	521	0.010296493768692	2	1	NaN	3185926.4560165	NaN	3185927.4394702	3185927.95601711
49	20	0	0	90	36.1581920903955	36.241610738255	19	0.633415083885193	2	11	1	NaN	2	5	0.0455522286888362	1	1	NaN	379	7	1	2	121	221	321	NaN	521	0.0877402806654572	2	1	NaN	3185973.3106597	NaN	3185974.2939648	3185974.81061942
49	20	0	0	90	36.1581920903955	36.241610738255	17	0.566739811897278	2	1	6	NaN	1	4	0.0455522286888362	1	1	NaN	380	7	2	2	121	221	321	NaN	521	0.158889277372509	1	1	NaN	3185975.7275829	NaN	3185976.7109838	3185977.22751592
49	20	0	0	90	36.1581920903955	36.241610738255	17	0.566739811897278	2	5	3	NaN	1	5	0.0455522286888362	1	1	NaN	381	7	3	2	121	221	321	NaN	521	0.243363880552351	1	1	NaN	3185978.2109853	NaN	3185979.1945827	3185979.71109602
49	20	0	0	90	36.1581920903955	36.241610738255	12	0.40005163192749	2	6	2	NaN	1	5	0.0455522286888362	1	1	NaN	382	7	4	2	121	221	321	NaN	521	1.99753278074786	1	1	NaN	3185980.7614222	NaN	3185981.7448112	3185982.26134472
49	20	0	0	90	36.1581920903955	36.241610738255	20	0.66675271987915	2	6	3	NaN	1	5	0.0455522286888362	1	1	NaN	383	7	5	2	121	221	321	NaN	521	0.0104128806851804	1	1	NaN	3185985.0784921	NaN	3185986.0619008	3185986.57844592
49	20	0	0	90	36.1581920903955	36.241610738255	20	0.66675271987915	2	6	1	NaN	1	3	0.0455522286888362	1	1	NaN	384	7	6	2	121	221	321	NaN	521	0.154793829191476	1	1	NaN	3185987.4119816	NaN	3185988.3954335	3185988.91199497
49	20	0	0	90	36.1581920903955	36.241610738255	24	0.80010326385498	2	9	4	NaN	2	5	0.0455522286888362	1	1	NaN	385	7	7	2	121	221	321	NaN	521	0.0104113323614001	2	1	NaN	3185989.8789595	NaN	3185990.8623737	3185991.37890667
49	20	0	0	90	36.1581920903955	36.241610738255	13	0.433389267921448	2	4	6	NaN	1	5	0.0455522286888362	1	1	NaN	386	7	8	2	121	221	321	NaN	521	0.0104144806973636	1	1	NaN	3185992.2125368	NaN	3185993.1959392	3185993.71246762
49	20	0	0	90	36.1581920903955	36.241610738255	12	0.40005163192749	2	12	4	NaN	2	5	0.0455522286888362	1	1	NaN	387	7	9	2	121	221	321	NaN	521	0.0104626803658903	2	1	NaN	3185994.7294465	NaN	3185995.7128409	3185996.22938672
49	20	0	0	90	36.1581920903955	36.241610738255	16	0.53340217590332	2	3	4	NaN	1	3	0.0455522286888362	1	1	NaN	388	7	10	2	121	221	321	NaN	521	1.48789183236659	1	1	NaN	3185997.0628914	NaN	3185998.0464267	3185998.56295527
49	20	0	0	90	36.1581920903955	36.241610738255	0	0	1	11	4	NaN	2	3	0.0455522286888362	1	1	NaN	389	7	11	2	111	211	311	NaN	511	0.0104080806486309	2	1	NaN	3186000.8800548	NaN	3186001.8634412	3186002.37999372
49	20	0	0	90	36.1581920903955	36.241610738255	15	0.500064539909363	2	12	6	NaN	2	3	0.0455522286888362	1	1	NaN	390	7	12	2	121	221	321	NaN	521	0.0104735805653036	2	1	NaN	3186003.2136322	NaN	3186004.1970315	3186004.71355982
49	20	0	0	90	36.1581920903955	36.241610738255	8	0.26670108795166	2	10	6	NaN	2	5	0.0455522286888362	1	1	NaN	391	7	13	2	121	221	321	NaN	521	0.0114604290574789	2	1	NaN	3186005.5471809	NaN	3186006.5305685	3186007.04713437
49	20	0	0	90	36.1581920903955	36.241610738255	16	0.53340217590332	2	5	5	NaN	1	3	0.0455522286888362	1	1	NaN	392	7	14	2	121	221	321	NaN	521	0.0104192867875099	1	1	NaN	3186007.8640371	NaN	3186008.8474747	3186009.36401191
49	20	0	0	90	36.1581920903955	36.241610738255	8	0.26670108795166	2	5	1	NaN	1	3	0.0455522286888362	1	1	NaN	393	7	15	2	121	221	321	NaN	521	0.0247500455006957	1	1	NaN	3186010.1976529	NaN	3186011.1810217	3186011.69757505
49	20	0	0	90	36.1581920903955	36.241610738255	13	0.433389267921448	2	6	2	NaN	1	5	0.0455522286888362	1	1	NaN	394	7	16	2	121	221	321	NaN	521	0.0103850844316185	1	1	NaN	3186012.5478523	NaN	3186013.531266	3186014.04780602
49	20	0	0	90	36.1581920903955	36.241610738255	23	0.766765627861023	2	6	4	NaN	1	4	0.0455522286888362	1	1	NaN	395	7	17	2	121	221	321	NaN	521	0.925075880717486	1	1	NaN	3186014.8814291	NaN	3186015.8648525	3186016.38136892
49	20	0	0	90	36.1581920903955	36.241610738255	19	0.633415083885193	2	12	5	NaN	2	5	0.0455522286888362	1	1	NaN	396	7	18	2	121	221	321	NaN	521	0.24278638092801	2	1	NaN	3186018.1317508	NaN	3186019.1151328	3186019.63168962
49	20	0	0	90	36.1581920903955	36.241610738255	21	0.700090355873108	2	8	1	NaN	2	3	0.0455522286888362	1	1	NaN	397	7	19	2	121	221	321	NaN	521	0.0104164807125926	2	1	NaN	3186020.6819856	NaN	3186021.6653763	3186022.18193822
49	20	0	0	90	36.1581920903955	36.241610738255	18	0.600077447891235	2	4	4	NaN	1	3	0.0455522286888362	1	1	NaN	398	7	20	2	121	221	321	NaN	521	0.010438684374094	1	1	NaN	3186023.0155743	NaN	3186023.9989684	3186024.51550292
49	20	0	0	90	36.1581920903955	36.241610738255	15	0.500064539909363	2	5	5	NaN	1	4	0.0455522286888362	1	1	NaN	399	7	21	2	121	221	321	NaN	521	0.0974076907150447	1	1	NaN	3186025.3491166	NaN	3186026.3325311	3186026.84905861
49	20	0	0	90	36.1581920903955	36.241610738255	12	0.40005163192749	2	4	6	NaN	1	3	0.0455522286888362	1	1	NaN	400	7	22	2	121	221	321	NaN	521	0.0104465838521719	1	1	NaN	3186027.7659301	NaN	3186028.7494543	3186029.26597022
49	20	0	0	90	36.1581920903955	36.241610738255	25	0.833440899848938	2	4	5	NaN	1	3	0.0455522286888362	1	1	NaN	401	7	23	2	121	221	321	NaN	521	0.0102889933623374	1	1	NaN	3186030.099612	NaN	3186031.0829749	3186031.59952741
49	20	0	0	90	36.1581920903955	36.241610738255	12	0.40005163192749	2	8	6	NaN	2	4	0.0455522286888362	1	1	NaN	402	7	24	2	121	221	321	NaN	521	0.165825284086168	2	1	NaN	3186032.4331378	NaN	3186033.4165689	3186033.93308842
49	20	0	0	90	36.1581920903955	36.241610738255	25	0.833440899848938	2	3	3	NaN	1	4	0.0455522286888362	1	1	NaN	403	7	25	2	121	221	321	NaN	521	0.19399538077414	1	1	NaN	3186034.916649	NaN	3186035.9001179	3186036.41666512
49	20	0	0	90	36.1581920903955	36.241610738255	12	0.40005163192749	2	5	2	NaN	1	3	0.0455522286888362	1	1	NaN	404	7	26	2	121	221	321	NaN	521	1.78159532928839	1	1	NaN	3186037.4168223	NaN	3186038.400388	3186038.91690447
49	20	0	0	90	36.1581920903955	36.241610738255	0	0	1	10	6	NaN	2	5	0.0455522286888362	1	1	NaN	405	7	27	2	111	211	311	NaN	511	0.0572745804674923	2	1	NaN	3186041.5173605	NaN	3186042.5006889	3186043.01733372
49	20	0	0	90	36.1581920903955	36.241610738255	23	0.766765627861023	2	12	4	NaN	2	3	0.0455522286888362	1	1	NaN	406	7	28	2	121	221	321	NaN	521	0.0103368456475437	1	0	NaN	3186043.90097	NaN	3186044.8843479	3186045.40088505
49	20	0	0	90	36.1581920903955	36.241610738255	17	0.566739811897278	2	12	1	NaN	2	3	0.0455522286888362	1	1	NaN	407	7	29	2	121	221	321	NaN	521	0.268418335355818	1	0	NaN	3186046.2344913	NaN	3186047.2179098	3186047.73444316
49	20	0	0	90	36.1581920903955	36.241610738255	8	0.26670108795166	2	7	3	NaN	2	4	0.0455522286888362	1	1	NaN	408	7	30	2	121	221	321	NaN	521	0.596851377282292	2	1	NaN	3186048.8179614	NaN	3186049.8015023	3186050.31802672
49	20	0	0	90	36.1581920903955	36.241610738255	17	0.566739811897278	2	4	4	NaN	1	5	0.0455522286888362	1	1	NaN	409	7	31	2	121	221	321	NaN	521	0.279896177351475	1	1	NaN	3186051.734935	NaN	3186052.7184977	3186053.23498742
49	20	0	0	90	36.1581920903955	36.241610738255	14	0.466726903915405	2	9	3	NaN	2	4	0.0455522286888362	1	1	NaN	410	7	32	2	121	221	321	NaN	521	0.010393132455647	1	0	NaN	3186054.3353044	NaN	3186055.318705	3186055.83524497
49	20	0	0	90	36.1581920903955	36.241610738255	8	0.26670108795166	2	9	3	NaN	2	4	0.0455522286888362	1	1	NaN	411	7	33	2	121	221	321	NaN	521	0.663040580693632	1	0	NaN	3186056.9355484	NaN	3186057.9189648	3186058.43549902
49	20	0	0	90	36.1581920903955	36.241610738255	20	0.66675271987915	2	1	3	NaN	1	3	0.0455522286888362	1	1	NaN	412	7	34	2	121	221	321	NaN	521	0.423601580318063	1	1	NaN	3186059.9191801	NaN	3186060.9025993	3186061.41911662
49	20	0	0	90	36.1581920903955	36.241610738255	16	0.53340217590332	2	6	5	NaN	1	3	0.0455522286888362	1	1	NaN	413	7	35	2	121	221	321	NaN	521	0.0104826772585511	1	1	NaN	3186062.8527784	NaN	3186063.8362036	3186064.35273322
49	20	0	0	90	36.1581920903955	36.241610738255	22	0.733427991867065	2	10	2	NaN	2	3	0.0455522286888362	1	1	NaN	414	7	36	2	121	221	321	NaN	521	1.54077152907848	2	1	NaN	3186065.1696836	NaN	3186066.1530478	3186066.66963147
49	20	0	0	90	36.1581920903955	36.241610738255	23	0.766765627861023	2	9	2	NaN	2	4	0.0455522286888362	1	1	NaN	415	7	37	2	121	221	321	NaN	521	0.010471526067704	2	1	NaN	3186069.0367696	NaN	3186070.020157	3186070.53668527
49	20	0	0	90	36.1581920903955	36.241610738255	20	0.66675271987915	2	7	6	NaN	2	3	0.0455522286888362	1	1	NaN	416	7	38	2	121	221	321	NaN	521	0.0103661357425153	2	1	NaN	3186071.3536499	NaN	3186072.3370401	3186072.85357256
49	20	0	0	90	36.1581920903955	36.241610738255	16	0.53340217590332	2	1	2	NaN	1	3	0.0455522286888362	1	1	NaN	417	7	39	2	121	221	321	NaN	521	0.319275780580938	2	0	NaN	3186073.6872083	NaN	3186074.6705896	3186075.18714012
49	20	0	0	90	36.1581920903955	36.241610738255	6	0.200025815963745	2	8	6	NaN	2	5	0.0455522286888362	1	1	NaN	418	7	40	2	121	221	321	NaN	521	0.0104435291141272	2	1	NaN	3186076.3374726	NaN	3186077.3208842	3186077.83740107
49	20	0	0	90	36.1581920903955	36.241610738255	17	0.566739811897278	2	10	2	NaN	2	3	0.0455522286888362	1	1	NaN	419	7	41	2	121	221	321	NaN	521	0.0104277287609875	2	1	NaN	3186078.6710406	NaN	3186079.654451	3186080.17095697
49	20	0	0	90	36.1581920903955	36.241610738255	6	0.200025815963745	2	3	3	NaN	1	3	0.0455522286888362	1	1	NaN	420	7	42	2	121	221	321	NaN	521	0.010336990468204	1	1	NaN	3186081.0045857	NaN	3186081.9879749	3186082.50452201
49	20	0	0	90	36.1581920903955	36.241610738255	22	0.733427991867065	2	2	5	NaN	1	5	0.0455522286888362	1	1	NaN	421	7	43	2	121	221	321	NaN	521	0.0104404287412763	1	1	NaN	3186083.338133	NaN	3186084.32154	3186084.83808497
49	20	0	0	90	36.1581920903955	36.241610738255	7	0.233363451957703	2	10	5	NaN	2	3	0.0455522286888362	1	1	NaN	422	7	44	2	121	221	321	NaN	521	0.0104453326202929	2	1	NaN	3186085.6550517	NaN	3186086.6384428	3186087.15498117
49	20	0	0	90	36.1581920903955	36.241610738255	13	0.433389267921448	2	10	3	NaN	2	4	0.0455522286888362	1	1	NaN	423	7	45	2	121	221	321	NaN	521	0.0105426744557917	2	1	NaN	3186088.4386352	NaN	3186089.4220264	3186089.93858053
49	20	0	0	90	36.1581920903955	36.241610738255	7	0.233363451957703	2	9	5	NaN	2	5	0.0455522286888362	1	1	NaN	424	7	46	2	121	221	321	NaN	521	0.010389790404588	2	1	NaN	3186090.7722147	NaN	3186091.7555717	3186092.27214791
49	20	0	0	90	36.1581920903955	36.241610738255	10	0.333376359939575	2	12	5	NaN	2	3	0.0455522286888362	1	1	NaN	425	7	47	2	121	221	321	NaN	521	0.0104301292449236	2	1	NaN	3186093.1057065	NaN	3186094.0891753	3186094.60570477
49	20	0	0	90	36.1581920903955	36.241610738255	15	0.500064539909363	2	5	2	NaN	1	4	0.0455522286888362	1	1	NaN	426	7	48	2	121	221	321	NaN	521	0.0104114809073508	1	1	NaN	3186095.4393366	NaN	3186096.422723	3186096.93927892
49	20	0	0	90	36.1581920903955	36.241610738255	21	0.700090355873108	2	8	2	NaN	2	5	0.0455522286888362	1	1	NaN	427	7	49	2	121	221	321	NaN	521	0.0104082804173231	1	0	NaN	3186097.7562174	NaN	3186098.7396612	3186099.25617002
49	20	0	0	90	36.1581920903955	36.241610738255	6	0.200025815963745	2	11	5	NaN	2	3	0.0455522286888362	1	1	NaN	428	7	50	2	121	221	321	NaN	521	0.0104198805056512	2	1	NaN	3186100.0897764	NaN	3186101.0731927	3186101.58973292
49	20	0	0	90	36.1581920903955	36.241610738255	9	0.300038723945618	2	5	4	NaN	1	4	0.0455522286888362	1	1	NaN	429	7	51	2	121	221	321	NaN	521	0.0104894805699587	1	1	NaN	3186102.4234648	NaN	3186103.4067553	3186103.92330002
49	20	0	0	90	36.1581920903955	36.241610738255	15	0.500064539909363	2	4	3	NaN	1	4	0.0455522286888362	1	1	NaN	430	7	52	2	121	221	321	NaN	521	0.330764729063958	2	0	NaN	3186104.7402399	NaN	3186105.7236418	3186106.24018707
49	20	0	0	90	36.1581920903955	36.241610738255	14	0.466726903915405	2	5	5	NaN	1	3	0.0455522286888362	1	1	NaN	431	7	53	2	121	221	321	NaN	521	0.272404132410884	1	1	NaN	3186107.3905163	NaN	3186108.3739117	3186108.89044397
49	20	0	0	90	36.1581920903955	36.241610738255	20	0.66675271987915	2	8	2	NaN	2	3	0.0455522286888362	1	1	NaN	432	7	54	2	121	221	321	NaN	521	0.0104298288933933	1	0	NaN	3186109.9740857	NaN	3186110.9574867	3186111.47402887
49	20	0	0	90	36.1581920903955	36.241610738255	24	0.80010326385498	2	10	2	NaN	2	5	0.0455522286888362	1	1	NaN	433	7	55	2	121	221	321	NaN	521	0.0103961322456598	2	1	NaN	3186112.3075992	NaN	3186113.2910845	3186113.80759597
49	20	0	0	90	36.1581920903955	36.241610738255	18	0.600077447891235	2	8	3	NaN	2	3	0.0455522286888362	1	1	NaN	434	7	56	2	121	221	321	NaN	521	0.0104118809103966	2	1	NaN	3186114.6412261	NaN	3186115.6246117	3186116.14115572
49	20	0	0	90	36.1581920903955	36.241610738255	13	0.433389267921448	2	2	6	NaN	1	5	0.0455522286888362	1	1	NaN	435	7	57	2	121	221	321	NaN	521	0.0102937938645482	2	0	NaN	3186116.9581226	NaN	3186117.9415235	3186118.45805891
49	20	0	0	90	36.1581920903955	36.241610738255	18	0.600077447891235	2	12	6	NaN	2	4	0.0455522286888362	1	1	NaN	436	7	58	2	121	221	321	NaN	521	0.0103966323658824	2	1	NaN	3186119.2916811	NaN	3186120.2750834	3186120.79162207
49	20	0	0	90	36.1581920903955	36.241610738255	6	0.200025815963745	2	4	2	NaN	1	3	0.0455522286888362	1	1	NaN	437	7	59	2	121	221	321	NaN	521	0.0105148772709072	1	1	NaN	3186121.6252435	NaN	3186122.6086385	3186123.12517762
49	20	0	0	90	36.1581920903955	36.241610738255	7	0.233363451957703	2	12	3	NaN	2	3	0.0455522286888362	1	1	NaN	438	7	60	2	121	221	321	NaN	521	0.0105048292316496	2	1	NaN	3186123.9586924	NaN	3186124.942215	3186125.45873717
49	20	0	0	90	36.1581920903955	36.241610738255	12	0.40005163192749	2	3	1	NaN	1	4	0.0455522286888362	1	1	NaN	439	7	61	2	121	221	321	NaN	521	0.0105182291008532	1	1	NaN	3186126.2923535	NaN	3186127.2757924	3186127.79230037
49	20	0	0	90	36.1581920903955	36.241610738255	24	0.80010326385498	2	9	4	NaN	2	4	0.0455522286888362	1	1	NaN	440	7	62	2	121	221	321	NaN	521	0.0103678358718753	2	1	NaN	3186128.625934	NaN	3186129.6093359	3186130.12586516
49	20	0	0	90	36.1581920903955	36.241610738255	13	0.433389267921448	2	4	4	NaN	1	5	0.0455522286888362	1	1	NaN	441	7	63	2	121	221	321	NaN	521	0.0104074808768928	1	1	NaN	3186130.9595052	NaN	3186131.9429144	3186132.45942912
49	20	0	0	90	36.1581920903955	36.241610738255	6	0.200025815963745	2	1	1	NaN	1	3	0.0455522286888362	1	1	NaN	442	8	1	2	121	221	321	NaN	521	0.0104714808985591	1	1	NaN	3186141.2438243	NaN	3186142.2272369	3186142.74377452
49	20	0	0	90	36.1581920903955	36.241610738255	16	0.53340217590332	2	9	3	NaN	2	4	0.0455522286888362	1	1	NaN	443	8	2	2	121	221	321	NaN	521	0.0104866228066385	2	1	NaN	3186143.5773948	NaN	3186144.5607637	3186145.07733458
49	20	0	0	90	36.1581920903955	36.241610738255	16	0.53340217590332	2	11	3	NaN	2	4	0.0455522286888362	1	1	NaN	444	8	3	2	121	221	321	NaN	521	1.39158588089049	2	1	NaN	3186145.9108447	NaN	3186146.8943595	3186147.41089602
49	20	0	0	90	36.1581920903955	36.241610738255	7	0.233363451957703	2	3	1	NaN	1	3	0.0455522286888362	1	1	NaN	445	8	4	2	121	221	321	NaN	521	0.0104101807810366	1	1	NaN	3186149.6279971	NaN	3186150.6113959	3186151.12792352
49	20	0	0	90	36.1581920903955	36.241610738255	10	0.333376359939575	2	8	5	NaN	2	5	0.0455522286888362	1	1	NaN	446	8	5	2	121	221	321	NaN	521	0.0103939324617386	2	1	NaN	3186151.9448713	NaN	3186152.9282943	3186153.44482147
49	20	0	0	90	36.1581920903955	36.241610738255	0	0	1	12	2	NaN	2	3	0.0455522286888362	1	1	NaN	447	8	6	2	111	211	311	NaN	511	0.0103373453021049	2	1	NaN	3186154.261775	NaN	3186155.2451967	3186155.76172875
49	20	0	0	90	36.1581920903955	36.241610738255	11	0.366713995933533	2	10	4	NaN	2	4	0.0455522286888362	1	1	NaN	448	8	7	2	121	221	321	NaN	521	0.0104158804751933	2	1	NaN	3186156.6119859	NaN	3186157.5954046	3186158.11194482
49	20	0	0	90	36.1581920903955	36.241610738255	11	0.366713995933533	2	2	1	NaN	1	3	0.0455522286888362	1	1	NaN	449	8	8	2	121	221	321	NaN	521	0.0104129808023572	1	1	NaN	3186158.9289108	NaN	3186159.9123127	3186160.42884252
49	20	0	0	90	36.1581920903955	36.241610738255	9	0.300038723945618	2	11	5	NaN	2	3	0.0455522286888362	1	1	NaN	450	8	9	2	121	221	321	NaN	521	0.0104160807095468	1	0	NaN	3186161.2623785	NaN	3186162.2458438	3186162.76240402
49	20	0	0	90	36.1581920903955	36.241610738255	20	0.66675271987915	2	3	6	NaN	1	4	0.0455522286888362	1	1	NaN	451	8	10	2	121	221	321	NaN	521	0.010472780559212	2	0	NaN	3186163.5793646	NaN	3186164.5627464	3186165.07930362
49	20	0	0	90	36.1581920903955	36.241610738255	8	0.26670108795166	2	4	4	NaN	1	4	0.0455522286888362	1	1	NaN	452	8	11	2	121	221	321	NaN	521	0.789706335868686	1	1	NaN	3186165.9129471	NaN	3186166.8963224	3186167.41285956
49	20	0	0	90	36.1581920903955	36.241610738255	22	0.733427991867065	2	6	2	NaN	1	4	0.0455522286888362	1	1	NaN	453	8	12	2	121	221	321	NaN	521	0.0816092290915549	1	1	NaN	3186169.0130885	NaN	3186169.9966372	3186170.51317527
49	20	0	0	90	36.1581920903955	36.241610738255	10	0.333376359939575	2	9	6	NaN	2	3	0.0455522286888362	1	1	NaN	454	8	13	2	121	221	321	NaN	521	0.0104783321730793	1	0	NaN	3186171.5300557	NaN	3186172.5135329	3186173.03007547
49	20	0	0	90	36.1581920903955	36.241610738255	14	0.466726903915405	2	12	1	NaN	2	3	0.0455522286888362	1	1	NaN	455	8	14	2	121	221	321	NaN	521	0.0104121803306043	1	0	NaN	3186173.8636977	NaN	3186174.847091	3186175.36364422
49	20	0	0	90	36.1581920903955	36.241610738255	20	0.66675271987915	2	11	2	NaN	2	5	0.0455522286888362	1	1	NaN	456	8	15	2	121	221	321	NaN	521	10.9613666804507	2	1	NaN	3186176.1972677	NaN	3186177.1806641	3186177.69720922
49	20	0	0	90	36.1581920903955	36.241610738255	8	0.26670108795166	2	8	4	NaN	2	3	0.0455522286888362	1	1	NaN	457	8	16	2	121	221	321	NaN	521	0.388943880796432	2	1	NaN	3186189.4818946	NaN	3186190.4652864	3186190.98183842
