subjno	age	gender	isPractice	viewdist	CmToPixX	CmToPixY	SOA_frm	SOA_time	targNum	targID	targExample	targRace	targGender	firstTargPos	contrast	familiarity	curr_staircase	iStair	TrialNum	BlockNum	blktrl	sessionNum	TC_FIXATION	TC_RSVP_START	TC_RSVP_END	TC_BLANK	TC_RESPONSE_ONSET	RT2afc	resp_2afc	acc	RSVPOnsetVBL	RSVPOnsetTime	RSVPOffsetVBL	RSVPOffsetTime	startrt_2afc
98	20	1	0	90	36.1581920903955	36.241610738255	15	0.500052419956774	2	5	5	NaN	1	3	0.0710744722734826	0	1	NaN	1	1	1	2	120	220	320	NaN	520	4.35011018067598	1	1	NaN	3615579.8621776	NaN	3615580.8454939	3615581.37858532
98	20	1	0	90	36.1581920903955	36.241610738255	22	0.733410215936601	2	10	2	NaN	2	5	0.0710744722734826	0	1	NaN	2	1	2	2	120	220	320	NaN	520	0.994416128378361	1	0	NaN	3615586.7461815	NaN	3615587.7294548	3615588.26258857
98	20	1	0	90	36.1581920903955	36.241610738255	6	0.200020967982709	2	11	4	NaN	2	4	0.0710744722734826	0	1	NaN	3	1	3	2	120	220	320	NaN	520	0.188919896259904	2	1	NaN	3615590.079625	NaN	3615591.0630295	3615591.5795987
98	20	1	0	90	36.1581920903955	36.241610738255	10	0.333368279971182	2	2	3	NaN	1	3	0.0710744722734826	0	1	NaN	4	1	4	2	120	220	320	NaN	520	0.264246543869376	2	0	NaN	3615592.5964303	NaN	3615593.579956	3615594.09649776
98	20	1	0	90	36.1581920903955	36.241610738255	23	0.766747043933719	2	1	6	NaN	1	5	0.0710744722734826	0	1	NaN	5	1	5	2	120	220	320	NaN	520	0.208507340401411	2	0	NaN	3615595.180168	NaN	3615596.1635313	3615596.68009266
98	20	1	0	90	36.1581920903955	36.241610738255	11	0.366705107968301	2	1	5	NaN	1	3	0.0710744722734826	0	1	NaN	6	1	6	2	120	220	320	NaN	520	0.202823775820434	1	1	NaN	3615597.7137107	NaN	3615598.6971352	3615599.21366312
98	20	1	0	90	36.1581920903955	36.241610738255	21	0.700073387939483	2	6	5	NaN	1	5	0.0710744722734826	0	1	NaN	7	1	7	2	120	220	320	NaN	520	0.399733024183661	1	1	NaN	3615600.3973157	NaN	3615601.3807197	3615601.89725568
98	20	1	0	90	36.1581920903955	36.241610738255	14	0.466715591959655	2	9	6	NaN	2	3	0.0710744722734826	0	1	NaN	8	1	8	2	120	220	320	NaN	520	0.159139927942306	2	1	NaN	3615603.3976383	NaN	3615604.3810188	3615604.89755997
98	20	1	0	90	36.1581920903955	36.241610738255	24	0.800083871930838	2	5	2	NaN	1	4	0.0710744722734826	0	1	NaN	9	1	9	2	120	220	320	NaN	520	1.09143962804228	1	1	NaN	3615605.8810693	NaN	3615606.8645911	3615607.38113297
98	20	1	0	90	36.1581920903955	36.241610738255	9	0.300031451974064	2	11	1	NaN	2	4	0.0710744722734826	0	1	NaN	10	1	10	2	120	220	320	NaN	520	0.202512343879789	2	1	NaN	3615609.2981759	NaN	3615610.2815923	3615610.79814086
98	20	1	0	90	36.1581920903955	36.241610738255	11	0.366705107968301	2	9	2	NaN	2	3	0.0710744722734826	0	1	NaN	11	1	11	2	120	220	320	NaN	520	2.05393907567486	2	1	NaN	3615611.8151062	NaN	3615612.7985152	3615613.31505322
98	20	1	0	90	36.1581920903955	36.241610738255	17	0.56672607595101	2	3	4	NaN	1	5	0.0710744722734826	0	1	NaN	12	1	12	2	120	220	320	NaN	520	2.44726377585903	1	1	NaN	3615617.9657291	NaN	3615618.9491284	3615619.46565422
98	20	1	0	90	36.1581920903955	36.241610738255	8	0.266694623976946	2	5	1	NaN	1	5	0.0710744722734826	0	1	NaN	13	1	13	2	120	220	320	NaN	520	0.401144076138735	1	1	NaN	3615624.29953	NaN	3615625.2830669	3615625.79960292
98	20	1	0	90	36.1581920903955	36.241610738255	12	0.400041935965419	2	7	3	NaN	2	4	0.0710744722734826	0	1	NaN	14	1	14	2	120	220	320	NaN	520	1.92908092448488	1	0	NaN	3615627.2999277	NaN	3615628.2833634	3615628.79989278
98	20	1	0	90	36.1581920903955	36.241610738255	25	0.833420699927956	2	10	5	NaN	2	3	0.0710744722734826	0	1	NaN	15	1	15	2	120	220	320	NaN	520	0.32660033646971	1	0	NaN	3615631.5503614	NaN	3615632.5337701	3615633.05032236
98	20	1	0	90	36.1581920903955	36.241610738255	0	0	1	7	1	NaN	2	5	0.0710744722734826	0	1	NaN	16	1	16	2	110	210	310	NaN	510	0.652146375738084	2	1	NaN	3615634.2006384	NaN	3615635.1840314	3615635.70058032
98	20	1	0	90	36.1581920903955	36.241610738255	9	0.300031451974064	2	11	1	NaN	2	5	0.0710744722734826	0	1	NaN	17	1	17	2	120	220	320	NaN	520	0.796819027978927	2	1	NaN	3615637.1842114	NaN	3615638.1676491	3615638.68420507
98	20	1	0	90	36.1581920903955	36.241610738255	25	0.833420699927956	2	12	5	NaN	2	4	0.0710744722734826	0	1	NaN	18	1	18	2	120	220	320	NaN	520	0.56788377603516	2	1	NaN	3615640.3012583	NaN	3615641.2846155	3615641.80118152
98	20	1	0	90	36.1581920903955	36.241610738255	13	0.433378763962537	2	9	1	NaN	2	4	0.0710744722734826	0	1	NaN	19	1	19	2	120	220	320	NaN	520	0.187751127872616	2	1	NaN	3615643.1848282	NaN	3615644.1682796	3615644.68478967
98	20	1	0	90	36.1581920903955	36.241610738255	25	0.833420699927956	2	6	4	NaN	1	4	0.0710744722734826	0	1	NaN	20	1	20	2	120	220	320	NaN	520	0.703553875908256	1	1	NaN	3615645.6849616	NaN	3615646.6684719	3615647.18503152
98	20	1	0	90	36.1581920903955	36.241610738255	19	0.633399731945246	2	11	5	NaN	2	4	0.0710744722734826	0	1	NaN	21	1	21	2	120	220	320	NaN	520	0.454667528159916	1	0	NaN	3615648.7019311	NaN	3615649.6854562	3615650.20200027
98	20	1	0	90	36.1581920903955	36.241610738255	14	0.466715591959655	2	11	1	NaN	2	5	0.0710744722734826	0	1	NaN	22	1	22	2	120	220	320	NaN	520	0.183587824460119	2	1	NaN	3615651.468869	NaN	3615652.4523874	3615652.96892658
98	20	1	0	90	36.1581920903955	36.241610738255	6	0.200020967982709	2	10	4	NaN	2	5	0.0710744722734826	0	1	NaN	23	1	23	2	120	220	320	NaN	520	0.561549327801913	2	1	NaN	3615654.0192053	NaN	3615655.0026366	3615655.51918527
98	20	1	0	90	36.1581920903955	36.241610738255	16	0.533389247953892	2	7	4	NaN	2	5	0.0710744722734826	0	1	NaN	24	1	24	2	120	220	320	NaN	520	0.565932476427406	2	1	NaN	3615656.90288	NaN	3615657.8862552	3615658.40279862
98	20	1	0	90	36.1581920903955	36.241610738255	20	0.666736559942365	2	8	5	NaN	2	4	0.0710744722734826	0	1	NaN	25	1	25	2	120	220	320	NaN	520	0.330205875914544	2	1	NaN	3615659.7864734	NaN	3615660.7698502	3615661.28641732
98	20	1	0	90	36.1581920903955	36.241610738255	13	0.433378763962537	2	7	4	NaN	2	3	0.0710744722734826	0	1	NaN	26	1	26	2	120	220	320	NaN	520	0.183843528386205	2	1	NaN	3615662.4368251	NaN	3615663.4201297	3615663.93668187
98	20	1	0	90	36.1581920903955	36.241610738255	19	0.633399731945246	2	2	1	NaN	1	3	0.0710744722734826	0	1	NaN	27	1	27	2	120	220	320	NaN	520	0.292138276156038	2	0	NaN	3615664.9369619	NaN	3615665.9203701	3615666.43691562
98	20	1	0	90	36.1581920903955	36.241610738255	11	0.366705107968301	2	2	1	NaN	1	5	0.0710744722734826	0	1	NaN	28	1	28	2	120	220	320	NaN	520	0.274613075889647	2	0	NaN	3615667.5539192	NaN	3615668.5372906	3615669.05383862
98	20	1	0	90	36.1581920903955	36.241610738255	7	0.233357795979828	2	8	2	NaN	2	4	0.0710744722734826	0	1	NaN	29	1	29	2	120	220	320	NaN	520	0.250531124416739	2	1	NaN	3615670.1540233	NaN	3615671.137548	3615671.65408928
98	20	1	0	90	36.1581920903955	36.241610738255	18	0.600062903948128	2	4	3	NaN	1	3	0.0710744722734826	0	1	NaN	30	1	30	2	120	220	320	NaN	520	0.211622375994921	1	1	NaN	3615672.7209421	NaN	3615673.7044713	3615674.22101992
98	20	1	0	90	36.1581920903955	36.241610738255	21	0.700073387939483	2	10	2	NaN	2	3	0.0710744722734826	0	1	NaN	31	1	31	2	120	220	320	NaN	520	0.342015675734729	1	0	NaN	3615675.2545231	NaN	3615676.2380344	3615676.75459382
98	20	1	0	90	36.1581920903955	36.241610738255	9	0.300031451974064	2	6	4	NaN	1	3	0.0710744722734826	0	1	NaN	32	1	32	2	120	220	320	NaN	520	0.163009876385331	1	1	NaN	3615677.9215562	NaN	3615678.9049865	3615679.42152062
98	20	1	0	90	36.1581920903955	36.241610738255	22	0.733410215936601	2	1	5	NaN	1	3	0.0710744722734826	0	1	NaN	33	1	33	2	120	220	320	NaN	520	0.375551876146346	1	1	NaN	3615680.4050231	NaN	3615681.3885687	3615681.90510282
98	20	1	0	90	36.1581920903955	36.241610738255	11	0.366705107968301	2	9	5	NaN	2	4	0.0710744722734826	0	1	NaN	34	1	34	2	120	220	320	NaN	520	0.29985417611897	1	0	NaN	3615683.0887386	NaN	3615684.0721482	3615684.58869122
98	20	1	0	90	36.1581920903955	36.241610738255	10	0.333368279971182	2	4	5	NaN	1	3	0.0710744722734826	0	1	NaN	35	1	35	2	120	220	320	NaN	520	0.267481076065451	1	1	NaN	3615685.7056825	NaN	3615686.6890794	3615687.20562012
98	20	1	0	90	36.1581920903955	36.241610738255	20	0.666736559942365	2	3	2	NaN	1	4	0.0710744722734826	0	1	NaN	36	1	36	2	120	220	320	NaN	520	0.475911975838244	1	1	NaN	3615688.2891332	NaN	3615689.2726994	3615689.78921292
98	20	1	0	90	36.1581920903955	36.241610738255	19	0.633399731945246	2	1	1	NaN	1	3	0.0710744722734826	0	1	NaN	37	1	37	2	120	220	320	NaN	520	0.275339928455651	1	1	NaN	3615691.0894282	NaN	3615692.0729424	3615692.58948747
98	20	1	0	90	36.1581920903955	36.241610738255	23	0.766747043933719	2	11	2	NaN	2	3	0.0710744722734826	0	1	NaN	38	1	38	2	120	220	320	NaN	520	0.37154867593199	1	0	NaN	3615693.6731209	NaN	3615694.6565383	3615695.17306742
98	20	1	0	90	36.1581920903955	36.241610738255	8	0.266694623976946	2	10	2	NaN	2	3	0.0710744722734826	0	1	NaN	39	1	39	2	120	220	320	NaN	520	0.168163275811821	2	1	NaN	3615696.3565929	NaN	3615697.3401141	3615697.85666892
98	20	1	0	90	36.1581920903955	36.241610738255	17	0.56672607595101	2	2	1	NaN	1	4	0.0710744722734826	0	1	NaN	40	1	40	2	120	220	320	NaN	520	0.332848976366222	1	1	NaN	3615698.8403327	NaN	3615699.8237188	3615700.34024852
98	20	1	0	90	36.1581920903955	36.241610738255	16	0.533389247953892	2	4	1	NaN	1	3	0.0710744722734826	0	1	NaN	41	1	41	2	120	220	320	NaN	520	0.24224572815001	1	1	NaN	3615701.4904283	NaN	3615702.4739672	3615702.99049577
98	20	1	0	90	36.1581920903955	36.241610738255	19	0.633399731945246	2	8	1	NaN	2	3	0.0710744722734826	0	1	NaN	42	1	42	2	120	220	320	NaN	520	0.348536291625351	1	0	NaN	3615704.0408264	NaN	3615705.0242322	3615705.54075421
98	20	1	0	90	36.1581920903955	36.241610738255	24	0.800083871930838	2	8	3	NaN	2	3	0.0710744722734826	0	1	NaN	43	1	43	2	120	220	320	NaN	520	0.260711924172938	2	1	NaN	3615707.0244037	NaN	3615708.0078252	3615708.52437538
98	20	1	0	90	36.1581920903955	36.241610738255	25	0.833420699927956	2	7	2	NaN	2	4	0.0710744722734826	0	1	NaN	44	1	44	2	120	220	320	NaN	520	0.373370476067066	2	1	NaN	3615709.5913455	NaN	3615710.5747352	3615711.09129002
98	20	1	0	90	36.1581920903955	36.241610738255	13	0.433378763962537	2	2	6	NaN	1	5	0.0710744722734826	0	1	NaN	45	1	45	2	120	220	320	NaN	520	0.289846676401794	1	1	NaN	3615712.2749134	NaN	3615713.2583396	3615713.77489162
98	20	1	0	90	36.1581920903955	36.241610738255	10	0.333368279971182	2	1	2	NaN	1	3	0.0710744722734826	0	1	NaN	46	1	46	2	120	220	320	NaN	520	0.37801157636568	1	1	NaN	3615714.8750722	NaN	3615715.8586217	3615716.37514032
98	20	1	0	90	36.1581920903955	36.241610738255	18	0.600062903948128	2	11	3	NaN	2	3	0.0710744722734826	0	1	NaN	47	1	47	2	120	220	320	NaN	520	0.246015575714409	2	1	NaN	3615717.5586716	NaN	3615718.5422032	3615719.05873572
98	20	1	0	90	36.1581920903955	36.241610738255	13	0.433378763962537	2	10	3	NaN	2	4	0.0710744722734826	0	1	NaN	48	1	48	2	120	220	320	NaN	520	0.127082095947117	2	1	NaN	3615720.1257286	NaN	3615721.109121	3615721.6256733
98	20	1	0	90	36.1581920903955	36.241610738255	20	0.666736559942365	2	8	3	NaN	2	3	0.0710744722734826	0	1	NaN	49	1	49	2	120	220	320	NaN	520	0.240192275959998	1	0	NaN	3615722.6925044	NaN	3615723.6760335	3615724.19258102
98	20	1	0	90	36.1581920903955	36.241610738255	20	0.666736559942365	2	12	6	NaN	2	5	0.0710744722734826	0	1	NaN	50	1	50	2	120	220	320	NaN	520	0.378023424185812	2	1	NaN	3615725.2428683	NaN	3615726.2263293	3615726.74282918
98	20	1	0	90	36.1581920903955	36.241610738255	22	0.733410215936601	2	3	2	NaN	1	3	0.0710744722734826	0	1	NaN	51	1	51	2	120	220	320	NaN	520	0.349576375912875	1	1	NaN	3615727.9431027	NaN	3615728.9265592	3615729.44308972
98	20	1	0	90	36.1581920903955	36.241610738255	11	0.366705107968301	2	10	5	NaN	2	5	0.0710744722734826	0	1	NaN	52	1	52	2	120	220	320	NaN	520	0.602567776106298	2	1	NaN	3615730.6099492	NaN	3615731.593484	3615732.11001412
98	20	1	0	90	36.1581920903955	36.241610738255	0	0	1	12	2	NaN	2	3	0.0710744722734826	0	1	NaN	53	1	53	2	110	210	310	NaN	510	0.654081324581057	1	0	NaN	3615734.1271601	NaN	3615735.1104844	3615735.62703278
98	20	1	0	90	36.1581920903955	36.241610738255	25	0.833420699927956	2	11	3	NaN	2	4	0.0710744722734826	0	1	NaN	54	1	54	2	120	220	320	NaN	520	0.239164775703102	2	1	NaN	3615737.0939287	NaN	3615738.0774399	3615738.59398562
98	20	1	0	90	36.1581920903955	36.241610738255	13	0.433378763962537	2	3	5	NaN	1	3	0.0710744722734826	0	1	NaN	55	1	55	2	120	220	320	NaN	520	0.409776575863361	1	1	NaN	3615740.0109831	NaN	3615740.9944047	3615741.51094392
98	20	1	0	90	36.1581920903955	36.241610738255	12	0.400041935965419	2	5	5	NaN	1	5	0.0710744722734826	0	1	NaN	56	1	56	2	120	220	320	NaN	520	0.396913075819612	1	1	NaN	3615742.7278203	NaN	3615743.7113386	3615744.22787302
98	20	1	0	90	36.1581920903955	36.241610738255	23	0.766747043933719	2	1	4	NaN	1	3	0.0710744722734826	0	1	NaN	57	1	57	2	120	220	320	NaN	520	0.280611875932664	1	1	NaN	3615745.4280707	NaN	3615746.4116031	3615746.92813282
98	20	1	0	90	36.1581920903955	36.241610738255	17	0.56672607595101	2	7	1	NaN	2	3	0.0710744722734826	0	1	NaN	58	1	58	2	120	220	320	NaN	520	1.1447465759702	1	0	NaN	3615752.2121821	NaN	3615753.1955939	3615753.71215382
98	20	1	0	90	36.1581920903955	36.241610738255	6	0.200020967982709	2	3	2	NaN	1	4	0.0710744722734826	0	1	NaN	59	1	59	2	120	220	320	NaN	520	1.22223717579618	1	1	NaN	3615755.662478	NaN	3615756.6459123	3615757.16246882
98	20	1	0	90	36.1581920903955	36.241610738255	18	0.600062903948128	2	9	4	NaN	2	5	0.0710744722734826	0	1	NaN	60	1	60	2	120	220	320	NaN	520	3.04877964034677	1	0	NaN	3615759.1962096	NaN	3615760.1796092	3615760.69616116
98	20	1	0	90	36.1581920903955	36.241610738255	23	0.766747043933719	2	10	3	NaN	2	5	0.0710744722734826	0	1	NaN	61	1	61	2	120	220	320	NaN	520	0.425480875652283	1	0	NaN	3615764.5634021	NaN	3615765.5468172	3615766.06334402
98	20	1	0	90	36.1581920903955	36.241610738255	13	0.433378763962537	2	8	5	NaN	2	3	0.0710744722734826	0	1	NaN	62	1	62	2	120	220	320	NaN	520	0.163815776351839	1	0	NaN	3615767.2970251	NaN	3615768.2804093	3615768.79695262
98	20	1	0	90	36.1581920903955	36.241610738255	9	0.300031451974064	2	9	2	NaN	2	3	0.0710744722734826	0	1	NaN	63	1	63	2	120	220	320	NaN	520	0.0103932279162109	2	1	NaN	3615769.7639202	NaN	3615770.7473173	3615771.26386477
98	20	1	0	90	36.1581920903955	36.241610738255	19	0.633399731945246	2	3	1	NaN	1	4	0.0710744722734826	0	1	NaN	64	2	1	2	120	220	320	NaN	520	0.258772528264672	2	0	NaN	3615808.834393	NaN	3615809.817799	3615810.33435367
98	20	1	0	90	36.1581920903955	36.241610738255	14	0.466715591959655	2	3	5	NaN	1	5	0.0710744722734826	0	1	NaN	65	2	2	2	120	220	320	NaN	520	0.315703276079148	1	1	NaN	3615811.4012661	NaN	3615812.3847024	3615812.90126812
98	20	1	0	90	36.1581920903955	36.241610738255	10	0.333368279971182	2	8	2	NaN	2	3	0.0710744722734826	0	1	NaN	66	2	3	2	120	220	320	NaN	520	0.666141828056425	2	1	NaN	3615814.0347787	NaN	3615815.0183228	3615815.53487007
98	20	1	0	90	36.1581920903955	36.241610738255	16	0.533389247953892	2	6	6	NaN	1	4	0.0710744722734826	0	1	NaN	67	2	4	2	120	220	320	NaN	520	0.162984176073223	1	1	NaN	3615817.0017474	NaN	3615817.9852471	3615818.50181512
98	20	1	0	90	36.1581920903955	36.241610738255	6	0.200020967982709	2	9	5	NaN	2	4	0.0710744722734826	0	1	NaN	68	2	5	2	120	220	320	NaN	520	0.0104293283075094	2	1	NaN	3615819.485449	NaN	3615820.4688425	3615820.98539487
98	20	1	0	90	36.1581920903955	36.241610738255	23	0.766747043933719	2	12	1	NaN	2	3	0.0710744722734826	0	1	NaN	69	2	6	2	120	220	320	NaN	520	0.353878376074135	2	1	NaN	3615821.8190066	NaN	3615822.8024157	3615823.31896402
98	20	1	0	90	36.1581920903955	36.241610738255	22	0.733410215936601	2	9	3	NaN	2	5	0.0710744722734826	0	1	NaN	70	2	7	2	120	220	320	NaN	520	0.175095076207072	2	1	NaN	3615824.4858397	NaN	3615825.4693399	3615825.98587972
98	20	1	0	90	36.1581920903955	36.241610738255	18	0.600062903948128	2	12	6	NaN	2	4	0.0710744722734826	0	1	NaN	71	2	8	2	120	220	320	NaN	520	0.779538976028562	1	0	NaN	3615826.9693878	NaN	3615827.9529287	3615828.46945642
98	20	1	0	90	36.1581920903955	36.241610738255	11	0.366705107968301	2	4	3	NaN	1	5	0.0710744722734826	0	1	NaN	72	2	9	2	120	220	320	NaN	520	0.18303677579388	2	0	NaN	3615830.0698169	NaN	3615831.0532289	3615831.56977162
98	20	1	0	90	36.1581920903955	36.241610738255	17	0.56672607595101	2	4	6	NaN	1	3	0.0710744722734826	0	1	NaN	73	2	10	2	120	220	320	NaN	520	0.267294932156801	1	1	NaN	3615832.5700772	NaN	3615833.5534662	3615834.07000997
98	20	1	0	90	36.1581920903955	36.241610738255	11	0.366705107968301	2	7	3	NaN	2	3	0.0710744722734826	0	1	NaN	74	2	11	2	120	220	320	NaN	520	0.835640328470618	1	0	NaN	3615835.1535281	NaN	3615836.1370478	3615836.65360407
98	20	1	0	90	36.1581920903955	36.241610738255	24	0.800083871930838	2	12	1	NaN	2	3	0.0710744722734826	0	1	NaN	75	2	12	2	120	220	320	NaN	520	0.101133275777102	1	0	NaN	3615838.3039686	NaN	3615839.2873569	3615839.80390142
98	20	1	0	90	36.1581920903955	36.241610738255	25	0.833420699927956	2	5	1	NaN	1	4	0.0710744722734826	0	1	NaN	76	2	13	2	120	220	320	NaN	520	0.0104141761548817	2	0	NaN	3615840.7709718	NaN	3615841.7542711	3615842.27081272
98	20	1	0	90	36.1581920903955	36.241610738255	25	0.833420699927956	2	3	2	NaN	1	4	0.0710744722734826	0	1	NaN	77	2	14	2	120	220	320	NaN	520	0.261648575775325	2	0	NaN	3615843.0878275	NaN	3615844.0711643	3615844.58770502
98	20	1	0	90	36.1581920903955	36.241610738255	20	0.666736559942365	2	2	1	NaN	1	4	0.0710744722734826	0	1	NaN	78	2	15	2	120	220	320	NaN	520	0.150334276258945	1	1	NaN	3615845.6546738	NaN	3615846.6380815	3615847.15462202
98	20	1	0	90	36.1581920903955	36.241610738255	17	0.56672607595101	2	3	3	NaN	1	5	0.0710744722734826	0	1	NaN	79	2	16	2	120	220	320	NaN	520	0.283455124124885	1	1	NaN	3615848.1215935	NaN	3615849.1050191	3615849.62153578
98	20	1	0	90	36.1581920903955	36.241610738255	15	0.500052419956774	2	11	6	NaN	2	3	0.0710744722734826	0	1	NaN	80	2	17	2	120	220	320	NaN	520	0.195373124442995	2	1	NaN	3615850.7218514	NaN	3615851.7051355	3615852.22178438
98	20	1	0	90	36.1581920903955	36.241610738255	7	0.233357795979828	2	7	5	NaN	2	3	0.0710744722734826	0	1	NaN	81	2	18	2	120	220	320	NaN	520	0.0104070757515728	2	1	NaN	3615853.2387776	NaN	3615854.2221806	3615854.73871932
98	20	1	0	90	36.1581920903955	36.241610738255	8	0.266694623976946	2	6	2	NaN	1	4	0.0710744722734826	0	1	NaN	82	2	19	2	120	220	320	NaN	520	0.168556524440646	1	1	NaN	3615855.5723187	NaN	3615856.555722	3615857.07226118
98	20	1	0	90	36.1581920903955	36.241610738255	22	0.733410215936601	2	11	2	NaN	2	3	0.0710744722734826	0	1	NaN	83	2	20	2	120	220	320	NaN	520	0.223701675888151	2	1	NaN	3615858.1891635	NaN	3615859.1726667	3615859.68918812
98	20	1	0	90	36.1581920903955	36.241610738255	18	0.600062903948128	2	10	4	NaN	2	5	0.0710744722734826	0	1	NaN	84	2	21	2	120	220	320	NaN	520	0.306566583923995	2	1	NaN	3615860.7228243	NaN	3615861.7062348	3615862.22276832
98	20	1	0	90	36.1581920903955	36.241610738255	12	0.400041935965419	2	10	6	NaN	2	5	0.0710744722734826	0	1	NaN	85	2	22	2	120	220	320	NaN	520	0.0103921280242503	1	0	NaN	3615863.3397399	NaN	3615864.3231474	3615864.83970067
98	20	1	0	90	36.1581920903955	36.241610738255	18	0.600062903948128	2	1	5	NaN	1	5	0.0710744722734826	0	1	NaN	86	2	23	2	120	220	320	NaN	520	1.28449117625132	1	1	NaN	3615865.6566276	NaN	3615866.6400391	3615867.15658902
98	20	1	0	90	36.1581920903955	36.241610738255	25	0.833420699927956	2	11	4	NaN	2	4	0.0710744722734826	0	1	NaN	87	2	24	2	120	220	320	NaN	520	0.179949428420514	2	1	NaN	3615869.2569815	NaN	3615870.240392	3615870.75694627
98	20	1	0	90	36.1581920903955	36.241610738255	24	0.800083871930838	2	10	1	NaN	2	3	0.0710744722734826	0	1	NaN	88	2	25	2	120	220	320	NaN	520	0.391769276000559	2	1	NaN	3615871.7572525	NaN	3615872.7406687	3615873.25717922
98	20	1	0	90	36.1581920903955	36.241610738255	17	0.56672607595101	2	10	5	NaN	2	3	0.0710744722734826	0	1	NaN	89	2	26	2	120	220	320	NaN	520	0.227544824127108	1	0	NaN	3615874.457509	NaN	3615875.4409108	3615875.95744398
98	20	1	0	90	36.1581920903955	36.241610738255	7	0.233357795979828	2	3	6	NaN	1	4	0.0710744722734826	0	1	NaN	90	2	27	2	120	220	320	NaN	520	0.837650976143777	2	0	NaN	3615877.007747	NaN	3615877.9911514	3615878.50769672
98	20	1	0	90	36.1581920903955	36.241610738255	19	0.633399731945246	2	5	4	NaN	1	5	0.0710744722734826	0	1	NaN	91	2	28	2	120	220	320	NaN	520	0.191027176100761	2	0	NaN	3615880.1580751	NaN	3615881.141445	3615881.65800472
98	20	1	0	90	36.1581920903955	36.241610738255	12	0.400041935965419	2	6	3	NaN	1	3	0.0710744722734826	0	1	NaN	92	2	29	2	120	220	320	NaN	520	1.04196027619764	2	0	NaN	3615882.6749842	NaN	3615883.6583644	3615884.17491882
98	20	1	0	90	36.1581920903955	36.241610738255	13	0.433378763962537	2	11	2	NaN	2	5	0.0710744722734826	0	1	NaN	93	2	30	2	120	220	320	NaN	520	0.259777624625713	2	1	NaN	3615886.0252983	NaN	3615887.0087203	3615887.52525418
98	20	1	0	90	36.1581920903955	36.241610738255	19	0.633399731945246	2	10	5	NaN	2	4	0.0710744722734826	0	1	NaN	94	2	31	2	120	220	320	NaN	520	0.301194328349084	1	0	NaN	3615888.5920917	NaN	3615889.5755288	3615890.09217427
98	20	1	0	90	36.1581920903955	36.241610738255	6	0.200020967982709	2	6	2	NaN	1	3	0.0710744722734826	0	1	NaN	95	2	32	2	120	220	320	NaN	520	0.271226775832474	1	1	NaN	3615891.3257013	NaN	3615892.3091235	3615892.82577782
98	20	1	0	90	36.1581920903955	36.241610738255	22	0.733410215936601	2	5	4	NaN	1	4	0.0710744722734826	0	1	NaN	96	2	33	2	120	220	320	NaN	520	0.312042576260865	2	0	NaN	3615893.9094683	NaN	3615894.8928091	3615895.40935582
98	20	1	0	90	36.1581920903955	36.241610738255	9	0.300031451974064	2	12	5	NaN	2	3	0.0710744722734826	0	1	NaN	97	2	34	2	120	220	320	NaN	520	0.830407428089529	1	0	NaN	3615896.543005	NaN	3615897.5262934	3615898.04295657
98	20	1	0	90	36.1581920903955	36.241610738255	14	0.466715591959655	2	12	5	NaN	2	4	0.0710744722734826	0	1	NaN	98	2	35	2	120	220	320	NaN	520	0.0104175759479403	2	1	NaN	3615899.6765344	NaN	3615900.6600463	3615901.17658972
98	20	1	0	90	36.1581920903955	36.241610738255	15	0.500052419956774	2	12	3	NaN	2	3	0.0710744722734826	0	1	NaN	99	2	36	2	120	220	320	NaN	520	0.394821328110993	2	1	NaN	3615902.0102125	NaN	3615902.993613	3615903.51015267
98	20	1	0	90	36.1581920903955	36.241610738255	16	0.533389247953892	2	5	2	NaN	1	3	0.0710744722734826	0	1	NaN	100	2	37	2	120	220	320	NaN	520	0.278898376040161	1	1	NaN	3615904.71057	NaN	3615905.6938649	3615906.21041792
98	20	1	0	90	36.1581920903955	36.241610738255	21	0.700073387939483	2	8	2	NaN	2	5	0.0710744722734826	0	1	NaN	101	2	38	2	120	220	320	NaN	520	0.526392383966595	1	0	NaN	3615907.3107412	NaN	3615908.2941247	3615908.81068002
98	20	1	0	90	36.1581920903955	36.241610738255	12	0.400041935965419	2	5	2	NaN	1	3	0.0710744722734826	0	1	NaN	102	2	39	2	120	220	320	NaN	520	0.356990675907582	1	1	NaN	3615910.1442126	NaN	3615911.1277349	3615911.64427822
98	20	1	0	90	36.1581920903955	36.241610738255	9	0.300031451974064	2	4	6	NaN	1	4	0.0710744722734826	0	1	NaN	103	2	40	2	120	220	320	NaN	520	0.312457324471325	1	1	NaN	3615913.2446114	NaN	3615914.22806	3615914.74457818
98	20	1	0	90	36.1581920903955	36.241610738255	8	0.266694623976946	2	2	5	NaN	1	5	0.0710744722734826	0	1	NaN	104	2	41	2	120	220	320	NaN	520	0.0103949280455709	1	1	NaN	3615916.0615659	NaN	3615917.044981	3615917.56153497
98	20	1	0	90	36.1581920903955	36.241610738255	24	0.800083871930838	2	5	3	NaN	1	4	0.0710744722734826	0	1	NaN	105	2	42	2	120	220	320	NaN	520	0.298824675846845	1	1	NaN	3615918.3784853	NaN	3615919.3618767	3615919.87841802
98	20	1	0	90	36.1581920903955	36.241610738255	0	0	1	1	4	NaN	1	5	0.0710744722734826	0	1	NaN	106	2	43	2	110	210	310	NaN	510	0.321688544005156	1	1	NaN	3615920.9952732	NaN	3615921.9788031	3615922.49535526
98	20	1	0	90	36.1581920903955	36.241610738255	13	0.433378763962537	2	5	6	NaN	1	4	0.0710744722734826	0	1	NaN	107	2	44	2	120	220	320	NaN	520	0.648981824051589	2	0	NaN	3615926.2119068	NaN	3615927.1960014	3615927.71252108
98	20	1	0	90	36.1581920903955	36.241610738255	15	0.500052419956774	2	4	6	NaN	1	4	0.0710744722734826	0	1	NaN	108	2	45	2	120	220	320	NaN	520	0.233558875974268	1	1	NaN	3615929.1795567	NaN	3615930.1629248	3615930.67948042
98	20	1	0	90	36.1581920903955	36.241610738255	12	0.400041935965419	2	1	6	NaN	1	4	0.0710744722734826	0	1	NaN	109	2	46	2	120	220	320	NaN	520	0.219617875758559	1	1	NaN	3615931.7296975	NaN	3615932.7132	3615933.22973522
98	20	1	0	90	36.1581920903955	36.241610738255	21	0.700073387939483	2	9	1	NaN	2	4	0.0710744722734826	0	1	NaN	110	2	47	2	120	220	320	NaN	520	0.612841628491879	1	0	NaN	3615934.4967109	NaN	3615935.4801312	3615935.99667097
98	20	1	0	90	36.1581920903955	36.241610738255	15	0.500052419956774	2	11	6	NaN	2	4	0.0710744722734826	0	1	NaN	111	2	48	2	120	220	320	NaN	520	0.235861824359745	2	1	NaN	3615937.5138154	NaN	3615938.4971292	3615939.01362618
98	20	1	0	90	36.1581920903955	36.241610738255	7	0.233357795979828	2	2	4	NaN	1	3	0.0710744722734826	0	1	NaN	112	2	49	2	120	220	320	NaN	520	0.229278775863349	1	1	NaN	3615940.0639523	NaN	3615941.0473274	3615941.56388522
98	20	1	0	90	36.1581920903955	36.241610738255	0	0	1	5	6	NaN	1	4	0.0710744722734826	0	1	NaN	113	2	50	2	110	210	310	NaN	510	0.0104145761579275	1	1	NaN	3615942.6141935	NaN	3615943.5976128	3615944.11413322
98	20	1	0	90	36.1581920903955	36.241610738255	25	0.833420699927956	2	4	5	NaN	1	5	0.0710744722734826	0	1	NaN	114	2	51	2	120	220	320	NaN	520	0.311253875959665	1	1	NaN	3615945.5977815	NaN	3615946.5812078	3615947.09775112
98	20	1	0	90	36.1581920903955	36.241610738255	23	0.766747043933719	2	2	2	NaN	1	4	0.0710744722734826	0	1	NaN	115	2	52	2	120	220	320	NaN	520	0.197608076035976	1	1	NaN	3615948.231401	NaN	3615949.2147837	3615949.73135002
98	20	1	0	90	36.1581920903955	36.241610738255	14	0.466715591959655	2	4	3	NaN	1	3	0.0710744722734826	0	1	NaN	116	2	53	2	120	220	320	NaN	520	0.296802024357021	1	1	NaN	3615950.7483583	NaN	3615951.7317158	3615952.24825788
98	20	1	0	90	36.1581920903955	36.241610738255	9	0.300031451974064	2	7	5	NaN	2	4	0.0710744722734826	0	1	NaN	117	2	54	2	120	220	320	NaN	520	0.199951228220016	2	1	NaN	3615953.3652807	NaN	3615954.3486374	3615954.86518317
98	20	1	0	90	36.1581920903955	36.241610738255	21	0.700073387939483	2	3	1	NaN	1	5	0.0710744722734826	0	1	NaN	118	2	55	2	120	220	320	NaN	520	0.740381628274918	1	1	NaN	3615956.2488302	NaN	3615957.232263	3615957.74879927
98	20	1	0	90	36.1581920903955	36.241610738255	24	0.800083871930838	2	6	2	NaN	1	5	0.0710744722734826	0	1	NaN	119	2	56	2	120	220	320	NaN	520	0.362105876207352	1	1	NaN	3615959.2990316	NaN	3615960.2825506	3615960.79910262
98	20	1	0	90	36.1581920903955	36.241610738255	10	0.333368279971182	2	9	1	NaN	2	5	0.0710744722734826	0	1	NaN	120	2	57	2	120	220	320	NaN	520	0.655396728310734	1	0	NaN	3615962.3661176	NaN	3615963.3495299	3615963.86606977
98	20	1	0	90	36.1581920903955	36.241610738255	20	0.666736559942365	2	5	3	NaN	1	3	0.0710744722734826	0	1	NaN	121	2	58	2	120	220	320	NaN	520	0.480493876151741	1	1	NaN	3615965.3330814	NaN	3615966.3165092	3615966.83302422
98	20	1	0	90	36.1581920903955	36.241610738255	16	0.533389247953892	2	7	1	NaN	2	3	0.0710744722734826	0	1	NaN	122	2	59	2	120	220	320	NaN	520	0.536502624396235	1	0	NaN	3615968.1166702	NaN	3615969.1000748	3615969.61662548
98	20	1	0	90	36.1581920903955	36.241610738255	19	0.633399731945246	2	7	6	NaN	2	5	0.0710744722734826	0	1	NaN	123	2	60	2	120	220	320	NaN	520	0.0104090757668018	1	0	NaN	3615970.9669506	NaN	3615971.9503598	3615972.46690872
98	20	1	0	90	36.1581920903955	36.241610738255	9	0.300031451974064	2	10	1	NaN	2	3	0.0710744722734826	0	1	NaN	124	2	61	2	120	220	320	NaN	520	0.400655028410256	2	1	NaN	3615973.3005196	NaN	3615974.2839311	3615974.80047547
98	20	1	0	90	36.1581920903955	36.241610738255	6	0.200020967982709	2	5	6	NaN	1	5	0.0710744722734826	0	1	NaN	125	2	62	2	120	220	320	NaN	520	0.243621572386473	1	1	NaN	3615976.0174495	NaN	3615977.0008365	3615977.51740123
98	20	1	0	90	36.1581920903955	36.241610738255	17	0.56672607595101	2	5	3	NaN	1	5	0.0710744722734826	0	1	NaN	126	2	63	2	120	220	320	NaN	520	0.437482527922839	2	0	NaN	3615978.567611	NaN	3615979.5511091	3615980.06765977
98	20	1	0	90	36.1581920903955	36.241610738255	11	0.366705107968301	2	6	5	NaN	1	3	0.0710744722734826	0	1	NaN	127	3	1	2	120	220	320	NaN	520	0.254534928128123	1	1	NaN	3615995.1027277	NaN	3615996.0860596	3615996.60260917
98	20	1	0	90	36.1581920903955	36.241610738255	12	0.400041935965419	2	7	3	NaN	2	5	0.0710744722734826	0	1	NaN	128	3	2	2	120	220	320	NaN	520	0.485415524337441	1	0	NaN	3615998.1195097	NaN	3615999.1029291	3615999.61956628
98	20	1	0	90	36.1581920903955	36.241610738255	18	0.600062903948128	2	8	6	NaN	2	4	0.0710744722734826	0	1	NaN	129	3	3	2	120	220	320	NaN	520	0.221722728572786	2	1	NaN	3616000.9199029	NaN	3616001.9032912	3616002.41984987
98	20	1	0	90	36.1581920903955	36.241610738255	21	0.700073387939483	2	6	5	NaN	1	5	0.0710744722734826	0	1	NaN	130	3	4	2	120	220	320	NaN	520	0.887994976248592	1	1	NaN	3616004.0535632	NaN	3616005.0369403	3616005.55348542
98	20	1	0	90	36.1581920903955	36.241610738255	24	0.800083871930838	2	7	2	NaN	2	4	0.0710744722734826	0	1	NaN	131	3	5	2	120	220	320	NaN	520	0.28740122821182	1	0	NaN	3616007.2538538	NaN	3616008.2372651	3616008.75380547
98	20	1	0	90	36.1581920903955	36.241610738255	14	0.466715591959655	2	10	6	NaN	2	3	0.0710744722734826	0	1	NaN	132	3	6	2	120	220	320	NaN	520	0.191288875881582	2	1	NaN	3616009.8541224	NaN	3616010.8375082	3616011.35405732
98	20	1	0	90	36.1581920903955	36.241610738255	24	0.800083871930838	2	4	2	NaN	1	4	0.0710744722734826	0	1	NaN	133	3	7	2	120	220	320	NaN	520	0.338904676027596	1	1	NaN	3616012.3543489	NaN	3616013.3377398	3616013.85430372
98	20	1	0	90	36.1581920903955	36.241610738255	0	0	1	6	1	NaN	1	5	0.0710744722734826	0	1	NaN	134	3	8	2	110	210	310	NaN	510	0.168545976281166	1	1	NaN	3616015.0044917	NaN	3616015.9880102	3616016.50455872
98	20	1	0	90	36.1581920903955	36.241610738255	22	0.733410215936601	2	1	5	NaN	1	3	0.0710744722734826	0	1	NaN	135	3	9	2	120	220	320	NaN	520	0.328487628139555	1	1	NaN	3616019.2050521	NaN	3616020.188431	3616020.70497547
98	20	1	0	90	36.1581920903955	36.241610738255	22	0.733410215936601	2	12	3	NaN	2	4	0.0710744722734826	0	1	NaN	136	3	10	2	120	220	320	NaN	520	0.863855175673962	1	0	NaN	3616022.6054541	NaN	3616023.5887735	3616024.10530522
98	20	1	0	90	36.1581920903955	36.241610738255	16	0.533389247953892	2	3	2	NaN	1	5	0.0710744722734826	0	1	NaN	137	3	11	2	120	220	320	NaN	520	0.246470876038074	1	1	NaN	3616026.2390353	NaN	3616027.2224665	3616027.73898812
98	20	1	0	90	36.1581920903955	36.241610738255	0	0	1	12	4	NaN	2	3	0.0710744722734826	0	1	NaN	138	3	12	2	110	210	310	NaN	510	0.204569932073355	2	1	NaN	3616028.8726535	NaN	3616029.8560358	3616030.37259067
98	20	1	0	90	36.1581920903955	36.241610738255	18	0.600062903948128	2	6	1	NaN	1	5	0.0710744722734826	0	1	NaN	139	3	13	2	120	220	320	NaN	520	0.391931028105319	1	1	NaN	3616031.3896031	NaN	3616032.3729615	3616032.88950247
98	20	1	0	90	36.1581920903955	36.241610738255	17	0.56672607595101	2	2	3	NaN	1	4	0.0710744722734826	0	1	NaN	140	3	14	2	120	220	320	NaN	520	0.243415775708854	2	0	NaN	3616034.0898189	NaN	3616035.0732209	3616035.58975882
98	20	1	0	90	36.1581920903955	36.241610738255	12	0.400041935965419	2	3	3	NaN	1	3	0.0710744722734826	0	1	NaN	141	3	15	2	120	220	320	NaN	520	0.152795427944511	1	1	NaN	3616036.9566371	NaN	3616037.9401614	3616038.45671177
98	20	1	0	90	36.1581920903955	36.241610738255	15	0.500052419956774	2	2	5	NaN	1	4	0.0710744722734826	0	1	NaN	142	3	16	2	120	220	320	NaN	520	0.500579676125199	1	1	NaN	3616040.0403957	NaN	3616041.0237939	3616041.54035352
98	20	1	0	90	36.1581920903955	36.241610738255	12	0.400041935965419	2	1	1	NaN	1	5	0.0710744722734826	0	1	NaN	143	3	17	2	120	220	320	NaN	520	2.63429662818089	2	0	NaN	3616046.8910607	NaN	3616047.8744967	3616048.39102107
98	20	1	0	90	36.1581920903955	36.241610738255	14	0.466715591959655	2	6	3	NaN	1	3	0.0710744722734826	0	1	NaN	144	3	18	2	120	220	320	NaN	520	0.284182876348495	2	0	NaN	3616051.8415636	NaN	3616052.82499	3616053.34149762
98	20	1	0	90	36.1581920903955	36.241610738255	21	0.700073387939483	2	11	5	NaN	2	5	0.0710744722734826	0	1	NaN	145	3	19	2	120	220	320	NaN	520	1.09454172803089	2	1	NaN	3616054.9751829	NaN	3616055.9585903	3616056.47514847
98	20	1	0	90	36.1581920903955	36.241610738255	18	0.600062903948128	2	2	4	NaN	1	5	0.0710744722734826	0	1	NaN	146	3	20	2	120	220	320	NaN	520	0.205510776024312	1	1	NaN	3616058.37555	NaN	3616059.3589242	3616059.87547882
98	20	1	0	90	36.1581920903955	36.241610738255	8	0.266694623976946	2	4	6	NaN	1	3	0.0710744722734826	0	1	NaN	147	3	21	2	120	220	320	NaN	520	0.222544560208917	1	1	NaN	3616060.9592228	NaN	3616061.942575	3616062.45905324
98	20	1	0	90	36.1581920903955	36.241610738255	13	0.433378763962537	2	7	3	NaN	2	5	0.0710744722734826	0	1	NaN	148	3	22	2	120	220	320	NaN	520	0.480936375912279	1	0	NaN	3616063.4926806	NaN	3616064.4761066	3616064.99264822
98	20	1	0	90	36.1581920903955	36.241610738255	21	0.700073387939483	2	1	3	NaN	1	4	0.0710744722734826	0	1	NaN	149	3	23	2	120	220	320	NaN	520	0.240301536396146	2	0	NaN	3616066.2930103	NaN	3616067.2763743	3616067.79292826
98	20	1	0	90	36.1581920903955	36.241610738255	22	0.733410215936601	2	10	1	NaN	2	4	0.0710744722734826	0	1	NaN	150	3	24	2	120	220	320	NaN	520	0.386049576103687	2	1	NaN	3616068.8432257	NaN	3616069.8266343	3616070.34316882
98	20	1	0	90	36.1581920903955	36.241610738255	9	0.300031451974064	2	8	6	NaN	2	5	0.0710744722734826	0	1	NaN	151	3	25	2	120	220	320	NaN	520	0.213761243969202	2	1	NaN	3616071.5433628	NaN	3616072.5269021	3616073.04343356
98	20	1	0	90	36.1581920903955	36.241610738255	23	0.766747043933719	2	8	4	NaN	2	5	0.0710744722734826	0	1	NaN	152	3	26	2	120	220	320	NaN	520	0.471672724466771	2	1	NaN	3616074.4937473	NaN	3616075.4771849	3616075.99371808
98	20	1	0	90	36.1581920903955	36.241610738255	19	0.633399731945246	2	11	6	NaN	2	5	0.0710744722734826	0	1	NaN	153	3	27	2	120	220	320	NaN	520	0.216229843907058	2	1	NaN	3616077.2773747	NaN	3616078.2607931	3616078.77733076
98	20	1	0	90	36.1581920903955	36.241610738255	14	0.466715591959655	2	7	4	NaN	2	4	0.0710744722734826	0	1	NaN	154	3	28	2	120	220	320	NaN	520	0.250220376066864	2	1	NaN	3616079.8109901	NaN	3616080.7943739	3616081.31091032
98	20	1	0	90	36.1581920903955	36.241610738255	18	0.600062903948128	2	8	4	NaN	2	5	0.0710744722734826	0	1	NaN	155	3	29	2	120	220	320	NaN	520	0.083526324480772	2	1	NaN	3616082.3778794	NaN	3616083.3612839	3616083.87782248
98	20	1	0	90	36.1581920903955	36.241610738255	13	0.433378763962537	2	12	6	NaN	2	3	0.0710744722734826	0	1	NaN	156	3	30	2	120	220	320	NaN	520	0.371435476467013	1	0	NaN	3616085.5781138	NaN	3616086.5616048	3616087.07814052
98	20	1	0	90	36.1581920903955	36.241610738255	15	0.500052419956774	2	1	4	NaN	1	4	0.0710744722734826	0	1	NaN	157	3	31	2	120	220	320	NaN	520	0.223457428161055	2	0	NaN	3616088.2618704	NaN	3616089.245208	3616089.76174307
98	20	1	0	90	36.1581920903955	36.241610738255	9	0.300031451974064	2	6	3	NaN	1	3	0.0710744722734826	0	1	NaN	158	3	32	2	120	220	320	NaN	520	0.362412528134882	1	1	NaN	3616090.795263	NaN	3616091.7788016	3616092.29532427
98	20	1	0	90	36.1581920903955	36.241610738255	13	0.433378763962537	2	1	3	NaN	1	5	0.0710744722734826	0	1	NaN	159	3	33	2	120	220	320	NaN	520	0.142644675914198	2	0	NaN	3616093.4789688	NaN	3616094.4623528	3616094.97892172
98	20	1	0	90	36.1581920903955	36.241610738255	20	0.666736559942365	2	6	4	NaN	1	3	0.0710744722734826	0	1	NaN	160	3	34	2	120	220	320	NaN	520	0.320707575883716	1	1	NaN	3616096.4125504	NaN	3616097.3959974	3616097.91254082
98	20	1	0	90	36.1581920903955	36.241610738255	19	0.633399731945246	2	12	6	NaN	2	4	0.0710744722734826	0	1	NaN	161	3	35	2	120	220	320	NaN	520	1.01122047612444	1	0	NaN	3616099.9463073	NaN	3616100.9296756	3616101.44621302
98	20	1	0	90	36.1581920903955	36.241610738255	25	0.833420699927956	2	5	3	NaN	1	5	0.0710744722734826	0	1	NaN	162	3	36	2	120	220	320	NaN	520	0.237256976310164	1	1	NaN	3616103.2797924	NaN	3616104.2633356	3616104.77987592
98	20	1	0	90	36.1581920903955	36.241610738255	13	0.433378763962537	2	2	4	NaN	1	5	0.0710744722734826	0	1	NaN	163	3	37	2	120	220	320	NaN	520	0.320432880427688	1	1	NaN	3616106.3970174	NaN	3616107.380311	3616107.89685122
98	20	1	0	90	36.1581920903955	36.241610738255	12	0.400041935965419	2	8	6	NaN	2	4	0.0710744722734826	0	1	NaN	164	3	38	2	120	220	320	NaN	520	0.43234962457791	2	1	NaN	3616110.1972846	NaN	3616111.1806873	3616111.69721578
98	20	1	0	90	36.1581920903955	36.241610738255	11	0.366705107968301	2	6	3	NaN	1	4	0.0710744722734826	0	1	NaN	165	3	39	2	120	220	320	NaN	520	0.422719764523208	1	1	NaN	3616113.8309403	NaN	3616114.8143618	3616115.33091064
98	20	1	0	90	36.1581920903955	36.241610738255	10	0.333368279971182	2	11	5	NaN	2	5	0.0710744722734826	0	1	NaN	166	3	40	2	120	220	320	NaN	520	0.166845191735774	2	1	NaN	3616117.0145779	NaN	3616117.9980189	3616118.51456851
98	20	1	0	90	36.1581920903955	36.241610738255	16	0.533389247953892	2	8	3	NaN	2	3	0.0710744722734826	0	1	NaN	167	3	41	2	120	220	320	NaN	520	0.379603176377714	2	1	NaN	3616119.4981849	NaN	3616120.4815963	3616120.99813272
98	20	1	0	90	36.1581920903955	36.241610738255	17	0.56672607595101	2	1	2	NaN	1	5	0.0710744722734826	0	1	NaN	168	3	42	2	120	220	320	NaN	520	0.302946924231946	1	1	NaN	3616122.1984672	NaN	3616123.1818715	3616123.69839598
98	20	1	0	90	36.1581920903955	36.241610738255	20	0.666736559942365	2	6	4	NaN	1	5	0.0710744722734826	0	1	NaN	169	3	43	2	120	220	320	NaN	520	0.269757376052439	1	1	NaN	3616124.8153901	NaN	3616125.7987716	3616126.31532622
98	20	1	0	90	36.1581920903955	36.241610738255	19	0.633399731945246	2	1	2	NaN	1	4	0.0710744722734826	0	1	NaN	170	3	44	2	120	220	320	NaN	520	0.270084575749934	1	1	NaN	3616127.6155354	NaN	3616128.5990322	3616129.11559782
98	20	1	0	90	36.1581920903955	36.241610738255	16	0.533389247953892	2	10	1	NaN	2	3	0.0710744722734826	0	1	NaN	171	3	45	2	120	220	320	NaN	520	0.430003724526614	2	1	NaN	3616130.1991098	NaN	3616131.182619	3616131.69917708
98	20	1	0	90	36.1581920903955	36.241610738255	12	0.400041935965419	2	4	4	NaN	1	4	0.0710744722734826	0	1	NaN	172	3	46	2	120	220	320	NaN	520	0.839955775998533	1	1	NaN	3616132.9493707	NaN	3616133.9329157	3616134.44945202
98	20	1	0	90	36.1581920903955	36.241610738255	15	0.500052419956774	2	4	2	NaN	1	3	0.0710744722734826	0	1	NaN	173	3	47	2	120	220	320	NaN	520	0.213974228128791	1	1	NaN	3616136.1998042	NaN	3616137.1832101	3616137.69977867
98	20	1	0	90	36.1581920903955	36.241610738255	7	0.233357795979828	2	6	4	NaN	1	5	0.0710744722734826	0	1	NaN	174	3	48	2	120	220	320	NaN	520	0.0104093761183321	1	1	NaN	3616138.7332916	NaN	3616139.7168179	3616140.23335342
98	20	1	0	90	36.1581920903955	36.241610738255	10	0.333368279971182	2	3	3	NaN	1	5	0.0710744722734826	0	1	NaN	175	3	49	2	120	220	320	NaN	520	0.378448976203799	1	1	NaN	3616141.0669693	NaN	3616142.0503737	3616142.56691802
98	20	1	0	90	36.1581920903955	36.241610738255	9	0.300031451974064	2	10	4	NaN	2	5	0.0710744722734826	0	1	NaN	176	3	50	2	120	220	320	NaN	520	6.26692687580362	2	1	NaN	3616147.450919	NaN	3616148.4343104	3616148.95087452
98	20	1	0	90	36.1581920903955	36.241610738255	17	0.56672607595101	2	6	3	NaN	1	4	0.0710744722734826	0	1	NaN	177	3	51	2	120	220	320	NaN	520	0.400963644031435	1	1	NaN	3616156.2684529	NaN	3616157.251855	3616157.76840956
98	20	1	0	90	36.1581920903955	36.241610738255	20	0.666736559942365	2	9	4	NaN	2	5	0.0710744722734826	0	1	NaN	178	3	52	2	120	220	320	NaN	520	0.292409176006913	1	0	NaN	3616158.9853762	NaN	3616159.9687656	3616160.48533212
98	20	1	0	90	36.1581920903955	36.241610738255	19	0.633399731945246	2	5	1	NaN	1	3	0.0710744722734826	0	1	NaN	179	3	53	2	120	220	320	NaN	520	0.427661724388599	1	1	NaN	3616161.5856481	NaN	3616162.5690428	3616163.08558878
98	20	1	0	90	36.1581920903955	36.241610738255	10	0.333368279971182	2	3	4	NaN	1	5	0.0710744722734826	0	1	NaN	180	3	54	2	120	220	320	NaN	520	0.790211576037109	1	1	NaN	3616164.3192429	NaN	3616165.3026602	3616165.81918942
98	20	1	0	90	36.1581920903955	36.241610738255	20	0.666736559942365	2	2	3	NaN	1	5	0.0710744722734826	0	1	NaN	181	3	55	2	120	220	320	NaN	520	0.257865128107369	2	0	NaN	3616167.4195285	NaN	3616168.4029614	3616168.91950327
98	20	1	0	90	36.1581920903955	36.241610738255	10	0.333368279971182	2	7	6	NaN	2	3	0.0710744722734826	0	1	NaN	182	3	56	2	120	220	320	NaN	520	0.211355575826019	2	1	NaN	3616169.9863306	NaN	3616170.9698651	3616171.48641122
98	20	1	0	90	36.1581920903955	36.241610738255	22	0.733410215936601	2	8	1	NaN	2	3	0.0710744722734826	0	1	NaN	183	3	57	2	120	220	320	NaN	520	0.261449827812612	2	1	NaN	3616172.5199638	NaN	3616173.50348	3616174.01999557
98	20	1	0	90	36.1581920903955	36.241610738255	6	0.200020967982709	2	1	3	NaN	1	4	0.0710744722734826	0	1	NaN	184	3	58	2	120	220	320	NaN	520	0.189955975860357	1	1	NaN	3616175.1036907	NaN	3616176.0870313	3616176.60357692
98	20	1	0	90	36.1581920903955	36.241610738255	9	0.300031451974064	2	2	6	NaN	1	4	0.0710744722734826	0	1	NaN	185	3	59	2	120	220	320	NaN	520	0.273612976074219	1	1	NaN	3616177.6037416	NaN	3616178.5872745	3616179.10382272
98	20	1	0	90	36.1581920903955	36.241610738255	17	0.56672607595101	2	12	4	NaN	2	5	0.0710744722734826	0	1	NaN	186	3	60	2	120	220	320	NaN	520	0.242412076331675	2	1	NaN	3616180.1873441	NaN	3616181.170886	3616181.68740992
98	20	1	0	90	36.1581920903955	36.241610738255	19	0.633399731945246	2	12	4	NaN	2	3	0.0710744722734826	0	1	NaN	187	3	61	2	120	220	320	NaN	520	0.904084376059473	1	0	NaN	3616185.6213077	NaN	3616186.6047228	3616187.12128632
98	20	1	0	90	36.1581920903955	36.241610738255	15	0.500052419956774	2	2	5	NaN	1	4	0.0710744722734826	0	1	NaN	188	3	62	2	120	220	320	NaN	520	0.203117328230292	1	1	NaN	3616189.1383191	NaN	3616190.121761	3616190.63830037
98	20	1	0	90	36.1581920903955	36.241610738255	21	0.700073387939483	2	8	4	NaN	2	3	0.0710744722734826	0	1	NaN	189	3	63	2	120	220	320	NaN	520	0.539592640008777	1	0	NaN	3616192.3218891	NaN	3616193.3053912	3616193.82193806
98	20	1	0	90	36.1581920903955	36.241610738255	6	0.200020967982709	2	3	5	NaN	1	3	0.0710744722734826	0	1	NaN	190	4	1	2	120	220	320	NaN	520	0.873393124435097	1	1	NaN	3616210.5404234	NaN	3616211.5238592	3616212.04038878
98	20	1	0	90	36.1581920903955	36.241610738255	13	0.433378763962537	2	6	3	NaN	1	5	0.0710744722734826	0	1	NaN	191	4	2	2	120	220	320	NaN	520	0.185388376004994	1	1	NaN	3616213.7240992	NaN	3616214.7074809	3616215.22403412
98	20	1	0	90	36.1581920903955	36.241610738255	11	0.366705107968301	2	2	5	NaN	1	4	0.0710744722734826	0	1	NaN	192	4	3	2	120	220	320	NaN	520	0.21084402827546	1	1	NaN	3616216.6910252	NaN	3616217.6744453	3616218.19099877
98	20	1	0	90	36.1581920903955	36.241610738255	8	0.266694623976946	2	11	3	NaN	2	3	0.0710744722734826	0	1	NaN	193	4	4	2	120	220	320	NaN	520	0.221514724195004	2	1	NaN	3616219.2078396	NaN	3616220.1913827	3616220.70790458
98	20	1	0	90	36.1581920903955	36.241610738255	6	0.200020967982709	2	4	1	NaN	1	4	0.0710744722734826	0	1	NaN	194	4	5	2	120	220	320	NaN	520	0.488946775905788	1	1	NaN	3616222.7248426	NaN	3616223.7083743	3616224.22491712
98	20	1	0	90	36.1581920903955	36.241610738255	11	0.366705107968301	2	10	2	NaN	2	5	0.0710744722734826	0	1	NaN	195	4	6	2	120	220	320	NaN	520	0.304746275767684	1	0	NaN	3616225.5252513	NaN	3616226.5086424	3616227.02519202
98	20	1	0	90	36.1581920903955	36.241610738255	15	0.500052419956774	2	12	5	NaN	2	3	0.0710744722734826	0	1	NaN	196	4	7	2	120	220	320	NaN	520	0.48411462828517	1	0	NaN	3616228.425553	NaN	3616229.4089314	3616229.92547317
98	20	1	0	90	36.1581920903955	36.241610738255	23	0.766747043933719	2	7	5	NaN	2	5	0.0710744722734826	0	1	NaN	197	4	8	2	120	220	320	NaN	520	0.124119375832379	2	1	NaN	3616231.2257933	NaN	3616232.2092172	3616232.72576392
98	20	1	0	90	36.1581920903955	36.241610738255	18	0.600062903948128	2	12	1	NaN	2	4	0.0710744722734826	0	1	NaN	198	4	9	2	120	220	320	NaN	520	0.226092128548771	2	1	NaN	3616233.6593923	NaN	3616234.6427744	3616235.15932507
98	20	1	0	90	36.1581920903955	36.241610738255	6	0.200020967982709	2	11	3	NaN	2	5	0.0710744722734826	0	1	NaN	199	4	10	2	120	220	320	NaN	520	0.212466476019472	2	1	NaN	3616236.1928755	NaN	3616237.1763809	3616237.69290662
98	20	1	0	90	36.1581920903955	36.241610738255	12	0.400041935965419	2	10	5	NaN	2	3	0.0710744722734826	0	1	NaN	200	4	11	2	120	220	320	NaN	520	0.500893775839359	1	0	NaN	3616239.7766171	NaN	3616240.7600528	3616241.27659322
98	20	1	0	90	36.1581920903955	36.241610738255	23	0.766747043933719	2	3	5	NaN	1	5	0.0710744722734826	0	1	NaN	201	4	12	2	120	220	320	NaN	520	0.553770176135004	1	1	NaN	3616245.2438513	NaN	3616246.2272606	3616246.74378672
98	20	1	0	90	36.1581920903955	36.241610738255	12	0.400041935965419	2	4	4	NaN	1	5	0.0710744722734826	0	1	NaN	202	4	13	2	120	220	320	NaN	520	0.484759876038879	1	1	NaN	3616248.5608516	NaN	3616249.5442288	3616250.06077722
98	20	1	0	90	36.1581920903955	36.241610738255	16	0.533389247953892	2	9	2	NaN	2	3	0.0710744722734826	0	1	NaN	203	4	14	2	120	220	320	NaN	520	0.417767628561705	1	0	NaN	3616261.8121038	NaN	3616262.7955199	3616263.31209027
98	20	1	0	90	36.1581920903955	36.241610738255	9	0.300031451974064	2	4	4	NaN	1	5	0.0710744722734826	0	1	NaN	204	4	15	2	120	220	320	NaN	520	0.163898576050997	1	1	NaN	3616264.5456987	NaN	3616265.5290749	3616266.04568682
98	20	1	0	90	36.1581920903955	36.241610738255	24	0.800083871930838	2	9	6	NaN	2	3	0.0710744722734826	0	1	NaN	205	4	16	2	120	220	320	NaN	520	0.208325176034123	2	1	NaN	3616267.0293289	NaN	3616268.0127198	3616268.52925422
98	20	1	0	90	36.1581920903955	36.241610738255	7	0.233357795979828	2	10	2	NaN	2	4	0.0710744722734826	0	1	NaN	206	4	17	2	120	220	320	NaN	520	0.417242975905538	1	0	NaN	3616269.9959009	NaN	3616270.9796829	3616271.49621452
98	20	1	0	90	36.1581920903955	36.241610738255	17	0.56672607595101	2	4	3	NaN	1	5	0.0710744722734826	0	1	NaN	207	4	18	2	120	220	320	NaN	520	0.0999443805776536	1	1	NaN	3616272.729869	NaN	3616273.7132762	3616274.22981332
98	20	1	0	90	36.1581920903955	36.241610738255	12	0.400041935965419	2	9	3	NaN	2	4	0.0710744722734826	0	1	NaN	208	4	19	2	120	220	320	NaN	520	1.39886752841994	1	0	NaN	3616275.8468168	NaN	3616276.8302497	3616277.34679767
98	20	1	0	90	36.1581920903955	36.241610738255	18	0.600062903948128	2	10	4	NaN	2	3	0.0710744722734826	0	1	NaN	209	4	20	2	120	220	320	NaN	520	0.268210628069937	2	1	NaN	3616280.2972541	NaN	3616281.2806909	3616281.79722457
98	20	1	0	90	36.1581920903955	36.241610738255	7	0.233357795979828	2	9	1	NaN	2	5	0.0710744722734826	0	1	NaN	210	4	21	2	120	220	320	NaN	520	0.284742875955999	2	1	NaN	3616282.880859	NaN	3616283.864263	3616284.38080972
98	20	1	0	90	36.1581920903955	36.241610738255	15	0.500052419956774	2	9	2	NaN	2	3	0.0710744722734826	0	1	NaN	211	4	22	2	120	220	320	NaN	520	0.324393327813596	2	1	NaN	3616285.4811515	NaN	3616286.4645222	3616286.98107607
98	20	1	0	90	36.1581920903955	36.241610738255	14	0.466715591959655	2	8	5	NaN	2	3	0.0710744722734826	0	1	NaN	212	4	23	2	120	220	320	NaN	520	0.31489487644285	2	1	NaN	3616288.1147443	NaN	3616289.0981299	3616289.61466442
98	20	1	0	90	36.1581920903955	36.241610738255	0	0	1	8	6	NaN	2	5	0.0710744722734826	0	1	NaN	213	4	24	2	110	210	310	NaN	510	0.225307276006788	2	1	NaN	3616290.7483011	NaN	3616291.731701	3616292.24825292
98	20	1	0	90	36.1581920903955	36.241610738255	7	0.233357795979828	2	7	1	NaN	2	5	0.0710744722734826	0	1	NaN	214	4	25	2	120	220	320	NaN	520	0.352283727843314	2	1	NaN	3616294.9652445	NaN	3616295.9488407	3616296.46533267
98	20	1	0	90	36.1581920903955	36.241610738255	22	0.733410215936601	2	7	3	NaN	2	5	0.0710744722734826	0	1	NaN	215	4	26	2	120	220	320	NaN	520	0.221302075777203	1	0	NaN	3616298.0323548	NaN	3616299.015762	3616299.53230232
98	20	1	0	90	36.1581920903955	36.241610738255	22	0.733410215936601	2	6	6	NaN	1	3	0.0710744722734826	0	1	NaN	216	4	27	2	120	220	320	NaN	520	0.247669024392962	1	1	NaN	3616300.5660373	NaN	3616301.5493392	3616302.06587528
98	20	1	0	90	36.1581920903955	36.241610738255	7	0.233357795979828	2	11	3	NaN	2	4	0.0710744722734826	0	1	NaN	217	4	28	2	120	220	320	NaN	520	0.401814343873411	2	1	NaN	3616303.1162507	NaN	3616304.0996101	3616304.61613456
98	20	1	0	90	36.1581920903955	36.241610738255	19	0.633399731945246	2	3	5	NaN	1	4	0.0710744722734826	0	1	NaN	218	4	29	2	120	220	320	NaN	520	0.308475975878537	1	1	NaN	3616305.8331223	NaN	3616306.8165239	3616307.33306542
98	20	1	0	90	36.1581920903955	36.241610738255	15	0.500052419956774	2	5	1	NaN	1	5	0.0710744722734826	0	1	NaN	219	4	30	2	120	220	320	NaN	520	0.372005176264793	1	1	NaN	3616308.4500293	NaN	3616309.4334498	3616309.94998482
98	20	1	0	90	36.1581920903955	36.241610738255	7	0.233357795979828	2	12	1	NaN	2	4	0.0710744722734826	0	1	NaN	220	4	31	2	120	220	320	NaN	520	0.391956775914878	2	1	NaN	3616311.133627	NaN	3616312.1170384	3616312.63357702
98	20	1	0	90	36.1581920903955	36.241610738255	24	0.800083871930838	2	1	6	NaN	1	3	0.0710744722734826	0	1	NaN	221	4	32	2	120	220	320	NaN	520	0.243506575934589	1	1	NaN	3616313.8338855	NaN	3616314.8173338	3616315.33384252
98	20	1	0	90	36.1581920903955	36.241610738255	20	0.666736559942365	2	4	6	NaN	1	5	0.0710744722734826	0	1	NaN	222	4	33	2	120	220	320	NaN	520	0.228813075926155	1	1	NaN	3616316.400817	NaN	3616317.384221	3616317.90076702
98	20	1	0	90	36.1581920903955	36.241610738255	8	0.266694623976946	2	8	5	NaN	2	3	0.0710744722734826	0	1	NaN	223	4	34	2	120	220	320	NaN	520	0.15895372396335	1	0	NaN	3616318.9511203	NaN	3616319.9344632	3616320.45100848
98	20	1	0	90	36.1581920903955	36.241610738255	9	0.300031451974064	2	1	2	NaN	1	4	0.0710744722734826	0	1	NaN	224	4	35	2	120	220	320	NaN	520	0.239092575851828	1	1	NaN	3616321.9346847	NaN	3616322.9181107	3616323.43463752
98	20	1	0	90	36.1581920903955	36.241610738255	6	0.200020967982709	2	2	2	NaN	1	5	0.0710744722734826	0	1	NaN	225	4	36	2	120	220	320	NaN	520	0.344757475890219	1	1	NaN	3616324.4849374	NaN	3616325.4683755	3616325.98489832
98	20	1	0	90	36.1581920903955	36.241610738255	16	0.533389247953892	2	11	6	NaN	2	4	0.0710744722734826	0	1	NaN	226	4	37	2	120	220	320	NaN	520	0.267887028399855	2	1	NaN	3616327.4017556	NaN	3616328.3852198	3616328.90184287
98	20	1	0	90	36.1581920903955	36.241610738255	21	0.700073387939483	2	12	4	NaN	2	3	0.0710744722734826	0	1	NaN	227	4	38	2	120	220	320	NaN	520	0.99655823642388	1	0	NaN	3616329.9853568	NaN	3616330.9688841	3616331.48543286
98	20	1	0	90	36.1581920903955	36.241610738255	8	0.266694623976946	2	1	2	NaN	1	5	0.0710744722734826	0	1	NaN	228	4	39	2	120	220	320	NaN	520	0.346346876118332	1	1	NaN	3616333.4191848	NaN	3616334.4025937	3616334.91910162
98	20	1	0	90	36.1581920903955	36.241610738255	18	0.600062903948128	2	4	1	NaN	1	4	0.0710744722734826	0	1	NaN	229	4	40	2	120	220	320	NaN	520	0.255942428484559	1	1	NaN	3616336.0860781	NaN	3616337.0694713	3616337.58603377
98	20	1	0	90	36.1581920903955	36.241610738255	23	0.766747043933719	2	5	2	NaN	1	5	0.0710744722734826	0	1	NaN	230	4	41	2	120	220	320	NaN	520	0.272633276414126	1	1	NaN	3616338.6529889	NaN	3616339.6363994	3616340.15293972
98	20	1	0	90	36.1581920903955	36.241610738255	23	0.766747043933719	2	2	2	NaN	1	3	0.0710744722734826	0	1	NaN	231	4	42	2	120	220	320	NaN	520	0.650113728363067	1	1	NaN	3616341.8198523	NaN	3616342.803391	3616343.31992987
98	20	1	0	90	36.1581920903955	36.241610738255	10	0.333368279971182	2	4	5	NaN	1	3	0.0710744722734826	0	1	NaN	232	4	43	2	120	220	320	NaN	520	1.29206477571279	2	0	NaN	3616345.3536604	NaN	3616346.3370567	3616346.85359992
98	20	1	0	90	36.1581920903955	36.241610738255	20	0.666736559942365	2	11	1	NaN	2	5	0.0710744722734826	0	1	NaN	233	4	44	2	120	220	320	NaN	520	0.147646476048976	2	1	NaN	3616348.9540021	NaN	3616349.9374019	3616350.45395792
98	20	1	0	90	36.1581920903955	36.241610738255	13	0.433378763962537	2	5	5	NaN	1	3	0.0710744722734826	0	1	NaN	234	4	45	2	120	220	320	NaN	520	0.240020728204399	1	1	NaN	3616351.8376056	NaN	3616352.8210045	3616353.33757577
98	20	1	0	90	36.1581920903955	36.241610738255	25	0.833420699927956	2	12	1	NaN	2	4	0.0710744722734826	0	1	NaN	235	4	46	2	120	220	320	NaN	520	0.651141544338316	2	1	NaN	3616485.6506992	NaN	3616486.634149	3616487.15071426
98	20	1	0	90	36.1581920903955	36.241610738255	21	0.700073387939483	2	9	5	NaN	2	4	0.0710744722734826	0	1	NaN	236	4	47	2	120	220	320	NaN	520	0.164158824365586	2	1	NaN	3616488.617721	NaN	3616489.6011146	3616490.11764948
98	20	1	0	90	36.1581920903955	36.241610738255	7	0.233357795979828	2	5	1	NaN	1	3	0.0710744722734826	0	1	NaN	237	4	48	2	120	220	320	NaN	520	0.288495224434882	1	1	NaN	3616491.1011976	NaN	3616492.0847167	3616492.60123118
98	20	1	0	90	36.1581920903955	36.241610738255	19	0.633399731945246	2	9	5	NaN	2	3	0.0710744722734826	0	1	NaN	238	4	49	2	120	220	320	NaN	520	0.127716075628996	2	1	NaN	3616493.7182344	NaN	3616494.7016182	3616495.21814752
98	20	1	0	90	36.1581920903955	36.241610738255	11	0.366705107968301	2	3	1	NaN	1	3	0.0710744722734826	0	1	NaN	239	4	50	2	120	220	320	NaN	520	0.118196784052998	2	0	NaN	3616496.551814	NaN	3616497.5352255	3616498.05176932
98	20	1	0	90	36.1581920903955	36.241610738255	8	0.266694623976946	2	2	6	NaN	1	3	0.0710744722734826	0	1	NaN	240	4	51	2	120	220	320	NaN	520	0.180479684378952	1	1	NaN	3616499.3854375	NaN	3616500.3688635	3616500.88537812
98	20	1	0	90	36.1581920903955	36.241610738255	20	0.666736559942365	2	12	3	NaN	2	5	0.0710744722734826	0	1	NaN	241	4	52	2	120	220	320	NaN	520	0.0721769239753485	2	1	NaN	3616501.8855555	NaN	3616502.8691022	3616503.38561698
98	20	1	0	90	36.1581920903955	36.241610738255	25	0.833420699927956	2	2	4	NaN	1	3	0.0710744722734826	0	1	NaN	242	4	53	2	120	220	320	NaN	520	0.192778028547764	2	0	NaN	3616504.2692427	NaN	3616505.2526684	3616505.76919207
98	20	1	0	90	36.1581920903955	36.241610738255	21	0.700073387939483	2	1	1	NaN	1	3	0.0710744722734826	0	1	NaN	243	4	54	2	120	220	320	NaN	520	0.0836958722211421	1	1	NaN	3616506.7861627	NaN	3616507.769579	3616508.28610023
98	20	1	0	90	36.1581920903955	36.241610738255	21	0.700073387939483	2	10	3	NaN	2	4	0.0710744722734826	0	1	NaN	244	4	55	2	120	220	320	NaN	520	0.407649491913617	1	0	NaN	3616509.8864489	NaN	3616510.8698729	3616511.38642101
98	20	1	0	90	36.1581920903955	36.241610738255	18	0.600062903948128	2	1	6	NaN	1	3	0.0710744722734826	0	1	NaN	245	4	56	2	120	220	320	NaN	520	0.969769775867462	2	0	NaN	3616512.6199521	NaN	3616513.6034951	3616514.12000062
98	20	1	0	90	36.1581920903955	36.241610738255	16	0.533389247953892	2	12	6	NaN	2	3	0.0710744722734826	0	1	NaN	246	4	57	2	120	220	320	NaN	520	0.524064840283245	2	1	NaN	3616516.3537598	NaN	3616517.3371489	3616517.85371056
98	20	1	0	90	36.1581920903955	36.241610738255	14	0.466715591959655	2	5	4	NaN	1	4	0.0710744722734826	0	1	NaN	247	4	58	2	120	220	320	NaN	520	0.201890676282346	1	1	NaN	3616519.2040307	NaN	3616520.1874579	3616520.70397272
98	20	1	0	90	36.1581920903955	36.241610738255	7	0.233357795979828	2	2	3	NaN	1	5	0.0710744722734826	0	1	NaN	248	4	59	2	120	220	320	NaN	520	0.236551228445023	1	1	NaN	3616521.937647	NaN	3616522.921023	3616523.43758157
98	20	1	0	90	36.1581920903955	36.241610738255	20	0.666736559942365	2	3	4	NaN	1	3	0.0710744722734826	0	1	NaN	249	4	60	2	120	220	320	NaN	520	0.246449640020728	1	1	NaN	3616524.4877516	NaN	3616525.4712933	3616525.98782906
98	20	1	0	90	36.1581920903955	36.241610738255	7	0.233357795979828	2	9	4	NaN	2	3	0.0710744722734826	0	1	NaN	250	4	61	2	120	220	320	NaN	520	0.26300502428785	2	1	NaN	3616527.0547902	NaN	3616528.0381993	3616528.55475588
98	20	1	0	90	36.1581920903955	36.241610738255	14	0.466715591959655	2	1	4	NaN	1	3	0.0710744722734826	0	1	NaN	251	4	62	2	120	220	320	NaN	520	0.219388228375465	1	1	NaN	3616530.1381414	NaN	3616531.121871	3616531.63838447
98	20	1	0	90	36.1581920903955	36.241610738255	17	0.56672607595101	2	1	2	NaN	1	5	0.0710744722734826	0	1	NaN	252	4	63	2	120	220	320	NaN	520	0.24642272433266	1	1	NaN	3616532.6720296	NaN	3616533.6554423	3616534.17197228
98	20	1	0	90	36.1581920903955	36.241610738255	23	0.766747043933719	2	10	6	NaN	2	4	0.0710744722734826	0	1	NaN	253	5	1	2	120	220	320	NaN	520	0.33946233196184	2	1	NaN	3616550.0903903	NaN	3616551.0738286	3616551.59034157
98	20	1	0	90	36.1581920903955	36.241610738255	16	0.533389247953892	2	6	6	NaN	1	3	0.0710744722734826	0	1	NaN	254	5	2	2	120	220	320	NaN	520	0.360539724584669	1	1	NaN	3616552.7573428	NaN	3616553.740713	3616554.25727688
98	20	1	0	90	36.1581920903955	36.241610738255	21	0.700073387939483	2	11	4	NaN	2	4	0.0710744722734826	0	1	NaN	255	5	3	2	120	220	320	NaN	520	0.249976484104991	2	1	NaN	3616556.52437	NaN	3616557.5077811	3616558.02430822
98	20	1	0	90	36.1581920903955	36.241610738255	23	0.766747043933719	2	11	5	NaN	2	5	0.0710744722734826	0	1	NaN	256	5	4	2	120	220	320	NaN	520	1.06375198019668	1	0	NaN	3616559.5746628	NaN	3616560.5580921	3616561.07460102
98	20	1	0	90	36.1581920903955	36.241610738255	24	0.800083871930838	2	3	5	NaN	1	5	0.0710744722734826	0	1	NaN	257	5	5	2	120	220	320	NaN	520	0.199517576023936	1	1	NaN	3616562.958321	NaN	3616563.9417371	3616564.45825922
98	20	1	0	90	36.1581920903955	36.241610738255	25	0.833420699927956	2	8	1	NaN	2	4	0.0710744722734826	0	1	NaN	258	5	6	2	120	220	320	NaN	520	0.347432876005769	1	0	NaN	3616566.0586243	NaN	3616567.042064	3616567.55857262
98	20	1	0	90	36.1581920903955	36.241610738255	8	0.266694623976946	2	10	2	NaN	2	4	0.0710744722734826	0	1	NaN	259	5	7	2	120	220	320	NaN	520	0.234379875939339	1	0	NaN	3616568.8755771	NaN	3616569.8589806	3616570.37552762
98	20	1	0	90	36.1581920903955	36.241610738255	13	0.433378763962537	2	12	2	NaN	2	3	0.0710744722734826	0	1	NaN	260	5	8	2	120	220	320	NaN	520	0.0521458205766976	2	1	NaN	3616571.4256856	NaN	3616572.4092358	3616572.92575728
98	20	1	0	90	36.1581920903955	36.241610738255	21	0.700073387939483	2	4	1	NaN	1	3	0.0710744722734826	0	1	NaN	261	5	9	2	120	220	320	NaN	520	0.141430575866252	1	1	NaN	3616573.7927459	NaN	3616574.7761295	3616575.29266452
98	20	1	0	90	36.1581920903955	36.241610738255	11	0.366705107968301	2	1	4	NaN	1	5	0.0710744722734826	0	1	NaN	262	5	10	2	120	220	320	NaN	520	0.0864306758157909	2	0	NaN	3616576.359607	NaN	3616577.3430562	3616577.85958352
98	20	1	0	90	36.1581920903955	36.241610738255	7	0.233357795979828	2	8	5	NaN	2	5	0.0710744722734826	0	1	NaN	263	5	11	2	120	220	320	NaN	520	0.298120376188308	1	0	NaN	3616579.459947	NaN	3616580.4434306	3616580.95988062
98	20	1	0	90	36.1581920903955	36.241610738255	14	0.466715591959655	2	8	1	NaN	2	5	0.0710744722734826	0	1	NaN	264	5	12	2	120	220	320	NaN	520	0.585076180286705	2	1	NaN	3616582.0768765	NaN	3616583.0602737	3616583.57680722
98	20	1	0	90	36.1581920903955	36.241610738255	11	0.366705107968301	2	3	4	NaN	1	4	0.0710744722734826	0	1	NaN	265	5	13	2	120	220	320	NaN	520	0.284202275797725	2	0	NaN	3616584.9938245	NaN	3616585.9772622	3616586.49376192
98	20	1	0	90	36.1581920903955	36.241610738255	8	0.266694623976946	2	3	2	NaN	1	3	0.0710744722734826	0	1	NaN	266	5	14	2	120	220	320	NaN	520	0.271806475706398	1	1	NaN	3616588.094116	NaN	3616589.0775378	3616589.59406112
98	20	1	0	90	36.1581920903955	36.241610738255	14	0.466715591959655	2	4	5	NaN	1	4	0.0710744722734826	0	1	NaN	267	5	15	2	120	220	320	NaN	520	0.279734432231635	1	1	NaN	3616590.6943795	NaN	3616591.6777964	3616592.19431547
98	20	1	0	90	36.1581920903955	36.241610738255	14	0.466715591959655	2	11	2	NaN	2	5	0.0710744722734826	0	1	NaN	268	5	16	2	120	220	320	NaN	520	1.06548197614029	2	1	NaN	3616593.8446916	NaN	3616594.8281123	3616595.34463332
98	20	1	0	90	36.1581920903955	36.241610738255	20	0.666736559942365	2	10	6	NaN	2	4	0.0710744722734826	0	1	NaN	269	5	17	2	120	220	320	NaN	520	0.395281688310206	2	1	NaN	3616598.1951024	NaN	3616599.178552	3616599.69506111
98	20	1	0	90	36.1581920903955	36.241610738255	22	0.733410215936601	2	2	1	NaN	1	4	0.0710744722734826	0	1	NaN	270	5	18	2	120	220	320	NaN	520	0.0941031281836331	1	1	NaN	3616600.9120675	NaN	3616601.8954699	3616602.41200317
98	20	1	0	90	36.1581920903955	36.241610738255	10	0.333368279971182	2	10	5	NaN	2	3	0.0710744722734826	0	1	NaN	271	5	19	2	120	220	320	NaN	520	0.372882324270904	2	1	NaN	3616603.3288573	NaN	3616604.3123731	3616604.82888718
98	20	1	0	90	36.1581920903955	36.241610738255	21	0.700073387939483	2	12	3	NaN	2	5	0.0710744722734826	0	1	NaN	272	5	20	2	120	220	320	NaN	520	0.317060024477541	2	1	NaN	3616606.3292476	NaN	3616607.3126525	3616607.82918178
98	20	1	0	90	36.1581920903955	36.241610738255	13	0.433378763962537	2	9	3	NaN	2	3	0.0710744722734826	0	1	NaN	273	5	21	2	120	220	320	NaN	520	0.15839113201946	2	1	NaN	3616609.4795407	NaN	3616610.4629437	3616610.97949327
98	20	1	0	90	36.1581920903955	36.241610738255	16	0.533389247953892	2	2	4	NaN	1	5	0.0710744722734826	0	1	NaN	274	5	22	2	120	220	320	NaN	520	0.0749063761904836	2	0	NaN	3616611.9630034	NaN	3616612.9465196	3616613.46307172
98	20	1	0	90	36.1581920903955	36.241610738255	25	0.833420699927956	2	8	2	NaN	2	3	0.0710744722734826	0	1	NaN	275	5	23	2	120	220	320	NaN	520	0.457178975921124	2	1	NaN	3616616.3968895	NaN	3616617.3802998	3616617.89683462
98	20	1	0	90	36.1581920903955	36.241610738255	21	0.700073387939483	2	7	6	NaN	2	3	0.0710744722734826	0	1	NaN	276	5	24	2	120	220	320	NaN	520	0.105474228039384	2	1	NaN	3616619.1805115	NaN	3616620.1639231	3616620.68044147
98	20	1	0	90	36.1581920903955	36.241610738255	11	0.366705107968301	2	11	1	NaN	2	3	0.0710744722734826	0	1	NaN	277	5	25	2	120	220	320	NaN	520	0.208090224768966	2	1	NaN	3616621.6140884	NaN	3616622.5974799	3616623.11401038
98	20	1	0	90	36.1581920903955	36.241610738255	11	0.366705107968301	2	12	3	NaN	2	5	0.0710744722734826	0	1	NaN	278	5	26	2	120	220	320	NaN	520	0.426312843803316	2	1	NaN	3616624.1475342	NaN	3616625.1310741	3616625.64760436
98	20	1	0	90	36.1581920903955	36.241610738255	18	0.600062903948128	2	3	3	NaN	1	4	0.0710744722734826	0	1	NaN	279	5	27	2	120	220	320	NaN	520	0.212266476359218	1	1	NaN	3616626.8979281	NaN	3616627.8813133	3616628.39786452
98	20	1	0	90	36.1581920903955	36.241610738255	18	0.600062903948128	2	7	3	NaN	2	5	0.0710744722734826	0	1	NaN	280	5	28	2	120	220	320	NaN	520	0.168491275981069	2	1	NaN	3616629.5815359	NaN	3616630.5648429	3616631.08146222
98	20	1	0	90	36.1581920903955	36.241610738255	16	0.533389247953892	2	10	1	NaN	2	3	0.0710744722734826	0	1	NaN	281	5	29	2	120	220	320	NaN	520	0.208449284080416	2	1	NaN	3616632.1819161	NaN	3616633.1651978	3616633.68172432
98	20	1	0	90	36.1581920903955	36.241610738255	21	0.700073387939483	2	2	5	NaN	1	5	0.0710744722734826	0	1	NaN	282	5	30	2	120	220	320	NaN	520	0.352378528099507	1	1	NaN	3616634.7813709	NaN	3616635.7654614	3616636.28197887
98	20	1	0	90	36.1581920903955	36.241610738255	22	0.733410215936601	2	9	4	NaN	2	4	0.0710744722734826	0	1	NaN	283	5	31	2	120	220	320	NaN	520	0.244851528201252	2	1	NaN	3616637.4655076	NaN	3616638.4490642	3616638.96555997
98	20	1	0	90	36.1581920903955	36.241610738255	7	0.233357795979828	2	4	6	NaN	1	3	0.0710744722734826	0	1	NaN	284	5	32	2	120	220	320	NaN	520	0.317406276240945	1	1	NaN	3616640.032544	NaN	3616641.0159384	3616641.53248092
98	20	1	0	90	36.1581920903955	36.241610738255	14	0.466715591959655	2	2	3	NaN	1	5	0.0710744722734826	0	1	NaN	285	5	33	2	120	220	320	NaN	520	0.292290676385164	2	0	NaN	3616643.0660738	NaN	3616644.0495857	3616644.56612992
98	20	1	0	90	36.1581920903955	36.241610738255	16	0.533389247953892	2	8	5	NaN	2	3	0.0710744722734826	0	1	NaN	286	5	34	2	120	220	320	NaN	520	0.271037232130766	2	1	NaN	3616646.383146	NaN	3616647.3665713	3616647.88310287
98	20	1	0	90	36.1581920903955	36.241610738255	10	0.333368279971182	2	2	1	NaN	1	3	0.0710744722734826	0	1	NaN	287	5	35	2	120	220	320	NaN	520	0.68025772459805	1	1	NaN	3616651.5337085	NaN	3616652.5170931	3616653.03360318
98	20	1	0	90	36.1581920903955	36.241610738255	0	0	1	9	2	NaN	2	4	0.0710744722734826	0	1	NaN	288	5	36	2	110	210	310	NaN	510	0.304383975919336	1	0	NaN	3616654.5339697	NaN	3616655.5173841	3616656.03390502
98	20	1	0	90	36.1581920903955	36.241610738255	20	0.666736559942365	2	9	2	NaN	2	4	0.0710744722734826	0	1	NaN	289	5	37	2	120	220	320	NaN	520	0.275751343928277	1	0	NaN	3616657.6342578	NaN	3616658.6177027	3616659.13421806
98	20	1	0	90	36.1581920903955	36.241610738255	19	0.633399731945246	2	4	4	NaN	1	4	0.0710744722734826	0	1	NaN	290	5	38	2	120	220	320	NaN	520	0.64216977590695	2	0	NaN	3616660.2678661	NaN	3616661.251278	3616661.76780432
98	20	1	0	90	36.1581920903955	36.241610738255	18	0.600062903948128	2	2	6	NaN	1	5	0.0710744722734826	0	1	NaN	291	5	39	2	120	220	320	NaN	520	0.331331828609109	1	1	NaN	3616663.2348391	NaN	3616664.21823	3616664.73476047
98	20	1	0	90	36.1581920903955	36.241610738255	20	0.666736559942365	2	7	2	NaN	2	4	0.0710744722734826	0	1	NaN	292	5	40	2	120	220	320	NaN	520	0.737020928412676	1	0	NaN	3616665.8850928	NaN	3616666.8685222	3616667.38503767
98	20	1	0	90	36.1581920903955	36.241610738255	6	0.200020967982709	2	5	5	NaN	1	4	0.0710744722734826	0	1	NaN	293	5	41	2	120	220	320	NaN	520	0.638980675954372	1	1	NaN	3616668.9352543	NaN	3616669.9187827	3616670.43532952
98	20	1	0	90	36.1581920903955	36.241610738255	25	0.833420699927956	2	6	6	NaN	1	4	0.0710744722734826	0	1	NaN	294	5	42	2	120	220	320	NaN	520	0.416139476001263	1	1	NaN	3616671.9023736	NaN	3616672.8857492	3616673.40228832
98	20	1	0	90	36.1581920903955	36.241610738255	25	0.833420699927956	2	1	1	NaN	1	3	0.0710744722734826	0	1	NaN	295	5	43	2	120	220	320	NaN	520	0.513982476200908	1	1	NaN	3616674.6526055	NaN	3616675.6360258	3616676.15254042
98	20	1	0	90	36.1581920903955	36.241610738255	23	0.766747043933719	2	9	5	NaN	2	3	0.0710744722734826	0	1	NaN	296	5	44	2	120	220	320	NaN	520	0.455754227936268	2	1	NaN	3616677.486342	NaN	3616678.4696205	3616678.98617947
98	20	1	0	90	36.1581920903955	36.241610738255	24	0.800083871930838	2	2	6	NaN	1	4	0.0710744722734826	0	1	NaN	297	5	45	2	120	220	320	NaN	520	0.42679967591539	1	1	NaN	3616680.4198169	NaN	3616681.4032525	3616681.91977252
98	20	1	0	90	36.1581920903955	36.241610738255	18	0.600062903948128	2	11	1	NaN	2	3	0.0710744722734826	0	1	NaN	298	5	46	2	120	220	320	NaN	520	0.324012024328113	2	1	NaN	3616683.1699904	NaN	3616684.1535051	3616684.67004838
98	20	1	0	90	36.1581920903955	36.241610738255	14	0.466715591959655	2	2	4	NaN	1	5	0.0710744722734826	0	1	NaN	299	5	47	2	120	220	320	NaN	520	0.273779876064509	2	0	NaN	3616685.8203731	NaN	3616686.803734	3616687.32030982
98	20	1	0	90	36.1581920903955	36.241610738255	6	0.200020967982709	2	4	6	NaN	1	3	0.0710744722734826	0	1	NaN	300	5	48	2	120	220	320	NaN	520	0.259814172051847	1	1	NaN	3616688.5706357	NaN	3616689.5540477	3616690.07056553
98	20	1	0	90	36.1581920903955	36.241610738255	12	0.400041935965419	2	12	2	NaN	2	5	0.0710744722734826	0	1	NaN	301	5	49	2	120	220	320	NaN	520	0.449068075977266	2	1	NaN	3616692.2208613	NaN	3616693.204405	3616693.72093032
98	20	1	0	90	36.1581920903955	36.241610738255	12	0.400041935965419	2	9	4	NaN	2	3	0.0710744722734826	0	1	NaN	302	5	50	2	120	220	320	NaN	520	0.440950447693467	2	1	NaN	3616695.0212799	NaN	3616696.0047069	3616696.52122935
98	20	1	0	90	36.1581920903955	36.241610738255	6	0.200020967982709	2	2	1	NaN	1	4	0.0710744722734826	0	1	NaN	303	5	51	2	120	220	320	NaN	520	0.201991640031338	1	1	NaN	3616697.7882134	NaN	3616698.7716382	3616699.28814326
98	20	1	0	90	36.1581920903955	36.241610738255	22	0.733410215936601	2	8	4	NaN	2	5	0.0710744722734826	0	1	NaN	304	5	52	2	120	220	320	NaN	520	0.997041080612689	2	1	NaN	3616700.3049969	NaN	3616701.2885188	3616701.80505392
98	20	1	0	90	36.1581920903955	36.241610738255	15	0.500052419956774	2	7	4	NaN	2	4	0.0710744722734826	0	1	NaN	305	5	53	2	120	220	320	NaN	520	0.112070275936276	1	0	NaN	3616703.6219821	NaN	3616704.6055092	3616705.12204432
98	20	1	0	90	36.1581920903955	36.241610738255	19	0.633399731945246	2	2	3	NaN	1	5	0.0710744722734826	0	1	NaN	306	5	54	2	120	220	320	NaN	520	0.198399095796049	1	1	NaN	3616706.0555967	NaN	3616707.0391203	3616707.5556785
98	20	1	0	90	36.1581920903955	36.241610738255	11	0.366705107968301	2	5	4	NaN	1	5	0.0710744722734826	0	1	NaN	307	5	55	2	120	220	320	NaN	520	0.746136975940317	1	1	NaN	3616708.5724876	NaN	3616709.556018	3616710.07254222
98	20	1	0	90	36.1581920903955	36.241610738255	8	0.266694623976946	2	8	3	NaN	2	4	0.0710744722734826	0	1	NaN	308	5	56	2	120	220	320	NaN	520	0.214987124316394	1	0	NaN	3616711.6394443	NaN	3616712.6229795	3616713.13950158
98	20	1	0	90	36.1581920903955	36.241610738255	22	0.733410215936601	2	7	4	NaN	2	5	0.0710744722734826	0	1	NaN	309	5	57	2	120	220	320	NaN	520	2.4683426762931	1	0	NaN	3616715.8899786	NaN	3616716.8733782	3616717.38990622
98	20	1	0	90	36.1581920903955	36.241610738255	8	0.266694623976946	2	9	3	NaN	2	4	0.0710744722734826	0	1	NaN	310	5	58	2	120	220	320	NaN	520	2.27577619161457	2	1	NaN	3616720.6904444	NaN	3616721.6739377	3616722.19040171
98	20	1	0	90	36.1581920903955	36.241610738255	21	0.700073387939483	2	4	2	NaN	1	4	0.0710744722734826	0	1	NaN	311	5	59	2	120	220	320	NaN	520	1.12315942812711	1	1	NaN	3616725.2909161	NaN	3616726.2743218	3616726.79083737
98	20	1	0	90	36.1581920903955	36.241610738255	12	0.400041935965419	2	2	5	NaN	1	4	0.0710744722734826	0	1	NaN	312	5	60	2	120	220	320	NaN	520	0.296967224217951	2	0	NaN	3616728.7412361	NaN	3616729.7246605	3616730.24116808
98	20	1	0	90	36.1581920903955	36.241610738255	8	0.266694623976946	2	7	4	NaN	2	5	0.0710744722734826	0	1	NaN	313	5	61	2	120	220	320	NaN	520	1.24239722825587	1	0	NaN	3616731.9075561	NaN	3616732.8915009	3616733.40814767
98	20	1	0	90	36.1581920903955	36.241610738255	11	0.366705107968301	2	8	3	NaN	2	4	0.0710744722734826	0	1	NaN	314	5	62	2	120	220	320	NaN	520	0.235043775755912	2	1	NaN	3616735.4752183	NaN	3616736.4586598	3616736.97516082
98	20	1	0	90	36.1581920903955	36.241610738255	16	0.533389247953892	2	1	1	NaN	1	5	0.0710744722734826	0	1	NaN	315	5	63	2	120	220	320	NaN	520	1.07192117581144	1	1	NaN	3616738.5421798	NaN	3616739.5254746	3616740.04212792
98	20	1	0	90	36.1581920903955	36.241610738255	17	0.56672607595101	2	8	4	NaN	2	3	0.0710744722734826	0	1	NaN	316	6	1	2	120	220	320	NaN	520	0.299915384035558	2	1	NaN	3616753.0102957	NaN	3616753.9937097	3616754.51022602
98	20	1	0	90	36.1581920903955	36.241610738255	17	0.56672607595101	2	6	1	NaN	1	5	0.0710744722734826	0	1	NaN	317	6	2	2	120	220	320	NaN	520	0.186302491929382	1	1	NaN	3616755.6438746	NaN	3616756.6272929	3616757.14383091
98	20	1	0	90	36.1581920903955	36.241610738255	9	0.300031451974064	2	7	5	NaN	2	3	0.0710744722734826	0	1	NaN	318	6	3	2	120	220	320	NaN	520	0.278176175896078	2	1	NaN	3616758.1441041	NaN	3616759.1275113	3616759.64405632
98	20	1	0	90	36.1581920903955	36.241610738255	7	0.233357795979828	2	5	1	NaN	1	4	0.0710744722734826	0	1	NaN	319	6	4	2	120	220	320	NaN	520	0.0104900756850839	1	1	NaN	3616760.74449	NaN	3616761.7277834	3616762.24430682
98	20	1	0	90	36.1581920903955	36.241610738255	23	0.766747043933719	2	4	5	NaN	1	5	0.0710744722734826	0	1	NaN	320	6	5	2	120	220	320	NaN	520	0.336247331928462	1	1	NaN	3616763.0780414	NaN	3616764.0613411	3616764.57787647
98	20	1	0	90	36.1581920903955	36.241610738255	0	0	1	1	6	NaN	1	3	0.0710744722734826	0	1	NaN	321	6	6	2	110	210	310	NaN	510	0.305315587669611	1	1	NaN	3616765.8448695	NaN	3616766.8283095	3616767.34481271
98	20	1	0	90	36.1581920903955	36.241610738255	16	0.533389247953892	2	4	2	NaN	1	4	0.0710744722734826	0	1	NaN	322	6	7	2	120	220	320	NaN	520	0.408404524438083	1	1	NaN	3616768.4618105	NaN	3616769.4452141	3616769.96173068
98	20	1	0	90	36.1581920903955	36.241610738255	25	0.833420699927956	2	3	5	NaN	1	5	0.0710744722734826	0	1	NaN	323	6	8	2	120	220	320	NaN	520	0.208913972135633	1	1	NaN	3616771.645446	NaN	3616772.6288568	3616773.14537733
98	20	1	0	90	36.1581920903955	36.241610738255	17	0.56672607595101	2	9	5	NaN	2	5	0.0710744722734826	0	1	NaN	324	6	9	2	120	220	320	NaN	520	0.6431670403108	1	0	NaN	3616774.1790253	NaN	3616775.1623963	3616775.67895756
98	20	1	0	90	36.1581920903955	36.241610738255	6	0.200020967982709	2	1	3	NaN	1	3	0.0710744722734826	0	1	NaN	325	6	10	2	120	220	320	NaN	520	0.260210568085313	1	1	NaN	3616777.1458645	NaN	3616778.129341	3616778.64590733
98	20	1	0	90	36.1581920903955	36.241610738255	18	0.600062903948128	2	9	1	NaN	2	4	0.0710744722734826	0	1	NaN	326	6	11	2	120	220	320	NaN	520	0.224827920552343	2	1	NaN	3616780.0295346	NaN	3616781.0130102	3616781.52952448
98	20	1	0	90	36.1581920903955	36.241610738255	24	0.800083871930838	2	6	5	NaN	1	5	0.0710744722734826	0	1	NaN	327	6	12	2	120	220	320	NaN	520	0.258475276175886	1	1	NaN	3616782.5798405	NaN	3616783.5632763	3616784.07978522
98	20	1	0	90	36.1581920903955	36.241610738255	24	0.800083871930838	2	7	6	NaN	2	3	0.0710744722734826	0	1	NaN	328	6	13	2	120	220	320	NaN	520	0.266427976079285	2	1	NaN	3616785.5801126	NaN	3616786.5637182	3616787.08007602
98	20	1	0	90	36.1581920903955	36.241610738255	12	0.400041935965419	2	12	2	NaN	2	3	0.0710744722734826	0	1	NaN	329	6	14	2	120	220	320	NaN	520	0.34292567614466	2	1	NaN	3616789.4470277	NaN	3616790.4305921	3616790.94712722
98	20	1	0	90	36.1581920903955	36.241610738255	23	0.766747043933719	2	5	5	NaN	1	3	0.0710744722734826	0	1	NaN	330	6	15	2	120	220	320	NaN	520	0.820091876201332	1	1	NaN	3616792.1141115	NaN	3616793.097529	3616793.61404272
98	20	1	0	90	36.1581920903955	36.241610738255	24	0.800083871930838	2	9	6	NaN	2	4	0.0710744722734826	0	1	NaN	331	6	16	2	120	220	320	NaN	520	0.26265678787604	2	1	NaN	3616795.2478213	NaN	3616796.2311617	3616796.74768461
98	20	1	0	90	36.1581920903955	36.241610738255	16	0.533389247953892	2	9	3	NaN	2	5	0.0710744722734826	0	1	NaN	332	6	17	2	120	220	320	NaN	520	0.571540184319019	2	1	NaN	3616798.3147271	NaN	3616799.2981367	3616799.81465232
98	20	1	0	90	36.1581920903955	36.241610738255	17	0.56672607595101	2	9	6	NaN	2	4	0.0710744722734826	0	1	NaN	333	6	18	2	120	220	320	NaN	520	0.0474434243515134	2	1	NaN	3616801.2148412	NaN	3616802.1984112	3616802.71493198
98	20	1	0	90	36.1581920903955	36.241610738255	6	0.200020967982709	2	8	2	NaN	2	4	0.0710744722734826	0	1	NaN	334	6	19	2	120	220	320	NaN	520	0.466038975864649	2	1	NaN	3616804.3485822	NaN	3616805.3320782	3616805.84858142
98	20	1	0	90	36.1581920903955	36.241610738255	20	0.666736559942365	2	10	5	NaN	2	5	0.0710744722734826	0	1	NaN	335	6	20	2	120	220	320	NaN	520	0.301465228199959	2	1	NaN	3616807.4489351	NaN	3616808.4323377	3616808.94889037
98	20	1	0	90	36.1581920903955	36.241610738255	16	0.533389247953892	2	1	2	NaN	1	3	0.0710744722734826	0	1	NaN	336	6	21	2	120	220	320	NaN	520	0.716409176122397	1	1	NaN	3616810.0658891	NaN	3616811.0492863	3616811.56580582
98	20	1	0	90	36.1581920903955	36.241610738255	7	0.233357795979828	2	1	4	NaN	1	3	0.0710744722734826	0	1	NaN	337	6	22	2	120	220	320	NaN	520	0.210910028312355	1	1	NaN	3616813.0995101	NaN	3616814.0829433	3616814.59943797
98	20	1	0	90	36.1581920903955	36.241610738255	17	0.56672607595101	2	10	6	NaN	2	4	0.0710744722734826	0	1	NaN	338	6	23	2	120	220	320	NaN	520	0.709118992090225	2	1	NaN	3616815.6330733	NaN	3616816.6164829	3616817.13302161
98	20	1	0	90	36.1581920903955	36.241610738255	6	0.200020967982709	2	12	2	NaN	2	5	0.0710744722734826	0	1	NaN	339	6	24	2	120	220	320	NaN	520	0.828209876082838	2	1	NaN	3616818.6500362	NaN	3616819.6334765	3616820.14997652
98	20	1	0	90	36.1581920903955	36.241610738255	10	0.333368279971182	2	6	2	NaN	1	4	0.0710744722734826	0	1	NaN	340	6	25	2	120	220	320	NaN	520	0.397840776015073	1	1	NaN	3616821.8003618	NaN	3616822.7838017	3616823.30030162
98	20	1	0	90	36.1581920903955	36.241610738255	14	0.466715591959655	2	3	6	NaN	1	3	0.0710744722734826	0	1	NaN	341	6	26	2	120	220	320	NaN	520	0.361100124195218	1	1	NaN	3616824.5174101	NaN	3616825.5007092	3616826.01722768
98	20	1	0	90	36.1581920903955	36.241610738255	24	0.800083871930838	2	12	2	NaN	2	5	0.0710744722734826	0	1	NaN	342	6	27	2	120	220	320	NaN	520	0.989466424100101	2	1	NaN	3616827.200883	NaN	3616828.1843179	3616828.70081758
98	20	1	0	90	36.1581920903955	36.241610738255	0	0	1	8	1	NaN	2	4	0.0710744722734826	0	1	NaN	343	6	28	2	110	210	310	NaN	510	0.632604976184666	2	1	NaN	3616830.517877	NaN	3616831.5012862	3616832.01780812
98	20	1	0	90	36.1581920903955	36.241610738255	9	0.300031451974064	2	12	5	NaN	2	3	0.0710744722734826	0	1	NaN	344	6	29	2	120	220	320	NaN	520	1.29755660006776	1	0	NaN	3616837.4851442	NaN	3616838.4686371	3616838.9851785
98	20	1	0	90	36.1581920903955	36.241610738255	23	0.766747043933719	2	6	5	NaN	1	4	0.0710744722734826	0	1	NaN	345	6	30	2	120	220	320	NaN	520	0.450564676430076	1	1	NaN	3616841.4522818	NaN	3616842.4356953	3616842.95222572
98	20	1	0	90	36.1581920903955	36.241610738255	0	0	1	2	3	NaN	1	5	0.0710744722734826	0	1	NaN	346	6	31	2	110	210	310	NaN	510	0.275188528001308	1	1	NaN	3616844.2192087	NaN	3616845.202639	3616845.71915687
98	20	1	0	90	36.1581920903955	36.241610738255	11	0.366705107968301	2	12	4	NaN	2	3	0.0710744722734826	0	1	NaN	347	6	32	2	120	220	320	NaN	520	0.874882183969021	2	1	NaN	3616846.8194576	NaN	3616847.8028679	3616848.31940892
98	20	1	0	90	36.1581920903955	36.241610738255	14	0.466715591959655	2	7	1	NaN	2	5	0.0710744722734826	0	1	NaN	348	6	33	2	120	220	320	NaN	520	0.306490868330002	2	1	NaN	3616850.0197928	NaN	3616851.0033147	3616851.51972193
98	20	1	0	90	36.1581920903955	36.241610738255	23	0.766747043933719	2	6	5	NaN	1	5	0.0710744722734826	0	1	NaN	349	6	34	2	120	220	320	NaN	520	0.505099328234792	1	1	NaN	3616852.6533866	NaN	3616853.6367918	3616854.15331397
98	20	1	0	90	36.1581920903955	36.241610738255	23	0.766747043933719	2	4	4	NaN	1	5	0.0710744722734826	0	1	NaN	350	6	35	2	120	220	320	NaN	520	0.799241575878114	1	1	NaN	3616855.48698	NaN	3616856.4704319	3616856.98692342
98	20	1	0	90	36.1581920903955	36.241610738255	21	0.700073387939483	2	5	4	NaN	1	5	0.0710744722734826	0	1	NaN	351	6	36	2	120	220	320	NaN	520	3.85556667577475	2	0	NaN	3616858.8706601	NaN	3616859.8540683	3616860.37058882
98	20	1	0	90	36.1581920903955	36.241610738255	14	0.466715591959655	2	10	6	NaN	2	3	0.0710744722734826	0	1	NaN	352	6	37	2	120	220	320	NaN	520	0.648333548102528	2	1	NaN	3616865.0545795	NaN	3616866.0379934	3616866.55455155
98	20	1	0	90	36.1581920903955	36.241610738255	10	0.333368279971182	2	6	2	NaN	1	5	0.0710744722734826	0	1	NaN	353	6	38	2	120	220	320	NaN	520	1.24114927602932	1	1	NaN	3616868.0215386	NaN	3616869.0049917	3616869.52148202
98	20	1	0	90	36.1581920903955	36.241610738255	12	0.400041935965419	2	11	6	NaN	2	4	0.0710744722734826	0	1	NaN	354	6	39	2	120	220	320	NaN	520	0.313981876242906	2	1	NaN	3616871.5885678	NaN	3616872.5719743	3616873.08849362
98	20	1	0	90	36.1581920903955	36.241610738255	20	0.666736559942365	2	11	5	NaN	2	5	0.0710744722734826	0	1	NaN	355	6	40	2	120	220	320	NaN	520	1.24858847633004	2	1	NaN	3616875.4222955	NaN	3616876.4056949	3616876.92221082
98	20	1	0	90	36.1581920903955	36.241610738255	8	0.266694623976946	2	12	5	NaN	2	5	0.0710744722734826	0	1	NaN	356	6	41	2	120	220	320	NaN	520	0.969051076099277	1	0	NaN	3616878.9892845	NaN	3616879.9727061	3616880.48922442
98	20	1	0	90	36.1581920903955	36.241610738255	6	0.200020967982709	2	7	6	NaN	2	5	0.0710744722734826	0	1	NaN	357	6	42	2	120	220	320	NaN	520	0.292693780269474	2	1	NaN	3616882.2896636	NaN	3616883.2730322	3616883.78954682
98	20	1	0	90	36.1581920903955	36.241610738255	10	0.333368279971182	2	1	3	NaN	1	3	0.0710744722734826	0	1	NaN	358	6	43	2	120	220	320	NaN	520	0.378960480447859	1	1	NaN	3616885.1398885	NaN	3616886.1232571	3616886.63982312
98	20	1	0	90	36.1581920903955	36.241610738255	9	0.300031451974064	2	3	4	NaN	1	4	0.0710744722734826	0	1	NaN	359	6	44	2	120	220	320	NaN	520	1.30343862809241	2	0	NaN	3616888.6069244	NaN	3616889.5903135	3616890.10683277
98	20	1	0	90	36.1581920903955	36.241610738255	14	0.466715591959655	2	5	5	NaN	1	5	0.0710744722734826	0	1	NaN	360	6	45	2	120	220	320	NaN	520	0.173822831828147	1	1	NaN	3616892.2405685	NaN	3616893.2240067	3616893.74052207
98	20	1	0	90	36.1581920903955	36.241610738255	17	0.56672607595101	2	12	1	NaN	2	5	0.0710744722734826	0	1	NaN	361	6	46	2	120	220	320	NaN	520	1.16812627622858	2	1	NaN	3616897.1743919	NaN	3616898.1578164	3616898.67433982
98	20	1	0	90	36.1581920903955	36.241610738255	23	0.766747043933719	2	7	5	NaN	2	3	0.0710744722734826	0	1	NaN	362	6	47	2	120	220	320	NaN	520	1.24286729190499	2	1	NaN	3616900.9080197	NaN	3616901.891501	3616902.40804561
98	20	1	0	90	36.1581920903955	36.241610738255	0	0	1	7	5	NaN	2	3	0.0710744722734826	0	1	NaN	363	6	48	2	110	210	310	NaN	510	0.339581031817943	1	0	NaN	3616937.394893	NaN	3616938.3784231	3616938.89495157
98	20	1	0	90	36.1581920903955	36.241610738255	0	0	1	11	2	NaN	2	3	0.0710744722734826	0	1	NaN	364	6	49	2	110	210	310	NaN	510	0.793053040280938	1	0	NaN	3616940.045264	NaN	3616941.0286917	3616941.54522346
98	20	1	0	90	36.1581920903955	36.241610738255	10	0.333368279971182	2	8	4	NaN	2	4	0.0710744722734826	0	1	NaN	365	6	50	2	120	220	320	NaN	520	0.156319427769631	1	0	NaN	3616943.1622645	NaN	3616944.1456557	3616944.66217877
98	20	1	0	90	36.1581920903955	36.241610738255	8	0.266694623976946	2	7	2	NaN	2	3	0.0710744722734826	0	1	NaN	366	6	51	2	120	220	320	NaN	520	0.160947120282799	2	1	NaN	3616945.6458281	NaN	3616946.6292214	3616947.14574518
98	20	1	0	90	36.1581920903955	36.241610738255	16	0.533389247953892	2	2	2	NaN	1	5	0.0710744722734826	0	1	NaN	367	6	52	2	120	220	320	NaN	520	0.0771357761695981	1	1	NaN	3616948.12946	NaN	3616949.1127858	3616949.62933302
98	20	1	0	90	36.1581920903955	36.241610738255	6	0.200020967982709	2	12	6	NaN	2	3	0.0710744722734826	0	1	NaN	368	6	53	2	120	220	320	NaN	520	0.261372175998986	1	0	NaN	3616950.5295233	NaN	3616951.5130561	3616952.02957052
98	20	1	0	90	36.1581920903955	36.241610738255	23	0.766747043933719	2	8	3	NaN	2	5	0.0710744722734826	0	1	NaN	369	6	54	2	120	220	320	NaN	520	0.277731440030038	1	0	NaN	3616953.1132188	NaN	3616954.096605	3616954.61316186
98	20	1	0	90	36.1581920903955	36.241610738255	19	0.633399731945246	2	9	3	NaN	2	3	0.0710744722734826	0	1	NaN	370	6	55	2	120	220	320	NaN	520	0.0371029241941869	2	1	NaN	3616955.7134691	NaN	3616956.6969231	3616957.21340168
98	20	1	0	90	36.1581920903955	36.241610738255	9	0.300031451974064	2	5	6	NaN	1	4	0.0710744722734826	0	1	NaN	371	6	56	2	120	220	320	NaN	520	0.0621594763360918	1	1	NaN	3616958.0803674	NaN	3616959.0637809	3616959.58031232
98	20	1	0	90	36.1581920903955	36.241610738255	13	0.433378763962537	2	6	1	NaN	1	3	0.0710744722734826	0	1	NaN	372	6	57	2	120	220	320	NaN	520	0.0605828803963959	1	1	NaN	3616960.5139307	NaN	3616961.4973694	3616962.01388882
98	20	1	0	90	36.1581920903955	36.241610738255	13	0.433378763962537	2	4	4	NaN	1	5	0.0710744722734826	0	1	NaN	373	6	58	2	120	220	320	NaN	520	0.157508871983737	1	1	NaN	3616962.8974904	NaN	3616963.8808935	3616964.39743973
98	20	1	0	90	36.1581920903955	36.241610738255	22	0.733410215936601	2	5	3	NaN	1	4	0.0710744722734826	0	1	NaN	374	6	59	2	120	220	320	NaN	520	0.289836675859988	2	0	NaN	3616965.3810779	NaN	3616966.3644904	3616966.88102252
98	20	1	0	90	36.1581920903955	36.241610738255	7	0.233357795979828	2	12	4	NaN	2	4	0.0710744722734826	0	1	NaN	375	6	60	2	120	220	320	NaN	520	0.23270269157365	2	1	NaN	3616967.9978735	NaN	3616968.9814501	3616969.49795291
98	20	1	0	90	36.1581920903955	36.241610738255	0	0	1	4	5	NaN	1	3	0.0710744722734826	0	1	NaN	376	6	61	2	110	210	310	NaN	510	0.194401876069605	1	1	NaN	3616970.5482728	NaN	3616971.5316872	3616972.04819132
98	20	1	0	90	36.1581920903955	36.241610738255	9	0.300031451974064	2	9	6	NaN	2	4	0.0710744722734826	0	1	NaN	377	6	62	2	120	220	320	NaN	520	0.261355784256011	2	1	NaN	3616973.0651738	NaN	3616974.0486234	3616974.56510162
98	20	1	0	90	36.1581920903955	36.241610738255	0	0	1	6	6	NaN	1	5	0.0710744722734826	0	1	NaN	378	6	63	2	110	210	310	NaN	510	0.142482928000391	1	1	NaN	3616976.0321129	NaN	3616977.0155332	3616977.53205687
98	20	1	0	90	36.1581920903955	36.241610738255	0	0	1	10	6	NaN	2	4	0.0710744722734826	0	1	NaN	379	7	1	2	110	210	310	NaN	510	0.18087409157306	2	1	NaN	3616992.0336951	NaN	3616993.0170766	3616993.53363351
98	20	1	0	90	36.1581920903955	36.241610738255	15	0.500052419956774	2	6	1	NaN	1	5	0.0710744722734826	0	1	NaN	380	7	2	2	120	220	320	NaN	520	0.0105136721394956	1	1	NaN	3616994.7499592	NaN	3616995.7340331	3616996.25055913
98	20	1	0	90	36.1581920903955	36.241610738255	12	0.400041935965419	2	11	6	NaN	2	3	0.0710744722734826	0	1	NaN	381	7	3	2	120	220	320	NaN	520	0.0823021759279072	2	1	NaN	3616997.0841948	NaN	3616998.0675989	3616998.58414422
98	20	1	0	90	36.1581920903955	36.241610738255	15	0.500052419956774	2	10	3	NaN	2	5	0.0710744722734826	0	1	NaN	382	7	4	2	120	220	320	NaN	520	0.237748424522579	2	1	NaN	3616999.6010797	NaN	3617000.5845343	3617001.10103288
98	20	1	0	90	36.1581920903955	36.241610738255	7	0.233357795979828	2	11	3	NaN	2	4	0.0710744722734826	0	1	NaN	383	7	5	2	120	220	320	NaN	520	0.287344472017139	2	1	NaN	3617002.1513441	NaN	3617003.1347424	3617003.65128563
98	20	1	0	90	36.1581920903955	36.241610738255	10	0.333368279971182	2	12	3	NaN	2	4	0.0710744722734826	0	1	NaN	384	7	6	2	120	220	320	NaN	520	0.44698957586661	2	1	NaN	3617004.7516398	NaN	3617005.7350176	3617006.25154132
98	20	1	0	90	36.1581920903955	36.241610738255	21	0.700073387939483	2	7	5	NaN	2	5	0.0710744722734826	0	1	NaN	385	7	7	2	120	220	320	NaN	520	0.280185699928552	2	1	NaN	3617007.5185665	NaN	3617008.5019342	3617009.0184948
98	20	1	0	90	36.1581920903955	36.241610738255	11	0.366705107968301	2	8	6	NaN	2	4	0.0710744722734826	0	1	NaN	386	7	8	2	120	220	320	NaN	520	0.871678987983614	2	1	NaN	3617010.1188188	NaN	3617011.1022148	3617011.61873171
98	20	1	0	90	36.1581920903955	36.241610738255	25	0.833420699927956	2	2	2	NaN	1	4	0.0710744722734826	0	1	NaN	387	7	9	2	120	220	320	NaN	520	0.183610076084733	1	1	NaN	3617013.319097	NaN	3617014.3025147	3617014.81903992
98	20	1	0	90	36.1581920903955	36.241610738255	12	0.400041935965419	2	2	5	NaN	1	3	0.0710744722734826	0	1	NaN	388	7	10	2	120	220	320	NaN	520	0.23671762412414	1	1	NaN	3617016.186063	NaN	3617017.1694706	3617017.68598938
98	20	1	0	90	36.1581920903955	36.241610738255	8	0.266694623976946	2	9	4	NaN	2	3	0.0710744722734826	0	1	NaN	389	7	11	2	120	220	320	NaN	520	0.31875622458756	2	1	NaN	3617018.7362978	NaN	3617019.7196358	3617020.23623668
98	20	1	0	90	36.1581920903955	36.241610738255	10	0.333368279971182	2	7	2	NaN	2	3	0.0710744722734826	0	1	NaN	390	7	12	2	120	220	320	NaN	520	0.0767480283975601	1	0	NaN	3617021.3698277	NaN	3617022.3533167	3617022.86983227
98	20	1	0	90	36.1581920903955	36.241610738255	25	0.833420699927956	2	10	3	NaN	2	3	0.0710744722734826	0	1	NaN	391	7	13	2	120	220	320	NaN	520	0.172513472381979	1	0	NaN	3617023.7701318	NaN	3617024.753534	3617025.27006933
98	20	1	0	90	36.1581920903955	36.241610738255	19	0.633399731945246	2	6	4	NaN	1	3	0.0710744722734826	0	1	NaN	392	7	14	2	120	220	320	NaN	520	0.120909076184034	1	1	NaN	3617026.2537216	NaN	3617027.2371279	3617027.75367382
98	20	1	0	90	36.1581920903955	36.241610738255	22	0.733410215936601	2	12	4	NaN	2	4	0.0710744722734826	0	1	NaN	393	7	15	2	120	220	320	NaN	520	0.250773991923779	2	1	NaN	3617028.8038731	NaN	3617029.7873418	3617030.30390211
98	20	1	0	90	36.1581920903955	36.241610738255	8	0.266694623976946	2	4	1	NaN	1	4	0.0710744722734826	0	1	NaN	394	7	16	2	120	220	320	NaN	520	0.260093928314745	1	1	NaN	3617031.3707721	NaN	3617032.3542992	3617032.87081667
98	20	1	0	90	36.1581920903955	36.241610738255	16	0.533389247953892	2	5	3	NaN	1	5	0.0710744722734826	0	1	NaN	395	7	17	2	120	220	320	NaN	520	0.424649676308036	2	0	NaN	3617034.0543597	NaN	3617035.0378869	3617035.55441582
98	20	1	0	90	36.1581920903955	36.241610738255	13	0.433378763962537	2	10	4	NaN	2	4	0.0710744722734826	0	1	NaN	396	7	18	2	120	220	320	NaN	520	0.19668761594221	2	1	NaN	3617036.9374	NaN	3617037.9214629	3617038.43803198
98	20	1	0	90	36.1581920903955	36.241610738255	19	0.633399731945246	2	7	3	NaN	2	3	0.0710744722734826	0	1	NaN	397	7	19	2	120	220	320	NaN	520	0.231715224683285	1	0	NaN	3617039.4548583	NaN	3617040.4384182	3617040.95493968
98	20	1	0	90	36.1581920903955	36.241610738255	10	0.333368279971182	2	11	1	NaN	2	5	0.0710744722734826	0	1	NaN	398	7	20	2	120	220	320	NaN	520	0.161342675797641	2	1	NaN	3617042.0051549	NaN	3617042.9886491	3617043.50519752
98	20	1	0	90	36.1581920903955	36.241610738255	23	0.766747043933719	2	12	6	NaN	2	4	0.0710744722734826	0	1	NaN	399	7	21	2	120	220	320	NaN	520	0.317814475856721	2	1	NaN	3617044.4888322	NaN	3617045.472246	3617045.98879082
98	20	1	0	90	36.1581920903955	36.241610738255	24	0.800083871930838	2	1	5	NaN	1	4	0.0710744722734826	0	1	NaN	400	7	22	2	120	220	320	NaN	520	0.243690476287156	2	0	NaN	3617047.1390759	NaN	3617048.1225847	3617048.63902952
98	20	1	0	90	36.1581920903955	36.241610738255	10	0.333368279971182	2	5	4	NaN	1	5	0.0710744722734826	0	1	NaN	401	7	23	2	120	220	320	NaN	520	0.148547880351543	2	0	NaN	3617049.705892	NaN	3617050.689423	3617051.20595022
98	20	1	0	90	36.1581920903955	36.241610738255	21	0.700073387939483	2	2	2	NaN	1	5	0.0710744722734826	0	1	NaN	402	7	24	2	120	220	320	NaN	520	0.341936624608934	1	1	NaN	3617052.2729833	NaN	3617053.2563539	3617053.77286388
98	20	1	0	90	36.1581920903955	36.241610738255	7	0.233357795979828	2	6	2	NaN	1	3	0.0710744722734826	0	1	NaN	403	7	25	2	120	220	320	NaN	520	0.259164276067168	1	1	NaN	3617054.9398427	NaN	3617055.923257	3617056.43979362
98	20	1	0	90	36.1581920903955	36.241610738255	7	0.233357795979828	2	1	3	NaN	1	3	0.0710744722734826	0	1	NaN	404	7	26	2	120	220	320	NaN	520	0.307222528383136	1	1	NaN	3617057.5234617	NaN	3617058.5068327	3617059.02337117
98	20	1	0	90	36.1581920903955	36.241610738255	14	0.466715591959655	2	6	4	NaN	1	5	0.0710744722734826	0	1	NaN	405	7	27	2	120	220	320	NaN	520	0.385655828285962	1	1	NaN	3617060.1568852	NaN	3617061.1404715	3617061.65699397
98	20	1	0	90	36.1581920903955	36.241610738255	18	0.600062903948128	2	3	6	NaN	1	3	0.0710744722734826	0	1	NaN	406	7	28	2	120	220	320	NaN	520	0.253168624360114	1	1	NaN	3617062.8739769	NaN	3617063.8573919	3617064.37389528
98	20	1	0	90	36.1581920903955	36.241610738255	14	0.466715591959655	2	12	5	NaN	2	5	0.0710744722734826	0	1	NaN	407	7	29	2	120	220	320	NaN	520	0.254208324477077	2	1	NaN	3617065.4407441	NaN	3617066.4243488	3617066.94081718
98	20	1	0	90	36.1581920903955	36.241610738255	18	0.600062903948128	2	5	2	NaN	1	5	0.0710744722734826	0	1	NaN	408	7	30	2	120	220	320	NaN	520	0.327392224222422	1	1	NaN	3617068.0077882	NaN	3617068.9912294	3617069.50773108
98	20	1	0	90	36.1581920903955	36.241610738255	12	0.400041935965419	2	8	1	NaN	2	5	0.0710744722734826	0	1	NaN	409	7	31	2	120	220	320	NaN	520	0.261156076099724	1	0	NaN	3617070.6580575	NaN	3617071.6414769	3617072.15800082
98	20	1	0	90	36.1581920903955	36.241610738255	21	0.700073387939483	2	3	3	NaN	1	3	0.0710744722734826	0	1	NaN	410	7	32	2	120	220	320	NaN	520	0.373484880197793	1	1	NaN	3617073.2416218	NaN	3617074.2250679	3617074.74158232
98	20	1	0	90	36.1581920903955	36.241610738255	22	0.733410215936601	2	2	6	NaN	1	4	0.0710744722734826	0	1	NaN	411	7	33	2	120	220	320	NaN	520	0.487310724332929	1	1	NaN	3617075.9752457	NaN	3617076.9586375	3617077.47519058
98	20	1	0	90	36.1581920903955	36.241610738255	0	0	1	9	1	NaN	2	4	0.0710744722734826	0	1	NaN	412	7	34	2	110	210	310	NaN	510	0.422960176132619	1	0	NaN	3617078.792203	NaN	3617079.7756252	3617080.29213572
98	20	1	0	90	36.1581920903955	36.241610738255	16	0.533389247953892	2	12	1	NaN	2	4	0.0710744722734826	0	1	NaN	413	7	35	2	120	220	320	NaN	520	0.280130380298942	1	0	NaN	3617081.5424747	NaN	3617082.5258942	3617083.04239262
98	20	1	0	90	36.1581920903955	36.241610738255	8	0.266694623976946	2	11	6	NaN	2	4	0.0710744722734826	0	1	NaN	414	7	36	2	120	220	320	NaN	520	0.255885028280318	2	1	NaN	3617084.1427176	NaN	3617085.1261467	3617085.64266457
98	20	1	0	90	36.1581920903955	36.241610738255	20	0.666736559942365	2	4	2	NaN	1	5	0.0710744722734826	0	1	NaN	415	7	37	2	120	220	320	NaN	520	0.272398028057069	1	1	NaN	3617086.7263144	NaN	3617087.7096991	3617088.22624517
98	20	1	0	90	36.1581920903955	36.241610738255	12	0.400041935965419	2	3	4	NaN	1	5	0.0710744722734826	0	1	NaN	416	7	38	2	120	220	320	NaN	520	0.488176476210356	1	1	NaN	3617089.3265596	NaN	3617090.3099515	3617090.82648712
98	20	1	0	90	36.1581920903955	36.241610738255	7	0.233357795979828	2	4	4	NaN	1	4	0.0710744722734826	0	1	NaN	417	7	39	2	120	220	320	NaN	520	0.215720375999808	2	0	NaN	3617092.126917	NaN	3617093.1102484	3617093.62684692
98	20	1	0	90	36.1581920903955	36.241610738255	8	0.266694623976946	2	1	1	NaN	1	5	0.0710744722734826	0	1	NaN	418	7	40	2	120	220	320	NaN	520	0.256995524279773	2	0	NaN	3617094.6937354	NaN	3617095.6771297	3617096.19368418
98	20	1	0	90	36.1581920903955	36.241610738255	9	0.300031451974064	2	3	6	NaN	1	5	0.0710744722734826	0	1	NaN	419	7	41	2	120	220	320	NaN	520	0.185370043851435	1	1	NaN	3617097.2773372	NaN	3617098.2607474	3617098.77728656
98	20	1	0	90	36.1581920903955	36.241610738255	9	0.300031451974064	2	5	1	NaN	1	5	0.0710744722734826	0	1	NaN	420	7	42	2	120	220	320	NaN	520	0.629028528463095	2	0	NaN	3617099.7775942	NaN	3617100.7609838	3617101.27752037
98	20	1	0	90	36.1581920903955	36.241610738255	9	0.300031451974064	2	2	4	NaN	1	4	0.0710744722734826	0	1	NaN	421	7	43	2	120	220	320	NaN	520	0.0870204246602952	1	1	NaN	3617102.7279286	NaN	3617103.7112674	3617104.22780298
98	20	1	0	90	36.1581920903955	36.241610738255	15	0.500052419956774	2	3	6	NaN	1	3	0.0710744722734826	0	1	NaN	422	7	44	2	120	220	320	NaN	520	0.295278124045581	1	1	NaN	3617105.5113564	NaN	3617106.4948812	3617107.01141448
98	20	1	0	90	36.1581920903955	36.241610738255	0	0	1	5	6	NaN	1	5	0.0710744722734826	0	1	NaN	423	7	45	2	110	210	310	NaN	510	0.23639264004305	1	1	NaN	3617108.5784491	NaN	3617109.5618772	3617110.07838016
98	20	1	0	90	36.1581920903955	36.241610738255	24	0.800083871930838	2	11	3	NaN	2	4	0.0710744722734826	0	1	NaN	424	7	46	2	120	220	320	NaN	520	0.294525884557515	2	1	NaN	3617111.1287103	NaN	3617112.1121304	3617112.62863802
98	20	1	0	90	36.1581920903955	36.241610738255	10	0.333368279971182	2	5	4	NaN	1	3	0.0710744722734826	0	1	NaN	425	7	47	2	120	220	320	NaN	520	0.221048928331584	1	1	NaN	3617113.7456001	NaN	3617114.729017	3617115.24555567
98	20	1	0	90	36.1581920903955	36.241610738255	0	0	1	3	1	NaN	1	4	0.0710744722734826	0	1	NaN	426	7	48	2	110	210	310	NaN	510	0.639455924741924	1	1	NaN	3617116.2791882	NaN	3617117.262634	3617117.77914628
98	20	1	0	90	36.1581920903955	36.241610738255	19	0.633399731945246	2	4	3	NaN	1	3	0.0710744722734826	0	1	NaN	427	7	49	2	120	220	320	NaN	520	0.0486614839173853	1	1	NaN	3617119.2461575	NaN	3617120.2295434	3617120.74609722
98	20	1	0	90	36.1581920903955	36.241610738255	6	0.200020967982709	2	8	6	NaN	2	4	0.0710744722734826	0	1	NaN	428	7	50	2	120	220	320	NaN	520	0.44976797606796	1	0	NaN	3617121.6129256	NaN	3617122.5964681	3617123.11298542
98	20	1	0	90	36.1581920903955	36.241610738255	11	0.366705107968301	2	11	5	NaN	2	4	0.0710744722734826	0	1	NaN	429	7	51	2	120	220	320	NaN	520	0.243292476050556	2	1	NaN	3617124.379875	NaN	3617125.3633893	3617125.87992252
98	20	1	0	90	36.1581920903955	36.241610738255	21	0.700073387939483	2	5	3	NaN	1	5	0.0710744722734826	0	1	NaN	430	7	52	2	120	220	320	NaN	520	0.324343736283481	1	1	NaN	3617126.9469532	NaN	3617127.9303094	3617128.44685286
98	20	1	0	90	36.1581920903955	36.241610738255	22	0.733410215936601	2	4	1	NaN	1	5	0.0710744722734826	0	1	NaN	431	7	53	2	120	220	320	NaN	520	0.177551328204572	1	1	NaN	3617129.5971077	NaN	3617130.5804142	3617131.09710077
98	20	1	0	90	36.1581920903955	36.241610738255	16	0.533389247953892	2	3	2	NaN	1	4	0.0710744722734826	0	1	NaN	432	7	54	2	120	220	320	NaN	520	0.180729672312737	1	1	NaN	3617132.5141201	NaN	3617133.4975369	3617134.01404943
98	20	1	0	90	36.1581920903955	36.241610738255	20	0.666736559942365	2	7	6	NaN	2	3	0.0710744722734826	0	1	NaN	433	7	55	2	120	220	320	NaN	520	0.341630184091628	1	0	NaN	3617135.2810606	NaN	3617136.2644634	3617136.78099572
98	20	1	0	90	36.1581920903955	36.241610738255	6	0.200020967982709	2	10	3	NaN	2	3	0.0710744722734826	0	1	NaN	434	7	56	2	120	220	320	NaN	520	0.354110476095229	1	0	NaN	3617138.3646856	NaN	3617139.3481125	3617139.86463132
98	20	1	0	90	36.1581920903955	36.241610738255	15	0.500052419956774	2	1	1	NaN	1	3	0.0710744722734826	0	1	NaN	435	7	57	2	120	220	320	NaN	520	0.110269275959581	2	0	NaN	3617141.0483048	NaN	3617142.03172	3617142.54823002
98	20	1	0	90	36.1581920903955	36.241610738255	0	0	1	3	1	NaN	1	3	0.0710744722734826	0	1	NaN	436	7	58	2	110	210	310	NaN	510	0.148933824151754	1	1	NaN	3617143.482017	NaN	3617144.4652596	3617144.98179338
98	20	1	0	90	36.1581920903955	36.241610738255	17	0.56672607595101	2	11	4	NaN	2	4	0.0710744722734826	0	1	NaN	437	7	59	2	120	220	320	NaN	520	0.297151692211628	2	1	NaN	3617146.1820793	NaN	3617147.1655431	3617147.68205881
98	20	1	0	90	36.1581920903955	36.241610738255	10	0.333368279971182	2	12	2	NaN	2	5	0.0710744722734826	0	1	NaN	438	7	60	2	120	220	320	NaN	520	0.207936220336705	2	1	NaN	3617148.7990307	NaN	3617149.7824555	3617150.29898098
98	20	1	0	90	36.1581920903955	36.241610738255	15	0.500052419956774	2	8	1	NaN	2	3	0.0710744722734826	0	1	NaN	439	7	61	2	120	220	320	NaN	520	0.178170528262854	1	0	NaN	3617151.3326784	NaN	3617152.3160408	3617152.83256017
98	20	1	0	90	36.1581920903955	36.241610738255	24	0.800083871930838	2	3	3	NaN	1	5	0.0710744722734826	0	1	NaN	440	7	62	2	120	220	320	NaN	520	0.350189624354243	1	1	NaN	3617153.8328931	NaN	3617154.8162932	3617155.33281328
98	20	1	0	90	36.1581920903955	36.241610738255	9	0.300031451974064	2	8	2	NaN	2	3	0.0710744722734826	0	1	NaN	441	7	63	2	120	220	320	NaN	520	0.704787572380155	1	0	NaN	3617156.7663616	NaN	3617157.7498315	3617158.26643273
98	20	1	0	90	36.1581920903955	36.241610738255	12	0.400041935965419	2	6	5	NaN	1	3	0.0710744722734826	0	1	NaN	442	8	1	2	120	220	320	NaN	520	0.21022687619552	1	1	NaN	3617184.4524408	NaN	3617185.4359364	3617185.95246952
98	20	1	0	90	36.1581920903955	36.241610738255	22	0.733410215936601	2	6	2	NaN	1	5	0.0710744722734826	0	1	NaN	443	8	2	2	120	220	320	NaN	520	0.252800575923175	1	1	NaN	3617186.9860979	NaN	3617187.9695233	3617188.48607452
98	20	1	0	90	36.1581920903955	36.241610738255	24	0.800083871930838	2	10	3	NaN	2	4	0.0710744722734826	0	1	NaN	444	8	3	2	120	220	320	NaN	520	0.20625587599352	1	0	NaN	3617189.5530608	NaN	3617190.5364602	3617191.05297602
98	20	1	0	90	36.1581920903955	36.241610738255	17	0.56672607595101	2	5	2	NaN	1	4	0.0710744722734826	0	1	NaN	445	8	4	2	120	220	320	NaN	520	0.192300576251	1	1	NaN	3617192.0866109	NaN	3617193.0700338	3617193.58655522
98	20	1	0	90	36.1581920903955	36.241610738255	9	0.300031451974064	2	1	4	NaN	1	5	0.0710744722734826	0	1	NaN	446	8	5	2	120	220	320	NaN	520	0.139319088310003	1	1	NaN	3617194.6035291	NaN	3617195.5869482	3617196.10346941
98	20	1	0	90	36.1581920903955	36.241610738255	24	0.800083871930838	2	2	6	NaN	1	3	0.0710744722734826	0	1	NaN	447	8	6	2	120	220	320	NaN	520	0.169111476279795	2	0	NaN	3617197.0537698	NaN	3617198.0371886	3617198.55373432
98	20	1	0	90	36.1581920903955	36.241610738255	14	0.466715591959655	2	1	5	NaN	1	4	0.0710744722734826	0	1	NaN	448	8	7	2	120	220	320	NaN	520	0.010490476153791	2	0	NaN	3617199.5539115	NaN	3617200.5374163	3617201.05394922
98	20	1	0	90	36.1581920903955	36.241610738255	11	0.366705107968301	2	5	6	NaN	1	3	0.0710744722734826	0	1	NaN	449	8	8	2	120	220	320	NaN	520	0.111363876145333	1	1	NaN	3617201.8874601	NaN	3617202.8709744	3617203.38751362
98	20	1	0	90	36.1581920903955	36.241610738255	20	0.666736559942365	2	5	5	NaN	1	4	0.0710744722734826	0	1	NaN	450	8	9	2	120	220	320	NaN	520	0.137113584205508	1	1	NaN	3617204.4378482	NaN	3617205.421257	3617205.93776402
98	20	1	0	90	36.1581920903955	36.241610738255	25	0.833420699927956	2	9	2	NaN	2	4	0.0710744722734826	0	1	NaN	451	8	10	2	120	220	320	NaN	520	0.27556857233867	1	0	NaN	3617206.971414	NaN	3617207.9548516	3617208.47134283
98	20	1	0	90	36.1581920903955	36.241610738255	13	0.433378763962537	2	4	3	NaN	1	3	0.0710744722734826	0	1	NaN	452	8	11	2	120	220	320	NaN	520	0.130647671874613	1	1	NaN	3617209.7883295	NaN	3617210.771784	3617211.28828283
98	20	1	0	90	36.1581920903955	36.241610738255	14	0.466715591959655	2	9	3	NaN	2	3	0.0710744722734826	0	1	NaN	453	8	12	2	120	220	320	NaN	520	0.169763832353055	2	1	NaN	3617212.4052779	NaN	3617213.3886876	3617213.90521117
98	20	1	0	90	36.1581920903955	36.241610738255	24	0.800083871930838	2	11	4	NaN	2	4	0.0710744722734826	0	1	NaN	454	8	13	2	120	220	320	NaN	520	0.262576824519783	2	1	NaN	3617215.0721871	NaN	3617216.0556257	3617216.57214348
98	20	1	0	90	36.1581920903955	36.241610738255	8	0.266694623976946	2	12	3	NaN	2	4	0.0710744722734826	0	1	NaN	455	8	14	2	120	220	320	NaN	520	0.296060684137046	1	0	NaN	3617218.239242	NaN	3617219.2226017	3617219.73920162
98	20	1	0	90	36.1581920903955	36.241610738255	15	0.500052419956774	2	6	3	NaN	1	3	0.0710744722734826	0	1	NaN	456	8	15	2	120	220	320	NaN	520	0.47072872845456	1	1	NaN	3617220.8561118	NaN	3617221.8395072	3617222.35603847
98	20	1	0	90	36.1581920903955	36.241610738255	13	0.433378763962537	2	8	2	NaN	2	4	0.0710744722734826	0	1	NaN	457	8	16	2	120	220	320	NaN	520	0.446229672525078	2	1	NaN	3617226.256631	NaN	3617227.2400628	3617227.75657003
98	20	1	0	90	36.1581920903955	36.241610738255	18	0.600062903948128	2	7	6	NaN	2	4	0.0710744722734826	0	1	NaN	458	8	17	2	120	220	320	NaN	520	0.285892824176699	2	1	NaN	3617229.6568193	NaN	3617230.6403753	3617231.15690718
