subjno	age	gender	isPractice	viewdist	CmToPixX	CmToPixY	SOA_frm	SOA_time	targNum	targID	targExample	targRace	targGender	firstTargPos	contrast	familiarity	curr_staircase	iStair	TrialNum	BlockNum	blktrl	sessionNum	TC_FIXATION	TC_RSVP_START	TC_RSVP_END	TC_BLANK	TC_RESPONSE_ONSET	RT2afc	resp_2afc	acc	RSVPOnsetVBL	RSVPOnsetTime	RSVPOffsetVBL	RSVPOffsetTime	startrt_2afc
109	18	1	0	90	36.1581920903955	36.241610738255	11	0.36670334815979	2	6	3	NaN	1	3	0.0565952662433556	1	1	NaN	1	1	1	2	121	221	321	NaN	521	0.912971527315676	1	1	NaN	3793723.9323738	NaN	3793724.9156575	3793725.44879057
109	18	1	0	90	36.1581920903955	36.241610738255	8	0.266693344116211	2	4	4	NaN	1	5	0.0565952662433556	1	1	NaN	2	1	2	2	121	221	321	NaN	521	2.74977907910943	1	1	NaN	3793727.2160372	NaN	3793728.1993137	3793728.73244622
109	18	1	0	90	36.1581920903955	36.241610738255	13	0.433376684188843	2	5	1	NaN	1	3	0.0565952662433556	1	1	NaN	3	1	3	2	121	221	321	NaN	521	0.521966326981783	1	1	NaN	3793732.2996677	NaN	3793733.2829616	3793733.79960737
109	18	1	0	90	36.1581920903955	36.241610738255	21	0.700070028305054	2	11	4	NaN	2	3	0.0565952662433556	1	1	NaN	4	1	4	2	121	221	321	NaN	521	3.06377482321113	1	0	NaN	3793735.1499455	NaN	3793736.13334	3793736.64988798
109	18	1	0	90	36.1581920903955	36.241610738255	18	0.600060024261475	2	11	5	NaN	2	3	0.0565952662433556	1	1	NaN	5	1	5	2	121	221	321	NaN	521	10.3839054754935	1	0	NaN	3793740.5338794	NaN	3793741.5172051	3793742.03374912
109	18	1	0	90	36.1581920903955	36.241610738255	8	0.266693344116211	2	1	4	NaN	1	4	0.0565952662433556	1	1	NaN	6	1	6	2	121	221	321	NaN	521	0.498054875526577	1	1	NaN	3793753.2517336	NaN	3793754.2351067	3793754.75166032
109	18	1	0	90	36.1581920903955	36.241610738255	23	0.766743364334106	2	5	5	NaN	1	4	0.0565952662433556	1	1	NaN	7	1	7	2	121	221	321	NaN	521	1.44891847576946	1	1	NaN	3793756.0685339	NaN	3793757.0520562	3793757.56861092
109	18	1	0	90	36.1581920903955	36.241610738255	22	0.73340669631958	2	10	5	NaN	2	4	0.0565952662433556	1	1	NaN	8	1	8	2	121	221	321	NaN	521	3.88186527555808	2	1	NaN	3793759.8356928	NaN	3793760.8190907	3793761.33564452
109	18	1	0	90	36.1581920903955	36.241610738255	8	0.266693344116211	2	2	3	NaN	1	4	0.0565952662433556	1	1	NaN	9	1	9	2	121	221	321	NaN	521	3.66569702746347	1	1	NaN	3793766.0363222	NaN	3793767.019755	3793767.53626297
109	18	1	0	90	36.1581920903955	36.241610738255	18	0.600060024261475	2	10	1	NaN	2	5	0.0565952662433556	1	1	NaN	10	1	10	2	121	221	321	NaN	521	0.529661475680768	2	1	NaN	3793772.0201122	NaN	3793773.0036139	3793773.52017572
109	18	1	0	90	36.1581920903955	36.241610738255	24	0.800080032348633	2	8	1	NaN	2	4	0.0565952662433556	1	1	NaN	11	1	11	2	121	221	321	NaN	521	0.415087475441396	2	1	NaN	3793774.8705089	NaN	3793775.853953	3793776.37045752
109	18	1	0	90	36.1581920903955	36.241610738255	14	0.466713352203369	2	12	6	NaN	2	4	0.0565952662433556	1	1	NaN	12	1	12	2	121	221	321	NaN	521	0.32159207528457	2	1	NaN	3793777.6041258	NaN	3793778.5875039	3793779.10405222
109	18	1	0	90	36.1581920903955	36.241610738255	22	0.73340669631958	2	3	6	NaN	1	3	0.0565952662433556	1	1	NaN	13	1	13	2	121	221	321	NaN	521	3.43916077585891	2	0	NaN	3793780.2543642	NaN	3793781.2378089	3793781.75432062
109	18	1	0	90	36.1581920903955	36.241610738255	12	0.400040016174316	2	4	5	NaN	1	4	0.0565952662433556	1	1	NaN	14	1	14	2	121	221	321	NaN	521	0.416459423489869	1	1	NaN	3793786.021625	NaN	3793787.0049916	3793787.52155418
109	18	1	0	90	36.1581920903955	36.241610738255	10	0.333366680145264	2	9	4	NaN	2	5	0.0565952662433556	1	1	NaN	15	1	15	2	121	221	321	NaN	521	0.330526026897132	2	1	NaN	3793788.7552203	NaN	3793789.7386747	3793790.25516057
109	18	1	0	90	36.1581920903955	36.241610738255	15	0.500050020217895	2	5	4	NaN	1	4	0.0565952662433556	1	1	NaN	16	1	16	2	121	221	321	NaN	521	0.120285375509411	1	1	NaN	3793791.405489	NaN	3793792.388865	3793792.90541092
109	18	1	0	90	36.1581920903955	36.241610738255	20	0.666733360290527	2	9	3	NaN	2	5	0.0565952662433556	1	1	NaN	17	1	17	2	121	221	321	NaN	521	0.263059875462204	2	1	NaN	3793793.8390405	NaN	3793794.8224168	3793795.33899072
109	18	1	0	90	36.1581920903955	36.241610738255	7	0.233356676101685	2	7	5	NaN	2	3	0.0565952662433556	1	1	NaN	18	1	18	2	121	221	321	NaN	521	0.511462175752968	2	1	NaN	3793796.4225778	NaN	3793797.4060182	3793797.92257252
109	18	1	0	90	36.1581920903955	36.241610738255	16	0.533386688232422	2	2	2	NaN	1	5	0.0565952662433556	1	1	NaN	19	1	19	2	121	221	321	NaN	521	0.502030323725194	1	1	NaN	3793799.239567	NaN	3793800.22302	3793800.73951028
109	18	1	0	90	36.1581920903955	36.241610738255	13	0.433376684188843	2	4	3	NaN	1	4	0.0565952662433556	1	1	NaN	20	1	20	2	121	221	321	NaN	521	0.477159326896071	1	1	NaN	3793802.056539	NaN	3793803.0399077	3793803.55646497
109	18	1	0	90	36.1581920903955	36.241610738255	15	0.500050020217895	2	12	1	NaN	2	5	0.0565952662433556	1	1	NaN	21	1	21	2	121	221	321	NaN	521	0.308992223348469	2	1	NaN	3793804.8567931	NaN	3793805.8401908	3793806.35672898
109	18	1	0	90	36.1581920903955	36.241610738255	11	0.36670334815979	2	7	2	NaN	2	3	0.0565952662433556	1	1	NaN	22	1	22	2	121	221	321	NaN	521	0.451437875628471	2	1	NaN	3793807.4904003	NaN	3793808.4737751	3793808.99031952
109	18	1	0	90	36.1581920903955	36.241610738255	10	0.333366680145264	2	4	5	NaN	1	3	0.0565952662433556	1	1	NaN	23	1	23	2	121	221	321	NaN	521	0.492485175840557	1	1	NaN	3793810.2573204	NaN	3793811.2407041	3793811.75726452
109	18	1	0	90	36.1581920903955	36.241610738255	21	0.700070028305054	2	2	6	NaN	1	3	0.0565952662433556	1	1	NaN	24	1	24	2	121	221	321	NaN	521	0.243312023580074	1	1	NaN	3793813.0741337	NaN	3793814.0576575	3793814.57420258
109	18	1	0	90	36.1581920903955	36.241610738255	23	0.766743364334106	2	1	3	NaN	1	5	0.0565952662433556	1	1	NaN	25	1	25	2	121	221	321	NaN	521	0.148624675814062	1	1	NaN	3793815.641175	NaN	3793816.6245819	3793817.14113172
109	18	1	0	90	36.1581920903955	36.241610738255	17	0.566723356246948	2	4	6	NaN	1	3	0.0565952662433556	1	1	NaN	26	1	26	2	121	221	321	NaN	521	0.529570275451988	1	1	NaN	3793818.1081101	NaN	3793819.0914741	3793819.60803152
109	18	1	0	90	36.1581920903955	36.241610738255	18	0.600060024261475	2	3	4	NaN	1	5	0.0565952662433556	1	1	NaN	27	1	27	2	121	221	321	NaN	521	0.7673653755337	1	1	NaN	3793820.9583045	NaN	3793821.9417571	3793822.45832372
109	18	1	0	90	36.1581920903955	36.241610738255	23	0.766743364334106	2	2	5	NaN	1	3	0.0565952662433556	1	1	NaN	28	1	28	2	121	221	321	NaN	521	0.475637279450893	1	1	NaN	3793824.0419883	NaN	3793825.0254073	3793825.54195672
109	18	1	0	90	36.1581920903955	36.241610738255	24	0.800080032348633	2	1	4	NaN	1	3	0.0565952662433556	1	1	NaN	29	1	29	2	121	221	321	NaN	521	0.19553347537294	1	1	NaN	3793826.8422813	NaN	3793827.8256856	3793828.34222232
109	18	1	0	90	36.1581920903955	36.241610738255	22	0.73340669631958	2	5	3	NaN	1	3	0.0565952662433556	1	1	NaN	30	1	30	2	121	221	321	NaN	521	0.374585327226669	1	1	NaN	3793829.3592163	NaN	3793830.3425948	3793830.85914107
109	18	1	0	90	36.1581920903955	36.241610738255	14	0.466713352203369	2	11	2	NaN	2	4	0.0565952662433556	1	1	NaN	31	1	31	2	121	221	321	NaN	521	0.450413575395942	2	1	NaN	3793832.059466	NaN	3793833.0428561	3793833.55941172
109	18	1	0	90	36.1581920903955	36.241610738255	21	0.700070028305054	2	1	3	NaN	1	5	0.0565952662433556	1	1	NaN	32	1	32	2	121	221	321	NaN	521	0.180384975858033	1	1	NaN	3793835.209794	NaN	3793836.1931536	3793836.70971792
109	18	1	0	90	36.1581920903955	36.241610738255	9	0.300030012130737	2	2	6	NaN	1	5	0.0565952662433556	1	1	NaN	33	1	33	2	121	221	321	NaN	521	0.319896627217531	1	1	NaN	3793837.7100081	NaN	3793838.6934235	3793839.20995807
109	18	1	0	90	36.1581920903955	36.241610738255	19	0.633396692276001	2	7	6	NaN	2	4	0.0565952662433556	1	1	NaN	34	1	34	2	121	221	321	NaN	521	0.302073975559324	2	1	NaN	3793840.3436132	NaN	3793841.3270239	3793841.84355592
109	18	1	0	90	36.1581920903955	36.241610738255	7	0.233356676101685	2	3	5	NaN	1	3	0.0565952662433556	1	1	NaN	35	1	35	2	121	221	321	NaN	521	0.125518375542015	1	1	NaN	3793842.9603837	NaN	3793843.9439248	3793844.46048202
109	18	1	0	90	36.1581920903955	36.241610738255	23	0.766743364334106	2	5	3	NaN	1	3	0.0565952662433556	1	1	NaN	36	1	36	2	121	221	321	NaN	521	0.0190836233086884	1	1	NaN	3793845.4107927	NaN	3793846.3941546	3793846.91071218
109	18	1	0	90	36.1581920903955	36.241610738255	10	0.333366680145264	2	5	4	NaN	1	5	0.0565952662433556	1	1	NaN	37	1	37	2	121	221	321	NaN	521	0.301571426913142	1	1	NaN	3793847.7443313	NaN	3793848.7277387	3793849.24428287
109	18	1	0	90	36.1581920903955	36.241610738255	6	0.200020008087158	2	8	2	NaN	2	5	0.0565952662433556	1	1	NaN	38	1	38	2	121	221	321	NaN	521	0.0103916274383664	2	1	NaN	3793850.361132	NaN	3793851.344668	3793851.86119987
109	18	1	0	90	36.1581920903955	36.241610738255	13	0.433376684188843	2	1	6	NaN	1	5	0.0565952662433556	1	1	NaN	39	1	39	2	121	221	321	NaN	521	1.58308002725244	2	0	NaN	3793852.6948086	NaN	3793853.6782008	3793854.19476357
109	18	1	0	90	36.1581920903955	36.241610738255	10	0.333366680145264	2	7	6	NaN	2	3	0.0565952662433556	1	1	NaN	40	1	40	2	121	221	321	NaN	521	0.707026975229383	2	1	NaN	3793856.5951919	NaN	3793857.5785872	3793858.09514442
109	18	1	0	90	36.1581920903955	36.241610738255	9	0.300030012130737	2	4	2	NaN	1	5	0.0565952662433556	1	1	NaN	41	1	41	2	121	221	321	NaN	521	0.353625975549221	1	1	NaN	3793859.6121654	NaN	3793860.5955825	3793861.11211312
109	18	1	0	90	36.1581920903955	36.241610738255	13	0.433376684188843	2	11	1	NaN	2	4	0.0565952662433556	1	1	NaN	42	1	42	2	121	221	321	NaN	521	0.0307937753386796	2	1	NaN	3793862.2791181	NaN	3793863.2625277	3793863.77903552
109	18	1	0	90	36.1581920903955	36.241610738255	19	0.633396692276001	2	1	6	NaN	1	4	0.0565952662433556	1	1	NaN	43	1	43	2	121	221	321	NaN	521	1.5924432752654	1	1	NaN	3793864.62933	NaN	3793865.6127274	3793866.12926882
109	18	1	0	90	36.1581920903955	36.241610738255	23	0.766743364334106	2	7	4	NaN	2	3	0.0565952662433556	1	1	NaN	44	1	44	2	121	221	321	NaN	521	0.172148775774986	2	1	NaN	3793868.5297089	NaN	3793869.5131015	3793870.02965332
109	18	1	0	90	36.1581920903955	36.241610738255	25	0.833416700363159	2	1	5	NaN	1	4	0.0565952662433556	1	1	NaN	45	1	45	2	121	221	321	NaN	521	0.43250322714448	1	1	NaN	3793871.0131518	NaN	3793871.9966953	3793872.51323137
109	18	1	0	90	36.1581920903955	36.241610738255	10	0.333366680145264	2	6	3	NaN	1	5	0.0565952662433556	1	1	NaN	46	1	46	2	121	221	321	NaN	521	0.426696823444217	2	0	NaN	3793873.7635734	NaN	3793874.746945	3793875.26350848
109	18	1	0	90	36.1581920903955	36.241610738255	14	0.466713352203369	2	6	5	NaN	1	5	0.0565952662433556	1	1	NaN	47	1	47	2	121	221	321	NaN	521	1.72509637568146	2	0	NaN	3793876.4970263	NaN	3793877.4805562	3793877.99710282
109	18	1	0	90	36.1581920903955	36.241610738255	12	0.400040016174316	2	5	1	NaN	1	3	0.0565952662433556	1	1	NaN	48	1	48	2	121	221	321	NaN	521	0.331225275527686	1	1	NaN	3793880.5308988	NaN	3793881.5142592	3793882.03083002
109	18	1	0	90	36.1581920903955	36.241610738255	16	0.533386688232422	2	12	1	NaN	2	3	0.0565952662433556	1	1	NaN	49	1	49	2	121	221	321	NaN	521	0.361755575984716	2	1	NaN	3793883.164446	NaN	3793884.147779	3793884.66443132
109	18	1	0	90	36.1581920903955	36.241610738255	13	0.433376684188843	2	3	4	NaN	1	3	0.0565952662433556	1	1	NaN	50	1	50	2	121	221	321	NaN	521	2.50189807545394	2	0	NaN	3793885.8480728	NaN	3793886.8314661	3793887.34801832
109	18	1	0	90	36.1581920903955	36.241610738255	7	0.233356676101685	2	3	1	NaN	1	4	0.0565952662433556	1	1	NaN	51	1	51	2	121	221	321	NaN	521	2.36505907587707	1	1	NaN	3793890.665211	NaN	3793891.6486104	3793892.16515982
109	18	1	0	90	36.1581920903955	36.241610738255	21	0.700070028305054	2	12	2	NaN	2	5	0.0565952662433556	1	1	NaN	52	1	52	2	121	221	321	NaN	521	0.37680427543819	2	1	NaN	3793895.3489964	NaN	3793896.332432	3793896.84894912
109	18	1	0	90	36.1581920903955	36.241610738255	9	0.300030012130737	2	12	3	NaN	2	3	0.0565952662433556	1	1	NaN	53	1	53	2	121	221	321	NaN	521	0.140544927679002	2	1	NaN	3793898.0491632	NaN	3793899.0327356	3793899.54922797
109	18	1	0	90	36.1581920903955	36.241610738255	23	0.766743364334106	2	4	2	NaN	1	3	0.0565952662433556	1	1	NaN	54	1	54	2	121	221	321	NaN	521	0.282398123294115	2	0	NaN	3793900.4993899	NaN	3793901.4829135	3793901.99946408
109	18	1	0	90	36.1581920903955	36.241610738255	8	0.266693344116211	2	11	5	NaN	2	3	0.0565952662433556	1	1	NaN	55	1	55	2	121	221	321	NaN	521	0.0741122756153345	2	1	NaN	3793903.0997615	NaN	3793904.0831673	3793904.59972002
109	18	1	0	90	36.1581920903955	36.241610738255	0	0	1	12	6	NaN	2	3	0.0565952662433556	1	1	NaN	56	1	56	2	111	211	311	NaN	511	0.0104160755872726	2	1	NaN	3793905.4833574	NaN	3793906.466718	3793906.98329062
109	18	1	0	90	36.1581920903955	36.241610738255	22	0.73340669631958	2	10	5	NaN	2	3	0.0565952662433556	1	1	NaN	57	1	57	2	121	221	321	NaN	521	0.317053423263133	2	1	NaN	3793907.8168984	NaN	3793908.8002863	3793909.31683928
109	18	1	0	90	36.1581920903955	36.241610738255	20	0.666733360290527	2	4	6	NaN	1	4	0.0565952662433556	1	1	NaN	58	1	58	2	121	221	321	NaN	521	3.32375807547942	1	1	NaN	3793910.4504836	NaN	3793911.4337858	3793911.95043082
109	18	1	0	90	36.1581920903955	36.241610738255	25	0.833416700363159	2	8	4	NaN	2	4	0.0565952662433556	1	1	NaN	59	1	59	2	121	221	321	NaN	521	0.233435227535665	2	1	NaN	3793916.0843779	NaN	3793917.0678024	3793917.58432927
109	18	1	0	90	36.1581920903955	36.241610738255	25	0.833416700363159	2	6	4	NaN	1	5	0.0565952662433556	1	1	NaN	60	1	60	2	121	221	321	NaN	521	0.467685575596988	1	1	NaN	3793918.634647	NaN	3793919.6180053	3793920.13456992
109	18	1	0	90	36.1581920903955	36.241610738255	15	0.500050020217895	2	12	3	NaN	2	4	0.0565952662433556	1	1	NaN	61	1	61	2	121	221	321	NaN	521	0.427879975643009	2	1	NaN	3793921.4182443	NaN	3793922.4016429	3793922.91818682
109	18	1	0	90	36.1581920903955	36.241610738255	0	0	1	7	2	NaN	2	3	0.0565952662433556	1	1	NaN	62	1	62	2	111	211	311	NaN	511	0.213983779307455	2	1	NaN	3793924.1518542	NaN	3793925.1352332	3793925.65179062
109	18	1	0	90	36.1581920903955	36.241610738255	19	0.633396692276001	2	3	4	NaN	1	5	0.0565952662433556	1	1	NaN	63	1	63	2	121	221	321	NaN	521	0.425571031402797	1	1	NaN	3793926.6686446	NaN	3793927.6521592	3793928.16870177
109	18	1	0	90	36.1581920903955	36.241610738255	22	0.73340669631958	2	5	2	NaN	1	5	0.0565952662433556	1	1	NaN	64	2	1	2	121	221	321	NaN	521	0.270809775684029	1	1	NaN	3793944.8871945	NaN	3793945.8706152	3793946.38714552
109	18	1	0	90	36.1581920903955	36.241610738255	17	0.566723356246948	2	10	2	NaN	2	3	0.0565952662433556	1	1	NaN	65	2	2	2	121	221	321	NaN	521	2.24707897566259	2	1	NaN	3793947.4708057	NaN	3793948.4541894	3793948.97073802
109	18	1	0	90	36.1581920903955	36.241610738255	17	0.566723356246948	2	8	1	NaN	2	5	0.0565952662433556	1	1	NaN	66	2	3	2	121	221	321	NaN	521	0.544527775608003	2	1	NaN	3793952.0377891	NaN	3793953.0213208	3793953.53785942
109	18	1	0	90	36.1581920903955	36.241610738255	18	0.600060024261475	2	2	1	NaN	1	3	0.0565952662433556	1	1	NaN	67	2	4	2	121	221	321	NaN	521	0.149089675862342	1	1	NaN	3793954.9047109	NaN	3793955.8882746	3793956.40480072
109	18	1	0	90	36.1581920903955	36.241610738255	19	0.633396692276001	2	3	1	NaN	1	4	0.0565952662433556	1	1	NaN	68	2	5	2	121	221	321	NaN	521	0.0104070752859116	1	1	NaN	3793957.3717661	NaN	3793958.3551914	3793958.87170672
109	18	1	0	90	36.1581920903955	36.241610738255	21	0.700070028305054	2	4	1	NaN	1	5	0.0565952662433556	1	1	NaN	69	2	6	2	121	221	321	NaN	521	0.37325562722981	1	1	NaN	3793959.6886542	NaN	3793960.6720549	3793961.18861347
109	18	1	0	90	36.1581920903955	36.241610738255	12	0.400040016174316	2	10	2	NaN	2	3	0.0565952662433556	1	1	NaN	70	2	7	2	121	221	321	NaN	521	0.274045175407082	2	1	NaN	3793962.3722523	NaN	3793963.3556638	3793963.87219812
109	18	1	0	90	36.1581920903955	36.241610738255	14	0.466713352203369	2	11	6	NaN	2	5	0.0565952662433556	1	1	NaN	71	2	8	2	121	221	321	NaN	521	1.2342579793185	2	1	NaN	3793964.9558527	NaN	3793965.939243	3793966.45579662
109	18	1	0	90	36.1581920903955	36.241610738255	12	0.400040016174316	2	8	6	NaN	2	4	0.0565952662433556	1	1	NaN	72	2	9	2	121	221	321	NaN	521	0.324312227312475	2	1	NaN	3793968.5061989	NaN	3793969.4895857	3793970.00613277
109	18	1	0	90	36.1581920903955	36.241610738255	12	0.400040016174316	2	7	6	NaN	2	5	0.0565952662433556	1	1	NaN	73	2	10	2	121	221	321	NaN	521	2.46649577561766	2	1	NaN	3793971.1397795	NaN	3793972.123172	3793972.63972632
109	18	1	0	90	36.1581920903955	36.241610738255	18	0.600060024261475	2	3	2	NaN	1	5	0.0565952662433556	1	1	NaN	74	2	11	2	121	221	321	NaN	521	0.778341775760055	1	1	NaN	3793975.9235899	NaN	3793976.9069861	3793977.42354022
109	18	1	0	90	36.1581920903955	36.241610738255	12	0.400040016174316	2	2	2	NaN	1	5	0.0565952662433556	1	1	NaN	75	2	12	2	121	221	321	NaN	521	0.48669467587024	1	1	NaN	3793979.0071493	NaN	3793979.9906169	3793980.50716362
109	18	1	0	90	36.1581920903955	36.241610738255	25	0.833416700363159	2	3	6	NaN	1	4	0.0565952662433556	1	1	NaN	76	2	13	2	121	221	321	NaN	521	0.446837875526398	1	1	NaN	3793981.8074934	NaN	3793982.7909453	3793983.30744342
109	18	1	0	90	36.1581920903955	36.241610738255	17	0.566723356246948	2	2	5	NaN	1	5	0.0565952662433556	1	1	NaN	77	2	14	2	121	221	321	NaN	521	1.05600097542629	1	1	NaN	3793984.5744423	NaN	3793985.5579386	3793986.07438422
109	18	1	0	90	36.1581920903955	36.241610738255	8	0.266693344116211	2	6	4	NaN	1	5	0.0565952662433556	1	1	NaN	78	2	15	2	121	221	321	NaN	521	0.392968775704503	1	1	NaN	3793987.9413658	NaN	3793988.9248337	3793989.44138302
109	18	1	0	90	36.1581920903955	36.241610738255	19	0.633396692276001	2	9	4	NaN	2	4	0.0565952662433556	1	1	NaN	79	2	16	2	121	221	321	NaN	521	0.348746919073164	2	1	NaN	3793990.8415899	NaN	3793991.8251017	3793992.34165768
109	18	1	0	90	36.1581920903955	36.241610738255	24	0.800080032348633	2	7	1	NaN	2	5	0.0565952662433556	1	1	NaN	80	2	17	2	121	221	321	NaN	521	0.409323875792325	2	1	NaN	3793993.5086386	NaN	3793994.4920718	3793995.00859272
109	18	1	0	90	36.1581920903955	36.241610738255	13	0.433376684188843	2	4	5	NaN	1	3	0.0565952662433556	1	1	NaN	81	2	18	2	121	221	321	NaN	521	0.33237282326445	1	1	NaN	3793996.2255742	NaN	3793997.2089746	3793997.72551898
109	18	1	0	90	36.1581920903955	36.241610738255	10	0.333366680145264	2	12	5	NaN	2	4	0.0565952662433556	1	1	NaN	82	2	19	2	121	221	321	NaN	521	2.14619947550818	2	1	NaN	3793998.8757219	NaN	3793999.859229	3794000.37578942
109	18	1	0	90	36.1581920903955	36.241610738255	0	0	1	4	1	NaN	1	5	0.0565952662433556	1	1	NaN	83	2	20	2	111	211	311	NaN	511	0.295523475389928	1	1	NaN	3794003.3429689	NaN	3794004.3263297	3794004.84288602
109	18	1	0	90	36.1581920903955	36.241610738255	9	0.300030012130737	2	3	5	NaN	1	3	0.0565952662433556	1	1	NaN	84	2	21	2	121	221	321	NaN	521	0.206938679330051	1	1	NaN	3794005.9432333	NaN	3794006.9266547	3794007.44315502
109	18	1	0	90	36.1581920903955	36.241610738255	20	0.666733360290527	2	2	1	NaN	1	3	0.0565952662433556	1	1	NaN	85	2	22	2	121	221	321	NaN	521	0.137947175186127	1	1	NaN	3794008.4601565	NaN	3794009.4435	3794009.96005442
109	18	1	0	90	36.1581920903955	36.241610738255	25	0.833416700363159	2	2	3	NaN	1	5	0.0565952662433556	1	1	NaN	86	2	23	2	121	221	321	NaN	521	0.079738475382328	1	1	NaN	3794010.9102281	NaN	3794011.8937664	3794012.41030812
109	18	1	0	90	36.1581920903955	36.241610738255	0	0	1	11	5	NaN	2	4	0.0565952662433556	1	1	NaN	87	2	24	2	111	211	311	NaN	511	1.96043607592583	2	1	NaN	3794013.2938429	NaN	3794014.2773123	3794014.79386992
109	18	1	0	90	36.1581920903955	36.241610738255	21	0.700070028305054	2	10	3	NaN	2	4	0.0565952662433556	1	1	NaN	88	2	25	2	121	221	321	NaN	521	0.421055027283728	2	1	NaN	3794017.5610071	NaN	3794018.5444038	3794019.06095707
109	18	1	0	90	36.1581920903955	36.241610738255	19	0.633396692276001	2	11	3	NaN	2	5	0.0565952662433556	1	1	NaN	89	2	26	2	121	221	321	NaN	521	0.103415375575423	2	1	NaN	3794020.2944663	NaN	3794021.2780002	3794021.79455622
109	18	1	0	90	36.1581920903955	36.241610738255	21	0.700070028305054	2	9	2	NaN	2	4	0.0565952662433556	1	1	NaN	90	2	27	2	121	221	321	NaN	521	0.286878275219351	2	1	NaN	3794022.7115163	NaN	3794023.6949087	3794024.21146562
109	18	1	0	90	36.1581920903955	36.241610738255	15	0.500050020217895	2	9	1	NaN	2	4	0.0565952662433556	1	1	NaN	91	2	28	2	121	221	321	NaN	521	0.3261972758919	2	1	NaN	3794025.3117833	NaN	3794026.2951537	3794026.81170962
109	18	1	0	90	36.1581920903955	36.241610738255	19	0.633396692276001	2	12	4	NaN	2	5	0.0565952662433556	1	1	NaN	92	2	29	2	121	221	321	NaN	521	0.324633127078414	2	1	NaN	3794027.9452733	NaN	3794028.928752	3794029.44531027
109	18	1	0	90	36.1581920903955	36.241610738255	18	0.600060024261475	2	10	1	NaN	2	3	0.0565952662433556	1	1	NaN	93	2	30	2	121	221	321	NaN	521	0.275455975439399	2	1	NaN	3794030.5790023	NaN	3794031.5623433	3794032.07889712
109	18	1	0	90	36.1581920903955	36.241610738255	22	0.73340669631958	2	4	3	NaN	1	4	0.0565952662433556	1	1	NaN	94	2	31	2	121	221	321	NaN	521	0.283514827024192	1	1	NaN	3794033.1625455	NaN	3794034.1459422	3794034.66248547
109	18	1	0	90	36.1581920903955	36.241610738255	19	0.633396692276001	2	4	4	NaN	1	4	0.0565952662433556	1	1	NaN	95	2	32	2	121	221	321	NaN	521	0.283173579256982	1	1	NaN	3794035.7628113	NaN	3794036.7461952	3794037.26274892
109	18	1	0	90	36.1581920903955	36.241610738255	6	0.200020008087158	2	6	6	NaN	1	4	0.0565952662433556	1	1	NaN	96	2	33	2	121	221	321	NaN	521	0.227131423074752	1	1	NaN	3794038.3630546	NaN	3794039.3464519	3794039.86299058
109	18	1	0	90	36.1581920903955	36.241610738255	13	0.433376684188843	2	1	6	NaN	1	5	0.0565952662433556	1	1	NaN	97	2	34	2	121	221	321	NaN	521	0.997406927403063	1	1	NaN	3794040.8966857	NaN	3794041.8800329	3794042.39658757
109	18	1	0	90	36.1581920903955	36.241610738255	17	0.566723356246948	2	9	2	NaN	2	4	0.0565952662433556	1	1	NaN	98	2	35	2	121	221	321	NaN	521	0.280946875456721	2	1	NaN	3794044.1969769	NaN	3794045.1803711	3794045.69690352
109	18	1	0	90	36.1581920903955	36.241610738255	16	0.533386688232422	2	2	3	NaN	1	5	0.0565952662433556	1	1	NaN	99	2	36	2	121	221	321	NaN	521	0.0330602233298123	1	1	NaN	3794046.79723	NaN	3794047.7805798	3794048.29715378
109	18	1	0	90	36.1581920903955	36.241610738255	13	0.433376684188843	2	5	4	NaN	1	4	0.0565952662433556	1	1	NaN	100	2	37	2	121	221	321	NaN	521	0.234499875921756	1	1	NaN	3794049.1474501	NaN	3794050.1308352	3794050.64740872
109	18	1	0	90	36.1581920903955	36.241610738255	20	0.666733360290527	2	2	2	NaN	1	3	0.0565952662433556	1	1	NaN	101	2	38	2	121	221	321	NaN	521	0.23633377533406	1	1	NaN	3794051.6975731	NaN	3794052.6810788	3794053.19763562
109	18	1	0	90	36.1581920903955	36.241610738255	0	0	1	1	5	NaN	1	4	0.0565952662433556	1	1	NaN	102	2	39	2	111	211	311	NaN	511	0.182252527214587	1	1	NaN	3794054.247969	NaN	3794055.2313728	3794055.74789777
109	18	1	0	90	36.1581920903955	36.241610738255	9	0.300030012130737	2	12	1	NaN	2	5	0.0565952662433556	1	1	NaN	103	2	40	2	121	221	321	NaN	521	0.22569432714954	2	1	NaN	3794056.7481896	NaN	3794057.7315816	3794058.24814147
109	18	1	0	90	36.1581920903955	36.241610738255	7	0.233356676101685	2	11	1	NaN	2	5	0.0565952662433556	1	1	NaN	104	2	41	2	121	221	321	NaN	521	0.204455527011305	2	1	NaN	3794059.2816662	NaN	3794060.2651593	3794060.78171877
109	18	1	0	90	36.1581920903955	36.241610738255	7	0.233356676101685	2	2	3	NaN	1	3	0.0565952662433556	1	1	NaN	105	2	42	2	121	221	321	NaN	521	0.519839743617922	1	1	NaN	3794061.7987052	NaN	3794062.7820748	3794063.29864016
109	18	1	0	90	36.1581920903955	36.241610738255	15	0.500050020217895	2	11	5	NaN	2	4	0.0565952662433556	1	1	NaN	106	2	43	2	121	221	321	NaN	521	1.17371212691069	2	1	NaN	3794064.6323014	NaN	3794065.6156928	3794066.13224457
109	18	1	0	90	36.1581920903955	36.241610738255	17	0.566723356246948	2	5	5	NaN	1	5	0.0565952662433556	1	1	NaN	107	2	44	2	121	221	321	NaN	521	0.842144927475601	1	1	NaN	3794068.1158442	NaN	3794069.0993986	3794069.61592017
109	18	1	0	90	36.1581920903955	36.241610738255	25	0.833416700363159	2	5	6	NaN	1	5	0.0565952662433556	1	1	NaN	108	2	45	2	121	221	321	NaN	521	0.180029127281159	1	1	NaN	3794071.2662744	NaN	3794072.2497223	3794072.76623557
109	18	1	0	90	36.1581920903955	36.241610738255	17	0.566723356246948	2	3	5	NaN	1	5	0.0565952662433556	1	1	NaN	109	2	46	2	121	221	321	NaN	521	3.1363498759456	1	1	NaN	3794073.7498482	NaN	3794074.7332415	3794075.24980012
109	18	1	0	90	36.1581920903955	36.241610738255	6	0.200020008087158	2	9	3	NaN	2	4	0.0565952662433556	1	1	NaN	110	2	47	2	121	221	321	NaN	521	1.57387172756717	2	1	NaN	3794079.2002579	NaN	3794080.1837899	3794080.70034327
109	18	1	0	90	36.1581920903955	36.241610738255	14	0.466713352203369	2	1	6	NaN	1	4	0.0565952662433556	1	1	NaN	111	2	48	2	121	221	321	NaN	521	0.130061675794423	1	1	NaN	3794083.0840985	NaN	3794084.0674955	3794084.58404752
109	18	1	0	90	36.1581920903955	36.241610738255	24	0.800080032348633	2	5	6	NaN	1	4	0.0565952662433556	1	1	NaN	112	2	49	2	121	221	321	NaN	521	0.40471422765404	1	1	NaN	3794085.8176084	NaN	3794086.801029	3794087.31765587
109	18	1	0	90	36.1581920903955	36.241610738255	0	0	1	4	6	NaN	1	4	0.0565952662433556	1	1	NaN	113	2	50	2	111	211	311	NaN	511	3.83978357585147	1	1	NaN	3794088.5346375	NaN	3794089.5180479	3794090.03458462
109	18	1	0	90	36.1581920903955	36.241610738255	12	0.400040016174316	2	8	4	NaN	2	5	0.0565952662433556	1	1	NaN	114	2	51	2	121	221	321	NaN	521	0.240950427018106	2	1	NaN	3794094.6852487	NaN	3794095.6686505	3794096.18520007
109	18	1	0	90	36.1581920903955	36.241610738255	21	0.700070028305054	2	5	6	NaN	1	3	0.0565952662433556	1	1	NaN	115	2	52	2	121	221	321	NaN	521	0.226588235236704	1	1	NaN	3794097.2354879	NaN	3794098.2188958	3794098.73546146
109	18	1	0	90	36.1581920903955	36.241610738255	12	0.400040016174316	2	3	3	NaN	1	3	0.0565952662433556	1	1	NaN	116	2	53	2	121	221	321	NaN	521	0.588450075592846	1	1	NaN	3794099.7856061	NaN	3794100.7691398	3794101.28570012
109	18	1	0	90	36.1581920903955	36.241610738255	21	0.700070028305054	2	7	3	NaN	2	3	0.0565952662433556	1	1	NaN	117	2	54	2	121	221	321	NaN	521	1.35214557964355	1	0	NaN	3794102.6859346	NaN	3794103.669425	3794104.18598822
109	18	1	0	90	36.1581920903955	36.241610738255	24	0.800080032348633	2	3	5	NaN	1	5	0.0565952662433556	1	1	NaN	118	2	55	2	121	221	321	NaN	521	0.365123575553298	2	0	NaN	3794106.353067	NaN	3794107.3364569	3794107.85301062
109	18	1	0	90	36.1581920903955	36.241610738255	11	0.36670334815979	2	4	6	NaN	1	3	0.0565952662433556	1	1	NaN	119	2	56	2	121	221	321	NaN	521	0.666292475536466	1	1	NaN	3794109.0199947	NaN	3794110.003373	3794110.51993072
109	18	1	0	90	36.1581920903955	36.241610738255	20	0.666733360290527	2	10	4	NaN	2	4	0.0565952662433556	1	1	NaN	120	2	57	2	121	221	321	NaN	521	2.13063237583265	2	1	NaN	3794112.0034769	NaN	3794112.9870116	3794113.50356282
109	18	1	0	90	36.1581920903955	36.241610738255	17	0.566723356246948	2	10	3	NaN	2	3	0.0565952662433556	1	1	NaN	121	2	58	2	121	221	321	NaN	521	0.945300675462931	1	0	NaN	3794116.4373902	NaN	3794117.4207864	3794117.93732452
109	18	1	0	90	36.1581920903955	36.241610738255	17	0.566723356246948	2	1	4	NaN	1	3	0.0565952662433556	1	1	NaN	122	2	59	2	121	221	321	NaN	521	0.494145723525435	1	1	NaN	3794119.7043721	NaN	3794120.6877628	3794121.20430978
109	18	1	0	90	36.1581920903955	36.241610738255	7	0.233356676101685	2	7	4	NaN	2	5	0.0565952662433556	1	1	NaN	123	2	60	2	121	221	321	NaN	521	0.652841375675052	2	1	NaN	3794122.5213653	NaN	3794123.5047406	3794124.02126432
109	18	1	0	90	36.1581920903955	36.241610738255	6	0.200020008087158	2	6	5	NaN	1	5	0.0565952662433556	1	1	NaN	124	2	61	2	121	221	321	NaN	521	1.36576737556607	2	0	NaN	3794125.4882797	NaN	3794126.4716744	3794126.98822392
109	18	1	0	90	36.1581920903955	36.241610738255	22	0.73340669631958	2	7	3	NaN	2	5	0.0565952662433556	1	1	NaN	125	2	62	2	121	221	321	NaN	521	0.458108675200492	2	1	NaN	3794129.1719595	NaN	3794130.1553915	3794130.67190792
109	18	1	0	90	36.1581920903955	36.241610738255	16	0.533386688232422	2	8	6	NaN	2	3	0.0565952662433556	1	1	NaN	126	2	63	2	121	221	321	NaN	521	1.40335457539186	2	1	NaN	3794131.9389205	NaN	3794132.9223142	3794133.43885502
109	18	1	0	90	36.1581920903955	36.241610738255	12	0.400040016174316	2	9	2	NaN	2	4	0.0565952662433556	1	1	NaN	127	3	1	2	121	221	321	NaN	521	0.564029975328594	2	1	NaN	3794145.0902366	NaN	3794146.0736048	3794146.59014032
109	18	1	0	90	36.1581920903955	36.241610738255	16	0.533386688232422	2	5	5	NaN	1	3	0.0565952662433556	1	1	NaN	128	3	2	2	121	221	321	NaN	521	0.0964023759588599	2	0	NaN	3794147.973827	NaN	3794148.9572135	3794149.47376362
109	18	1	0	90	36.1581920903955	36.241610738255	25	0.833416700363159	2	7	1	NaN	2	4	0.0565952662433556	1	1	NaN	129	3	3	2	121	221	321	NaN	521	0.647506675682962	2	1	NaN	3794150.3906479	NaN	3794151.3741153	3794151.89067012
109	18	1	0	90	36.1581920903955	36.241610738255	10	0.333366680145264	2	8	3	NaN	2	4	0.0565952662433556	1	1	NaN	130	3	4	2	121	221	321	NaN	521	0.336446327157319	2	1	NaN	3794153.3576899	NaN	3794154.3410633	3794154.85762947
109	18	1	0	90	36.1581920903955	36.241610738255	6	0.200020008087158	2	10	2	NaN	2	4	0.0565952662433556	1	1	NaN	131	3	5	2	121	221	321	NaN	521	0.286610127426684	2	1	NaN	3794156.0079378	NaN	3794156.9913304	3794157.50788767
109	18	1	0	90	36.1581920903955	36.241610738255	14	0.466713352203369	2	5	2	NaN	1	3	0.0565952662433556	1	1	NaN	132	3	6	2	121	221	321	NaN	521	0.334449327550828	1	1	NaN	3794158.6081818	NaN	3794159.5915829	3794160.10814117
109	18	1	0	90	36.1581920903955	36.241610738255	11	0.36670334815979	2	9	1	NaN	2	4	0.0565952662433556	1	1	NaN	133	3	7	2	121	221	321	NaN	521	0.444093927275389	1	0	NaN	3794161.2584486	NaN	3794162.2418372	3794162.75840407
109	18	1	0	90	36.1581920903955	36.241610738255	16	0.533386688232422	2	7	1	NaN	2	5	0.0565952662433556	1	1	NaN	134	3	8	2	121	221	321	NaN	521	0.58151507563889	1	0	NaN	3794164.0087602	NaN	3794164.9921085	3794165.50866732
109	18	1	0	90	36.1581920903955	36.241610738255	19	0.633396692276001	2	5	1	NaN	1	3	0.0565952662433556	1	1	NaN	135	3	9	2	121	221	321	NaN	521	0.385428526904434	1	1	NaN	3794166.9088514	NaN	3794167.8924064	3794168.40895737
109	18	1	0	90	36.1581920903955	36.241610738255	20	0.666733360290527	2	4	5	NaN	1	3	0.0565952662433556	1	1	NaN	136	3	10	2	121	221	321	NaN	521	0.348990975413471	1	1	NaN	3794169.6092791	NaN	3794170.5926671	3794171.10921322
109	18	1	0	90	36.1581920903955	36.241610738255	22	0.73340669631958	2	6	4	NaN	1	3	0.0565952662433556	1	1	NaN	137	3	11	2	121	221	321	NaN	521	0.411161575932056	1	1	NaN	3794172.2595369	NaN	3794173.2429356	3794173.75948442
109	18	1	0	90	36.1581920903955	36.241610738255	17	0.566723356246948	2	7	3	NaN	2	3	0.0565952662433556	1	1	NaN	138	3	12	2	121	221	321	NaN	521	1.46179247554392	1	0	NaN	3794174.976473	NaN	3794175.9598702	3794176.47641702
109	18	1	0	90	36.1581920903955	36.241610738255	23	0.766743364334106	2	9	4	NaN	2	3	0.0565952662433556	1	1	NaN	139	3	13	2	121	221	321	NaN	521	0.278185827191919	2	1	NaN	3794178.7601268	NaN	3794179.7435697	3794180.26011657
109	18	1	0	90	36.1581920903955	36.241610738255	9	0.300030012130737	2	11	3	NaN	2	4	0.0565952662433556	1	1	NaN	140	3	14	2	121	221	321	NaN	521	0.327736175619066	2	1	NaN	3794181.5104351	NaN	3794182.493828	3794183.01038342
109	18	1	0	90	36.1581920903955	36.241610738255	9	0.300030012130737	2	9	3	NaN	2	3	0.0565952662433556	1	1	NaN	141	3	15	2	121	221	321	NaN	521	0.0703585231676698	2	1	NaN	3794184.1440363	NaN	3794185.1274257	3794185.64397148
109	18	1	0	90	36.1581920903955	36.241610738255	6	0.200020008087158	2	8	3	NaN	2	3	0.0565952662433556	1	1	NaN	142	3	16	2	121	221	321	NaN	521	0.350797811057419	2	1	NaN	3794186.5276156	NaN	3794187.5110464	3794188.02754679
109	18	1	0	90	36.1581920903955	36.241610738255	15	0.500050020217895	2	3	3	NaN	1	3	0.0565952662433556	1	1	NaN	143	3	17	2	121	221	321	NaN	521	1.37970607541502	1	1	NaN	3794189.1945326	NaN	3794190.177933	3794190.69447552
109	18	1	0	90	36.1581920903955	36.241610738255	11	0.36670334815979	2	1	5	NaN	1	3	0.0565952662433556	1	1	NaN	144	3	18	2	121	221	321	NaN	521	0.263365423772484	1	1	NaN	3794192.89477	NaN	3794193.87829	3794194.39483358
109	18	1	0	90	36.1581920903955	36.241610738255	14	0.466713352203369	2	10	6	NaN	2	4	0.0565952662433556	1	1	NaN	145	3	19	2	121	221	321	NaN	521	0.263839127495885	1	0	NaN	3794195.4784757	NaN	3794196.4618668	3794196.97842667
109	18	1	0	90	36.1581920903955	36.241610738255	8	0.266693344116211	2	2	1	NaN	1	3	0.0565952662433556	1	1	NaN	146	3	20	2	121	221	321	NaN	521	0.33628177922219	1	1	NaN	3794198.062053	NaN	3794199.0454514	3794199.56201822
109	18	1	0	90	36.1581920903955	36.241610738255	9	0.300030012130737	2	9	2	NaN	2	3	0.0565952662433556	1	1	NaN	147	3	21	2	121	221	321	NaN	521	1.22708431910723	1	0	NaN	3794200.7955425	NaN	3794201.7790856	3794202.29560958
109	18	1	0	90	36.1581920903955	36.241610738255	20	0.666733360290527	2	8	3	NaN	2	4	0.0565952662433556	1	1	NaN	148	3	22	2	121	221	321	NaN	521	1.2689514271915	2	1	NaN	3794204.3293446	NaN	3794205.3127386	3794205.82929977
109	18	1	0	90	36.1581920903955	36.241610738255	24	0.800080032348633	2	4	3	NaN	1	4	0.0565952662433556	1	1	NaN	149	3	23	2	121	221	321	NaN	521	0.277678475249559	1	1	NaN	3794207.913029	NaN	3794208.8964117	3794209.41298472
109	18	1	0	90	36.1581920903955	36.241610738255	14	0.466713352203369	2	7	1	NaN	2	4	0.0565952662433556	1	1	NaN	150	3	24	2	121	221	321	NaN	521	0.0856985398568213	2	1	NaN	3794210.4966179	NaN	3794211.4800172	3794211.99656586
109	18	1	0	90	36.1581920903955	36.241610738255	11	0.36670334815979	2	2	6	NaN	1	3	0.0565952662433556	1	1	NaN	151	3	25	2	121	221	321	NaN	521	0.340583175420761	1	1	NaN	3794214.3135627	NaN	3794215.2970542	3794215.81360852
109	18	1	0	90	36.1581920903955	36.241610738255	24	0.800080032348633	2	11	2	NaN	2	4	0.0565952662433556	1	1	NaN	152	3	26	2	121	221	321	NaN	521	1.93858302338049	2	1	NaN	3794216.9639101	NaN	3794217.9473135	3794218.46386788
109	18	1	0	90	36.1581920903955	36.241610738255	17	0.566723356246948	2	1	2	NaN	1	5	0.0565952662433556	1	1	NaN	153	3	27	2	121	221	321	NaN	521	0.352116875350475	1	1	NaN	3794221.2141953	NaN	3794222.1977422	3794222.71428232
109	18	1	0	90	36.1581920903955	36.241610738255	14	0.466713352203369	2	12	5	NaN	2	3	0.0565952662433556	1	1	NaN	154	3	28	2	121	221	321	NaN	521	0.429335575550795	2	1	NaN	3794223.8812494	NaN	3794224.864663	3794225.38122142
109	18	1	0	90	36.1581920903955	36.241610738255	13	0.433376684188843	2	10	3	NaN	2	5	0.0565952662433556	1	1	NaN	155	3	29	2	121	221	321	NaN	521	1.3672789754346	2	1	NaN	3794226.6148717	NaN	3794227.5982511	3794228.11481302
109	18	1	0	90	36.1581920903955	36.241610738255	25	0.833416700363159	2	11	5	NaN	2	3	0.0565952662433556	1	1	NaN	156	3	30	2	121	221	321	NaN	521	0.34767907531932	1	0	NaN	3794230.2984157	NaN	3794231.2819577	3794231.79850862
109	18	1	0	90	36.1581920903955	36.241610738255	18	0.600060024261475	2	9	1	NaN	2	3	0.0565952662433556	1	1	NaN	157	3	31	2	121	221	321	NaN	521	3.23291927576065	1	0	NaN	3794232.9654945	NaN	3794233.9488797	3794234.46543732
109	18	1	0	90	36.1581920903955	36.241610738255	15	0.500050020217895	2	8	1	NaN	2	5	0.0565952662433556	1	1	NaN	158	3	32	2	121	221	321	NaN	521	0.346216127276421	2	1	NaN	3794238.5160425	NaN	3794239.4994374	3794240.01599027
109	18	1	0	90	36.1581920903955	36.241610738255	13	0.433376684188843	2	8	6	NaN	2	3	0.0565952662433556	1	1	NaN	159	3	33	2	121	221	321	NaN	521	0.295398775488138	2	1	NaN	3794241.1829711	NaN	3794242.1664052	3794242.68290382
109	18	1	0	90	36.1581920903955	36.241610738255	17	0.566723356246948	2	4	4	NaN	1	4	0.0565952662433556	1	1	NaN	160	3	34	2	121	221	321	NaN	521	0.254870027303696	1	1	NaN	3794243.7999125	NaN	3794244.783286	3794245.29984107
109	18	1	0	90	36.1581920903955	36.241610738255	23	0.766743364334106	2	2	3	NaN	1	4	0.0565952662433556	1	1	NaN	161	3	35	2	121	221	321	NaN	521	0.495807727333158	1	1	NaN	3794246.3668013	NaN	3794247.3501936	3794247.86675037
109	18	1	0	90	36.1581920903955	36.241610738255	25	0.833416700363159	2	9	3	NaN	2	4	0.0565952662433556	1	1	NaN	162	3	36	2	121	221	321	NaN	521	0.247657275758684	2	1	NaN	3794249.1670962	NaN	3794250.1504682	3794250.66702172
109	18	1	0	90	36.1581920903955	36.241610738255	20	0.666733360290527	2	12	6	NaN	2	4	0.0565952662433556	1	1	NaN	163	3	37	2	121	221	321	NaN	521	0.304708027280867	2	1	NaN	3794251.7340044	NaN	3794252.7173924	3794253.23395117
109	18	1	0	90	36.1581920903955	36.241610738255	25	0.833416700363159	2	12	5	NaN	2	4	0.0565952662433556	1	1	NaN	164	3	38	2	121	221	321	NaN	521	1.82354567525908	1	0	NaN	3794254.3509337	NaN	3794255.3343118	3794255.85087012
109	18	1	0	90	36.1581920903955	36.241610738255	23	0.766743364334106	2	10	3	NaN	2	3	0.0565952662433556	1	1	NaN	165	3	39	2	121	221	321	NaN	521	0.385812075342983	2	1	NaN	3794258.4845162	NaN	3794259.4680504	3794259.98461662
109	18	1	0	90	36.1581920903955	36.241610738255	8	0.266693344116211	2	4	3	NaN	1	4	0.0565952662433556	1	1	NaN	166	3	40	2	121	221	321	NaN	521	0.293503623455763	1	1	NaN	3794261.1849138	NaN	3794262.1683114	3794262.68487398
109	18	1	0	90	36.1581920903955	36.241610738255	12	0.400040016174316	2	12	5	NaN	2	4	0.0565952662433556	1	1	NaN	167	3	41	2	121	221	321	NaN	521	0.301664627157152	2	1	NaN	3794263.7852865	NaN	3794264.7685918	3794265.28513727
109	18	1	0	90	36.1581920903955	36.241610738255	11	0.36670334815979	2	5	2	NaN	1	4	0.0565952662433556	1	1	NaN	168	3	42	2	121	221	321	NaN	521	0.460119975730777	1	1	NaN	3794266.4019856	NaN	3794267.385501	3794267.90205032
109	18	1	0	90	36.1581920903955	36.241610738255	24	0.800080032348633	2	2	3	NaN	1	4	0.0565952662433556	1	1	NaN	169	3	43	2	121	221	321	NaN	521	0.28534997580573	1	1	NaN	3794269.1690408	NaN	3794270.1524341	3794270.66898962
109	18	1	0	90	36.1581920903955	36.241610738255	23	0.766743364334106	2	8	5	NaN	2	4	0.0565952662433556	1	1	NaN	170	3	44	2	121	221	321	NaN	521	0.252951775677502	2	1	NaN	3794271.7693168	NaN	3794272.7526962	3794273.26924352
109	18	1	0	90	36.1581920903955	36.241610738255	12	0.400040016174316	2	1	6	NaN	1	5	0.0565952662433556	1	1	NaN	171	3	45	2	121	221	321	NaN	521	0.0702054756693542	1	1	NaN	3794274.3362394	NaN	3794275.3196287	3794275.83616652
109	18	1	0	90	36.1581920903955	36.241610738255	20	0.666733360290527	2	10	6	NaN	2	4	0.0565952662433556	1	1	NaN	172	3	46	2	121	221	321	NaN	521	1.61461037583649	1	0	NaN	3794276.7198767	NaN	3794277.7031727	3794278.21973322
109	18	1	0	90	36.1581920903955	36.241610738255	0	0	1	5	2	NaN	1	5	0.0565952662433556	1	1	NaN	173	3	47	2	111	211	311	NaN	511	0.0890607233159244	1	1	NaN	3794280.6534191	NaN	3794281.6369691	3794282.15344778
109	18	1	0	90	36.1581920903955	36.241610738255	18	0.600060024261475	2	1	5	NaN	1	3	0.0565952662433556	1	1	NaN	174	3	48	2	121	221	321	NaN	521	0.321093923412263	1	1	NaN	3794283.0537414	NaN	3794284.0371352	3794284.55369098
109	18	1	0	90	36.1581920903955	36.241610738255	9	0.300030012130737	2	11	2	NaN	2	5	0.0565952662433556	1	1	NaN	175	3	49	2	121	221	321	NaN	521	0.111043327488005	2	1	NaN	3794285.6872303	NaN	3794286.6707346	3794287.18728707
109	18	1	0	90	36.1581920903955	36.241610738255	16	0.533386688232422	2	6	5	NaN	1	4	0.0565952662433556	1	1	NaN	176	3	50	2	121	221	321	NaN	521	0.262662975583225	1	1	NaN	3794288.1042394	NaN	3794289.0876217	3794289.60418632
109	18	1	0	90	36.1581920903955	36.241610738255	12	0.400040016174316	2	3	5	NaN	1	5	0.0565952662433556	1	1	NaN	177	3	51	2	121	221	321	NaN	521	0.319508475717157	1	1	NaN	3794290.671163	NaN	3794291.6545496	3794292.17109932
109	18	1	0	90	36.1581920903955	36.241610738255	24	0.800080032348633	2	9	5	NaN	2	5	0.0565952662433556	1	1	NaN	178	3	52	2	121	221	321	NaN	521	0.166066675446928	2	1	NaN	3794293.3047406	NaN	3794294.2881476	3794294.80469042
109	18	1	0	90	36.1581920903955	36.241610738255	9	0.300030012130737	2	6	6	NaN	1	3	0.0565952662433556	1	1	NaN	179	3	53	2	121	221	321	NaN	521	0.154547375626862	1	1	NaN	3794295.788322	NaN	3794296.7717023	3794297.28827732
109	18	1	0	90	36.1581920903955	36.241610738255	14	0.466713352203369	2	7	5	NaN	2	3	0.0565952662433556	1	1	NaN	180	3	54	2	121	221	321	NaN	521	0.295072275679559	2	1	NaN	3794298.2552974	NaN	3794299.2386374	3794299.75518082
109	18	1	0	90	36.1581920903955	36.241610738255	6	0.200020008087158	2	12	1	NaN	2	5	0.0565952662433556	1	1	NaN	181	3	55	2	121	221	321	NaN	521	0.982876379042864	2	1	NaN	3794300.8554157	NaN	3794301.838876	3794302.35543822
109	18	1	0	90	36.1581920903955	36.241610738255	13	0.433376684188843	2	11	4	NaN	2	4	0.0565952662433556	1	1	NaN	182	3	56	2	121	221	321	NaN	521	0.962491975631565	2	1	NaN	3794304.1558312	NaN	3794305.1392074	3794305.65575572
109	18	1	0	90	36.1581920903955	36.241610738255	17	0.566723356246948	2	12	4	NaN	2	3	0.0565952662433556	1	1	NaN	183	3	57	2	121	221	321	NaN	521	0.495025675743818	2	1	NaN	3794307.4394799	NaN	3794308.4228801	3794308.93942122
109	18	1	0	90	36.1581920903955	36.241610738255	11	0.36670334815979	2	11	6	NaN	2	4	0.0565952662433556	1	1	NaN	184	3	58	2	121	221	321	NaN	521	0.43807537574321	2	1	NaN	3794310.256448	NaN	3794311.2398126	3794311.75635892
109	18	1	0	90	36.1581920903955	36.241610738255	0	0	1	3	2	NaN	1	3	0.0565952662433556	1	1	NaN	185	3	59	2	111	211	311	NaN	511	0.232191279530525	1	1	NaN	3794313.0066825	NaN	3794313.9900783	3794314.50662922
109	18	1	0	90	36.1581920903955	36.241610738255	7	0.233356676101685	2	10	1	NaN	2	3	0.0565952662433556	1	1	NaN	186	3	60	2	121	221	321	NaN	521	0.393515575677156	2	1	NaN	3794315.5569541	NaN	3794316.5403223	3794317.05687582
109	18	1	0	90	36.1581920903955	36.241610738255	24	0.800080032348633	2	12	2	NaN	2	4	0.0565952662433556	1	1	NaN	187	3	61	2	121	221	321	NaN	521	2.30129627557471	2	1	NaN	3794318.2571868	NaN	3794319.2405742	3794319.75714692
109	18	1	0	90	36.1581920903955	36.241610738255	21	0.700070028305054	2	9	6	NaN	2	5	0.0565952662433556	1	1	NaN	188	3	62	2	121	221	321	NaN	521	0.468159679323435	2	1	NaN	3794322.8743375	NaN	3794323.8577135	3794324.37427142
109	18	1	0	90	36.1581920903955	36.241610738255	11	0.36670334815979	2	8	5	NaN	2	4	0.0565952662433556	1	1	NaN	189	3	63	2	121	221	321	NaN	521	0.308528839610517	2	1	NaN	3794325.6578521	NaN	3794326.6413182	3794327.15788526
109	18	1	0	90	36.1581920903955	36.241610738255	0	0	1	5	5	NaN	1	5	0.0565952662433556	1	1	NaN	190	4	1	2	111	211	311	NaN	511	0.708636979572475	1	1	NaN	3794343.6263532	NaN	3794344.6097647	3794345.12630742
109	18	1	0	90	36.1581920903955	36.241610738255	9	0.300030012130737	2	7	3	NaN	2	5	0.0565952662433556	1	1	NaN	191	4	2	2	121	221	321	NaN	521	2.29934927541763	2	1	NaN	3794346.6433204	NaN	3794347.6267123	3794348.14326002
109	18	1	0	90	36.1581920903955	36.241610738255	9	0.300030012130737	2	3	6	NaN	1	5	0.0565952662433556	1	1	NaN	192	4	3	2	121	221	321	NaN	521	0.274067879188806	1	1	NaN	3794351.2604344	NaN	3794352.2438344	3794352.76038782
109	18	1	0	90	36.1581920903955	36.241610738255	18	0.600060024261475	2	1	3	NaN	1	3	0.0565952662433556	1	1	NaN	193	4	4	2	121	221	321	NaN	521	2.08283177530393	1	1	NaN	3794353.8439576	NaN	3794354.8274824	3794355.34397122
109	18	1	0	90	36.1581920903955	36.241610738255	16	0.533386688232422	2	10	6	NaN	2	5	0.0565952662433556	1	1	NaN	194	4	5	2	121	221	321	NaN	521	0.434050375595689	2	1	NaN	3794358.2444568	NaN	3794359.2278504	3794359.74440862
109	18	1	0	90	36.1581920903955	36.241610738255	15	0.500050020217895	2	7	4	NaN	2	5	0.0565952662433556	1	1	NaN	195	4	6	2	121	221	321	NaN	521	0.355784175451845	2	1	NaN	3794360.9947208	NaN	3794361.9780435	3794362.49467552
109	18	1	0	90	36.1581920903955	36.241610738255	11	0.36670334815979	2	12	6	NaN	2	4	0.0565952662433556	1	1	NaN	196	4	7	2	121	221	321	NaN	521	0.112872375641018	2	1	NaN	3794363.6616817	NaN	3794364.6450572	3794365.16160622
109	18	1	0	90	36.1581920903955	36.241610738255	8	0.266693344116211	2	7	5	NaN	2	5	0.0565952662433556	1	1	NaN	197	4	8	2	121	221	321	NaN	521	0.271219775546342	2	1	NaN	3794366.0950915	NaN	3794367.0786231	3794367.59517452
109	18	1	0	90	36.1581920903955	36.241610738255	20	0.666733360290527	2	9	2	NaN	2	3	0.0565952662433556	1	1	NaN	198	4	9	2	121	221	321	NaN	521	0.183729675598443	2	1	NaN	3794368.6788182	NaN	3794369.6622136	3794370.17875942
109	18	1	0	90	36.1581920903955	36.241610738255	15	0.500050020217895	2	6	1	NaN	1	4	0.0565952662433556	1	1	NaN	199	4	10	2	121	221	321	NaN	521	0.283892170991749	1	1	NaN	3794371.1790567	NaN	3794372.1624956	3794372.67899963
109	18	1	0	90	36.1581920903955	36.241610738255	16	0.533386688232422	2	7	2	NaN	2	3	0.0565952662433556	1	1	NaN	200	4	11	2	121	221	321	NaN	521	0.251137075945735	2	1	NaN	3794373.7793131	NaN	3794374.7627157	3794375.27926062
109	18	1	0	90	36.1581920903955	36.241610738255	8	0.266693344116211	2	11	1	NaN	2	5	0.0565952662433556	1	1	NaN	201	4	12	2	121	221	321	NaN	521	0.212328595574945	2	1	NaN	3794376.3462464	NaN	3794377.3296173	3794377.8462
109	18	1	0	90	36.1581920903955	36.241610738255	13	0.433376684188843	2	12	3	NaN	2	5	0.0565952662433556	1	1	NaN	202	4	13	2	121	221	321	NaN	521	0.24688867572695	2	1	NaN	3794378.8798168	NaN	3794379.8632157	3794380.37976252
109	18	1	0	90	36.1581920903955	36.241610738255	15	0.500050020217895	2	4	5	NaN	1	4	0.0565952662433556	1	1	NaN	203	4	14	2	121	221	321	NaN	521	0.263814375735819	1	1	NaN	3794381.4467514	NaN	3794382.4301224	3794382.94668532
109	18	1	0	90	36.1581920903955	36.241610738255	0	0	1	11	4	NaN	2	3	0.0565952662433556	1	1	NaN	204	4	15	2	111	211	311	NaN	511	0.264142475556582	2	1	NaN	3794384.0303281	NaN	3794385.0136984	3794385.53027392
109	18	1	0	90	36.1581920903955	36.241610738255	17	0.566723356246948	2	6	6	NaN	1	5	0.0565952662433556	1	1	NaN	205	4	16	2	121	221	321	NaN	521	0.15283437538892	1	1	NaN	3794386.6139072	NaN	3794387.5973014	3794388.11385312
109	18	1	0	90	36.1581920903955	36.241610738255	19	0.633396692276001	2	5	6	NaN	1	5	0.0565952662433556	1	1	NaN	206	4	17	2	121	221	321	NaN	521	0.213710827287287	2	0	NaN	3794389.0808213	NaN	3794390.0642314	3794390.58077087
109	18	1	0	90	36.1581920903955	36.241610738255	21	0.700070028305054	2	5	2	NaN	1	4	0.0565952662433556	1	1	NaN	207	4	18	2	121	221	321	NaN	521	0.360093887429684	1	1	NaN	3794391.6144944	NaN	3794392.5977804	3794393.11435201
109	18	1	0	90	36.1581920903955	36.241610738255	25	0.833416700363159	2	5	3	NaN	1	5	0.0565952662433556	1	1	NaN	208	4	19	2	121	221	321	NaN	521	0.189577475655824	1	1	NaN	3794394.2812563	NaN	3794395.2647164	3794395.78127312
109	18	1	0	90	36.1581920903955	36.241610738255	20	0.666733360290527	2	8	6	NaN	2	3	0.0565952662433556	1	1	NaN	209	4	20	2	121	221	321	NaN	521	0.265002375468612	2	1	NaN	3794396.7814473	NaN	3794397.7649555	3794398.28152112
109	18	1	0	90	36.1581920903955	36.241610738255	15	0.500050020217895	2	1	2	NaN	1	3	0.0565952662433556	1	1	NaN	210	4	21	2	121	221	321	NaN	521	0.241537975613028	1	1	NaN	3794399.3651618	NaN	3794400.3485503	3794400.86511242
109	18	1	0	90	36.1581920903955	36.241610738255	6	0.200020008087158	2	11	3	NaN	2	3	0.0565952662433556	1	1	NaN	211	4	22	2	121	221	321	NaN	521	0.0871969754807651	2	1	NaN	3794402.015409	NaN	3794402.9988073	3794403.51536132
109	18	1	0	90	36.1581920903955	36.241610738255	12	0.400040016174316	2	11	1	NaN	2	5	0.0565952662433556	1	1	NaN	212	4	23	2	121	221	321	NaN	521	0.814843475818634	2	1	NaN	3794404.4156546	NaN	3794405.3990477	3794405.91560062
109	18	1	0	90	36.1581920903955	36.241610738255	10	0.333366680145264	2	1	5	NaN	1	3	0.0565952662433556	1	1	NaN	213	4	24	2	121	221	321	NaN	521	0.0104071754030883	1	1	NaN	3794407.5493898	NaN	3794408.5327265	3794409.04924152
109	18	1	0	90	36.1581920903955	36.241610738255	10	0.333366680145264	2	7	6	NaN	2	5	0.0565952662433556	1	1	NaN	214	4	25	2	121	221	321	NaN	521	0.348853775300086	2	1	NaN	3794409.8660599	NaN	3794410.8495964	3794411.36614262
109	18	1	0	90	36.1581920903955	36.241610738255	23	0.766743364334106	2	6	4	NaN	1	4	0.0565952662433556	1	1	NaN	215	4	26	2	121	221	321	NaN	521	0.193875075317919	1	1	NaN	3794412.5331061	NaN	3794413.5165652	3794414.03306562
109	18	1	0	90	36.1581920903955	36.241610738255	16	0.533386688232422	2	9	6	NaN	2	3	0.0565952662433556	1	1	NaN	216	4	27	2	121	221	321	NaN	521	0.285052275750786	2	1	NaN	3794415.0333608	NaN	3794416.0167553	3794416.53331832
109	18	1	0	90	36.1581920903955	36.241610738255	0	0	1	6	5	NaN	1	5	0.0565952662433556	1	1	NaN	217	4	28	2	111	211	311	NaN	511	1.05339112365618	1	1	NaN	3794417.6336384	NaN	3794418.6170054	3794419.13356208
109	18	1	0	90	36.1581920903955	36.241610738255	21	0.700070028305054	2	3	1	NaN	1	3	0.0565952662433556	1	1	NaN	218	4	29	2	121	221	321	NaN	521	0.501974975690246	1	1	NaN	3794421.0006326	NaN	3794421.9840198	3794422.50056292
109	18	1	0	90	36.1581920903955	36.241610738255	19	0.633396692276001	2	11	4	NaN	2	5	0.0565952662433556	1	1	NaN	219	4	30	2	121	221	321	NaN	521	3.11747697554529	1	0	NaN	3794423.8175751	NaN	3794424.8009604	3794425.31750022
109	18	1	0	90	36.1581920903955	36.241610738255	21	0.700070028305054	2	1	1	NaN	1	4	0.0565952662433556	1	1	NaN	220	4	31	2	121	221	321	NaN	521	2.69107957556844	1	1	NaN	3794429.2514305	NaN	3794430.2348375	3794430.75138082
109	18	1	0	90	36.1581920903955	36.241610738255	17	0.566723356246948	2	11	3	NaN	2	3	0.0565952662433556	1	1	NaN	221	4	32	2	121	221	321	NaN	521	0.379082175437361	2	1	NaN	3794434.2519315	NaN	3794435.2353068	3794435.75186482
109	18	1	0	90	36.1581920903955	36.241610738255	22	0.73340669631958	2	8	5	NaN	2	4	0.0565952662433556	1	1	NaN	222	4	33	2	121	221	321	NaN	521	0.822741675656289	2	1	NaN	3794436.9521985	NaN	3794437.9355664	3794438.45213172
109	18	1	0	90	36.1581920903955	36.241610738255	16	0.533386688232422	2	9	3	NaN	2	4	0.0565952662433556	1	1	NaN	223	4	34	2	121	221	321	NaN	521	0.34480837546289	2	1	NaN	3794440.0858172	NaN	3794441.0692126	3794441.58577052
109	18	1	0	90	36.1581920903955	36.241610738255	19	0.633396692276001	2	9	3	NaN	2	5	0.0565952662433556	1	1	NaN	224	4	35	2	121	221	321	NaN	521	0.381816275417805	2	1	NaN	3794442.7527511	NaN	3794443.7361554	3794444.25270052
109	18	1	0	90	36.1581920903955	36.241610738255	22	0.73340669631958	2	9	4	NaN	2	3	0.0565952662433556	1	1	NaN	225	4	36	2	121	221	321	NaN	521	0.233582023531199	2	1	NaN	3794445.4530333	NaN	3794446.4364178	3794446.95296018
109	18	1	0	90	36.1581920903955	36.241610738255	11	0.36670334815979	2	8	2	NaN	2	4	0.0565952662433556	1	1	NaN	226	4	37	2	121	221	321	NaN	521	0.331262127030641	2	1	NaN	3794448.0032757	NaN	3794448.9866716	3794449.50321487
109	18	1	0	90	36.1581920903955	36.241610738255	23	0.766743364334106	2	8	2	NaN	2	3	0.0565952662433556	1	1	NaN	227	4	38	2	121	221	321	NaN	521	0.0739303957670927	2	1	NaN	3794450.6368767	NaN	3794451.6202405	3794452.1368149
109	18	1	0	90	36.1581920903955	36.241610738255	25	0.833416700363159	2	12	6	NaN	2	4	0.0565952662433556	1	1	NaN	228	4	39	2	121	221	321	NaN	521	0.2184127275832	2	1	NaN	3794453.020422	NaN	3794454.0038085	3794454.52038267
109	18	1	0	90	36.1581920903955	36.241610738255	17	0.566723356246948	2	6	6	NaN	1	3	0.0565952662433556	1	1	NaN	229	4	40	2	121	221	321	NaN	521	0.132702375762165	1	1	NaN	3794455.5540078	NaN	3794456.5374316	3794457.05395912
109	18	1	0	90	36.1581920903955	36.241610738255	24	0.800080032348633	2	8	5	NaN	2	4	0.0565952662433556	1	1	NaN	230	4	41	2	121	221	321	NaN	521	0.0431886757723987	2	1	NaN	3794457.9875839	NaN	3794458.970991	3794459.48753172
109	18	1	0	90	36.1581920903955	36.241610738255	7	0.233356676101685	2	6	2	NaN	1	4	0.0565952662433556	1	1	NaN	231	4	42	2	121	221	321	NaN	521	1.46898237522691	1	1	NaN	3794460.3376693	NaN	3794461.3212089	3794461.83776112
109	18	1	0	90	36.1581920903955	36.241610738255	13	0.433376684188843	2	10	6	NaN	2	3	0.0565952662433556	1	1	NaN	232	4	43	2	121	221	321	NaN	521	0.472301127389073	2	1	NaN	3794464.4382564	NaN	3794465.4216169	3794465.93816307
109	18	1	0	90	36.1581920903955	36.241610738255	9	0.300030012130737	2	6	3	NaN	1	5	0.0565952662433556	1	1	NaN	233	4	44	2	121	221	321	NaN	521	0.440740375779569	1	1	NaN	3794467.221859	NaN	3794468.2052157	3794468.72176922
109	18	1	0	90	36.1581920903955	36.241610738255	0	0	1	1	4	NaN	1	5	0.0565952662433556	1	1	NaN	234	4	45	2	111	211	311	NaN	511	0.298886927310377	1	1	NaN	3794469.9719933	NaN	3794470.9554871	3794471.47204187
109	18	1	0	90	36.1581920903955	36.241610738255	16	0.533386688232422	2	11	6	NaN	2	5	0.0565952662433556	1	1	NaN	235	4	46	2	121	221	321	NaN	521	0.0104129752144217	2	1	NaN	3794472.5890061	NaN	3794473.5723896	3794474.08896052
109	18	1	0	90	36.1581920903955	36.241610738255	6	0.200020008087158	2	2	4	NaN	1	4	0.0565952662433556	1	1	NaN	236	4	47	2	121	221	321	NaN	521	0.228713975287974	1	1	NaN	3794474.9059079	NaN	3794475.8892882	3794476.40585492
109	18	1	0	90	36.1581920903955	36.241610738255	6	0.200020008087158	2	4	5	NaN	1	5	0.0565952662433556	1	1	NaN	237	4	48	2	121	221	321	NaN	521	0.0104073756374419	1	1	NaN	3794477.4393582	NaN	3794478.4228883	3794478.93943672
109	18	1	0	90	36.1581920903955	36.241610738255	14	0.466713352203369	2	1	1	NaN	1	3	0.0565952662433556	1	1	NaN	238	4	49	2	121	221	321	NaN	521	0.010419275611639	1	1	NaN	3794479.7563784	NaN	3794480.7397755	3794481.25633742
109	18	1	0	90	36.1581920903955	36.241610738255	12	0.400040016174316	2	2	4	NaN	1	4	0.0565952662433556	1	1	NaN	239	4	50	2	121	221	321	NaN	521	0.245448875706643	1	1	NaN	3794482.0731553	NaN	3794483.0566674	3794483.57322412
109	18	1	0	90	36.1581920903955	36.241610738255	11	0.36670334815979	2	4	4	NaN	1	4	0.0565952662433556	1	1	NaN	240	4	51	2	121	221	321	NaN	521	0.0103932269848883	1	1	NaN	3794484.806877	NaN	3794485.7902683	3794486.30683537
109	18	1	0	90	36.1581920903955	36.241610738255	20	0.666733360290527	2	11	4	NaN	2	4	0.0565952662433556	1	1	NaN	241	4	52	2	121	221	321	NaN	521	0.298893227241933	1	0	NaN	3794487.1237968	NaN	3794488.1071784	3794488.62372597
109	18	1	0	90	36.1581920903955	36.241610738255	7	0.233356676101685	2	11	1	NaN	2	4	0.0565952662433556	1	1	NaN	242	4	53	2	121	221	321	NaN	521	0.0104022757150233	2	1	NaN	3794489.7406952	NaN	3794490.7240913	3794491.24064292
109	18	1	0	90	36.1581920903955	36.241610738255	6	0.200020008087158	2	7	5	NaN	2	3	0.0565952662433556	1	1	NaN	243	4	54	2	121	221	321	NaN	521	0.132513375487179	2	1	NaN	3794492.0742845	NaN	3794493.0576662	3794493.57420572
109	18	1	0	90	36.1581920903955	36.241610738255	8	0.266693344116211	2	3	6	NaN	1	5	0.0565952662433556	1	1	NaN	244	4	55	2	121	221	321	NaN	521	0.35409407550469	1	1	NaN	3794494.5245598	NaN	3794495.5079021	3794496.02444982
109	18	1	0	90	36.1581920903955	36.241610738255	6	0.200020008087158	2	3	3	NaN	1	4	0.0565952662433556	1	1	NaN	245	4	56	2	121	221	321	NaN	521	0.0104162758216262	1	1	NaN	3794497.191482	NaN	3794498.1748248	3794498.69137602
109	18	1	0	90	36.1581920903955	36.241610738255	20	0.666733360290527	2	5	1	NaN	1	3	0.0565952662433556	1	1	NaN	246	4	57	2	121	221	321	NaN	521	0.0104094757698476	1	1	NaN	3794499.5083322	NaN	3794500.4917095	3794501.00827682
109	18	1	0	90	36.1581920903955	36.241610738255	8	0.266693344116211	2	8	5	NaN	2	3	0.0565952662433556	1	1	NaN	247	4	58	2	121	221	321	NaN	521	0.32585637550801	2	1	NaN	3794501.8252249	NaN	3794502.8086188	3794503.32516452
109	18	1	0	90	36.1581920903955	36.241610738255	8	0.266693344116211	2	8	1	NaN	2	5	0.0565952662433556	1	1	NaN	248	4	59	2	121	221	321	NaN	521	1.45188237540424	1	0	NaN	3794504.458813	NaN	3794505.4421999	3794505.95875002
109	18	1	0	90	36.1581920903955	36.241610738255	6	0.200020008087158	2	2	4	NaN	1	4	0.0565952662433556	1	1	NaN	249	4	60	2	121	221	321	NaN	521	0.284690075553954	1	1	NaN	3794508.2258375	NaN	3794509.2092788	3794509.72578752
109	18	1	0	90	36.1581920903955	36.241610738255	22	0.73340669631958	2	9	4	NaN	2	4	0.0565952662433556	1	1	NaN	250	4	61	2	121	221	321	NaN	521	0.188675175886601	2	1	NaN	3794510.8260966	NaN	3794511.8094826	3794512.32604462
109	18	1	0	90	36.1581920903955	36.241610738255	24	0.800080032348633	2	3	4	NaN	1	5	0.0565952662433556	1	1	NaN	251	4	62	2	121	221	321	NaN	521	0.160305823665112	1	1	NaN	3794513.3263456	NaN	3794514.309749	3794514.82630078
109	18	1	0	90	36.1581920903955	36.241610738255	18	0.600060024261475	2	6	3	NaN	1	4	0.0565952662433556	1	1	NaN	252	4	63	2	121	221	321	NaN	521	0.0103865270502865	1	1	NaN	3794515.7931309	NaN	3794516.7766968	3794517.29320767
109	18	1	0	90	36.1581920903955	36.241610738255	19	0.633396692276001	2	10	3	NaN	2	4	0.0565952662433556	1	1	NaN	253	5	1	2	121	221	321	NaN	521	0.269529475830495	2	1	NaN	3794528.5612649	NaN	3794529.5445786	3794530.06112702
109	18	1	0	90	36.1581920903955	36.241610738255	13	0.433376684188843	2	9	5	NaN	2	3	0.0565952662433556	1	1	NaN	254	5	2	2	121	221	321	NaN	521	0.0104071754030883	2	1	NaN	3794531.1447805	NaN	3794532.1281602	3794532.64471762
109	18	1	0	90	36.1581920903955	36.241610738255	8	0.266693344116211	2	3	3	NaN	1	4	0.0565952662433556	1	1	NaN	255	5	3	2	121	221	321	NaN	521	1.26546927541494	1	1	NaN	3794533.4616551	NaN	3794534.4450518	3794534.96161102
109	18	1	0	90	36.1581920903955	36.241610738255	9	0.300030012130737	2	2	6	NaN	1	5	0.0565952662433556	1	1	NaN	256	5	4	2	121	221	321	NaN	521	0.233476227149367	1	1	NaN	3794537.0453683	NaN	3794538.0287293	3794538.54529437
109	18	1	0	90	36.1581920903955	36.241610738255	22	0.73340669631958	2	11	1	NaN	2	5	0.0565952662433556	1	1	NaN	257	5	5	2	121	221	321	NaN	521	0.339594375807792	2	1	NaN	3794539.5954614	NaN	3794540.579031	3794541.09554672
109	18	1	0	90	36.1581920903955	36.241610738255	19	0.633396692276001	2	8	4	NaN	2	5	0.0565952662433556	1	1	NaN	258	5	6	2	121	221	321	NaN	521	0.408867075573653	2	1	NaN	3794542.2457899	NaN	3794543.2293559	3794543.74579732
109	18	1	0	90	36.1581920903955	36.241610738255	19	0.633396692276001	2	1	2	NaN	1	3	0.0565952662433556	1	1	NaN	259	5	7	2	121	221	321	NaN	521	0.259895987343043	1	1	NaN	3794544.9627862	NaN	3794545.9461935	3794546.46273691
109	18	1	0	90	36.1581920903955	36.241610738255	22	0.73340669631958	2	12	4	NaN	2	5	0.0565952662433556	1	1	NaN	260	5	8	2	121	221	321	NaN	521	0.245032027363777	2	1	NaN	3794547.5297146	NaN	3794548.513099	3794549.02965877
109	18	1	0	90	36.1581920903955	36.241610738255	6	0.200020008087158	2	1	4	NaN	1	4	0.0565952662433556	1	1	NaN	261	5	9	2	121	221	321	NaN	521	0.222535626962781	1	1	NaN	3794550.0966248	NaN	3794551.0800163	3794551.59657817
109	18	1	0	90	36.1581920903955	36.241610738255	18	0.600060024261475	2	9	6	NaN	2	3	0.0565952662433556	1	1	NaN	262	5	10	2	121	221	321	NaN	521	0.344777323305607	2	1	NaN	3794552.6302178	NaN	3794553.6136022	3794554.13015028
109	18	1	0	90	36.1581920903955	36.241610738255	24	0.800080032348633	2	10	4	NaN	2	3	0.0565952662433556	1	1	NaN	263	5	11	2	121	221	321	NaN	521	0.054338475689292	2	1	NaN	3794555.2804824	NaN	3794556.2638484	3794556.78041712
109	18	1	0	90	36.1581920903955	36.241610738255	0	0	1	8	4	NaN	2	4	0.0565952662433556	1	1	NaN	264	5	12	2	111	211	311	NaN	511	0.247747079469264	2	1	NaN	3794557.647369	NaN	3794558.6307512	3794559.14731702
109	18	1	0	90	36.1581920903955	36.241610738255	7	0.233356676101685	2	5	3	NaN	1	5	0.0565952662433556	1	1	NaN	265	5	13	2	121	221	321	NaN	521	0.256401575636119	1	1	NaN	3794560.2142891	NaN	3794561.1976731	3794561.71423262
109	18	1	0	90	36.1581920903955	36.241610738255	21	0.700070028305054	2	7	2	NaN	2	5	0.0565952662433556	1	1	NaN	266	5	14	2	121	221	321	NaN	521	0.0175537755712867	2	1	NaN	3794562.7812496	NaN	3794563.764595	3794564.28114782
109	18	1	0	90	36.1581920903955	36.241610738255	21	0.700070028305054	2	4	3	NaN	1	4	0.0565952662433556	1	1	NaN	267	5	15	2	121	221	321	NaN	521	0.10005822731182	1	1	NaN	3794565.1147465	NaN	3794566.0981643	3794566.61471247
109	18	1	0	90	36.1581920903955	36.241610738255	12	0.400040016174316	2	9	6	NaN	2	4	0.0565952662433556	1	1	NaN	268	5	16	2	121	221	321	NaN	521	0.0831481753848493	2	1	NaN	3794567.5316573	NaN	3794568.515067	3794569.03161192
109	18	1	0	90	36.1581920903955	36.241610738255	7	0.233356676101685	2	12	6	NaN	2	4	0.0565952662433556	1	1	NaN	269	5	17	2	121	221	321	NaN	521	0.019018127117306	2	1	NaN	3794569.9319186	NaN	3794570.9153274	3794571.43184997
109	18	1	0	90	36.1581920903955	36.241610738255	12	0.400040016174316	2	12	2	NaN	2	4	0.0565952662433556	1	1	NaN	270	5	18	2	121	221	321	NaN	521	0.197346375323832	2	1	NaN	3794572.2654451	NaN	3794573.2488583	3794573.76540872
109	18	1	0	90	36.1581920903955	36.241610738255	9	0.300030012130737	2	10	4	NaN	2	4	0.0565952662433556	1	1	NaN	271	5	19	2	121	221	321	NaN	521	0.0645330236293375	2	1	NaN	3794574.782412	NaN	3794575.7657793	3794576.28231968
109	18	1	0	90	36.1581920903955	36.241610738255	10	0.333366680145264	2	11	5	NaN	2	3	0.0565952662433556	1	1	NaN	272	5	20	2	121	221	321	NaN	521	0.0104113756678998	2	1	NaN	3794577.1658448	NaN	3794578.1493451	3794578.66589182
109	18	1	0	90	36.1581920903955	36.241610738255	15	0.500050020217895	2	10	4	NaN	2	3	0.0565952662433556	1	1	NaN	273	5	21	2	121	221	321	NaN	521	0.0103997276164591	2	1	NaN	3794579.4827167	NaN	3794580.466135	3794580.98279657
109	18	1	0	90	36.1581920903955	36.241610738255	25	0.833416700363159	2	6	1	NaN	1	4	0.0565952662433556	1	1	NaN	274	5	22	2	121	221	321	NaN	521	0.0104221752844751	1	1	NaN	3794581.7997177	NaN	3794582.7831291	3794583.29968012
109	18	1	0	90	36.1581920903955	36.241610738255	22	0.73340669631958	2	7	5	NaN	2	4	0.0565952662433556	1	1	NaN	275	5	23	2	121	221	321	NaN	521	0.0981596754863858	1	0	NaN	3794584.1166309	NaN	3794585.1000236	3794585.61657002
109	18	1	0	90	36.1581920903955	36.241610738255	22	0.73340669631958	2	1	1	NaN	1	4	0.0565952662433556	1	1	NaN	276	5	24	2	121	221	321	NaN	521	0.242536675650626	1	1	NaN	3794586.7002404	NaN	3794587.6836231	3794588.20016182
109	18	1	0	90	36.1581920903955	36.241610738255	22	0.73340669631958	2	12	3	NaN	2	5	0.0565952662433556	1	1	NaN	277	5	25	2	121	221	321	NaN	521	0.284308975562453	2	1	NaN	3794589.2503391	NaN	3794590.2338771	3794590.75041832
109	18	1	0	90	36.1581920903955	36.241610738255	13	0.433376684188843	2	2	5	NaN	1	3	0.0565952662433556	1	1	NaN	278	5	26	2	121	221	321	NaN	521	0.180369027424604	1	1	NaN	3794591.8507366	NaN	3794592.8341085	3794593.35066637
109	18	1	0	90	36.1581920903955	36.241610738255	0	0	1	10	4	NaN	2	5	0.0565952662433556	1	1	NaN	279	5	27	2	111	211	311	NaN	511	0.103875175584108	1	0	NaN	3794594.3509696	NaN	3794595.3343516	3794595.85090982
109	18	1	0	90	36.1581920903955	36.241610738255	20	0.666733360290527	2	3	2	NaN	1	5	0.0565952662433556	1	1	NaN	280	5	28	2	121	221	321	NaN	521	0.194304144009948	1	1	NaN	3794596.8845488	NaN	3794597.8679523	3794598.38449826
109	18	1	0	90	36.1581920903955	36.241610738255	15	0.500050020217895	2	7	2	NaN	2	4	0.0565952662433556	1	1	NaN	281	5	29	2	121	221	321	NaN	521	0.0104080755263567	2	1	NaN	3794599.3847926	NaN	3794600.3682098	3794600.88474872
109	18	1	0	90	36.1581920903955	36.241610738255	24	0.800080032348633	2	10	2	NaN	2	4	0.0565952662433556	1	1	NaN	282	5	30	2	121	221	321	NaN	521	0.24901464395225	2	1	NaN	3794601.7015614	NaN	3794602.6850793	3794603.20163706
109	18	1	0	90	36.1581920903955	36.241610738255	13	0.433376684188843	2	6	2	NaN	1	3	0.0565952662433556	1	1	NaN	283	5	31	2	121	221	321	NaN	521	0.0104089751839638	1	1	NaN	3794604.2686008	NaN	3794605.2519915	3794605.76855262
109	18	1	0	90	36.1581920903955	36.241610738255	20	0.666733360290527	2	5	4	NaN	1	4	0.0565952662433556	1	1	NaN	284	5	32	2	121	221	321	NaN	521	2.02126547973603	1	1	NaN	3794606.5855094	NaN	3794607.5689025	3794608.08545862
109	18	1	0	90	36.1581920903955	36.241610738255	8	0.266693344116211	2	5	5	NaN	1	4	0.0565952662433556	1	1	NaN	285	5	33	2	121	221	321	NaN	521	0.735996675677598	1	1	NaN	3794610.9191549	NaN	3794611.9027127	3794612.41920692
109	18	1	0	90	36.1581920903955	36.241610738255	22	0.73340669631958	2	3	6	NaN	1	4	0.0565952662433556	1	1	NaN	286	5	34	2	121	221	321	NaN	521	0.357668875716627	1	1	NaN	3794613.9695653	NaN	3794614.9529618	3794615.46950082
109	18	1	0	90	36.1581920903955	36.241610738255	23	0.766743364334106	2	9	1	NaN	2	3	0.0565952662433556	1	1	NaN	287	5	35	2	121	221	321	NaN	521	0.186907675582916	1	0	NaN	3794616.6363655	NaN	3794617.6198986	3794618.13644322
109	18	1	0	90	36.1581920903955	36.241610738255	17	0.566723356246948	2	12	2	NaN	2	4	0.0565952662433556	1	1	NaN	288	5	36	2	121	221	321	NaN	521	0.0141896759159863	2	1	NaN	3794619.1366038	NaN	3794620.1201217	3794620.63668042
109	18	1	0	90	36.1581920903955	36.241610738255	7	0.233356676101685	2	2	5	NaN	1	5	0.0565952662433556	1	1	NaN	289	5	37	2	121	221	321	NaN	521	0.0102832918055356	1	1	NaN	3794621.4701692	NaN	3794622.4537529	3794622.97024651
109	18	1	0	90	36.1581920903955	36.241610738255	19	0.633396692276001	2	10	2	NaN	2	4	0.0565952662433556	1	1	NaN	290	5	38	2	121	221	321	NaN	521	0.0103783793747425	2	1	NaN	3794623.8037274	NaN	3794624.7872501	3794625.30381182
109	18	1	0	90	36.1581920903955	36.241610738255	11	0.36670334815979	2	7	3	NaN	2	3	0.0565952662433556	1	1	NaN	291	5	39	2	121	221	321	NaN	521	0.078222275711596	2	1	NaN	3794626.1207512	NaN	3794627.1041429	3794627.62070332
109	18	1	0	90	36.1581920903955	36.241610738255	23	0.766743364334106	2	12	1	NaN	2	3	0.0565952662433556	1	1	NaN	292	5	40	2	121	221	321	NaN	521	0.214826175477356	2	1	NaN	3794628.5041876	NaN	3794629.4877217	3794630.00426382
109	18	1	0	90	36.1581920903955	36.241610738255	0	0	1	3	3	NaN	1	4	0.0565952662433556	1	1	NaN	293	5	41	2	111	211	311	NaN	511	0.0104367234744132	1	1	NaN	3794631.0379224	NaN	3794632.0212864	3794632.53784248
109	18	1	0	90	36.1581920903955	36.241610738255	15	0.500050020217895	2	11	4	NaN	2	4	0.0565952662433556	1	1	NaN	294	5	42	2	121	221	321	NaN	521	0.0104074757546186	1	0	NaN	3794633.3714885	NaN	3794634.3548525	3794634.87140842
109	18	1	0	90	36.1581920903955	36.241610738255	15	0.500050020217895	2	10	6	NaN	2	4	0.0565952662433556	1	1	NaN	295	5	43	2	121	221	321	NaN	521	1.20593514433131	2	1	NaN	3794635.7050444	NaN	3794636.6884235	3794637.20497646
109	18	1	0	90	36.1581920903955	36.241610738255	6	0.200020008087158	2	10	1	NaN	2	5	0.0565952662433556	1	1	NaN	296	5	44	2	121	221	321	NaN	521	0.25719837564975	2	1	NaN	3794639.2220312	NaN	3794640.2054249	3794640.72198102
109	18	1	0	90	36.1581920903955	36.241610738255	13	0.433376684188843	2	9	5	NaN	2	3	0.0565952662433556	1	1	NaN	297	5	45	2	121	221	321	NaN	521	0.153966975398362	2	1	NaN	3794641.7889578	NaN	3794642.7723696	3794643.28891142
109	18	1	0	90	36.1581920903955	36.241610738255	22	0.73340669631958	2	6	6	NaN	1	3	0.0565952662433556	1	1	NaN	298	5	46	2	121	221	321	NaN	521	0.0151053755544126	1	1	NaN	3794644.2557583	NaN	3794645.2392625	3794645.75581042
109	18	1	0	90	36.1581920903955	36.241610738255	6	0.200020008087158	2	4	2	NaN	1	5	0.0565952662433556	1	1	NaN	299	5	47	2	121	221	321	NaN	521	0.113480727188289	2	0	NaN	3794646.5892972	NaN	3794647.5728125	3794648.08938247
109	18	1	0	90	36.1581920903955	36.241610738255	11	0.36670334815979	2	2	4	NaN	1	5	0.0565952662433556	1	1	NaN	300	5	48	2	121	221	321	NaN	521	0.0486335232853889	1	1	NaN	3794649.0063589	NaN	3794649.9897194	3794650.50628568
109	18	1	0	90	36.1581920903955	36.241610738255	10	0.333366680145264	2	2	4	NaN	1	5	0.0565952662433556	1	1	NaN	301	5	49	2	121	221	321	NaN	521	0.0104219755157828	1	1	NaN	3794651.3732319	NaN	3794652.3566335	3794652.87317272
109	18	1	0	90	36.1581920903955	36.241610738255	24	0.800080032348633	2	6	1	NaN	1	5	0.0565952662433556	1	1	NaN	302	5	50	2	121	221	321	NaN	521	0.277183215133846	1	1	NaN	3794653.6900691	NaN	3794654.6735143	3794655.19006528
109	18	1	0	90	36.1581920903955	36.241610738255	22	0.73340669631958	2	2	2	NaN	1	3	0.0565952662433556	1	1	NaN	303	5	51	2	121	221	321	NaN	521	0.0104110757820308	1	1	NaN	3794656.2737219	NaN	3794657.2571005	3794657.77366722
109	18	1	0	90	36.1581920903955	36.241610738255	13	0.433376684188843	2	7	6	NaN	2	3	0.0565952662433556	1	1	NaN	304	5	52	2	121	221	321	NaN	521	0.136371131520718	2	1	NaN	3794658.5906123	NaN	3794659.5740031	3794660.09055137
109	18	1	0	90	36.1581920903955	36.241610738255	23	0.766743364334106	2	7	5	NaN	2	5	0.0565952662433556	1	1	NaN	305	5	53	2	121	221	321	NaN	521	0.422443375457078	2	1	NaN	3794661.0408594	NaN	3794662.0242265	3794662.54080302
109	18	1	0	90	36.1581920903955	36.241610738255	8	0.266693344116211	2	12	5	NaN	2	5	0.0565952662433556	1	1	NaN	306	5	54	2	121	221	321	NaN	521	1.28055187594146	2	1	NaN	3794663.7744564	NaN	3794664.7578973	3794665.27439212
109	18	1	0	90	36.1581920903955	36.241610738255	20	0.666733360290527	2	1	6	NaN	1	4	0.0565952662433556	1	1	NaN	307	5	55	2	121	221	321	NaN	521	0.310858575627208	1	1	NaN	3794667.408137	NaN	3794668.3915227	3794668.90809342
109	18	1	0	90	36.1581920903955	36.241610738255	20	0.666733360290527	2	3	6	NaN	1	5	0.0565952662433556	1	1	NaN	308	5	56	2	121	221	321	NaN	521	0.0104119759052992	1	1	NaN	3794670.0250776	NaN	3794671.0084555	3794671.52500932
109	18	1	0	90	36.1581920903955	36.241610738255	9	0.300030012130737	2	5	3	NaN	1	4	0.0565952662433556	1	1	NaN	309	5	57	2	121	221	321	NaN	521	0.0102962395176291	1	1	NaN	3794672.3419605	NaN	3794673.3253541	3794673.84190196
109	18	1	0	90	36.1581920903955	36.241610738255	11	0.36670334815979	2	10	4	NaN	2	4	0.0565952662433556	1	1	NaN	310	5	58	2	121	221	321	NaN	521	0.0104480753652751	1	0	NaN	3794674.6588816	NaN	3794675.6422405	3794676.15879202
109	18	1	0	90	36.1581920903955	36.241610738255	22	0.73340669631958	2	2	1	NaN	1	3	0.0565952662433556	1	1	NaN	311	5	59	2	121	221	321	NaN	521	0.0103908269666135	1	1	NaN	3794676.9924104	NaN	3794677.9758133	3794678.49236547
109	18	1	0	90	36.1581920903955	36.241610738255	8	0.266693344116211	2	9	1	NaN	2	3	0.0565952662433556	1	1	NaN	312	5	60	2	121	221	321	NaN	521	0.201763875316828	2	1	NaN	3794679.3091899	NaN	3794680.2926982	3794680.80925112
109	18	1	0	90	36.1581920903955	36.241610738255	0	0	1	2	2	NaN	1	5	0.0565952662433556	1	1	NaN	313	5	61	2	111	211	311	NaN	511	0.33287117537111	2	0	NaN	3794681.8262225	NaN	3794682.8096203	3794683.32616332
109	18	1	0	90	36.1581920903955	36.241610738255	14	0.466713352203369	2	4	2	NaN	1	4	0.0565952662433556	1	1	NaN	314	5	62	2	121	221	321	NaN	521	0.0185692757368088	1	1	NaN	3794684.4764974	NaN	3794685.4598893	3794685.97642442
109	18	1	0	90	36.1581920903955	36.241610738255	11	0.36670334815979	2	9	1	NaN	2	3	0.0565952662433556	1	1	NaN	315	5	63	2	121	221	321	NaN	521	1.24480257928371	2	1	NaN	3794686.8100428	NaN	3794687.7934365	3794688.31000002
109	18	1	0	90	36.1581920903955	36.241610738255	6	0.200020008087158	2	11	6	NaN	2	5	0.0565952662433556	1	1	NaN	316	6	1	2	121	221	321	NaN	521	0.42959112720564	2	1	NaN	3794705.9618979	NaN	3794706.9452623	3794707.46187597
109	18	1	0	90	36.1581920903955	36.241610738255	12	0.400040016174316	2	1	4	NaN	1	5	0.0565952662433556	1	1	NaN	317	6	2	2	121	221	321	NaN	521	1.03077817568555	1	1	NaN	3794708.912078	NaN	3794709.8956042	3794710.41215712
109	18	1	0	90	36.1581920903955	36.241610738255	24	0.800080032348633	2	12	1	NaN	2	5	0.0565952662433556	1	1	NaN	318	6	3	2	121	221	321	NaN	521	0.328499075490981	2	1	NaN	3794712.2625401	NaN	3794713.2459561	3794713.76248502
109	18	1	0	90	36.1581920903955	36.241610738255	11	0.36670334815979	2	11	2	NaN	2	5	0.0565952662433556	1	1	NaN	319	6	4	2	121	221	321	NaN	521	0.246225235518068	2	1	NaN	3794714.9128336	NaN	3794715.8961978	3794716.41275846
109	18	1	0	90	36.1581920903955	36.241610738255	24	0.800080032348633	2	4	4	NaN	1	5	0.0565952662433556	1	1	NaN	320	6	5	2	121	221	321	NaN	521	0.0102695440873504	1	1	NaN	3794717.4796033	NaN	3794718.463108	3794718.97968126
109	18	1	0	90	36.1581920903955	36.241610738255	7	0.233356676101685	2	10	3	NaN	2	3	0.0565952662433556	1	1	NaN	321	6	6	2	121	221	321	NaN	521	0.0104494756087661	2	1	NaN	3794719.7966312	NaN	3794720.7800096	3794721.29656062
109	18	1	0	90	36.1581920903955	36.241610738255	25	0.833416700363159	2	8	4	NaN	2	3	0.0565952662433556	1	1	NaN	322	6	7	2	121	221	321	NaN	521	0.0103868274018168	2	1	NaN	3794722.1133743	NaN	3794723.0969187	3794723.61345637
109	18	1	0	90	36.1581920903955	36.241610738255	6	0.200020008087158	2	5	2	NaN	1	5	0.0565952662433556	1	1	NaN	323	6	8	2	121	221	321	NaN	521	0.010430627502501	1	1	NaN	3794724.4304044	NaN	3794725.4138401	3794725.93035047
109	18	1	0	90	36.1581920903955	36.241610738255	16	0.533386688232422	2	1	6	NaN	1	4	0.0565952662433556	1	1	NaN	324	6	9	2	121	221	321	NaN	521	0.0104085756465793	1	1	NaN	3794726.7473054	NaN	3794727.7306868	3794728.24724922
109	18	1	0	90	36.1581920903955	36.241610738255	24	0.800080032348633	2	11	4	NaN	2	5	0.0565952662433556	1	1	NaN	325	6	10	2	121	221	321	NaN	521	1.68867367552593	2	1	NaN	3794729.2308681	NaN	3794730.2142675	3794730.73082232
109	18	1	0	90	36.1581920903955	36.241610738255	0	0	1	7	6	NaN	2	4	0.0565952662433556	1	1	NaN	326	6	11	2	111	211	311	NaN	511	0.335621975362301	2	1	NaN	3794733.2312672	NaN	3794734.2146676	3794734.73121272
109	18	1	0	90	36.1581920903955	36.241610738255	11	0.36670334815979	2	3	4	NaN	1	5	0.0565952662433556	1	1	NaN	327	6	12	2	121	221	321	NaN	521	0.317925043869764	1	1	NaN	3794735.8815508	NaN	3794736.8649246	3794737.38150326
109	18	1	0	90	36.1581920903955	36.241610738255	12	0.400040016174316	2	6	5	NaN	1	5	0.0565952662433556	1	1	NaN	328	6	13	2	121	221	321	NaN	521	0.25191687559709	1	1	NaN	3794738.5151222	NaN	3794739.4984995	3794740.01507212
109	18	1	0	90	36.1581920903955	36.241610738255	8	0.266693344116211	2	7	4	NaN	2	4	0.0565952662433556	1	1	NaN	329	6	14	2	121	221	321	NaN	521	0.277530075982213	2	1	NaN	3794741.0819116	NaN	3794742.0654269	3794742.58198062
109	18	1	0	90	36.1581920903955	36.241610738255	13	0.433376684188843	2	8	2	NaN	2	4	0.0565952662433556	1	1	NaN	330	6	15	2	121	221	321	NaN	521	0.711799679324031	2	1	NaN	3794743.8156155	NaN	3794744.7990272	3794745.31559622
109	18	1	0	90	36.1581920903955	36.241610738255	14	0.466713352203369	2	2	6	NaN	1	3	0.0565952662433556	1	1	NaN	331	6	16	2	121	221	321	NaN	521	0.0143940271809697	1	1	NaN	3794746.8326037	NaN	3794747.8160005	3794748.33255597
109	18	1	0	90	36.1581920903955	36.241610738255	14	0.466713352203369	2	10	4	NaN	2	4	0.0565952662433556	1	1	NaN	332	6	17	2	121	221	321	NaN	521	0.0410136273130774	2	1	NaN	3794749.166168	NaN	3794750.1495552	3794750.66611847
109	18	1	0	90	36.1581920903955	36.241610738255	20	0.666733360290527	2	6	2	NaN	1	5	0.0565952662433556	1	1	NaN	333	6	18	2	121	221	321	NaN	521	0.0104443235322833	1	1	NaN	3794751.5163862	NaN	3794752.4997783	3794753.01634458
109	18	1	0	90	36.1581920903955	36.241610738255	22	0.73340669631958	2	1	5	NaN	1	4	0.0565952662433556	1	1	NaN	334	6	19	2	121	221	321	NaN	521	0.061741775367409	1	1	NaN	3794753.8332538	NaN	3794754.8166869	3794755.33324192
109	18	1	0	90	36.1581920903955	36.241610738255	0	0	1	9	1	NaN	2	4	0.0565952662433556	1	1	NaN	335	6	20	2	111	211	311	NaN	511	0.0105540757067502	2	1	NaN	3794756.2168431	NaN	3794757.2002462	3794757.71680442
109	18	1	0	90	36.1581920903955	36.241610738255	9	0.300030012130737	2	4	1	NaN	1	3	0.0565952662433556	1	1	NaN	336	6	21	2	121	221	321	NaN	521	0.0104057751595974	1	1	NaN	3794758.5337548	NaN	3794759.5171531	3794760.03370352
109	18	1	0	90	36.1581920903955	36.241610738255	8	0.266693344116211	2	9	5	NaN	2	4	0.0565952662433556	1	1	NaN	337	6	22	2	121	221	321	NaN	521	0.0104109751991928	2	1	NaN	3794760.8505613	NaN	3794761.8340429	3794762.35058842
109	18	1	0	90	36.1581920903955	36.241610738255	24	0.800080032348633	2	5	2	NaN	1	3	0.0565952662433556	1	1	NaN	338	6	23	2	121	221	321	NaN	521	0.0103858271613717	1	1	NaN	3794763.1674001	NaN	3794764.1510234	3794764.66748357
109	18	1	0	90	36.1581920903955	36.241610738255	11	0.36670334815979	2	12	2	NaN	2	4	0.0565952662433556	1	1	NaN	339	6	24	2	121	221	321	NaN	521	0.906405995599926	2	1	NaN	3794765.5010944	NaN	3794766.4844867	3794767.00106
109	18	1	0	90	36.1581920903955	36.241610738255	23	0.766743364334106	2	12	3	NaN	2	5	0.0565952662433556	1	1	NaN	340	6	25	2	121	221	321	NaN	521	0.392927427310497	2	1	NaN	3794768.7180698	NaN	3794769.7014841	3794770.21803687
109	18	1	0	90	36.1581920903955	36.241610738255	7	0.233356676101685	2	8	3	NaN	2	3	0.0565952662433556	1	1	NaN	341	6	26	2	121	221	321	NaN	521	0.0103312353603542	2	1	NaN	3794771.4183449	NaN	3794772.40174	3794772.91830806
109	18	1	0	90	36.1581920903955	36.241610738255	18	0.600060024261475	2	2	2	NaN	1	5	0.0565952662433556	1	1	NaN	342	6	27	2	121	221	321	NaN	521	0.111812575720251	1	1	NaN	3794773.735122	NaN	3794774.7186428	3794775.23519822
109	18	1	0	90	36.1581920903955	36.241610738255	11	0.36670334815979	2	5	1	NaN	1	5	0.0565952662433556	1	1	NaN	343	6	28	2	121	221	321	NaN	521	1.92627237550914	1	1	NaN	3794776.1688478	NaN	3794777.1522223	3794777.66876452
109	18	1	0	90	36.1581920903955	36.241610738255	25	0.833416700363159	2	1	3	NaN	1	3	0.0565952662433556	1	1	NaN	344	6	29	2	121	221	321	NaN	521	0.748648775741458	2	0	NaN	3794780.4024217	NaN	3794781.3859639	3794781.90252012
109	18	1	0	90	36.1581920903955	36.241610738255	9	0.300030012130737	2	10	5	NaN	2	5	0.0565952662433556	1	1	NaN	345	6	30	2	121	221	321	NaN	521	0.161910899914801	2	1	NaN	3794783.4688984	NaN	3794784.4522411	3794784.9690082
109	18	1	0	90	36.1581920903955	36.241610738255	18	0.600060024261475	2	4	6	NaN	1	3	0.0565952662433556	1	1	NaN	346	6	31	2	121	221	321	NaN	521	0.207087299786508	2	0	NaN	3794785.9357627	NaN	3794786.9196313	3794787.4363706
109	18	1	0	90	36.1581920903955	36.241610738255	9	0.300030012130737	2	1	2	NaN	1	3	0.0565952662433556	1	1	NaN	347	6	32	2	121	221	321	NaN	521	0.0336878877133131	1	1	NaN	3794788.4532322	NaN	3794789.4367906	3794789.95330211
109	18	1	0	90	36.1581920903955	36.241610738255	19	0.633396692276001	2	4	2	NaN	1	5	0.0565952662433556	1	1	NaN	348	6	33	2	121	221	321	NaN	521	0.0103623317554593	1	1	NaN	3794790.8035951	NaN	3794791.786982	3794792.30353217
109	18	1	0	90	36.1581920903955	36.241610738255	15	0.500050020217895	2	2	1	NaN	1	4	0.0565952662433556	1	1	NaN	349	6	34	2	121	221	321	NaN	521	0.0779364756308496	1	1	NaN	3794793.1371641	NaN	3794794.1205365	3794794.63709182
109	18	1	0	90	36.1581920903955	36.241610738255	25	0.833416700363159	2	9	3	NaN	2	5	0.0565952662433556	1	1	NaN	350	6	35	2	121	221	321	NaN	521	0.0104072755202651	2	1	NaN	3794795.5207117	NaN	3794796.5041074	3794797.02067022
109	18	1	0	90	36.1581920903955	36.241610738255	17	0.566723356246948	2	5	4	NaN	1	5	0.0565952662433556	1	1	NaN	351	6	36	2	121	221	321	NaN	521	0.153345844242722	1	1	NaN	3794797.8376292	NaN	3794798.8210135	3794799.33757246
109	18	1	0	90	36.1581920903955	36.241610738255	15	0.500050020217895	2	6	2	NaN	1	5	0.0565952662433556	1	1	NaN	352	6	37	2	121	221	321	NaN	521	0.0159532269462943	1	1	NaN	3794800.4710751	NaN	3794801.4545942	3794801.97115457
109	18	1	0	90	36.1581920903955	36.241610738255	10	0.333366680145264	2	9	6	NaN	2	3	0.0565952662433556	1	1	NaN	353	6	38	2	121	221	321	NaN	521	0.242391879204661	2	1	NaN	3794802.8048136	NaN	3794803.7881607	3794804.30474222
109	18	1	0	90	36.1581920903955	36.241610738255	9	0.300030012130737	2	8	5	NaN	2	4	0.0565952662433556	1	1	NaN	354	6	39	2	121	221	321	NaN	521	0.156525675673038	2	1	NaN	3794805.3549968	NaN	3794806.3384129	3794806.85497322
109	18	1	0	90	36.1581920903955	36.241610738255	7	0.233356676101685	2	4	4	NaN	1	4	0.0565952662433556	1	1	NaN	355	6	40	2	121	221	321	NaN	521	0.0104102757759392	1	1	NaN	3794807.8219172	NaN	3794808.805315	3794809.32187232
109	18	1	0	90	36.1581920903955	36.241610738255	9	0.300030012130737	2	1	2	NaN	1	3	0.0565952662433556	1	1	NaN	356	6	41	2	121	221	321	NaN	521	0.867786775808781	1	1	NaN	3794810.1553454	NaN	3794811.1388884	3794811.65543982
109	18	1	0	90	36.1581920903955	36.241610738255	25	0.833416700363159	2	10	2	NaN	2	3	0.0565952662433556	1	1	NaN	357	6	42	2	121	221	321	NaN	521	0.0103740789927542	2	1	NaN	3794813.3391354	NaN	3794814.3225276	3794814.83908442
109	18	1	0	90	36.1581920903955	36.241610738255	16	0.533386688232422	2	8	2	NaN	2	5	0.0565952662433556	1	1	NaN	358	6	43	2	121	221	321	NaN	521	0.359713275916874	2	1	NaN	3794815.6560472	NaN	3794816.639469	3794817.15597032
109	18	1	0	90	36.1581920903955	36.241610738255	8	0.266693344116211	2	12	2	NaN	2	3	0.0565952662433556	1	1	NaN	359	6	44	2	121	221	321	NaN	521	0.0682213753461838	2	1	NaN	3794818.3229509	NaN	3794819.3063481	3794819.82289872
109	18	1	0	90	36.1581920903955	36.241610738255	8	0.266693344116211	2	5	5	NaN	1	5	0.0565952662433556	1	1	NaN	360	6	45	2	121	221	321	NaN	521	0.0103320353664458	1	1	NaN	3794820.8065715	NaN	3794821.7899379	3794822.30648126
109	18	1	0	90	36.1581920903955	36.241610738255	23	0.766743364334106	2	11	3	NaN	2	3	0.0565952662433556	1	1	NaN	361	6	46	2	121	221	321	NaN	521	0.940084839705378	1	0	NaN	3794823.1234204	NaN	3794824.1068155	3794824.62338196
109	18	1	0	90	36.1581920903955	36.241610738255	11	0.36670334815979	2	1	4	NaN	1	4	0.0565952662433556	1	1	NaN	362	6	47	2	121	221	321	NaN	521	0.185458775609732	1	1	NaN	3794826.3736174	NaN	3794827.3571618	3794827.87369312
109	18	1	0	90	36.1581920903955	36.241610738255	21	0.700070028305054	2	8	5	NaN	2	4	0.0565952662433556	1	1	NaN	363	6	48	2	121	221	321	NaN	521	0.0103989276103675	2	1	NaN	3794828.8739796	NaN	3794829.8574201	3794830.37394367
109	18	1	0	90	36.1581920903955	36.241610738255	14	0.466713352203369	2	8	1	NaN	2	4	0.0565952662433556	1	1	NaN	364	6	49	2	121	221	321	NaN	521	1.2648637839593	2	1	NaN	3794831.1908892	NaN	3794832.1742781	3794832.69083452
109	18	1	0	90	36.1581920903955	36.241610738255	11	0.36670334815979	2	10	1	NaN	2	4	0.0565952662433556	1	1	NaN	365	6	50	2	121	221	321	NaN	521	0.048705923371017	2	1	NaN	3794834.7744612	NaN	3794835.7579505	3794836.27452158
109	18	1	0	90	36.1581920903955	36.241610738255	0	0	1	8	2	NaN	2	5	0.0565952662433556	1	1	NaN	366	6	51	2	111	211	311	NaN	511	0.113682075403631	2	1	NaN	3794837.1413383	NaN	3794838.1248685	3794838.64141742
109	18	1	0	90	36.1581920903955	36.241610738255	25	0.833416700363159	2	4	1	NaN	1	4	0.0565952662433556	1	1	NaN	367	6	52	2	121	221	321	NaN	521	0.224526075646281	2	0	NaN	3794839.5750604	NaN	3794840.558438	3794841.07498282
109	18	1	0	90	36.1581920903955	36.241610738255	7	0.233356676101685	2	9	2	NaN	2	5	0.0565952662433556	1	1	NaN	368	6	53	2	121	221	321	NaN	521	0.458606075495481	2	1	NaN	3794842.108624	NaN	3794843.0920209	3794843.60859862
109	18	1	0	90	36.1581920903955	36.241610738255	17	0.566723356246948	2	9	5	NaN	2	3	0.0565952662433556	1	1	NaN	369	6	54	2	121	221	321	NaN	521	0.33165864367038	2	1	NaN	3794844.8756262	NaN	3794845.8589659	3794846.37552046
109	18	1	0	90	36.1581920903955	36.241610738255	16	0.533386688232422	2	12	1	NaN	2	3	0.0565952662433556	1	1	NaN	370	6	55	2	121	221	321	NaN	521	0.0104078757576644	2	1	NaN	3794847.5258181	NaN	3794848.5092242	3794849.02576762
109	18	1	0	90	36.1581920903955	36.241610738255	8	0.266693344116211	2	6	3	NaN	1	4	0.0565952662433556	1	1	NaN	371	6	56	2	121	221	321	NaN	521	0.91657157568261	2	0	NaN	3794849.8427067	NaN	3794850.826108	3794851.34265822
109	18	1	0	90	36.1581920903955	36.241610738255	16	0.533386688232422	2	3	1	NaN	1	5	0.0565952662433556	1	1	NaN	372	6	57	2	121	221	321	NaN	521	0.146714523434639	1	1	NaN	3794853.0762448	NaN	3794854.0598281	3794854.57630648
109	18	1	0	90	36.1581920903955	36.241610738255	17	0.566723356246948	2	7	1	NaN	2	4	0.0565952662433556	1	1	NaN	373	6	58	2	121	221	321	NaN	521	0.0104065756313503	2	1	NaN	3794855.5433036	NaN	3794856.5266628	3794857.04322572
109	18	1	0	90	36.1581920903955	36.241610738255	18	0.600060024261475	2	8	6	NaN	2	5	0.0565952662433556	1	1	NaN	374	6	59	2	121	221	321	NaN	521	0.298635575454682	2	1	NaN	3794857.8768016	NaN	3794858.8602383	3794859.37678822
109	18	1	0	90	36.1581920903955	36.241610738255	19	0.633396692276001	2	2	6	NaN	1	5	0.0565952662433556	1	1	NaN	375	6	60	2	121	221	321	NaN	521	0.082171075977385	1	1	NaN	3794860.4769438	NaN	3794861.4604816	3794861.97703542
109	18	1	0	90	36.1581920903955	36.241610738255	18	0.600060024261475	2	8	3	NaN	2	5	0.0565952662433556	1	1	NaN	376	6	61	2	121	221	321	NaN	521	0.138371023349464	2	1	NaN	3794862.8773287	NaN	3794863.8607303	3794864.37726908
109	18	1	0	90	36.1581920903955	36.241610738255	16	0.533386688232422	2	3	3	NaN	1	4	0.0565952662433556	1	1	NaN	377	6	62	2	121	221	321	NaN	521	0.0236589759588242	1	1	NaN	3794865.3275556	NaN	3794866.3109561	3794866.82751502
109	18	1	0	90	36.1581920903955	36.241610738255	0	0	1	2	2	NaN	1	3	0.0565952662433556	1	1	NaN	378	6	63	2	111	211	311	NaN	511	0.162539875600487	2	0	NaN	3794867.6611335	NaN	3794868.6445337	3794869.16107862
109	18	1	0	90	36.1581920903955	36.241610738255	11	0.36670334815979	2	6	6	NaN	1	3	0.0565952662433556	1	1	NaN	379	7	1	2	121	221	321	NaN	521	0.330895775463432	1	1	NaN	3794878.0287879	NaN	3794879.012203	3794879.52876292
109	18	1	0	90	36.1581920903955	36.241610738255	17	0.566723356246948	2	3	5	NaN	1	3	0.0565952662433556	1	1	NaN	380	7	2	2	121	221	321	NaN	521	0.329305275343359	2	0	NaN	3794880.662284	NaN	3794881.6457832	3794882.16236302
109	18	1	0	90	36.1581920903955	36.241610738255	21	0.700070028305054	2	6	2	NaN	1	4	0.0565952662433556	1	1	NaN	381	7	3	2	121	221	321	NaN	521	0.0104073756374419	1	1	NaN	3794883.3125675	NaN	3794884.2960695	3794884.81261862
109	18	1	0	90	36.1581920903955	36.241610738255	0	0	1	9	5	NaN	2	3	0.0565952662433556	1	1	NaN	382	7	4	2	111	211	311	NaN	511	1.39408677536994	2	1	NaN	3794885.629583	NaN	3794886.6129624	3794887.12950632
109	18	1	0	90	36.1581920903955	36.241610738255	7	0.233356676101685	2	1	1	NaN	1	4	0.0565952662433556	1	1	NaN	383	7	5	2	121	221	321	NaN	521	0.333194795530289	1	1	NaN	3794889.32993	NaN	3794890.3133246	3794890.82988
109	18	1	0	90	36.1581920903955	36.241610738255	16	0.533386688232422	2	1	2	NaN	1	5	0.0565952662433556	1	1	NaN	384	7	6	2	121	221	321	NaN	521	0.307233675383031	1	1	NaN	3794891.9801932	NaN	3794892.9635701	3794893.48013462
109	18	1	0	90	36.1581920903955	36.241610738255	24	0.800080032348633	2	1	3	NaN	1	3	0.0565952662433556	1	1	NaN	385	7	7	2	121	221	321	NaN	521	0.0263984757475555	1	1	NaN	3794894.5971183	NaN	3794895.5805178	3794896.09706412
109	18	1	0	90	36.1581920903955	36.241610738255	8	0.266693344116211	2	10	5	NaN	2	5	0.0565952662433556	1	1	NaN	386	7	8	2	121	221	321	NaN	521	0.283959875348955	2	1	NaN	3794896.947344	NaN	3794897.9307756	3794898.44728122
109	18	1	0	90	36.1581920903955	36.241610738255	12	0.400040016174316	2	11	2	NaN	2	4	0.0565952662433556	1	1	NaN	387	7	9	2	121	221	321	NaN	521	0.0104095754213631	2	1	NaN	3794899.5476045	NaN	3794900.5309967	3794901.04754302
109	18	1	0	90	36.1581920903955	36.241610738255	14	0.466713352203369	2	4	1	NaN	1	5	0.0565952662433556	1	1	NaN	388	7	10	2	121	221	321	NaN	521	0.191076975315809	2	0	NaN	3794901.8645541	NaN	3794902.8479207	3794903.36443262
109	18	1	0	90	36.1581920903955	36.241610738255	14	0.466713352203369	2	6	1	NaN	1	4	0.0565952662433556	1	1	NaN	389	7	11	2	121	221	321	NaN	521	0.0104063753969967	1	1	NaN	3794904.3647349	NaN	3794905.3481904	3794905.86468862
109	18	1	0	90	36.1581920903955	36.241610738255	18	0.600060024261475	2	7	4	NaN	2	3	0.0565952662433556	1	1	NaN	390	7	12	2	121	221	321	NaN	521	2.34897637926042	1	0	NaN	3794906.6982996	NaN	3794907.6816926	3794908.19824482
109	18	1	0	90	36.1581920903955	36.241610738255	18	0.600060024261475	2	5	5	NaN	1	3	0.0565952662433556	1	1	NaN	391	7	13	2	121	221	321	NaN	521	0.370346675626934	1	1	NaN	3794911.3654379	NaN	3794912.3488355	3794912.86537262
109	18	1	0	90	36.1581920903955	36.241610738255	16	0.533386688232422	2	11	1	NaN	2	4	0.0565952662433556	1	1	NaN	392	7	14	2	121	221	321	NaN	521	0.0383611712604761	1	0	NaN	3794914.0490155	NaN	3794915.032411	3794915.54896983
109	18	1	0	90	36.1581920903955	36.241610738255	21	0.700070028305054	2	12	5	NaN	2	5	0.0565952662433556	1	1	NaN	393	7	15	2	121	221	321	NaN	521	0.0104120755568147	2	1	NaN	3794916.399204	NaN	3794917.3826333	3794917.89919212
109	18	1	0	90	36.1581920903955	36.241610738255	13	0.433376684188843	2	12	3	NaN	2	4	0.0565952662433556	1	1	NaN	394	7	16	2	121	221	321	NaN	521	1.25864737527445	2	1	NaN	3794918.7328296	NaN	3794919.7162184	3794920.23275432
109	18	1	0	90	36.1581920903955	36.241610738255	20	0.666733360290527	2	7	1	NaN	2	5	0.0565952662433556	1	1	NaN	395	7	17	2	121	221	321	NaN	521	0.0787616758607328	2	1	NaN	3794922.4165958	NaN	3794923.3999136	3794923.91647362
109	18	1	0	90	36.1581920903955	36.241610738255	12	0.400040016174316	2	4	2	NaN	1	3	0.0565952662433556	1	1	NaN	396	7	18	2	121	221	321	NaN	521	0.0145292752422392	1	1	NaN	3794924.8167496	NaN	3794925.8001232	3794926.31668572
109	18	1	0	90	36.1581920903955	36.241610738255	18	0.600060024261475	2	5	6	NaN	1	5	0.0565952662433556	1	1	NaN	397	7	19	2	121	221	321	NaN	521	0.0104085756465793	1	1	NaN	3794927.1503027	NaN	3794928.1337099	3794928.65024872
109	18	1	0	90	36.1581920903955	36.241610738255	23	0.766743364334106	2	4	3	NaN	1	4	0.0565952662433556	1	1	NaN	398	7	20	2	121	221	321	NaN	521	0.0361453439109027	1	1	NaN	3794929.4670772	NaN	3794930.4506002	3794930.96714706
109	18	1	0	90	36.1581920903955	36.241610738255	18	0.600060024261475	2	12	4	NaN	2	4	0.0565952662433556	1	1	NaN	399	7	21	2	121	221	321	NaN	521	1.58182097552344	2	1	NaN	3794931.8174362	NaN	3794932.8008306	3794933.31738472
109	18	1	0	90	36.1581920903955	36.241610738255	23	0.766743364334106	2	3	4	NaN	1	4	0.0565952662433556	1	1	NaN	400	7	22	2	121	221	321	NaN	521	0.193490175995976	1	1	NaN	3794935.7178034	NaN	3794936.7011018	3794937.21775492
109	18	1	0	90	36.1581920903955	36.241610738255	18	0.600060024261475	2	4	3	NaN	1	4	0.0565952662433556	1	1	NaN	401	7	23	2	121	221	321	NaN	521	1.22169671906158	1	1	NaN	3794938.2180448	NaN	3794939.2014619	3794939.71800138
109	18	1	0	90	36.1581920903955	36.241610738255	19	0.633396692276001	2	6	2	NaN	1	4	0.0565952662433556	1	1	NaN	402	7	24	2	121	221	321	NaN	521	0.0396303399465978	1	1	NaN	3794941.7516147	NaN	3794942.735135	3794943.25168396
109	18	1	0	90	36.1581920903955	36.241610738255	14	0.466713352203369	2	5	3	NaN	1	3	0.0565952662433556	1	1	NaN	403	7	25	2	121	221	321	NaN	521	0.0104115754365921	1	1	NaN	3794944.1018439	NaN	3794945.0853769	3794945.60192002
109	18	1	0	90	36.1581920903955	36.241610738255	21	0.700070028305054	2	8	3	NaN	2	4	0.0565952662433556	1	1	NaN	404	7	26	2	121	221	321	NaN	521	1.10825697518885	1	0	NaN	3794946.4355283	NaN	3794947.4189126	3794947.93547602
109	18	1	0	90	36.1581920903955	36.241610738255	14	0.466713352203369	2	3	3	NaN	1	5	0.0565952662433556	1	1	NaN	405	7	27	2	121	221	321	NaN	521	0.0829068757593632	1	1	NaN	3794949.8525001	NaN	3794950.8358306	3794951.35248252
109	18	1	0	90	36.1581920903955	36.241610738255	10	0.333366680145264	2	4	1	NaN	1	3	0.0565952662433556	1	1	NaN	406	7	28	2	121	221	321	NaN	521	0.010426823515445	1	1	NaN	3794952.2527673	NaN	3794953.2361661	3794953.75271498
109	18	1	0	90	36.1581920903955	36.241610738255	14	0.466713352203369	2	8	1	NaN	2	4	0.0565952662433556	1	1	NaN	407	7	29	2	121	221	321	NaN	521	1.64491652697325	1	0	NaN	3794954.5863306	NaN	3794955.5697338	3794956.08628107
109	18	1	0	90	36.1581920903955	36.241610738255	10	0.333366680145264	2	3	2	NaN	1	4	0.0565952662433556	1	1	NaN	408	7	30	2	121	221	321	NaN	521	0.990866475738585	2	0	NaN	3794958.5367313	NaN	3794959.5201178	3794960.03666822
109	18	1	0	90	36.1581920903955	36.241610738255	0	0	1	12	4	NaN	2	3	0.0565952662433556	1	1	NaN	409	7	31	2	111	211	311	NaN	511	0.850732275750488	2	1	NaN	3794961.8370437	NaN	3794962.8204464	3794963.33699122
109	18	1	0	90	36.1581920903955	36.241610738255	10	0.333366680145264	2	10	5	NaN	2	5	0.0565952662433556	1	1	NaN	410	7	32	2	121	221	321	NaN	521	0.627520075533539	2	1	NaN	3794965.0039265	NaN	3794965.987417	3794966.50396742
109	18	1	0	90	36.1581920903955	36.241610738255	24	0.800080032348633	2	2	6	NaN	1	4	0.0565952662433556	1	1	NaN	411	7	33	2	121	221	321	NaN	521	0.0530480276793242	1	1	NaN	3794967.9543125	NaN	3794968.9377169	3794969.45425477
109	18	1	0	90	36.1581920903955	36.241610738255	21	0.700070028305054	2	2	4	NaN	1	3	0.0565952662433556	1	1	NaN	412	7	34	2	121	221	321	NaN	521	0.181994175538421	1	1	NaN	3794970.3210731	NaN	3794971.3046106	3794971.82115442
109	18	1	0	90	36.1581920903955	36.241610738255	13	0.433376684188843	2	2	4	NaN	1	3	0.0565952662433556	1	1	NaN	413	7	35	2	121	221	321	NaN	521	0.362292275764048	1	1	NaN	3794972.82145	NaN	3794973.8048502	3794974.32140912
109	18	1	0	90	36.1581920903955	36.241610738255	15	0.500050020217895	2	8	6	NaN	2	5	0.0565952662433556	1	1	NaN	414	7	36	2	121	221	321	NaN	521	0.0470162276178598	2	1	NaN	3794975.488447	NaN	3794976.4717843	3794976.98833387
109	18	1	0	90	36.1581920903955	36.241610738255	25	0.833416700363159	2	3	1	NaN	1	5	0.0565952662433556	1	1	NaN	415	7	37	2	121	221	321	NaN	521	1.07198352366686	2	0	NaN	3794977.8552842	NaN	3794978.8387146	3794979.35522358
109	18	1	0	90	36.1581920903955	36.241610738255	18	0.600060024261475	2	11	6	NaN	2	3	0.0565952662433556	1	1	NaN	416	7	38	2	121	221	321	NaN	521	1.28076347941533	2	1	NaN	3794981.2389507	NaN	3794982.2223298	3794982.73889932
109	18	1	0	90	36.1581920903955	36.241610738255	0	0	1	6	5	NaN	1	3	0.0565952662433556	1	1	NaN	417	7	39	2	111	211	311	NaN	511	0.416470475960523	2	0	NaN	3794984.8393124	NaN	3794985.8226923	3794986.33924552
109	18	1	0	90	36.1581920903955	36.241610738255	20	0.666733360290527	2	11	6	NaN	2	5	0.0565952662433556	1	1	NaN	418	7	40	2	121	221	321	NaN	521	0.0585637758485973	2	1	NaN	3794987.5729322	NaN	3794988.5563144	3794989.07284562
109	18	1	0	90	36.1581920903955	36.241610738255	13	0.433376684188843	2	7	1	NaN	2	3	0.0565952662433556	1	1	NaN	419	7	41	2	121	221	321	NaN	521	0.267522875219584	2	1	NaN	3794989.9398107	NaN	3794990.923203	3794991.43975562
109	18	1	0	90	36.1581920903955	36.241610738255	23	0.766743364334106	2	1	5	NaN	1	5	0.0565952662433556	1	1	NaN	420	7	42	2	121	221	321	NaN	521	0.0104092760011554	1	1	NaN	3794992.5233837	NaN	3794993.5067795	3794994.02333262
109	18	1	0	90	36.1581920903955	36.241610738255	15	0.500050020217895	2	9	6	NaN	2	4	0.0565952662433556	1	1	NaN	421	7	43	2	121	221	321	NaN	521	0.0103943273425102	2	1	NaN	3794994.8401731	NaN	3794995.82372	3794996.34022847
109	18	1	0	90	36.1581920903955	36.241610738255	14	0.466713352203369	2	9	4	NaN	2	4	0.0565952662433556	1	1	NaN	422	7	44	2	121	221	321	NaN	521	0.330594571307302	2	1	NaN	3794997.1570306	NaN	3794998.1405731	3794998.65712013
109	18	1	0	90	36.1581920903955	36.241610738255	22	0.73340669631958	2	11	2	NaN	2	4	0.0565952662433556	1	1	NaN	423	7	45	2	121	221	321	NaN	521	0.0104086752980947	2	1	NaN	3794999.8074364	NaN	3795000.7908176	3795001.30738692
109	18	1	0	90	36.1581920903955	36.241610738255	10	0.333366680145264	2	10	6	NaN	2	5	0.0565952662433556	1	1	NaN	424	7	46	2	121	221	321	NaN	521	0.0104103754274547	2	1	NaN	3795002.1409987	NaN	3795003.1243878	3795003.64094712
109	18	1	0	90	36.1581920903955	36.241610738255	10	0.333366680145264	2	12	6	NaN	2	4	0.0565952662433556	1	1	NaN	425	7	47	2	121	221	321	NaN	521	0.333703675772995	2	1	NaN	3795004.4577711	NaN	3795005.441342	3795005.95784782
109	18	1	0	90	36.1581920903955	36.241610738255	18	0.600060024261475	2	12	3	NaN	2	5	0.0565952662433556	1	1	NaN	426	7	48	2	121	221	321	NaN	521	0.107896427158266	2	1	NaN	3795007.0913709	NaN	3795008.0748758	3795008.59144087
109	18	1	0	90	36.1581920903955	36.241610738255	8	0.266693344116211	2	1	2	NaN	1	3	0.0565952662433556	1	1	NaN	427	7	49	2	121	221	321	NaN	521	0.0104036754928529	1	1	NaN	3795009.5083939	NaN	3795010.4918006	3795011.00834032
109	18	1	0	90	36.1581920903955	36.241610738255	7	0.233356676101685	2	4	2	NaN	1	4	0.0565952662433556	1	1	NaN	428	7	50	2	121	221	321	NaN	521	0.15043037571013	1	1	NaN	3795011.8252952	NaN	3795012.8086977	3795013.32523432
109	18	1	0	90	36.1581920903955	36.241610738255	23	0.766743364334106	2	3	1	NaN	1	3	0.0565952662433556	1	1	NaN	429	7	51	2	121	221	321	NaN	521	1.85098272375762	1	1	NaN	3795014.2921931	NaN	3795015.2756037	3795015.79214128
109	18	1	0	90	36.1581920903955	36.241610738255	14	0.466713352203369	2	2	1	NaN	1	3	0.0565952662433556	1	1	NaN	430	7	52	2	121	221	321	NaN	521	0.268242075573653	1	1	NaN	3795018.4592535	NaN	3795019.4426538	3795019.95921142
109	18	1	0	90	36.1581920903955	36.241610738255	10	0.333366680145264	2	11	6	NaN	2	4	0.0565952662433556	1	1	NaN	431	7	53	2	121	221	321	NaN	521	1.32457422744483	2	1	NaN	3795021.0428485	NaN	3795022.0262649	3795022.54280647
109	18	1	0	90	36.1581920903955	36.241610738255	10	0.333366680145264	2	8	4	NaN	2	3	0.0565952662433556	1	1	NaN	432	7	54	2	121	221	321	NaN	521	0.0104076755233109	2	1	NaN	3795024.6765431	NaN	3795025.6599519	3795026.17648772
109	18	1	0	90	36.1581920903955	36.241610738255	16	0.533386688232422	2	10	5	NaN	2	5	0.0565952662433556	1	1	NaN	433	7	55	2	121	221	321	NaN	521	0.157829275820404	2	1	NaN	3795027.0101337	NaN	3795027.9934969	3795028.51006022
109	18	1	0	90	36.1581920903955	36.241610738255	9	0.300030012130737	2	7	2	NaN	2	4	0.0565952662433556	1	1	NaN	434	7	56	2	121	221	321	NaN	521	0.266879879403859	2	1	NaN	3795029.4770011	NaN	3795030.4604129	3795030.97697282
109	18	1	0	90	36.1581920903955	36.241610738255	22	0.73340669631958	2	4	6	NaN	1	4	0.0565952662433556	1	1	NaN	435	7	57	2	121	221	321	NaN	521	0.0348436273634434	2	0	NaN	3795032.0604632	NaN	3795033.044003	3795033.56055807
109	18	1	0	90	36.1581920903955	36.241610738255	12	0.400040016174316	2	5	6	NaN	1	5	0.0565952662433556	1	1	NaN	436	7	58	2	121	221	321	NaN	521	0.0104092755354941	1	1	NaN	3795034.410704	NaN	3795035.3942613	3795035.91078192
109	18	1	0	90	36.1581920903955	36.241610738255	6	0.200020008087158	2	5	3	NaN	1	3	0.0565952662433556	1	1	NaN	437	7	59	2	121	221	321	NaN	521	0.0104345236904919	1	1	NaN	3795036.7444008	NaN	3795037.727785	3795038.24434188
109	18	1	0	90	36.1581920903955	36.241610738255	7	0.233356676101685	2	8	6	NaN	2	3	0.0565952662433556	1	1	NaN	438	7	60	2	121	221	321	NaN	521	0.0103791793808341	2	1	NaN	3795039.0613147	NaN	3795040.0446916	3795040.56124442
109	18	1	0	90	36.1581920903955	36.241610738255	13	0.433376684188843	2	3	5	NaN	1	3	0.0565952662433556	1	1	NaN	439	7	61	2	121	221	321	NaN	521	0.252726127393544	1	1	NaN	3795041.3948502	NaN	3795042.3782504	3795042.89480527
109	18	1	0	90	36.1581920903955	36.241610738255	21	0.700070028305054	2	11	3	NaN	2	5	0.0565952662433556	1	1	NaN	440	7	62	2	121	221	321	NaN	521	0.010406375862658	2	1	NaN	3795043.9617966	NaN	3795044.9452103	3795045.46171762
109	18	1	0	90	36.1581920903955	36.241610738255	17	0.566723356246948	2	11	2	NaN	2	4	0.0565952662433556	1	1	NaN	441	7	63	2	121	221	321	NaN	521	0.0104219238273799	2	1	NaN	3795046.2785748	NaN	3795047.2621451	3795047.77860978
109	18	1	0	90	36.1581920903955	36.241610738255	0	0	1	10	6	NaN	2	3	0.0565952662433556	1	1	NaN	442	8	1	2	111	211	311	NaN	511	2.8696783753112	1	0	NaN	3795079.0818903	NaN	3795080.0653	3795080.58183512
109	18	1	0	90	36.1581920903955	36.241610738255	17	0.566723356246948	2	8	1	NaN	2	4	0.0565952662433556	1	1	NaN	443	8	2	2	121	221	321	NaN	521	0.165749975480139	2	1	NaN	3795084.2657223	NaN	3795085.2491183	3795085.76567982
109	18	1	0	90	36.1581920903955	36.241610738255	10	0.333366680145264	2	6	3	NaN	1	4	0.0565952662433556	1	1	NaN	444	8	3	2	121	221	321	NaN	521	0.0104077756404877	1	1	NaN	3795086.7492954	NaN	3795087.7326999	3795088.24926102
109	18	1	0	90	36.1581920903955	36.241610738255	12	0.400040016174316	2	10	3	NaN	2	4	0.0565952662433556	1	1	NaN	445	8	4	2	121	221	321	NaN	521	0.781248875893652	2	1	NaN	3795089.0661517	NaN	3795090.0496251	3795090.56614622
109	18	1	0	90	36.1581920903955	36.241610738255	10	0.333366680145264	2	1	1	NaN	1	5	0.0565952662433556	1	1	NaN	446	8	5	2	121	221	321	NaN	521	0.209335875697434	1	1	NaN	3795092.1663866	NaN	3795093.1499149	3795093.66645512
109	18	1	0	90	36.1581920903955	36.241610738255	7	0.233356676101685	2	9	2	NaN	2	3	0.0565952662433556	1	1	NaN	447	8	6	2	121	221	321	NaN	521	0.267429292201996	2	1	NaN	3795094.7000828	NaN	3795095.6834697	3795096.20004361
109	18	1	0	90	36.1581920903955	36.241610738255	7	0.233356676101685	2	6	2	NaN	1	3	0.0565952662433556	1	1	NaN	448	8	7	2	121	221	321	NaN	521	0.307861875742674	1	1	NaN	3795097.2836607	NaN	3795098.2671134	3795098.78361912
109	18	1	0	90	36.1581920903955	36.241610738255	25	0.833416700363159	2	11	3	NaN	2	3	0.0565952662433556	1	1	NaN	449	8	8	2	121	221	321	NaN	521	0.971372275613248	2	1	NaN	3795099.9006299	NaN	3795100.8839881	3795101.40055102
109	18	1	0	90	36.1581920903955	36.241610738255	19	0.633396692276001	2	8	4	NaN	2	5	0.0565952662433556	1	1	NaN	450	8	9	2	121	221	321	NaN	521	1.24768847553059	2	1	NaN	3795103.1842766	NaN	3795104.1676478	3795104.68419532
109	18	1	0	90	36.1581920903955	36.241610738255	25	0.833416700363159	2	2	5	NaN	1	3	0.0565952662433556	1	1	NaN	451	8	10	2	121	221	321	NaN	521	0.304323675576597	1	1	NaN	3795106.7512759	NaN	3795107.7346654	3795108.25121242
109	18	1	0	90	36.1581920903955	36.241610738255	15	0.500050020217895	2	5	4	NaN	1	3	0.0565952662433556	1	1	NaN	452	8	11	2	121	221	321	NaN	521	0.0104096760042012	1	1	NaN	3795109.3681956	NaN	3795110.3515814	3795110.86813692
109	18	1	0	90	36.1581920903955	36.241610738255	10	0.333366680145264	2	2	5	NaN	1	3	0.0565952662433556	1	1	NaN	453	8	12	2	121	221	321	NaN	521	0.274842175655067	1	1	NaN	3795111.6851288	NaN	3795112.6684837	3795113.18503802
109	18	1	0	90	36.1581920903955	36.241610738255	16	0.533386688232422	2	6	6	NaN	1	4	0.0565952662433556	1	1	NaN	454	8	13	2	121	221	321	NaN	521	0.0749926757998765	1	1	NaN	3795114.2686916	NaN	3795115.2520613	3795115.76862822
109	18	1	0	90	36.1581920903955	36.241610738255	25	0.833416700363159	2	7	6	NaN	2	4	0.0565952662433556	1	1	NaN	455	8	14	2	121	221	321	NaN	521	0.0353157757781446	2	1	NaN	3795116.6522589	NaN	3795117.6356248	3795118.15218752
109	18	1	0	90	36.1581920903955	36.241610738255	16	0.533386688232422	2	4	5	NaN	1	3	0.0565952662433556	1	1	NaN	456	8	15	2	121	221	321	NaN	521	0.0451275273226202	1	1	NaN	3795119.0023358	NaN	3795119.9858674	3795120.50242757
