subjno	age	gender	isPractice	viewdist	CmToPixX	CmToPixY	SOA_frm	SOA_time	targNum	targID	targExample	targRace	targGender	firstTargPos	contrast	familiarity	curr_staircase	iStair	TrialNum	BlockNum	blktrl	sessionNum	TC_FIXATION	TC_RSVP_START	TC_RSVP_END	TC_BLANK	TC_RESPONSE_ONSET	RT2afc	resp_2afc	acc	RSVPOnsetVBL	RSVPOnsetTime	RSVPOffsetVBL	RSVPOffsetTime	startrt_2afc
76	19	0	0	90	36.1581920903955	36.241610738255	23	0.766720824055374	2	12	5	NaN	2	3	0.0373219555907749	0	1	NaN	1	1	1	2	120	220	320	NaN	520	0.196778527460992	2	1	NaN	3357081.8291756	NaN	3357082.812423	3357083.34554637
76	19	0	0	90	36.1581920903955	36.241610738255	13	0.433363944031298	2	4	4	NaN	1	4	0.0373219555907749	0	1	NaN	2	1	2	2	120	220	320	NaN	520	0.30170322721824	1	1	NaN	3357084.3960764	NaN	3357085.3793379	3357085.91246677
76	19	0	0	90	36.1581920903955	36.241610738255	0	0	1	4	2	NaN	1	3	0.0373219555907749	0	1	NaN	3	1	3	2	110	210	310	NaN	510	0.347854727413505	1	1	NaN	3357087.0294264	NaN	3357088.0128248	3357088.54605797
76	19	0	0	90	36.1581920903955	36.241610738255	18	0.600042384043336	2	10	2	NaN	2	3	0.0373219555907749	0	1	NaN	4	1	4	2	120	220	320	NaN	520	0.443190922494978	1	0	NaN	3357090.0629347	NaN	3357091.0464519	3357091.56301458
76	19	0	0	90	36.1581920903955	36.241610738255	21	0.700049448050559	2	3	1	NaN	1	3	0.0373219555907749	0	1	NaN	5	1	5	2	120	220	320	NaN	520	1.72406767029315	2	0	NaN	3357092.8300047	NaN	3357093.8133312	3357094.32994953
76	19	0	0	90	36.1581920903955	36.241610738255	9	0.300021192021668	2	3	2	NaN	1	3	0.0373219555907749	0	1	NaN	6	1	6	2	120	220	320	NaN	520	0.36163676995784	1	1	NaN	3357096.8804052	NaN	3357097.8638543	3357098.38035133
76	19	0	0	90	36.1581920903955	36.241610738255	13	0.433363944031298	2	6	6	NaN	1	5	0.0373219555907749	0	1	NaN	7	1	7	2	120	220	320	NaN	520	0.350666369777173	1	1	NaN	3357099.5473367	NaN	3357100.5307158	3357101.04727113
76	19	0	0	90	36.1581920903955	36.241610738255	25	0.833392200060189	2	12	1	NaN	2	5	0.0373219555907749	0	1	NaN	8	1	8	2	120	220	320	NaN	520	0.708362522535026	2	1	NaN	3357102.2142633	NaN	3357103.197708	3357103.71421228
76	19	0	0	90	36.1581920903955	36.241610738255	24	0.800056512057781	2	6	5	NaN	1	4	0.0373219555907749	0	1	NaN	9	1	9	2	120	220	320	NaN	520	2.98621732229367	1	1	NaN	3357105.2478774	NaN	3357106.2313216	3357106.74783998
76	19	0	0	90	36.1581920903955	36.241610738255	22	0.733385136052966	2	8	6	NaN	2	3	0.0373219555907749	0	1	NaN	10	1	10	2	120	220	320	NaN	520	0.725647769868374	2	1	NaN	3357110.5484154	NaN	3357111.5318069	3357112.04835623
76	19	0	0	90	36.1581920903955	36.241610738255	6	0.200014128014445	2	7	1	NaN	2	4	0.0373219555907749	0	1	NaN	11	1	11	2	120	220	320	NaN	520	0.475333637557924	1	0	NaN	3357113.5987109	NaN	3357114.5820973	3357115.09866796
76	19	0	0	90	36.1581920903955	36.241610738255	11	0.366692568026483	2	5	4	NaN	1	3	0.0373219555907749	0	1	NaN	12	1	12	2	120	220	320	NaN	520	0.451015669852495	2	0	NaN	3357116.3989941	NaN	3357117.3823754	3357117.89893343
76	19	0	0	90	36.1581920903955	36.241610738255	9	0.300021192021668	2	7	5	NaN	2	3	0.0373219555907749	0	1	NaN	13	1	13	2	120	220	320	NaN	520	0.660372722893953	1	0	NaN	3357119.1659034	NaN	3357120.1493405	3357120.66586988
76	19	0	0	90	36.1581920903955	36.241610738255	24	0.800056512057781	2	2	4	NaN	1	4	0.0373219555907749	0	1	NaN	14	1	14	2	120	220	320	NaN	520	0.525005870033056	2	0	NaN	3357122.1495882	NaN	3357123.1329474	3357123.64949163
76	19	0	0	90	36.1581920903955	36.241610738255	13	0.433363944031298	2	10	1	NaN	2	3	0.0373219555907749	0	1	NaN	15	1	15	2	120	220	320	NaN	520	0.362471042666584	1	0	NaN	3357124.9998027	NaN	3357125.9832191	3357126.49978186
76	19	0	0	90	36.1581920903955	36.241610738255	11	0.366692568026483	2	11	6	NaN	2	5	0.0373219555907749	0	1	NaN	16	1	16	2	120	220	320	NaN	520	0.414622670039535	2	1	NaN	3357127.6834281	NaN	3357128.6668194	3357129.18337263
76	19	0	0	90	36.1581920903955	36.241610738255	15	0.500035320036113	2	2	3	NaN	1	5	0.0373219555907749	0	1	NaN	17	1	17	2	120	220	320	NaN	520	1.85714466962963	1	1	NaN	3357130.4170208	NaN	3357131.4004083	3357131.91697703
76	19	0	0	90	36.1581920903955	36.241610738255	10	0.333356880024075	2	8	5	NaN	2	4	0.0373219555907749	0	1	NaN	18	1	18	2	120	220	320	NaN	520	1.18529896996915	1	0	NaN	3357135.0007759	NaN	3357135.9841896	3357136.50076113
76	19	0	0	90	36.1581920903955	36.241610738255	17	0.566706696040928	2	4	4	NaN	1	4	0.0373219555907749	0	1	NaN	19	1	19	2	120	220	320	NaN	520	0.517374369781464	2	0	NaN	3357138.5012706	NaN	3357139.4845698	3357140.00109703
76	19	0	0	90	36.1581920903955	36.241610738255	14	0.466699632033706	2	6	4	NaN	1	3	0.0373219555907749	0	1	NaN	20	1	20	2	120	220	320	NaN	520	0.459305064752698	1	1	NaN	3357141.334765	NaN	3357142.318158	3357142.83471224
76	19	0	0	90	36.1581920903955	36.241610738255	25	0.833392200060189	2	6	4	NaN	1	3	0.0373219555907749	0	1	NaN	21	1	21	2	120	220	320	NaN	520	1.57157196477056	1	1	NaN	3357144.1183753	NaN	3357145.1017913	3357145.61832274
76	19	0	0	90	36.1581920903955	36.241610738255	7	0.233349816016853	2	4	1	NaN	1	4	0.0373219555907749	0	1	NaN	22	1	22	2	120	220	320	NaN	520	0.535945822950453	2	0	NaN	3357148.0020864	NaN	3357148.9854761	3357149.50204388
76	19	0	0	90	36.1581920903955	36.241610738255	16	0.533371008038521	2	1	4	NaN	1	5	0.0373219555907749	0	1	NaN	23	1	23	2	120	220	320	NaN	520	0.503098074812442	1	1	NaN	3357151.0190223	NaN	3357152.0024583	3357152.51900663
76	19	0	0	90	36.1581920903955	36.241610738255	13	0.433363944031298	2	9	5	NaN	2	3	0.0373219555907749	0	1	NaN	24	1	24	2	120	220	320	NaN	520	0.557428970001638	2	1	NaN	3357153.8526751	NaN	3357154.8360533	3357155.35261533
76	19	0	0	90	36.1581920903955	36.241610738255	18	0.600042384043336	2	1	5	NaN	1	3	0.0373219555907749	0	1	NaN	25	1	25	2	120	220	320	NaN	520	0.537921370007098	1	1	NaN	3357156.7362547	NaN	3357157.7196855	3357158.23622543
76	19	0	0	90	36.1581920903955	36.241610738255	15	0.500035320036113	2	3	1	NaN	1	5	0.0373219555907749	0	1	NaN	26	1	26	2	120	220	320	NaN	520	0.471468769945204	2	0	NaN	3357159.5865654	NaN	3357160.5699575	3357161.08651063
76	19	0	0	90	36.1581920903955	36.241610738255	19	0.633378072045743	2	6	3	NaN	1	4	0.0373219555907749	0	1	NaN	27	1	27	2	120	220	320	NaN	520	0.323948317673057	2	0	NaN	3357162.6701503	NaN	3357163.6535988	3357164.17013688
76	19	0	0	90	36.1581920903955	36.241610738255	23	0.766720824055374	2	4	5	NaN	1	3	0.0373219555907749	0	1	NaN	28	1	28	2	120	220	320	NaN	520	0.553855717182159	1	1	NaN	3357165.3203984	NaN	3357166.3038456	3357166.82040058
76	19	0	0	90	36.1581920903955	36.241610738255	25	0.833392200060189	2	10	5	NaN	2	4	0.0373219555907749	0	1	NaN	29	1	29	2	120	220	320	NaN	520	0.0221540229395032	2	1	NaN	3357168.2040894	NaN	3357169.187483	3357169.70402158
76	19	0	0	90	36.1581920903955	36.241610738255	10	0.333356880024075	2	9	1	NaN	2	5	0.0373219555907749	0	1	NaN	30	1	30	2	120	220	320	NaN	520	0.895766670349985	1	0	NaN	3357170.5543217	NaN	3357171.5376996	3357172.05425283
76	19	0	0	90	36.1581920903955	36.241610738255	20	0.666713760048151	2	5	3	NaN	1	4	0.0373219555907749	0	1	NaN	31	1	31	2	120	220	320	NaN	520	0.550693922676146	1	1	NaN	3357173.7712753	NaN	3357174.754685	3357175.27123488
76	19	0	0	90	36.1581920903955	36.241610738255	21	0.700049448050559	2	6	5	NaN	1	4	0.0373219555907749	0	1	NaN	32	1	32	2	120	220	320	NaN	520	0.596341769676656	1	1	NaN	3357176.6381037	NaN	3357177.6216395	3357178.13817573
76	19	0	0	90	36.1581920903955	36.241610738255	19	0.633378072045743	2	11	3	NaN	2	3	0.0373219555907749	0	1	NaN	33	1	33	2	120	220	320	NaN	520	0.446956894826144	2	1	NaN	3357179.5551818	NaN	3357180.5385898	3357181.05514951
76	19	0	0	90	36.1581920903955	36.241610738255	23	0.766720824055374	2	8	1	NaN	2	3	0.0373219555907749	0	1	NaN	34	1	34	2	120	220	320	NaN	520	0.191946022678167	1	0	NaN	3357182.3221183	NaN	3357183.3055308	3357183.82207618
76	19	0	0	90	36.1581920903955	36.241610738255	7	0.233349816016853	2	1	4	NaN	1	4	0.0373219555907749	0	1	NaN	35	1	35	2	120	220	320	NaN	520	4.28301752265543	2	0	NaN	3357184.8390529	NaN	3357185.8224319	3357186.33899358
76	19	0	0	90	36.1581920903955	36.241610738255	24	0.800056512057781	2	10	4	NaN	2	5	0.0373219555907749	0	1	NaN	36	1	36	2	120	220	320	NaN	520	0.330478622578084	1	0	NaN	3357191.4396725	NaN	3357192.423079	3357192.93963728
76	19	0	0	90	36.1581920903955	36.241610738255	9	0.300021192021668	2	10	5	NaN	2	4	0.0373219555907749	0	1	NaN	37	1	37	2	120	220	320	NaN	520	0.344223312567919	2	1	NaN	3357194.0898116	NaN	3357195.073356	3357195.58989009
76	19	0	0	90	36.1581920903955	36.241610738255	0	0	1	8	6	NaN	2	5	0.0373219555907749	0	1	NaN	38	1	38	2	110	210	310	NaN	510	1.48128147004172	1	0	NaN	3357197.0564964	NaN	3357198.0403013	3357198.55685693
76	19	0	0	90	36.1581920903955	36.241610738255	7	0.233349816016853	2	7	4	NaN	2	4	0.0373219555907749	0	1	NaN	39	1	39	2	120	220	320	NaN	520	0.761010222602636	2	1	NaN	3357200.8572751	NaN	3357201.8406761	3357202.35723198
76	19	0	0	90	36.1581920903955	36.241610738255	16	0.533371008038521	2	8	1	NaN	2	4	0.0373219555907749	0	1	NaN	40	1	40	2	120	220	320	NaN	520	1.19810946471989	1	0	NaN	3357203.9241062	NaN	3357204.9076421	3357205.42420014
76	19	0	0	90	36.1581920903955	36.241610738255	12	0.400028256028891	2	11	5	NaN	2	4	0.0373219555907749	0	1	NaN	41	1	41	2	120	220	320	NaN	520	0.497425717767328	2	1	NaN	3357207.4412568	NaN	3357208.424678	3357208.94120028
76	19	0	0	90	36.1581920903955	36.241610738255	23	0.766720824055374	2	7	1	NaN	2	4	0.0373219555907749	0	1	NaN	42	1	42	2	120	220	320	NaN	520	0.327880070079118	1	0	NaN	3357210.2580847	NaN	3357211.241605	3357211.75815393
76	19	0	0	90	36.1581920903955	36.241610738255	24	0.800056512057781	2	7	4	NaN	2	5	0.0373219555907749	0	1	NaN	43	1	43	2	120	220	320	NaN	520	0.54211682267487	2	1	NaN	3357212.908341	NaN	3357213.8917548	3357214.40840588
76	19	0	0	90	36.1581920903955	36.241610738255	21	0.700049448050559	2	10	4	NaN	2	3	0.0373219555907749	0	1	NaN	44	1	44	2	120	220	320	NaN	520	0.587498470209539	1	0	NaN	3357215.7587409	NaN	3357216.7421333	3357217.25869213
76	19	0	0	90	36.1581920903955	36.241610738255	15	0.500035320036113	2	1	3	NaN	1	4	0.0373219555907749	0	1	NaN	45	1	45	2	120	220	320	NaN	520	0.399655070155859	2	0	NaN	3357218.6589007	NaN	3357219.6424207	3357220.15897223
76	19	0	0	90	36.1581920903955	36.241610738255	15	0.500035320036113	2	2	6	NaN	1	5	0.0373219555907749	0	1	NaN	46	1	46	2	120	220	320	NaN	520	0.410109322983772	1	1	NaN	3357221.3759476	NaN	3357222.3593608	3357222.87590448
76	19	0	0	90	36.1581920903955	36.241610738255	11	0.366692568026483	2	7	4	NaN	2	4	0.0373219555907749	0	1	NaN	47	1	47	2	120	220	320	NaN	520	0.365708169993013	2	1	NaN	3357224.0928944	NaN	3357225.0762782	3357225.59283923
76	19	0	0	90	36.1581920903955	36.241610738255	11	0.366692568026483	2	5	3	NaN	1	5	0.0373219555907749	0	1	NaN	48	1	48	2	120	220	320	NaN	520	0.321794470306486	1	1	NaN	3357226.7764849	NaN	3357227.7598897	3357228.27643993
76	19	0	0	90	36.1581920903955	36.241610738255	0	0	1	12	3	NaN	2	4	0.0373219555907749	0	1	NaN	49	1	49	2	110	210	310	NaN	510	0.51212752237916	2	1	NaN	3357229.4100706	NaN	3357230.3934683	3357230.91003268
76	19	0	0	90	36.1581920903955	36.241610738255	23	0.766720824055374	2	5	1	NaN	1	5	0.0373219555907749	0	1	NaN	50	1	50	2	120	220	320	NaN	520	0.462582670152187	1	1	NaN	3357232.2437025	NaN	3357233.2270797	3357233.74364463
76	19	0	0	90	36.1581920903955	36.241610738255	21	0.700049448050559	2	2	6	NaN	1	3	0.0373219555907749	0	1	NaN	51	1	51	2	120	220	320	NaN	520	0.439240269828588	2	0	NaN	3357235.027304	NaN	3357236.0107096	3357236.52724793
76	19	0	0	90	36.1581920903955	36.241610738255	22	0.733385136052966	2	2	5	NaN	1	3	0.0373219555907749	0	1	NaN	52	1	52	2	120	220	320	NaN	520	0.321036527398974	1	1	NaN	3357237.7775777	NaN	3357238.7609684	3357239.27752497
76	19	0	0	90	36.1581920903955	36.241610738255	18	0.600042384043336	2	9	4	NaN	2	5	0.0373219555907749	0	1	NaN	53	1	53	2	120	220	320	NaN	520	0.34303012304008	2	1	NaN	3357240.4111683	NaN	3357241.3945588	3357241.91111178
76	19	0	0	90	36.1581920903955	36.241610738255	17	0.566706696040928	2	7	4	NaN	2	3	0.0373219555907749	0	1	NaN	54	1	54	2	120	220	320	NaN	520	0.308757164515555	1	0	NaN	3357243.0612934	NaN	3357244.0448166	3357244.56136544
76	19	0	0	90	36.1581920903955	36.241610738255	10	0.333356880024075	2	4	5	NaN	1	3	0.0373219555907749	0	1	NaN	55	1	55	2	120	220	320	NaN	520	0.299833470024168	2	0	NaN	3357245.6783884	NaN	3357246.6617512	3357247.17830373
76	19	0	0	90	36.1581920903955	36.241610738255	22	0.733385136052966	2	4	6	NaN	1	3	0.0373219555907749	0	1	NaN	56	1	56	2	120	220	320	NaN	520	0.371638817247003	1	1	NaN	3357248.2786168	NaN	3357249.2619983	3357249.77854508
76	19	0	0	90	36.1581920903955	36.241610738255	22	0.733385136052966	2	2	1	NaN	1	4	0.0373219555907749	0	1	NaN	57	1	57	2	120	220	320	NaN	520	0.335960070136935	2	0	NaN	3357250.9620343	NaN	3357251.9455915	3357252.46214463
76	19	0	0	90	36.1581920903955	36.241610738255	21	0.700049448050559	2	9	3	NaN	2	3	0.0373219555907749	0	1	NaN	58	1	58	2	120	220	320	NaN	520	0.325822370126843	1	0	NaN	3357253.6124467	NaN	3357254.5958894	3357255.11241103
76	19	0	0	90	36.1581920903955	36.241610738255	8	0.26668550401926	2	10	6	NaN	2	3	0.0373219555907749	0	1	NaN	59	1	59	2	120	220	320	NaN	520	0.356552117038518	2	1	NaN	3357256.2460585	NaN	3357257.2294499	3357257.74599498
76	19	0	0	90	36.1581920903955	36.241610738255	13	0.433363944031298	2	3	1	NaN	1	3	0.0373219555907749	0	1	NaN	60	1	60	2	120	220	320	NaN	520	0.41772967018187	1	1	NaN	3357258.9129202	NaN	3357259.8963794	3357260.41293173
76	19	0	0	90	36.1581920903955	36.241610738255	6	0.200014128014445	2	11	4	NaN	2	5	0.0373219555907749	0	1	NaN	61	1	61	2	120	220	320	NaN	520	0.315584974363446	1	0	NaN	3357261.6465868	NaN	3357262.6299789	3357263.14653303
76	19	0	0	90	36.1581920903955	36.241610738255	12	0.400028256028891	2	9	2	NaN	2	3	0.0373219555907749	0	1	NaN	62	1	62	2	120	220	320	NaN	520	0.0634795702062547	2	1	NaN	3357264.3468774	NaN	3357265.3302432	3357265.84679253
76	19	0	0	90	36.1581920903955	36.241610738255	17	0.566706696040928	2	5	4	NaN	1	5	0.0373219555907749	0	1	NaN	63	1	63	2	120	220	320	NaN	520	0.104581069666892	1	1	NaN	3357266.7137579	NaN	3357267.6971549	3357268.21368983
76	19	0	0	90	36.1581920903955	36.241610738255	15	0.500035320036113	2	8	2	NaN	2	4	0.0373219555907749	0	1	NaN	64	2	1	2	120	220	320	NaN	520	0.477157222572714	1	0	NaN	3357291.3495159	NaN	3357292.3329318	3357292.84945448
76	19	0	0	90	36.1581920903955	36.241610738255	8	0.26668550401926	2	12	4	NaN	2	3	0.0373219555907749	0	1	NaN	65	2	2	2	120	220	320	NaN	520	0.444916970096529	2	1	NaN	3357294.1496736	NaN	3357295.1331698	3357295.64971893
76	19	0	0	90	36.1581920903955	36.241610738255	14	0.466699632033706	2	9	1	NaN	2	4	0.0373219555907749	0	1	NaN	66	2	3	2	120	220	320	NaN	520	0.446286422666162	2	1	NaN	3357296.9000393	NaN	3357297.8834509	3357298.40000038
76	19	0	0	90	36.1581920903955	36.241610738255	18	0.600042384043336	2	7	5	NaN	2	3	0.0373219555907749	0	1	NaN	67	2	4	2	120	220	320	NaN	520	0.720204742625356	1	0	NaN	3357299.6503243	NaN	3357300.6337219	3357301.15027346
76	19	0	0	90	36.1581920903955	36.241610738255	18	0.600042384043336	2	5	6	NaN	1	5	0.0373219555907749	0	1	NaN	68	2	5	2	120	220	320	NaN	520	0.29447896964848	2	0	NaN	3357302.6838263	NaN	3357303.6673566	3357304.18389193
76	19	0	0	90	36.1581920903955	36.241610738255	14	0.466699632033706	2	11	1	NaN	2	5	0.0373219555907749	0	1	NaN	69	2	6	2	120	220	320	NaN	520	0.365903169848025	2	1	NaN	3357305.2842456	NaN	3357306.2675956	3357306.78414623
76	19	0	0	90	36.1581920903955	36.241610738255	15	0.500035320036113	2	10	5	NaN	2	5	0.0373219555907749	0	1	NaN	70	2	7	2	120	220	320	NaN	520	1.23461087001488	2	1	NaN	3357307.9677971	NaN	3357308.9512004	3357309.46774403
76	19	0	0	90	36.1581920903955	36.241610738255	25	0.833392200060189	2	5	6	NaN	1	3	0.0373219555907749	0	1	NaN	71	2	8	2	120	220	320	NaN	520	0.324381370097399	2	0	NaN	3357311.5181551	NaN	3357312.5015343	3357313.01809593
76	19	0	0	90	36.1581920903955	36.241610738255	19	0.633378072045743	2	8	6	NaN	2	5	0.0373219555907749	0	1	NaN	72	2	9	2	120	220	320	NaN	520	0.401930669788271	1	0	NaN	3357314.1683088	NaN	3357315.1518703	3357315.66835623
76	19	0	0	90	36.1581920903955	36.241610738255	15	0.500035320036113	2	12	1	NaN	2	3	0.0373219555907749	0	1	NaN	73	2	10	2	120	220	320	NaN	520	0.37291896995157	1	0	NaN	3357316.8853548	NaN	3357317.8687717	3357318.38528823
76	19	0	0	90	36.1581920903955	36.241610738255	18	0.600042384043336	2	6	5	NaN	1	3	0.0373219555907749	0	1	NaN	74	2	11	2	120	220	320	NaN	520	0.417826922610402	2	0	NaN	3357319.5689284	NaN	3357320.552356	3357321.06888918
76	19	0	0	90	36.1581920903955	36.241610738255	10	0.333356880024075	2	10	3	NaN	2	3	0.0373219555907749	0	1	NaN	75	2	12	2	120	220	320	NaN	520	0.307680970057845	1	0	NaN	3357322.3025478	NaN	3357323.2859679	3357323.80248543
76	19	0	0	90	36.1581920903955	36.241610738255	23	0.766720824055374	2	9	5	NaN	2	5	0.0373219555907749	0	1	NaN	76	2	13	2	120	220	320	NaN	520	0.642805322539061	2	1	NaN	3357324.9195441	NaN	3357325.9028436	3357326.41941978
76	19	0	0	90	36.1581920903955	36.241610738255	20	0.666713760048151	2	6	1	NaN	1	3	0.0373219555907749	0	1	NaN	77	2	14	2	120	220	320	NaN	520	0.588855070061982	1	1	NaN	3357327.8697624	NaN	3357328.8531328	3357329.36970253
76	19	0	0	90	36.1581920903955	36.241610738255	20	0.666713760048151	2	11	2	NaN	2	3	0.0373219555907749	0	1	NaN	78	2	15	2	120	220	320	NaN	520	0.448754069861025	2	1	NaN	3357330.7700667	NaN	3357331.753473	3357332.26998703
76	19	0	0	90	36.1581920903955	36.241610738255	8	0.26668550401926	2	4	2	NaN	1	3	0.0373219555907749	0	1	NaN	79	2	16	2	120	220	320	NaN	520	0.921324117574841	1	1	NaN	3357333.5369696	NaN	3357334.5203698	3357335.03691868
76	19	0	0	90	36.1581920903955	36.241610738255	20	0.666713760048151	2	5	3	NaN	1	3	0.0373219555907749	0	1	NaN	80	2	17	2	120	220	320	NaN	520	0.535845822654665	2	0	NaN	3357336.7705309	NaN	3357337.7540555	3357338.27058348
76	19	0	0	90	36.1581920903955	36.241610738255	9	0.300021192021668	2	1	6	NaN	1	3	0.0373219555907749	0	1	NaN	81	2	18	2	120	220	320	NaN	520	0.47750477027148	2	0	NaN	3357339.6209158	NaN	3357340.6043034	3357341.12085553
76	19	0	0	90	36.1581920903955	36.241610738255	18	0.600042384043336	2	1	2	NaN	1	4	0.0373219555907749	0	1	NaN	82	2	19	2	120	220	320	NaN	520	0.381699969992042	1	1	NaN	3357342.4044152	NaN	3357343.3879028	3357343.90446223
76	19	0	0	90	36.1581920903955	36.241610738255	9	0.300021192021668	2	8	2	NaN	2	3	0.0373219555907749	0	1	NaN	83	2	20	2	120	220	320	NaN	520	0.121911069843918	2	1	NaN	3357345.1047784	NaN	3357346.0881817	3357346.60472573
76	19	0	0	90	36.1581920903955	36.241610738255	23	0.766720824055374	2	2	2	NaN	1	5	0.0373219555907749	0	1	NaN	84	2	21	2	120	220	320	NaN	520	0.312321474775672	2	0	NaN	3357347.5383537	NaN	3357348.5217409	3357349.03830313
76	19	0	0	90	36.1581920903955	36.241610738255	20	0.666713760048151	2	1	1	NaN	1	5	0.0373219555907749	0	1	NaN	85	2	22	2	120	220	320	NaN	520	0.239498269744217	2	0	NaN	3357350.1552721	NaN	3357351.1386667	3357351.65521783
76	19	0	0	90	36.1581920903955	36.241610738255	9	0.300021192021668	2	2	1	NaN	1	4	0.0373219555907749	0	1	NaN	86	2	23	2	120	220	320	NaN	520	0.688665222376585	2	0	NaN	3357352.7054006	NaN	3357353.6889223	3357354.20547658
76	19	0	0	90	36.1581920903955	36.241610738255	7	0.233349816016853	2	6	4	NaN	1	4	0.0373219555907749	0	1	NaN	87	2	24	2	120	220	320	NaN	520	0.304693769663572	2	0	NaN	3357355.7058304	NaN	3357356.6892183	3357357.20576733
76	19	0	0	90	36.1581920903955	36.241610738255	14	0.466699632033706	2	6	5	NaN	1	4	0.0373219555907749	0	1	NaN	88	2	25	2	120	220	320	NaN	520	0.360011669807136	2	0	NaN	3357358.3227503	NaN	3357359.3061575	3357359.82269353
76	19	0	0	90	36.1581920903955	36.241610738255	13	0.433363944031298	2	3	5	NaN	1	4	0.0373219555907749	0	1	NaN	89	2	26	2	120	220	320	NaN	520	0.300837469752878	2	0	NaN	3357360.9896801	NaN	3357361.9730636	3357362.48961743
76	19	0	0	90	36.1581920903955	36.241610738255	10	0.333356880024075	2	11	2	NaN	2	5	0.0373219555907749	0	1	NaN	90	2	27	2	120	220	320	NaN	520	0.339667979627848	2	1	NaN	3357363.6066018	NaN	3357364.5899968	3357365.10655282
76	19	0	0	90	36.1581920903955	36.241610738255	6	0.200014128014445	2	1	3	NaN	1	3	0.0373219555907749	0	1	NaN	91	2	28	2	120	220	320	NaN	520	0.577539669815451	2	0	NaN	3357366.2567954	NaN	3357367.2402635	3357367.75680373
76	19	0	0	90	36.1581920903955	36.241610738255	9	0.300021192021668	2	2	6	NaN	1	5	0.0373219555907749	0	1	NaN	92	2	29	2	120	220	320	NaN	520	0.637307017110288	2	0	NaN	3357369.1571418	NaN	3357370.1405199	3357370.65708328
76	19	0	0	90	36.1581920903955	36.241610738255	13	0.433363944031298	2	9	3	NaN	2	3	0.0373219555907749	0	1	NaN	93	2	30	2	120	220	320	NaN	520	1.71555297030136	2	1	NaN	3357372.1907525	NaN	3357373.1741665	3357373.69071943
76	19	0	0	90	36.1581920903955	36.241610738255	13	0.433363944031298	2	7	1	NaN	2	3	0.0373219555907749	0	1	NaN	94	2	31	2	120	220	320	NaN	520	0.370380169712007	1	0	NaN	3357376.2078459	NaN	3357377.1912195	3357377.70778173
76	19	0	0	90	36.1581920903955	36.241610738255	24	0.800056512057781	2	4	6	NaN	1	5	0.0373219555907749	0	1	NaN	95	2	32	2	120	220	320	NaN	520	0.310998122673482	2	0	NaN	3357378.8914343	NaN	3357379.8747299	3357380.39137588
76	19	0	0	90	36.1581920903955	36.241610738255	0	0	1	2	1	NaN	1	4	0.0373219555907749	0	1	NaN	96	2	33	2	110	210	310	NaN	510	0.518125370144844	1	1	NaN	3357381.508212	NaN	3357382.4917834	3357383.00830833
76	19	0	0	90	36.1581920903955	36.241610738255	19	0.633378072045743	2	1	4	NaN	1	4	0.0373219555907749	0	1	NaN	97	2	34	2	120	220	320	NaN	520	0.412531422451138	2	0	NaN	3357384.3419744	NaN	3357385.3253597	3357385.84192098
76	19	0	0	90	36.1581920903955	36.241610738255	12	0.400028256028891	2	12	2	NaN	2	4	0.0373219555907749	0	1	NaN	98	2	35	2	120	220	320	NaN	520	0.318703470285982	2	1	NaN	3357387.0755799	NaN	3357388.0590273	3357388.57550903
76	19	0	0	90	36.1581920903955	36.241610738255	14	0.466699632033706	2	7	2	NaN	2	3	0.0373219555907749	0	1	NaN	99	2	36	2	120	220	320	NaN	520	0.405392470303923	1	0	NaN	3357389.7091596	NaN	3357390.6925583	3357391.20910473
76	19	0	0	90	36.1581920903955	36.241610738255	0	0	1	2	2	NaN	1	5	0.0373219555907749	0	1	NaN	100	2	37	2	110	210	310	NaN	510	0.360741070006043	1	1	NaN	3357392.4261238	NaN	3357393.4094863	3357393.92604223
76	19	0	0	90	36.1581920903955	36.241610738255	14	0.466699632033706	2	9	2	NaN	2	3	0.0373219555907749	0	1	NaN	101	2	38	2	120	220	320	NaN	520	0.101547722704709	2	1	NaN	3357395.0930539	NaN	3357396.0764183	3357396.59297238
76	19	0	0	90	36.1581920903955	36.241610738255	23	0.766720824055374	2	11	5	NaN	2	3	0.0373219555907749	0	1	NaN	102	2	39	2	120	220	320	NaN	520	2.16486322274432	1	0	NaN	3357397.5099234	NaN	3357398.4933007	3357399.00987988
76	19	0	0	90	36.1581920903955	36.241610738255	13	0.433363944031298	2	8	6	NaN	2	5	0.0373219555907749	0	1	NaN	103	2	40	2	120	220	320	NaN	520	0.58526391768828	0	0	NaN	3357401.9937033	NaN	3357402.977082	3357403.49364688
76	19	0	0	90	36.1581920903955	36.241610738255	19	0.633378072045743	2	5	4	NaN	1	3	0.0373219555907749	0	1	NaN	104	2	41	2	120	220	320	NaN	520	0.412564222700894	2	0	NaN	3357404.8939602	NaN	3357405.8773636	3357406.39393698
76	19	0	0	90	36.1581920903955	36.241610738255	9	0.300021192021668	2	10	3	NaN	2	4	0.0373219555907749	0	1	NaN	105	2	42	2	120	220	320	NaN	520	0.151274517178535	1	0	NaN	3357407.6275934	NaN	3357408.610977	3357409.12753108
76	19	0	0	90	36.1581920903955	36.241610738255	13	0.433363944031298	2	11	1	NaN	2	5	0.0373219555907749	0	1	NaN	106	2	43	2	120	220	320	NaN	520	1.11588487494737	2	1	NaN	3357410.0945007	NaN	3357411.0779415	3357411.59445183
76	19	0	0	90	36.1581920903955	36.241610738255	19	0.633378072045743	2	8	5	NaN	2	5	0.0373219555907749	0	1	NaN	107	2	44	2	120	220	320	NaN	520	0.122623469680548	1	0	NaN	3357413.528173	NaN	3357414.5115554	3357415.02811483
76	19	0	0	90	36.1581920903955	36.241610738255	15	0.500035320036113	2	9	5	NaN	2	4	0.0373219555907749	0	1	NaN	108	2	45	2	120	220	320	NaN	520	0.320625870022923	2	1	NaN	3357415.9617425	NaN	3357416.945025	3357417.46168043
76	19	0	0	90	36.1581920903955	36.241610738255	0	0	1	12	4	NaN	2	3	0.0373219555907749	0	1	NaN	109	2	46	2	110	210	310	NaN	510	0.364400569815189	1	0	NaN	3357419.0620367	NaN	3357420.0454355	3357420.56198673
76	19	0	0	90	36.1581920903955	36.241610738255	17	0.566706696040928	2	11	1	NaN	2	5	0.0373219555907749	0	1	NaN	110	2	47	2	120	220	320	NaN	520	0.368875769898295	2	1	NaN	3357421.7456383	NaN	3357422.7290267	3357423.24559263
76	19	0	0	90	36.1581920903955	36.241610738255	10	0.333356880024075	2	7	2	NaN	2	5	0.0373219555907749	0	1	NaN	111	2	48	2	120	220	320	NaN	520	0.205643922556192	1	0	NaN	3357424.4292283	NaN	3357425.4126425	3357425.92919018
76	19	0	0	90	36.1581920903955	36.241610738255	15	0.500035320036113	2	7	1	NaN	2	5	0.0373219555907749	0	1	NaN	112	2	49	2	120	220	320	NaN	520	0.408746569883078	2	1	NaN	3357426.9461508	NaN	3357427.92955	3357428.44609213
76	19	0	0	90	36.1581920903955	36.241610738255	18	0.600042384043336	2	6	6	NaN	1	3	0.0373219555907749	0	1	NaN	113	2	50	2	120	220	320	NaN	520	0.355237969662994	1	1	NaN	3357429.6630852	NaN	3357430.6465543	3357431.16302763
76	19	0	0	90	36.1581920903955	36.241610738255	16	0.533371008038521	2	10	6	NaN	2	3	0.0373219555907749	0	1	NaN	114	2	51	2	120	220	320	NaN	520	0.304382170084864	2	1	NaN	3357432.7300591	NaN	3357433.7134267	3357434.22999863
76	19	0	0	90	36.1581920903955	36.241610738255	14	0.466699632033706	2	5	4	NaN	1	5	0.0373219555907749	0	1	NaN	115	2	52	2	120	220	320	NaN	520	0.447423370089382	1	1	NaN	3357435.3470145	NaN	3357436.3303853	3357436.84691913
76	19	0	0	90	36.1581920903955	36.241610738255	19	0.633378072045743	2	7	4	NaN	2	3	0.0373219555907749	0	1	NaN	116	2	53	2	120	220	320	NaN	520	0.297013469971716	2	1	NaN	3357438.1139214	NaN	3357439.0973535	3357439.61386303
76	19	0	0	90	36.1581920903955	36.241610738255	23	0.766720824055374	2	5	1	NaN	1	4	0.0373219555907749	0	1	NaN	117	2	54	2	120	220	320	NaN	520	0.311624770052731	1	1	NaN	3357440.7308604	NaN	3357441.7142338	3357442.23078303
76	19	0	0	90	36.1581920903955	36.241610738255	10	0.333356880024075	2	9	3	NaN	2	4	0.0373219555907749	0	1	NaN	118	2	55	2	120	220	320	NaN	520	0.374083874747157	2	1	NaN	3357443.3643041	NaN	3357444.3478415	3357444.86438173
76	19	0	0	90	36.1581920903955	36.241610738255	12	0.400028256028891	2	5	1	NaN	1	3	0.0373219555907749	0	1	NaN	119	2	56	2	120	220	320	NaN	520	0.410419742576778	1	1	NaN	3357446.0480288	NaN	3357447.0314167	3357447.54800286
76	19	0	0	90	36.1581920903955	36.241610738255	21	0.700049448050559	2	2	3	NaN	1	4	0.0373219555907749	0	1	NaN	120	2	57	2	120	220	320	NaN	520	0.437462832313031	2	0	NaN	3357448.7649526	NaN	3357449.748346	3357450.26491297
76	19	0	0	90	36.1581920903955	36.241610738255	12	0.400028256028891	2	6	4	NaN	1	5	0.0373219555907749	0	1	NaN	121	2	58	2	120	220	320	NaN	520	0.351110570132732	1	1	NaN	3357451.5152302	NaN	3357452.4986242	3357453.01517973
76	19	0	0	90	36.1581920903955	36.241610738255	22	0.733385136052966	2	5	4	NaN	1	3	0.0373219555907749	0	1	NaN	122	2	59	2	120	220	320	NaN	520	0.372258570045233	2	0	NaN	3357454.1821572	NaN	3357455.1655458	3357455.68210573
76	19	0	0	90	36.1581920903955	36.241610738255	23	0.766720824055374	2	7	3	NaN	2	4	0.0373219555907749	0	1	NaN	123	2	60	2	120	220	320	NaN	520	0.289046870078892	1	0	NaN	3357456.8657568	NaN	3357457.8491856	3357458.36570433
76	19	0	0	90	36.1581920903955	36.241610738255	22	0.733385136052966	2	10	6	NaN	2	4	0.0373219555907749	0	1	NaN	124	2	61	2	120	220	320	NaN	520	0.240954170003533	2	1	NaN	3357459.4660143	NaN	3357460.4494047	3357460.96595873
76	19	0	0	90	36.1581920903955	36.241610738255	12	0.400028256028891	2	7	6	NaN	2	3	0.0373219555907749	0	1	NaN	125	2	62	2	120	220	320	NaN	520	0.330338169820607	1	0	NaN	3357462.0162727	NaN	3357462.9996557	3357463.51620873
76	19	0	0	90	36.1581920903955	36.241610738255	15	0.500035320036113	2	8	4	NaN	2	3	0.0373219555907749	0	1	NaN	126	2	63	2	120	220	320	NaN	520	0.272441822569817	2	1	NaN	3357464.66652	NaN	3357465.6499285	3357466.16646998
76	19	0	0	90	36.1581920903955	36.241610738255	0	0	1	1	6	NaN	1	5	0.0373219555907749	0	1	NaN	127	3	1	2	110	210	310	NaN	510	0.0104109225794673	1	1	NaN	3357487.135389	NaN	3357488.1187968	3357488.63534318
76	19	0	0	90	36.1581920903955	36.241610738255	15	0.500035320036113	2	11	2	NaN	2	5	0.0373219555907749	0	1	NaN	128	3	2	2	120	220	320	NaN	520	0.229008470196277	2	1	NaN	3357489.4856571	NaN	3357490.469015	3357490.98556893
76	19	0	0	90	36.1581920903955	36.241610738255	11	0.366692568026483	2	4	5	NaN	1	5	0.0373219555907749	0	1	NaN	129	3	3	2	120	220	320	NaN	520	0.0104368226602674	2	0	NaN	3357492.0358741	NaN	3357493.0192826	3357493.53582908
76	19	0	0	90	36.1581920903955	36.241610738255	10	0.333356880024075	2	3	3	NaN	1	4	0.0373219555907749	0	1	NaN	130	3	4	2	120	220	320	NaN	520	0.113825022242963	1	1	NaN	3357494.3527713	NaN	3357495.3361589	3357495.85272518
76	19	0	0	90	36.1581920903955	36.241610738255	23	0.766720824055374	2	2	5	NaN	1	4	0.0373219555907749	0	1	NaN	131	3	5	2	120	220	320	NaN	520	0.0170115698128939	1	1	NaN	3357496.769683	NaN	3357497.7530743	3357498.26962203
76	19	0	0	90	36.1581920903955	36.241610738255	24	0.800056512057781	2	10	1	NaN	2	4	0.0373219555907749	0	1	NaN	132	3	6	2	120	220	320	NaN	520	0.171507417224348	2	1	NaN	3357499.1031104	NaN	3357500.0866268	3357500.60317938
76	19	0	0	90	36.1581920903955	36.241610738255	25	0.833392200060189	2	12	6	NaN	2	3	0.0373219555907749	0	1	NaN	133	3	7	2	120	220	320	NaN	520	0.57580341771245	2	1	NaN	3357501.5867891	NaN	3357502.5702031	3357503.08676618
76	19	0	0	90	36.1581920903955	36.241610738255	25	0.833392200060189	2	1	5	NaN	1	5	0.0373219555907749	0	1	NaN	134	3	8	2	120	220	320	NaN	520	0.204480070155114	1	1	NaN	3357504.4704288	NaN	3357505.4538159	3357505.97038353
76	19	0	0	90	36.1581920903955	36.241610738255	15	0.500035320036113	2	1	4	NaN	1	4	0.0373219555907749	0	1	NaN	135	3	9	2	120	220	320	NaN	520	0.375522375106812	2	0	NaN	3357506.9873477	NaN	3357507.970738	3357508.48729073
76	19	0	0	90	36.1581920903955	36.241610738255	23	0.766720824055374	2	10	2	NaN	2	4	0.0373219555907749	0	1	NaN	136	3	10	2	120	220	320	NaN	520	0.283631170168519	2	1	NaN	3357509.6710467	NaN	3357510.6542419	3357511.17088453
76	19	0	0	90	36.1581920903955	36.241610738255	25	0.833392200060189	2	9	2	NaN	2	3	0.0373219555907749	0	1	NaN	137	3	11	2	120	220	320	NaN	520	0.340150122530758	1	0	NaN	3357512.2545282	NaN	3357513.2379573	3357513.75447138
76	19	0	0	90	36.1581920903955	36.241610738255	16	0.533371008038521	2	1	6	NaN	1	3	0.0373219555907749	0	1	NaN	138	3	12	2	120	220	320	NaN	520	0.3217638223432	2	0	NaN	3357514.9046697	NaN	3357515.8881783	3357516.40473818
76	19	0	0	90	36.1581920903955	36.241610738255	15	0.500035320036113	2	6	6	NaN	1	4	0.0373219555907749	0	1	NaN	139	3	13	2	120	220	320	NaN	520	0.256577670108527	2	0	NaN	3357517.5383729	NaN	3357518.5217799	3357519.03832833
76	19	0	0	90	36.1581920903955	36.241610738255	10	0.333356880024075	2	12	2	NaN	2	5	0.0373219555907749	0	1	NaN	140	3	14	2	120	220	320	NaN	520	0.337217569816858	1	0	NaN	3357520.1053018	NaN	3357521.0886917	3357521.60524203
76	19	0	0	90	36.1581920903955	36.241610738255	20	0.666713760048151	2	2	2	NaN	1	3	0.0373219555907749	0	1	NaN	141	3	15	2	120	220	320	NaN	520	0.0103993224911392	2	0	NaN	3357522.7556246	NaN	3357523.738971	3357524.25551128
76	19	0	0	90	36.1581920903955	36.241610738255	6	0.200014128014445	2	8	6	NaN	2	5	0.0373219555907749	0	1	NaN	142	3	16	2	120	220	320	NaN	520	0.562014569994062	2	1	NaN	3357525.0724531	NaN	3357526.0558381	3357526.57239993
76	19	0	0	90	36.1581920903955	36.241610738255	0	0	1	11	4	NaN	2	3	0.0373219555907749	0	1	NaN	143	3	17	2	110	210	310	NaN	510	0.0552795226685703	2	1	NaN	3357527.9393888	NaN	3357528.922801	3357529.43935348
76	19	0	0	90	36.1581920903955	36.241610738255	19	0.633378072045743	2	2	4	NaN	1	4	0.0373219555907749	0	1	NaN	144	3	18	2	120	220	320	NaN	520	0.320239569991827	2	0	NaN	3357530.3063133	NaN	3357531.2896966	3357531.80624403
76	19	0	0	90	36.1581920903955	36.241610738255	17	0.566706696040928	2	12	4	NaN	2	5	0.0373219555907749	0	1	NaN	145	3	19	2	120	220	320	NaN	520	0.487185370177031	1	0	NaN	3357532.9399072	NaN	3357533.9232494	3357534.43984123
76	19	0	0	90	36.1581920903955	36.241610738255	20	0.666713760048151	2	9	1	NaN	2	4	0.0373219555907749	0	1	NaN	146	3	20	2	120	220	320	NaN	520	0.310609274543822	2	1	NaN	3357535.740172	NaN	3357536.7235606	3357537.24011723
76	19	0	0	90	36.1581920903955	36.241610738255	6	0.200014128014445	2	5	2	NaN	1	3	0.0373219555907749	0	1	NaN	147	3	21	2	120	220	320	NaN	520	0.517586985137314	1	1	NaN	3357538.357107	NaN	3357539.3404959	3357539.85704242
76	19	0	0	90	36.1581920903955	36.241610738255	16	0.533371008038521	2	11	5	NaN	2	3	0.0373219555907749	0	1	NaN	148	3	22	2	120	220	320	NaN	520	1.17238167021424	2	1	NaN	3357541.1907147	NaN	3357542.1740938	3357542.69064863
76	19	0	0	90	36.1581920903955	36.241610738255	12	0.400028256028891	2	10	1	NaN	2	5	0.0373219555907749	0	1	NaN	149	3	23	2	120	220	320	NaN	520	0.768671422731131	2	1	NaN	3357544.6743809	NaN	3357545.6577648	3357546.17433308
76	19	0	0	90	36.1581920903955	36.241610738255	10	0.333356880024075	2	2	3	NaN	1	5	0.0373219555907749	0	1	NaN	150	3	24	2	120	220	320	NaN	520	1.78112726984546	1	1	NaN	3357547.7580291	NaN	3357548.7414077	3357549.25795853
76	19	0	0	90	36.1581920903955	36.241610738255	11	0.366692568026483	2	7	6	NaN	2	5	0.0373219555907749	0	1	NaN	151	3	25	2	120	220	320	NaN	520	0.376089670229703	2	1	NaN	3357551.8584162	NaN	3357552.8418191	3357553.35835853
76	19	0	0	90	36.1581920903955	36.241610738255	24	0.800056512057781	2	1	1	NaN	1	4	0.0373219555907749	0	1	NaN	152	3	26	2	120	220	320	NaN	520	0.572848869953305	1	1	NaN	3357554.5420217	NaN	3357555.5254084	3357556.04195583
76	19	0	0	90	36.1581920903955	36.241610738255	10	0.333356880024075	2	2	3	NaN	1	4	0.0373219555907749	0	1	NaN	153	3	27	2	120	220	320	NaN	520	0.497075770050287	2	0	NaN	3357557.4256353	NaN	3357558.4090196	3357558.92558563
76	19	0	0	90	36.1581920903955	36.241610738255	15	0.500035320036113	2	10	2	NaN	2	4	0.0373219555907749	0	1	NaN	154	3	28	2	120	220	320	NaN	520	0.497196117416024	1	0	NaN	3357560.2260211	NaN	3357561.2093043	3357561.72585838
76	19	0	0	90	36.1581920903955	36.241610738255	22	0.733385136052966	2	10	4	NaN	2	3	0.0373219555907749	0	1	NaN	155	3	29	2	120	220	320	NaN	520	0.015912922564894	2	1	NaN	3357563.0428431	NaN	3357564.0262865	3357564.54279978
76	19	0	0	90	36.1581920903955	36.241610738255	17	0.566706696040928	2	11	6	NaN	2	5	0.0373219555907749	0	1	NaN	156	3	30	2	120	220	320	NaN	520	0.458566922694445	1	0	NaN	3357565.3762988	NaN	3357566.3597973	3357566.87636248
76	19	0	0	90	36.1581920903955	36.241610738255	9	0.300021192021668	2	11	3	NaN	2	4	0.0373219555907749	0	1	NaN	157	3	31	2	120	220	320	NaN	520	0.771758822724223	1	0	NaN	3357568.1433582	NaN	3357569.1267439	3357569.64330368
76	19	0	0	90	36.1581920903955	36.241610738255	8	0.26668550401926	2	1	6	NaN	1	3	0.0373219555907749	0	1	NaN	158	3	32	2	120	220	320	NaN	520	1.77601557504386	2	0	NaN	3357571.2269869	NaN	3357572.2103803	3357572.72694243
76	19	0	0	90	36.1581920903955	36.241610738255	6	0.200014128014445	2	3	4	NaN	1	4	0.0373219555907749	0	1	NaN	159	3	33	2	120	220	320	NaN	520	3.10026452224702	2	0	NaN	3357575.3107203	NaN	3357576.2941271	3357576.81067508
76	19	0	0	90	36.1581920903955	36.241610738255	22	0.733385136052966	2	6	3	NaN	1	4	0.0373219555907749	0	1	NaN	160	3	34	2	120	220	320	NaN	520	0.352819069754332	2	0	NaN	3357580.9779296	NaN	3357581.9613652	3357582.47789653
76	19	0	0	90	36.1581920903955	36.241610738255	23	0.766720824055374	2	10	3	NaN	2	3	0.0373219555907749	0	1	NaN	161	3	35	2	120	220	320	NaN	520	0.285873970016837	1	0	NaN	3357583.6448524	NaN	3357584.6282497	3357585.14481683
76	19	0	0	90	36.1581920903955	36.241610738255	15	0.500035320036113	2	12	4	NaN	2	5	0.0373219555907749	0	1	NaN	162	3	36	2	120	220	320	NaN	520	0.397482022643089	1	0	NaN	3357586.245135	NaN	3357587.2284253	3357587.74507978
76	19	0	0	90	36.1581920903955	36.241610738255	20	0.666713760048151	2	11	3	NaN	2	3	0.0373219555907749	0	1	NaN	163	3	37	2	120	220	320	NaN	520	0.112664222717285	1	0	NaN	3357588.9620589	NaN	3357589.9454603	3357590.46201308
76	19	0	0	90	36.1581920903955	36.241610738255	8	0.26668550401926	2	2	5	NaN	1	3	0.0373219555907749	0	1	NaN	164	3	38	2	120	220	320	NaN	520	0.448117069900036	1	1	NaN	3357591.3788982	NaN	3357592.3623618	3357592.87890883
76	19	0	0	90	36.1581920903955	36.241610738255	25	0.833392200060189	2	8	4	NaN	2	4	0.0373219555907749	0	1	NaN	165	3	39	2	120	220	320	NaN	520	0.385111370123923	2	1	NaN	3357594.1459031	NaN	3357595.1292936	3357595.64587613
76	19	0	0	90	36.1581920903955	36.241610738255	22	0.733385136052966	2	9	6	NaN	2	3	0.0373219555907749	0	1	NaN	166	3	40	2	120	220	320	NaN	520	0.476577269844711	1	0	NaN	3357596.8461786	NaN	3357597.8295726	3357598.34611683
76	19	0	0	90	36.1581920903955	36.241610738255	8	0.26668550401926	2	2	4	NaN	1	4	0.0373219555907749	0	1	NaN	167	3	41	2	120	220	320	NaN	520	0.509052469860762	1	1	NaN	3357599.6297687	NaN	3357600.6131689	3357601.12972803
76	19	0	0	90	36.1581920903955	36.241610738255	10	0.333356880024075	2	1	2	NaN	1	3	0.0373219555907749	0	1	NaN	168	3	42	2	120	220	320	NaN	520	0.755939969792962	2	0	NaN	3357602.4467196	NaN	3357603.4301074	3357603.94666943
76	19	0	0	90	36.1581920903955	36.241610738255	19	0.633378072045743	2	4	4	NaN	1	5	0.0373219555907749	0	1	NaN	169	3	43	2	120	220	320	NaN	520	0.745033122599125	2	0	NaN	3357605.5136962	NaN	3357606.4970215	3357607.01363308
76	19	0	0	90	36.1581920903955	36.241610738255	21	0.700049448050559	2	8	6	NaN	2	4	0.0373219555907749	0	1	NaN	170	3	44	2	120	220	320	NaN	520	0.413915670011193	2	1	NaN	3357610.1808157	NaN	3357611.1642492	3357611.68076223
76	19	0	0	90	36.1581920903955	36.241610738255	19	0.633378072045743	2	5	3	NaN	1	3	0.0373219555907749	0	1	NaN	171	3	45	2	120	220	320	NaN	520	0.424875669647008	1	1	NaN	3357613.2977716	NaN	3357614.2811648	3357614.79773653
76	19	0	0	90	36.1581920903955	36.241610738255	18	0.600042384043336	2	4	3	NaN	1	3	0.0373219555907749	0	1	NaN	172	3	46	2	120	220	320	NaN	520	0.619793190155178	1	1	NaN	3357616.0313935	NaN	3357617.0147971	3357617.53134231
76	19	0	0	90	36.1581920903955	36.241610738255	19	0.633378072045743	2	7	5	NaN	2	3	0.0373219555907749	0	1	NaN	173	3	47	2	120	220	320	NaN	520	0.390198369976133	2	1	NaN	3357618.9650035	NaN	3357619.9483955	3357620.46499023
76	19	0	0	90	36.1581920903955	36.241610738255	21	0.700049448050559	2	9	6	NaN	2	3	0.0373219555907749	0	1	NaN	174	3	48	2	120	220	320	NaN	520	0.221998970024288	2	1	NaN	3357621.9486371	NaN	3357622.9320453	3357623.44857733
76	19	0	0	90	36.1581920903955	36.241610738255	11	0.366692568026483	2	1	3	NaN	1	4	0.0373219555907749	0	1	NaN	175	3	49	2	120	220	320	NaN	520	0.248630570247769	1	1	NaN	3357624.4822292	NaN	3357625.4656284	3357625.98215923
76	19	0	0	90	36.1581920903955	36.241610738255	9	0.300021192021668	2	12	2	NaN	2	4	0.0373219555907749	0	1	NaN	176	3	50	2	120	220	320	NaN	520	0.0104102697223425	2	1	NaN	3357627.0491628	NaN	3357628.0325259	3357628.54908043
76	19	0	0	90	36.1581920903955	36.241610738255	9	0.300021192021668	2	11	1	NaN	2	4	0.0373219555907749	0	1	NaN	177	3	51	2	120	220	320	NaN	520	0.852108970284462	2	1	NaN	3357629.3826971	NaN	3357630.3660917	3357630.88264483
76	19	0	0	90	36.1581920903955	36.241610738255	9	0.300021192021668	2	4	3	NaN	1	3	0.0373219555907749	0	1	NaN	178	3	52	2	120	220	320	NaN	520	1.50128286983818	2	0	NaN	3357632.5496666	NaN	3357633.5330667	3357634.04961623
76	19	0	0	90	36.1581920903955	36.241610738255	13	0.433363944031298	2	5	5	NaN	1	4	0.0373219555907749	0	1	NaN	179	3	53	2	120	220	320	NaN	520	0.388026122469455	2	0	NaN	3357636.3667343	NaN	3357637.3501202	3357637.86666978
76	19	0	0	90	36.1581920903955	36.241610738255	17	0.566706696040928	2	10	2	NaN	2	4	0.0373219555907749	0	1	NaN	180	3	54	2	120	220	320	NaN	520	0.382051469758153	1	0	NaN	3357639.117006	NaN	3357640.1003765	3357640.61693513
76	19	0	0	90	36.1581920903955	36.241610738255	16	0.533371008038521	2	6	6	NaN	1	3	0.0373219555907749	0	1	NaN	181	3	55	2	120	220	320	NaN	520	0.303509422577918	2	0	NaN	3357642.0672528	NaN	3357643.0506726	3357643.56722998
76	19	0	0	90	36.1581920903955	36.241610738255	21	0.700049448050559	2	5	1	NaN	1	4	0.0373219555907749	0	1	NaN	182	3	56	2	120	220	320	NaN	520	0.278619169723243	1	1	NaN	3357644.6841421	NaN	3357645.667606	3357646.18414663
76	19	0	0	90	36.1581920903955	36.241610738255	7	0.233349816016853	2	11	6	NaN	2	4	0.0373219555907749	0	1	NaN	183	3	57	2	120	220	320	NaN	520	0.286472470033914	2	1	NaN	3357647.2844569	NaN	3357648.2678981	3357648.78439913
76	19	0	0	90	36.1581920903955	36.241610738255	22	0.733385136052966	2	12	4	NaN	2	4	0.0373219555907749	0	1	NaN	184	3	58	2	120	220	320	NaN	520	0.278136769775301	1	0	NaN	3357649.8847414	NaN	3357650.8681031	3357651.38465353
76	19	0	0	90	36.1581920903955	36.241610738255	20	0.666713760048151	2	12	1	NaN	2	5	0.0373219555907749	0	1	NaN	185	3	59	2	120	220	320	NaN	520	0.382490822579712	1	0	NaN	3357652.4681965	NaN	3357653.4517042	3357653.96824968
76	19	0	0	90	36.1581920903955	36.241610738255	14	0.466699632033706	2	3	6	NaN	1	4	0.0373219555907749	0	1	NaN	186	3	60	2	120	220	320	NaN	520	0.010372974909842	2	0	NaN	3357655.1685524	NaN	3357656.1519534	3357656.66851393
76	19	0	0	90	36.1581920903955	36.241610738255	24	0.800056512057781	2	5	6	NaN	1	5	0.0373219555907749	0	1	NaN	187	3	61	2	120	220	320	NaN	520	0.373188022524118	2	0	NaN	3357657.5021297	NaN	3357658.4855221	3357659.00207708
76	19	0	0	90	36.1581920903955	36.241610738255	6	0.200014128014445	2	6	2	NaN	1	4	0.0373219555907749	0	1	NaN	188	3	62	2	120	220	320	NaN	520	0.369243569672108	1	1	NaN	3357660.1857326	NaN	3357661.1691191	3357661.68566793
76	19	0	0	90	36.1581920903955	36.241610738255	16	0.533371008038521	2	2	5	NaN	1	3	0.0373219555907749	0	1	NaN	189	3	63	2	120	220	320	NaN	520	0.0103034372441471	2	0	NaN	3357662.8693223	NaN	3357663.8527219	3357664.36927376
76	19	0	0	90	36.1581920903955	36.241610738255	17	0.566706696040928	2	9	3	NaN	2	5	0.0373219555907749	0	1	NaN	190	4	1	2	120	220	320	NaN	520	0.0104071223177016	1	0	NaN	3357667.3197655	NaN	3357668.3031472	3357668.81970598
76	19	0	0	90	36.1581920903955	36.241610738255	12	0.400028256028891	2	11	2	NaN	2	5	0.0373219555907749	0	1	NaN	191	4	2	2	120	220	320	NaN	520	0.0104051702655852	2	1	NaN	3357669.6366571	NaN	3357670.6200441	3357671.13659623
76	19	0	0	90	36.1581920903955	36.241610738255	8	0.26668550401926	2	5	5	NaN	1	5	0.0373219555907749	0	1	NaN	192	4	3	2	120	220	320	NaN	520	0.0104341227561235	1	1	NaN	3357671.9702098	NaN	3357672.9536054	3357673.47016418
76	19	0	0	90	36.1581920903955	36.241610738255	25	0.833392200060189	2	4	4	NaN	1	3	0.0373219555907749	0	1	NaN	193	4	4	2	120	220	320	NaN	520	1.42784147011116	2	0	NaN	3357674.2871235	NaN	3357675.2704882	3357675.78705303
76	19	0	0	90	36.1581920903955	36.241610738255	14	0.466699632033706	2	2	1	NaN	1	3	0.0373219555907749	0	1	NaN	194	4	5	2	120	220	320	NaN	520	0.589948670007288	2	0	NaN	3357678.0207058	NaN	3357679.0042395	3357679.52075153
76	19	0	0	90	36.1581920903955	36.241610738255	17	0.566706696040928	2	6	4	NaN	1	5	0.0373219555907749	0	1	NaN	195	4	6	2	120	220	320	NaN	520	1.10611947020516	2	0	NaN	3357680.921105	NaN	3357681.9044988	3357682.42103823
76	19	0	0	90	36.1581920903955	36.241610738255	23	0.766720824055374	2	8	3	NaN	2	5	0.0373219555907749	0	1	NaN	196	4	7	2	120	220	320	NaN	520	0.296998269855976	1	0	NaN	3357684.3381798	NaN	3357685.3214986	3357685.83804953
76	19	0	0	90	36.1581920903955	36.241610738255	12	0.400028256028891	2	4	1	NaN	1	3	0.0373219555907749	0	1	NaN	197	4	8	2	120	220	320	NaN	520	0.0804985701106489	2	0	NaN	3357686.9383637	NaN	3357687.9217419	3357688.43829493
76	19	0	0	90	36.1581920903955	36.241610738255	9	0.300021192021668	2	3	4	NaN	1	5	0.0373219555907749	0	1	NaN	198	4	9	2	120	220	320	NaN	520	0.288768422789872	2	0	NaN	3357689.3385844	NaN	3357690.3219812	3357690.83854128
76	19	0	0	90	36.1581920903955	36.241610738255	23	0.766720824055374	2	12	6	NaN	2	5	0.0373219555907749	0	1	NaN	199	4	10	2	120	220	320	NaN	520	0.232043037191033	2	1	NaN	3357691.9387253	NaN	3357692.9222604	3357693.43879746
76	19	0	0	90	36.1581920903955	36.241610738255	15	0.500035320036113	2	5	1	NaN	1	5	0.0373219555907749	0	1	NaN	200	4	11	2	120	220	320	NaN	520	0.378172770142555	1	1	NaN	3357694.4889892	NaN	3357695.4725755	3357695.98904133
76	19	0	0	90	36.1581920903955	36.241610738255	18	0.600042384043336	2	11	1	NaN	2	4	0.0373219555907749	0	1	NaN	201	4	12	2	120	220	320	NaN	520	0.20659736962989	2	1	NaN	3357697.1726862	NaN	3357698.1560803	3357698.67263323
76	19	0	0	90	36.1581920903955	36.241610738255	21	0.700049448050559	2	4	3	NaN	1	3	0.0373219555907749	0	1	NaN	202	4	13	2	120	220	320	NaN	520	0.345327970106155	1	1	NaN	3357699.6895935	NaN	3357700.6730217	3357701.18954593
76	19	0	0	90	36.1581920903955	36.241610738255	25	0.833392200060189	2	7	1	NaN	2	3	0.0373219555907749	0	1	NaN	203	4	14	2	120	220	320	NaN	520	0.318990617059171	2	1	NaN	3357702.3398752	NaN	3357703.3232583	3357703.83980658
76	19	0	0	90	36.1581920903955	36.241610738255	23	0.766720824055374	2	6	1	NaN	1	5	0.0373219555907749	0	1	NaN	204	4	15	2	120	220	320	NaN	520	0.0935668647289276	1	1	NaN	3357704.9734463	NaN	3357705.9568531	3357706.47339674
76	19	0	0	90	36.1581920903955	36.241610738255	13	0.433363944031298	2	1	1	NaN	1	4	0.0373219555907749	0	1	NaN	205	4	16	2	120	220	320	NaN	520	3.16506692720577	1	1	NaN	3357707.3735936	NaN	3357708.3571149	3357708.87363777
76	19	0	0	90	36.1581920903955	36.241610738255	21	0.700049448050559	2	8	4	NaN	2	5	0.0373219555907749	0	1	NaN	206	4	17	2	120	220	320	NaN	520	0.0104041225276887	2	1	NaN	3357712.8575677	NaN	3357713.8410076	3357714.35751588
76	19	0	0	90	36.1581920903955	36.241610738255	23	0.766720824055374	2	3	6	NaN	1	3	0.0373219555907749	0	1	NaN	207	4	18	2	120	220	320	NaN	520	0.0103901228867471	2	0	NaN	3357715.1743288	NaN	3357716.1578519	3357716.67440128
76	19	0	0	90	36.1581920903955	36.241610738255	12	0.400028256028891	2	3	6	NaN	1	4	0.0373219555907749	0	1	NaN	208	4	19	2	120	220	320	NaN	520	0.287464580032974	2	0	NaN	3357717.4913013	NaN	3357718.4747453	3357718.99129572
76	19	0	0	90	36.1581920903955	36.241610738255	18	0.600042384043336	2	3	3	NaN	1	5	0.0373219555907749	0	1	NaN	209	4	20	2	120	220	320	NaN	520	0.295237174723297	1	1	NaN	3357720.0914948	NaN	3357721.0750144	3357721.59156073
76	19	0	0	90	36.1581920903955	36.241610738255	7	0.233349816016853	2	2	3	NaN	1	5	0.0373219555907749	0	1	NaN	210	4	21	2	120	220	320	NaN	520	0.334942374378443	2	0	NaN	3357722.6918598	NaN	3357723.6751808	3357724.19180813
76	19	0	0	90	36.1581920903955	36.241610738255	14	0.466699632033706	2	5	2	NaN	1	5	0.0373219555907749	0	1	NaN	211	4	22	2	120	220	320	NaN	520	0.221198617480695	1	1	NaN	3357725.3421141	NaN	3357726.3255125	3357726.84206878
76	19	0	0	90	36.1581920903955	36.241610738255	9	0.300021192021668	2	5	6	NaN	1	3	0.0373219555907749	0	1	NaN	212	4	23	2	120	220	320	NaN	520	0.471246722619981	1	1	NaN	3357727.8757902	NaN	3357728.8590997	3357729.37565628
76	19	0	0	90	36.1581920903955	36.241610738255	12	0.400028256028891	2	7	1	NaN	2	4	0.0373219555907749	0	1	NaN	213	4	24	2	120	220	320	NaN	520	0.738128869794309	1	0	NaN	3357730.8093194	NaN	3357731.7927086	3357732.30927813
76	19	0	0	90	36.1581920903955	36.241610738255	10	0.333356880024075	2	12	5	NaN	2	4	0.0373219555907749	0	1	NaN	214	4	25	2	120	220	320	NaN	520	0.0104096699506044	2	1	NaN	3357733.859631	NaN	3357734.8430248	3357735.35957013
76	19	0	0	90	36.1581920903955	36.241610738255	13	0.433363944031298	2	7	6	NaN	2	5	0.0373219555907749	0	1	NaN	215	4	26	2	120	220	320	NaN	520	0.506552222650498	2	1	NaN	3357736.1765211	NaN	3357737.1598729	3357737.67646778
76	19	0	0	90	36.1581920903955	36.241610738255	14	0.466699632033706	2	7	4	NaN	2	3	0.0373219555907749	0	1	NaN	216	4	27	2	120	220	320	NaN	520	0.233466169796884	1	0	NaN	3357738.993495	NaN	3357739.9768396	3357740.49340693
76	19	0	0	90	36.1581920903955	36.241610738255	11	0.366692568026483	2	10	6	NaN	2	3	0.0373219555907749	0	1	NaN	217	4	28	2	120	220	320	NaN	520	0.259360022842884	1	0	NaN	3357741.543707	NaN	3357742.5271073	3357743.04366518
76	19	0	0	90	36.1581920903955	36.241610738255	11	0.366692568026483	2	6	6	NaN	1	3	0.0373219555907749	0	1	NaN	218	4	29	2	120	220	320	NaN	520	0.308793270029128	2	0	NaN	3357744.1106367	NaN	3357745.0940232	3357745.61057893
76	19	0	0	90	36.1581920903955	36.241610738255	0	0	1	5	5	NaN	1	3	0.0373219555907749	0	1	NaN	219	4	30	2	110	210	310	NaN	510	2.9076645700261	2	0	NaN	3357746.72756	NaN	3357747.7109558	3357748.22749963
76	19	0	0	90	36.1581920903955	36.241610738255	17	0.566706696040928	2	4	3	NaN	1	3	0.0373219555907749	0	1	NaN	220	4	31	2	120	220	320	NaN	520	0.394070222508162	2	0	NaN	3357751.9447253	NaN	3357752.9281422	3357753.44468638
76	19	0	0	90	36.1581920903955	36.241610738255	8	0.26668550401926	2	11	4	NaN	2	4	0.0373219555907749	0	1	NaN	221	4	32	2	120	220	320	NaN	520	0.413984022568911	1	0	NaN	3357754.6450065	NaN	3357755.6283836	3357756.14494528
76	19	0	0	90	36.1581920903955	36.241610738255	8	0.26668550401926	2	3	5	NaN	1	4	0.0373219555907749	0	1	NaN	222	4	33	2	120	220	320	NaN	520	0.272177170030773	2	0	NaN	3357757.378604	NaN	3357758.3619986	3357758.87854843
76	19	0	0	90	36.1581920903955	36.241610738255	6	0.200014128014445	2	2	3	NaN	1	5	0.0373219555907749	0	1	NaN	223	4	34	2	120	220	320	NaN	520	0.377166769932956	2	0	NaN	3357759.9621929	NaN	3357760.9455815	3357761.46213503
76	19	0	0	90	36.1581920903955	36.241610738255	0	0	1	1	1	NaN	1	3	0.0373219555907749	0	1	NaN	224	4	35	2	110	210	310	NaN	510	0.100586522370577	2	0	NaN	3357762.662444	NaN	3357763.645863	3357764.16240528
76	19	0	0	90	36.1581920903955	36.241610738255	8	0.26668550401926	2	8	2	NaN	2	3	0.0373219555907749	0	1	NaN	225	4	36	2	120	220	320	NaN	520	0.316724069882184	1	0	NaN	3357765.0625678	NaN	3357766.0460821	3357766.56263293
76	19	0	0	90	36.1581920903955	36.241610738255	9	0.300021192021668	2	6	5	NaN	1	4	0.0373219555907749	0	1	NaN	226	4	37	2	120	220	320	NaN	520	0.0588106224313378	2	0	NaN	3357767.6962689	NaN	3357768.6796939	3357769.19623398
76	19	0	0	90	36.1581920903955	36.241610738255	17	0.566706696040928	2	2	6	NaN	1	3	0.0373219555907749	0	1	NaN	227	4	38	2	120	220	320	NaN	520	0.0104032224044204	2	0	NaN	3357770.0630359	NaN	3357771.0465691	3357771.56313338
76	19	0	0	90	36.1581920903955	36.241610738255	8	0.26668550401926	2	8	1	NaN	2	5	0.0373219555907749	0	1	NaN	228	4	39	2	120	220	320	NaN	520	0.263107922393829	1	0	NaN	3357772.3799654	NaN	3357773.3634854	3357773.88002818
76	19	0	0	90	36.1581920903955	36.241610738255	6	0.200014128014445	2	12	6	NaN	2	5	0.0373219555907749	0	1	NaN	229	4	40	2	120	220	320	NaN	520	0.935238332487643	2	1	NaN	3357774.9636975	NaN	3357775.9470592	3357776.46361277
76	19	0	0	90	36.1581920903955	36.241610738255	18	0.600042384043336	2	9	6	NaN	2	5	0.0373219555907749	0	1	NaN	230	4	41	2	120	220	320	NaN	520	0.429265422746539	2	1	NaN	3357778.2139896	NaN	3357779.1975931	3357779.71393998
76	19	0	0	90	36.1581920903955	36.241610738255	23	0.766720824055374	2	6	5	NaN	1	4	0.0373219555907749	0	1	NaN	231	4	42	2	120	220	320	NaN	520	1.13466796465218	2	0	NaN	3357780.9641257	NaN	3357781.9476589	3357782.46419544
76	19	0	0	90	36.1581920903955	36.241610738255	6	0.200014128014445	2	5	3	NaN	1	3	0.0373219555907749	0	1	NaN	232	4	43	2	120	220	320	NaN	520	0.010395722463727	2	0	NaN	3357784.4145862	NaN	3357785.3980072	3357785.91453808
76	19	0	0	90	36.1581920903955	36.241610738255	6	0.200014128014445	2	9	4	NaN	2	4	0.0373219555907749	0	1	NaN	233	4	44	2	120	220	320	NaN	520	0.310758117120713	1	0	NaN	3357786.7481524	NaN	3357787.7315582	3357788.24810628
76	19	0	0	90	36.1581920903955	36.241610738255	8	0.26668550401926	2	1	5	NaN	1	4	0.0373219555907749	0	1	NaN	234	4	45	2	120	220	320	NaN	520	0.14201192278415	2	0	NaN	3357789.3650791	NaN	3357790.3485131	3357790.86502768
76	19	0	0	90	36.1581920903955	36.241610738255	25	0.833392200060189	2	8	1	NaN	2	5	0.0373219555907749	0	1	NaN	235	4	46	2	120	220	320	NaN	520	0.531839780043811	1	0	NaN	3357791.815249	NaN	3357792.7986954	3357793.31526402
76	19	0	0	90	36.1581920903955	36.241610738255	25	0.833392200060189	2	3	4	NaN	1	5	0.0373219555907749	0	1	NaN	236	4	47	2	120	220	320	NaN	520	0.0102695426903665	2	0	NaN	3357794.6656086	NaN	3357795.6490029	3357796.16555276
76	19	0	0	90	36.1581920903955	36.241610738255	25	0.833392200060189	2	4	2	NaN	1	4	0.0373219555907749	0	1	NaN	237	4	48	2	120	220	320	NaN	520	0.348966417368501	2	0	NaN	3357796.9825497	NaN	3357797.9659546	3357798.48244528
76	19	0	0	90	36.1581920903955	36.241610738255	18	0.600042384043336	2	2	4	NaN	1	4	0.0373219555907749	0	1	NaN	238	4	49	2	120	220	320	NaN	520	0.345644627232105	1	1	NaN	3357799.6494265	NaN	3357800.6328254	3357801.14936597
76	19	0	0	90	36.1581920903955	36.241610738255	12	0.400028256028891	2	12	4	NaN	2	3	0.0373219555907749	0	1	NaN	239	4	50	2	120	220	320	NaN	520	0.382718870416284	2	1	NaN	3357802.3163332	NaN	3357803.2997449	3357803.81629083
76	19	0	0	90	36.1581920903955	36.241610738255	20	0.666713760048151	2	3	6	NaN	1	5	0.0373219555907749	0	1	NaN	240	4	51	2	120	220	320	NaN	520	0.626424222253263	1	1	NaN	3357805.0166374	NaN	3357806.0000176	3357806.51656518
76	19	0	0	90	36.1581920903955	36.241610738255	16	0.533371008038521	2	9	6	NaN	2	5	0.0373219555907749	0	1	NaN	241	4	52	2	120	220	320	NaN	520	0.525190669577569	2	1	NaN	3357807.9501139	NaN	3357808.9336663	3357809.45018543
76	19	0	0	90	36.1581920903955	36.241610738255	13	0.433363944031298	2	2	5	NaN	1	5	0.0373219555907749	0	1	NaN	242	4	53	2	120	220	320	NaN	520	0.354540069587529	1	1	NaN	3357810.8005179	NaN	3357811.7838985	3357812.30045673
76	19	0	0	90	36.1581920903955	36.241610738255	9	0.300021192021668	2	9	1	NaN	2	3	0.0373219555907749	0	1	NaN	243	4	54	2	120	220	320	NaN	520	0.010408469941467	2	1	NaN	3357813.4673232	NaN	3357814.4508342	3357814.96739623
76	19	0	0	90	36.1581920903955	36.241610738255	22	0.733385136052966	2	11	4	NaN	2	4	0.0373219555907749	0	1	NaN	244	4	55	2	120	220	320	NaN	520	0.394874222576618	2	1	NaN	3357815.7843321	NaN	3357816.7677294	3357817.28429418
76	19	0	0	90	36.1581920903955	36.241610738255	8	0.26668550401926	2	6	6	NaN	1	5	0.0373219555907749	0	1	NaN	245	4	56	2	120	220	320	NaN	520	0.0104057700373232	1	1	NaN	3357818.4846948	NaN	3357819.467995	3357819.98454673
76	19	0	0	90	36.1581920903955	36.241610738255	21	0.700049448050559	2	7	6	NaN	2	3	0.0373219555907749	0	1	NaN	246	4	57	2	120	220	320	NaN	520	1.85727681731805	2	1	NaN	3357820.8181813	NaN	3357821.801556	3357822.31812018
76	19	0	0	90	36.1581920903955	36.241610738255	17	0.566706696040928	2	9	4	NaN	2	3	0.0373219555907749	0	1	NaN	247	4	58	2	120	220	320	NaN	520	0.498284870292991	2	1	NaN	3357824.9852714	NaN	3357825.9686353	3357826.48519133
76	19	0	0	90	36.1581920903955	36.241610738255	7	0.233349816016853	2	2	2	NaN	1	5	0.0373219555907749	0	1	NaN	248	4	59	2	120	220	320	NaN	520	15.0338834226131	2	0	NaN	3357827.7855951	NaN	3357828.7689038	3357829.28547318
76	19	0	0	90	36.1581920903955	36.241610738255	25	0.833392200060189	2	1	2	NaN	1	4	0.0373219555907749	0	1	NaN	249	4	60	2	120	220	320	NaN	520	0.010306537616998	1	1	NaN	3357845.1372592	NaN	3357846.1206142	3357846.63717926
76	19	0	0	90	36.1581920903955	36.241610738255	24	0.800056512057781	2	12	2	NaN	2	5	0.0373219555907749	0	1	NaN	250	4	61	2	120	220	320	NaN	520	0.605334870051593	1	0	NaN	3357847.454111	NaN	3357848.4375015	3357848.95405643
76	19	0	0	90	36.1581920903955	36.241610738255	13	0.433363944031298	2	2	3	NaN	1	3	0.0373219555907749	0	1	NaN	251	4	62	2	120	220	320	NaN	520	0.0104255173355341	2	0	NaN	3357850.3710827	NaN	3357851.3544591	3357851.87101978
76	19	0	0	90	36.1581920903955	36.241610738255	0	0	1	10	2	NaN	2	5	0.0373219555907749	0	1	NaN	252	4	63	2	110	210	310	NaN	510	0.507033522706479	2	1	NaN	3357852.6879296	NaN	3357853.6713754	3357854.18790918
76	19	0	0	90	36.1581920903955	36.241610738255	22	0.733385136052966	2	6	1	NaN	1	5	0.0373219555907749	0	1	NaN	253	5	1	2	120	220	320	NaN	520	0.393137522507459	2	0	NaN	3357867.3060375	NaN	3357868.2894683	3357868.80601788
76	19	0	0	90	36.1581920903955	36.241610738255	20	0.666713760048151	2	6	3	NaN	1	3	0.0373219555907749	0	1	NaN	254	5	2	2	120	220	320	NaN	520	0.0104394648224115	1	1	NaN	3357870.0063421	NaN	3357870.9897526	3357871.50627204
76	19	0	0	90	36.1581920903955	36.241610738255	19	0.633378072045743	2	9	5	NaN	2	3	0.0373219555907749	0	1	NaN	255	5	3	2	120	220	320	NaN	520	0.640129169914871	2	1	NaN	3357872.3230923	NaN	3357873.3066387	3357873.82316613
76	19	0	0	90	36.1581920903955	36.241610738255	25	0.833392200060189	2	11	4	NaN	2	3	0.0373219555907749	0	1	NaN	256	5	4	2	120	220	320	NaN	520	1.28161622304469	1	0	NaN	3357875.2735239	NaN	3357876.2569081	3357876.77346848
76	19	0	0	90	36.1581920903955	36.241610738255	22	0.733385136052966	2	7	2	NaN	2	3	0.0373219555907749	0	1	NaN	257	5	5	2	120	220	320	NaN	520	0.393231022637337	2	1	NaN	3357878.8738715	NaN	3357879.8571478	3357880.37381818
76	19	0	0	90	36.1581920903955	36.241610738255	16	0.533371008038521	2	5	6	NaN	1	4	0.0373219555907749	0	1	NaN	258	5	6	2	120	220	320	NaN	520	0.429093464743346	1	1	NaN	3357881.5741435	NaN	3357882.5575193	3357883.07407804
76	19	0	0	90	36.1581920903955	36.241610738255	21	0.700049448050559	2	12	5	NaN	2	5	0.0373219555907749	0	1	NaN	259	5	7	2	120	220	320	NaN	520	0.190687422640622	2	1	NaN	3357884.3244179	NaN	3357885.3078121	3357885.82435728
76	19	0	0	90	36.1581920903955	36.241610738255	0	0	1	6	2	NaN	1	5	0.0373219555907749	0	1	NaN	260	5	8	2	110	210	310	NaN	510	0.226462284568697	1	1	NaN	3357886.8246443	NaN	3357887.8080384	3357888.32460452
76	19	0	0	90	36.1581920903955	36.241610738255	25	0.833392200060189	2	2	6	NaN	1	3	0.0373219555907749	0	1	NaN	261	5	9	2	120	220	320	NaN	520	1.21234326995909	2	0	NaN	3357889.3749171	NaN	3357890.3582865	3357890.87485133
76	19	0	0	90	36.1581920903955	36.241610738255	9	0.300021192021668	2	8	1	NaN	2	3	0.0373219555907749	0	1	NaN	262	5	10	2	120	220	320	NaN	520	0.286231469828635	1	0	NaN	3357892.9251347	NaN	3357893.9086495	3357894.42519633
76	19	0	0	90	36.1581920903955	36.241610738255	0	0	1	6	2	NaN	1	4	0.0373219555907749	0	1	NaN	263	5	11	2	110	210	310	NaN	510	0.25395431695506	1	1	NaN	3357895.5255038	NaN	3357896.5088842	3357897.02545158
76	19	0	0	90	36.1581920903955	36.241610738255	16	0.533371008038521	2	7	3	NaN	2	5	0.0373219555907749	0	1	NaN	264	5	12	2	120	220	320	NaN	520	0.0147989699617028	2	1	NaN	3357898.0924235	NaN	3357899.075819	3357899.59237163
76	19	0	0	90	36.1581920903955	36.241610738255	19	0.633378072045743	2	3	6	NaN	1	4	0.0373219555907749	0	1	NaN	265	5	13	2	120	220	320	NaN	520	0.0103979227133095	1	1	NaN	3357900.4259838	NaN	3357901.4093992	3357901.92593858
76	19	0	0	90	36.1581920903955	36.241610738255	20	0.666713760048151	2	4	4	NaN	1	4	0.0373219555907749	0	1	NaN	266	5	14	2	120	220	320	NaN	520	0.0104094701819122	1	1	NaN	3357902.7429911	NaN	3357903.7262759	3357904.24284443
76	19	0	0	90	36.1581920903955	36.241610738255	17	0.566706696040928	2	6	3	NaN	1	4	0.0373219555907749	0	1	NaN	267	5	15	2	120	220	320	NaN	520	0.33561082277447	1	1	NaN	3357905.0596448	NaN	3357906.0432004	3357906.55972658
76	19	0	0	90	36.1581920903955	36.241610738255	24	0.800056512057781	2	8	4	NaN	2	4	0.0373219555907749	0	1	NaN	268	5	16	2	120	220	320	NaN	520	0.010445564519614	2	1	NaN	3357907.710039	NaN	3357908.6934262	3357909.20997974
76	19	0	0	90	36.1581920903955	36.241610738255	7	0.233349816016853	2	12	5	NaN	2	5	0.0373219555907749	0	1	NaN	269	5	17	2	120	220	320	NaN	520	0.319921722635627	2	1	NaN	3357910.0434796	NaN	3357911.0269968	3357911.54354428
76	19	0	0	90	36.1581920903955	36.241610738255	21	0.700049448050559	2	6	3	NaN	1	5	0.0373219555907749	0	1	NaN	270	5	18	2	120	220	320	NaN	520	0.269820370245725	1	1	NaN	3357912.6771877	NaN	3357913.6605783	3357914.17713353
76	19	0	0	90	36.1581920903955	36.241610738255	8	0.26668550401926	2	9	6	NaN	2	4	0.0373219555907749	0	1	NaN	271	5	19	2	120	220	320	NaN	520	0.246802522800863	2	1	NaN	3357915.2606485	NaN	3357916.2441746	3357916.76072558
76	19	0	0	90	36.1581920903955	36.241610738255	16	0.533371008038521	2	12	3	NaN	2	3	0.0373219555907749	0	1	NaN	272	5	20	2	120	220	320	NaN	520	0.0235683224163949	1	0	NaN	3357917.8276919	NaN	3357918.8110852	3357919.32764648
76	19	0	0	90	36.1581920903955	36.241610738255	18	0.600042384043336	2	10	3	NaN	2	5	0.0373219555907749	0	1	NaN	273	5	21	2	120	220	320	NaN	520	0.122306022793055	2	1	NaN	3357920.1612582	NaN	3357921.1446707	3357921.66120968
76	19	0	0	90	36.1581920903955	36.241610738255	6	0.200014128014445	2	4	2	NaN	1	4	0.0373219555907749	0	1	NaN	274	5	22	2	120	220	320	NaN	520	0.232770669739693	1	1	NaN	3357922.5948429	NaN	3357923.578228	3357924.09477243
76	19	0	0	90	36.1581920903955	36.241610738255	23	0.766720824055374	2	11	4	NaN	2	4	0.0373219555907749	0	1	NaN	275	5	23	2	120	220	320	NaN	520	0.0104094701819122	2	1	NaN	3357925.1450671	NaN	3357926.1284586	3357926.64502473
76	19	0	0	90	36.1581920903955	36.241610738255	12	0.400028256028891	2	2	1	NaN	1	3	0.0373219555907749	0	1	NaN	276	5	24	2	120	220	320	NaN	520	0.261706470046192	1	1	NaN	3357927.461984	NaN	3357928.445426	3357928.96192713
76	19	0	0	90	36.1581920903955	36.241610738255	6	0.200014128014445	2	9	3	NaN	2	4	0.0373219555907749	0	1	NaN	277	5	25	2	120	220	320	NaN	520	0.181671522557735	2	1	NaN	3357930.0455887	NaN	3357931.0289743	3357931.54550908
76	19	0	0	90	36.1581920903955	36.241610738255	21	0.700049448050559	2	11	3	NaN	2	5	0.0373219555907749	0	1	NaN	278	5	26	2	120	220	320	NaN	520	0.257769069634378	1	0	NaN	3357932.5458035	NaN	3357933.5292032	3357934.04575863
76	19	0	0	90	36.1581920903955	36.241610738255	6	0.200014128014445	2	4	5	NaN	1	4	0.0373219555907749	0	1	NaN	279	5	27	2	120	220	320	NaN	520	0.206721222493798	1	1	NaN	3357935.4126532	NaN	3357936.3961699	3357936.91271118
76	19	0	0	90	36.1581920903955	36.241610738255	11	0.366692568026483	2	9	3	NaN	2	3	0.0373219555907749	0	1	NaN	280	5	28	2	120	220	320	NaN	520	0.257461369968951	1	0	NaN	3357937.9296614	NaN	3357938.9130695	3357939.42961893
76	19	0	0	90	36.1581920903955	36.241610738255	23	0.766720824055374	2	1	5	NaN	1	4	0.0373219555907749	0	1	NaN	281	5	29	2	120	220	320	NaN	520	0.314481122884899	2	0	NaN	3357940.4964768	NaN	3357941.4799769	3357941.99654338
76	19	0	0	90	36.1581920903955	36.241610738255	7	0.233349816016853	2	6	2	NaN	1	4	0.0373219555907749	0	1	NaN	282	5	30	2	120	220	320	NaN	520	1.34542672242969	1	1	NaN	3357943.1301812	NaN	3357944.1135879	3357944.63012238
76	19	0	0	90	36.1581920903955	36.241610738255	16	0.533371008038521	2	10	5	NaN	2	4	0.0373219555907749	0	1	NaN	283	5	31	2	120	220	320	NaN	520	0.502488569822162	1	0	NaN	3357946.7972136	NaN	3357947.7806161	3357948.29715513
76	19	0	0	90	36.1581920903955	36.241610738255	11	0.366692568026483	2	12	1	NaN	2	5	0.0373219555907749	0	1	NaN	284	5	32	2	120	220	320	NaN	520	0.3171456172131	2	1	NaN	3357949.6141671	NaN	3357950.5975406	3357951.11409098
76	19	0	0	90	36.1581920903955	36.241610738255	9	0.300021192021668	2	4	6	NaN	1	3	0.0373219555907749	0	1	NaN	285	5	33	2	120	220	320	NaN	520	0.355373870115727	1	1	NaN	3357952.2477575	NaN	3357953.2311413	3357953.74769483
76	19	0	0	90	36.1581920903955	36.241610738255	11	0.366692568026483	2	12	2	NaN	2	5	0.0373219555907749	0	1	NaN	286	5	34	2	120	220	320	NaN	520	0.0104420646093786	1	0	NaN	3357954.9147041	NaN	3357955.89807	3357956.41461444
76	19	0	0	90	36.1581920903955	36.241610738255	8	0.26668550401926	2	5	1	NaN	1	4	0.0373219555907749	0	1	NaN	287	5	35	2	120	220	320	NaN	520	0.0996527699753642	1	1	NaN	3357957.2314421	NaN	3357958.2149672	3357958.73151023
76	19	0	0	90	36.1581920903955	36.241610738255	9	0.300021192021668	2	1	3	NaN	1	4	0.0373219555907749	0	1	NaN	288	5	36	2	120	220	320	NaN	520	0.675143217202276	1	1	NaN	3357959.648358	NaN	3357960.631856	3357961.14841248
76	19	0	0	90	36.1581920903955	36.241610738255	22	0.733385136052966	2	11	1	NaN	2	5	0.0373219555907749	0	1	NaN	289	5	37	2	120	220	320	NaN	520	1.33956956956536	1	0	NaN	3357962.6320947	NaN	3357963.6154966	3357964.13204033
76	19	0	0	90	36.1581920903955	36.241610738255	7	0.233349816016853	2	7	2	NaN	2	3	0.0373219555907749	0	1	NaN	290	5	38	2	120	220	320	NaN	520	0.304640917573124	2	1	NaN	3357966.2824526	NaN	3357967.2658581	3357967.78239788
76	19	0	0	90	36.1581920903955	36.241610738255	12	0.400028256028891	2	2	6	NaN	1	5	0.0373219555907749	0	1	NaN	291	5	39	2	120	220	320	NaN	520	0.3122169226408	1	1	NaN	3357968.8993085	NaN	3357969.8827874	3357970.39932948
76	19	0	0	90	36.1581920903955	36.241610738255	17	0.566706696040928	2	8	5	NaN	2	3	0.0373219555907749	0	1	NaN	292	5	40	2	120	220	320	NaN	520	0.30232042260468	1	0	NaN	3357971.5329602	NaN	3357972.5163601	3357973.03292388
76	19	0	0	90	36.1581920903955	36.241610738255	13	0.433363944031298	2	8	5	NaN	2	5	0.0373219555907749	0	1	NaN	293	5	41	2	120	220	320	NaN	520	0.370098769664764	2	1	NaN	3357974.2331205	NaN	3357975.2166329	3357975.73318993
76	19	0	0	90	36.1581920903955	36.241610738255	24	0.800056512057781	2	3	2	NaN	1	5	0.0373219555907749	0	1	NaN	294	5	42	2	120	220	320	NaN	520	0.366457437630743	1	1	NaN	3357976.9168249	NaN	3357977.9002288	3357978.41678686
76	19	0	0	90	36.1581920903955	36.241610738255	17	0.566706696040928	2	2	4	NaN	1	5	0.0373219555907749	0	1	NaN	295	5	43	2	120	220	320	NaN	520	0.346923974342644	1	1	NaN	3357979.6004294	NaN	3357980.5838111	3357981.10037653
76	19	0	0	90	36.1581920903955	36.241610738255	18	0.600042384043336	2	3	1	NaN	1	3	0.0373219555907749	0	1	NaN	296	5	44	2	120	220	320	NaN	520	0.448391070123762	2	0	NaN	3357982.2673539	NaN	3357983.2507453	3357983.76730763
76	19	0	0	90	36.1581920903955	36.241610738255	0	0	1	4	6	NaN	1	4	0.0373219555907749	0	1	NaN	297	5	45	2	110	210	310	NaN	510	0.0250131227076054	2	0	NaN	3357985.0342879	NaN	3357986.017714	3357986.53425098
76	19	0	0	90	36.1581920903955	36.241610738255	10	0.333356880024075	2	11	3	NaN	2	5	0.0373219555907749	0	1	NaN	298	5	46	2	120	220	320	NaN	520	0.379371117334813	1	0	NaN	3357987.3678725	NaN	3357988.3512517	3357988.86781078
76	19	0	0	90	36.1581920903955	36.241610738255	14	0.466699632033706	2	3	2	NaN	1	4	0.0373219555907749	0	1	NaN	299	5	47	2	120	220	320	NaN	520	0.0104205701500177	2	0	NaN	3357990.0681297	NaN	3357991.0515093	3357991.56806903
76	19	0	0	90	36.1581920903955	36.241610738255	17	0.566706696040928	2	1	3	NaN	1	3	0.0373219555907749	0	1	NaN	300	5	48	2	120	220	320	NaN	520	0.402457317337394	2	0	NaN	3357992.3850095	NaN	3357993.3684108	3357993.88496148
76	19	0	0	90	36.1581920903955	36.241610738255	20	0.666713760048151	2	7	3	NaN	2	5	0.0373219555907749	0	1	NaN	301	5	49	2	120	220	320	NaN	520	0.381755422335118	1	0	NaN	3357995.1018073	NaN	3357996.0854114	3357996.60190408
76	19	0	0	90	36.1581920903955	36.241610738255	10	0.333356880024075	2	7	3	NaN	2	4	0.0373219555907749	0	1	NaN	302	5	50	2	120	220	320	NaN	520	0.0103973224759102	2	1	NaN	3357997.8022003	NaN	3357998.7856082	3357999.30216508
76	19	0	0	90	36.1581920903955	36.241610738255	16	0.533371008038521	2	6	1	NaN	1	5	0.0373219555907749	0	1	NaN	303	5	51	2	120	220	320	NaN	520	0.372594169806689	1	1	NaN	3358000.1191104	NaN	3358001.102508	3358001.61905883
76	19	0	0	90	36.1581920903955	36.241610738255	0	0	1	3	3	NaN	1	3	0.0373219555907749	0	1	NaN	304	5	52	2	110	210	310	NaN	510	0.176490869838744	2	0	NaN	3358002.8027126	NaN	3358003.7861049	3358004.30265783
76	19	0	0	90	36.1581920903955	36.241610738255	24	0.800056512057781	2	12	6	NaN	2	4	0.0373219555907749	0	1	NaN	305	5	53	2	120	220	320	NaN	520	0.157401770353317	1	0	NaN	3358005.2861814	NaN	3358006.2696592	3358006.78623463
76	19	0	0	90	36.1581920903955	36.241610738255	18	0.600042384043336	2	5	4	NaN	1	5	0.0373219555907749	0	1	NaN	306	5	54	2	120	220	320	NaN	520	0.218035617377609	2	0	NaN	3358007.7533023	NaN	3358008.7365895	3358009.25313898
76	19	0	0	90	36.1581920903955	36.241610738255	7	0.233349816016853	2	8	3	NaN	2	3	0.0373219555907749	0	1	NaN	307	5	55	2	120	220	320	NaN	520	0.852988469880074	2	1	NaN	3358010.286777	NaN	3358011.2701558	3358011.78672373
76	19	0	0	90	36.1581920903955	36.241610738255	0	0	1	10	6	NaN	2	3	0.0373219555907749	0	1	NaN	308	5	56	2	110	210	310	NaN	510	0.0104055698029697	1	0	NaN	3358013.4537563	NaN	3358014.4371512	3358014.95369793
76	19	0	0	90	36.1581920903955	36.241610738255	14	0.466699632033706	2	10	4	NaN	2	3	0.0373219555907749	0	1	NaN	309	5	57	2	120	220	320	NaN	520	0.240503622218966	2	1	NaN	3358015.7706589	NaN	3358016.7540387	3358017.27060238
76	19	0	0	90	36.1581920903955	36.241610738255	8	0.26668550401926	2	6	5	NaN	1	3	0.0373219555907749	0	1	NaN	310	5	58	2	120	220	320	NaN	520	0.0104134702123702	2	0	NaN	3358018.320894	NaN	3358019.3042955	3358019.82083953
76	19	0	0	90	36.1581920903955	36.241610738255	22	0.733385136052966	2	7	5	NaN	2	5	0.0373219555907749	0	1	NaN	311	5	59	2	120	220	320	NaN	520	0.309277255088091	2	1	NaN	3358020.6544609	NaN	3358021.6378605	3358022.15440245
76	19	0	0	90	36.1581920903955	36.241610738255	17	0.566706696040928	2	3	3	NaN	1	4	0.0373219555907749	0	1	NaN	312	5	60	2	120	220	320	NaN	520	0.0601453226990998	2	0	NaN	3358023.271246	NaN	3358024.2547767	3358024.77133898
76	19	0	0	90	36.1581920903955	36.241610738255	11	0.366692568026483	2	2	6	NaN	1	5	0.0373219555907749	0	1	NaN	313	5	61	2	120	220	320	NaN	520	0.685263469815254	2	0	NaN	3358025.6381776	NaN	3358026.6216865	3358027.13823083
76	19	0	0	90	36.1581920903955	36.241610738255	0	0	1	11	6	NaN	2	5	0.0373219555907749	0	1	NaN	314	5	62	2	110	210	310	NaN	510	0.0527874696999788	2	1	NaN	3358028.6385747	NaN	3358029.6219959	3358030.13852343
76	19	0	0	90	36.1581920903955	36.241610738255	18	0.600042384043336	2	12	1	NaN	2	3	0.0373219555907749	0	1	NaN	315	5	63	2	120	220	320	NaN	520	0.589877869933844	2	1	NaN	3358031.0054793	NaN	3358031.9888849	3358032.50542473
76	19	0	0	90	36.1581920903955	36.241610738255	16	0.533371008038521	2	8	1	NaN	2	3	0.0373219555907749	0	1	NaN	316	6	1	2	120	220	320	NaN	520	0.520172122400254	2	1	NaN	3358045.5235874	NaN	3358046.5069771	3358047.02352008
76	19	0	0	90	36.1581920903955	36.241610738255	20	0.666713760048151	2	10	5	NaN	2	4	0.0373219555907749	0	1	NaN	317	6	2	2	120	220	320	NaN	520	0.342076079919934	1	0	NaN	3358048.3571997	NaN	3358049.3405402	3358049.85713512
76	19	0	0	90	36.1581920903955	36.241610738255	21	0.700049448050559	2	12	5	NaN	2	4	0.0373219555907749	0	1	NaN	318	6	3	2	120	220	320	NaN	520	0.0104082701727748	2	1	NaN	3358051.0074144	NaN	3358051.9908766	3358052.50738463
76	19	0	0	90	36.1581920903955	36.241610738255	24	0.800056512057781	2	4	2	NaN	1	3	0.0373219555907749	0	1	NaN	319	6	4	2	120	220	320	NaN	520	0.27940017497167	1	1	NaN	3358053.3243454	NaN	3358054.3077402	3358054.82428733
76	19	0	0	90	36.1581920903955	36.241610738255	0	0	1	5	2	NaN	1	5	0.0373219555907749	0	1	NaN	320	6	5	2	110	210	310	NaN	510	0.199277070350945	2	0	NaN	3358055.9079214	NaN	3358056.8913318	3358057.40786983
76	19	0	0	90	36.1581920903955	36.241610738255	15	0.500035320036113	2	4	1	NaN	1	4	0.0373219555907749	0	1	NaN	321	6	6	2	120	220	320	NaN	520	0.266521070152521	1	1	NaN	3358058.4247486	NaN	3358059.4082301	3358059.92478563
76	19	0	0	90	36.1581920903955	36.241610738255	6	0.200014128014445	2	11	5	NaN	2	3	0.0373219555907749	0	1	NaN	322	6	7	2	120	220	320	NaN	520	1.1310142702423	2	1	NaN	3358061.008442	NaN	3358061.9918241	3358062.50836743
76	19	0	0	90	36.1581920903955	36.241610738255	13	0.433363944031298	2	5	4	NaN	1	4	0.0373219555907749	0	1	NaN	323	6	8	2	120	220	320	NaN	520	0.233354522380978	2	0	NaN	3358064.4421063	NaN	3358065.4254836	3358065.94204328
76	19	0	0	90	36.1581920903955	36.241610738255	16	0.533371008038521	2	4	1	NaN	1	5	0.0373219555907749	0	1	NaN	324	6	9	2	120	220	320	NaN	520	1.59542782744393	2	0	NaN	3358066.9923423	NaN	3358067.9757309	3358068.49229047
76	19	0	0	90	36.1581920903955	36.241610738255	24	0.800056512057781	2	7	6	NaN	2	3	0.0373219555907749	0	1	NaN	325	6	10	2	120	220	320	NaN	520	0.0467380699701607	2	1	NaN	3358070.8927545	NaN	3358071.876143	3358072.39267583
76	19	0	0	90	36.1581920903955	36.241610738255	11	0.366692568026483	2	3	5	NaN	1	5	0.0373219555907749	0	1	NaN	326	6	11	2	120	220	320	NaN	520	0.255917222704738	2	0	NaN	3358073.2596162	NaN	3358074.243021	3358074.75957298
76	19	0	0	90	36.1581920903955	36.241610738255	9	0.300021192021668	2	12	4	NaN	2	5	0.0373219555907749	0	1	NaN	327	6	12	2	120	220	320	NaN	520	0.304785369895399	2	1	NaN	3358075.8264143	NaN	3358076.8099283	3358077.32651813
76	19	0	0	90	36.1581920903955	36.241610738255	20	0.666713760048151	2	9	4	NaN	2	4	0.0373219555907749	0	1	NaN	328	6	13	2	120	220	320	NaN	520	0.351868074852973	2	1	NaN	3358078.4434675	NaN	3358079.4269007	3358079.94343563
76	19	0	0	90	36.1581920903955	36.241610738255	10	0.333356880024075	2	5	6	NaN	1	3	0.0373219555907749	0	1	NaN	329	6	14	2	120	220	320	NaN	520	0.197297717444599	1	1	NaN	3358081.1104038	NaN	3358082.0937899	3358082.61034728
76	19	0	0	90	36.1581920903955	36.241610738255	24	0.800056512057781	2	11	6	NaN	2	4	0.0373219555907749	0	1	NaN	330	6	15	2	120	220	320	NaN	520	0.336155037395656	2	1	NaN	3358083.6273121	NaN	3358084.6107261	3358085.12726746
76	19	0	0	90	36.1581920903955	36.241610738255	12	0.400028256028891	2	4	4	NaN	1	4	0.0373219555907749	0	1	NaN	331	6	16	2	120	220	320	NaN	520	0.0104093700647354	2	0	NaN	3358086.2775765	NaN	3358087.2609614	3358087.77751513
76	19	0	0	90	36.1581920903955	36.241610738255	20	0.666713760048151	2	12	5	NaN	2	3	0.0373219555907749	0	1	NaN	332	6	17	2	120	220	320	NaN	520	0.297393769957125	2	1	NaN	3358088.5943605	NaN	3358089.5778557	3358090.09441623
76	19	0	0	90	36.1581920903955	36.241610738255	14	0.466699632033706	2	12	3	NaN	2	4	0.0373219555907749	0	1	NaN	333	6	18	2	120	220	320	NaN	520	0.416087974794209	2	1	NaN	3358091.211405	NaN	3358092.1947786	3358092.71134523
76	19	0	0	90	36.1581920903955	36.241610738255	7	0.233349816016853	2	5	2	NaN	1	3	0.0373219555907749	0	1	NaN	334	6	19	2	120	220	320	NaN	520	0.362353822682053	2	0	NaN	3358093.9448596	NaN	3358094.928404	3358095.44494228
76	19	0	0	90	36.1581920903955	36.241610738255	9	0.300021192021668	2	9	1	NaN	2	5	0.0373219555907749	0	1	NaN	335	6	20	2	120	220	320	NaN	520	0.0104954703710973	2	1	NaN	3358096.6119314	NaN	3358097.5953248	3358098.11186753
76	19	0	0	90	36.1581920903955	36.241610738255	21	0.700049448050559	2	4	4	NaN	1	4	0.0373219555907749	0	1	NaN	336	6	21	2	120	220	320	NaN	520	0.273844922892749	2	0	NaN	3358098.9453362	NaN	3358099.92891	3358100.44542778
76	19	0	0	90	36.1581920903955	36.241610738255	20	0.666713760048151	2	4	1	NaN	1	4	0.0373219555907749	0	1	NaN	337	6	22	2	120	220	320	NaN	520	0.33036737004295	2	0	NaN	3358101.5290742	NaN	3358102.5124589	3358103.02901133
76	19	0	0	90	36.1581920903955	36.241610738255	25	0.833392200060189	2	9	2	NaN	2	3	0.0373219555907749	0	1	NaN	338	6	23	2	120	220	320	NaN	520	0.832708570174873	2	1	NaN	3358104.1626381	NaN	3358105.1460565	3358105.66261613
76	19	0	0	90	36.1581920903955	36.241610738255	16	0.533371008038521	2	4	2	NaN	1	4	0.0373219555907749	0	1	NaN	339	6	24	2	120	220	320	NaN	520	0.450934964697808	1	1	NaN	3358107.3129683	NaN	3358108.2963965	3358108.81292124
76	19	0	0	90	36.1581920903955	36.241610738255	21	0.700049448050559	2	7	4	NaN	2	5	0.0373219555907749	0	1	NaN	340	6	25	2	120	220	320	NaN	520	0.388683622702956	2	1	NaN	3358110.0632199	NaN	3358111.046683	3358111.56319668
76	19	0	0	90	36.1581920903955	36.241610738255	7	0.233349816016853	2	4	1	NaN	1	4	0.0373219555907749	0	1	NaN	341	6	26	2	120	220	320	NaN	520	0.408269422594458	2	0	NaN	3358112.7634899	NaN	3358113.7468946	3358114.26345268
76	19	0	0	90	36.1581920903955	36.241610738255	16	0.533371008038521	2	9	6	NaN	2	4	0.0373219555907749	0	1	NaN	342	6	27	2	120	220	320	NaN	520	0.971250370144844	1	0	NaN	3358115.4804691	NaN	3358116.4638408	3358116.98038833
76	19	0	0	90	36.1581920903955	36.241610738255	14	0.466699632033706	2	4	5	NaN	1	3	0.0373219555907749	0	1	NaN	343	6	28	2	120	220	320	NaN	520	0.343188837170601	2	0	NaN	3358118.7640984	NaN	3358119.7474914	3358120.26404526
76	19	0	0	90	36.1581920903955	36.241610738255	18	0.600042384043336	2	8	6	NaN	2	3	0.0373219555907749	0	1	NaN	344	6	29	2	120	220	320	NaN	520	0.277134269941598	2	1	NaN	3358121.4143726	NaN	3358122.3977538	3358122.91429633
76	19	0	0	90	36.1581920903955	36.241610738255	9	0.300021192021668	2	5	5	NaN	1	4	0.0373219555907749	0	1	NaN	345	6	30	2	120	220	320	NaN	520	0.420958769973367	2	0	NaN	3358124.0145904	NaN	3358124.9980122	3358125.51455833
76	19	0	0	90	36.1581920903955	36.241610738255	6	0.200014128014445	2	1	2	NaN	1	5	0.0373219555907749	0	1	NaN	346	6	31	2	120	220	320	NaN	520	0.391293522436172	1	1	NaN	3358126.7482091	NaN	3358127.7315789	3358128.24816588
76	19	0	0	90	36.1581920903955	36.241610738255	20	0.666713760048151	2	2	4	NaN	1	3	0.0373219555907749	0	1	NaN	347	6	32	2	120	220	320	NaN	520	0.530205669812858	2	0	NaN	3358129.4651552	NaN	3358130.4485245	3358130.96509503
76	19	0	0	90	36.1581920903955	36.241610738255	15	0.500035320036113	2	5	2	NaN	1	4	0.0373219555907749	0	1	NaN	348	6	33	2	120	220	320	NaN	520	0.0882238699123263	2	0	NaN	3358132.3153386	NaN	3358133.298815	3358133.81538443
76	19	0	0	90	36.1581920903955	36.241610738255	7	0.233349816016853	2	10	6	NaN	2	3	0.0373219555907749	0	1	NaN	349	6	34	2	120	220	320	NaN	520	0.615703170187771	1	0	NaN	3358134.7155279	NaN	3358135.6990472	3358136.21560703
76	19	0	0	90	36.1581920903955	36.241610738255	12	0.400028256028891	2	10	1	NaN	2	5	0.0373219555907749	0	1	NaN	350	6	35	2	120	220	320	NaN	520	0.362653669901192	2	1	NaN	3358137.6492916	NaN	3358138.6326615	3358139.14922513
76	19	0	0	90	36.1581920903955	36.241610738255	13	0.433363944031298	2	4	6	NaN	1	4	0.0373219555907749	0	1	NaN	351	6	36	2	120	220	320	NaN	520	0.774828322697431	2	0	NaN	3358140.3328758	NaN	3358141.3162827	3358141.83282368
76	19	0	0	90	36.1581920903955	36.241610738255	22	0.733385136052966	2	4	5	NaN	1	5	0.0373219555907749	0	1	NaN	352	6	37	2	120	220	320	NaN	520	2.04292222252116	2	0	NaN	3358143.4165123	NaN	3358144.3998898	3358144.91647088
76	19	0	0	90	36.1581920903955	36.241610738255	23	0.766720824055374	2	1	4	NaN	1	4	0.0373219555907749	0	1	NaN	353	6	38	2	120	220	320	NaN	520	0.372577022761106	1	1	NaN	3358147.7669507	NaN	3358148.7503241	3358149.26689948
76	19	0	0	90	36.1581920903955	36.241610738255	24	0.800056512057781	2	1	6	NaN	1	5	0.0373219555907749	0	1	NaN	354	6	39	2	120	220	320	NaN	520	0.241079870145768	2	0	NaN	3358150.4504595	NaN	3358151.4339392	3358151.95048963
76	19	0	0	90	36.1581920903955	36.241610738255	9	0.300021192021668	2	6	2	NaN	1	3	0.0373219555907749	0	1	NaN	355	6	40	2	120	220	320	NaN	520	0.0104072699323297	1	1	NaN	3358153.0008103	NaN	3358153.9842025	3358154.50073653
76	19	0	0	90	36.1581920903955	36.241610738255	7	0.233349816016853	2	9	5	NaN	2	4	0.0373219555907749	0	1	NaN	356	6	41	2	120	220	320	NaN	520	0.109746822156012	2	1	NaN	3358155.3176865	NaN	3358156.3010783	3358156.81763438
76	19	0	0	90	36.1581920903955	36.241610738255	6	0.200014128014445	2	6	2	NaN	1	5	0.0373219555907749	0	1	NaN	357	6	42	2	120	220	320	NaN	520	0.0104089700616896	1	1	NaN	3358157.7512554	NaN	3358158.734655	3358159.25120543
76	19	0	0	90	36.1581920903955	36.241610738255	11	0.366692568026483	2	4	1	NaN	1	5	0.0373219555907749	0	1	NaN	358	6	43	2	120	220	320	NaN	520	0.0102852904237807	1	1	NaN	3358160.0681488	NaN	3358161.0515411	3358161.56809941
76	19	0	0	90	36.1581920903955	36.241610738255	12	0.400028256028891	2	9	2	NaN	2	3	0.0373219555907749	0	1	NaN	359	6	44	2	120	220	320	NaN	520	0.0505346697755158	2	1	NaN	3358162.3850603	NaN	3358163.3684461	3358163.88499883
76	19	0	0	90	36.1581920903955	36.241610738255	6	0.200014128014445	2	7	6	NaN	2	4	0.0373219555907749	0	1	NaN	360	6	45	2	120	220	320	NaN	520	0.0103923226706684	1	0	NaN	3358164.751957	NaN	3358165.7353446	3358166.25189788
76	19	0	0	90	36.1581920903955	36.241610738255	12	0.400028256028891	2	1	1	NaN	1	4	0.0373219555907749	0	1	NaN	361	6	46	2	120	220	320	NaN	520	1.47062586992979	1	1	NaN	3358167.0688031	NaN	3358168.0522353	3358168.56878563
76	19	0	0	90	36.1581920903955	36.241610738255	22	0.733385136052966	2	1	2	NaN	1	5	0.0373219555907749	0	1	NaN	362	6	47	2	120	220	320	NaN	520	0.839397522620857	2	0	NaN	3358170.8525512	NaN	3358171.8359462	3358172.35249688
76	19	0	0	90	36.1581920903955	36.241610738255	21	0.700049448050559	2	3	1	NaN	1	4	0.0373219555907749	0	1	NaN	363	6	48	2	120	220	320	NaN	520	0.0886548175476491	2	0	NaN	3358174.0028715	NaN	3358174.9862407	3358175.50280108
76	19	0	0	90	36.1581920903955	36.241610738255	20	0.666713760048151	2	10	6	NaN	2	3	0.0373219555907749	0	1	NaN	364	6	49	2	120	220	320	NaN	520	0.0104028703644872	1	0	NaN	3358176.4030844	NaN	3358177.3864698	3358177.90303153
76	19	0	0	90	36.1581920903955	36.241610738255	18	0.600042384043336	2	11	3	NaN	2	4	0.0373219555907749	0	1	NaN	365	6	50	2	120	220	320	NaN	520	0.579412284772843	1	0	NaN	3358178.7199736	NaN	3358179.703381	3358180.21993692
76	19	0	0	90	36.1581920903955	36.241610738255	18	0.600042384043336	2	4	5	NaN	1	5	0.0373219555907749	0	1	NaN	366	6	51	2	120	220	320	NaN	520	0.0103653273545206	1	1	NaN	3358181.6202657	NaN	3358182.6036686	3358183.12021277
76	19	0	0	90	36.1581920903955	36.241610738255	16	0.533371008038521	2	5	3	NaN	1	5	0.0373219555907749	0	1	NaN	367	6	52	2	120	220	320	NaN	520	0.0584404701367021	1	1	NaN	3358183.9371628	NaN	3358184.9205719	3358185.43710953
76	19	0	0	90	36.1581920903955	36.241610738255	18	0.600042384043336	2	7	3	NaN	2	4	0.0373219555907749	0	1	NaN	368	6	53	2	120	220	320	NaN	520	0.307575722690672	1	0	NaN	3358186.3040582	NaN	3358187.2874655	3358187.80401178
76	19	0	0	90	36.1581920903955	36.241610738255	10	0.333356880024075	2	6	4	NaN	1	4	0.0373219555907749	0	1	NaN	369	6	54	2	120	220	320	NaN	520	0.402558022644371	1	1	NaN	3358188.9209949	NaN	3358189.9043797	3358190.42093488
76	19	0	0	90	36.1581920903955	36.241610738255	16	0.533371008038521	2	3	6	NaN	1	3	0.0373219555907749	0	1	NaN	370	6	55	2	120	220	320	NaN	520	0.33389896992594	1	1	NaN	3358191.6378022	NaN	3358192.6213194	3358193.13786483
76	19	0	0	90	36.1581920903955	36.241610738255	0	0	1	3	5	NaN	1	4	0.0373219555907749	0	1	NaN	371	6	56	2	110	210	310	NaN	510	0.275783817283809	1	1	NaN	3358194.2882221	NaN	3358195.2715721	3358195.78812898
76	19	0	0	90	36.1581920903955	36.241610738255	11	0.366692568026483	2	8	3	NaN	2	4	0.0373219555907749	0	1	NaN	372	6	57	2	120	220	320	NaN	520	0.0998676223680377	2	1	NaN	3358196.8717736	NaN	3358197.855151	3358198.37172088
76	19	0	0	90	36.1581920903955	36.241610738255	21	0.700049448050559	2	1	4	NaN	1	4	0.0373219555907749	0	1	NaN	373	6	58	2	120	220	320	NaN	520	0.307592222467065	2	0	NaN	3358199.2720004	NaN	3358200.2553856	3358200.77195778
76	19	0	0	90	36.1581920903955	36.241610738255	20	0.666713760048151	2	1	5	NaN	1	5	0.0373219555907749	0	1	NaN	374	6	59	2	120	220	320	NaN	520	0.570403970312327	2	0	NaN	3358201.905586	NaN	3358202.8889996	3358203.40553753
76	19	0	0	90	36.1581920903955	36.241610738255	25	0.833392200060189	2	3	2	NaN	1	3	0.0373219555907749	0	1	NaN	375	6	60	2	120	220	320	NaN	520	0.9424261697568	2	0	NaN	3358204.7892111	NaN	3358205.7726561	3358206.28915463
76	19	0	0	90	36.1581920903955	36.241610738255	8	0.26668550401926	2	11	6	NaN	2	3	0.0373219555907749	0	1	NaN	376	6	61	2	120	220	320	NaN	520	2.01986382249743	2	1	NaN	3358208.0561964	NaN	3358209.0395919	3358209.55615048
76	19	0	0	90	36.1581920903955	36.241610738255	16	0.533371008038521	2	11	6	NaN	2	5	0.0373219555907749	0	1	NaN	377	6	62	2	120	220	320	NaN	520	0.0104113700799644	1	0	NaN	3358212.389823	NaN	3358213.3733587	3358213.88990273
76	19	0	0	90	36.1581920903955	36.241610738255	13	0.433363944031298	2	11	5	NaN	2	5	0.0373219555907749	0	1	NaN	378	6	63	2	120	220	320	NaN	520	0.288943722378463	2	1	NaN	3358214.7068521	NaN	3358215.6902607	3358216.20680278
76	19	0	0	90	36.1581920903955	36.241610738255	10	0.333356880024075	2	8	3	NaN	2	5	0.0373219555907749	0	1	NaN	379	7	1	2	120	220	320	NaN	520	1.14396542264149	1	0	NaN	3358239.4759145	NaN	3358240.4593453	3358240.97590418
76	19	0	0	90	36.1581920903955	36.241610738255	19	0.633378072045743	2	11	5	NaN	2	5	0.0373219555907749	0	1	NaN	380	7	2	2	120	220	320	NaN	520	0.477280070073903	2	1	NaN	3358242.9263163	NaN	3358243.9096747	3358244.42624303
76	19	0	0	90	36.1581920903955	36.241610738255	7	0.233349816016853	2	10	3	NaN	2	3	0.0373219555907749	0	1	NaN	381	7	3	2	120	220	320	NaN	520	0.10444917017594	2	1	NaN	3358246.0432093	NaN	3358247.0266591	3358247.54321183
76	19	0	0	90	36.1581920903955	36.241610738255	24	0.800056512057781	2	9	3	NaN	2	5	0.0373219555907749	0	1	NaN	382	7	4	2	120	220	320	NaN	520	1.27138967020437	2	1	NaN	3358248.460164	NaN	3358249.4435626	3358249.96011933
76	19	0	0	90	36.1581920903955	36.241610738255	0	0	1	8	1	NaN	2	5	0.0373219555907749	0	1	NaN	383	7	5	2	110	210	310	NaN	510	0.248025970067829	2	1	NaN	3358252.0438342	NaN	3358253.027254	3358253.54379203
76	19	0	0	90	36.1581920903955	36.241610738255	7	0.233349816016853	2	8	4	NaN	2	5	0.0373219555907749	0	1	NaN	384	7	6	2	120	220	320	NaN	520	3.00880732294172	1	0	NaN	3358254.6107553	NaN	3358255.594175	3358256.11071938
76	19	0	0	90	36.1581920903955	36.241610738255	22	0.733385136052966	2	8	5	NaN	2	3	0.0373219555907749	0	1	NaN	385	7	7	2	120	220	320	NaN	520	0.0837716697715223	2	1	NaN	3358259.9279591	NaN	3358260.9113637	3358261.42790143
76	19	0	0	90	36.1581920903955	36.241610738255	11	0.366692568026483	2	2	2	NaN	1	4	0.0373219555907749	0	1	NaN	386	7	8	2	120	220	320	NaN	520	0.283528869971633	2	0	NaN	3358262.3282019	NaN	3358263.3115841	3358263.82813803
76	19	0	0	90	36.1581920903955	36.241610738255	22	0.733385136052966	2	3	5	NaN	1	3	0.0373219555907749	0	1	NaN	387	7	9	2	120	220	320	NaN	520	0.307223970070481	1	1	NaN	3358264.9284471	NaN	3358265.911858	3358266.42840473
76	19	0	0	90	36.1581920903955	36.241610738255	19	0.633378072045743	2	9	4	NaN	2	5	0.0373219555907749	0	1	NaN	388	7	10	2	120	220	320	NaN	520	0.570832469966263	2	1	NaN	3358267.5453641	NaN	3358268.5287706	3358269.04531813
76	19	0	0	90	36.1581920903955	36.241610738255	7	0.233349816016853	2	11	5	NaN	2	3	0.0373219555907749	0	1	NaN	389	7	11	2	120	220	320	NaN	520	0.270755869802088	2	1	NaN	3358270.4289684	NaN	3358271.4123962	3358271.92893143
76	19	0	0	90	36.1581920903955	36.241610738255	16	0.533371008038521	2	7	5	NaN	2	4	0.0373219555907749	0	1	NaN	390	7	12	2	120	220	320	NaN	520	0.207258970011026	1	0	NaN	3358273.0125771	NaN	3358273.9959748	3358274.51252253
76	19	0	0	90	36.1581920903955	36.241610738255	19	0.633378072045743	2	4	3	NaN	1	5	0.0373219555907749	0	1	NaN	391	7	13	2	120	220	320	NaN	520	0.0263362699188292	2	0	NaN	3358275.529438	NaN	3358276.5128938	3358277.02943523
76	19	0	0	90	36.1581920903955	36.241610738255	19	0.633378072045743	2	3	5	NaN	1	3	0.0373219555907749	0	1	NaN	392	7	14	2	120	220	320	NaN	520	0.316678069997579	1	1	NaN	3358277.86306	NaN	3358278.8464628	3358279.36300463
76	19	0	0	90	36.1581920903955	36.241610738255	11	0.366692568026483	2	3	4	NaN	1	4	0.0373219555907749	0	1	NaN	393	7	15	2	120	220	320	NaN	520	0.298920317552984	2	0	NaN	3358280.4966245	NaN	3358281.4800313	3358281.99659118
76	19	0	0	90	36.1581920903955	36.241610738255	13	0.433363944031298	2	6	2	NaN	1	4	0.0373219555907749	0	1	NaN	394	7	16	2	120	220	320	NaN	520	0.322032122407109	1	1	NaN	3358283.1135591	NaN	3358284.0969565	3358284.61351448
76	19	0	0	90	36.1581920903955	36.241610738255	8	0.26668550401926	2	9	5	NaN	2	4	0.0373219555907749	0	1	NaN	395	7	17	2	120	220	320	NaN	520	0.216680170036852	2	1	NaN	3358285.7471619	NaN	3358286.730566	3358287.24710583
76	19	0	0	90	36.1581920903955	36.241610738255	21	0.700049448050559	2	10	4	NaN	2	3	0.0373219555907749	0	1	NaN	396	7	18	2	120	220	320	NaN	520	0.306972469668835	1	0	NaN	3358288.2807436	NaN	3358289.2641332	3358289.78068963
76	19	0	0	90	36.1581920903955	36.241610738255	19	0.633378072045743	2	2	5	NaN	1	3	0.0373219555907749	0	1	NaN	397	7	19	2	120	220	320	NaN	520	0.393920269794762	2	0	NaN	3358290.8976772	NaN	3358291.881061	3358292.39760723
76	19	0	0	90	36.1581920903955	36.241610738255	25	0.833392200060189	2	7	2	NaN	2	5	0.0373219555907749	0	1	NaN	398	7	20	2	120	220	320	NaN	520	0.502176822628826	1	0	NaN	3358293.5979444	NaN	3358294.5813259	3358295.09788178
76	19	0	0	90	36.1581920903955	36.241610738255	13	0.433363944031298	2	1	5	NaN	1	4	0.0373219555907749	0	1	NaN	399	7	21	2	120	220	320	NaN	520	0.388812270015478	2	0	NaN	3358296.4148691	NaN	3358297.3982841	3358297.91481863
76	19	0	0	90	36.1581920903955	36.241610738255	14	0.466699632033706	2	11	2	NaN	2	3	0.0373219555907749	0	1	NaN	400	7	22	2	120	220	320	NaN	520	0.504500470124185	1	0	NaN	3358299.1150145	NaN	3358300.0985702	3358300.61508373
76	19	0	0	90	36.1581920903955	36.241610738255	19	0.633378072045743	2	12	2	NaN	2	5	0.0373219555907749	0	1	NaN	401	7	23	2	120	220	320	NaN	520	0.495475117582828	2	1	NaN	3358301.9320785	NaN	3358302.9155004	3358303.43202708
76	19	0	0	90	36.1581920903955	36.241610738255	11	0.366692568026483	2	9	6	NaN	2	3	0.0373219555907749	0	1	NaN	402	7	24	2	120	220	320	NaN	520	0.463332822546363	1	0	NaN	3358304.732286	NaN	3358305.7157536	3358306.23230458
76	19	0	0	90	36.1581920903955	36.241610738255	13	0.433363944031298	2	10	4	NaN	2	3	0.0373219555907749	0	1	NaN	403	7	25	2	120	220	320	NaN	520	0.295600070152432	2	1	NaN	3358307.5159525	NaN	3358308.4993727	3358309.01591163
76	19	0	0	90	36.1581920903955	36.241610738255	12	0.400028256028891	2	3	2	NaN	1	4	0.0373219555907749	0	1	NaN	404	7	26	2	120	220	320	NaN	520	0.327536469791085	1	1	NaN	3358310.1162059	NaN	3358311.0995684	3358311.61616763
76	19	0	0	90	36.1581920903955	36.241610738255	15	0.500035320036113	2	3	4	NaN	1	3	0.0373219555907749	0	1	NaN	405	7	27	2	120	220	320	NaN	520	1.0221026702784	2	0	NaN	3358312.7496876	NaN	3358313.7332044	3358314.24976083
76	19	0	0	90	36.1581920903955	36.241610738255	25	0.833392200060189	2	11	4	NaN	2	5	0.0373219555907749	0	1	NaN	406	7	28	2	120	220	320	NaN	520	0.296677117235959	1	0	NaN	3358316.0834774	NaN	3358317.0668564	3358317.58341428
76	19	0	0	90	36.1581920903955	36.241610738255	6	0.200014128014445	2	12	6	NaN	2	3	0.0373219555907749	0	1	NaN	407	7	29	2	120	220	320	NaN	520	0.207332669757307	2	1	NaN	3358318.7004244	NaN	3358319.6838116	3358320.20034143
76	19	0	0	90	36.1581920903955	36.241610738255	19	0.633378072045743	2	1	3	NaN	1	3	0.0373219555907749	0	1	NaN	408	7	30	2	120	220	320	NaN	520	0.682554269675165	2	0	NaN	3358321.2174142	NaN	3358322.2007066	3358322.71725813
76	19	0	0	90	36.1581920903955	36.241610738255	6	0.200014128014445	2	2	2	NaN	1	3	0.0373219555907749	0	1	NaN	409	7	31	2	120	220	320	NaN	520	0.442325522657484	1	1	NaN	3358324.2174761	NaN	3358325.200997	3358325.71756028
76	19	0	0	90	36.1581920903955	36.241610738255	11	0.366692568026483	2	10	5	NaN	2	4	0.0373219555907749	0	1	NaN	410	7	32	2	120	220	320	NaN	520	0.0918820230290294	2	1	NaN	3358326.9679351	NaN	3358327.9512604	3358328.46781848
76	19	0	0	90	36.1581920903955	36.241610738255	11	0.366692568026483	2	6	3	NaN	1	3	0.0373219555907749	0	1	NaN	411	7	33	2	120	220	320	NaN	520	1.0356347700581	2	0	NaN	3358329.3681011	NaN	3358330.3515647	3358330.86805613
76	19	0	0	90	36.1581920903955	36.241610738255	21	0.700049448050559	2	1	2	NaN	1	3	0.0373219555907749	0	1	NaN	412	7	34	2	120	220	320	NaN	520	0.477445070166141	2	0	NaN	3358332.7184543	NaN	3358333.7018352	3358334.21838583
76	19	0	0	90	36.1581920903955	36.241610738255	19	0.633378072045743	2	12	5	NaN	2	4	0.0373219555907749	0	1	NaN	413	7	35	2	120	220	320	NaN	520	0.581492017488927	1	0	NaN	3358335.5187267	NaN	3358336.5021147	3358337.01866268
76	19	0	0	90	36.1581920903955	36.241610738255	0	0	1	9	5	NaN	2	4	0.0373219555907749	0	1	NaN	414	7	36	2	110	210	310	NaN	510	0.257524270098656	2	1	NaN	3358338.402371	NaN	3358339.3857258	3358339.90227863
76	19	0	0	90	36.1581920903955	36.241610738255	13	0.433363944031298	2	12	3	NaN	2	5	0.0373219555907749	0	1	NaN	415	7	37	2	120	220	320	NaN	520	1.42663492215797	1	0	NaN	3358340.9692421	NaN	3358341.9526572	3358342.46920658
76	19	0	0	90	36.1581920903955	36.241610738255	11	0.366692568026483	2	11	2	NaN	2	4	0.0373219555907749	0	1	NaN	416	7	38	2	120	220	320	NaN	520	1.29275761777535	2	1	NaN	3358344.7029002	NaN	3358345.6863423	3358346.20289458
76	19	0	0	90	36.1581920903955	36.241610738255	20	0.666713760048151	2	7	6	NaN	2	4	0.0373219555907749	0	1	NaN	417	7	39	2	120	220	320	NaN	520	0.988477670121938	1	0	NaN	3358348.3033268	NaN	3358349.2867617	3358349.80325233
76	19	0	0	90	36.1581920903955	36.241610738255	22	0.733385136052966	2	5	2	NaN	1	5	0.0373219555907749	0	1	NaN	418	7	40	2	120	220	320	NaN	520	0.304188369773328	2	0	NaN	3358351.6036401	NaN	3358352.5870138	3358353.10357603
76	19	0	0	90	36.1581920903955	36.241610738255	7	0.233349816016853	2	5	5	NaN	1	5	0.0373219555907749	0	1	NaN	419	7	41	2	120	220	320	NaN	520	0.495279122609645	1	1	NaN	3358354.22055	NaN	3358355.2040001	3358355.72050358
76	19	0	0	90	36.1581920903955	36.241610738255	14	0.466699632033706	2	8	5	NaN	2	3	0.0373219555907749	0	1	NaN	420	7	42	2	120	220	320	NaN	520	0.511455417145044	2	1	NaN	3358357.0208582	NaN	3358358.0042266	3358358.52077438
76	19	0	0	90	36.1581920903955	36.241610738255	19	0.633378072045743	2	6	1	NaN	1	5	0.0373219555907749	0	1	NaN	421	7	43	2	120	220	320	NaN	520	0.133546322584152	1	1	NaN	3358359.8544374	NaN	3358360.837828	3358361.35439378
76	19	0	0	90	36.1581920903955	36.241610738255	24	0.800056512057781	2	8	5	NaN	2	4	0.0373219555907749	0	1	NaN	422	7	44	2	120	220	320	NaN	520	0.507716469932348	2	1	NaN	3358362.2878876	NaN	3358363.2714014	3358363.78796283
76	19	0	0	90	36.1581920903955	36.241610738255	18	0.600042384043336	2	2	1	NaN	1	4	0.0373219555907749	0	1	NaN	423	7	45	2	120	220	320	NaN	520	0.370779969729483	2	0	NaN	3358365.1050339	NaN	3358366.0883832	3358366.60489583
76	19	0	0	90	36.1581920903955	36.241610738255	18	0.600042384043336	2	8	3	NaN	2	3	0.0373219555907749	0	1	NaN	424	7	46	2	120	220	320	NaN	520	0.551363170146942	2	1	NaN	3358367.7884313	NaN	3358368.7719366	3358369.28849623
76	19	0	0	90	36.1581920903955	36.241610738255	0	0	1	7	5	NaN	2	3	0.0373219555907749	0	1	NaN	425	7	47	2	110	210	310	NaN	510	0.244821870233864	1	0	NaN	3358370.6555095	NaN	3358371.6389002	3358372.15544023
76	19	0	0	90	36.1581920903955	36.241610738255	0	0	1	9	4	NaN	2	3	0.0373219555907749	0	1	NaN	426	7	48	2	110	210	310	NaN	510	0.454041569959372	1	0	NaN	3358373.2057372	NaN	3358374.189156	3358374.70569683
76	19	0	0	90	36.1581920903955	36.241610738255	19	0.633378072045743	2	10	2	NaN	2	3	0.0373219555907749	0	1	NaN	427	7	49	2	120	220	320	NaN	520	0.343542622867972	1	0	NaN	3358375.9726814	NaN	3358376.9560787	3358377.47263818
76	19	0	0	90	36.1581920903955	36.241610738255	10	0.333356880024075	2	6	4	NaN	1	3	0.0373219555907749	0	1	NaN	428	7	50	2	120	220	320	NaN	520	0.740915569942445	1	1	NaN	3358378.6229539	NaN	3358379.606349	3358380.12289543
76	19	0	0	90	36.1581920903955	36.241610738255	12	0.400028256028891	2	1	3	NaN	1	4	0.0373219555907749	0	1	NaN	429	7	51	2	120	220	320	NaN	520	0.378417122643441	2	0	NaN	3358381.6731053	NaN	3358382.6566194	3358383.17320198
76	19	0	0	90	36.1581920903955	36.241610738255	22	0.733385136052966	2	3	2	NaN	1	4	0.0373219555907749	0	1	NaN	430	7	52	2	120	220	320	NaN	520	0.486776770092547	1	1	NaN	3358384.3733845	NaN	3358385.3568965	3358385.87345873
76	19	0	0	90	36.1581920903955	36.241610738255	6	0.200014128014445	2	3	4	NaN	1	4	0.0373219555907749	0	1	NaN	431	7	53	2	120	220	320	NaN	520	0.486088322475553	1	1	NaN	3358387.173788	NaN	3358388.1571991	3358388.67374378
76	19	0	0	90	36.1581920903955	36.241610738255	14	0.466699632033706	2	1	4	NaN	1	3	0.0373219555907749	0	1	NaN	432	7	54	2	120	220	320	NaN	520	0.0104086701758206	2	0	NaN	3358389.9740645	NaN	3358390.9574679	3358391.47401083
76	19	0	0	90	36.1581920903955	36.241610738255	8	0.26668550401926	2	10	5	NaN	2	3	0.0373219555907749	0	1	NaN	433	7	55	2	120	220	320	NaN	520	0.521255017258227	1	0	NaN	3358392.2909432	NaN	3358393.2743359	3358393.79090758
76	19	0	0	90	36.1581920903955	36.241610738255	22	0.733385136052966	2	9	1	NaN	2	5	0.0373219555907749	0	1	NaN	434	7	56	2	120	220	320	NaN	520	0.215760570019484	2	1	NaN	3358395.1245784	NaN	3358396.1079707	3358396.62451253
76	19	0	0	90	36.1581920903955	36.241610738255	8	0.26668550401926	2	12	2	NaN	2	4	0.0373219555907749	0	1	NaN	435	7	57	2	120	220	320	NaN	520	0.281733669806272	1	0	NaN	3358397.6581667	NaN	3358398.641547	3358399.15809233
76	19	0	0	90	36.1581920903955	36.241610738255	20	0.666713760048151	2	8	4	NaN	2	5	0.0373219555907749	0	1	NaN	436	7	58	2	120	220	320	NaN	520	0.281447569839656	1	0	NaN	3358400.258295	NaN	3358401.2418415	3358401.75834953
76	19	0	0	90	36.1581920903955	36.241610738255	25	0.833392200060189	2	5	6	NaN	1	5	0.0373219555907749	0	1	NaN	437	7	59	2	120	220	320	NaN	520	0.393131222575903	2	0	NaN	3358402.8585134	NaN	3358403.8420626	3358404.35861538
76	19	0	0	90	36.1581920903955	36.241610738255	17	0.566706696040928	2	3	3	NaN	1	5	0.0373219555907749	0	1	NaN	438	7	60	2	120	220	320	NaN	520	0.340849670115858	1	1	NaN	3358405.558777	NaN	3358406.5423346	3358407.05887343
76	19	0	0	90	36.1581920903955	36.241610738255	24	0.800056512057781	2	5	2	NaN	1	3	0.0373219555907749	0	1	NaN	439	7	61	2	120	220	320	NaN	520	0.266599922440946	2	0	NaN	3358408.209174	NaN	3358409.1925651	3358409.70914018
76	19	0	0	90	36.1581920903955	36.241610738255	25	0.833392200060189	2	6	3	NaN	1	3	0.0373219555907749	0	1	NaN	440	7	62	2	120	220	320	NaN	520	0.339131822343916	1	1	NaN	3358410.7927704	NaN	3358411.7761682	3358412.29274078
76	19	0	0	90	36.1581920903955	36.241610738255	16	0.533371008038521	2	3	2	NaN	1	4	0.0373219555907749	0	1	NaN	441	7	63	2	120	220	320	NaN	520	0.408936222549528	2	0	NaN	3358413.4430556	NaN	3358414.4264523	3358414.94298798
76	19	0	0	90	36.1581920903955	36.241610738255	14	0.466699632033706	2	8	2	NaN	2	4	0.0373219555907749	0	1	NaN	442	8	1	2	120	220	320	NaN	520	0.201755022630095	2	1	NaN	3358418.4101779	NaN	3358419.3935767	3358419.91013678
76	19	0	0	90	36.1581920903955	36.241610738255	14	0.466699632033706	2	1	1	NaN	1	3	0.0373219555907749	0	1	NaN	443	8	2	2	120	220	320	NaN	520	0.852629069704562	1	1	NaN	3358420.9271003	NaN	3358421.9105024	3358422.42705353
76	19	0	0	90	36.1581920903955	36.241610738255	24	0.800056512057781	2	9	2	NaN	2	5	0.0373219555907749	0	1	NaN	444	8	3	2	120	220	320	NaN	520	0.270090570207685	1	0	NaN	3358424.0940717	NaN	3358425.0775088	3358425.59402713
76	19	0	0	90	36.1581920903955	36.241610738255	14	0.466699632033706	2	4	6	NaN	1	4	0.0373219555907749	0	1	NaN	445	8	4	2	120	220	320	NaN	520	0.030177322216332	1	1	NaN	3358426.6776861	NaN	3358427.6610452	3358428.17762138
76	19	0	0	90	36.1581920903955	36.241610738255	17	0.566706696040928	2	12	3	NaN	2	3	0.0373219555907749	0	1	NaN	446	8	5	2	120	220	320	NaN	520	0.728013769723475	2	1	NaN	3358429.0278976	NaN	3358430.0112898	3358430.52784623
76	19	0	0	90	36.1581920903955	36.241610738255	8	0.26668550401926	2	4	3	NaN	1	5	0.0373219555907749	0	1	NaN	447	8	6	2	120	220	320	NaN	520	0.502466870006174	1	1	NaN	3358432.0614156	NaN	3358433.0449204	3358433.56148013
76	19	0	0	90	36.1581920903955	36.241610738255	16	0.533371008038521	2	2	2	NaN	1	3	0.0373219555907749	0	1	NaN	448	8	7	2	120	220	320	NaN	520	0.229580369777977	1	1	NaN	3358434.8784678	NaN	3358435.8618477	3358436.37841633
76	19	0	0	90	36.1581920903955	36.241610738255	20	0.666713760048151	2	3	5	NaN	1	4	0.0373219555907749	0	1	NaN	449	8	8	2	120	220	320	NaN	520	3.74377067480236	1	1	NaN	3358437.4286143	NaN	3358438.4121181	3358438.92867983
76	19	0	0	90	36.1581920903955	36.241610738255	13	0.433363944031298	2	12	3	NaN	2	3	0.0373219555907749	0	1	NaN	450	8	9	2	120	220	320	NaN	520	0.356544670183212	2	1	NaN	3358443.4793226	NaN	3358444.4627164	3358444.97927213
76	19	0	0	90	36.1581920903955	36.241610738255	18	0.600042384043336	2	12	1	NaN	2	4	0.0373219555907749	0	1	NaN	451	8	10	2	120	220	320	NaN	520	1.08963177027181	2	1	NaN	3358446.1461064	NaN	3358447.1296403	3358447.64619183
76	19	0	0	90	36.1581920903955	36.241610738255	17	0.566706696040928	2	10	3	NaN	2	5	0.0373219555907749	0	1	NaN	452	8	11	2	120	220	320	NaN	520	0.185740417335182	2	1	NaN	3358449.5464467	NaN	3358450.5299941	3358451.04652568
76	19	0	0	90	36.1581920903955	36.241610738255	21	0.700049448050559	2	11	2	NaN	2	3	0.0373219555907749	0	1	NaN	453	8	12	2	120	220	320	NaN	520	0.325155470054597	1	0	NaN	3358452.0468434	NaN	3358453.0301305	3358453.54677003
76	19	0	0	90	36.1581920903955	36.241610738255	6	0.200014128014445	2	8	2	NaN	2	4	0.0373219555907749	0	1	NaN	454	8	13	2	120	220	320	NaN	520	1.29957352252677	1	0	NaN	3358454.6804092	NaN	3358455.6638192	3358456.18037068
76	19	0	0	90	36.1581920903955	36.241610738255	10	0.333356880024075	2	4	2	NaN	1	3	0.0373219555907749	0	1	NaN	455	8	14	2	120	220	320	NaN	520	1.2989391698502	2	0	NaN	3358458.2972974	NaN	3358459.2808202	3358459.79738323
76	19	0	0	90	36.1581920903955	36.241610738255	7	0.233349816016853	2	3	3	NaN	1	4	0.0373219555907749	0	1	NaN	456	8	15	2	120	220	320	NaN	520	0.177421522792429	2	0	NaN	3358461.914451	NaN	3358462.8978739	3358463.41441628
76	19	0	0	90	36.1581920903955	36.241610738255	12	0.400028256028891	2	8	4	NaN	2	3	0.0373219555907749	0	1	NaN	457	8	16	2	120	220	320	NaN	520	0.461753170005977	1	0	NaN	3358464.3980744	NaN	3358465.3814385	3358465.89798583
76	19	0	0	90	36.1581920903955	36.241610738255	23	0.766720824055374	2	9	1	NaN	2	5	0.0373219555907749	0	1	NaN	458	8	17	2	120	220	320	NaN	520	0.010395722463727	2	1	NaN	3358467.1649926	NaN	3358468.1483663	3358468.66492828
