subjno	age	gender	isPractice	viewdist	CmToPixX	CmToPixY	SOA_frm	SOA_time	targNum	targID	targExample	targRace	targGender	firstTargPos	contrast	familiarity	curr_staircase	iStair	TrialNum	BlockNum	blktrl	sessionNum	TC_FIXATION	TC_RSVP_START	TC_RSVP_END	TC_BLANK	TC_RESPONSE_ONSET	RT2afc	resp_2afc	acc	RSVPOnsetVBL	RSVPOnsetTime	RSVPOffsetVBL	RSVPOffsetTime	startrt_2afc
78	23	0	0	90	36.1581920903955	36.241610738255	13	0.433379179965705	2	8	3	NaN	2	5	0.0189654617291481	1	1	NaN	1	1	1	1	121	221	321	NaN	521	0.936668280512094	2	1	NaN	3973281.562491	NaN	3973282.5457978	3973283.07889162
78	23	0	0	90	36.1581920903955	36.241610738255	10	0.333368599973619	2	2	2	NaN	1	3	0.0189654617291481	1	1	NaN	2	1	2	1	121	221	321	NaN	521	0.460300232749432	1	1	NaN	3973284.862788	NaN	3973285.8460827	3973286.37922357
78	23	0	0	90	36.1581920903955	36.241610738255	17	0.566726619955152	2	11	3	NaN	2	4	0.0189654617291481	1	1	NaN	3	1	3	1	121	221	321	NaN	521	1.02884219586849	1	0	NaN	3973287.6628662	NaN	3973288.6462662	3973289.1628343
78	23	0	0	90	36.1581920903955	36.241610738255	16	0.53338975995779	2	6	6	NaN	1	3	0.0189654617291481	1	1	NaN	4	1	4	1	121	221	321	NaN	521	0.838812476489693	1	1	NaN	3973291.0131975	NaN	3973291.996617	3973292.51315672
78	23	0	0	90	36.1581920903955	36.241610738255	19	0.633400339949876	2	8	3	NaN	2	5	0.0189654617291481	1	1	NaN	5	1	5	1	121	221	321	NaN	521	0.352442876435816	2	1	NaN	3973294.1635311	NaN	3973295.1469197	3973295.66345382
78	23	0	0	90	36.1581920903955	36.241610738255	15	0.500052899960428	2	12	5	NaN	2	4	0.0189654617291481	1	1	NaN	6	1	6	1	121	221	321	NaN	521	0.573114876635373	2	1	NaN	3973296.8304373	NaN	3973297.8138429	3973298.33039102
78	23	0	0	90	36.1581920903955	36.241610738255	20	0.666737199947238	2	2	5	NaN	1	5	0.0189654617291481	1	1	NaN	7	1	7	1	121	221	321	NaN	521	0.552875244058669	2	0	NaN	3973299.7307464	NaN	3973300.7140187	3973301.23068636
78	23	0	0	90	36.1581920903955	36.241610738255	9	0.300031739976257	2	12	3	NaN	2	3	0.0189654617291481	1	1	NaN	8	1	8	1	121	221	321	NaN	521	0.333951828069985	1	0	NaN	3973302.5976763	NaN	3973303.5810724	3973304.09762807
78	23	0	0	90	36.1581920903955	36.241610738255	13	0.433379179965705	2	10	6	NaN	2	4	0.0189654617291481	1	1	NaN	9	1	9	1	121	221	321	NaN	521	0.587673228234053	1	0	NaN	3973305.2479453	NaN	3973306.2313363	3973306.74788827
78	23	0	0	90	36.1581920903955	36.241610738255	21	0.7000740599446	2	4	5	NaN	1	4	0.0189654617291481	1	1	NaN	10	1	10	1	121	221	321	NaN	521	0.39105127658695	2	0	NaN	3973308.1649806	NaN	3973309.1482908	3973309.66483632
78	23	0	0	90	36.1581920903955	36.241610738255	0	0	1	3	4	NaN	1	4	0.0189654617291481	1	1	NaN	11	1	11	1	111	211	311	NaN	511	0.393860928248614	1	1	NaN	3973310.8818343	NaN	3973311.8652255	3973312.38177667
78	23	0	0	90	36.1581920903955	36.241610738255	17	0.566726619955152	2	6	6	NaN	1	4	0.0189654617291481	1	1	NaN	12	1	12	1	121	221	321	NaN	521	0.284860724583268	1	1	NaN	3973313.5987565	NaN	3973314.5821392	3973315.09869748
78	23	0	0	90	36.1581920903955	36.241610738255	20	0.666737199947238	2	7	1	NaN	2	5	0.0189654617291481	1	1	NaN	13	1	13	1	121	221	321	NaN	521	1.95652137650177	1	0	NaN	3973316.1991001	NaN	3973317.1823966	3973317.69895282
78	23	0	0	90	36.1581920903955	36.241610738255	7	0.233358019981533	2	4	6	NaN	1	4	0.0189654617291481	1	1	NaN	14	1	14	1	121	221	321	NaN	521	0.625525932759047	1	1	NaN	3973320.4660963	NaN	3973321.4494885	3973321.96605287
78	23	0	0	90	36.1581920903955	36.241610738255	15	0.500052899960428	2	11	3	NaN	2	4	0.0189654617291481	1	1	NaN	15	1	15	1	121	221	321	NaN	521	0.307613840326667	2	1	NaN	3973323.4164047	NaN	3973324.3997948	3973324.91633936
78	23	0	0	90	36.1581920903955	36.241610738255	21	0.7000740599446	2	2	3	NaN	1	3	0.0189654617291481	1	1	NaN	16	1	16	1	121	221	321	NaN	521	0.538428539875895	2	0	NaN	3973326.0333139	NaN	3973327.0167114	3973327.53326036
78	23	0	0	90	36.1581920903955	36.241610738255	23	0.766747779939324	2	1	2	NaN	1	5	0.0189654617291481	1	1	NaN	17	1	17	1	121	221	321	NaN	521	0.407736776396632	1	1	NaN	3973328.9002673	NaN	3973329.8836803	3973330.40020172
78	23	0	0	90	36.1581920903955	36.241610738255	10	0.333368599973619	2	3	5	NaN	1	4	0.0189654617291481	1	1	NaN	18	1	18	1	121	221	321	NaN	521	1.25059342430905	2	0	NaN	3973331.6171917	NaN	3973332.6005921	3973333.11714298
78	23	0	0	90	36.1581920903955	36.241610738255	20	0.666737199947238	2	2	5	NaN	1	5	0.0189654617291481	1	1	NaN	19	1	19	1	121	221	321	NaN	521	0.0104111763648689	1	1	NaN	3973335.1841412	NaN	3973336.1676169	3973336.68415102
78	23	0	0	90	36.1581920903955	36.241610738255	18	0.600063479952514	2	6	5	NaN	1	4	0.0189654617291481	1	1	NaN	20	1	20	1	121	221	321	NaN	521	0.318100224249065	1	1	NaN	3973337.5177697	NaN	3973338.5011683	3973339.01772518
78	23	0	0	90	36.1581920903955	36.241610738255	21	0.7000740599446	2	7	4	NaN	2	4	0.0189654617291481	1	1	NaN	21	1	21	1	121	221	321	NaN	521	0.644107928499579	2	1	NaN	3973340.3514929	NaN	3973341.3347772	3973341.85134077
78	23	0	0	90	36.1581920903955	36.241610738255	13	0.433379179965705	2	6	3	NaN	1	5	0.0189654617291481	1	1	NaN	22	1	22	1	121	221	321	NaN	521	0.501444472931325	2	0	NaN	3973343.3183595	NaN	3973344.3017516	3973344.81828273
78	23	0	0	90	36.1581920903955	36.241610738255	7	0.233358019981533	2	7	4	NaN	2	5	0.0189654617291481	1	1	NaN	23	1	23	1	121	221	321	NaN	521	0.308420776389539	1	0	NaN	3973346.1351643	NaN	3973347.1186849	3973347.63523522
78	23	0	0	90	36.1581920903955	36.241610738255	15	0.500052899960428	2	2	1	NaN	1	5	0.0189654617291481	1	1	NaN	24	1	24	1	121	221	321	NaN	521	0.971091376617551	2	0	NaN	3973348.7688774	NaN	3973349.7522771	3973350.26882862
78	23	0	0	90	36.1581920903955	36.241610738255	11	0.366705459970981	2	11	3	NaN	2	5	0.0189654617291481	1	1	NaN	25	1	25	1	121	221	321	NaN	521	0.551192476414144	2	1	NaN	3973352.0525604	NaN	3973353.0358458	3973353.55249212
78	23	0	0	90	36.1581920903955	36.241610738255	7	0.233358019981533	2	5	6	NaN	1	5	0.0189654617291481	1	1	NaN	26	1	26	1	121	221	321	NaN	521	0.532121176365763	2	0	NaN	3973354.9194932	NaN	3973355.9028678	3973356.41943162
78	23	0	0	90	36.1581920903955	36.241610738255	9	0.300031739976257	2	1	5	NaN	1	3	0.0189654617291481	1	1	NaN	27	1	27	1	121	221	321	NaN	521	0.345663176849484	1	1	NaN	3973357.7697904	NaN	3973358.7531545	3973359.26970872
78	23	0	0	90	36.1581920903955	36.241610738255	0	0	1	9	2	NaN	2	4	0.0189654617291481	1	1	NaN	28	1	28	1	111	211	311	NaN	511	0.374856728129089	1	0	NaN	3973360.4366919	NaN	3973361.4200881	3973361.93664567
78	23	0	0	90	36.1581920903955	36.241610738255	18	0.600063479952514	2	12	1	NaN	2	5	0.0189654617291481	1	1	NaN	29	1	29	1	121	221	321	NaN	521	2.45871317666024	2	1	NaN	3973363.1369532	NaN	3973364.1203593	3973364.63690062
78	23	0	0	90	36.1581920903955	36.241610738255	17	0.566726619955152	2	7	3	NaN	2	5	0.0189654617291481	1	1	NaN	30	1	30	1	121	221	321	NaN	521	0.62700319616124	2	1	NaN	3973367.9207563	NaN	3973368.9041666	3973369.4207209
78	23	0	0	90	36.1581920903955	36.241610738255	24	0.800084639936686	2	9	2	NaN	2	3	0.0189654617291481	1	1	NaN	31	1	31	1	121	221	321	NaN	521	0.348640876822174	1	0	NaN	3973370.8709309	NaN	3973371.8544531	3973372.37099152
78	23	0	0	90	36.1581920903955	36.241610738255	13	0.433379179965705	2	1	5	NaN	1	5	0.0189654617291481	1	1	NaN	32	1	32	1	121	221	321	NaN	521	0.289766176603734	1	1	NaN	3973373.5380183	NaN	3973374.5213694	3973375.03793172
78	23	0	0	90	36.1581920903955	36.241610738255	16	0.53338975995779	2	12	4	NaN	2	3	0.0189654617291481	1	1	NaN	33	1	33	1	121	221	321	NaN	521	0.265362128149718	1	0	NaN	3973376.1382395	NaN	3973377.12167	3973377.63818967
78	23	0	0	90	36.1581920903955	36.241610738255	16	0.53338975995779	2	10	1	NaN	2	4	0.0189654617291481	1	1	NaN	34	1	34	1	121	221	321	NaN	521	0.449904576409608	1	0	NaN	3973378.7218105	NaN	3973379.7052123	3973380.22178052
78	23	0	0	90	36.1581920903955	36.241610738255	9	0.300031739976257	2	6	2	NaN	1	3	0.0189654617291481	1	1	NaN	35	1	35	1	121	221	321	NaN	521	0.331225424073637	2	0	NaN	3973381.4887689	NaN	3973382.4721561	3973382.98871348
78	23	0	0	90	36.1581920903955	36.241610738255	8	0.266694879978895	2	5	1	NaN	1	4	0.0189654617291481	1	1	NaN	36	1	36	1	121	221	321	NaN	521	0.369037928525358	2	0	NaN	3973384.139036	NaN	3973385.1224225	3973385.63897187
78	23	0	0	90	36.1581920903955	36.241610738255	21	0.7000740599446	2	6	6	NaN	1	4	0.0189654617291481	1	1	NaN	37	1	37	1	121	221	321	NaN	521	0.349524576682597	1	1	NaN	3973386.8224738	NaN	3973387.806021	3973388.32255902
78	23	0	0	90	36.1581920903955	36.241610738255	19	0.633400339949876	2	12	5	NaN	2	3	0.0189654617291481	1	1	NaN	38	1	38	1	121	221	321	NaN	521	0.610551876481622	1	0	NaN	3973389.4895497	NaN	3973390.4729474	3973390.98948882
78	23	0	0	90	36.1581920903955	36.241610738255	14	0.466716039963067	2	7	2	NaN	2	4	0.0189654617291481	1	1	NaN	39	1	39	1	121	221	321	NaN	521	0.829201528336853	2	1	NaN	3973392.6065369	NaN	3973393.5899233	3973394.10647407
78	23	0	0	90	36.1581920903955	36.241610738255	7	0.233358019981533	2	6	1	NaN	1	5	0.0189654617291481	1	1	NaN	40	1	40	1	121	221	321	NaN	521	0.343234128318727	2	0	NaN	3973395.7568204	NaN	3973396.7402175	3973397.25678067
78	23	0	0	90	36.1581920903955	36.241610738255	21	0.7000740599446	2	1	1	NaN	1	3	0.0189654617291481	1	1	NaN	41	1	41	1	121	221	321	NaN	521	0.81259807664901	2	0	NaN	3973398.4070989	NaN	3973399.3904908	3973399.90703542
78	23	0	0	90	36.1581920903955	36.241610738255	16	0.53338975995779	2	5	1	NaN	1	5	0.0189654617291481	1	1	NaN	42	1	42	1	121	221	321	NaN	521	0.30311542423442	1	1	NaN	3973401.5407756	NaN	3973402.5241419	3973403.04067478
78	23	0	0	90	36.1581920903955	36.241610738255	22	0.733410919941962	2	12	2	NaN	2	3	0.0189654617291481	1	1	NaN	43	1	43	1	121	221	321	NaN	521	0.854142228141427	1	0	NaN	3973404.1576647	NaN	3973405.1410403	3973405.65760857
78	23	0	0	90	36.1581920903955	36.241610738255	21	0.7000740599446	2	9	5	NaN	2	4	0.0189654617291481	1	1	NaN	44	1	44	1	121	221	321	NaN	521	0.39920162409544	2	1	NaN	3973407.3246313	NaN	3973408.3080181	3973408.82457458
78	23	0	0	90	36.1581920903955	36.241610738255	0	0	1	5	4	NaN	1	5	0.0189654617291481	1	1	NaN	45	1	45	1	111	211	311	NaN	511	0.28217587666586	1	1	NaN	3973410.0415738	NaN	3973411.0249888	3973411.54150772
78	23	0	0	90	36.1581920903955	36.241610738255	17	0.566726619955152	2	8	4	NaN	2	3	0.0189654617291481	1	1	NaN	46	1	46	1	121	221	321	NaN	521	0.618421876337379	1	0	NaN	3973412.6251473	NaN	3973413.6085479	3973414.12509412
78	23	0	0	90	36.1581920903955	36.241610738255	12	0.400042319968343	2	8	3	NaN	2	3	0.0189654617291481	1	1	NaN	47	1	47	1	121	221	321	NaN	521	0.261645328253508	2	1	NaN	3973415.5421231	NaN	3973416.5254995	3973417.04205947
78	23	0	0	90	36.1581920903955	36.241610738255	12	0.400042319968343	2	5	2	NaN	1	3	0.0189654617291481	1	1	NaN	48	1	48	1	121	221	321	NaN	521	0.790871476754546	2	0	NaN	3973418.1090109	NaN	3973419.0924197	3973419.60897332
78	23	0	0	90	36.1581920903955	36.241610738255	7	0.233358019981533	2	12	4	NaN	2	4	0.0189654617291481	1	1	NaN	49	1	49	1	121	221	321	NaN	521	1.09047417668626	2	1	NaN	3973421.2093394	NaN	3973422.1927255	3973422.70927062
78	23	0	0	90	36.1581920903955	36.241610738255	21	0.7000740599446	2	12	2	NaN	2	4	0.0189654617291481	1	1	NaN	50	1	50	1	121	221	321	NaN	521	0.329596324358135	2	1	NaN	3973424.6263316	NaN	3973425.609651	3973426.12628368
78	23	0	0	90	36.1581920903955	36.241610738255	16	0.53338975995779	2	12	2	NaN	2	4	0.0189654617291481	1	1	NaN	51	1	51	1	121	221	321	NaN	521	0.0159424245357513	1	0	NaN	3973427.2597937	NaN	3973428.2433336	3973428.75987078
78	23	0	0	90	36.1581920903955	36.241610738255	10	0.333368599973619	2	12	3	NaN	2	5	0.0189654617291481	1	1	NaN	52	1	52	1	121	221	321	NaN	521	0.594328528270125	1	0	NaN	3973429.593355	NaN	3973430.5769037	3973431.09344217
78	23	0	0	90	36.1581920903955	36.241610738255	21	0.7000740599446	2	11	5	NaN	2	5	0.0189654617291481	1	1	NaN	53	1	53	1	121	221	321	NaN	521	0.310051628388464	1	0	NaN	3973432.4937595	NaN	3973433.4771945	3973433.99372717
78	23	0	0	90	36.1581920903955	36.241610738255	22	0.733410919941962	2	11	2	NaN	2	4	0.0189654617291481	1	1	NaN	54	1	54	1	121	221	321	NaN	521	0.332498332485557	1	0	NaN	3973435.127364	NaN	3973436.1108574	3973436.62731447
78	23	0	0	90	36.1581920903955	36.241610738255	25	0.833421499934047	2	2	6	NaN	1	4	0.0189654617291481	1	1	NaN	55	1	55	1	121	221	321	NaN	521	1.06650602817535	1	1	NaN	3973437.7776482	NaN	3973438.7610246	3973439.27757837
78	23	0	0	90	36.1581920903955	36.241610738255	24	0.800084639936686	2	11	6	NaN	2	5	0.0189654617291481	1	1	NaN	56	1	56	1	121	221	321	NaN	521	0.834384376648813	2	1	NaN	3973441.1613083	NaN	3973442.1446879	3973442.66123922
78	23	0	0	90	36.1581920903955	36.241610738255	17	0.566726619955152	2	4	3	NaN	1	5	0.0189654617291481	1	1	NaN	57	1	57	1	121	221	321	NaN	521	0.3078324762173	2	0	NaN	3973444.3282845	NaN	3973445.3116985	3973445.82821122
78	23	0	0	90	36.1581920903955	36.241610738255	6	0.200021159984171	2	5	3	NaN	1	5	0.0189654617291481	1	1	NaN	58	1	58	1	121	221	321	NaN	521	0.522689032368362	2	0	NaN	3973446.9451903	NaN	3973447.9286004	3973448.44513907
78	23	0	0	90	36.1581920903955	36.241610738255	15	0.500052899960428	2	4	2	NaN	1	3	0.0189654617291481	1	1	NaN	59	1	59	1	121	221	321	NaN	521	0.5773298246786	2	0	NaN	3973449.7786662	NaN	3973450.7622387	3973451.27875048
78	23	0	0	90	36.1581920903955	36.241610738255	11	0.366705459970981	2	4	4	NaN	1	3	0.0189654617291481	1	1	NaN	60	1	60	1	121	221	321	NaN	521	0.597228780388832	1	1	NaN	3973452.6791006	NaN	3973453.662476	3973454.17903452
78	23	0	0	90	36.1581920903955	36.241610738255	14	0.466716039963067	2	8	2	NaN	2	4	0.0189654617291481	1	1	NaN	61	1	61	1	121	221	321	NaN	521	0.375704376492649	2	1	NaN	3973455.5960542	NaN	3973456.5794362	3973457.09598392
78	23	0	0	90	36.1581920903955	36.241610738255	13	0.433379179965705	2	3	4	NaN	1	5	0.0189654617291481	1	1	NaN	62	1	62	1	121	221	321	NaN	521	0.316234576515853	2	0	NaN	3973458.2795945	NaN	3973459.2630374	3973459.77958062
78	23	0	0	90	36.1581920903955	36.241610738255	19	0.633400339949876	2	1	4	NaN	1	4	0.0189654617291481	1	1	NaN	63	1	63	1	121	221	321	NaN	521	0.291025276295841	1	1	NaN	3973460.91324	NaN	3973461.8966237	3973462.41317942
78	23	0	0	90	36.1581920903955	36.241610738255	13	0.433379179965705	2	9	6	NaN	2	5	0.0189654617291481	1	1	NaN	64	2	1	1	121	221	321	NaN	521	0.3712686765939	2	1	NaN	3973496.8167516	NaN	3973497.8001558	3973498.31670062
78	23	0	0	90	36.1581920903955	36.241610738255	19	0.633400339949876	2	2	5	NaN	1	3	0.0189654617291481	1	1	NaN	65	2	2	1	121	221	321	NaN	521	0.615896324627101	2	0	NaN	3973499.500355	NaN	3973500.4837716	3973501.00029708
78	23	0	0	90	36.1581920903955	36.241610738255	17	0.566726619955152	2	11	6	NaN	2	3	0.0189654617291481	1	1	NaN	66	2	3	1	121	221	321	NaN	521	0.305800776463002	1	0	NaN	3973502.4340718	NaN	3973503.4173798	3973503.93391982
78	23	0	0	90	36.1581920903955	36.241610738255	16	0.53338975995779	2	2	1	NaN	1	5	0.0189654617291481	1	1	NaN	67	2	4	1	121	221	321	NaN	521	0.59327482432127	2	0	NaN	3973505.2507988	NaN	3973506.2343033	3973506.75086048
78	23	0	0	90	36.1581920903955	36.241610738255	25	0.833421499934047	2	3	5	NaN	1	3	0.0189654617291481	1	1	NaN	68	2	5	1	121	221	321	NaN	521	0.356823872774839	1	1	NaN	3973508.1512361	NaN	3973509.1346189	3973509.65114973
78	23	0	0	90	36.1581920903955	36.241610738255	25	0.833421499934047	2	3	4	NaN	1	5	0.0189654617291481	1	1	NaN	69	2	6	1	121	221	321	NaN	521	0.305692976340652	1	1	NaN	3973510.8181398	NaN	3973511.8015332	3973512.31808662
78	23	0	0	90	36.1581920903955	36.241610738255	25	0.833421499934047	2	5	5	NaN	1	3	0.0189654617291481	1	1	NaN	70	2	7	1	121	221	321	NaN	521	0.585229176562279	1	1	NaN	3973513.435077	NaN	3973514.4184554	3973514.93500282
78	23	0	0	90	36.1581920903955	36.241610738255	21	0.7000740599446	2	8	1	NaN	2	3	0.0189654617291481	1	1	NaN	71	2	8	1	121	221	321	NaN	521	0.348665676545352	1	0	NaN	3973516.3353423	NaN	3973517.3186436	3973517.83529382
78	23	0	0	90	36.1581920903955	36.241610738255	20	0.666737199947238	2	3	6	NaN	1	3	0.0189654617291481	1	1	NaN	72	2	9	1	121	221	321	NaN	521	0.12976594036445	1	1	NaN	3973519.0022864	NaN	3973519.9856923	3973520.50222836
78	23	0	0	90	36.1581920903955	36.241610738255	17	0.566726619955152	2	8	5	NaN	2	4	0.0189654617291481	1	1	NaN	73	2	10	1	121	221	321	NaN	521	0.287919724360108	2	1	NaN	3973521.4357647	NaN	3973522.419252	3973522.93578588
78	23	0	0	90	36.1581920903955	36.241610738255	16	0.53338975995779	2	7	5	NaN	2	4	0.0189654617291481	1	1	NaN	74	2	11	1	121	221	321	NaN	521	0.423809372354299	2	1	NaN	3973524.0359912	NaN	3973525.0194839	3973525.53604823
78	23	0	0	90	36.1581920903955	36.241610738255	25	0.833421499934047	2	4	6	NaN	1	3	0.0189654617291481	1	1	NaN	75	2	12	1	121	221	321	NaN	521	0.298333176411688	1	1	NaN	3973526.7697012	NaN	3973527.7531885	3973528.26965572
78	23	0	0	90	36.1581920903955	36.241610738255	16	0.53338975995779	2	1	4	NaN	1	5	0.0189654617291481	1	1	NaN	76	2	13	1	121	221	321	NaN	521	1.29801837634295	1	1	NaN	3973529.3699448	NaN	3973530.3534165	3973530.86989852
78	23	0	0	90	36.1581920903955	36.241610738255	20	0.666737199947238	2	6	6	NaN	1	4	0.0189654617291481	1	1	NaN	77	2	14	1	121	221	321	NaN	521	0.313373376615345	2	0	NaN	3973532.9703799	NaN	3973533.9537068	3973534.47026342
78	23	0	0	90	36.1581920903955	36.241610738255	18	0.600063479952514	2	12	4	NaN	2	3	0.0189654617291481	1	1	NaN	78	2	15	1	121	221	321	NaN	521	0.313069376628846	2	1	NaN	3973535.5872401	NaN	3973536.5706308	3973537.08720182
78	23	0	0	90	36.1581920903955	36.241610738255	6	0.200021159984171	2	3	3	NaN	1	4	0.0189654617291481	1	1	NaN	79	2	16	1	121	221	321	NaN	521	0.287374776322395	1	1	NaN	3973538.2208317	NaN	3973539.2042258	3973539.72077932
78	23	0	0	90	36.1581920903955	36.241610738255	23	0.766747779939324	2	2	2	NaN	1	3	0.0189654617291481	1	1	NaN	80	2	17	1	121	221	321	NaN	521	0.390837376471609	1	1	NaN	3973540.8210791	NaN	3973541.8044877	3973542.32102792
78	23	0	0	90	36.1581920903955	36.241610738255	14	0.466716039963067	2	10	3	NaN	2	4	0.0189654617291481	1	1	NaN	81	2	18	1	121	221	321	NaN	521	0.322925476357341	1	0	NaN	3973543.5213936	NaN	3973544.5047517	3973545.02129862
78	23	0	0	90	36.1581920903955	36.241610738255	17	0.566726619955152	2	9	5	NaN	2	5	0.0189654617291481	1	1	NaN	82	2	19	1	121	221	321	NaN	521	0.316837280523032	2	1	NaN	3973546.454836	NaN	3973547.4383639	3973547.95492482
78	23	0	0	90	36.1581920903955	36.241610738255	20	0.666737199947238	2	3	3	NaN	1	5	0.0189654617291481	1	1	NaN	83	2	20	1	121	221	321	NaN	521	0.2755331764929	1	1	NaN	3973549.0885556	NaN	3973550.0719642	3973550.58851212
78	23	0	0	90	36.1581920903955	36.241610738255	25	0.833421499934047	2	11	6	NaN	2	3	0.0189654617291481	1	1	NaN	84	2	21	1	121	221	321	NaN	521	0.419681876432151	2	1	NaN	3973551.6721751	NaN	3973552.6555488	3973553.17209142
78	23	0	0	90	36.1581920903955	36.241610738255	15	0.500052899960428	2	1	2	NaN	1	4	0.0189654617291481	1	1	NaN	85	2	22	1	121	221	321	NaN	521	0.350382328499109	2	0	NaN	3973554.4057432	NaN	3973555.3891437	3973555.90569767
78	23	0	0	90	36.1581920903955	36.241610738255	11	0.366705459970981	2	8	2	NaN	2	3	0.0189654617291481	1	1	NaN	86	2	23	1	121	221	321	NaN	521	0.419663376640528	2	1	NaN	3973557.0725781	NaN	3973558.0560848	3973558.57262122
78	23	0	0	90	36.1581920903955	36.241610738255	18	0.600063479952514	2	11	3	NaN	2	3	0.0189654617291481	1	1	NaN	87	2	24	1	121	221	321	NaN	521	0.981977744027972	2	1	NaN	3973559.8062794	NaN	3973560.7896524	3973561.30622686
78	23	0	0	90	36.1581920903955	36.241610738255	17	0.566726619955152	2	1	4	NaN	1	5	0.0189654617291481	1	1	NaN	88	2	25	1	121	221	321	NaN	521	0.769367028027773	2	0	NaN	3973563.1066259	NaN	3973564.09001	3973564.60656087
78	23	0	0	90	36.1581920903955	36.241610738255	12	0.400042319968343	2	2	5	NaN	1	4	0.0189654617291481	1	1	NaN	89	2	26	1	121	221	321	NaN	521	0.317927576601505	2	0	NaN	3973566.1902495	NaN	3973567.1736563	3973567.69018952
78	23	0	0	90	36.1581920903955	36.241610738255	10	0.333368599973619	2	9	6	NaN	2	5	0.0189654617291481	1	1	NaN	90	2	27	1	121	221	321	NaN	521	0.412148328498006	1	0	NaN	3973568.8238254	NaN	3973569.8072425	3973570.32378857
78	23	0	0	90	36.1581920903955	36.241610738255	9	0.300031739976257	2	1	1	NaN	1	3	0.0189654617291481	1	1	NaN	91	2	28	1	121	221	321	NaN	521	0.574586324393749	1	1	NaN	3973571.5574284	NaN	3973572.5408318	3973573.05737588
78	23	0	0	90	36.1581920903955	36.241610738255	13	0.433379179965705	2	6	1	NaN	1	3	0.0189654617291481	1	1	NaN	92	2	29	1	121	221	321	NaN	521	0.42683827644214	2	0	NaN	3973574.4410636	NaN	3973575.4244531	3973575.94099252
78	23	0	0	90	36.1581920903955	36.241610738255	24	0.800084639936686	2	9	4	NaN	2	4	0.0189654617291481	1	1	NaN	93	2	30	1	121	221	321	NaN	521	1.17320532444865	1	0	NaN	3973577.1746514	NaN	3973578.1580413	3973578.67461538
78	23	0	0	90	36.1581920903955	36.241610738255	13	0.433379179965705	2	10	5	NaN	2	3	0.0189654617291481	1	1	NaN	94	2	31	1	121	221	321	NaN	521	0.289507576264441	1	0	NaN	3973580.6583364	NaN	3973581.6417416	3973582.15827182
78	23	0	0	90	36.1581920903955	36.241610738255	13	0.433379179965705	2	1	5	NaN	1	5	0.0189654617291481	1	1	NaN	95	2	32	1	121	221	321	NaN	521	1.33749407622963	2	0	NaN	3973583.258588	NaN	3973584.2419934	3973584.75853682
78	23	0	0	90	36.1581920903955	36.241610738255	12	0.400042319968343	2	2	5	NaN	1	3	0.0189654617291481	1	1	NaN	96	2	33	1	121	221	321	NaN	521	0.702930976171046	2	0	NaN	3973586.9089463	NaN	3973587.892352	3973588.40888832
78	23	0	0	90	36.1581920903955	36.241610738255	20	0.666737199947238	2	11	4	NaN	2	4	0.0189654617291481	1	1	NaN	97	2	34	1	121	221	321	NaN	521	0.374098028056324	2	1	NaN	3973589.9259086	NaN	3973590.9093083	3973591.42585687
78	23	0	0	90	36.1581920903955	36.241610738255	0	0	1	12	6	NaN	2	4	0.0189654617291481	1	1	NaN	98	2	35	1	111	211	311	NaN	511	0.32257757242769	1	0	NaN	3973592.6094982	NaN	3973593.5929121	3973594.10944973
78	23	0	0	90	36.1581920903955	36.241610738255	13	0.433379179965705	2	7	5	NaN	2	5	0.0189654617291481	1	1	NaN	99	2	36	1	121	221	321	NaN	521	0.320897276513278	1	0	NaN	3973595.2431	NaN	3973596.2265311	3973596.74304972
78	23	0	0	90	36.1581920903955	36.241610738255	23	0.766747779939324	2	7	4	NaN	2	3	0.0189654617291481	1	1	NaN	100	2	37	1	121	221	321	NaN	521	0.271330076735467	1	0	NaN	3973597.8766954	NaN	3973598.860088	3973599.37662902
78	23	0	0	90	36.1581920903955	36.241610738255	20	0.666737199947238	2	5	3	NaN	1	3	0.0189654617291481	1	1	NaN	101	2	38	1	121	221	321	NaN	521	0.255711176432669	1	1	NaN	3973600.4602791	NaN	3973601.4436858	3973601.96022522
78	23	0	0	90	36.1581920903955	36.241610738255	0	0	1	9	4	NaN	2	3	0.0189654617291481	1	1	NaN	102	2	39	1	111	211	311	NaN	511	0.225148376543075	1	0	NaN	3973603.0271895	NaN	3973604.0106086	3973604.52714362
78	23	0	0	90	36.1581920903955	36.241610738255	8	0.266694879978895	2	12	1	NaN	2	4	0.0189654617291481	1	1	NaN	103	2	40	1	121	221	321	NaN	521	1.62736702430993	2	1	NaN	3973605.5606501	NaN	3973606.544174	3973607.06072118
78	23	0	0	90	36.1581920903955	36.241610738255	19	0.633400339949876	2	7	1	NaN	2	4	0.0189654617291481	1	1	NaN	104	2	41	1	121	221	321	NaN	521	0.381211576517671	2	1	NaN	3973609.5111719	NaN	3973610.4945476	3973611.01110852
78	23	0	0	90	36.1581920903955	36.241610738255	23	0.766747779939324	2	3	3	NaN	1	4	0.0189654617291481	1	1	NaN	105	2	42	1	121	221	321	NaN	521	0.328992024529725	2	0	NaN	3973612.2114193	NaN	3973613.1948108	3973613.71137398
78	23	0	0	90	36.1581920903955	36.241610738255	24	0.800084639936686	2	3	6	NaN	1	5	0.0189654617291481	1	1	NaN	106	2	43	1	121	221	321	NaN	521	0.334371728356928	1	1	NaN	3973614.8616943	NaN	3973615.8451001	3973616.36164547
78	23	0	0	90	36.1581920903955	36.241610738255	15	0.500052899960428	2	1	2	NaN	1	4	0.0189654617291481	1	1	NaN	107	2	44	1	121	221	321	NaN	521	0.612815032247454	1	1	NaN	3973617.4952752	NaN	3973618.4786575	3973618.99522427
78	23	0	0	90	36.1581920903955	36.241610738255	7	0.233358019981533	2	9	3	NaN	2	3	0.0189654617291481	1	1	NaN	108	2	45	1	121	221	321	NaN	521	0.383306872565299	2	1	NaN	3973620.4290078	NaN	3973621.4121918	3973621.92884623
78	23	0	0	90	36.1581920903955	36.241610738255	19	0.633400339949876	2	9	2	NaN	2	3	0.0189654617291481	1	1	NaN	109	2	46	1	121	221	321	NaN	521	0.282758828252554	2	1	NaN	3973623.1291639	NaN	3973624.1125701	3973624.62911917
78	23	0	0	90	36.1581920903955	36.241610738255	11	0.366705459970981	2	10	5	NaN	2	5	0.0189654617291481	1	1	NaN	110	2	47	1	121	221	321	NaN	521	1.09065777622163	2	1	NaN	3973625.7294275	NaN	3973626.7128268	3973627.22936642
78	23	0	0	90	36.1581920903955	36.241610738255	23	0.766747779939324	2	10	5	NaN	2	4	0.0189654617291481	1	1	NaN	111	2	48	1	121	221	321	NaN	521	0.338235728442669	1	0	NaN	3973629.129763	NaN	3973630.1131509	3973630.62971087
78	23	0	0	90	36.1581920903955	36.241610738255	12	0.400042319968343	2	1	1	NaN	1	5	0.0189654617291481	1	1	NaN	112	2	49	1	121	221	321	NaN	521	0.68036162853241	1	1	NaN	3973631.7800188	NaN	3973632.7634256	3973633.27997357
78	23	0	0	90	36.1581920903955	36.241610738255	9	0.300031739976257	2	7	6	NaN	2	4	0.0189654617291481	1	1	NaN	113	2	50	1	121	221	321	NaN	521	0.44783937651664	1	0	NaN	3973634.7803107	NaN	3973635.7637071	3973636.28026682
78	23	0	0	90	36.1581920903955	36.241610738255	9	0.300031739976257	2	2	3	NaN	1	3	0.0189654617291481	1	1	NaN	114	2	51	1	121	221	321	NaN	521	0.361532228067517	2	0	NaN	3973637.5305194	NaN	3973638.5139839	3973639.03053647
78	23	0	0	90	36.1581920903955	36.241610738255	13	0.433379179965705	2	5	3	NaN	1	3	0.0189654617291481	1	1	NaN	115	2	52	1	121	221	321	NaN	521	2.14210167666897	1	1	NaN	3973640.2141929	NaN	3973641.1975772	3973641.71413502
78	23	0	0	90	36.1581920903955	36.241610738255	6	0.200021159984171	2	7	5	NaN	2	4	0.0189654617291481	1	1	NaN	116	2	53	1	121	221	321	NaN	521	0.362801228184253	1	0	NaN	3973644.6812927	NaN	3973645.6646868	3973646.18122897
78	23	0	0	90	36.1581920903955	36.241610738255	17	0.566726619955152	2	7	1	NaN	2	4	0.0189654617291481	1	1	NaN	117	2	54	1	121	221	321	NaN	521	0.480204280465841	2	1	NaN	3973647.3482163	NaN	3973648.3315916	3973648.84816642
78	23	0	0	90	36.1581920903955	36.241610738255	25	0.833421499934047	2	8	4	NaN	2	4	0.0189654617291481	1	1	NaN	118	2	55	1	121	221	321	NaN	521	0.327895976603031	1	0	NaN	3973650.1484945	NaN	3973651.1319628	3973651.64843292
78	23	0	0	90	36.1581920903955	36.241610738255	24	0.800084639936686	2	12	1	NaN	2	4	0.0189654617291481	1	1	NaN	119	2	56	1	121	221	321	NaN	521	0.990060576703399	2	1	NaN	3973652.7820774	NaN	3973653.7654797	3973654.28202392
78	23	0	0	90	36.1581920903955	36.241610738255	23	0.766747779939324	2	6	5	NaN	1	3	0.0189654617291481	1	1	NaN	120	2	57	1	121	221	321	NaN	521	0.458012576214969	2	0	NaN	3973656.0824144	NaN	3973657.065808	3973657.58234892
78	23	0	0	90	36.1581920903955	36.241610738255	9	0.300031739976257	2	8	4	NaN	2	3	0.0189654617291481	1	1	NaN	121	2	58	1	121	221	321	NaN	521	0.619205476716161	2	1	NaN	3973658.8493485	NaN	3973659.8327516	3973660.34928542
78	23	0	0	90	36.1581920903955	36.241610738255	12	0.400042319968343	2	9	1	NaN	2	4	0.0189654617291481	1	1	NaN	122	2	59	1	121	221	321	NaN	521	0.533054328057915	2	1	NaN	3973661.783053	NaN	3973662.7663568	3973663.28292117
78	23	0	0	90	36.1581920903955	36.241610738255	8	0.266694879978895	2	4	5	NaN	1	3	0.0189654617291481	1	1	NaN	123	2	60	1	121	221	321	NaN	521	0.299681583885103	1	1	NaN	3973664.6165629	NaN	3973665.6000223	3973666.11653272
78	23	0	0	90	36.1581920903955	36.241610738255	8	0.266694879978895	2	11	5	NaN	2	3	0.0189654617291481	1	1	NaN	124	2	61	1	121	221	321	NaN	521	1.25881807645783	1	0	NaN	3973667.2335103	NaN	3973668.2169275	3973668.73344822
78	23	0	0	90	36.1581920903955	36.241610738255	12	0.400042319968343	2	10	4	NaN	2	5	0.0189654617291481	1	1	NaN	125	2	62	1	121	221	321	NaN	521	0.395582328084856	2	1	NaN	3973670.8005118	NaN	3973671.7839184	3973672.30048607
78	23	0	0	90	36.1581920903955	36.241610738255	6	0.200021159984171	2	11	1	NaN	2	3	0.0189654617291481	1	1	NaN	126	2	63	1	121	221	321	NaN	521	0.262838176451623	1	0	NaN	3973673.5174429	NaN	3973674.5008582	3973675.01739502
78	23	0	0	90	36.1581920903955	36.241610738255	8	0.266694879978895	2	8	5	NaN	2	4	0.0189654617291481	1	1	NaN	127	3	1	1	121	221	321	NaN	521	0.410412920638919	1	0	NaN	3973682.2016193	NaN	3973683.1850415	3973683.70158588
78	23	0	0	90	36.1581920903955	36.241610738255	23	0.766747779939324	2	10	1	NaN	2	3	0.0189654617291481	1	1	NaN	128	3	2	1	121	221	321	NaN	521	0.805719376541674	2	1	NaN	3973684.9185735	NaN	3973685.9019483	3973686.41851882
78	23	0	0	90	36.1581920903955	36.241610738255	8	0.266694879978895	2	2	4	NaN	1	3	0.0189654617291481	1	1	NaN	129	3	3	1	121	221	321	NaN	521	0.312713476363569	1	1	NaN	3973688.0354732	NaN	3973689.0189415	3973689.53549462
78	23	0	0	90	36.1581920903955	36.241610738255	0	0	1	7	5	NaN	2	4	0.0189654617291481	1	1	NaN	130	3	4	1	111	211	311	NaN	511	0.287817776203156	1	0	NaN	3973690.652469	NaN	3973691.6358746	3973692.15241222
78	23	0	0	90	36.1581920903955	36.241610738255	24	0.800084639936686	2	4	4	NaN	1	3	0.0189654617291481	1	1	NaN	131	3	5	1	121	221	321	NaN	521	0.279786972794682	1	1	NaN	3973693.2527336	NaN	3973694.2361356	3973694.75267203
78	23	0	0	90	36.1581920903955	36.241610738255	7	0.233358019981533	2	3	3	NaN	1	3	0.0189654617291481	1	1	NaN	132	3	6	1	121	221	321	NaN	521	0.24714733613655	1	1	NaN	3973695.8529787	NaN	3973696.836382	3973697.35293196
78	23	0	0	90	36.1581920903955	36.241610738255	15	0.500052899960428	2	4	1	NaN	1	3	0.0189654617291481	1	1	NaN	133	3	7	1	121	221	321	NaN	521	0.656553728040308	1	1	NaN	3973698.4199203	NaN	3973699.4031739	3973699.91985447
78	23	0	0	90	36.1581920903955	36.241610738255	23	0.766747779939324	2	5	3	NaN	1	5	0.0189654617291481	1	1	NaN	134	3	8	1	121	221	321	NaN	521	0.328261576592922	1	1	NaN	3973701.4202326	NaN	3973702.4036	3973702.92014632
78	23	0	0	90	36.1581920903955	36.241610738255	20	0.666737199947238	2	5	4	NaN	1	5	0.0189654617291481	1	1	NaN	135	3	9	1	121	221	321	NaN	521	0.630679472349584	2	0	NaN	3973704.0536617	NaN	3973705.0371858	3973705.55372983
78	23	0	0	90	36.1581920903955	36.241610738255	20	0.666737199947238	2	10	6	NaN	2	5	0.0189654617291481	1	1	NaN	136	3	10	1	121	221	321	NaN	521	0.392248476389796	1	0	NaN	3973707.0040878	NaN	3973707.9873736	3973708.50402392
78	23	0	0	90	36.1581920903955	36.241610738255	14	0.466716039963067	2	1	5	NaN	1	5	0.0189654617291481	1	1	NaN	137	3	11	1	121	221	321	NaN	521	0.0598351443186402	2	0	NaN	3973709.7043209	NaN	3973710.6877492	3973711.20429976
78	23	0	0	90	36.1581920903955	36.241610738255	6	0.200021159984171	2	4	2	NaN	1	5	0.0189654617291481	1	1	NaN	138	3	12	1	121	221	321	NaN	521	0.0103941280394793	1	1	NaN	3973712.0711211	NaN	3973713.0546504	3973713.57118647
78	23	0	0	90	36.1581920903955	36.241610738255	13	0.433379179965705	2	12	6	NaN	2	4	0.0189654617291481	1	1	NaN	139	3	13	1	121	221	321	NaN	521	0.0104061281308532	2	1	NaN	3973714.3881554	NaN	3973715.3715349	3973715.88809007
78	23	0	0	90	36.1581920903955	36.241610738255	15	0.500052899960428	2	7	6	NaN	2	4	0.0189654617291481	1	1	NaN	140	3	14	1	121	221	321	NaN	521	0.289519427809864	2	1	NaN	3973716.7383447	NaN	3973717.7217622	3973718.23832547
78	23	0	0	90	36.1581920903955	36.241610738255	18	0.600063479952514	2	1	3	NaN	1	5	0.0189654617291481	1	1	NaN	141	3	15	1	121	221	321	NaN	521	0.0104264765977859	1	1	NaN	3973719.3386418	NaN	3973720.3220299	3973720.83856142
78	23	0	0	90	36.1581920903955	36.241610738255	11	0.366705459970981	2	2	1	NaN	1	4	0.0189654617291481	1	1	NaN	142	3	16	1	121	221	321	NaN	521	0.0368628283031285	2	0	NaN	3973721.6555332	NaN	3973722.6389057	3973723.15546157
78	23	0	0	90	36.1581920903955	36.241610738255	22	0.733410919941962	2	8	1	NaN	2	5	0.0189654617291481	1	1	NaN	143	3	17	1	121	221	321	NaN	521	0.0226820278912783	2	1	NaN	3973724.0057562	NaN	3973724.9891513	3973725.50570027
78	23	0	0	90	36.1581920903955	36.241610738255	9	0.300031739976257	2	11	2	NaN	2	4	0.0189654617291481	1	1	NaN	144	3	18	1	121	221	321	NaN	521	0.17720602825284	1	0	NaN	3973726.3393031	NaN	3973727.3227003	3973727.83926337
78	23	0	0	90	36.1581920903955	36.241610738255	12	0.400042319968343	2	12	5	NaN	2	5	0.0189654617291481	1	1	NaN	145	3	19	1	121	221	321	NaN	521	0.628525476437062	2	1	NaN	3973728.8394246	NaN	3973729.8229508	3973730.33949502
78	23	0	0	90	36.1581920903955	36.241610738255	6	0.200021159984171	2	3	3	NaN	1	3	0.0189654617291481	1	1	NaN	146	3	20	1	121	221	321	NaN	521	0.390132428146899	1	1	NaN	3973731.7898745	NaN	3973732.773215	3973733.28979337
78	23	0	0	90	36.1581920903955	36.241610738255	24	0.800084639936686	2	1	2	NaN	1	3	0.0189654617291481	1	1	NaN	147	3	21	1	121	221	321	NaN	521	0.27422067662701	1	1	NaN	3973734.4900651	NaN	3973735.4735187	3973735.99004972
78	23	0	0	90	36.1581920903955	36.241610738255	11	0.366705459970981	2	5	2	NaN	1	4	0.0189654617291481	1	1	NaN	148	3	22	1	121	221	321	NaN	521	0.290752076543868	2	0	NaN	3973737.0737044	NaN	3973738.0570895	3973738.57363772
78	23	0	0	90	36.1581920903955	36.241610738255	21	0.7000740599446	2	3	4	NaN	1	4	0.0189654617291481	1	1	NaN	149	3	23	1	121	221	321	NaN	521	0.618159376550466	2	0	NaN	3973739.6739708	NaN	3973740.6573367	3973741.17389212
78	23	0	0	90	36.1581920903955	36.241610738255	12	0.400042319968343	2	6	4	NaN	1	4	0.0189654617291481	1	1	NaN	150	3	24	1	121	221	321	NaN	521	0.333007328212261	1	1	NaN	3973742.8075063	NaN	3973743.7910018	3973744.30754017
78	23	0	0	90	36.1581920903955	36.241610738255	19	0.633400339949876	2	9	3	NaN	2	4	0.0189654617291481	1	1	NaN	151	3	25	1	121	221	321	NaN	521	0.306374976877123	2	1	NaN	3973745.4578748	NaN	3973746.4412751	3973746.95779372
78	23	0	0	90	36.1581920903955	36.241610738255	25	0.833421499934047	2	6	4	NaN	1	4	0.0189654617291481	1	1	NaN	152	3	26	1	121	221	321	NaN	521	0.449727976694703	2	0	NaN	3973748.0747802	NaN	3973749.0581668	3973749.57473012
78	23	0	0	90	36.1581920903955	36.241610738255	17	0.566726619955152	2	2	1	NaN	1	3	0.0189654617291481	1	1	NaN	153	3	27	1	121	221	321	NaN	521	0.290953476447612	2	0	NaN	3973750.8417112	NaN	3973751.825124	3973752.34166002
78	23	0	0	90	36.1581920903955	36.241610738255	14	0.466716039963067	2	9	3	NaN	2	3	0.0189654617291481	1	1	NaN	154	3	28	1	121	221	321	NaN	521	1.57037357613444	1	0	NaN	3973753.4419746	NaN	3973754.425363	3973754.94192302
78	23	0	0	90	36.1581920903955	36.241610738255	0	0	1	4	1	NaN	1	3	0.0189654617291481	1	1	NaN	155	3	29	1	111	211	311	NaN	511	0.934441076591611	1	1	NaN	3973757.325692	NaN	3973758.3090881	3973758.82562702
78	23	0	0	90	36.1581920903955	36.241610738255	25	0.833421499934047	2	12	3	NaN	2	3	0.0189654617291481	1	1	NaN	156	3	30	1	121	221	321	NaN	521	0.42860239231959	2	1	NaN	3973760.5760044	NaN	3973761.5594081	3973762.07595841
78	23	0	0	90	36.1581920903955	36.241610738255	16	0.53338975995779	2	5	6	NaN	1	3	0.0189654617291481	1	1	NaN	157	3	31	1	121	221	321	NaN	521	0.302679576445371	2	0	NaN	3973763.3096172	NaN	3973764.2930313	3973764.80955002
78	23	0	0	90	36.1581920903955	36.241610738255	13	0.433379179965705	2	11	2	NaN	2	3	0.0189654617291481	1	1	NaN	158	3	32	1	121	221	321	NaN	521	0.35781267657876	2	1	NaN	3973765.9265388	NaN	3973766.9099624	3973767.42648152
78	23	0	0	90	36.1581920903955	36.241610738255	12	0.400042319968343	2	9	6	NaN	2	3	0.0189654617291481	1	1	NaN	159	3	33	1	121	221	321	NaN	521	0.70709032472223	2	1	NaN	3973768.5934507	NaN	3973769.5768614	3973770.09340718
78	23	0	0	90	36.1581920903955	36.241610738255	25	0.833421499934047	2	10	2	NaN	2	4	0.0189654617291481	1	1	NaN	160	3	34	1	121	221	321	NaN	521	0.393985628150403	2	1	NaN	3973771.6104145	NaN	3973772.5938152	3973773.11036987
78	23	0	0	90	36.1581920903955	36.241610738255	7	0.233358019981533	2	8	2	NaN	2	3	0.0189654617291481	1	1	NaN	161	3	35	1	121	221	321	NaN	521	0.413800876587629	2	1	NaN	3973774.3106811	NaN	3973775.2941025	3973775.81062832
78	23	0	0	90	36.1581920903955	36.241610738255	22	0.733410919941962	2	4	2	NaN	1	3	0.0189654617291481	1	1	NaN	162	3	36	1	121	221	321	NaN	521	1.22400932805613	2	0	NaN	3973777.0442845	NaN	3973778.0276821	3973778.54423777
78	23	0	0	90	36.1581920903955	36.241610738255	18	0.600063479952514	2	10	6	NaN	2	3	0.0189654617291481	1	1	NaN	163	3	37	1	121	221	321	NaN	521	0.826159176882356	2	1	NaN	3973780.5779705	NaN	3973781.5613723	3973782.07791082
78	23	0	0	90	36.1581920903955	36.241610738255	10	0.333368599973619	2	6	2	NaN	1	3	0.0189654617291481	1	1	NaN	164	3	38	1	121	221	321	NaN	521	0.904350476339459	2	0	NaN	3973783.8283169	NaN	3973784.8116679	3973785.32824252
78	23	0	0	90	36.1581920903955	36.241610738255	19	0.633400339949876	2	3	2	NaN	1	5	0.0189654617291481	1	1	NaN	165	3	39	1	121	221	321	NaN	521	0.231134776491672	1	1	NaN	3973787.0452829	NaN	3973788.0286738	3973788.54523632
78	23	0	0	90	36.1581920903955	36.241610738255	14	0.466716039963067	2	4	1	NaN	1	3	0.0189654617291481	1	1	NaN	166	3	40	1	121	221	321	NaN	521	0.384979924187064	1	1	NaN	3973789.5955328	NaN	3973790.5789075	3973791.09547058
78	23	0	0	90	36.1581920903955	36.241610738255	18	0.600063479952514	2	8	1	NaN	2	4	0.0189654617291481	1	1	NaN	167	3	41	1	121	221	321	NaN	521	0.380793776828796	2	1	NaN	3973792.2957926	NaN	3973793.2791898	3973793.79572932
78	23	0	0	90	36.1581920903955	36.241610738255	11	0.366705459970981	2	4	4	NaN	1	4	0.0189654617291481	1	1	NaN	168	3	42	1	121	221	321	NaN	521	0.44865027628839	2	0	NaN	3973794.996044	NaN	3973795.9794484	3973796.49599772
78	23	0	0	90	36.1581920903955	36.241610738255	24	0.800084639936686	2	3	5	NaN	1	3	0.0189654617291481	1	1	NaN	169	3	43	1	121	221	321	NaN	521	0.305700228083879	1	1	NaN	3973797.7630076	NaN	3973798.7463983	3973799.26294317
78	23	0	0	90	36.1581920903955	36.241610738255	22	0.733410919941962	2	3	2	NaN	1	5	0.0189654617291481	1	1	NaN	170	3	44	1	121	221	321	NaN	521	1.00054792454466	1	1	NaN	3973800.3799144	NaN	3973801.3633137	3973801.87986668
78	23	0	0	90	36.1581920903955	36.241610738255	18	0.600063479952514	2	7	2	NaN	2	5	0.0189654617291481	1	1	NaN	171	3	45	1	121	221	321	NaN	521	0.443748776335269	1	0	NaN	3973803.6969262	NaN	3973804.6803377	3973805.19685162
78	23	0	0	90	36.1581920903955	36.241610738255	9	0.300031739976257	2	11	3	NaN	2	4	0.0189654617291481	1	1	NaN	172	3	46	1	121	221	321	NaN	521	0.725163876544684	2	1	NaN	3973806.4470632	NaN	3973807.430583	3973807.94712032
78	23	0	0	90	36.1581920903955	36.241610738255	8	0.266694879978895	2	9	1	NaN	2	5	0.0189654617291481	1	1	NaN	173	3	47	1	121	221	321	NaN	521	0.275840084068477	1	0	NaN	3973809.4808298	NaN	3973810.4642056	3973810.98076402
78	23	0	0	90	36.1581920903955	36.241610738255	8	0.266694879978895	2	1	4	NaN	1	5	0.0189654617291481	1	1	NaN	174	3	48	1	121	221	321	NaN	521	1.68430047668517	2	0	NaN	3973812.0642753	NaN	3973813.0477824	3973813.56434242
78	23	0	0	90	36.1581920903955	36.241610738255	24	0.800084639936686	2	5	1	NaN	1	5	0.0189654617291481	1	1	NaN	175	3	49	1	121	221	321	NaN	521	0.411440092138946	2	0	NaN	3973816.0647965	NaN	3973817.0482028	3973817.56474031
78	23	0	0	90	36.1581920903955	36.241610738255	10	0.333368599973619	2	8	4	NaN	2	3	0.0189654617291481	1	1	NaN	176	3	50	1	121	221	321	NaN	521	0.950610924512148	2	1	NaN	3973818.7815584	NaN	3973819.7651207	3973820.28166358
78	23	0	0	90	36.1581920903955	36.241610738255	14	0.466716039963067	2	3	2	NaN	1	4	0.0189654617291481	1	1	NaN	177	3	51	1	121	221	321	NaN	521	0.252644876483828	1	1	NaN	3973822.032058	NaN	3973823.0154438	3973823.53198702
78	23	0	0	90	36.1581920903955	36.241610738255	0	0	1	2	6	NaN	1	5	0.0189654617291481	1	1	NaN	178	3	52	1	111	211	311	NaN	511	1.37358237663284	1	1	NaN	3973824.5989634	NaN	3973825.582354	3973826.09890832
78	23	0	0	90	36.1581920903955	36.241610738255	9	0.300031739976257	2	8	3	NaN	2	4	0.0189654617291481	1	1	NaN	179	3	53	1	121	221	321	NaN	521	0.0816289647482336	1	0	NaN	3973828.2827519	NaN	3973829.2660571	3973829.78259964
78	23	0	0	90	36.1581920903955	36.241610738255	10	0.333368599973619	2	4	1	NaN	1	4	0.0189654617291481	1	1	NaN	180	3	54	1	121	221	321	NaN	521	0.513685576152056	1	1	NaN	3973830.6828908	NaN	3973831.6661881	3973832.18283292
78	23	0	0	90	36.1581920903955	36.241610738255	17	0.566726619955152	2	4	2	NaN	1	5	0.0189654617291481	1	1	NaN	181	3	55	1	121	221	321	NaN	521	0.752470544073731	1	1	NaN	3973833.4998472	NaN	3973834.4832376	3973834.99978916
78	23	0	0	90	36.1581920903955	36.241610738255	23	0.766747779939324	2	12	5	NaN	2	5	0.0189654617291481	1	1	NaN	182	3	56	1	121	221	321	NaN	521	0.429529928136617	2	1	NaN	3973836.5668021	NaN	3973837.5502017	3973838.06675427
78	23	0	0	90	36.1581920903955	36.241610738255	0	0	1	7	5	NaN	2	3	0.0189654617291481	1	1	NaN	183	3	57	1	111	211	311	NaN	511	0.199505384080112	1	0	NaN	3973839.3170477	NaN	3973840.3004793	3973840.81701572
78	23	0	0	90	36.1581920903955	36.241610738255	14	0.466716039963067	2	9	2	NaN	2	3	0.0189654617291481	1	1	NaN	184	3	58	1	121	221	321	NaN	521	0.219057828187943	1	0	NaN	3973841.8171906	NaN	3973842.8007122	3973843.31726957
78	23	0	0	90	36.1581920903955	36.241610738255	15	0.500052899960428	2	8	6	NaN	2	4	0.0189654617291481	1	1	NaN	185	3	59	1	121	221	321	NaN	521	1.57350087631494	2	1	NaN	3973844.3509059	NaN	3973845.3343644	3973845.85084462
78	23	0	0	90	36.1581920903955	36.241610738255	12	0.400042319968343	2	11	1	NaN	2	3	0.0189654617291481	1	1	NaN	186	3	60	1	121	221	321	NaN	521	0.153764628339559	2	1	NaN	3973848.2346166	NaN	3973849.2180211	3973849.73456037
78	23	0	0	90	36.1581920903955	36.241610738255	15	0.500052899960428	2	3	6	NaN	1	5	0.0189654617291481	1	1	NaN	187	3	61	1	121	221	321	NaN	521	0.463199280202389	2	0	NaN	3973850.7015155	NaN	3973851.6849368	3973852.20147942
78	23	0	0	90	36.1581920903955	36.241610738255	23	0.766747779939324	2	4	4	NaN	1	4	0.0189654617291481	1	1	NaN	188	3	62	1	121	221	321	NaN	521	0.34398582438007	2	0	NaN	3973853.4684858	NaN	3973854.4519106	3973854.96840378
78	23	0	0	90	36.1581920903955	36.241610738255	6	0.200021159984171	2	12	5	NaN	2	3	0.0189654617291481	1	1	NaN	189	3	63	1	121	221	321	NaN	521	0.557332076597959	2	1	NaN	3973856.1353926	NaN	3973857.118788	3973857.63533262
78	23	0	0	90	36.1581920903955	36.241610738255	6	0.200021159984171	2	6	5	NaN	1	5	0.0189654617291481	1	1	NaN	190	4	1	1	121	221	321	NaN	521	2.53990317648277	1	1	NaN	3973864.7528088	NaN	3973865.7363039	3973866.25284412
78	23	0	0	90	36.1581920903955	36.241610738255	6	0.200021159984171	2	10	2	NaN	2	3	0.0189654617291481	1	1	NaN	191	4	2	1	121	221	321	NaN	521	0.521058884449303	2	1	NaN	3973869.6033717	NaN	3973870.5868352	3973871.10333442
78	23	0	0	90	36.1581920903955	36.241610738255	14	0.466716039963067	2	4	5	NaN	1	5	0.0189654617291481	1	1	NaN	192	4	3	1	121	221	321	NaN	521	0.615458176471293	2	0	NaN	3973872.4369816	NaN	3973873.4203947	3973873.93693662
78	23	0	0	90	36.1581920903955	36.241610738255	15	0.500052899960428	2	5	4	NaN	1	3	0.0189654617291481	1	1	NaN	193	4	4	1	121	221	321	NaN	521	0.409839076455683	2	0	NaN	3973875.3706359	NaN	3973876.3540114	3973876.87055902
78	23	0	0	90	36.1581920903955	36.241610738255	8	0.266694879978895	2	6	3	NaN	1	5	0.0189654617291481	1	1	NaN	194	4	5	1	121	221	321	NaN	521	0.700961076654494	1	1	NaN	3973878.0875495	NaN	3973879.0709264	3973879.58749782
78	23	0	0	90	36.1581920903955	36.241610738255	9	0.300031739976257	2	5	5	NaN	1	5	0.0189654617291481	1	1	NaN	195	4	6	1	121	221	321	NaN	521	0.300001576542854	2	0	NaN	3973881.1045414	NaN	3973882.0878925	3973882.60445072
78	23	0	0	90	36.1581920903955	36.241610738255	19	0.633400339949876	2	5	2	NaN	1	4	0.0189654617291481	1	1	NaN	196	4	7	1	121	221	321	NaN	521	0.522978976368904	2	0	NaN	3973883.7214466	NaN	3973884.7048358	3973885.22137722
78	23	0	0	90	36.1581920903955	36.241610738255	24	0.800084639936686	2	1	3	NaN	1	5	0.0189654617291481	1	1	NaN	197	4	8	1	121	221	321	NaN	521	1.34901572857052	2	0	NaN	3973886.671721	NaN	3973887.655107	3973888.17167547
78	23	0	0	90	36.1581920903955	36.241610738255	25	0.833421499934047	2	5	2	NaN	1	5	0.0189654617291481	1	1	NaN	198	4	9	1	121	221	321	NaN	521	0.338103928137571	1	1	NaN	3973890.3386512	NaN	3973891.3221253	3973891.83870357
78	23	0	0	90	36.1581920903955	36.241610738255	20	0.666737199947238	2	4	4	NaN	1	5	0.0189654617291481	1	1	NaN	199	4	10	1	121	221	321	NaN	521	0.287651376798749	1	1	NaN	3973892.9888779	NaN	3973893.9724105	3973894.48896342
78	23	0	0	90	36.1581920903955	36.241610738255	16	0.53338975995779	2	9	5	NaN	2	5	0.0189654617291481	1	1	NaN	200	4	11	1	121	221	321	NaN	521	0.711221376433969	1	0	NaN	3973895.5892847	NaN	3973896.5726595	3973897.08921062
78	23	0	0	90	36.1581920903955	36.241610738255	14	0.466716039963067	2	7	1	NaN	2	5	0.0189654617291481	1	1	NaN	201	4	12	1	121	221	321	NaN	521	0.445750876795501	2	1	NaN	3973898.6229178	NaN	3973899.6062762	3973900.12285052
78	23	0	0	90	36.1581920903955	36.241610738255	22	0.733410919941962	2	2	5	NaN	1	4	0.0189654617291481	1	1	NaN	202	4	13	1	121	221	321	NaN	521	0.526900628581643	2	0	NaN	3973901.389766	NaN	3973902.3732569	3973902.88979007
78	23	0	0	90	36.1581920903955	36.241610738255	13	0.433379179965705	2	11	5	NaN	2	5	0.0189654617291481	1	1	NaN	203	4	14	1	121	221	321	NaN	521	1.18869342794642	2	1	NaN	3973904.2234396	NaN	3973905.2068913	3973905.72339707
78	23	0	0	90	36.1581920903955	36.241610738255	18	0.600063479952514	2	9	6	NaN	2	4	0.0189654617291481	1	1	NaN	204	4	15	1	121	221	321	NaN	521	0.128746276721358	1	0	NaN	3973907.7238234	NaN	3973908.7072235	3973909.22373242
78	23	0	0	90	36.1581920903955	36.241610738255	21	0.7000740599446	2	11	4	NaN	2	4	0.0189654617291481	1	1	NaN	205	4	16	1	121	221	321	NaN	521	0.470794576685876	2	1	NaN	3973910.1740324	NaN	3973911.1574379	3973911.67398132
78	23	0	0	90	36.1581920903955	36.241610738255	10	0.333368599973619	2	6	5	NaN	1	3	0.0189654617291481	1	1	NaN	206	4	17	1	121	221	321	NaN	521	0.0868116766214371	1	1	NaN	3973912.9576363	NaN	3973913.9410396	3973914.45758412
78	23	0	0	90	36.1581920903955	36.241610738255	14	0.466716039963067	2	12	2	NaN	2	5	0.0189654617291481	1	1	NaN	207	4	18	1	121	221	321	NaN	521	0.406513324007392	1	0	NaN	3973915.3578793	NaN	3973916.3412636	3973916.85782398
78	23	0	0	90	36.1581920903955	36.241610738255	22	0.733410919941962	2	6	1	NaN	1	5	0.0189654617291481	1	1	NaN	208	4	19	1	121	221	321	NaN	521	0.417650024406612	2	0	NaN	3973918.0748034	NaN	3973919.0582125	3973919.57475168
78	23	0	0	90	36.1581920903955	36.241610738255	14	0.466716039963067	2	12	2	NaN	2	4	0.0189654617291481	1	1	NaN	209	4	20	1	121	221	321	NaN	521	0.237019676715136	1	0	NaN	3973920.7917512	NaN	3973921.7751687	3973922.29169252
78	23	0	0	90	36.1581920903955	36.241610738255	0	0	1	10	4	NaN	2	4	0.0189654617291481	1	1	NaN	210	4	21	1	111	211	311	NaN	511	0.462820776272565	2	1	NaN	3973923.342008	NaN	3973924.3253901	3973924.84193782
78	23	0	0	90	36.1581920903955	36.241610738255	7	0.233358019981533	2	2	3	NaN	1	3	0.0189654617291481	1	1	NaN	211	4	22	1	121	221	321	NaN	521	2.14273909246549	2	0	NaN	3973926.1255984	NaN	3973927.1089997	3973927.62555291
78	23	0	0	90	36.1581920903955	36.241610738255	15	0.500052899960428	2	9	2	NaN	2	4	0.0189654617291481	1	1	NaN	212	4	23	1	121	221	321	NaN	521	0.348419176414609	1	0	NaN	3973930.5761258	NaN	3973931.5594171	3973932.07597982
78	23	0	0	90	36.1581920903955	36.241610738255	16	0.53338975995779	2	9	6	NaN	2	4	0.0189654617291481	1	1	NaN	213	4	24	1	121	221	321	NaN	521	0.241638396400958	1	0	NaN	3973933.2429967	NaN	3973934.2263749	3973934.7429159
78	23	0	0	90	36.1581920903955	36.241610738255	17	0.566726619955152	2	1	4	NaN	1	5	0.0189654617291481	1	1	NaN	214	4	25	1	121	221	321	NaN	521	0.403574024327099	1	1	NaN	3973935.7932344	NaN	3973936.7766189	3973937.29316658
78	23	0	0	90	36.1581920903955	36.241610738255	7	0.233358019981533	2	5	4	NaN	1	4	0.0189654617291481	1	1	NaN	215	4	26	1	121	221	321	NaN	521	0.326664928346872	1	1	NaN	3973938.510177	NaN	3973939.4935439	3973940.01010397
78	23	0	0	90	36.1581920903955	36.241610738255	19	0.633400339949876	2	8	5	NaN	2	3	0.0189654617291481	1	1	NaN	216	4	27	1	121	221	321	NaN	521	0.244834376499057	1	0	NaN	3973941.1437468	NaN	3973942.1271427	3973942.64368372
78	23	0	0	90	36.1581920903955	36.241610738255	18	0.600063479952514	2	11	1	NaN	2	3	0.0189654617291481	1	1	NaN	217	4	28	1	121	221	321	NaN	521	0.941932828165591	2	1	NaN	3973943.710679	NaN	3973944.6940497	3973945.21061067
78	23	0	0	90	36.1581920903955	36.241610738255	24	0.800084639936686	2	4	5	NaN	1	3	0.0189654617291481	1	1	NaN	218	4	29	1	121	221	321	NaN	521	0.25184612814337	1	1	NaN	3973946.9609784	NaN	3973947.9443543	3973948.46093287
78	23	0	0	90	36.1581920903955	36.241610738255	8	0.266694879978895	2	9	6	NaN	2	4	0.0189654617291481	1	1	NaN	219	4	30	1	121	221	321	NaN	521	0.556512928102165	2	1	NaN	3973949.5278931	NaN	3973950.511293	3973951.02785167
78	23	0	0	90	36.1581920903955	36.241610738255	10	0.333368599973619	2	2	2	NaN	1	4	0.0189654617291481	1	1	NaN	220	4	31	1	121	221	321	NaN	521	0.329843976534903	1	1	NaN	3973952.3948605	NaN	3973953.378249	3973953.89478882
78	23	0	0	90	36.1581920903955	36.241610738255	16	0.53338975995779	2	10	3	NaN	2	4	0.0189654617291481	1	1	NaN	221	4	32	1	121	221	321	NaN	521	0.367694324348122	2	1	NaN	3973955.0451044	NaN	3973956.0285086	3973956.54504628
78	23	0	0	90	36.1581920903955	36.241610738255	18	0.600063479952514	2	3	6	NaN	1	4	0.0189654617291481	1	1	NaN	222	4	33	1	121	221	321	NaN	521	2.11620747670531	1	1	NaN	3973957.7287512	NaN	3973958.7120999	3973959.22864332
78	23	0	0	90	36.1581920903955	36.241610738255	11	0.366705459970981	2	5	4	NaN	1	3	0.0189654617291481	1	1	NaN	223	4	34	1	121	221	321	NaN	521	0.394386824220419	2	0	NaN	3973962.1624664	NaN	3973963.1458731	3973963.66241828
78	23	0	0	90	36.1581920903955	36.241610738255	22	0.733410919941962	2	10	6	NaN	2	3	0.0189654617291481	1	1	NaN	224	4	35	1	121	221	321	NaN	521	0.301339476369321	2	1	NaN	3973964.8794155	NaN	3973965.8628242	3973966.37934912
78	23	0	0	90	36.1581920903955	36.241610738255	17	0.566726619955152	2	3	5	NaN	1	5	0.0189654617291481	1	1	NaN	225	4	36	1	121	221	321	NaN	521	0.372304724063724	2	0	NaN	3973967.496321	NaN	3973968.4797275	3973968.99627158
78	23	0	0	90	36.1581920903955	36.241610738255	11	0.366705459970981	2	9	2	NaN	2	3	0.0189654617291481	1	1	NaN	226	4	37	1	121	221	321	NaN	521	0.232928176410496	1	0	NaN	3973970.1799439	NaN	3973971.1633276	3973971.67988292
78	23	0	0	90	36.1581920903955	36.241610738255	24	0.800084639936686	2	11	2	NaN	2	5	0.0189654617291481	1	1	NaN	227	4	38	1	121	221	321	NaN	521	0.338724576402456	2	1	NaN	3973972.730179	NaN	3973973.7136159	3973974.23012132
78	23	0	0	90	36.1581920903955	36.241610738255	6	0.200021159984171	2	5	2	NaN	1	5	0.0189654617291481	1	1	NaN	228	4	39	1	121	221	321	NaN	521	0.248071228619665	1	1	NaN	3973975.3804336	NaN	3973976.363839	3973976.88038117
78	23	0	0	90	36.1581920903955	36.241610738255	7	0.233358019981533	2	6	1	NaN	1	5	0.0189654617291481	1	1	NaN	229	4	40	1	121	221	321	NaN	521	0.233467624522746	1	1	NaN	3973977.9473492	NaN	3973978.9307487	3973979.44729738
78	23	0	0	90	36.1581920903955	36.241610738255	6	0.200021159984171	2	7	1	NaN	2	4	0.0189654617291481	1	1	NaN	230	4	41	1	121	221	321	NaN	521	0.306896176189184	1	0	NaN	3973980.4976215	NaN	3973981.4810049	3973981.99754642
78	23	0	0	90	36.1581920903955	36.241610738255	14	0.466716039963067	2	1	2	NaN	1	3	0.0189654617291481	1	1	NaN	231	4	42	1	121	221	321	NaN	521	0.273906424641609	1	1	NaN	3973983.1144169	NaN	3973984.097997	3973984.61446938
78	23	0	0	90	36.1581920903955	36.241610738255	20	0.666737199947238	2	11	1	NaN	2	5	0.0189654617291481	1	1	NaN	232	4	43	1	121	221	321	NaN	521	0.818385428283364	1	0	NaN	3973985.698136	NaN	3973986.6815293	3973987.19807127
78	23	0	0	90	36.1581920903955	36.241610738255	24	0.800084639936686	2	6	4	NaN	1	3	0.0189654617291481	1	1	NaN	233	4	44	1	121	221	321	NaN	521	0.0103799803182483	2	0	NaN	3973988.8317503	NaN	3973989.8151525	3973990.33170792
78	23	0	0	90	36.1581920903955	36.241610738255	18	0.600063479952514	2	3	1	NaN	1	3	0.0189654617291481	1	1	NaN	234	4	45	1	121	221	321	NaN	521	0.248375176917762	2	0	NaN	3973991.1487118	NaN	3973992.132057	3973992.64859252
78	23	0	0	90	36.1581920903955	36.241610738255	21	0.7000740599446	2	12	4	NaN	2	5	0.0189654617291481	1	1	NaN	235	4	46	1	121	221	321	NaN	521	0.305091472808272	2	1	NaN	3973993.7155712	NaN	3973994.6989778	3973995.21551113
78	23	0	0	90	36.1581920903955	36.241610738255	24	0.800084639936686	2	10	5	NaN	2	3	0.0189654617291481	1	1	NaN	236	4	47	1	121	221	321	NaN	521	0.424138876609504	1	0	NaN	3973996.3324898	NaN	3973997.3158943	3973997.83243462
78	23	0	0	90	36.1581920903955	36.241610738255	17	0.566726619955152	2	10	4	NaN	2	4	0.0189654617291481	1	1	NaN	237	4	48	1	121	221	321	NaN	521	1.04283192474395	1	0	NaN	3973999.0660822	NaN	3974000.049494	3974000.56603818
78	23	0	0	90	36.1581920903955	36.241610738255	19	0.633400339949876	2	7	3	NaN	2	3	0.0189654617291481	1	1	NaN	238	4	49	1	121	221	321	NaN	521	0.435787176713347	2	1	NaN	3974002.4331023	NaN	3974003.416512	3974003.93303332
78	23	0	0	90	36.1581920903955	36.241610738255	11	0.366705459970981	2	1	6	NaN	1	5	0.0189654617291481	1	1	NaN	239	4	50	1	121	221	321	NaN	521	0.293350076302886	2	0	NaN	3974005.183368	NaN	3974006.1667471	3974006.68330422
78	23	0	0	90	36.1581920903955	36.241610738255	14	0.466716039963067	2	5	3	NaN	1	5	0.0189654617291481	1	1	NaN	240	4	51	1	121	221	321	NaN	521	1.14089218433946	1	1	NaN	3974007.7836257	NaN	3974008.7670233	3974009.28356392
78	23	0	0	90	36.1581920903955	36.241610738255	10	0.333368599973619	2	10	1	NaN	2	3	0.0189654617291481	1	1	NaN	241	4	52	1	121	221	321	NaN	521	0.314962428063154	1	0	NaN	3974011.2339793	NaN	3974012.2173614	3974012.73390667
78	23	0	0	90	36.1581920903955	36.241610738255	13	0.433379179965705	2	4	1	NaN	1	5	0.0189654617291481	1	1	NaN	242	4	53	1	121	221	321	NaN	521	0.010424324311316	1	1	NaN	3974013.8675677	NaN	3974014.8509589	3974015.36748898
78	23	0	0	90	36.1581920903955	36.241610738255	10	0.333368599973619	2	1	3	NaN	1	4	0.0189654617291481	1	1	NaN	243	4	54	1	121	221	321	NaN	521	0.140498676337302	2	0	NaN	3974016.1843499	NaN	3974017.1678401	3974017.68438652
78	23	0	0	90	36.1581920903955	36.241610738255	16	0.53338975995779	2	11	4	NaN	2	3	0.0189654617291481	1	1	NaN	244	4	55	1	121	221	321	NaN	521	0.274058776441962	2	1	NaN	3974018.6345589	NaN	3974019.6180858	3974020.13462492
78	23	0	0	90	36.1581920903955	36.241610738255	20	0.666737199947238	2	9	4	NaN	2	5	0.0189654617291481	1	1	NaN	245	4	56	1	121	221	321	NaN	521	0.314512728247792	1	0	NaN	3974021.218273	NaN	3974022.2016611	3974022.71822677
78	23	0	0	90	36.1581920903955	36.241610738255	20	0.666737199947238	2	1	2	NaN	1	4	0.0189654617291481	1	1	NaN	246	4	57	1	121	221	321	NaN	521	0.424702772404999	1	1	NaN	3974023.8518787	NaN	3974024.8352579	3974025.35180613
78	23	0	0	90	36.1581920903955	36.241610738255	20	0.666737199947238	2	8	2	NaN	2	5	0.0189654617291481	1	1	NaN	247	4	58	1	121	221	321	NaN	521	0.275480044074357	2	1	NaN	3974026.5854597	NaN	3974027.568858	3974028.08541236
78	23	0	0	90	36.1581920903955	36.241610738255	23	0.766747779939324	2	7	6	NaN	2	5	0.0189654617291481	1	1	NaN	248	4	59	1	121	221	321	NaN	521	0.483837187755853	2	1	NaN	3974029.1690532	NaN	3974030.1524545	3974030.66900971
78	23	0	0	90	36.1581920903955	36.241610738255	11	0.366705459970981	2	12	4	NaN	2	5	0.0189654617291481	1	1	NaN	249	4	60	1	121	221	321	NaN	521	0.291348776314408	2	1	NaN	3974031.9693291	NaN	3974032.9527228	3974033.46927802
78	23	0	0	90	36.1581920903955	36.241610738255	11	0.366705459970981	2	8	1	NaN	2	5	0.0189654617291481	1	1	NaN	250	4	61	1	121	221	321	NaN	521	0.418813344091177	2	1	NaN	3974034.5695952	NaN	3974035.5529823	3974036.06954206
78	23	0	0	90	36.1581920903955	36.241610738255	25	0.833421499934047	2	8	4	NaN	2	3	0.0189654617291481	1	1	NaN	251	4	62	1	121	221	321	NaN	521	1.17349137645215	1	0	NaN	3974037.3031795	NaN	3974038.2865585	3974038.80313662
78	23	0	0	90	36.1581920903955	36.241610738255	8	0.266694879978895	2	1	3	NaN	1	3	0.0189654617291481	1	1	NaN	252	4	63	1	121	221	321	NaN	521	0.271824772935361	1	1	NaN	3974041.2369287	NaN	3974042.2203086	3974042.73684273
78	23	0	0	90	36.1581920903955	36.241610738255	12	0.400042319968343	2	11	5	NaN	2	4	0.0189654617291481	1	1	NaN	253	5	1	1	121	221	321	NaN	521	0.010396528057754	2	1	NaN	3974048.3209406	NaN	3974049.304352	3974049.82088777
78	23	0	0	90	36.1581920903955	36.241610738255	11	0.366705459970981	2	9	3	NaN	2	3	0.0189654617291481	1	1	NaN	254	5	2	1	121	221	321	NaN	521	0.010424624197185	2	1	NaN	3974050.654559	NaN	3974051.6379471	3974052.15444648
78	23	0	0	90	36.1581920903955	36.241610738255	11	0.366705459970981	2	2	3	NaN	1	4	0.0189654617291481	1	1	NaN	255	5	3	1	121	221	321	NaN	521	1.32963957637548	1	1	NaN	3974052.9713549	NaN	3974053.9547907	3974054.47133222
78	23	0	0	90	36.1581920903955	36.241610738255	16	0.53338975995779	2	4	3	NaN	1	5	0.0189654617291481	1	1	NaN	256	5	4	1	121	221	321	NaN	521	0.0104019283317029	1	1	NaN	3974056.6217457	NaN	3974057.6051343	3974058.12170257
78	23	0	0	90	36.1581920903955	36.241610738255	17	0.566726619955152	2	6	6	NaN	1	3	0.0189654617291481	1	1	NaN	257	5	5	1	121	221	321	NaN	521	0.185873276554048	1	1	NaN	3974058.9386587	NaN	3974059.9220564	3974060.43858342
78	23	0	0	90	36.1581920903955	36.241610738255	22	0.733410919941962	2	2	4	NaN	1	3	0.0189654617291481	1	1	NaN	258	5	6	1	121	221	321	NaN	521	0.269758476410061	1	1	NaN	3974061.4389957	NaN	3974062.4222789	3974062.93883242
78	23	0	0	90	36.1581920903955	36.241610738255	21	0.7000740599446	2	3	2	NaN	1	4	0.0189654617291481	1	1	NaN	259	5	7	1	121	221	321	NaN	521	0.262256876565516	1	1	NaN	3974064.0224418	NaN	3974065.0058763	3974065.52242432
78	23	0	0	90	36.1581920903955	36.241610738255	21	0.7000740599446	2	7	3	NaN	2	3	0.0189654617291481	1	1	NaN	260	5	8	1	121	221	321	NaN	521	0.406469776760787	2	1	NaN	3974066.6060483	NaN	3974067.5894546	3974068.10601182
78	23	0	0	90	36.1581920903955	36.241610738255	22	0.733410919941962	2	7	6	NaN	2	4	0.0189654617291481	1	1	NaN	261	5	9	1	121	221	321	NaN	521	0.46602192800492	2	1	NaN	3974069.322859	NaN	3974070.3064046	3974070.82295097
78	23	0	0	90	36.1581920903955	36.241610738255	11	0.366705459970981	2	6	1	NaN	1	4	0.0189654617291481	1	1	NaN	262	5	10	1	121	221	321	NaN	521	0.274205376859754	1	1	NaN	3974072.1065483	NaN	3974073.0899994	3974073.60655432
78	23	0	0	90	36.1581920903955	36.241610738255	18	0.600063479952514	2	5	5	NaN	1	3	0.0189654617291481	1	1	NaN	263	5	11	1	121	221	321	NaN	521	0.290598876774311	1	1	NaN	3974074.6902079	NaN	3974075.6735943	3974076.19013162
78	23	0	0	90	36.1581920903955	36.241610738255	9	0.300031739976257	2	6	5	NaN	1	3	0.0189654617291481	1	1	NaN	264	5	12	1	121	221	321	NaN	521	0.0104104764759541	1	1	NaN	3974077.2903202	NaN	3974078.2738479	3974078.79039642
78	23	0	0	90	36.1581920903955	36.241610738255	16	0.53338975995779	2	4	5	NaN	1	5	0.0189654617291481	1	1	NaN	265	5	13	1	121	221	321	NaN	521	0.22864932846278	1	1	NaN	3974079.6240098	NaN	3974080.6074052	3974081.12396247
78	23	0	0	90	36.1581920903955	36.241610738255	22	0.733410919941962	2	5	6	NaN	1	4	0.0189654617291481	1	1	NaN	266	5	14	1	121	221	321	NaN	521	0.276117876637727	1	1	NaN	3974082.2409607	NaN	3974083.2243627	3974083.74087752
78	23	0	0	90	36.1581920903955	36.241610738255	14	0.466716039963067	2	11	6	NaN	2	3	0.0189654617291481	1	1	NaN	267	5	15	1	121	221	321	NaN	521	0.0523717245087028	2	1	NaN	3974084.824394	NaN	3974085.807912	3974086.32446898
78	23	0	0	90	36.1581920903955	36.241610738255	16	0.53338975995779	2	3	2	NaN	1	4	0.0189654617291481	1	1	NaN	268	5	16	1	121	221	321	NaN	521	1.06121627241373	1	1	NaN	3974087.1914117	NaN	3974088.1748054	3974088.69135873
78	23	0	0	90	36.1581920903955	36.241610738255	6	0.200021159984171	2	8	5	NaN	2	5	0.0189654617291481	1	1	NaN	269	5	17	1	121	221	321	NaN	521	0.278021024540067	1	0	NaN	3974090.5750066	NaN	3974091.558481	3974092.07503218
78	23	0	0	90	36.1581920903955	36.241610738255	15	0.500052899960428	2	12	1	NaN	2	5	0.0189654617291481	1	1	NaN	270	5	18	1	121	221	321	NaN	521	0.38965249247849	1	0	NaN	3974093.1753337	NaN	3974094.1587624	3974094.67529191
78	23	0	0	90	36.1581920903955	36.241610738255	18	0.600063479952514	2	7	3	NaN	2	3	0.0189654617291481	1	1	NaN	271	5	19	1	121	221	321	NaN	521	0.305106424726546	2	1	NaN	3974095.8756339	NaN	3974096.8590382	3974097.37555128
78	23	0	0	90	36.1581920903955	36.241610738255	0	0	1	12	2	NaN	2	5	0.0189654617291481	1	1	NaN	272	5	20	1	111	211	311	NaN	511	0.368128228001297	2	1	NaN	3974098.4925267	NaN	3974099.4759182	3974099.99246917
78	23	0	0	90	36.1581920903955	36.241610738255	8	0.266694879978895	2	7	5	NaN	2	3	0.0189654617291481	1	1	NaN	273	5	21	1	121	221	321	NaN	521	0.404503628145903	2	1	NaN	3974101.176125	NaN	3974102.159501	3974102.67607737
78	23	0	0	90	36.1581920903955	36.241610738255	6	0.200021159984171	2	8	5	NaN	2	4	0.0189654617291481	1	1	NaN	274	5	22	1	121	221	321	NaN	521	0.271546327974647	2	1	NaN	3974103.8930547	NaN	3974104.8764464	3974105.39300757
78	23	0	0	90	36.1581920903955	36.241610738255	14	0.466716039963067	2	5	1	NaN	1	5	0.0189654617291481	1	1	NaN	275	5	23	1	121	221	321	NaN	521	0.280322728212923	2	0	NaN	3974106.4766568	NaN	3974107.4600694	3974107.97659867
78	23	0	0	90	36.1581920903955	36.241610738255	16	0.53338975995779	2	11	2	NaN	2	4	0.0189654617291481	1	1	NaN	276	5	24	1	121	221	321	NaN	521	0.472013676539063	1	0	NaN	3974109.0769122	NaN	3974110.0603016	3974110.57684292
78	23	0	0	90	36.1581920903955	36.241610738255	25	0.833421499934047	2	1	1	NaN	1	4	0.0189654617291481	1	1	NaN	277	5	25	1	121	221	321	NaN	521	0.232342076487839	2	0	NaN	3974111.8606117	NaN	3974112.8439189	3974113.36044812
78	23	0	0	90	36.1581920903955	36.241610738255	10	0.333368599973619	2	12	1	NaN	2	3	0.0189654617291481	1	1	NaN	278	5	26	1	121	221	321	NaN	521	0.306019423995167	1	0	NaN	3974114.4107535	NaN	3974115.3941635	3974115.91069848
78	23	0	0	90	36.1581920903955	36.241610738255	15	0.500052899960428	2	10	3	NaN	2	4	0.0189654617291481	1	1	NaN	279	5	27	1	121	221	321	NaN	521	0.473010876215994	2	1	NaN	3974117.027689	NaN	3974118.0110855	3974118.52762042
78	23	0	0	90	36.1581920903955	36.241610738255	22	0.733410919941962	2	5	1	NaN	1	3	0.0189654617291481	1	1	NaN	280	5	28	1	121	221	321	NaN	521	0.273838224355131	2	0	NaN	3974119.811158	NaN	3974120.7946611	3974121.31122958
78	23	0	0	90	36.1581920903955	36.241610738255	17	0.566726619955152	2	5	6	NaN	1	3	0.0189654617291481	1	1	NaN	281	5	29	1	121	221	321	NaN	521	0.369858636520803	2	0	NaN	3974122.3948825	NaN	3974123.3782813	3974123.89483056
78	23	0	0	90	36.1581920903955	36.241610738255	11	0.366705459970981	2	7	2	NaN	2	5	0.0189654617291481	1	1	NaN	282	5	30	1	121	221	321	NaN	521	0.43063182849437	2	1	NaN	3974125.0783543	NaN	3974126.0619102	3974126.57842307
78	23	0	0	90	36.1581920903955	36.241610738255	8	0.266694879978895	2	12	3	NaN	2	4	0.0189654617291481	1	1	NaN	283	5	31	1	121	221	321	NaN	521	0.37641099607572	2	1	NaN	3974127.8287528	NaN	3974128.8120213	3974129.3287013
78	23	0	0	90	36.1581920903955	36.241610738255	18	0.600063479952514	2	8	2	NaN	2	5	0.0189654617291481	1	1	NaN	284	5	32	1	121	221	321	NaN	521	0.291847624350339	2	1	NaN	3974130.5290094	NaN	3974131.512407	3974132.02894808
78	23	0	0	90	36.1581920903955	36.241610738255	24	0.800084639936686	2	2	3	NaN	1	4	0.0189654617291481	1	1	NaN	285	5	33	1	121	221	321	NaN	521	0.347499024122953	2	0	NaN	3974133.1292387	NaN	3974134.1126614	3974134.62920608
78	23	0	0	90	36.1581920903955	36.241610738255	12	0.400042319968343	2	4	6	NaN	1	4	0.0189654617291481	1	1	NaN	286	5	34	1	121	221	321	NaN	521	0.633565244264901	2	0	NaN	3974135.7795172	NaN	3974136.7629264	3974137.27946806
78	23	0	0	90	36.1581920903955	36.241610738255	0	0	1	6	5	NaN	1	4	0.0189654617291481	1	1	NaN	287	5	35	1	111	211	311	NaN	511	0.25934157660231	1	1	NaN	3974138.7297945	NaN	3974139.7132125	3974140.22976062
78	23	0	0	90	36.1581920903955	36.241610738255	19	0.633400339949876	2	10	4	NaN	2	3	0.0189654617291481	1	1	NaN	288	5	36	1	121	221	321	NaN	521	1.46831667609513	2	1	NaN	3974141.296732	NaN	3974142.2801111	3974142.79667272
78	23	0	0	90	36.1581920903955	36.241610738255	14	0.466716039963067	2	3	1	NaN	1	5	0.0189654617291481	1	1	NaN	289	5	37	1	121	221	321	NaN	521	0.108472328167409	2	0	NaN	3974145.0804549	NaN	3974146.0638367	3974146.58039007
78	23	0	0	90	36.1581920903955	36.241610738255	6	0.200021159984171	2	1	3	NaN	1	4	0.0189654617291481	1	1	NaN	290	5	38	1	121	221	321	NaN	521	0.259495124686509	1	1	NaN	3974147.497336	NaN	3974148.4807387	3974148.99727908
78	23	0	0	90	36.1581920903955	36.241610738255	12	0.400042319968343	2	5	3	NaN	1	4	0.0189654617291481	1	1	NaN	291	5	39	1	121	221	321	NaN	521	0.516606864519417	2	0	NaN	3974150.0642683	NaN	3974151.0476597	3974151.56419804
78	23	0	0	90	36.1581920903955	36.241610738255	24	0.800084639936686	2	10	2	NaN	2	3	0.0189654617291481	1	1	NaN	292	5	40	1	121	221	321	NaN	521	0.0270390762016177	1	0	NaN	3974152.8978784	NaN	3974153.8812609	3974154.39782352
78	23	0	0	90	36.1581920903955	36.241610738255	14	0.466716039963067	2	2	3	NaN	1	5	0.0189654617291481	1	1	NaN	293	5	41	1	121	221	321	NaN	521	0.325335528235883	1	1	NaN	3974155.2314401	NaN	3974156.2148591	3974156.73137757
78	23	0	0	90	36.1581920903955	36.241610738255	8	0.266694879978895	2	3	3	NaN	1	5	0.0189654617291481	1	1	NaN	294	5	42	1	121	221	321	NaN	521	0.284109428524971	1	1	NaN	3974157.8650768	NaN	3974158.8484057	3974159.36496527
78	23	0	0	90	36.1581920903955	36.241610738255	6	0.200021159984171	2	2	4	NaN	1	3	0.0189654617291481	1	1	NaN	295	5	43	1	121	221	321	NaN	521	0.347865127958357	2	0	NaN	3974160.4652885	NaN	3974161.4486713	3974161.96522687
78	23	0	0	90	36.1581920903955	36.241610738255	16	0.53338975995779	2	7	5	NaN	2	3	0.0189654617291481	1	1	NaN	296	5	44	1	121	221	321	NaN	521	0.320581728126854	2	1	NaN	3974163.1322053	NaN	3974164.1156008	3974164.63216327
78	23	0	0	90	36.1581920903955	36.241610738255	19	0.633400339949876	2	4	3	NaN	1	5	0.0189654617291481	1	1	NaN	297	5	45	1	121	221	321	NaN	521	0.279139076825231	2	0	NaN	3974165.7658163	NaN	3974166.7491874	3974167.26574192
78	23	0	0	90	36.1581920903955	36.241610738255	16	0.53338975995779	2	8	5	NaN	2	3	0.0189654617291481	1	1	NaN	298	5	46	1	121	221	321	NaN	521	0.447026876267046	2	1	NaN	3974168.3660525	NaN	3974169.3494514	3974169.86600072
78	23	0	0	90	36.1581920903955	36.241610738255	21	0.7000740599446	2	9	1	NaN	2	5	0.0189654617291481	1	1	NaN	299	5	47	1	121	221	321	NaN	521	0.392342028208077	2	1	NaN	3974171.1163366	NaN	3974172.0997309	3974172.61627617
78	23	0	0	90	36.1581920903955	36.241610738255	18	0.600063479952514	2	10	5	NaN	2	5	0.0189654617291481	1	1	NaN	300	5	48	1	121	221	321	NaN	521	0.252336676698178	1	0	NaN	3974173.8165318	NaN	3974174.7999821	3974175.31654122
78	23	0	0	90	36.1581920903955	36.241610738255	8	0.266694879978895	2	7	4	NaN	2	4	0.0189654617291481	1	1	NaN	301	5	49	1	121	221	321	NaN	521	0.389276372734457	2	1	NaN	3974176.3835076	NaN	3974177.3669107	3974177.88345593
78	23	0	0	90	36.1581920903955	36.241610738255	10	0.333368599973619	2	5	6	NaN	1	5	0.0189654617291481	1	1	NaN	302	5	50	1	121	221	321	NaN	521	0.281226232647896	1	1	NaN	3974179.0838229	NaN	3974180.0672175	3974180.58372207
78	23	0	0	90	36.1581920903955	36.241610738255	12	0.400042319968343	2	4	4	NaN	1	4	0.0189654617291481	1	1	NaN	303	5	51	1	121	221	321	NaN	521	0.272841876838356	1	1	NaN	3974181.6840434	NaN	3974182.6674363	3974183.18397112
78	23	0	0	90	36.1581920903955	36.241610738255	15	0.500052899960428	2	6	2	NaN	1	5	0.0189654617291481	1	1	NaN	304	5	52	1	121	221	321	NaN	521	0.281385376583785	1	1	NaN	3974184.2676105	NaN	3974185.2510201	3974185.76755962
78	23	0	0	90	36.1581920903955	36.241610738255	22	0.733410919941962	2	9	1	NaN	2	4	0.0189654617291481	1	1	NaN	305	5	53	1	121	221	321	NaN	521	0.704948028083891	1	0	NaN	3974186.8678859	NaN	3974187.851272	3974188.36782407
78	23	0	0	90	36.1581920903955	36.241610738255	21	0.7000740599446	2	8	1	NaN	2	3	0.0189654617291481	1	1	NaN	306	5	54	1	121	221	321	NaN	521	0.0104117766022682	2	1	NaN	3974189.884829	NaN	3974190.8682347	3974191.38478442
78	23	0	0	90	36.1581920903955	36.241610738255	10	0.333368599973619	2	11	4	NaN	2	4	0.0189654617291481	1	1	NaN	307	5	55	1	121	221	321	NaN	521	0.57127297250554	2	1	NaN	3974192.2017482	NaN	3974193.1851583	3974193.70167083
78	23	0	0	90	36.1581920903955	36.241610738255	21	0.7000740599446	2	1	5	NaN	1	5	0.0189654617291481	1	1	NaN	308	5	56	1	121	221	321	NaN	521	0.215476676821709	1	1	NaN	3974195.08536	NaN	3974196.0687354	3974196.58528862
78	23	0	0	90	36.1581920903955	36.241610738255	22	0.733410919941962	2	1	6	NaN	1	3	0.0189654617291481	1	1	NaN	309	5	57	1	121	221	321	NaN	521	0.241881128400564	1	1	NaN	3974197.6188852	NaN	3974198.6023335	3974199.11888057
78	23	0	0	90	36.1581920903955	36.241610738255	11	0.366705459970981	2	3	5	NaN	1	3	0.0189654617291481	1	1	NaN	310	5	58	1	121	221	321	NaN	521	0.25174917653203	1	1	NaN	3974200.1691779	NaN	3974201.1525843	3974201.66912032
78	23	0	0	90	36.1581920903955	36.241610738255	19	0.633400339949876	2	11	4	NaN	2	5	0.0189654617291481	1	1	NaN	311	5	59	1	121	221	321	NaN	521	0.317072480451316	2	1	NaN	3974202.7361098	NaN	3974203.719473	3974204.23604772
78	23	0	0	90	36.1581920903955	36.241610738255	20	0.666737199947238	2	9	1	NaN	2	3	0.0189654617291481	1	1	NaN	312	5	60	1	121	221	321	NaN	521	0.555501276161522	2	1	NaN	3974205.3697191	NaN	3974206.3530755	3974206.86964182
78	23	0	0	90	36.1581920903955	36.241610738255	18	0.600063479952514	2	2	2	NaN	1	3	0.0189654617291481	1	1	NaN	313	5	61	1	121	221	321	NaN	521	0.424221776425838	1	1	NaN	3974208.2366544	NaN	3974209.2200399	3974209.73657762
78	23	0	0	90	36.1581920903955	36.241610738255	23	0.766747779939324	2	12	6	NaN	2	5	0.0189654617291481	1	1	NaN	314	5	62	1	121	221	321	NaN	521	0.338571576401591	1	0	NaN	3974210.9702505	NaN	3974211.9536519	3974212.47018242
78	23	0	0	90	36.1581920903955	36.241610738255	20	0.666737199947238	2	12	6	NaN	2	4	0.0189654617291481	1	1	NaN	315	5	63	1	121	221	321	NaN	521	0.288763376418501	1	0	NaN	3974213.6203757	NaN	3974214.6038877	3974215.12044032
78	23	0	0	90	36.1581920903955	36.241610738255	16	0.53338975995779	2	6	2	NaN	1	4	0.0189654617291481	1	1	NaN	316	6	1	1	121	221	321	NaN	521	1.34238532790914	1	1	NaN	3974237.8228808	NaN	3974238.8062774	3974239.32282997
78	23	0	0	90	36.1581920903955	36.241610738255	11	0.366705459970981	2	1	1	NaN	1	5	0.0189654617291481	1	1	NaN	317	6	2	1	121	221	321	NaN	521	0.29159697657451	1	1	NaN	3974241.4732327	NaN	3974242.4566337	3974242.97318282
78	23	0	0	90	36.1581920903955	36.241610738255	9	0.300031739976257	2	3	4	NaN	1	5	0.0189654617291481	1	1	NaN	318	6	3	1	121	221	321	NaN	521	0.507433276623487	2	0	NaN	3974244.0734579	NaN	3974245.0568838	3974245.57343112
78	23	0	0	90	36.1581920903955	36.241610738255	9	0.300031739976257	2	4	1	NaN	1	4	0.0189654617291481	1	1	NaN	319	6	4	1	121	221	321	NaN	521	0.282274236436933	2	0	NaN	3974246.8904279	NaN	3974247.8738253	3974248.39038916
78	23	0	0	90	36.1581920903955	36.241610738255	6	0.200021159984171	2	10	1	NaN	2	3	0.0189654617291481	1	1	NaN	320	6	5	1	121	221	321	NaN	521	0.25852682814002	1	0	NaN	3974249.4906992	NaN	3974250.4740675	3974250.99063817
78	23	0	0	90	36.1581920903955	36.241610738255	19	0.633400339949876	2	6	2	NaN	1	4	0.0189654617291481	1	1	NaN	321	6	6	1	121	221	321	NaN	521	0.307677292264998	2	0	NaN	3974252.0574791	NaN	3974253.0410104	3974253.55755951
78	23	0	0	90	36.1581920903955	36.241610738255	10	0.333368599973619	2	3	2	NaN	1	3	0.0189654617291481	1	1	NaN	322	6	7	1	121	221	321	NaN	521	0.386332176625729	2	0	NaN	3974254.6745338	NaN	3974255.6579393	3974256.17449292
78	23	0	0	90	36.1581920903955	36.241610738255	23	0.766747779939324	2	8	4	NaN	2	4	0.0189654617291481	1	1	NaN	323	6	8	1	121	221	321	NaN	521	0.886407664511353	1	0	NaN	3974257.3747924	NaN	3974258.3580977	3974258.87474314
78	23	0	0	90	36.1581920903955	36.241610738255	10	0.333368599973619	2	8	6	NaN	2	5	0.0189654617291481	1	1	NaN	324	6	9	1	121	221	321	NaN	521	0.686096096411347	2	1	NaN	3974260.5751301	NaN	3974261.5585109	3974262.0750639
78	23	0	0	90	36.1581920903955	36.241610738255	23	0.766747779939324	2	5	1	NaN	1	4	0.0189654617291481	1	1	NaN	325	6	10	1	121	221	321	NaN	521	0.269459292292595	1	1	NaN	3974263.5754062	NaN	3974264.5588002	3974265.07536101
78	23	0	0	90	36.1581920903955	36.241610738255	11	0.366705459970981	2	3	3	NaN	1	4	0.0189654617291481	1	1	NaN	326	6	11	1	121	221	321	NaN	521	0.349912728182971	2	0	NaN	3974266.1590122	NaN	3974267.1423952	3974267.65894707
78	23	0	0	90	36.1581920903955	36.241610738255	21	0.7000740599446	2	5	5	NaN	1	4	0.0189654617291481	1	1	NaN	327	6	12	1	121	221	321	NaN	521	0.275022824760526	1	1	NaN	3974268.8259196	NaN	3974269.8093135	3974270.32587898
78	23	0	0	90	36.1581920903955	36.241610738255	0	0	1	4	1	NaN	1	5	0.0189654617291481	1	1	NaN	328	6	13	1	111	211	311	NaN	511	0.24373567616567	1	1	NaN	3974271.4095154	NaN	3974272.3929116	3974272.90946612
78	23	0	0	90	36.1581920903955	36.241610738255	24	0.800084639936686	2	6	4	NaN	1	4	0.0189654617291481	1	1	NaN	329	6	14	1	121	221	321	NaN	521	0.244882976636291	2	0	NaN	3974273.9764468	NaN	3974274.9598188	3974275.47636672
78	23	0	0	90	36.1581920903955	36.241610738255	13	0.433379179965705	2	8	3	NaN	2	5	0.0189654617291481	1	1	NaN	330	6	15	1	121	221	321	NaN	521	0.0102935922332108	1	0	NaN	3974276.5265451	NaN	3974277.5100711	3974278.02663671
78	23	0	0	90	36.1581920903955	36.241610738255	12	0.400042319968343	2	10	6	NaN	2	4	0.0189654617291481	1	1	NaN	331	6	16	1	121	221	321	NaN	521	0.289775476790965	1	0	NaN	3974278.8435545	NaN	3974279.8269727	3974280.34351442
78	23	0	0	90	36.1581920903955	36.241610738255	23	0.766747779939324	2	11	6	NaN	2	3	0.0189654617291481	1	1	NaN	332	6	17	1	121	221	321	NaN	521	0.345284176524729	2	1	NaN	3974281.443816	NaN	3974282.4272283	3974282.94377052
78	23	0	0	90	36.1581920903955	36.241610738255	7	0.233358019981533	2	4	6	NaN	1	4	0.0189654617291481	1	1	NaN	333	6	18	1	121	221	321	NaN	521	0.518577124457806	2	0	NaN	3974284.1107453	NaN	3974285.0941745	3974285.61069868
78	23	0	0	90	36.1581920903955	36.241610738255	10	0.333368599973619	2	9	5	NaN	2	5	0.0189654617291481	1	1	NaN	334	6	19	1	121	221	321	NaN	521	0.332812624517828	1	0	NaN	3974286.9442202	NaN	3974287.9277625	3974288.44431868
78	23	0	0	90	36.1581920903955	36.241610738255	11	0.366705459970981	2	11	1	NaN	2	3	0.0189654617291481	1	1	NaN	335	6	20	1	121	221	321	NaN	521	0.27514569228515	1	0	NaN	3974289.5779562	NaN	3974290.5613403	3974291.07791561
78	23	0	0	90	36.1581920903955	36.241610738255	6	0.200021159984171	2	2	4	NaN	1	4	0.0189654617291481	1	1	NaN	336	6	21	1	121	221	321	NaN	521	0.235568476375192	1	1	NaN	3974292.1615647	NaN	3974293.1449403	3974293.66148732
78	23	0	0	90	36.1581920903955	36.241610738255	11	0.366705459970981	2	6	4	NaN	1	5	0.0189654617291481	1	1	NaN	337	6	22	1	121	221	321	NaN	521	1.20547707658261	1	1	NaN	3974294.7117931	NaN	3974295.6951867	3974296.21175712
78	23	0	0	90	36.1581920903955	36.241610738255	15	0.500052899960428	2	11	1	NaN	2	4	0.0189654617291481	1	1	NaN	338	6	23	1	121	221	321	NaN	521	0.25606679264456	1	0	NaN	3974298.2288176	NaN	3974299.2122047	3974299.72875661
78	23	0	0	90	36.1581920903955	36.241610738255	14	0.466716039963067	2	10	2	NaN	2	4	0.0189654617291481	1	1	NaN	339	6	24	1	121	221	321	NaN	521	0.257525676395744	1	0	NaN	3974300.7955936	NaN	3974301.7791922	3974302.29568072
78	23	0	0	90	36.1581920903955	36.241610738255	19	0.633400339949876	2	3	6	NaN	1	3	0.0189654617291481	1	1	NaN	340	6	25	1	121	221	321	NaN	521	0.578570876736194	2	0	NaN	3974303.3626765	NaN	3974304.3460251	3974304.86258692
78	23	0	0	90	36.1581920903955	36.241610738255	13	0.433379179965705	2	2	6	NaN	1	4	0.0189654617291481	1	1	NaN	341	6	26	1	121	221	321	NaN	521	0.302322676405311	1	1	NaN	3974306.2629255	NaN	3974307.2463214	3974307.76287652
78	23	0	0	90	36.1581920903955	36.241610738255	25	0.833421499934047	2	7	4	NaN	2	3	0.0189654617291481	1	1	NaN	342	6	27	1	121	221	321	NaN	521	0.397538220509887	2	1	NaN	3974308.8797065	NaN	3974309.8632478	3974310.37979548
78	23	0	0	90	36.1581920903955	36.241610738255	24	0.800084639936686	2	8	6	NaN	2	3	0.0189654617291481	1	1	NaN	343	6	28	1	121	221	321	NaN	521	0.33618912473321	2	1	NaN	3974311.5967795	NaN	3974312.5801909	3974313.09673138
78	23	0	0	90	36.1581920903955	36.241610738255	12	0.400042319968343	2	8	6	NaN	2	4	0.0189654617291481	1	1	NaN	344	6	29	1	121	221	321	NaN	521	0.302115876693279	2	1	NaN	3974314.2470468	NaN	3974315.2304408	3974315.74699452
78	23	0	0	90	36.1581920903955	36.241610738255	0	0	1	10	6	NaN	2	3	0.0189654617291481	1	1	NaN	345	6	30	1	111	211	311	NaN	511	0.277109824120998	2	1	NaN	3974316.8639688	NaN	3974317.847359	3974318.36391398
78	23	0	0	90	36.1581920903955	36.241610738255	9	0.300031739976257	2	4	6	NaN	1	3	0.0189654617291481	1	1	NaN	346	6	31	1	121	221	321	NaN	521	0.317600776441395	2	0	NaN	3974319.4475313	NaN	3974320.4309499	3974320.94750072
78	23	0	0	90	36.1581920903955	36.241610738255	14	0.466716039963067	2	6	6	NaN	1	5	0.0189654617291481	1	1	NaN	347	6	32	1	121	221	321	NaN	521	0.268204024527222	1	1	NaN	3974322.0811794	NaN	3974323.0645417	3974323.58109028
78	23	0	0	90	36.1581920903955	36.241610738255	15	0.500052899960428	2	5	6	NaN	1	5	0.0189654617291481	1	1	NaN	348	6	33	1	121	221	321	NaN	521	0.0104137766174972	2	0	NaN	3974324.66477	NaN	3974325.648138	3974326.16467782
78	23	0	0	90	36.1581920903955	36.241610738255	19	0.633400339949876	2	11	5	NaN	2	4	0.0189654617291481	1	1	NaN	349	6	34	1	121	221	321	NaN	521	0.231565724592656	1	0	NaN	3974326.981617	NaN	3974327.9650093	3974328.48158508
78	23	0	0	90	36.1581920903955	36.241610738255	6	0.200021159984171	2	1	5	NaN	1	5	0.0189654617291481	1	1	NaN	350	6	35	1	121	221	321	NaN	521	0.297487528529018	2	0	NaN	3974329.5318971	NaN	3974330.5152554	3974331.03183657
78	23	0	0	90	36.1581920903955	36.241610738255	8	0.266694879978895	2	6	3	NaN	1	5	0.0189654617291481	1	1	NaN	351	6	36	1	121	221	321	NaN	521	1.46206388017163	2	0	NaN	3974332.5988297	NaN	3974333.5822443	3974334.09880512
78	23	0	0	90	36.1581920903955	36.241610738255	18	0.600063479952514	2	6	2	NaN	1	4	0.0189654617291481	1	1	NaN	352	6	37	1	121	221	321	NaN	521	0.0104411724023521	1	1	NaN	3974336.3825728	NaN	3974337.3659558	3974337.88250063
78	23	0	0	90	36.1581920903955	36.241610738255	11	0.366705459970981	2	12	6	NaN	2	4	0.0189654617291481	1	1	NaN	353	6	38	1	121	221	321	NaN	521	0.201583328191191	1	0	NaN	3974338.6994448	NaN	3974339.6828495	3974340.19939947
78	23	0	0	90	36.1581920903955	36.241610738255	13	0.433379179965705	2	2	6	NaN	1	4	0.0189654617291481	1	1	NaN	354	6	39	1	121	221	321	NaN	521	0.284554876387119	1	1	NaN	3974341.2163604	NaN	3974342.1997607	3974342.71631422
78	23	0	0	90	36.1581920903955	36.241610738255	8	0.266694879978895	2	4	3	NaN	1	5	0.0189654617291481	1	1	NaN	355	6	40	1	121	221	321	NaN	521	0.0104089765809476	1	1	NaN	3974343.8166151	NaN	3974344.8000249	3974345.31655962
78	23	0	0	90	36.1581920903955	36.241610738255	17	0.566726619955152	2	2	6	NaN	1	4	0.0189654617291481	1	1	NaN	356	6	41	1	121	221	321	NaN	521	0.247809976805001	1	1	NaN	3974346.133509	NaN	3974347.1169149	3974347.63345322
78	23	0	0	90	36.1581920903955	36.241610738255	21	0.7000740599446	2	10	1	NaN	2	3	0.0189654617291481	1	1	NaN	357	6	42	1	121	221	321	NaN	521	0.265151176601648	2	1	NaN	3974348.8837778	NaN	3974349.8671819	3974350.38373052
78	23	0	0	90	36.1581920903955	36.241610738255	14	0.466716039963067	2	2	6	NaN	1	3	0.0189654617291481	1	1	NaN	358	6	43	1	121	221	321	NaN	521	2.50568012800068	1	1	NaN	3974351.4673797	NaN	3974352.4507721	3974352.96732447
78	23	0	0	90	36.1581920903955	36.241610738255	21	0.7000740599446	2	6	6	NaN	1	4	0.0189654617291481	1	1	NaN	359	6	44	1	121	221	321	NaN	521	0.0104400240816176	2	0	NaN	3974356.4345145	NaN	3974357.4179223	3974357.93447018
78	23	0	0	90	36.1581920903955	36.241610738255	12	0.400042319968343	2	1	6	NaN	1	3	0.0189654617291481	1	1	NaN	360	6	45	1	121	221	321	NaN	521	0.988335676491261	2	0	NaN	3974359.1847841	NaN	3974360.1681889	3974360.68473432
78	23	0	0	90	36.1581920903955	36.241610738255	20	0.666737199947238	2	12	2	NaN	2	3	0.0189654617291481	1	1	NaN	361	6	46	1	121	221	321	NaN	521	0.344080276787281	2	1	NaN	3974362.4851546	NaN	3974363.468518	3974363.98506262
78	23	0	0	90	36.1581920903955	36.241610738255	18	0.600063479952514	2	1	1	NaN	1	5	0.0189654617291481	1	1	NaN	362	6	47	1	121	221	321	NaN	521	0.077986076939851	2	0	NaN	3974365.1353288	NaN	3974366.1187718	3974366.63531932
78	23	0	0	90	36.1581920903955	36.241610738255	25	0.833421499934047	2	4	2	NaN	1	3	0.0189654617291481	1	1	NaN	363	6	48	1	121	221	321	NaN	521	0.758496176451445	2	0	NaN	3974367.5189466	NaN	3974368.5023486	3974369.01889212
78	23	0	0	90	36.1581920903955	36.241610738255	13	0.433379179965705	2	5	3	NaN	1	3	0.0189654617291481	1	1	NaN	364	6	49	1	121	221	321	NaN	521	0.0104388725012541	1	1	NaN	3974370.5859195	NaN	3974371.5693508	3974372.08585773
78	23	0	0	90	36.1581920903955	36.241610738255	7	0.233358019981533	2	2	3	NaN	1	5	0.0189654617291481	1	1	NaN	365	6	50	1	121	221	321	NaN	521	0.0104073765687644	2	0	NaN	3974372.9194761	NaN	3974373.902872	3974374.41942652
78	23	0	0	90	36.1581920903955	36.241610738255	25	0.833421499934047	2	6	4	NaN	1	4	0.0189654617291481	1	1	NaN	366	6	51	1	121	221	321	NaN	521	0.337063876446337	2	0	NaN	3974375.2362432	NaN	3974376.2197731	3974376.73631152
78	23	0	0	90	36.1581920903955	36.241610738255	15	0.500052899960428	2	9	2	NaN	2	3	0.0189654617291481	1	1	NaN	367	6	52	1	121	221	321	NaN	521	0.126479936297983	2	1	NaN	3974377.8866873	NaN	3974378.8700242	3974379.38658306
78	23	0	0	90	36.1581920903955	36.241610738255	9	0.300031739976257	2	9	1	NaN	2	3	0.0189654617291481	1	1	NaN	368	6	53	1	121	221	321	NaN	521	0.781050732824951	2	1	NaN	3974380.3202497	NaN	3974381.3036025	3974381.82014907
78	23	0	0	90	36.1581920903955	36.241610738255	19	0.633400339949876	2	5	4	NaN	1	5	0.0189654617291481	1	1	NaN	369	6	54	1	121	221	321	NaN	521	1.4804027765058	1	1	NaN	3974383.4205097	NaN	3974384.4039059	3974384.92046062
78	23	0	0	90	36.1581920903955	36.241610738255	15	0.500052899960428	2	7	2	NaN	2	4	0.0189654617291481	1	1	NaN	370	6	55	1	121	221	321	NaN	521	0.265079676639289	1	0	NaN	3974387.204218	NaN	3974388.1876123	3974388.70415252
78	23	0	0	90	36.1581920903955	36.241610738255	12	0.400042319968343	2	7	2	NaN	2	3	0.0189654617291481	1	1	NaN	371	6	56	1	121	221	321	NaN	521	0.64172242814675	2	1	NaN	3974389.7878272	NaN	3974390.7711931	3974391.28775577
78	23	0	0	90	36.1581920903955	36.241610738255	0	0	1	11	2	NaN	2	4	0.0189654617291481	1	1	NaN	372	6	57	1	111	211	311	NaN	511	0.547406976576895	2	1	NaN	3974392.7380093	NaN	3974393.7214934	3974394.23802902
78	23	0	0	90	36.1581920903955	36.241610738255	15	0.500052899960428	2	8	3	NaN	2	3	0.0189654617291481	1	1	NaN	373	6	58	1	121	221	321	NaN	521	0.176201276481152	1	0	NaN	3974395.6050418	NaN	3974396.5884318	3974397.10498872
78	23	0	0	90	36.1581920903955	36.241610738255	7	0.233358019981533	2	7	6	NaN	2	5	0.0189654617291481	1	1	NaN	374	6	59	1	121	221	321	NaN	521	0.204639376606792	2	1	NaN	3974398.0885884	NaN	3974399.0720209	3974399.58855532
78	23	0	0	90	36.1581920903955	36.241610738255	14	0.466716039963067	2	6	2	NaN	1	5	0.0189654617291481	1	1	NaN	375	6	60	1	121	221	321	NaN	521	0.0103970281779766	1	1	NaN	3974400.6055332	NaN	3974401.5888784	3974402.10548207
78	23	0	0	90	36.1581920903955	36.241610738255	25	0.833421499934047	2	2	4	NaN	1	4	0.0189654617291481	1	1	NaN	376	6	61	1	121	221	321	NaN	521	0.0104024284519255	1	1	NaN	3974402.9224211	NaN	3974403.9058191	3974404.42237137
78	23	0	0	90	36.1581920903955	36.241610738255	20	0.666737199947238	2	7	6	NaN	2	5	0.0189654617291481	1	1	NaN	377	6	62	1	121	221	321	NaN	521	0.333714476320893	1	0	NaN	3974405.2392349	NaN	3974406.2227252	3974406.73926122
78	23	0	0	90	36.1581920903955	36.241610738255	23	0.766747779939324	2	3	4	NaN	1	4	0.0189654617291481	1	1	NaN	378	6	63	1	121	221	321	NaN	521	0.571963627822697	2	0	NaN	3974407.8895682	NaN	3974408.8729787	3974409.38952527
78	23	0	0	90	36.1581920903955	36.241610738255	19	0.633400339949876	2	6	3	NaN	1	3	0.0189654617291481	1	1	NaN	379	7	1	1	121	221	321	NaN	521	0.656889676582068	1	1	NaN	3974423.7243428	NaN	3974424.7078706	3974425.22440572
78	23	0	0	90	36.1581920903955	36.241610738255	6	0.200021159984171	2	9	3	NaN	2	5	0.0189654617291481	1	1	NaN	380	7	2	1	121	221	321	NaN	521	0.431913824286312	2	1	NaN	3974426.7414814	NaN	3974427.7248299	3974428.24136778
78	23	0	0	90	36.1581920903955	36.241610738255	9	0.300031739976257	2	5	5	NaN	1	5	0.0189654617291481	1	1	NaN	381	7	3	1	121	221	321	NaN	521	0.585385128390044	2	0	NaN	3974429.4917133	NaN	3974430.4751076	3974430.99164787
78	23	0	0	90	36.1581920903955	36.241610738255	7	0.233358019981533	2	3	1	NaN	1	3	0.0189654617291481	1	1	NaN	382	7	4	1	121	221	321	NaN	521	0.261556424666196	2	0	NaN	3974432.3919796	NaN	3974433.3753813	3974433.89192388
78	23	0	0	90	36.1581920903955	36.241610738255	21	0.7000740599446	2	4	2	NaN	1	3	0.0189654617291481	1	1	NaN	383	7	5	1	121	221	321	NaN	521	0.277566428296268	2	0	NaN	3974434.9755917	NaN	3974435.958972	3974436.47552377
78	23	0	0	90	36.1581920903955	36.241610738255	8	0.266694879978895	2	3	1	NaN	1	5	0.0189654617291481	1	1	NaN	384	7	6	1	121	221	321	NaN	521	0.590038032736629	2	0	NaN	3974437.5591599	NaN	3974438.5425565	3974439.05909897
78	23	0	0	90	36.1581920903955	36.241610738255	8	0.266694879978895	2	10	4	NaN	2	5	0.0189654617291481	1	1	NaN	385	7	7	1	121	221	321	NaN	521	0.0104040768928826	1	0	NaN	3974440.459319	NaN	3974441.4428321	3974441.95938212
78	23	0	0	90	36.1581920903955	36.241610738255	22	0.733410919941962	2	7	1	NaN	2	4	0.0189654617291481	1	1	NaN	386	7	8	1	121	221	321	NaN	521	1.19610173255205	1	0	NaN	3974442.7930009	NaN	3974443.7764212	3974444.29294717
78	23	0	0	90	36.1581920903955	36.241610738255	0	0	1	1	5	NaN	1	5	0.0189654617291481	1	1	NaN	387	7	9	1	111	211	311	NaN	511	0.367134476546198	1	1	NaN	3974446.3099148	NaN	3974447.2934272	3974447.80995652
78	23	0	0	90	36.1581920903955	36.241610738255	15	0.500052899960428	2	2	1	NaN	1	5	0.0189654617291481	1	1	NaN	388	7	10	1	121	221	321	NaN	521	0.707935224287212	2	0	NaN	3974448.9936474	NaN	3974449.9770024	3974450.49355608
78	23	0	0	90	36.1581920903955	36.241610738255	10	0.333368599973619	2	5	6	NaN	1	5	0.0189654617291481	1	1	NaN	389	7	11	1	121	221	321	NaN	521	0.226215776521713	1	1	NaN	3974452.027255	NaN	3974453.0106509	3974453.52718562
78	23	0	0	90	36.1581920903955	36.241610738255	17	0.566726619955152	2	5	4	NaN	1	5	0.0189654617291481	1	1	NaN	390	7	12	1	121	221	321	NaN	521	0.22072128020227	1	1	NaN	3974454.5607017	NaN	3974455.5442297	3974456.06077042
78	23	0	0	90	36.1581920903955	36.241610738255	8	0.266694879978895	2	5	2	NaN	1	4	0.0189654617291481	1	1	NaN	391	7	13	1	121	221	321	NaN	521	0.454756272491068	2	0	NaN	3974457.094424	NaN	3974458.0778153	3974458.59435203
78	23	0	0	90	36.1581920903955	36.241610738255	20	0.666737199947238	2	10	1	NaN	2	3	0.0189654617291481	1	1	NaN	392	7	14	1	121	221	321	NaN	521	0.0103944283910096	1	0	NaN	3974459.8612954	NaN	3974460.8447391	3974461.36130217
78	23	0	0	90	36.1581920903955	36.241610738255	24	0.800084639936686	2	8	6	NaN	2	3	0.0189654617291481	1	1	NaN	393	7	15	1	121	221	321	NaN	521	0.467384376563132	2	1	NaN	3974462.1782482	NaN	3974463.161651	3974463.67818402
78	23	0	0	90	36.1581920903955	36.241610738255	22	0.733410919941962	2	10	3	NaN	2	3	0.0189654617291481	1	1	NaN	394	7	16	1	121	221	321	NaN	521	0.339352136477828	2	1	NaN	3974464.9617143	NaN	3974465.9452573	3974466.46180306
78	23	0	0	90	36.1581920903955	36.241610738255	25	0.833421499934047	2	12	6	NaN	2	5	0.0189654617291481	1	1	NaN	395	7	17	1	121	221	321	NaN	521	0.873020776547492	1	0	NaN	3974467.6121087	NaN	3974468.5955213	3974469.11205432
78	23	0	0	90	36.1581920903955	36.241610738255	9	0.300031739976257	2	9	5	NaN	2	4	0.0189654617291481	1	1	NaN	396	7	18	1	121	221	321	NaN	521	0.321778676472604	2	1	NaN	3974470.795748	NaN	3974471.77916	3974472.29569582
78	23	0	0	90	36.1581920903955	36.241610738255	7	0.233358019981533	2	8	5	NaN	2	5	0.0189654617291481	1	1	NaN	397	7	19	1	121	221	321	NaN	521	0.775946976616979	1	0	NaN	3974473.4293285	NaN	3974474.4127444	3974474.92928792
78	23	0	0	90	36.1581920903955	36.241610738255	20	0.666737199947238	2	6	4	NaN	1	4	0.0189654617291481	1	1	NaN	398	7	20	1	121	221	321	NaN	521	0.843609976116568	2	0	NaN	3974476.5296547	NaN	3974477.5131097	3974478.02960352
78	23	0	0	90	36.1581920903955	36.241610738255	24	0.800084639936686	2	12	6	NaN	2	3	0.0189654617291481	1	1	NaN	399	7	21	1	121	221	321	NaN	521	0.27714347653091	1	0	NaN	3974479.6799652	NaN	3974480.6633567	3974481.17990112
78	23	0	0	90	36.1581920903955	36.241610738255	11	0.366705459970981	2	7	6	NaN	2	3	0.0189654617291481	1	1	NaN	400	7	22	1	121	221	321	NaN	521	0.318077376578003	1	0	NaN	3974482.2635422	NaN	3974483.2469593	3974483.76349402
78	23	0	0	90	36.1581920903955	36.241610738255	9	0.300031739976257	2	3	1	NaN	1	4	0.0189654617291481	1	1	NaN	401	7	23	1	121	221	321	NaN	521	0.164371276739985	1	1	NaN	3974484.8971468	NaN	3974485.8805946	3974486.39708172
78	23	0	0	90	36.1581920903955	36.241610738255	0	0	1	8	3	NaN	2	5	0.0189654617291481	1	1	NaN	402	7	24	1	111	211	311	NaN	511	0.854866676498204	1	0	NaN	3974487.4307144	NaN	3974488.4141197	3974488.93066982
78	23	0	0	90	36.1581920903955	36.241610738255	13	0.433379179965705	2	3	4	NaN	1	3	0.0189654617291481	1	1	NaN	403	7	25	1	121	221	321	NaN	521	0.343662628438324	2	0	NaN	3974490.5977065	NaN	3974491.5810884	3974492.09765297
78	23	0	0	90	36.1581920903955	36.241610738255	9	0.300031739976257	2	12	3	NaN	2	4	0.0189654617291481	1	1	NaN	404	7	26	1	121	221	321	NaN	521	0.381335244048387	2	1	NaN	3974493.2479635	NaN	3974494.2313609	3974494.74791026
78	23	0	0	90	36.1581920903955	36.241610738255	6	0.200021159984171	2	12	3	NaN	2	5	0.0189654617291481	1	1	NaN	405	7	27	1	121	221	321	NaN	521	0.505648276768625	2	1	NaN	3974495.9315755	NaN	3974496.9149724	3974497.43149582
78	23	0	0	90	36.1581920903955	36.241610738255	19	0.633400339949876	2	4	5	NaN	1	5	0.0189654617291481	1	1	NaN	406	7	28	1	121	221	321	NaN	521	0.152879076544195	1	1	NaN	3974498.748517	NaN	3974499.7318919	3974500.24845072
78	23	0	0	90	36.1581920903955	36.241610738255	23	0.766747779939324	2	8	6	NaN	2	4	0.0189654617291481	1	1	NaN	407	7	29	1	121	221	321	NaN	521	0.310292376205325	2	1	NaN	3974501.2154487	NaN	3974502.1988109	3974502.71535372
78	23	0	0	90	36.1581920903955	36.241610738255	23	0.766747779939324	2	9	3	NaN	2	3	0.0189654617291481	1	1	NaN	408	7	30	1	121	221	321	NaN	521	0.42118962854147	2	1	NaN	3974503.8323241	NaN	3974504.8157323	3974505.33228417
78	23	0	0	90	36.1581920903955	36.241610738255	15	0.500052899960428	2	6	3	NaN	1	4	0.0189654617291481	1	1	NaN	409	7	31	1	121	221	321	NaN	521	0.495393528137356	2	0	NaN	3974506.5659355	NaN	3974507.5493298	3974508.06587997
78	23	0	0	90	36.1581920903955	36.241610738255	10	0.333368599973619	2	11	3	NaN	2	4	0.0189654617291481	1	1	NaN	410	7	32	1	121	221	321	NaN	521	0.0104225766845047	1	0	NaN	3974509.3662091	NaN	3974510.3496159	3974510.86615002
78	23	0	0	90	36.1581920903955	36.241610738255	21	0.7000740599446	2	5	5	NaN	1	5	0.0189654617291481	1	1	NaN	411	7	33	1	121	221	321	NaN	521	1.17046297620982	2	0	NaN	3974511.6831443	NaN	3974512.6665029	3974513.18304512
78	23	0	0	90	36.1581920903955	36.241610738255	10	0.333368599973619	2	4	3	NaN	1	3	0.0189654617291481	1	1	NaN	412	7	34	1	121	221	321	NaN	521	0.262954076286405	1	1	NaN	3974515.166783	NaN	3974516.1501674	3974516.66672782
78	23	0	0	90	36.1581920903955	36.241610738255	18	0.600063479952514	2	4	3	NaN	1	5	0.0189654617291481	1	1	NaN	413	7	35	1	121	221	321	NaN	521	0.295174236409366	1	1	NaN	3974517.7503708	NaN	3974518.7337675	3974519.25031676
78	23	0	0	90	36.1581920903955	36.241610738255	19	0.633400339949876	2	2	4	NaN	1	5	0.0189654617291481	1	1	NaN	414	7	36	1	121	221	321	NaN	521	0.302402076311409	2	0	NaN	3974520.3672856	NaN	3974521.3506831	3974521.86722942
78	23	0	0	90	36.1581920903955	36.241610738255	8	0.266694879978895	2	2	6	NaN	1	4	0.0189654617291481	1	1	NaN	415	7	37	1	121	221	321	NaN	521	0.389327576383948	2	0	NaN	3974522.9842453	NaN	3974523.9676128	3974524.48415992
78	23	0	0	90	36.1581920903955	36.241610738255	9	0.300031739976257	2	10	4	NaN	2	3	0.0189654617291481	1	1	NaN	416	7	38	1	121	221	321	NaN	521	0.297143780160695	1	0	NaN	3974525.6843759	NaN	3974526.667872	3974527.18443552
78	23	0	0	90	36.1581920903955	36.241610738255	20	0.666737199947238	2	1	6	NaN	1	3	0.0189654617291481	1	1	NaN	417	7	39	1	121	221	321	NaN	521	0.415812224149704	2	0	NaN	3974528.3012683	NaN	3974529.2848057	3974529.80134538
78	23	0	0	90	36.1581920903955	36.241610738255	0	0	1	5	5	NaN	1	3	0.0189654617291481	1	1	NaN	418	7	40	1	111	211	311	NaN	511	0.26634306833148	2	0	NaN	3974531.0349992	NaN	3974532.0184405	3974532.53494143
78	23	0	0	90	36.1581920903955	36.241610738255	16	0.53338975995779	2	1	4	NaN	1	4	0.0189654617291481	1	1	NaN	419	7	41	1	121	221	321	NaN	521	0.346795376390219	2	0	NaN	3974533.6185912	NaN	3974534.6019969	3974535.11853282
78	23	0	0	90	36.1581920903955	36.241610738255	7	0.233358019981533	2	10	5	NaN	2	5	0.0189654617291481	1	1	NaN	420	7	42	1	121	221	321	NaN	521	0.280170776415616	2	1	NaN	3974536.2853829	NaN	3974537.2689594	3974537.78546112
78	23	0	0	90	36.1581920903955	36.241610738255	10	0.333368599973619	2	7	4	NaN	2	4	0.0189654617291481	1	1	NaN	421	7	43	1	121	221	321	NaN	521	0.279538728296757	2	1	NaN	3974538.8857887	NaN	3974539.8691552	3974540.38571607
78	23	0	0	90	36.1581920903955	36.241610738255	8	0.266694879978895	2	10	4	NaN	2	3	0.0189654617291481	1	1	NaN	422	7	44	1	121	221	321	NaN	521	0.527661880478263	2	1	NaN	3974541.4860354	NaN	3974542.4694229	3974542.98598122
78	23	0	0	90	36.1581920903955	36.241610738255	22	0.733410919941962	2	6	3	NaN	1	3	0.0189654617291481	1	1	NaN	423	7	45	1	121	221	321	NaN	521	0.325135992374271	1	1	NaN	3974544.3363338	NaN	3974545.3197146	3974545.83626101
78	23	0	0	90	36.1581920903955	36.241610738255	6	0.200021159984171	2	4	6	NaN	1	4	0.0189654617291481	1	1	NaN	424	7	46	1	121	221	321	NaN	521	0.307875676546246	1	1	NaN	3974546.969944	NaN	3974547.9532987	3974548.46984432
78	23	0	0	90	36.1581920903955	36.241610738255	0	0	1	11	1	NaN	2	4	0.0189654617291481	1	1	NaN	425	7	47	1	111	211	311	NaN	511	0.0104188765399158	1	0	NaN	3974549.586824	NaN	3974550.5702242	3974551.08676822
78	23	0	0	90	36.1581920903955	36.241610738255	24	0.800084639936686	2	2	2	NaN	1	3	0.0189654617291481	1	1	NaN	426	7	48	1	121	221	321	NaN	521	0.253511568065733	1	1	NaN	3974551.903718	NaN	3974552.8871494	3974553.40365873
78	23	0	0	90	36.1581920903955	36.241610738255	8	0.266694879978895	2	8	2	NaN	2	3	0.0189654617291481	1	1	NaN	427	7	49	1	121	221	321	NaN	521	0.303050876129419	2	1	NaN	3974554.470617	NaN	3974555.4540499	3974555.97058242
78	23	0	0	90	36.1581920903955	36.241610738255	13	0.433379179965705	2	9	5	NaN	2	3	0.0189654617291481	1	1	NaN	428	7	50	1	121	221	321	NaN	521	0.325789527967572	2	1	NaN	3974557.0875487	NaN	3974558.0709537	3974558.58750627
78	23	0	0	90	36.1581920903955	36.241610738255	16	0.53338975995779	2	8	1	NaN	2	4	0.0189654617291481	1	1	NaN	429	7	51	1	121	221	321	NaN	521	0.860309896059334	1	0	NaN	3974559.7210309	NaN	3974560.7045604	3974561.221113
78	23	0	0	90	36.1581920903955	36.241610738255	12	0.400042319968343	2	3	5	NaN	1	4	0.0189654617291481	1	1	NaN	430	7	52	1	121	221	321	NaN	521	0.229545276612043	1	1	NaN	3974562.888131	NaN	3974563.8715125	3974564.38807852
78	23	0	0	90	36.1581920903955	36.241610738255	25	0.833421499934047	2	10	3	NaN	2	4	0.0189654617291481	1	1	NaN	431	7	53	1	121	221	321	NaN	521	0.407979728188366	2	1	NaN	3974565.4217245	NaN	3974566.4050945	3974566.92166637
78	23	0	0	90	36.1581920903955	36.241610738255	23	0.766747779939324	2	6	1	NaN	1	3	0.0189654617291481	1	1	NaN	432	7	54	1	121	221	321	NaN	521	0.402559376321733	2	0	NaN	3974568.1386428	NaN	3974569.1220436	3974569.63859142
78	23	0	0	90	36.1581920903955	36.241610738255	9	0.300031739976257	2	7	1	NaN	2	4	0.0189654617291481	1	1	NaN	433	7	55	1	121	221	321	NaN	521	0.310109224636108	1	0	NaN	3974570.8555953	NaN	3974571.8389805	3974572.35552598
78	23	0	0	90	36.1581920903955	36.241610738255	10	0.333368599973619	2	1	4	NaN	1	4	0.0189654617291481	1	1	NaN	434	7	56	1	121	221	321	NaN	521	0.260914227925241	1	1	NaN	3974573.4723775	NaN	3974574.4558933	3974574.97245197
78	23	0	0	90	36.1581920903955	36.241610738255	16	0.53338975995779	2	2	4	NaN	1	3	0.0189654617291481	1	1	NaN	435	7	57	1	121	221	321	NaN	521	0.261264627799392	1	1	NaN	3974576.0560973	NaN	3974577.0394797	3974577.55604417
78	23	0	0	90	36.1581920903955	36.241610738255	21	0.7000740599446	2	2	2	NaN	1	3	0.0189654617291481	1	1	NaN	436	7	58	1	121	221	321	NaN	521	0.557806976605207	1	1	NaN	3974578.6397818	NaN	3974579.6230759	3974580.13962542
78	23	0	0	90	36.1581920903955	36.241610738255	23	0.766747779939324	2	4	5	NaN	1	4	0.0189654617291481	1	1	NaN	437	7	59	1	121	221	321	NaN	521	0.298784976825118	2	0	NaN	3974581.5066187	NaN	3974582.4900261	3974583.00656632
78	23	0	0	90	36.1581920903955	36.241610738255	18	0.600063479952514	2	4	6	NaN	1	3	0.0189654617291481	1	1	NaN	438	7	60	1	121	221	321	NaN	521	0.337952628266066	2	0	NaN	3974584.1235412	NaN	3974585.1069415	3974585.62349927
78	23	0	0	90	36.1581920903955	36.241610738255	19	0.633400339949876	2	1	1	NaN	1	5	0.0189654617291481	1	1	NaN	439	7	61	1	121	221	321	NaN	521	0.27959307609126	2	0	NaN	3974586.7738412	NaN	3974587.7572097	3974588.27375142
78	23	0	0	90	36.1581920903955	36.241610738255	22	0.733410919941962	2	9	6	NaN	2	4	0.0189654617291481	1	1	NaN	440	7	62	1	121	221	321	NaN	521	0.302717124577612	1	0	NaN	3974589.3907076	NaN	3974590.3741348	3974590.89067318
78	23	0	0	90	36.1581920903955	36.241610738255	7	0.233358019981533	2	10	5	NaN	2	5	0.0189654617291481	1	1	NaN	441	7	63	1	121	221	321	NaN	521	0.0104063767939806	2	1	NaN	3974592.0076106	NaN	3974592.9910579	3974593.50759712
78	23	0	0	90	36.1581920903955	36.241610738255	25	0.833421499934047	2	9	4	NaN	2	4	0.0189654617291481	1	1	NaN	442	8	1	1	121	221	321	NaN	521	0.983011776581407	2	1	NaN	3974596.3747534	NaN	3974597.3581475	3974597.87469242
78	23	0	0	90	36.1581920903955	36.241610738255	7	0.233358019981533	2	11	6	NaN	2	3	0.0189654617291481	1	1	NaN	443	8	2	1	121	221	321	NaN	521	0.290622036438435	2	1	NaN	3974599.6749447	NaN	3974600.6584548	3974601.17503216
78	23	0	0	90	36.1581920903955	36.241610738255	13	0.433379179965705	2	12	1	NaN	2	4	0.0189654617291481	1	1	NaN	444	8	3	1	121	221	321	NaN	521	0.202075176406652	1	0	NaN	3974602.2753453	NaN	3974603.2587414	3974603.77527092
78	23	0	0	90	36.1581920903955	36.241610738255	22	0.733410919941962	2	11	3	NaN	2	4	0.0189654617291481	1	1	NaN	445	8	4	1	121	221	321	NaN	521	0.333456776570529	2	1	NaN	3974604.7922401	NaN	3974605.7755373	3974606.29219882
78	23	0	0	90	36.1581920903955	36.241610738255	13	0.433379179965705	2	7	3	NaN	2	5	0.0189654617291481	1	1	NaN	446	8	5	1	121	221	321	NaN	521	0.922888176515698	1	0	NaN	3974607.4425112	NaN	3974608.4259063	3974608.94244622
78	23	0	0	90	36.1581920903955	36.241610738255	19	0.633400339949876	2	12	5	NaN	2	4	0.0189654617291481	1	1	NaN	447	8	6	1	121	221	321	NaN	521	0.401274328120053	1	0	NaN	3974610.6761499	NaN	3974611.6595375	3974612.17610227
78	23	0	0	90	36.1581920903955	36.241610738255	10	0.333368599973619	2	10	3	NaN	2	5	0.0189654617291481	1	1	NaN	448	8	7	1	121	221	321	NaN	521	0.10064542805776	2	1	NaN	3974613.3931127	NaN	3974614.3765075	3974614.89304137
78	23	0	0	90	36.1581920903955	36.241610738255	7	0.233358019981533	2	9	4	NaN	2	5	0.0189654617291481	1	1	NaN	449	8	8	1	121	221	321	NaN	521	0.371594976168126	2	1	NaN	3974615.8098718	NaN	3974616.7932902	3974617.30994392
78	23	0	0	90	36.1581920903955	36.241610738255	7	0.233358019981533	2	1	3	NaN	1	3	0.0189654617291481	1	1	NaN	450	8	9	1	121	221	321	NaN	521	0.287893076427281	1	1	NaN	3974618.4934593	NaN	3974619.4770027	3974619.99352932
78	23	0	0	90	36.1581920903955	36.241610738255	22	0.733410919941962	2	3	1	NaN	1	5	0.0189654617291481	1	1	NaN	451	8	10	1	121	221	321	NaN	521	0.216028824448586	1	1	NaN	3974621.0938797	NaN	3974622.0772186	3974622.59378768
78	23	0	0	90	36.1581920903955	36.241610738255	10	0.333368599973619	2	7	3	NaN	2	5	0.0189654617291481	1	1	NaN	452	8	11	1	121	221	321	NaN	521	0.27443317649886	1	0	NaN	3974623.6274287	NaN	3974624.6108275	3974625.12736682
78	23	0	0	90	36.1581920903955	36.241610738255	17	0.566726619955152	2	9	4	NaN	2	5	0.0189654617291481	1	1	NaN	453	8	12	1	121	221	321	NaN	521	0.234650924336165	1	0	NaN	3974626.2110247	NaN	3974627.1944066	3974627.71095508
78	23	0	0	90	36.1581920903955	36.241610738255	17	0.566726619955152	2	3	1	NaN	1	5	0.0189654617291481	1	1	NaN	454	8	13	1	121	221	321	NaN	521	0.0103944279253483	1	1	NaN	3974628.7611351	NaN	3974629.7447266	3974630.26121497
78	23	0	0	90	36.1581920903955	36.241610738255	12	0.400042319968343	2	7	2	NaN	2	5	0.0189654617291481	1	1	NaN	455	8	14	1	121	221	321	NaN	521	0.35115882428363	2	1	NaN	3974631.0781527	NaN	3974632.061551	3974632.57810818
78	23	0	0	90	36.1581920903955	36.241610738255	25	0.833421499934047	2	11	4	NaN	2	3	0.0189654617291481	1	1	NaN	456	8	15	1	121	221	321	NaN	521	1.66051192441955	2	1	NaN	3974633.7451061	NaN	3974634.7284804	3974635.24503168
78	23	0	0	90	36.1581920903955	36.241610738255	17	0.566726619955152	2	12	3	NaN	2	3	0.0189654617291481	1	1	NaN	457	8	16	1	121	221	321	NaN	521	0.54898387612775	2	1	NaN	3974637.728831	NaN	3974638.712242	3974639.22875652
78	23	0	0	90	36.1581920903955	36.241610738255	25	0.833421499934047	2	7	4	NaN	2	5	0.0189654617291481	1	1	NaN	458	8	17	1	121	221	321	NaN	521	0.354418976698071	1	0	NaN	3974640.5791087	NaN	3974641.5624948	3974642.07903442
