subjno	age	gender	isPractice	viewdist	CmToPixX	CmToPixY	SOA_frm	SOA_time	targNum	targID	targExample	targRace	targGender	firstTargPos	contrast	familiarity	curr_staircase	iStair	TrialNum	BlockNum	blktrl	sessionNum	TC_FIXATION	TC_RSVP_START	TC_RSVP_END	TC_BLANK	TC_RESPONSE_ONSET	RT2afc	resp_2afc	acc	RSVPOnsetVBL	RSVPOnsetTime	RSVPOffsetVBL	RSVPOffsetTime	startrt_2afc
98	20	1	0	90	36.1581920903955	36.241610738255	12	0.400031039938331	2	2	4	NaN	1	5	0.0710744722734826	1	1	NaN	1	1	1	1	121	221	321	NaN	521	1.18599697621539	1	1	NaN	3613914.4323679	NaN	3613915.4156624	3613915.94876242
98	20	1	0	90	36.1581920903955	36.241610738255	25	0.833397999871522	2	5	3	NaN	1	5	0.0710744722734826	1	1	NaN	2	1	2	1	121	221	321	NaN	521	1.58508307626471	1	1	NaN	3613918.6327417	NaN	3613919.6160213	3613920.14917942
98	20	1	0	90	36.1581920903955	36.241610738255	16	0.533374719917774	2	2	3	NaN	1	5	0.0710744722734826	1	1	NaN	3	1	3	1	121	221	321	NaN	521	8.30803964240476	1	1	NaN	3613922.5662853	NaN	3613923.549756	3613924.06623706
98	20	1	0	90	36.1581920903955	36.241610738255	17	0.566710639912635	2	11	3	NaN	2	4	0.0710744722734826	1	1	NaN	4	1	4	1	121	221	321	NaN	521	0.273837490472943	2	1	NaN	3613933.2006705	NaN	3613934.1840535	3613934.70061411
98	20	1	0	90	36.1581920903955	36.241610738255	8	0.266687359958887	2	12	6	NaN	2	5	0.0710744722734826	1	1	NaN	5	1	5	1	121	221	321	NaN	521	0.345476471353322	2	1	NaN	3613935.8009128	NaN	3613936.7843078	3613937.30085853
98	20	1	0	90	36.1581920903955	36.241610738255	0	0	1	9	1	NaN	2	4	0.0710744722734826	1	1	NaN	6	1	6	1	111	211	311	NaN	511	0.526498871389776	1	0	NaN	3613938.4679381	NaN	3613939.4512815	3613939.96779093
98	20	1	0	90	36.1581920903955	36.241610738255	8	0.266687359958887	2	9	6	NaN	2	4	0.0710744722734826	1	1	NaN	7	1	7	1	121	221	321	NaN	521	0.260235271416605	2	1	NaN	3613941.3181233	NaN	3613942.301536	3613942.81806213
98	20	1	0	90	36.1581920903955	36.241610738255	6	0.200015519969165	2	1	5	NaN	1	5	0.0710744722734826	1	1	NaN	8	1	8	1	121	221	321	NaN	521	0.284747671335936	1	1	NaN	3613943.9017015	NaN	3613944.8851164	3613945.40165803
98	20	1	0	90	36.1581920903955	36.241610738255	16	0.533374719917774	2	4	3	NaN	1	5	0.0710744722734826	1	1	NaN	9	1	9	1	121	221	321	NaN	521	0.316700823605061	1	1	NaN	3613946.5019921	NaN	3613947.4853682	3613948.00191458
98	20	1	0	90	36.1581920903955	36.241610738255	22	0.73339023988694	2	12	4	NaN	2	3	0.0710744722734826	1	1	NaN	10	1	10	1	121	221	321	NaN	521	1.106673871167	2	1	NaN	3613949.1356101	NaN	3613950.1189603	3613950.63550643
98	20	1	0	90	36.1581920903955	36.241610738255	14	0.466702879928052	2	8	4	NaN	2	5	0.0710744722734826	1	1	NaN	11	1	11	1	121	221	321	NaN	521	0.305083471350372	2	1	NaN	3613952.5692218	NaN	3613953.5525226	3613954.06917073
98	20	1	0	90	36.1581920903955	36.241610738255	10	0.333359199948609	2	3	1	NaN	1	3	0.0710744722734826	1	1	NaN	12	1	12	1	121	221	321	NaN	521	0.328558942768723	1	1	NaN	3613955.186139	NaN	3613956.1695453	3613956.68609376
98	20	1	0	90	36.1581920903955	36.241610738255	22	0.73339023988694	2	7	4	NaN	2	5	0.0710744722734826	1	1	NaN	13	1	13	1	121	221	321	NaN	521	0.438247971236706	2	1	NaN	3613957.8362858	NaN	3613958.8198108	3613959.33635473
98	20	1	0	90	36.1581920903955	36.241610738255	20	0.666718399897218	2	6	1	NaN	1	3	0.0710744722734826	1	1	NaN	14	1	14	1	121	221	321	NaN	521	0.342938671819866	1	1	NaN	3613960.6033225	NaN	3613961.5867444	3613962.10329043
98	20	1	0	90	36.1581920903955	36.241610738255	14	0.466702879928052	2	5	4	NaN	1	3	0.0710744722734826	1	1	NaN	15	1	15	1	121	221	321	NaN	521	0.301124923862517	1	1	NaN	3613963.2536298	NaN	3613964.2370455	3613964.75355518
98	20	1	0	90	36.1581920903955	36.241610738255	11	0.36669511994347	2	12	6	NaN	2	5	0.0710744722734826	1	1	NaN	16	1	16	1	121	221	321	NaN	521	0.219975771382451	2	1	NaN	3613965.8704489	NaN	3613966.853924	3613967.37046893
98	20	1	0	90	36.1581920903955	36.241610738255	16	0.533374719917774	2	6	2	NaN	1	3	0.0710744722734826	1	1	NaN	17	1	17	1	121	221	321	NaN	521	0.430198023561388	1	1	NaN	3613968.4041143	NaN	3613969.3874433	3613969.90406288
98	20	1	0	90	36.1581920903955	36.241610738255	10	0.333359199948609	2	4	3	NaN	1	3	0.0710744722734826	1	1	NaN	18	1	18	1	121	221	321	NaN	521	0.295925995334983	1	1	NaN	3613971.1543842	NaN	3613972.1377591	3613972.6543377
98	20	1	0	90	36.1581920903955	36.241610738255	10	0.333359199948609	2	10	3	NaN	2	3	0.0710744722734826	1	1	NaN	19	1	19	1	121	221	321	NaN	521	0.470996942836791	2	1	NaN	3613973.7712977	NaN	3613974.7547014	3613975.27125986
98	20	1	0	90	36.1581920903955	36.241610738255	20	0.666718399897218	2	1	6	NaN	1	3	0.0710744722734826	1	1	NaN	20	1	20	1	121	221	321	NaN	521	0.634011171292514	1	1	NaN	3613977.4883186	NaN	3613978.4717312	3613978.98827863
98	20	1	0	90	36.1581920903955	36.241610738255	9	0.300023279953748	2	11	3	NaN	2	4	0.0710744722734826	1	1	NaN	21	1	21	1	121	221	321	NaN	521	0.275800871197134	2	1	NaN	3613980.4386111	NaN	3613981.4220306	3613981.93856723
98	20	1	0	90	36.1581920903955	36.241610738255	9	0.300023279953748	2	3	4	NaN	1	5	0.0710744722734826	1	1	NaN	22	1	22	1	121	221	321	NaN	521	0.211646666284651	1	1	NaN	3613983.0388782	NaN	3613984.0222709	3613984.53881973
98	20	1	0	90	36.1581920903955	36.241610738255	8	0.266687359958887	2	6	5	NaN	1	5	0.0710744722734826	1	1	NaN	23	1	23	1	121	221	321	NaN	521	0.222242223564535	1	1	NaN	3613985.5724497	NaN	3613986.555869	3613987.07240698
98	20	1	0	90	36.1581920903955	36.241610738255	10	0.333359199948609	2	6	6	NaN	1	4	0.0710744722734826	1	1	NaN	24	1	24	1	121	221	321	NaN	521	0.272254371084273	1	1	NaN	3613988.106044	NaN	3613989.0894358	3613989.60598633
98	20	1	0	90	36.1581920903955	36.241610738255	14	0.466702879928052	2	7	1	NaN	2	4	0.0710744722734826	1	1	NaN	25	1	25	1	121	221	321	NaN	521	0.512389971408993	2	1	NaN	3613990.7062945	NaN	3613991.6896977	3613992.20623403
98	20	1	0	90	36.1581920903955	36.241610738255	7	0.233351439964026	2	12	1	NaN	2	5	0.0710744722734826	1	1	NaN	26	1	26	1	121	221	321	NaN	521	1.26247417135164	1	0	NaN	3613993.5398998	NaN	3613994.5232964	3613995.03985073
98	20	1	0	90	36.1581920903955	36.241610738255	12	0.400031039938331	2	3	4	NaN	1	4	0.0710744722734826	1	1	NaN	27	1	27	1	121	221	321	NaN	521	0.999399666674435	1	1	NaN	3613997.123588	NaN	3613998.1069925	3613998.62353163
98	20	1	0	90	36.1581920903955	36.241610738255	8	0.266687359958887	2	8	5	NaN	2	4	0.0710744722734826	1	1	NaN	28	1	28	1	121	221	321	NaN	521	0.897902071475983	1	0	NaN	3614000.4406106	NaN	3614001.4239971	3614001.94052883
98	20	1	0	90	36.1581920903955	36.241610738255	10	0.333359199948609	2	8	5	NaN	2	3	0.0710744722734826	1	1	NaN	29	1	29	1	121	221	321	NaN	521	0.249197823461145	2	1	NaN	3614003.6575683	NaN	3614004.6409758	3614005.15751228
98	20	1	0	90	36.1581920903955	36.241610738255	13	0.433366959933192	2	10	5	NaN	2	4	0.0710744722734826	1	1	NaN	30	1	30	1	121	221	321	NaN	521	0.313947518821806	2	1	NaN	3614006.2244699	NaN	3614007.2079025	3614007.72442658
98	20	1	0	90	36.1581920903955	36.241610738255	12	0.400031039938331	2	6	4	NaN	1	4	0.0710744722734826	1	1	NaN	31	1	31	1	121	221	321	NaN	521	0.280656766612083	1	1	NaN	3614008.8580827	NaN	3614009.8414809	3614010.35801183
98	20	1	0	90	36.1581920903955	36.241610738255	12	0.400031039938331	2	9	5	NaN	2	3	0.0710744722734826	1	1	NaN	32	1	32	1	121	221	321	NaN	521	1.59981539053842	1	0	NaN	3614011.4583169	NaN	3614012.4417293	3614012.95827661
98	20	1	0	90	36.1581920903955	36.241610738255	24	0.800062079876661	2	5	2	NaN	1	5	0.0710744722734826	1	1	NaN	33	1	33	1	121	221	321	NaN	521	1.53144162334502	1	1	NaN	3614015.3752696	NaN	3614016.3588405	3614016.87532938
98	20	1	0	90	36.1581920903955	36.241610738255	21	0.700054319892079	2	12	5	NaN	2	3	0.0710744722734826	1	1	NaN	34	1	34	1	121	221	321	NaN	521	0.288529971148819	2	1	NaN	3614019.2258346	NaN	3614020.2091496	3614020.72570443
98	20	1	0	90	36.1581920903955	36.241610738255	13	0.433366959933192	2	1	3	NaN	1	5	0.0710744722734826	1	1	NaN	35	1	35	1	121	221	321	NaN	521	0.288782471325248	1	1	NaN	3614021.8259119	NaN	3614022.8094513	3614023.32595303
98	20	1	0	90	36.1581920903955	36.241610738255	25	0.833397999871522	2	4	1	NaN	1	4	0.0710744722734826	1	1	NaN	36	1	36	1	121	221	321	NaN	521	0.38439003797248	1	1	NaN	3614024.4261316	NaN	3614025.4096605	3614025.92622156
98	20	1	0	90	36.1581920903955	36.241610738255	19	0.633382479902357	2	9	6	NaN	2	4	0.0710744722734826	1	1	NaN	37	1	37	1	121	221	321	NaN	521	0.276049771346152	2	1	NaN	3614027.1265282	NaN	3614028.1099367	3614028.62647683
98	20	1	0	90	36.1581920903955	36.241610738255	10	0.333359199948609	2	10	6	NaN	2	5	0.0710744722734826	1	1	NaN	38	1	38	1	121	221	321	NaN	521	1.28470997139812	1	0	NaN	3614029.7101058	NaN	3614030.6935169	3614031.21007233
98	20	1	0	90	36.1581920903955	36.241610738255	22	0.73339023988694	2	9	6	NaN	2	3	0.0710744722734826	1	1	NaN	39	1	39	1	121	221	321	NaN	521	0.72394502395764	1	0	NaN	3614033.3104673	NaN	3614034.2938619	3614034.81043468
98	20	1	0	90	36.1581920903955	36.241610738255	15	0.500038799922913	2	12	3	NaN	2	4	0.0710744722734826	1	1	NaN	40	1	40	1	121	221	321	NaN	521	0.250338971614838	2	1	NaN	3614036.3441035	NaN	3614037.327509	3614037.84404543
98	20	1	0	90	36.1581920903955	36.241610738255	22	0.73339023988694	2	12	3	NaN	2	5	0.0710744722734826	1	1	NaN	41	1	41	1	121	221	321	NaN	521	0.275776871480048	2	1	NaN	3614038.9109604	NaN	3614039.8944374	3614040.41095963
98	20	1	0	90	36.1581920903955	36.241610738255	14	0.466702879928052	2	6	3	NaN	1	5	0.0710744722734826	1	1	NaN	42	1	42	1	121	221	321	NaN	521	0.212131071370095	1	1	NaN	3614041.4945941	NaN	3614042.4780217	3614042.99455463
98	20	1	0	90	36.1581920903955	36.241610738255	25	0.833397999871522	2	11	4	NaN	2	4	0.0710744722734826	1	1	NaN	43	1	43	1	121	221	321	NaN	521	0.246719571296126	1	0	NaN	3614044.0280736	NaN	3614045.011601	3614045.52812763
98	20	1	0	90	36.1581920903955	36.241610738255	10	0.333359199948609	2	8	1	NaN	2	3	0.0710744722734826	1	1	NaN	44	1	44	1	121	221	321	NaN	521	0.38330477103591	1	0	NaN	3614046.5949884	NaN	3614047.5785237	3614048.09507053
98	20	1	0	90	36.1581920903955	36.241610738255	24	0.800062079876661	2	12	3	NaN	2	4	0.0710744722734826	1	1	NaN	45	1	45	1	121	221	321	NaN	521	0.275276333093643	2	1	NaN	3614049.2953376	NaN	3614050.2787744	3614050.79532507
98	20	1	0	90	36.1581920903955	36.241610738255	11	0.36669511994347	2	10	6	NaN	2	3	0.0710744722734826	1	1	NaN	46	1	46	1	121	221	321	NaN	521	0.555913271382451	1	0	NaN	3614051.8789272	NaN	3614052.8623617	3614053.37890263
98	20	1	0	90	36.1581920903955	36.241610738255	14	0.466702879928052	2	1	3	NaN	1	4	0.0710744722734826	1	1	NaN	47	1	47	1	121	221	321	NaN	521	0.128532423637807	1	1	NaN	3614054.7459036	NaN	3614055.7292974	3614056.24585478
98	20	1	0	90	36.1581920903955	36.241610738255	6	0.200015519969165	2	9	4	NaN	2	4	0.0710744722734826	1	1	NaN	48	1	48	1	121	221	321	NaN	521	0.222936771344393	2	1	NaN	3614057.179463	NaN	3614058.1628741	3614058.67942293
98	20	1	0	90	36.1581920903955	36.241610738255	10	0.333359199948609	2	12	1	NaN	2	4	0.0710744722734826	1	1	NaN	49	1	49	1	121	221	321	NaN	521	0.324100523721427	2	1	NaN	3614060.6464526	NaN	3614061.6298498	3614062.14643298
98	20	1	0	90	36.1581920903955	36.241610738255	9	0.300023279953748	2	9	3	NaN	2	5	0.0710744722734826	1	1	NaN	50	1	50	1	121	221	321	NaN	521	1.62675067130476	2	1	NaN	3614063.2800782	NaN	3614064.2634717	3614064.78002063
98	20	1	0	90	36.1581920903955	36.241610738255	15	0.500038799922913	2	5	5	NaN	1	4	0.0710744722734826	1	1	NaN	51	1	51	1	121	221	321	NaN	521	0.292627723421901	1	1	NaN	3614067.2136703	NaN	3614068.1971859	3614068.71374498
98	20	1	0	90	36.1581920903955	36.241610738255	23	0.7667261598818	2	7	3	NaN	2	3	0.0710744722734826	1	1	NaN	52	1	52	1	121	221	321	NaN	521	0.452478571329266	1	0	NaN	3614069.8140379	NaN	3614070.7974653	3614071.31399723
98	20	1	0	90	36.1581920903955	36.241610738255	14	0.466702879928052	2	9	2	NaN	2	5	0.0710744722734826	1	1	NaN	53	1	53	1	121	221	321	NaN	521	0.269673771224916	1	0	NaN	3614072.5809865	NaN	3614073.5644215	3614074.08093133
98	20	1	0	90	36.1581920903955	36.241610738255	20	0.666718399897218	2	2	2	NaN	1	4	0.0710744722734826	1	1	NaN	54	1	54	1	121	221	321	NaN	521	0.261976371053606	1	1	NaN	3614075.1644821	NaN	3614076.1479536	3614076.66451583
98	20	1	0	90	36.1581920903955	36.241610738255	6	0.200015519969165	2	6	6	NaN	1	5	0.0710744722734826	1	1	NaN	55	1	55	1	121	221	321	NaN	521	0.422171271406114	1	1	NaN	3614077.74818	NaN	3614078.7315531	3614079.24811023
98	20	1	0	90	36.1581920903955	36.241610738255	21	0.700054319892079	2	8	4	NaN	2	5	0.0710744722734826	1	1	NaN	56	1	56	1	121	221	321	NaN	521	0.384734071325511	2	1	NaN	3614080.4816352	NaN	3614081.4651544	3614081.98170723
98	20	1	0	90	36.1581920903955	36.241610738255	18	0.600046559907496	2	7	4	NaN	2	3	0.0710744722734826	1	1	NaN	57	1	57	1	121	221	321	NaN	521	0.492513823788613	1	0	NaN	3614083.1820292	NaN	3614084.1654175	3614084.68197338
98	20	1	0	90	36.1581920903955	36.241610738255	0	0	1	7	3	NaN	2	3	0.0710744722734826	1	1	NaN	58	1	58	1	111	211	311	NaN	511	0.18816177174449	2	1	NaN	3614085.9822906	NaN	3614086.9656889	3614087.48224223
98	20	1	0	90	36.1581920903955	36.241610738255	17	0.566710639912635	2	11	4	NaN	2	4	0.0710744722734826	1	1	NaN	59	1	59	1	121	221	321	NaN	521	0.335967871360481	1	0	NaN	3614088.4826091	NaN	3614089.4659552	3614089.98248293
98	20	1	0	90	36.1581920903955	36.241610738255	11	0.36669511994347	2	5	4	NaN	1	3	0.0710744722734826	1	1	NaN	60	1	60	1	121	221	321	NaN	521	0.270119571592659	1	1	NaN	3614091.1327898	NaN	3614092.1161989	3614092.63275153
98	20	1	0	90	36.1581920903955	36.241610738255	6	0.200015519969165	2	8	1	NaN	2	3	0.0710744722734826	1	1	NaN	61	1	61	1	121	221	321	NaN	521	0.806443671230227	2	1	NaN	3614093.7163708	NaN	3614094.6997885	3614095.21633493
98	20	1	0	90	36.1581920903955	36.241610738255	18	0.600046559907496	2	1	5	NaN	1	3	0.0710744722734826	1	1	NaN	62	1	62	1	121	221	321	NaN	521	0.689282471314073	1	1	NaN	3614096.8333501	NaN	3614097.8167634	3614098.33330763
98	20	1	0	90	36.1581920903955	36.241610738255	25	0.833397999871522	2	7	4	NaN	2	3	0.0710744722734826	1	1	NaN	63	1	63	1	121	221	321	NaN	521	0.729415023233742	1	0	NaN	3614099.8335388	NaN	3614100.8170542	3614101.33359868
98	20	1	0	90	36.1581920903955	36.241610738255	17	0.566710639912635	2	1	3	NaN	1	4	0.0710744722734826	1	1	NaN	64	2	1	1	121	221	321	NaN	521	1.05333062354475	1	1	NaN	3614114.0850294	NaN	3614115.0684755	3614115.58499828
98	20	1	0	90	36.1581920903955	36.241610738255	16	0.533374719917774	2	3	3	NaN	1	5	0.0710744722734826	1	1	NaN	65	2	2	1	121	221	321	NaN	521	0.302480771206319	1	1	NaN	3614117.451962	NaN	3614118.4354734	3614118.95199503
98	20	1	0	90	36.1581920903955	36.241610738255	19	0.633382479902357	2	10	5	NaN	2	5	0.0710744722734826	1	1	NaN	66	2	3	1	121	221	321	NaN	521	0.406705071218312	2	1	NaN	3614121.8358269	NaN	3614122.8192152	3614123.33576293
98	20	1	0	90	36.1581920903955	36.241610738255	8	0.266687359958887	2	7	3	NaN	2	4	0.0710744722734826	1	1	NaN	67	2	4	1	121	221	321	NaN	521	0.373964971397072	1	0	NaN	3614124.652651	NaN	3614125.6361455	3614126.15270183
98	20	1	0	90	36.1581920903955	36.241610738255	24	0.800062079876661	2	1	2	NaN	1	4	0.0710744722734826	1	1	NaN	68	2	5	1	121	221	321	NaN	521	0.41065387101844	1	1	NaN	3614127.3364252	NaN	3614128.3197484	3614128.83629593
98	20	1	0	90	36.1581920903955	36.241610738255	8	0.266687359958887	2	6	5	NaN	1	5	0.0710744722734826	1	1	NaN	69	2	6	1	121	221	321	NaN	521	1.73110897140577	1	1	NaN	3614133.7036086	NaN	3614134.6870307	3614135.20358703
98	20	1	0	90	36.1581920903955	36.241610738255	15	0.500038799922913	2	7	6	NaN	2	3	0.0710744722734826	1	1	NaN	70	2	7	1	121	221	321	NaN	521	0.248853823635727	2	1	NaN	3614137.7540396	NaN	3614138.7374264	3614139.25398768
98	20	1	0	90	36.1581920903955	36.241610738255	17	0.566710639912635	2	10	1	NaN	2	4	0.0710744722734826	1	1	NaN	71	2	8	1	121	221	321	NaN	521	1.26600467134267	2	1	NaN	3614140.3209438	NaN	3614141.3043505	3614141.82089793
98	20	1	0	90	36.1581920903955	36.241610738255	12	0.400031039938331	2	12	3	NaN	2	4	0.0710744722734826	1	1	NaN	72	2	9	1	121	221	321	NaN	521	0.282361223362386	2	1	NaN	3614143.9045258	NaN	3614144.888035	3614145.40458998
98	20	1	0	90	36.1581920903955	36.241610738255	18	0.600046559907496	2	3	3	NaN	1	4	0.0710744722734826	1	1	NaN	73	2	10	1	121	221	321	NaN	521	0.27366097131744	1	1	NaN	3614146.5049926	NaN	3614147.4883039	3614148.00484563
98	20	1	0	90	36.1581920903955	36.241610738255	7	0.233351439964026	2	6	5	NaN	1	5	0.0710744722734826	1	1	NaN	74	2	11	1	121	221	321	NaN	521	0.362085123546422	1	1	NaN	3614149.0884838	NaN	3614150.0718822	3614150.58843098
98	20	1	0	90	36.1581920903955	36.241610738255	6	0.200015519969165	2	5	2	NaN	1	5	0.0710744722734826	1	1	NaN	75	2	12	1	121	221	321	NaN	521	0.334521771408617	1	1	NaN	3614151.7720944	NaN	3614152.7554744	3614153.27202693
98	20	1	0	90	36.1581920903955	36.241610738255	21	0.700054319892079	2	1	1	NaN	1	5	0.0710744722734826	1	1	NaN	76	2	13	1	121	221	321	NaN	521	0.364626937545836	1	1	NaN	3614154.4223734	NaN	3614155.4056301	3614155.92229026
98	20	1	0	90	36.1581920903955	36.241610738255	18	0.600046559907496	2	6	1	NaN	1	3	0.0710744722734826	1	1	NaN	77	2	14	1	121	221	321	NaN	521	0.310380971524864	1	1	NaN	3614157.1719335	NaN	3614158.1560225	3614158.67255553
98	20	1	0	90	36.1581920903955	36.241610738255	7	0.233351439964026	2	8	3	NaN	2	4	0.0710744722734826	1	1	NaN	78	2	15	1	121	221	321	NaN	521	0.365402771625668	2	1	NaN	3614159.7894131	NaN	3614160.7729279	3614161.28947003
98	20	1	0	90	36.1581920903955	36.241610738255	25	0.833397999871522	2	6	1	NaN	1	5	0.0710744722734826	1	1	NaN	79	2	16	1	121	221	321	NaN	521	0.561809271108359	1	1	NaN	3614162.4731231	NaN	3614163.4565303	3614163.97307333
98	20	1	0	90	36.1581920903955	36.241610738255	11	0.36669511994347	2	8	1	NaN	2	5	0.0710744722734826	1	1	NaN	80	2	17	1	121	221	321	NaN	521	0.461857971735299	2	1	NaN	3614165.3567712	NaN	3614166.3401535	3614166.85668783
98	20	1	0	90	36.1581920903955	36.241610738255	16	0.533374719917774	2	2	2	NaN	1	4	0.0710744722734826	1	1	NaN	81	2	18	1	121	221	321	NaN	521	0.166724271606654	1	1	NaN	3614168.1403199	NaN	3614169.1237584	3614169.64029643
98	20	1	0	90	36.1581920903955	36.241610738255	15	0.500038799922913	2	2	1	NaN	1	5	0.0710744722734826	1	1	NaN	82	2	19	1	121	221	321	NaN	521	0.283061223570257	1	1	NaN	3614170.6239199	NaN	3614171.6073302	3614172.12387268
98	20	1	0	90	36.1581920903955	36.241610738255	17	0.566710639912635	2	3	6	NaN	1	4	0.0710744722734826	1	1	NaN	83	2	20	1	121	221	321	NaN	521	0.666393471416086	1	1	NaN	3614173.2240347	NaN	3614174.2074939	3614174.72412343
98	20	1	0	90	36.1581920903955	36.241610738255	10	0.333359199948609	2	1	4	NaN	1	4	0.0710744722734826	1	1	NaN	84	2	21	1	121	221	321	NaN	521	0.290668171364814	1	1	NaN	3614176.2078144	NaN	3614177.191187	3614177.70775073
98	20	1	0	90	36.1581920903955	36.241610738255	20	0.666718399897218	2	11	5	NaN	2	5	0.0710744722734826	1	1	NaN	85	2	22	1	121	221	321	NaN	521	0.866949771065265	1	0	NaN	3614178.8080381	NaN	3614179.7914662	3614180.30800263
98	20	1	0	90	36.1581920903955	36.241610738255	18	0.600046559907496	2	8	1	NaN	2	4	0.0710744722734826	1	1	NaN	86	2	23	1	121	221	321	NaN	521	0.275307523086667	2	1	NaN	3614181.9916987	NaN	3614182.9750959	3614183.49166448
98	20	1	0	90	36.1581920903955	36.241610738255	14	0.466702879928052	2	1	1	NaN	1	3	0.0710744722734826	1	1	NaN	87	2	24	1	121	221	321	NaN	521	1.24505261844024	1	1	NaN	3614186.925519	NaN	3614187.9089231	3614188.42546198
98	20	1	0	90	36.1581920903955	36.241610738255	9	0.300023279953748	2	12	6	NaN	2	5	0.0710744722734826	1	1	NaN	88	2	25	1	121	221	321	NaN	521	1.52710056677461	2	1	NaN	3614190.4757637	NaN	3614191.4592729	3614191.97581593
98	20	1	0	90	36.1581920903955	36.241610738255	21	0.700054319892079	2	8	2	NaN	2	4	0.0710744722734826	1	1	NaN	89	2	26	1	121	221	321	NaN	521	0.343474771361798	2	1	NaN	3614194.4595132	NaN	3614195.4429789	3614195.95955033
98	20	1	0	90	36.1581920903955	36.241610738255	19	0.633382479902357	2	8	6	NaN	2	5	0.0710744722734826	1	1	NaN	90	2	27	1	121	221	321	NaN	521	0.548781023360789	1	0	NaN	3614197.1098747	NaN	3614198.0933675	3614198.60980478
98	20	1	0	90	36.1581920903955	36.241610738255	13	0.433366959933192	2	8	6	NaN	2	3	0.0710744722734826	1	1	NaN	91	2	28	1	121	221	321	NaN	521	0.513723471201956	1	0	NaN	3614199.9767733	NaN	3614200.9602142	3614201.47674163
98	20	1	0	90	36.1581920903955	36.241610738255	22	0.73339023988694	2	3	6	NaN	1	3	0.0710744722734826	1	1	NaN	92	2	29	1	121	221	321	NaN	521	0.432027271017432	1	1	NaN	3614202.8104402	NaN	3614203.7938284	3614204.31035563
98	20	1	0	90	36.1581920903955	36.241610738255	13	0.433366959933192	2	11	2	NaN	2	4	0.0710744722734826	1	1	NaN	93	2	30	1	121	221	321	NaN	521	0.2259905715473	2	1	NaN	3614205.5606751	NaN	3614206.5441127	3614207.06062003
98	20	1	0	90	36.1581920903955	36.241610738255	19	0.633382479902357	2	12	4	NaN	2	5	0.0710744722734826	1	1	NaN	94	2	31	1	121	221	321	NaN	521	0.116581318899989	1	0	NaN	3614208.0943677	NaN	3614209.077672	3614209.59420178
98	20	1	0	90	36.1581920903955	36.241610738255	14	0.466702879928052	2	5	3	NaN	1	3	0.0710744722734826	1	1	NaN	95	2	32	1	121	221	321	NaN	521	1.19346927152947	1	1	NaN	3614211.9614319	NaN	3614212.944724	3614213.46125963
98	20	1	0	90	36.1581920903955	36.241610738255	11	0.36669511994347	2	8	1	NaN	2	4	0.0710744722734826	1	1	NaN	96	2	33	1	121	221	321	NaN	521	0.428944518789649	2	1	NaN	3614215.4616488	NaN	3614216.4450617	3614216.96159138
98	20	1	0	90	36.1581920903955	36.241610738255	17	0.566710639912635	2	12	1	NaN	2	4	0.0710744722734826	1	1	NaN	97	2	34	1	121	221	321	NaN	521	0.367483623791486	2	1	NaN	3614218.1952395	NaN	3614219.1786491	3614219.69520368
98	20	1	0	90	36.1581920903955	36.241610738255	12	0.400031039938331	2	3	2	NaN	1	4	0.0710744722734826	1	1	NaN	98	2	35	1	121	221	321	NaN	521	2.98038292350248	1	1	NaN	3614220.8788442	NaN	3614221.862256	3614222.37879808
98	20	1	0	90	36.1581920903955	36.241610738255	6	0.200015519969165	2	4	4	NaN	1	4	0.0710744722734826	1	1	NaN	99	2	36	1	121	221	321	NaN	521	0.688565380871296	1	1	NaN	3614226.1625744	NaN	3614227.1461121	3614227.66265542
98	20	1	0	90	36.1581920903955	36.241610738255	25	0.833397999871522	2	8	3	NaN	2	5	0.0710744722734826	1	1	NaN	100	2	37	1	121	221	321	NaN	521	1.13567027123645	2	1	NaN	3614229.1630063	NaN	3614230.1464043	3614230.66294483
98	20	1	0	90	36.1581920903955	36.241610738255	0	0	1	11	1	NaN	2	4	0.0710744722734826	1	1	NaN	101	2	38	1	111	211	311	NaN	511	0.589639371261001	2	1	NaN	3614232.6132008	NaN	3614233.596798	3614234.11328063
98	20	1	0	90	36.1581920903955	36.241610738255	9	0.300023279953748	2	5	1	NaN	1	4	0.0710744722734826	1	1	NaN	102	2	39	1	121	221	321	NaN	521	1.05752478074282	1	1	NaN	3614235.5136158	NaN	3614236.4970172	3614237.01356762
98	20	1	0	90	36.1581920903955	36.241610738255	18	0.600046559907496	2	2	3	NaN	1	4	0.0710744722734826	1	1	NaN	103	2	40	1	121	221	321	NaN	521	1.17848497163504	1	1	NaN	3614238.8805162	NaN	3614239.8640121	3614240.38055453
98	20	1	0	90	36.1581920903955	36.241610738255	22	0.73339023988694	2	4	1	NaN	1	5	0.0710744722734826	1	1	NaN	104	2	41	1	121	221	321	NaN	521	1.10983601864427	2	0	NaN	3614242.3809694	NaN	3614243.3643481	3614243.88089868
98	20	1	0	90	36.1581920903955	36.241610738255	21	0.700054319892079	2	1	4	NaN	1	4	0.0710744722734826	1	1	NaN	105	2	42	1	121	221	321	NaN	521	0.820441470947117	1	1	NaN	3614245.814612	NaN	3614246.7980476	3614247.31457683
98	20	1	0	90	36.1581920903955	36.241610738255	22	0.73339023988694	2	2	4	NaN	1	3	0.0710744722734826	1	1	NaN	106	2	43	1	121	221	321	NaN	521	0.654685518704355	1	1	NaN	3614248.948269	NaN	3614249.9316945	3614250.44821038
98	20	1	0	90	36.1581920903955	36.241610738255	23	0.7667261598818	2	6	3	NaN	1	5	0.0710744722734826	1	1	NaN	107	2	44	1	121	221	321	NaN	521	0.59992112359032	1	1	NaN	3614251.9152149	NaN	3614252.8986188	3614253.41517418
98	20	1	0	90	36.1581920903955	36.241610738255	16	0.533374719917774	2	9	4	NaN	2	3	0.0710744722734826	1	1	NaN	108	2	45	1	121	221	321	NaN	521	0.386494371108711	2	1	NaN	3614254.8321775	NaN	3614255.8155622	3614256.33212153
98	20	1	0	90	36.1581920903955	36.241610738255	17	0.566710639912635	2	7	3	NaN	2	4	0.0710744722734826	1	1	NaN	109	2	46	1	121	221	321	NaN	521	2.35820667166263	1	0	NaN	3614257.5324446	NaN	3614258.5158385	3614259.03238113
98	20	1	0	90	36.1581920903955	36.241610738255	25	0.833397999871522	2	11	5	NaN	2	4	0.0710744722734826	1	1	NaN	110	2	47	1	121	221	321	NaN	521	1.02753807138652	1	0	NaN	3614262.1994443	NaN	3614263.1829513	3614263.69951093
98	20	1	0	90	36.1581920903955	36.241610738255	19	0.633382479902357	2	1	2	NaN	1	4	0.0710744722734826	1	1	NaN	111	2	48	1	121	221	321	NaN	521	0.230005371384323	1	1	NaN	3614265.5330879	NaN	3614266.5166251	3614267.03316573
98	20	1	0	90	36.1581920903955	36.241610738255	12	0.400031039938331	2	5	6	NaN	1	3	0.0710744722734826	1	1	NaN	112	2	49	1	121	221	321	NaN	521	0.183154571335763	1	1	NaN	3614268.0834698	NaN	3614269.0668873	3614269.58341993
98	20	1	0	90	36.1581920903955	36.241610738255	25	0.833397999871522	2	9	6	NaN	2	5	0.0710744722734826	1	1	NaN	113	2	50	1	121	221	321	NaN	521	0.30737561872229	2	1	NaN	3614270.5837164	NaN	3614271.5671042	3614272.08366808
98	20	1	0	90	36.1581920903955	36.241610738255	23	0.7667261598818	2	12	5	NaN	2	3	0.0710744722734826	1	1	NaN	114	2	51	1	121	221	321	NaN	521	0.20213787117973	1	0	NaN	3614273.200638	NaN	3614274.1840448	3614274.70058203
98	20	1	0	90	36.1581920903955	36.241610738255	14	0.466702879928052	2	3	2	NaN	1	3	0.0710744722734826	1	1	NaN	115	2	52	1	121	221	321	NaN	521	0.0104069234803319	1	1	NaN	3614275.7175695	NaN	3614276.7009846	3614277.21750858
98	20	1	0	90	36.1581920903955	36.241610738255	12	0.400031039938331	2	1	6	NaN	1	3	0.0710744722734826	1	1	NaN	116	2	53	1	121	221	321	NaN	521	0.312750523444265	1	1	NaN	3614278.0344698	NaN	3614279.0178618	3614279.53440108
98	20	1	0	90	36.1581920903955	36.241610738255	9	0.300023279953748	2	3	6	NaN	1	3	0.0710744722734826	1	1	NaN	117	2	54	1	121	221	321	NaN	521	0.8661989714019	1	1	NaN	3614283.1849052	NaN	3614284.1683503	3614284.68489843
98	20	1	0	90	36.1581920903955	36.241610738255	0	0	1	2	2	NaN	1	5	0.0710744722734826	1	1	NaN	118	2	55	1	111	211	311	NaN	511	0.274450423661619	1	1	NaN	3614286.3685984	NaN	3614287.3520131	3614287.86855238
98	20	1	0	90	36.1581920903955	36.241610738255	23	0.7667261598818	2	1	2	NaN	1	5	0.0710744722734826	1	1	NaN	119	2	56	1	121	221	321	NaN	521	0.426538771484047	1	1	NaN	3614288.9521913	NaN	3614289.9355681	3614290.45212623
98	20	1	0	90	36.1581920903955	36.241610738255	10	0.333359199948609	2	5	1	NaN	1	3	0.0710744722734826	1	1	NaN	120	2	57	1	121	221	321	NaN	521	0.676374542526901	1	1	NaN	3614293.1025621	NaN	3614294.0859914	3614294.60254176
98	20	1	0	90	36.1581920903955	36.241610738255	15	0.500038799922913	2	1	3	NaN	1	3	0.0710744722734826	1	1	NaN	121	2	58	1	121	221	321	NaN	521	0.244589471258223	1	1	NaN	3614296.0862061	NaN	3614297.069636	3614297.58616753
98	20	1	0	90	36.1581920903955	36.241610738255	25	0.833397999871522	2	10	1	NaN	2	3	0.0710744722734826	1	1	NaN	122	2	59	1	121	221	321	NaN	521	0.283070523291826	2	1	NaN	3614298.7197981	NaN	3614299.7032125	3614300.21976128
98	20	1	0	90	36.1581920903955	36.241610738255	19	0.633382479902357	2	4	3	NaN	1	3	0.0710744722734826	1	1	NaN	123	2	60	1	121	221	321	NaN	521	0.378603671211749	1	1	NaN	3614303.3202576	NaN	3614304.3036393	3614304.82020063
98	20	1	0	90	36.1581920903955	36.241610738255	8	0.266687359958887	2	1	5	NaN	1	5	0.0710744722734826	1	1	NaN	124	2	61	1	121	221	321	NaN	521	0.20672667119652	1	1	NaN	3614306.0038537	NaN	3614306.9872782	3614307.50380153
98	20	1	0	90	36.1581920903955	36.241610738255	21	0.700054319892079	2	4	2	NaN	1	3	0.0710744722734826	1	1	NaN	125	2	62	1	121	221	321	NaN	521	0.346323071513325	1	1	NaN	3614308.5207788	NaN	3614309.5041536	3614310.02071233
98	20	1	0	90	36.1581920903955	36.241610738255	16	0.533374719917774	2	10	1	NaN	2	4	0.0710744722734826	1	1	NaN	126	2	63	1	121	221	321	NaN	521	0.191620842553675	2	1	NaN	3614311.1711164	NaN	3614312.1544262	3614312.67097386
98	20	1	0	90	36.1581920903955	36.241610738255	7	0.233351439964026	2	10	3	NaN	2	3	0.0710744722734826	1	1	NaN	127	3	1	1	121	221	321	NaN	521	1.20267182355747	2	1	NaN	3614316.8882439	NaN	3614317.8716657	3614318.38820428
98	20	1	0	90	36.1581920903955	36.241610738255	14	0.466702879928052	2	3	2	NaN	1	4	0.0710744722734826	1	1	NaN	128	3	2	1	121	221	321	NaN	521	0.262030471116304	1	1	NaN	3614320.4052641	NaN	3614321.3886731	3614321.90521543
98	20	1	0	90	36.1581920903955	36.241610738255	13	0.433366959933192	2	9	6	NaN	2	4	0.0710744722734826	1	1	NaN	129	3	3	1	121	221	321	NaN	521	0.214076623786241	1	0	NaN	3614322.9888674	NaN	3614323.9722586	3614324.48880718
98	20	1	0	90	36.1581920903955	36.241610738255	24	0.800062079876661	2	11	1	NaN	2	4	0.0710744722734826	1	1	NaN	130	3	4	1	121	221	321	NaN	521	1.18823127122596	1	0	NaN	3614328.022664	NaN	3614329.0060923	3614329.52262833
98	20	1	0	90	36.1581920903955	36.241610738255	0	0	1	10	2	NaN	2	5	0.0710744722734826	1	1	NaN	131	3	5	1	111	211	311	NaN	511	0.456297423690557	2	1	NaN	3614331.5231329	NaN	3614332.5064232	3614333.02297658
98	20	1	0	90	36.1581920903955	36.241610738255	8	0.266687359958887	2	1	6	NaN	1	4	0.0710744722734826	1	1	NaN	132	3	6	1	121	221	321	NaN	521	0.266253371257335	1	1	NaN	3614334.4566321	NaN	3614335.4400404	3614335.95659273
98	20	1	0	90	36.1581920903955	36.241610738255	23	0.7667261598818	2	3	1	NaN	1	3	0.0710744722734826	1	1	NaN	133	3	7	1	121	221	321	NaN	521	0.954930318519473	1	1	NaN	3614337.0402173	NaN	3614338.0236282	3614338.54017718
98	20	1	0	90	36.1581920903955	36.241610738255	19	0.633382479902357	2	8	5	NaN	2	4	0.0710744722734826	1	1	NaN	134	3	8	1	121	221	321	NaN	521	0.223748323507607	2	1	NaN	3614340.307218	NaN	3614341.2906132	3614341.80717018
98	20	1	0	90	36.1581920903955	36.241610738255	20	0.666718399897218	2	5	2	NaN	1	3	0.0710744722734826	1	1	NaN	135	3	9	1	121	221	321	NaN	521	0.310166371520609	1	1	NaN	3614436.5333109	NaN	3614437.5167372	3614438.03326383
98	20	1	0	90	36.1581920903955	36.241610738255	7	0.233351439964026	2	2	6	NaN	1	5	0.0710744722734826	1	1	NaN	136	3	10	1	121	221	321	NaN	521	1.74844461400062	1	1	NaN	3614439.1668024	NaN	3614440.1503315	3614440.66685139
98	20	1	0	90	36.1581920903955	36.241610738255	24	0.800062079876661	2	2	4	NaN	1	3	0.0710744722734826	1	1	NaN	137	3	11	1	121	221	321	NaN	521	1.75280977133662	1	1	NaN	3614443.2339719	NaN	3614444.2173803	3614444.73391573
98	20	1	0	90	36.1581920903955	36.241610738255	11	0.36669511994347	2	5	1	NaN	1	3	0.0710744722734826	1	1	NaN	138	3	12	1	121	221	321	NaN	521	0.246191371232271	1	1	NaN	3614447.3010449	NaN	3614448.284351	3614448.80097973
98	20	1	0	90	36.1581920903955	36.241610738255	20	0.666718399897218	2	8	6	NaN	2	3	0.0710744722734826	1	1	NaN	139	3	13	1	121	221	321	NaN	521	0.295512723270804	2	1	NaN	3614449.8679705	NaN	3614450.8513661	3614451.36790238
98	20	1	0	90	36.1581920903955	36.241610738255	23	0.7667261598818	2	5	2	NaN	1	4	0.0710744722734826	1	1	NaN	140	3	14	1	121	221	321	NaN	521	0.278297966811806	1	1	NaN	3614452.4849117	NaN	3614453.4683274	3614453.98481993
98	20	1	0	90	36.1581920903955	36.241610738255	8	0.266687359958887	2	10	5	NaN	2	3	0.0710744722734826	1	1	NaN	141	3	15	1	121	221	321	NaN	521	0.39836317114532	2	1	NaN	3614455.0851191	NaN	3614456.0685799	3614456.58507393
98	20	1	0	90	36.1581920903955	36.241610738255	14	0.466702879928052	2	4	6	NaN	1	5	0.0710744722734826	1	1	NaN	142	3	16	1	121	221	321	NaN	521	0.288875271566212	1	1	NaN	3614457.8019839	NaN	3614458.7854812	3614459.30200963
98	20	1	0	90	36.1581920903955	36.241610738255	9	0.300023279953748	2	12	2	NaN	2	3	0.0710744722734826	1	1	NaN	143	3	17	1	121	221	321	NaN	521	0.200673471670598	2	1	NaN	3614460.4023453	NaN	3614461.3857221	3614461.90226463
98	20	1	0	90	36.1581920903955	36.241610738255	6	0.200015519969165	2	11	6	NaN	2	5	0.0710744722734826	1	1	NaN	144	3	18	1	121	221	321	NaN	521	0.195720676332712	1	0	NaN	3614462.9192404	NaN	3614463.9026599	3614464.41918832
98	20	1	0	90	36.1581920903955	36.241610738255	20	0.666718399897218	2	9	2	NaN	2	3	0.0710744722734826	1	1	NaN	145	3	19	1	121	221	321	NaN	521	1.27130757132545	1	0	NaN	3614465.4361529	NaN	3614466.4195577	3614466.93609453
98	20	1	0	90	36.1581920903955	36.241610738255	15	0.500038799922913	2	10	2	NaN	2	4	0.0710744722734826	1	1	NaN	146	3	20	1	121	221	321	NaN	521	0.26303437165916	2	1	NaN	3614469.0365064	NaN	3614470.0199188	3614470.53644723
98	20	1	0	90	36.1581920903955	36.241610738255	15	0.500038799922913	2	3	6	NaN	1	3	0.0710744722734826	1	1	NaN	147	3	21	1	121	221	321	NaN	521	1.31942867161706	1	1	NaN	3614471.6200943	NaN	3614472.6035166	3614473.12005093
98	20	1	0	90	36.1581920903955	36.241610738255	9	0.300023279953748	2	8	3	NaN	2	5	0.0710744722734826	1	1	NaN	148	3	22	1	121	221	321	NaN	521	0.253267838153988	2	1	NaN	3614475.2537775	NaN	3614476.2371909	3614476.75372736
98	20	1	0	90	36.1581920903955	36.241610738255	0	0	1	4	2	NaN	1	5	0.0710744722734826	1	1	NaN	149	3	23	1	111	211	311	NaN	511	0.742399323731661	1	1	NaN	3614477.8207173	NaN	3614478.8040933	3614479.32064958
98	20	1	0	90	36.1581920903955	36.241610738255	9	0.300023279953748	2	10	1	NaN	2	3	0.0710744722734826	1	1	NaN	150	3	24	1	121	221	321	NaN	521	0.131628771312535	1	0	NaN	3614480.8876719	NaN	3614481.8710905	3614482.38762133
98	20	1	0	90	36.1581920903955	36.241610738255	9	0.300023279953748	2	2	5	NaN	1	4	0.0710744722734826	1	1	NaN	151	3	25	1	121	221	321	NaN	521	0.457104342523962	1	1	NaN	3614483.3379173	NaN	3614484.321296	3614484.83785326
98	20	1	0	90	36.1581920903955	36.241610738255	15	0.500038799922913	2	1	4	NaN	1	3	0.0710744722734826	1	1	NaN	152	3	26	1	121	221	321	NaN	521	0.193521628621966	1	1	NaN	3614486.1215276	NaN	3614487.1049298	3614487.62146187
98	20	1	0	90	36.1581920903955	36.241610738255	20	0.666718399897218	2	3	1	NaN	1	4	0.0710744722734826	1	1	NaN	153	3	27	1	121	221	321	NaN	521	0.108508271165192	1	1	NaN	3614488.638341	NaN	3614489.6218322	3614490.13836363
98	20	1	0	90	36.1581920903955	36.241610738255	16	0.533374719917774	2	11	6	NaN	2	3	0.0710744722734826	1	1	NaN	154	3	28	1	121	221	321	NaN	521	0.211067681200802	2	1	NaN	3614491.0719859	NaN	3614492.0554331	3614492.57194532
98	20	1	0	90	36.1581920903955	36.241610738255	15	0.500038799922913	2	8	6	NaN	2	3	0.0710744722734826	1	1	NaN	155	3	29	1	121	221	321	NaN	521	0.126019871328026	2	1	NaN	3614493.6055031	NaN	3614494.5889961	3614495.10551893
98	20	1	0	90	36.1581920903955	36.241610738255	13	0.433366959933192	2	2	1	NaN	1	3	0.0710744722734826	1	1	NaN	156	3	30	1	121	221	321	NaN	521	0.0351052712649107	1	1	NaN	3614496.0557243	NaN	3614497.0392568	3614497.55575743
98	20	1	0	90	36.1581920903955	36.241610738255	17	0.566710639912635	2	4	4	NaN	1	5	0.0710744722734826	1	1	NaN	157	3	31	1	121	221	321	NaN	521	1.7883970187977	1	1	NaN	3614498.4225979	NaN	3614499.4061125	3614499.92265848
98	20	1	0	90	36.1581920903955	36.241610738255	23	0.7667261598818	2	8	4	NaN	2	4	0.0710744722734826	1	1	NaN	158	3	32	1	121	221	321	NaN	521	0.143766780849546	2	1	NaN	3614502.5397864	NaN	3614503.5231698	3614504.03973882
98	20	1	0	90	36.1581920903955	36.241610738255	19	0.633382479902357	2	6	6	NaN	1	3	0.0710744722734826	1	1	NaN	159	3	33	1	121	221	321	NaN	521	0.188825328368694	1	1	NaN	3614505.0065774	NaN	3614505.9901225	3614506.50663567
98	20	1	0	90	36.1581920903955	36.241610738255	21	0.700054319892079	2	10	3	NaN	2	5	0.0710744722734826	1	1	NaN	160	3	34	1	121	221	321	NaN	521	0.519477637950331	2	1	NaN	3614507.5236175	NaN	3614508.5070122	3614509.02355666
98	20	1	0	90	36.1581920903955	36.241610738255	9	0.300023279953748	2	7	2	NaN	2	5	0.0710744722734826	1	1	NaN	161	3	35	1	121	221	321	NaN	521	0.206312770955265	2	1	NaN	3614510.3572338	NaN	3614511.3406469	3614511.85716783
98	20	1	0	90	36.1581920903955	36.241610738255	20	0.666718399897218	2	7	6	NaN	2	3	0.0710744722734826	1	1	NaN	162	3	36	1	121	221	321	NaN	521	0.240355571266264	1	0	NaN	3614512.8907208	NaN	3614513.8742028	3614514.39074323
98	20	1	0	90	36.1581920903955	36.241610738255	11	0.36669511994347	2	11	2	NaN	2	3	0.0710744722734826	1	1	NaN	163	3	37	1	121	221	321	NaN	521	0.225529971532524	2	1	NaN	3614515.4577183	NaN	3614516.4411487	3614516.95766033
98	20	1	0	90	36.1581920903955	36.241610738255	11	0.36669511994347	2	3	3	NaN	1	3	0.0710744722734826	1	1	NaN	164	3	38	1	121	221	321	NaN	521	0.227038485463709	1	1	NaN	3614518.0079717	NaN	3614518.9913893	3614519.50793801
98	20	1	0	90	36.1581920903955	36.241610738255	16	0.533374719917774	2	11	3	NaN	2	4	0.0710744722734826	1	1	NaN	165	3	39	1	121	221	321	NaN	521	0.148703371640295	2	1	NaN	3614520.5582278	NaN	3614521.541641	3614522.05816173
98	20	1	0	90	36.1581920903955	36.241610738255	16	0.533374719917774	2	6	4	NaN	1	4	0.0710744722734826	1	1	NaN	166	3	40	1	121	221	321	NaN	521	0.201901118736714	1	1	NaN	3614523.0251245	NaN	3614524.0085342	3614524.52507838
98	20	1	0	90	36.1581920903955	36.241610738255	13	0.433366959933192	2	3	4	NaN	1	4	0.0710744722734826	1	1	NaN	167	3	41	1	121	221	321	NaN	521	0.893430490512401	1	1	NaN	3614525.5420367	NaN	3614526.5254506	3614527.04198971
98	20	1	0	90	36.1581920903955	36.241610738255	6	0.200015519969165	2	9	1	NaN	2	5	0.0710744722734826	1	1	NaN	168	3	42	1	121	221	321	NaN	521	0.220151923596859	1	0	NaN	3614528.7590402	NaN	3614529.7424593	3614530.25896598
98	20	1	0	90	36.1581920903955	36.241610738255	0	0	1	10	6	NaN	2	5	0.0710744722734826	1	1	NaN	169	3	43	1	111	211	311	NaN	511	0.163092390168458	2	1	NaN	3614531.3760418	NaN	3614532.3593501	3614532.87589211
98	20	1	0	90	36.1581920903955	36.241610738255	20	0.666718399897218	2	9	1	NaN	2	4	0.0710744722734826	1	1	NaN	170	3	44	1	121	221	321	NaN	521	0.623560470994562	2	1	NaN	3614533.8595303	NaN	3614534.8429302	3614535.35947113
98	20	1	0	90	36.1581920903955	36.241610738255	22	0.73339023988694	2	1	6	NaN	1	4	0.0710744722734826	1	1	NaN	171	3	45	1	121	221	321	NaN	521	0.481361518613994	1	1	NaN	3614536.8098124	NaN	3614537.7932145	3614538.30974978
98	20	1	0	90	36.1581920903955	36.241610738255	8	0.266687359958887	2	9	5	NaN	2	3	0.0710744722734826	1	1	NaN	172	3	46	1	121	221	321	NaN	521	0.792909223586321	2	1	NaN	3614539.6101458	NaN	3614540.5934928	3614541.11003638
98	20	1	0	90	36.1581920903955	36.241610738255	21	0.700054319892079	2	10	3	NaN	2	5	0.0710744722734826	1	1	NaN	173	3	47	1	121	221	321	NaN	521	1.38042644271627	1	0	NaN	3614542.7270657	NaN	3614543.7104727	3614544.22700756
98	20	1	0	90	36.1581920903955	36.241610738255	22	0.73339023988694	2	6	5	NaN	1	4	0.0710744722734826	1	1	NaN	174	3	48	1	121	221	321	NaN	521	1.0002956665121	1	1	NaN	3614546.4274189	NaN	3614547.4108423	3614547.92736543
98	20	1	0	90	36.1581920903955	36.241610738255	21	0.700054319892079	2	5	2	NaN	1	5	0.0710744722734826	1	1	NaN	175	3	49	1	121	221	321	NaN	521	0.314870961476117	1	1	NaN	3614549.7443953	NaN	3614550.7278313	3614551.24435244
98	20	1	0	90	36.1581920903955	36.241610738255	24	0.800062079876661	2	11	5	NaN	2	3	0.0710744722734826	1	1	NaN	176	3	50	1	121	221	321	NaN	521	1.30551747139543	2	1	NaN	3614552.3780905	NaN	3614553.3614404	3614553.87795753
98	20	1	0	90	36.1581920903955	36.241610738255	21	0.700054319892079	2	6	2	NaN	1	3	0.0710744722734826	1	1	NaN	177	3	51	1	121	221	321	NaN	521	0.383651128504425	1	1	NaN	3614556.011572	NaN	3614556.9951138	3614557.51163827
98	20	1	0	90	36.1581920903955	36.241610738255	12	0.400031039938331	2	7	5	NaN	2	5	0.0710744722734826	1	1	NaN	178	3	52	1	121	221	321	NaN	521	1.01958137145266	1	0	NaN	3614558.7119553	NaN	3614559.6953761	3614560.21190213
98	20	1	0	90	36.1581920903955	36.241610738255	16	0.533374719917774	2	9	3	NaN	2	5	0.0710744722734826	1	1	NaN	179	3	53	1	121	221	321	NaN	521	2.56495682848617	1	0	NaN	3614562.0623081	NaN	3614563.0456886	3614563.56223487
98	20	1	0	90	36.1581920903955	36.241610738255	7	0.233351439964026	2	3	5	NaN	1	3	0.0710744722734826	1	1	NaN	180	3	54	1	121	221	321	NaN	521	0.225147623568773	1	1	NaN	3614566.9461091	NaN	3614567.9295129	3614568.44604548
98	20	1	0	90	36.1581920903955	36.241610738255	13	0.433366959933192	2	8	6	NaN	2	5	0.0710744722734826	1	1	NaN	181	3	55	1	121	221	321	NaN	521	0.2111397231929	2	1	NaN	3614569.4962506	NaN	3614570.4797531	3614570.99629698
98	20	1	0	90	36.1581920903955	36.241610738255	7	0.233351439964026	2	10	1	NaN	2	5	0.0710744722734826	1	1	NaN	182	3	56	1	121	221	321	NaN	521	0.20319571858272	2	1	NaN	3614572.2799468	NaN	3614573.2633659	3614573.77988718
98	20	1	0	90	36.1581920903955	36.241610738255	13	0.433366959933192	2	3	3	NaN	1	3	0.0710744722734826	1	1	NaN	183	3	57	1	121	221	321	NaN	521	0.190317171625793	1	1	NaN	3614574.7967822	NaN	3614575.7802926	3614576.29680923
98	20	1	0	90	36.1581920903955	36.241610738255	13	0.433366959933192	2	4	1	NaN	1	5	0.0710744722734826	1	1	NaN	184	3	58	1	121	221	321	NaN	521	0.35392797132954	1	1	NaN	3614577.3137914	NaN	3614578.2971892	3614578.81372173
98	20	1	0	90	36.1581920903955	36.241610738255	22	0.73339023988694	2	4	2	NaN	1	4	0.0710744722734826	1	1	NaN	185	3	59	1	121	221	321	NaN	521	0.701915471348912	1	1	NaN	3614579.9973582	NaN	3614580.9806981	3614581.49731363
98	20	1	0	90	36.1581920903955	36.241610738255	17	0.566710639912635	2	5	3	NaN	1	3	0.0710744722734826	1	1	NaN	186	3	60	1	121	221	321	NaN	521	0.148529123514891	1	1	NaN	3614583.0309956	NaN	3614584.0144245	3614584.53095178
98	20	1	0	90	36.1581920903955	36.241610738255	11	0.36669511994347	2	9	5	NaN	2	3	0.0710744722734826	1	1	NaN	187	3	61	1	121	221	321	NaN	521	0.05650221882388	1	0	NaN	3614585.5145836	NaN	3614586.4980084	3614587.01451678
98	20	1	0	90	36.1581920903955	36.241610738255	24	0.800062079876661	2	6	1	NaN	1	4	0.0710744722734826	1	1	NaN	188	3	62	1	121	221	321	NaN	521	0.296970118768513	1	1	NaN	3614587.8981455	NaN	3614588.8815436	3614589.39808418
98	20	1	0	90	36.1581920903955	36.241610738255	13	0.433366959933192	2	7	5	NaN	2	3	0.0710744722734826	1	1	NaN	189	3	63	1	121	221	321	NaN	521	0.200129771605134	2	1	NaN	3614590.515085	NaN	3614591.4985212	3614592.01501753
98	20	1	0	90	36.1581920903955	36.241610738255	24	0.800062079876661	2	7	3	NaN	2	5	0.0710744722734826	1	1	NaN	190	4	1	1	121	221	321	NaN	521	0.633027671370655	2	1	NaN	3614595.0821787	NaN	3614596.0655948	3614596.58213383
98	20	1	0	90	36.1581920903955	36.241610738255	23	0.7667261598818	2	4	3	NaN	1	4	0.0710744722734826	1	1	NaN	191	4	2	1	121	221	321	NaN	521	0.194239638280123	1	1	NaN	3614598.0491528	NaN	3614599.0325587	3614599.54909256
98	20	1	0	90	36.1581920903955	36.241610738255	13	0.433366959933192	2	6	2	NaN	1	3	0.0710744722734826	1	1	NaN	192	4	3	1	121	221	321	NaN	521	0.253467090427876	1	1	NaN	3614600.5660704	NaN	3614601.5494799	3614602.06600131
98	20	1	0	90	36.1581920903955	36.241610738255	20	0.666718399897218	2	4	3	NaN	1	3	0.0710744722734826	1	1	NaN	193	4	4	1	121	221	321	NaN	521	0.222403518855572	1	1	NaN	3614603.1329762	NaN	3614604.1163927	3614604.63291288
98	20	1	0	90	36.1581920903955	36.241610738255	17	0.566710639912635	2	4	6	NaN	1	3	0.0710744722734826	1	1	NaN	194	4	5	1	121	221	321	NaN	521	0.488586971536279	2	0	NaN	3614605.6664245	NaN	3614606.649986	3614607.16649963
98	20	1	0	90	36.1581920903955	36.241610738255	6	0.200015519969165	2	7	4	NaN	2	4	0.0710744722734826	1	1	NaN	195	4	6	1	121	221	321	NaN	521	0.223816271405667	2	1	NaN	3614608.4835296	NaN	3614609.4668914	3614609.98344103
98	20	1	0	90	36.1581920903955	36.241610738255	14	0.466702879928052	2	11	5	NaN	2	3	0.0710744722734826	1	1	NaN	196	4	7	1	121	221	321	NaN	521	1.34599907137454	2	1	NaN	3614611.0337991	NaN	3614612.0171716	3614612.53369013
98	20	1	0	90	36.1581920903955	36.241610738255	19	0.633382479902357	2	7	6	NaN	2	5	0.0710744722734826	1	1	NaN	197	4	8	1	121	221	321	NaN	521	0.542491866741329	2	1	NaN	3614614.7008725	NaN	3614615.6841948	3614616.20071893
98	20	1	0	90	36.1581920903955	36.241610738255	19	0.633382479902357	2	3	4	NaN	1	3	0.0710744722734826	1	1	NaN	198	4	9	1	121	221	321	NaN	521	0.27549832360819	1	1	NaN	3614617.5677296	NaN	3614618.5511411	3614619.06767398
98	20	1	0	90	36.1581920903955	36.241610738255	11	0.36669511994347	2	7	2	NaN	2	3	0.0710744722734826	1	1	NaN	199	4	10	1	121	221	321	NaN	521	0.267610671464354	2	1	NaN	3614620.1678297	NaN	3614621.1513857	3614621.66792023
98	20	1	0	90	36.1581920903955	36.241610738255	9	0.300023279953748	2	10	4	NaN	2	3	0.0710744722734826	1	1	NaN	200	4	11	1	121	221	321	NaN	521	0.347969171125442	2	1	NaN	3614622.7515637	NaN	3614623.7348445	3614624.25150523
98	20	1	0	90	36.1581920903955	36.241610738255	10	0.333359199948609	2	9	3	NaN	2	4	0.0710744722734826	1	1	NaN	201	4	12	1	121	221	321	NaN	521	0.848637133371085	2	1	NaN	3614625.418497	NaN	3614626.4019098	3614626.91844647
98	20	1	0	90	36.1581920903955	36.241610738255	10	0.333359199948609	2	2	2	NaN	1	5	0.0710744722734826	1	1	NaN	202	4	13	1	121	221	321	NaN	521	0.28213152801618	1	1	NaN	3614628.5854868	NaN	3614629.5688815	3614630.08540997
98	20	1	0	90	36.1581920903955	36.241610738255	19	0.633382479902357	2	11	2	NaN	2	4	0.0710744722734826	1	1	NaN	203	4	14	1	121	221	321	NaN	521	0.689637490082532	2	1	NaN	3614631.1857082	NaN	3614632.169148	3614632.68566911
98	20	1	0	90	36.1581920903955	36.241610738255	17	0.566710639912635	2	6	5	NaN	1	3	0.0710744722734826	1	1	NaN	204	4	15	1	121	221	321	NaN	521	0.216972137801349	1	1	NaN	3614634.2025463	NaN	3614635.1860064	3614635.70262846
98	20	1	0	90	36.1581920903955	36.241610738255	7	0.233351439964026	2	9	5	NaN	2	3	0.0710744722734826	1	1	NaN	205	4	16	1	121	221	321	NaN	521	0.186425937805325	1	0	NaN	3614636.7529514	NaN	3614637.7363685	3614638.25288086
98	20	1	0	90	36.1581920903955	36.241610738255	13	0.433366959933192	2	12	6	NaN	2	4	0.0710744722734826	1	1	NaN	206	4	17	1	121	221	321	NaN	521	0.102172871120274	2	1	NaN	3614639.253172	NaN	3614640.2366257	3614640.75312913
98	20	1	0	90	36.1581920903955	36.241610738255	19	0.633382479902357	2	6	3	NaN	1	5	0.0710744722734826	1	1	NaN	207	4	18	1	121	221	321	NaN	521	0.276520390529186	1	1	NaN	3614641.6867542	NaN	3614642.6701622	3614643.18671181
98	20	1	0	90	36.1581920903955	36.241610738255	17	0.566710639912635	2	5	5	NaN	1	4	0.0710744722734826	1	1	NaN	208	4	19	1	121	221	321	NaN	521	0.15632484247908	1	1	NaN	3614644.2870247	NaN	3614645.2704546	3614645.78695486
98	20	1	0	90	36.1581920903955	36.241610738255	13	0.433366959933192	2	4	6	NaN	1	3	0.0710744722734826	1	1	NaN	209	4	20	1	121	221	321	NaN	521	0.200624071527272	1	1	NaN	3614646.7705843	NaN	3614647.7540166	3614648.27053373
98	20	1	0	90	36.1581920903955	36.241610738255	11	0.36669511994347	2	7	4	NaN	2	3	0.0710744722734826	1	1	NaN	210	4	21	1	121	221	321	NaN	521	0.235800423659384	2	1	NaN	3614649.2875034	NaN	3614650.2709095	3614650.78744288
98	20	1	0	90	36.1581920903955	36.241610738255	6	0.200015519969165	2	4	5	NaN	1	5	0.0710744722734826	1	1	NaN	211	4	22	1	121	221	321	NaN	521	0.213320871349424	1	1	NaN	3614651.8377558	NaN	3614652.8211903	3614653.33768873
98	20	1	0	90	36.1581920903955	36.241610738255	22	0.73339023988694	2	6	2	NaN	1	5	0.0710744722734826	1	1	NaN	212	4	23	1	121	221	321	NaN	521	0.304101118352264	1	1	NaN	3614654.37123	NaN	3614655.3547204	3614655.87127918
98	20	1	0	90	36.1581920903955	36.241610738255	15	0.500038799922913	2	5	3	NaN	1	3	0.0710744722734826	1	1	NaN	213	4	24	1	121	221	321	NaN	521	0.150376571342349	1	1	NaN	3614657.0049072	NaN	3614657.9883281	3614658.50486333
98	20	1	0	90	36.1581920903955	36.241610738255	7	0.233351439964026	2	12	4	NaN	2	5	0.0710744722734826	1	1	NaN	214	4	25	1	121	221	321	NaN	521	0.755173418670893	2	1	NaN	3614659.4885002	NaN	3614660.4719326	3614660.98844548
98	20	1	0	90	36.1581920903955	36.241610738255	24	0.800062079876661	2	5	3	NaN	1	4	0.0710744722734826	1	1	NaN	215	4	26	1	121	221	321	NaN	521	0.175631680991501	1	1	NaN	3614662.5720452	NaN	3614663.5555457	3614664.07207972
98	20	1	0	90	36.1581920903955	36.241610738255	25	0.833397999871522	2	7	6	NaN	2	5	0.0710744722734826	1	1	NaN	216	4	27	1	121	221	321	NaN	521	0.371238618623465	2	1	NaN	3614665.0722576	NaN	3614666.0558139	3614666.57231878
98	20	1	0	90	36.1581920903955	36.241610738255	17	0.566710639912635	2	6	3	NaN	1	4	0.0710744722734826	1	1	NaN	217	4	28	1	121	221	321	NaN	521	0.222549971658736	1	1	NaN	3614667.7725397	NaN	3614668.7560337	3614669.27258993
98	20	1	0	90	36.1581920903955	36.241610738255	16	0.533374719917774	2	5	6	NaN	1	3	0.0710744722734826	1	1	NaN	218	4	29	1	121	221	321	NaN	521	0.209492337889969	1	1	NaN	3614670.3062826	NaN	3614671.289661	3614671.80617186
98	20	1	0	90	36.1581920903955	36.241610738255	14	0.466702879928052	2	9	2	NaN	2	3	0.0710744722734826	1	1	NaN	219	4	30	1	121	221	321	NaN	521	0.259744238108397	2	1	NaN	3614672.8397938	NaN	3614673.8231967	3614674.33975316
98	20	1	0	90	36.1581920903955	36.241610738255	6	0.200015519969165	2	8	4	NaN	2	5	0.0710744722734826	1	1	NaN	220	4	31	1	121	221	321	NaN	521	0.276348323561251	2	1	NaN	3614675.4234838	NaN	3614676.4068211	3614676.92333748
98	20	1	0	90	36.1581920903955	36.241610738255	6	0.200015519969165	2	12	3	NaN	2	4	0.0710744722734826	1	1	NaN	221	4	32	1	121	221	321	NaN	521	0.236155823804438	2	1	NaN	3614678.0236636	NaN	3614679.0070679	3614679.52359448
98	20	1	0	90	36.1581920903955	36.241610738255	11	0.36669511994347	2	6	3	NaN	1	5	0.0710744722734826	1	1	NaN	222	4	33	1	121	221	321	NaN	521	0.293982176110148	1	1	NaN	3614680.5738986	NaN	3614681.5573202	3614682.07384592
98	20	1	0	90	36.1581920903955	36.241610738255	11	0.36669511994347	2	11	5	NaN	2	3	0.0710744722734826	1	1	NaN	223	4	34	1	121	221	321	NaN	521	0.716990733053535	2	1	NaN	3614683.1908247	NaN	3614684.1742173	3614684.69076477
98	20	1	0	90	36.1581920903955	36.241610738255	12	0.400031039938331	2	4	2	NaN	1	4	0.0710744722734826	1	1	NaN	224	4	35	1	121	221	321	NaN	521	0.16277511883527	1	1	NaN	3614686.2243908	NaN	3614687.2078658	3614687.72438498
98	20	1	0	90	36.1581920903955	36.241610738255	25	0.833397999871522	2	12	4	NaN	2	5	0.0710744722734826	1	1	NaN	225	4	36	1	121	221	321	NaN	521	0.263275771401823	2	1	NaN	3614688.7078967	NaN	3614689.6914332	3614690.20797053
98	20	1	0	90	36.1581920903955	36.241610738255	18	0.600046559907496	2	11	1	NaN	2	3	0.0710744722734826	1	1	NaN	226	4	37	1	121	221	321	NaN	521	0.359673585742712	2	1	NaN	3614691.2916249	NaN	3614692.2750278	3614692.79156211
98	20	1	0	90	36.1581920903955	36.241610738255	9	0.300023279953748	2	11	4	NaN	2	5	0.0710744722734826	1	1	NaN	227	4	38	1	121	221	321	NaN	521	0.748051471076906	2	1	NaN	3614693.9751076	NaN	3614694.9586473	3614695.47515373
98	20	1	0	90	36.1581920903955	36.241610738255	24	0.800062079876661	2	3	5	NaN	1	4	0.0710744722734826	1	1	NaN	228	4	39	1	121	221	321	NaN	521	0.329238318838179	1	1	NaN	3614697.0421793	NaN	3614698.025589	3614698.54212418
98	20	1	0	90	36.1581920903955	36.241610738255	23	0.7667261598818	2	8	5	NaN	2	5	0.0710744722734826	1	1	NaN	229	4	40	1	121	221	321	NaN	521	0.247443918604404	2	1	NaN	3614699.6924391	NaN	3614700.6758382	3614701.19237598
98	20	1	0	90	36.1581920903955	36.241610738255	21	0.700054319892079	2	6	4	NaN	1	4	0.0710744722734826	1	1	NaN	230	4	41	1	121	221	321	NaN	521	0.23977369023487	1	1	NaN	3614702.2593662	NaN	3614703.2427718	3614703.75930941
98	20	1	0	90	36.1581920903955	36.241610738255	21	0.700054319892079	2	7	1	NaN	2	3	0.0710744722734826	1	1	NaN	231	4	42	1	121	221	321	NaN	521	0.864858676213771	2	1	NaN	3614704.8261488	NaN	3614705.8096936	3614706.32621472
98	20	1	0	90	36.1581920903955	36.241610738255	23	0.7667261598818	2	4	5	NaN	1	4	0.0710744722734826	1	1	NaN	232	4	43	1	121	221	321	NaN	521	0.257964071352035	1	1	NaN	3614708.0099988	NaN	3614708.9932	3614709.50986553
98	20	1	0	90	36.1581920903955	36.241610738255	8	0.266687359958887	2	2	6	NaN	1	4	0.0710744722734826	1	1	NaN	233	4	44	1	121	221	321	NaN	521	0.18584163300693	1	1	NaN	3614710.5935033	NaN	3614711.5768867	3614712.09345337
98	20	1	0	90	36.1581920903955	36.241610738255	19	0.633382479902357	2	9	2	NaN	2	3	0.0710744722734826	1	1	NaN	234	4	45	1	121	221	321	NaN	521	0.268999223131686	2	1	NaN	3614713.1104748	NaN	3614714.0938609	3614714.61036208
98	20	1	0	90	36.1581920903955	36.241610738255	12	0.400031039938331	2	8	1	NaN	2	3	0.0710744722734826	1	1	NaN	235	4	46	1	121	221	321	NaN	521	0.269250771496445	2	1	NaN	3614715.6940012	NaN	3614716.677429	3614717.19394923
98	20	1	0	90	36.1581920903955	36.241610738255	10	0.333359199948609	2	3	5	NaN	1	3	0.0710744722734826	1	1	NaN	236	4	47	1	121	221	321	NaN	521	0.245913471560925	1	1	NaN	3614718.2774789	NaN	3614719.2610085	3614719.77753443
98	20	1	0	90	36.1581920903955	36.241610738255	15	0.500038799922913	2	10	2	NaN	2	4	0.0710744722734826	1	1	NaN	237	4	48	1	121	221	321	NaN	521	0.262786671519279	2	1	NaN	3614720.8445152	NaN	3614721.8279344	3614722.34444513
98	20	1	0	90	36.1581920903955	36.241610738255	7	0.233351439964026	2	1	4	NaN	1	4	0.0710744722734826	1	1	NaN	238	4	49	1	121	221	321	NaN	521	0.311363628599793	1	1	NaN	3614723.428094	NaN	3614724.4115161	3614724.92803307
98	20	1	0	90	36.1581920903955	36.241610738255	20	0.666718399897218	2	6	6	NaN	1	5	0.0710744722734826	1	1	NaN	239	4	50	1	121	221	321	NaN	521	0.974270371720195	1	1	NaN	3614726.0616979	NaN	3614727.0450821	3614727.56162973
98	20	1	0	90	36.1581920903955	36.241610738255	14	0.466702879928052	2	7	1	NaN	2	5	0.0710744722734826	1	1	NaN	240	4	51	1	121	221	321	NaN	521	0.329248271416873	2	1	NaN	3614729.3620035	NaN	3614730.3454194	3614730.86195303
98	20	1	0	90	36.1581920903955	36.241610738255	18	0.600046559907496	2	9	2	NaN	2	5	0.0710744722734826	1	1	NaN	241	4	52	1	121	221	321	NaN	521	1.20709746656939	2	1	NaN	3614732.0122287	NaN	3614732.9957116	3614733.51221163
98	20	1	0	90	36.1581920903955	36.241610738255	9	0.300023279953748	2	8	6	NaN	2	4	0.0710744722734826	1	1	NaN	242	4	53	1	121	221	321	NaN	521	0.249355671461672	2	1	NaN	3614735.5459464	NaN	3614736.529368	3614737.04589613
98	20	1	0	90	36.1581920903955	36.241610738255	12	0.400031039938331	2	10	2	NaN	2	5	0.0710744722734826	1	1	NaN	243	4	54	1	121	221	321	NaN	521	0.306505737826228	2	1	NaN	3614738.1128727	NaN	3614739.0962904	3614739.61282086
98	20	1	0	90	36.1581920903955	36.241610738255	15	0.500038799922913	2	6	6	NaN	1	5	0.0710744722734826	1	1	NaN	244	4	55	1	121	221	321	NaN	521	0.400857471395284	1	1	NaN	3614740.7464656	NaN	3614741.7299048	3614742.24640593
98	20	1	0	90	36.1581920903955	36.241610738255	12	0.400031039938331	2	1	2	NaN	1	3	0.0710744722734826	1	1	NaN	245	4	56	1	121	221	321	NaN	521	1.55542707163841	1	1	NaN	3614743.480041	NaN	3614744.4634802	3614744.97999623
98	20	1	0	90	36.1581920903955	36.241610738255	0	0	1	12	3	NaN	2	5	0.0710744722734826	1	1	NaN	246	4	57	1	111	211	311	NaN	511	0.255770571529865	2	1	NaN	3614747.3637864	NaN	3614748.3472293	3614748.86373233
98	20	1	0	90	36.1581920903955	36.241610738255	22	0.73339023988694	2	5	5	NaN	1	3	0.0710744722734826	1	1	NaN	247	4	58	1	121	221	321	NaN	521	0.544491419102997	1	1	NaN	3614749.9472483	NaN	3614750.9307743	3614751.44729208
98	20	1	0	90	36.1581920903955	36.241610738255	12	0.400031039938331	2	7	2	NaN	2	5	0.0710744722734826	1	1	NaN	248	4	59	1	121	221	321	NaN	521	0.292894437909126	2	1	NaN	3614752.8142965	NaN	3614753.7977281	3614754.31424706
98	20	1	0	90	36.1581920903955	36.241610738255	11	0.36669511994347	2	1	2	NaN	1	3	0.0710744722734826	1	1	NaN	249	4	60	1	121	221	321	NaN	521	0.260539090260863	2	0	NaN	3614755.431118	NaN	3614756.4146514	3614756.93117641
98	20	1	0	90	36.1581920903955	36.241610738255	18	0.600046559907496	2	12	4	NaN	2	3	0.0710744722734826	1	1	NaN	250	4	61	1	121	221	321	NaN	521	0.236719118896872	1	0	NaN	3614758.0148255	NaN	3614758.9982484	3614759.51481638
98	20	1	0	90	36.1581920903955	36.241610738255	8	0.266687359958887	2	11	2	NaN	2	4	0.0710744722734826	1	1	NaN	251	4	62	1	121	221	321	NaN	521	0.461613723542541	1	0	NaN	3614760.5817224	NaN	3614761.5651516	3614762.08168478
98	20	1	0	90	36.1581920903955	36.241610738255	22	0.73339023988694	2	11	6	NaN	2	4	0.0710744722734826	1	1	NaN	252	4	63	1	121	221	321	NaN	521	0.478018471505493	2	1	NaN	3614763.3653208	NaN	3614764.3487265	3614764.86528413
98	20	1	0	90	36.1581920903955	36.241610738255	6	0.200015519969165	2	11	1	NaN	2	5	0.0710744722734826	1	1	NaN	253	5	1	1	121	221	321	NaN	521	1.15604112343863	2	1	NaN	3614768.8158584	NaN	3614769.7992817	3614770.31582328
98	20	1	0	90	36.1581920903955	36.241610738255	6	0.200015519969165	2	5	4	NaN	1	5	0.0710744722734826	1	1	NaN	254	5	2	1	121	221	321	NaN	521	0.26387626118958	1	1	NaN	3614772.2995162	NaN	3614773.2829657	3614773.79949284
98	20	1	0	90	36.1581920903955	36.241610738255	7	0.233351439964026	2	7	6	NaN	2	5	0.0710744722734826	1	1	NaN	255	5	3	1	121	221	321	NaN	521	0.584322037640959	1	0	NaN	3614774.8830485	NaN	3614775.8665621	3614776.38308946
98	20	1	0	90	36.1581920903955	36.241610738255	18	0.600046559907496	2	5	6	NaN	1	5	0.0710744722734826	1	1	NaN	256	5	4	1	121	221	321	NaN	521	0.324137523304671	1	1	NaN	3614777.7834267	NaN	3614778.7668336	3614779.28336368
98	20	1	0	90	36.1581920903955	36.241610738255	15	0.500038799922913	2	7	5	NaN	2	5	0.0710744722734826	1	1	NaN	257	5	5	1	121	221	321	NaN	521	0.22558888560161	2	1	NaN	3614780.43356	NaN	3614781.4171141	3614781.93361841
98	20	1	0	90	36.1581920903955	36.241610738255	18	0.600046559907496	2	7	1	NaN	2	5	0.0710744722734826	1	1	NaN	258	5	6	1	121	221	321	NaN	521	0.843822875991464	1	0	NaN	3614782.9838061	NaN	3614783.9673448	3614784.48386882
98	20	1	0	90	36.1581920903955	36.241610738255	15	0.500038799922913	2	6	6	NaN	1	3	0.0710744722734826	1	1	NaN	259	5	7	1	121	221	321	NaN	521	0.228583518881351	1	1	NaN	3614786.1509122	NaN	3614787.1343241	3614787.65084528
98	20	1	0	90	36.1581920903955	36.241610738255	22	0.73339023988694	2	8	2	NaN	2	5	0.0710744722734826	1	1	NaN	260	5	8	1	121	221	321	NaN	521	0.88615626655519	2	1	NaN	3614788.7011538	NaN	3614789.6845376	3614790.20109293
98	20	1	0	90	36.1581920903955	36.241610738255	0	0	1	5	1	NaN	1	4	0.0710744722734826	1	1	NaN	261	5	9	1	111	211	311	NaN	511	0.229394137859344	1	1	NaN	3614791.9181152	NaN	3614792.9015532	3614793.41808366
98	20	1	0	90	36.1581920903955	36.241610738255	19	0.633382479902357	2	10	4	NaN	2	5	0.0710744722734826	1	1	NaN	262	5	10	1	121	221	321	NaN	521	0.335123223252594	1	0	NaN	3614794.4683938	NaN	3614795.4517947	3614795.96833138
98	20	1	0	90	36.1581920903955	36.241610738255	17	0.566710639912635	2	10	5	NaN	2	3	0.0710744722734826	1	1	NaN	263	5	11	1	121	221	321	NaN	521	0.197250876110047	2	1	NaN	3614797.1185229	NaN	3614798.10207	3614798.61859572
98	20	1	0	90	36.1581920903955	36.241610738255	14	0.466702879928052	2	6	6	NaN	1	4	0.0710744722734826	1	1	NaN	264	5	12	1	121	221	321	NaN	521	0.215994071681052	1	1	NaN	3614799.6354263	NaN	3614800.618967	3614801.13550143
98	20	1	0	90	36.1581920903955	36.241610738255	20	0.666718399897218	2	11	2	NaN	2	5	0.0710744722734826	1	1	NaN	265	5	13	1	121	221	321	NaN	521	0.30612777126953	2	1	NaN	3614802.169151	NaN	3614803.1525622	3614803.66908123
98	20	1	0	90	36.1581920903955	36.241610738255	14	0.466702879928052	2	12	5	NaN	2	5	0.0710744722734826	1	1	NaN	266	5	14	1	121	221	321	NaN	521	0.200903771445155	2	1	NaN	3614804.8027479	NaN	3614805.7861438	3614806.30267773
98	20	1	0	90	36.1581920903955	36.241610738255	10	0.333359199948609	2	12	1	NaN	2	5	0.0710744722734826	1	1	NaN	267	5	15	1	121	221	321	NaN	521	0.403772790450603	1	0	NaN	3614807.3196576	NaN	3614808.3030793	3614808.81958991
98	20	1	0	90	36.1581920903955	36.241610738255	19	0.633382479902357	2	2	5	NaN	1	4	0.0710744722734826	1	1	NaN	268	5	16	1	121	221	321	NaN	521	0.286768871359527	1	1	NaN	3614810.0365881	NaN	3614811.0199776	3614811.53652233
98	20	1	0	90	36.1581920903955	36.241610738255	18	0.600046559907496	2	4	1	NaN	1	4	0.0710744722734826	1	1	NaN	269	5	17	1	121	221	321	NaN	521	0.22989317169413	1	1	NaN	3614812.6534887	NaN	3614813.6369107	3614814.15344443
98	20	1	0	90	36.1581920903955	36.241610738255	13	0.433366959933192	2	9	3	NaN	2	3	0.0710744722734826	1	1	NaN	270	5	18	1	121	221	321	NaN	521	0.17631127173081	2	1	NaN	3614815.2036288	NaN	3614816.1871917	3614816.70369413
98	20	1	0	90	36.1581920903955	36.241610738255	11	0.36669511994347	2	9	3	NaN	2	5	0.0710744722734826	1	1	NaN	271	5	19	1	121	221	321	NaN	521	0.211520771495998	1	0	NaN	3614817.7039696	NaN	3614818.6874167	3614819.20393893
98	20	1	0	90	36.1581920903955	36.241610738255	16	0.533374719917774	2	4	2	NaN	1	5	0.0710744722734826	1	1	NaN	272	5	20	1	121	221	321	NaN	521	0.310123690403998	1	1	NaN	3614820.2376017	NaN	3614821.2209978	3614821.73753011
98	20	1	0	90	36.1581920903955	36.241610738255	25	0.833397999871522	2	1	5	NaN	1	4	0.0710744722734826	1	1	NaN	273	5	21	1	121	221	321	NaN	521	0.252697785850614	1	1	NaN	3614822.8711966	NaN	3614823.8545811	3614824.37111251
98	20	1	0	90	36.1581920903955	36.241610738255	15	0.500038799922913	2	8	5	NaN	2	4	0.0710744722734826	1	1	NaN	274	5	22	1	121	221	321	NaN	521	0.229665771592408	1	0	NaN	3614825.438072	NaN	3614826.4214794	3614826.93803353
98	20	1	0	90	36.1581920903955	36.241610738255	25	0.833397999871522	2	3	1	NaN	1	3	0.0710744722734826	1	1	NaN	275	5	23	1	121	221	321	NaN	521	0.311716319061816	1	1	NaN	3614827.9883482	NaN	3614828.9717663	3614829.48827278
98	20	1	0	90	36.1581920903955	36.241610738255	13	0.433366959933192	2	7	2	NaN	2	3	0.0710744722734826	1	1	NaN	276	5	24	1	121	221	321	NaN	521	0.301609971560538	2	1	NaN	3614830.6218163	NaN	3614831.6053204	3614832.12186273
98	20	1	0	90	36.1581920903955	36.241610738255	9	0.300023279953748	2	1	6	NaN	1	4	0.0710744722734826	1	1	NaN	277	5	25	1	121	221	321	NaN	521	0.580382437910885	1	1	NaN	3614833.2555165	NaN	3614834.2389603	3614834.75547386
98	20	1	0	90	36.1581920903955	36.241610738255	7	0.233351439964026	2	3	2	NaN	1	5	0.0710744722734826	1	1	NaN	278	5	26	1	121	221	321	NaN	521	0.383667071349919	1	1	NaN	3614836.1558279	NaN	3614837.1392205	3614837.65574053
98	20	1	0	90	36.1581920903955	36.241610738255	9	0.300023279953748	2	9	2	NaN	2	4	0.0710744722734826	1	1	NaN	279	5	27	1	121	221	321	NaN	521	0.491583823226392	2	1	NaN	3614838.8560713	NaN	3614839.8394818	3614840.35601848
98	20	1	0	90	36.1581920903955	36.241610738255	16	0.533374719917774	2	12	5	NaN	2	4	0.0710744722734826	1	1	NaN	280	5	28	1	121	221	321	NaN	521	0.354974071029574	2	1	NaN	3614841.6729744	NaN	3614842.6564237	3614843.17295713
98	20	1	0	90	36.1581920903955	36.241610738255	23	0.7667261598818	2	11	6	NaN	2	4	0.0710744722734826	1	1	NaN	281	5	29	1	121	221	321	NaN	521	0.57547662826255	1	0	NaN	3614844.3399616	NaN	3614845.3233467	3614845.83988167
98	20	1	0	90	36.1581920903955	36.241610738255	6	0.200015519969165	2	3	4	NaN	1	5	0.0710744722734826	1	1	NaN	282	5	30	1	121	221	321	NaN	521	0.268567476421595	1	1	NaN	3614847.2235652	NaN	3614848.2069937	3614848.72350562
98	20	1	0	90	36.1581920903955	36.241610738255	7	0.233351439964026	2	9	1	NaN	2	5	0.0710744722734826	1	1	NaN	283	5	31	1	121	221	321	NaN	521	1.25971681904048	1	0	NaN	3614849.823815	NaN	3614850.8072411	3614851.32374618
98	20	1	0	90	36.1581920903955	36.241610738255	16	0.533374719917774	2	5	4	NaN	1	4	0.0710744722734826	1	1	NaN	284	5	32	1	121	221	321	NaN	521	0.244131318759173	1	1	NaN	3614853.4073799	NaN	3614854.3909042	3614854.90743468
98	20	1	0	90	36.1581920903955	36.241610738255	18	0.600046559907496	2	6	4	NaN	1	4	0.0710744722734826	1	1	NaN	285	5	33	1	121	221	321	NaN	521	0.269461871590465	1	1	NaN	3614855.9742933	NaN	3614856.9578195	3614857.47435433
98	20	1	0	90	36.1581920903955	36.241610738255	24	0.800062079876661	2	9	5	NaN	2	5	0.0710744722734826	1	1	NaN	286	5	34	1	121	221	321	NaN	521	0.190027371514589	1	0	NaN	3614858.5579941	NaN	3614859.541407	3614860.05794113
98	20	1	0	90	36.1581920903955	36.241610738255	11	0.36669511994347	2	4	6	NaN	1	5	0.0710744722734826	1	1	NaN	287	5	35	1	121	221	321	NaN	521	0.241240919101983	1	1	NaN	3614861.0581712	NaN	3614862.041675	3614862.55818518
98	20	1	0	90	36.1581920903955	36.241610738255	16	0.533374719917774	2	7	1	NaN	2	4	0.0710744722734826	1	1	NaN	288	5	36	1	121	221	321	NaN	521	1.05833231890574	1	0	NaN	3614863.6251685	NaN	3614864.6085795	3614865.12510148
98	20	1	0	90	36.1581920903955	36.241610738255	18	0.600046559907496	2	10	2	NaN	2	4	0.0710744722734826	1	1	NaN	289	5	37	1	121	221	321	NaN	521	0.242703718598932	2	1	NaN	3614867.0088151	NaN	3614867.9922457	3614868.50876778
98	20	1	0	90	36.1581920903955	36.241610738255	25	0.833397999871522	2	1	5	NaN	1	4	0.0710744722734826	1	1	NaN	290	5	38	1	121	221	321	NaN	521	0.195963581092656	1	1	NaN	3614869.5757481	NaN	3614870.5591699	3614871.07569372
98	20	1	0	90	36.1581920903955	36.241610738255	25	0.833397999871522	2	4	4	NaN	1	4	0.0710744722734826	1	1	NaN	291	5	39	1	121	221	321	NaN	521	0.455389671493322	1	1	NaN	3614872.0927016	NaN	3614873.0760646	3614873.59259503
98	20	1	0	90	36.1581920903955	36.241610738255	17	0.566710639912635	2	9	1	NaN	2	4	0.0710744722734826	1	1	NaN	292	5	40	1	121	221	321	NaN	521	0.240363823715597	1	0	NaN	3614874.8594487	NaN	3614875.8430133	3614876.35953808
98	20	1	0	90	36.1581920903955	36.241610738255	21	0.700054319892079	2	7	6	NaN	2	5	0.0710744722734826	1	1	NaN	293	5	41	1	121	221	321	NaN	521	0.225508471485227	2	1	NaN	3614877.4265154	NaN	3614878.4099383	3614878.92644833
98	20	1	0	90	36.1581920903955	36.241610738255	25	0.833397999871522	2	8	3	NaN	2	5	0.0710744722734826	1	1	NaN	294	5	42	1	121	221	321	NaN	521	0.266862923745066	2	1	NaN	3614879.9767681	NaN	3614880.9601888	3614881.47670718
98	20	1	0	90	36.1581920903955	36.241610738255	12	0.400031039938331	2	8	2	NaN	2	3	0.0710744722734826	1	1	NaN	295	5	43	1	121	221	321	NaN	521	0.235385671257973	2	1	NaN	3614882.5603488	NaN	3614883.5437397	3614884.06028963
98	20	1	0	90	36.1581920903955	36.241610738255	23	0.7667261598818	2	3	1	NaN	1	4	0.0710744722734826	1	1	NaN	296	5	44	1	121	221	321	NaN	521	0.228781466372311	1	1	NaN	3614885.1106011	NaN	3614886.0940065	3614886.61053583
98	20	1	0	90	36.1581920903955	36.241610738255	21	0.700054319892079	2	4	6	NaN	1	5	0.0710744722734826	1	1	NaN	297	5	45	1	121	221	321	NaN	521	0.230877871625125	1	1	NaN	3614887.6608528	NaN	3614888.6442646	3614889.16078573
98	20	1	0	90	36.1581920903955	36.241610738255	24	0.800062079876661	2	2	2	NaN	1	5	0.0710744722734826	1	1	NaN	298	5	46	1	121	221	321	NaN	521	0.328499218914658	1	1	NaN	3614890.2111262	NaN	3614891.1945257	3614891.71104888
98	20	1	0	90	36.1581920903955	36.241610738255	13	0.433366959933192	2	6	4	NaN	1	5	0.0710744722734826	1	1	NaN	299	5	47	1	121	221	321	NaN	521	0.742587442975491	2	0	NaN	3614892.8612438	NaN	3614893.8447329	3614894.36131156
98	20	1	0	90	36.1581920903955	36.241610738255	21	0.700054319892079	2	5	6	NaN	1	4	0.0710744722734826	1	1	NaN	300	5	48	1	121	221	321	NaN	521	0.227269423659891	1	1	NaN	3614895.9283603	NaN	3614896.9117371	3614897.42826688
98	20	1	0	90	36.1581920903955	36.241610738255	14	0.466702879928052	2	2	4	NaN	1	3	0.0710744722734826	1	1	NaN	301	5	49	1	121	221	321	NaN	521	0.213529071304947	1	1	NaN	3614898.4785954	NaN	3614899.4620622	3614899.97851503
98	20	1	0	90	36.1581920903955	36.241610738255	22	0.73339023988694	2	1	1	NaN	1	5	0.0710744722734826	1	1	NaN	302	5	50	1	121	221	321	NaN	521	0.255360471550375	1	1	NaN	3614901.0120162	NaN	3614901.9955799	3614902.51210423
98	20	1	0	90	36.1581920903955	36.241610738255	15	0.500038799922913	2	4	5	NaN	1	4	0.0710744722734826	1	1	NaN	303	5	51	1	121	221	321	NaN	521	0.256283242721111	1	1	NaN	3614903.5957471	NaN	3614904.5791671	3614905.09569566
98	20	1	0	90	36.1581920903955	36.241610738255	17	0.566710639912635	2	1	6	NaN	1	4	0.0710744722734826	1	1	NaN	304	5	52	1	121	221	321	NaN	521	0.256721171550453	1	1	NaN	3614906.1793656	NaN	3614907.1627682	3614907.67927683
98	20	1	0	90	36.1581920903955	36.241610738255	21	0.700054319892079	2	11	1	NaN	2	3	0.0710744722734826	1	1	NaN	305	5	53	1	121	221	321	NaN	521	0.0968871717341244	2	1	NaN	3614908.7629281	NaN	3614909.7463381	3614910.26286553
98	20	1	0	90	36.1581920903955	36.241610738255	19	0.633382479902357	2	4	6	NaN	1	4	0.0710744722734826	1	1	NaN	306	5	54	1	121	221	321	NaN	521	1.2642277716659	1	1	NaN	3614911.179826	NaN	3614912.1632399	3614912.67976313
98	20	1	0	90	36.1581920903955	36.241610738255	0	0	1	7	2	NaN	2	3	0.0710744722734826	1	1	NaN	307	5	55	1	111	211	311	NaN	511	0.272520171012729	2	1	NaN	3614914.7635153	NaN	3614915.7469217	3614916.26344563
98	20	1	0	90	36.1581920903955	36.241610738255	10	0.333359199948609	2	5	1	NaN	1	4	0.0710744722734826	1	1	NaN	308	5	56	1	121	221	321	NaN	521	0.480913076549768	1	1	NaN	3614917.3470931	NaN	3614918.3304996	3614918.84703722
98	20	1	0	90	36.1581920903955	36.241610738255	14	0.466702879928052	2	8	2	NaN	2	4	0.0710744722734826	1	1	NaN	309	5	57	1	121	221	321	NaN	521	0.288369171321392	2	1	NaN	3614920.1472414	NaN	3614921.1308024	3614921.64731293
98	20	1	0	90	36.1581920903955	36.241610738255	10	0.333359199948609	2	11	5	NaN	2	3	0.0710744722734826	1	1	NaN	310	5	58	1	121	221	321	NaN	521	0.120183971244842	1	0	NaN	3614922.7476222	NaN	3614923.7310322	3614924.24755813
98	20	1	0	90	36.1581920903955	36.241610738255	21	0.700054319892079	2	11	1	NaN	2	3	0.0710744722734826	1	1	NaN	311	5	59	1	121	221	321	NaN	521	0.253754966892302	2	1	NaN	3614925.1978639	NaN	3614926.1812778	3614926.69780483
98	20	1	0	90	36.1581920903955	36.241610738255	15	0.500038799922913	2	12	5	NaN	2	4	0.0710744722734826	1	1	NaN	312	5	60	1	121	221	321	NaN	521	0.48674591910094	1	0	NaN	3614927.7813092	NaN	3614928.7647559	3614929.28139358
98	20	1	0	90	36.1581920903955	36.241610738255	16	0.533374719917774	2	12	6	NaN	2	4	0.0710744722734826	1	1	NaN	313	5	61	1	121	221	321	NaN	521	0.213736966717988	2	1	NaN	3614930.5983916	NaN	3614931.5818305	3614932.09832383
98	20	1	0	90	36.1581920903955	36.241610738255	23	0.7667261598818	2	9	3	NaN	2	3	0.0710744722734826	1	1	NaN	314	5	62	1	121	221	321	NaN	521	0.223755318671465	2	1	NaN	3614933.1318618	NaN	3614934.1153796	3614934.63191028
98	20	1	0	90	36.1581920903955	36.241610738255	8	0.266687359958887	2	2	1	NaN	1	4	0.0710744722734826	1	1	NaN	315	5	63	1	121	221	321	NaN	521	0.465380371082574	1	1	NaN	3614935.6822186	NaN	3614936.6656369	3614937.18215803
98	20	1	0	90	36.1581920903955	36.241610738255	19	0.633382479902357	2	11	2	NaN	2	4	0.0710744722734826	1	1	NaN	316	6	1	1	121	221	321	NaN	521	1.74308293778449	2	1	NaN	3614946.1165432	NaN	3614947.0999701	3614947.61651856
98	20	1	0	90	36.1581920903955	36.241610738255	23	0.7667261598818	2	2	5	NaN	1	4	0.0710744722734826	1	1	NaN	317	6	2	1	121	221	321	NaN	521	0.26063218107447	1	1	NaN	3614950.1836449	NaN	3614951.1670548	3614951.68359162
98	20	1	0	90	36.1581920903955	36.241610738255	0	0	1	1	4	NaN	1	5	0.0710744722734826	1	1	NaN	318	6	3	1	111	211	311	NaN	511	1.20848052343354	1	1	NaN	3614953.8673148	NaN	3614954.8507569	3614955.36727188
98	20	1	0	90	36.1581920903955	36.241610738255	24	0.800062079876661	2	10	6	NaN	2	3	0.0710744722734826	1	1	NaN	319	6	4	1	121	221	321	NaN	521	0.267052690498531	2	1	NaN	3614957.4010069	NaN	3614958.3844422	3614958.90095921
98	20	1	0	90	36.1581920903955	36.241610738255	7	0.233351439964026	2	5	4	NaN	1	5	0.0710744722734826	1	1	NaN	320	6	5	1	121	221	321	NaN	521	2.08172861859202	1	1	NaN	3614960.0179432	NaN	3614961.0013551	3614961.51788298
98	20	1	0	90	36.1581920903955	36.241610738255	17	0.566710639912635	2	12	2	NaN	2	5	0.0710744722734826	1	1	NaN	321	6	6	1	121	221	321	NaN	521	0.393388218712062	2	1	NaN	3614964.4183209	NaN	3614965.4017927	3614965.91830938
98	20	1	0	90	36.1581920903955	36.241610738255	22	0.73339023988694	2	11	5	NaN	2	3	0.0710744722734826	1	1	NaN	322	6	7	1	121	221	321	NaN	521	1.39210257166997	2	1	NaN	3614967.4519933	NaN	3614968.4354889	3614968.95193803
98	20	1	0	90	36.1581920903955	36.241610738255	20	0.666718399897218	2	3	2	NaN	1	4	0.0710744722734826	1	1	NaN	323	6	8	1	121	221	321	NaN	521	0.274741571396589	1	1	NaN	3614971.1690244	NaN	3614972.1524434	3614972.66896873
98	20	1	0	90	36.1581920903955	36.241610738255	21	0.700054319892079	2	2	6	NaN	1	3	0.0710744722734826	1	1	NaN	324	6	9	1	121	221	321	NaN	521	0.763641271274537	1	1	NaN	3614973.7524462	NaN	3614974.7360659	3614975.25255963
98	20	1	0	90	36.1581920903955	36.241610738255	14	0.466702879928052	2	2	6	NaN	1	3	0.0710744722734826	1	1	NaN	325	6	10	1	121	221	321	NaN	521	0.167600223328918	1	1	NaN	3614976.8362453	NaN	3614977.819647	3614978.33619438
98	20	1	0	90	36.1581920903955	36.241610738255	18	0.600046559907496	2	3	5	NaN	1	3	0.0710744722734826	1	1	NaN	326	6	11	1	121	221	321	NaN	521	2.12436388107017	1	1	NaN	3614979.3198306	NaN	3614980.3032756	3614980.81977642
98	20	1	0	90	36.1581920903955	36.241610738255	19	0.633382479902357	2	7	5	NaN	2	5	0.0710744722734826	1	1	NaN	327	6	12	1	121	221	321	NaN	521	0.945931471418589	2	1	NaN	3614983.7701638	NaN	3614984.7536841	3614985.27020893
98	20	1	0	90	36.1581920903955	36.241610738255	23	0.7667261598818	2	10	1	NaN	2	5	0.0710744722734826	1	1	NaN	328	6	13	1	121	221	321	NaN	521	0.326683518942446	2	1	NaN	3614987.0372151	NaN	3614988.0206655	3614988.53718548
98	20	1	0	90	36.1581920903955	36.241610738255	17	0.566710639912635	2	2	5	NaN	1	3	0.0710744722734826	1	1	NaN	329	6	14	1	121	221	321	NaN	521	0.228247337508947	1	1	NaN	3614989.6875398	NaN	3614990.6709096	3614991.18744996
98	20	1	0	90	36.1581920903955	36.241610738255	0	0	1	3	5	NaN	1	5	0.0710744722734826	1	1	NaN	330	6	15	1	111	211	311	NaN	511	1.53446851391345	1	1	NaN	3614992.2378737	NaN	3614993.2211975	3614993.73770509
98	20	1	0	90	36.1581920903955	36.241610738255	16	0.533374719917774	2	3	6	NaN	1	3	0.0710744722734826	1	1	NaN	331	6	16	1	121	221	321	NaN	521	0.779669118579477	1	1	NaN	3614996.0880262	NaN	3614997.0714687	3614997.58807558
98	20	1	0	90	36.1581920903955	36.241610738255	7	0.233351439964026	2	4	2	NaN	1	5	0.0710744722734826	1	1	NaN	332	6	17	1	121	221	321	NaN	521	0.239655871409923	1	1	NaN	3614999.1883352	NaN	3615000.1718632	3615000.68838483
98	20	1	0	90	36.1581920903955	36.241610738255	20	0.666718399897218	2	10	4	NaN	2	5	0.0710744722734826	1	1	NaN	333	6	18	1	121	221	321	NaN	521	1.22071997169405	2	1	NaN	3615003.838892	NaN	3615004.8223156	3615005.33883183
98	20	1	0	90	36.1581920903955	36.241610738255	11	0.36669511994347	2	1	2	NaN	1	5	0.0710744722734826	1	1	NaN	334	6	19	1	121	221	321	NaN	521	0.327007937710732	1	1	NaN	3615007.389228	NaN	3615008.3726538	3615008.88918426
98	20	1	0	90	36.1581920903955	36.241610738255	21	0.700054319892079	2	9	4	NaN	2	5	0.0710744722734826	1	1	NaN	335	6	20	1	121	221	321	NaN	521	0.308256271295249	2	1	NaN	3615010.0395229	NaN	3615011.0228941	3615011.53944773
98	20	1	0	90	36.1581920903955	36.241610738255	19	0.633382479902357	2	12	3	NaN	2	4	0.0710744722734826	1	1	NaN	336	6	21	1	121	221	321	NaN	521	0.322836418636143	2	1	NaN	3615012.6729885	NaN	3615013.6565123	3615014.17303898
98	20	1	0	90	36.1581920903955	36.241610738255	8	0.266687359958887	2	12	1	NaN	2	5	0.0710744722734826	1	1	NaN	337	6	22	1	121	221	321	NaN	521	0.66462518600747	2	1	NaN	3615015.323216	NaN	3615016.306763	3615016.82330511
98	20	1	0	90	36.1581920903955	36.241610738255	6	0.200015519969165	2	12	2	NaN	2	4	0.0710744722734826	1	1	NaN	338	6	23	1	121	221	321	NaN	521	0.361092071048915	2	1	NaN	3615018.3069861	NaN	3615019.2903796	3615019.80692203
98	20	1	0	90	36.1581920903955	36.241610738255	16	0.533374719917774	2	1	3	NaN	1	5	0.0710744722734826	1	1	NaN	339	6	24	1	121	221	321	NaN	521	0.413523518480361	1	1	NaN	3615020.9904622	NaN	3615021.9739909	3615022.49051048
98	20	1	0	90	36.1581920903955	36.241610738255	23	0.7667261598818	2	11	2	NaN	2	5	0.0710744722734826	1	1	NaN	340	6	25	1	121	221	321	NaN	521	2.3436305904761	2	1	NaN	3615023.7241891	NaN	3615024.7075948	3615025.22411951
98	20	1	0	90	36.1581920903955	36.241610738255	15	0.500038799922913	2	11	4	NaN	2	4	0.0710744722734826	1	1	NaN	341	6	26	1	121	221	321	NaN	521	0.628404271323234	2	1	NaN	3615028.3911793	NaN	3615029.3746961	3615029.89123603
98	20	1	0	90	36.1581920903955	36.241610738255	0	0	1	6	5	NaN	1	4	0.0710744722734826	1	1	NaN	342	6	27	1	111	211	311	NaN	511	0.31042047124356	1	1	NaN	3615031.3416191	NaN	3615032.3250073	3615032.84153433
98	20	1	0	90	36.1581920903955	36.241610738255	6	0.200015519969165	2	1	4	NaN	1	3	0.0710744722734826	1	1	NaN	343	6	28	1	121	221	321	NaN	521	0.172649123705924	1	1	NaN	3615033.9751778	NaN	3615034.9585987	3615035.47512998
98	20	1	0	90	36.1581920903955	36.241610738255	7	0.233351439964026	2	5	5	NaN	1	5	0.0710744722734826	1	1	NaN	344	6	29	1	121	221	321	NaN	521	0.712401418946683	1	1	NaN	3615036.475432	NaN	3615037.4588477	3615037.97536138
98	20	1	0	90	36.1581920903955	36.241610738255	8	0.266687359958887	2	11	3	NaN	2	3	0.0710744722734826	1	1	NaN	345	6	30	1	121	221	321	NaN	521	0.590766542591155	2	1	NaN	3615039.5090583	NaN	3615040.4924958	3615041.00900596
98	20	1	0	90	36.1581920903955	36.241610738255	0	0	1	8	4	NaN	2	3	0.0710744722734826	1	1	NaN	346	6	31	1	111	211	311	NaN	511	0.242269471287727	2	1	NaN	3615042.4258731	NaN	3615043.4094029	3615043.92594693
98	20	1	0	90	36.1581920903955	36.241610738255	12	0.400031039938331	2	12	4	NaN	2	4	0.0710744722734826	1	1	NaN	347	6	32	1	121	221	321	NaN	521	0.291310418862849	2	1	NaN	3615044.9929424	NaN	3615045.9763619	3615046.49286728
98	20	1	0	90	36.1581920903955	36.241610738255	23	0.7667261598818	2	1	1	NaN	1	4	0.0710744722734826	1	1	NaN	348	6	33	1	121	221	321	NaN	521	0.242051418870687	1	1	NaN	3615047.6098647	NaN	3615048.5932718	3615049.10979558
98	20	1	0	90	36.1581920903955	36.241610738255	20	0.666718399897218	2	4	5	NaN	1	5	0.0710744722734826	1	1	NaN	349	6	34	1	121	221	321	NaN	521	0.202905123587698	1	1	NaN	3615050.1767821	NaN	3615051.1601692	3615051.67670918
98	20	1	0	90	36.1581920903955	36.241610738255	7	0.233351439964026	2	7	5	NaN	2	5	0.0710744722734826	1	1	NaN	350	6	35	1	121	221	321	NaN	521	1.03793187160045	2	1	NaN	3615052.7103501	NaN	3615053.693757	3615054.21029373
98	20	1	0	90	36.1581920903955	36.241610738255	24	0.800062079876661	2	10	3	NaN	2	5	0.0710744722734826	1	1	NaN	351	6	36	1	121	221	321	NaN	521	0.190801323857158	1	0	NaN	3615056.0773742	NaN	3615057.0607594	3615057.57729568
98	20	1	0	90	36.1581920903955	36.241610738255	20	0.666718399897218	2	12	2	NaN	2	5	0.0710744722734826	1	1	NaN	352	6	37	1	121	221	321	NaN	521	0.351971871219575	2	1	NaN	3615058.8442882	NaN	3615059.8276927	3615060.34422093
98	20	1	0	90	36.1581920903955	36.241610738255	12	0.400031039938331	2	9	4	NaN	2	3	0.0710744722734826	1	1	NaN	353	6	38	1	121	221	321	NaN	521	0.325186118483543	2	1	NaN	3615061.5111104	NaN	3615062.4946301	3615063.01115538
98	20	1	0	90	36.1581920903955	36.241610738255	15	0.500038799922913	2	4	2	NaN	1	5	0.0710744722734826	1	1	NaN	354	6	39	1	121	221	321	NaN	521	0.474353023339063	2	0	NaN	3615064.1614801	NaN	3615065.1449044	3615065.66141568
98	20	1	0	90	36.1581920903955	36.241610738255	6	0.200015519969165	2	2	1	NaN	1	4	0.0710744722734826	1	1	NaN	355	6	40	1	121	221	321	NaN	521	0.18598737148568	1	1	NaN	3615066.9616258	NaN	3615067.9451576	3615068.46169073
98	20	1	0	90	36.1581920903955	36.241610738255	9	0.300023279953748	2	1	6	NaN	1	4	0.0710744722734826	1	1	NaN	356	6	41	1	121	221	321	NaN	521	0.189903218764812	1	1	NaN	3615069.461999	NaN	3615070.4453815	3615070.96192948
98	20	1	0	90	36.1581920903955	36.241610738255	12	0.400031039938331	2	4	4	NaN	1	4	0.0710744722734826	1	1	NaN	357	6	42	1	121	221	321	NaN	521	0.258156138006598	1	1	NaN	3615071.962157	NaN	3615072.9456382	3615073.46218756
98	20	1	0	90	36.1581920903955	36.241610738255	23	0.7667261598818	2	6	1	NaN	1	3	0.0710744722734826	1	1	NaN	358	6	43	1	121	221	321	NaN	521	0.306095418985933	2	0	NaN	3615074.5458517	NaN	3615075.5292351	3615076.04575968
98	20	1	0	90	36.1581920903955	36.241610738255	19	0.633382479902357	2	5	6	NaN	1	3	0.0710744722734826	1	1	NaN	359	6	44	1	121	221	321	NaN	521	0.193129176273942	1	1	NaN	3615077.1625986	NaN	3615078.1461559	3615078.66269392
98	20	1	0	90	36.1581920903955	36.241610738255	25	0.833397999871522	2	2	3	NaN	1	3	0.0710744722734826	1	1	NaN	360	6	45	1	121	221	321	NaN	521	0.276703871786594	1	1	NaN	3615079.6796509	NaN	3615080.6631342	3615081.17959933
98	20	1	0	90	36.1581920903955	36.241610738255	11	0.36669511994347	2	4	4	NaN	1	3	0.0710744722734826	1	1	NaN	361	6	46	1	121	221	321	NaN	521	0.275803070981055	2	0	NaN	3615082.2798981	NaN	3615083.2633478	3615083.77985393
98	20	1	0	90	36.1581920903955	36.241610738255	16	0.533374719917774	2	7	5	NaN	2	3	0.0710744722734826	1	1	NaN	362	6	47	1	121	221	321	NaN	521	0.332182518672198	2	1	NaN	3615084.8801842	NaN	3615085.8634749	3615086.38010878
98	20	1	0	90	36.1581920903955	36.241610738255	17	0.566710639912635	2	9	5	NaN	2	5	0.0710744722734826	1	1	NaN	363	6	48	1	121	221	321	NaN	521	0.193327018991113	2	1	NaN	3615087.5305002	NaN	3615088.5138318	3615089.03037118
98	20	1	0	90	36.1581920903955	36.241610738255	24	0.800062079876661	2	8	2	NaN	2	3	0.0710744722734826	1	1	NaN	364	6	49	1	121	221	321	NaN	521	0.15664407145232	2	1	NaN	3615090.0472355	NaN	3615091.030743	3615091.54727983
98	20	1	0	90	36.1581920903955	36.241610738255	12	0.400031039938331	2	2	5	NaN	1	4	0.0710744722734826	1	1	NaN	365	6	50	1	121	221	321	NaN	521	0.0335911237634718	2	0	NaN	3615092.5141252	NaN	3615093.4976528	3615094.01419048
98	20	1	0	90	36.1581920903955	36.241610738255	6	0.200015519969165	2	2	1	NaN	1	5	0.0710744722734826	1	1	NaN	366	6	51	1	121	221	321	NaN	521	0.147496837656945	1	1	NaN	3615094.8644703	NaN	3615095.8478988	3615096.36441796
98	20	1	0	90	36.1581920903955	36.241610738255	24	0.800062079876661	2	12	5	NaN	2	3	0.0710744722734826	1	1	NaN	367	6	52	1	121	221	321	NaN	521	1.33696801913902	2	1	NaN	3615097.331286	NaN	3615098.3148035	3615098.83132578
98	20	1	0	90	36.1581920903955	36.241610738255	9	0.300023279953748	2	5	1	NaN	1	4	0.0710744722734826	1	1	NaN	368	6	53	1	121	221	321	NaN	521	0.381422871723771	1	1	NaN	3615100.998423	NaN	3615101.9818234	3615102.49837073
98	20	1	0	90	36.1581920903955	36.241610738255	6	0.200015519969165	2	3	3	NaN	1	3	0.0710744722734826	1	1	NaN	369	6	54	1	121	221	321	NaN	521	0.257640990428627	1	1	NaN	3615103.6985512	NaN	3615104.6821273	3615105.19862791
98	20	1	0	90	36.1581920903955	36.241610738255	8	0.266687359958887	2	3	4	NaN	1	5	0.0710744722734826	1	1	NaN	370	6	55	1	121	221	321	NaN	521	0.986357671674341	1	1	NaN	3615106.2656008	NaN	3615107.2490438	3615107.76553883
98	20	1	0	90	36.1581920903955	36.241610738255	9	0.300023279953748	2	7	1	NaN	2	3	0.0710744722734826	1	1	NaN	371	6	56	1	121	221	321	NaN	521	0.24657541885972	2	1	NaN	3615109.5659032	NaN	3615110.5493376	3615111.06585618
98	20	1	0	90	36.1581920903955	36.241610738255	23	0.7667261598818	2	10	6	NaN	2	5	0.0710744722734826	1	1	NaN	372	6	57	1	121	221	321	NaN	521	1.05500882351771	2	1	NaN	3615112.1328378	NaN	3615113.116253	3615113.63278258
98	20	1	0	90	36.1581920903955	36.241610738255	21	0.700054319892079	2	9	6	NaN	2	5	0.0710744722734826	1	1	NaN	373	6	58	1	121	221	321	NaN	521	0.839414542540908	2	1	NaN	3615115.5164919	NaN	3615116.4999221	3615117.01645666
98	20	1	0	90	36.1581920903955	36.241610738255	21	0.700054319892079	2	12	5	NaN	2	3	0.0710744722734826	1	1	NaN	374	6	59	1	121	221	321	NaN	521	0.24089817609638	2	1	NaN	3615118.6834762	NaN	3615119.6668915	3615120.18342532
98	20	1	0	90	36.1581920903955	36.241610738255	9	0.300023279953748	2	6	1	NaN	1	4	0.0710744722734826	1	1	NaN	375	6	60	1	121	221	321	NaN	521	0.258050918579102	1	1	NaN	3615121.2502729	NaN	3615122.2338093	3615122.75033048
98	20	1	0	90	36.1581920903955	36.241610738255	0	0	1	9	4	NaN	2	3	0.0710744722734826	1	1	NaN	376	6	61	1	111	211	311	NaN	511	0.234422385692596	2	1	NaN	3615123.8340439	NaN	3615124.8174012	3615125.33393471
98	20	1	0	90	36.1581920903955	36.241610738255	22	0.73339023988694	2	9	4	NaN	2	3	0.0710744722734826	1	1	NaN	377	6	62	1	121	221	321	NaN	521	0.25971503322944	2	1	NaN	3615126.3842272	NaN	3615127.367655	3615127.88417697
98	20	1	0	90	36.1581920903955	36.241610738255	11	0.36669511994347	2	10	4	NaN	2	5	0.0710744722734826	1	1	NaN	378	6	63	1	121	221	321	NaN	521	0.244453918654472	2	1	NaN	3615128.9678288	NaN	3615129.9512342	3615130.46776988
98	20	1	0	90	36.1581920903955	36.241610738255	23	0.7667261598818	2	9	2	NaN	2	5	0.0710744722734826	1	1	NaN	379	7	1	1	121	221	321	NaN	521	2.23510473780334	2	1	NaN	3615139.1688178	NaN	3615140.1522349	3615140.66876706
98	20	1	0	90	36.1581920903955	36.241610738255	7	0.233351439964026	2	4	3	NaN	1	3	0.0710744722734826	1	1	NaN	380	7	2	1	121	221	321	NaN	521	0.155986371450126	1	1	NaN	3615143.7359367	NaN	3615144.7192471	3615145.23587453
98	20	1	0	90	36.1581920903955	36.241610738255	21	0.700054319892079	2	3	2	NaN	1	4	0.0710744722734826	1	1	NaN	381	7	3	1	121	221	321	NaN	521	1.13626782828942	2	0	NaN	3615146.2195145	NaN	3615147.2029082	3615147.71945407
98	20	1	0	90	36.1581920903955	36.241610738255	10	0.333359199948609	2	7	4	NaN	2	3	0.0710744722734826	1	1	NaN	382	7	4	1	121	221	321	NaN	521	0.173490871209651	2	1	NaN	3615149.6865109	NaN	3615150.6699133	3615151.18646553
98	20	1	0	90	36.1581920903955	36.241610738255	10	0.333359199948609	2	7	3	NaN	2	5	0.0710744722734826	1	1	NaN	383	7	5	1	121	221	321	NaN	521	0.593400171026587	1	0	NaN	3615152.1867717	NaN	3615153.1701728	3615153.68669843
98	20	1	0	90	36.1581920903955	36.241610738255	15	0.500038799922913	2	9	1	NaN	2	4	0.0710744722734826	1	1	NaN	384	7	6	1	121	221	321	NaN	521	0.344015871174634	2	1	NaN	3615155.2037148	NaN	3615156.1871345	3615156.70366653
98	20	1	0	90	36.1581920903955	36.241610738255	8	0.266687359958887	2	5	5	NaN	1	3	0.0710744722734826	1	1	NaN	385	7	7	1	121	221	321	NaN	521	1.43780249031261	1	1	NaN	3615157.8706105	NaN	3615158.8540825	3615159.37060271
98	20	1	0	90	36.1581920903955	36.241610738255	21	0.700054319892079	2	3	3	NaN	1	3	0.0710744722734826	1	1	NaN	386	7	8	1	121	221	321	NaN	521	0.32661517104134	1	1	NaN	3615161.6377	NaN	3615162.6211018	3615163.13762733
98	20	1	0	90	36.1581920903955	36.241610738255	6	0.200015519969165	2	10	3	NaN	2	5	0.0710744722734826	1	1	NaN	387	7	9	1	121	221	321	NaN	521	1.26849944703281	2	1	NaN	3615164.2879315	NaN	3615165.2713571	3615165.78790665
98	20	1	0	90	36.1581920903955	36.241610738255	24	0.800062079876661	2	6	4	NaN	1	3	0.0710744722734826	1	1	NaN	388	7	10	1	121	221	321	NaN	521	0.443644818849862	1	1	NaN	3615167.8882977	NaN	3615168.871699	3615169.38823608
98	20	1	0	90	36.1581920903955	36.241610738255	18	0.600046559907496	2	10	1	NaN	2	5	0.0710744722734826	1	1	NaN	389	7	11	1	121	221	321	NaN	521	1.41287764254957	2	1	NaN	3615170.6553039	NaN	3615171.6386498	3615172.15518706
98	20	1	0	90	36.1581920903955	36.241610738255	17	0.566710639912635	2	2	5	NaN	1	4	0.0710744722734826	1	1	NaN	390	7	12	1	121	221	321	NaN	521	0.246852223295718	1	1	NaN	3615174.3887947	NaN	3615175.3723662	3615175.88887868
98	20	1	0	90	36.1581920903955	36.241610738255	11	0.36669511994347	2	3	5	NaN	1	5	0.0710744722734826	1	1	NaN	391	7	13	1	121	221	321	NaN	521	0.312626018654555	1	1	NaN	3615176.9557339	NaN	3615177.9391549	3615178.45579198
98	20	1	0	90	36.1581920903955	36.241610738255	14	0.466702879928052	2	10	4	NaN	2	5	0.0710744722734826	1	1	NaN	392	7	14	1	121	221	321	NaN	521	0.214550371747464	2	1	NaN	3615179.5894592	NaN	3615180.572868	3615181.08939133
98	20	1	0	90	36.1581920903955	36.241610738255	8	0.266687359958887	2	4	5	NaN	1	5	0.0710744722734826	1	1	NaN	393	7	15	1	121	221	321	NaN	521	0.809012971352786	1	1	NaN	3615182.1230375	NaN	3615183.1064456	3615183.62296923
98	20	1	0	90	36.1581920903955	36.241610738255	20	0.666718399897218	2	5	5	NaN	1	5	0.0710744722734826	1	1	NaN	394	7	16	1	121	221	321	NaN	521	0.259787466842681	1	1	NaN	3615185.2566371	NaN	3615186.2400828	3615186.75659753
98	20	1	0	90	36.1581920903955	36.241610738255	12	0.400031039938331	2	11	3	NaN	2	4	0.0710744722734826	1	1	NaN	395	7	17	1	121	221	321	NaN	521	1.32367718592286	2	1	NaN	3615187.8402591	NaN	3615188.8236646	3615189.34019471
98	20	1	0	90	36.1581920903955	36.241610738255	25	0.833397999871522	2	12	2	NaN	2	3	0.0710744722734826	1	1	NaN	396	7	18	1	121	221	321	NaN	521	0.74566227151081	2	1	NaN	3615191.4906436	NaN	3615192.4740295	3615192.99054653
98	20	1	0	90	36.1581920903955	36.241610738255	25	0.833397999871522	2	9	3	NaN	2	3	0.0710744722734826	1	1	NaN	397	7	19	1	121	221	321	NaN	521	0.950407071039081	1	0	NaN	3615194.5575989	NaN	3615195.5410011	3615196.05751063
98	20	1	0	90	36.1581920903955	36.241610738255	13	0.433366959933192	2	2	6	NaN	1	5	0.0710744722734826	1	1	NaN	398	7	20	1	121	221	321	NaN	521	0.331420723348856	1	1	NaN	3615197.824484	NaN	3615198.8079759	3615199.32450888
98	20	1	0	90	36.1581920903955	36.241610738255	25	0.833397999871522	2	10	5	NaN	2	3	0.0710744722734826	1	1	NaN	399	7	21	1	121	221	321	NaN	521	1.01296846661717	2	1	NaN	3615201.1915498	NaN	3615202.1749848	3615202.69150033
98	20	1	0	90	36.1581920903955	36.241610738255	19	0.633382479902357	2	5	6	NaN	1	4	0.0710744722734826	1	1	NaN	400	7	22	1	121	221	321	NaN	521	0.303010671399534	1	1	NaN	3615204.5250846	NaN	3615205.5086334	3615206.02516653
98	20	1	0	90	36.1581920903955	36.241610738255	17	0.566710639912635	2	8	2	NaN	2	4	0.0710744722734826	1	1	NaN	401	7	23	1	121	221	321	NaN	521	0.27749562356621	2	1	NaN	3615207.1588193	NaN	3615208.1422222	3615208.65875818
98	20	1	0	90	36.1581920903955	36.241610738255	11	0.36669511994347	2	2	6	NaN	1	3	0.0710744722734826	1	1	NaN	402	7	24	1	121	221	321	NaN	521	0.261002923827618	1	1	NaN	3615209.7590594	NaN	3615210.7425069	3615211.25900918
98	20	1	0	90	36.1581920903955	36.241610738255	7	0.233351439964026	2	6	3	NaN	1	3	0.0710744722734826	1	1	NaN	403	7	25	1	121	221	321	NaN	521	0.261544432956725	1	1	NaN	3615212.3425826	NaN	3615213.3260669	3615213.84258887
98	20	1	0	90	36.1581920903955	36.241610738255	13	0.433366959933192	2	10	4	NaN	2	5	0.0710744722734826	1	1	NaN	404	7	26	1	121	221	321	NaN	521	0.301955971401185	2	1	NaN	3615214.9261036	NaN	3615215.9096681	3615216.42618033
98	20	1	0	90	36.1581920903955	36.241610738255	13	0.433366959933192	2	5	3	NaN	1	5	0.0710744722734826	1	1	NaN	405	7	27	1	121	221	321	NaN	521	0.213410671334714	1	1	NaN	3615217.5430684	NaN	3615218.5266032	3615219.04310083
98	20	1	0	90	36.1581920903955	36.241610738255	7	0.233351439964026	2	2	2	NaN	1	3	0.0710744722734826	1	1	NaN	406	7	28	1	121	221	321	NaN	521	0.207257837988436	1	1	NaN	3615220.0767449	NaN	3615221.0601462	3615221.57668186
98	20	1	0	90	36.1581920903955	36.241610738255	8	0.266687359958887	2	8	4	NaN	2	4	0.0710744722734826	1	1	NaN	407	7	29	1	121	221	321	NaN	521	0.241896871477365	2	1	NaN	3615222.6101956	NaN	3615223.593753	3615224.11026443
98	20	1	0	90	36.1581920903955	36.241610738255	11	0.36669511994347	2	2	6	NaN	1	5	0.0710744722734826	1	1	NaN	408	7	30	1	121	221	321	NaN	521	0.147326623089612	1	1	NaN	3615225.1772452	NaN	3615226.1606442	3615226.67717708
98	20	1	0	90	36.1581920903955	36.241610738255	20	0.666718399897218	2	12	6	NaN	2	4	0.0710744722734826	1	1	NaN	409	7	31	1	121	221	321	NaN	521	0.247836971189827	2	1	NaN	3615227.6441419	NaN	3615228.6275826	3615229.14409053
98	20	1	0	90	36.1581920903955	36.241610738255	9	0.300023279953748	2	4	4	NaN	1	5	0.0710744722734826	1	1	NaN	410	7	32	1	121	221	321	NaN	521	0.345383018720895	1	1	NaN	3615230.211066	NaN	3615231.1943725	3615231.71100868
98	20	1	0	90	36.1581920903955	36.241610738255	7	0.233351439964026	2	8	5	NaN	2	4	0.0710744722734826	1	1	NaN	411	7	33	1	121	221	321	NaN	521	0.222061028238386	2	1	NaN	3615232.8780729	NaN	3615233.8613981	3615234.37794377
98	20	1	0	90	36.1581920903955	36.241610738255	11	0.36669511994347	2	12	1	NaN	2	5	0.0710744722734826	1	1	NaN	412	7	34	1	121	221	321	NaN	521	0.280665676109493	2	1	NaN	3615235.4115238	NaN	3615236.3949713	3615236.91151772
98	20	1	0	90	36.1581920903955	36.241610738255	15	0.500038799922913	2	11	4	NaN	2	3	0.0710744722734826	1	1	NaN	413	7	35	1	121	221	321	NaN	521	0.360396166332066	1	0	NaN	3615238.01182	NaN	3615238.9952722	3615239.51177623
98	20	1	0	90	36.1581920903955	36.241610738255	23	0.7667261598818	2	12	6	NaN	2	5	0.0710744722734826	1	1	NaN	414	7	36	1	121	221	321	NaN	521	0.292902042623609	2	1	NaN	3615240.695372	NaN	3615241.6788437	3615242.19537146
98	20	1	0	90	36.1581920903955	36.241610738255	25	0.833397999871522	2	2	3	NaN	1	5	0.0710744722734826	1	1	NaN	415	7	37	1	121	221	321	NaN	521	0.259810371790081	1	1	NaN	3615243.3122553	NaN	3615244.2957733	3615244.81229063
98	20	1	0	90	36.1581920903955	36.241610738255	22	0.73339023988694	2	10	3	NaN	2	4	0.0710744722734826	1	1	NaN	416	7	38	1	121	221	321	NaN	521	0.257483732886612	2	1	NaN	3615246.1626263	NaN	3615247.1460121	3615247.66257907
98	20	1	0	90	36.1581920903955	36.241610738255	23	0.7667261598818	2	5	5	NaN	1	4	0.0710744722734826	1	1	NaN	417	7	39	1	121	221	321	NaN	521	0.186038323678076	2	0	NaN	3615248.7462162	NaN	3615249.7296393	3615250.24615848
98	20	1	0	90	36.1581920903955	36.241610738255	16	0.533374719917774	2	8	5	NaN	2	3	0.0710744722734826	1	1	NaN	418	7	40	1	121	221	321	NaN	521	0.381358271464705	2	1	NaN	3615251.2630049	NaN	3615252.2465447	3615252.76306793
98	20	1	0	90	36.1581920903955	36.241610738255	24	0.800062079876661	2	3	6	NaN	1	3	0.0710744722734826	1	1	NaN	419	7	41	1	121	221	321	NaN	521	0.18485742341727	1	1	NaN	3615253.9633846	NaN	3615254.9468628	3615255.46334248
98	20	1	0	90	36.1581920903955	36.241610738255	10	0.333359199948609	2	1	1	NaN	1	3	0.0710744722734826	1	1	NaN	420	7	42	1	121	221	321	NaN	521	0.260953542776406	1	1	NaN	3615256.4636531	NaN	3615257.4470775	3615257.96358936
98	20	1	0	90	36.1581920903955	36.241610738255	20	0.666718399897218	2	8	2	NaN	2	5	0.0710744722734826	1	1	NaN	421	7	43	1	121	221	321	NaN	521	0.268956328276545	2	1	NaN	3615259.0472268	NaN	3615260.0306474	3615260.54716127
98	20	1	0	90	36.1581920903955	36.241610738255	22	0.73339023988694	2	8	3	NaN	2	3	0.0710744722734826	1	1	NaN	422	7	44	1	121	221	321	NaN	521	0.309648547321558	2	1	NaN	3615261.6306946	NaN	3615262.6142289	3615263.13076475
98	20	1	0	90	36.1581920903955	36.241610738255	24	0.800062079876661	2	1	3	NaN	1	5	0.0710744722734826	1	1	NaN	423	7	45	1	121	221	321	NaN	521	0.603793271351606	1	1	NaN	3615264.2643785	NaN	3615265.2478151	3615265.76434443
98	20	1	0	90	36.1581920903955	36.241610738255	6	0.200015519969165	2	6	3	NaN	1	5	0.0710744722734826	1	1	NaN	424	7	46	1	121	221	321	NaN	521	0.231339071411639	1	1	NaN	3615267.1813606	NaN	3615268.1647781	3615268.68129503
98	20	1	0	90	36.1581920903955	36.241610738255	13	0.433366959933192	2	5	4	NaN	1	4	0.0710744722734826	1	1	NaN	425	7	47	1	121	221	321	NaN	521	0.0724775712005794	1	1	NaN	3615269.7316045	NaN	3615270.7150515	3615271.23154453
98	20	1	0	90	36.1581920903955	36.241610738255	18	0.600046559907496	2	5	4	NaN	1	3	0.0710744722734826	1	1	NaN	426	7	48	1	121	221	321	NaN	521	0.281504371669143	2	0	NaN	3615272.115159	NaN	3615273.0985849	3615273.61511393
98	20	1	0	90	36.1581920903955	36.241610738255	16	0.533374719917774	2	10	6	NaN	2	3	0.0710744722734826	1	1	NaN	427	7	49	1	121	221	321	NaN	521	0.129208818543702	2	1	NaN	3615274.7153057	NaN	3615275.698828	3615276.21536058
98	20	1	0	90	36.1581920903955	36.241610738255	8	0.266687359958887	2	7	2	NaN	2	5	0.0710744722734826	1	1	NaN	428	7	50	1	121	221	321	NaN	521	0.248510118573904	2	1	NaN	3615277.51558	NaN	3615278.4990933	3615279.01563198
98	20	1	0	90	36.1581920903955	36.241610738255	6	0.200015519969165	2	10	4	NaN	2	5	0.0710744722734826	1	1	NaN	429	7	51	1	121	221	321	NaN	521	0.129564518574625	2	1	NaN	3615280.0827003	NaN	3615281.0660616	3615281.58255598
98	20	1	0	90	36.1581920903955	36.241610738255	18	0.600046559907496	2	9	1	NaN	2	5	0.0710744722734826	1	1	NaN	430	7	52	1	121	221	321	NaN	521	0.167226271238178	1	0	NaN	3615282.5328702	NaN	3615283.5162698	3615284.03279173
98	20	1	0	90	36.1581920903955	36.241610738255	18	0.600046559907496	2	4	1	NaN	1	3	0.0710744722734826	1	1	NaN	431	7	53	1	121	221	321	NaN	521	0.228042261209339	1	1	NaN	3615285.0164432	NaN	3615285.9998584	3615286.51636794
98	20	1	0	90	36.1581920903955	36.241610738255	25	0.833397999871522	2	5	6	NaN	1	5	0.0710744722734826	1	1	NaN	432	7	54	1	121	221	321	NaN	521	0.349464733153582	1	1	NaN	3615287.5666765	NaN	3615288.5500737	3615289.06663607
98	20	1	0	90	36.1581920903955	36.241610738255	12	0.400031039938331	2	11	6	NaN	2	4	0.0710744722734826	1	1	NaN	433	7	55	1	121	221	321	NaN	521	0.306460971012712	2	1	NaN	3615290.2336284	NaN	3615291.2170593	3615291.73355553
98	20	1	0	90	36.1581920903955	36.241610738255	14	0.466702879928052	2	11	1	NaN	2	4	0.0710744722734826	1	1	NaN	434	7	56	1	121	221	321	NaN	521	0.01040752325207	1	0	NaN	3615292.8672291	NaN	3615293.8506392	3615294.36714638
98	20	1	0	90	36.1581920903955	36.241610738255	23	0.7667261598818	2	2	1	NaN	1	3	0.0710744722734826	1	1	NaN	435	7	57	1	121	221	321	NaN	521	0.19557397114113	1	1	NaN	3615295.2007682	NaN	3615296.184175	3615296.70070073
98	20	1	0	90	36.1581920903955	36.241610738255	13	0.433366959933192	2	1	1	NaN	1	3	0.0710744722734826	1	1	NaN	436	7	58	1	121	221	321	NaN	521	0.894464132841676	1	1	NaN	3615297.7176874	NaN	3615298.70109	3615299.21763817
98	20	1	0	90	36.1581920903955	36.241610738255	10	0.333359199948609	2	9	5	NaN	2	5	0.0710744722734826	1	1	NaN	437	7	59	1	121	221	321	NaN	521	0.318039142526686	2	1	NaN	3615300.9346655	NaN	3615301.918142	3615302.43460126
98	20	1	0	90	36.1581920903955	36.241610738255	22	0.73339023988694	2	2	3	NaN	1	3	0.0710744722734826	1	1	NaN	438	7	60	1	121	221	321	NaN	521	0.980042371433228	1	1	NaN	3615303.5682779	NaN	3615304.5516721	3615305.06819503
98	20	1	0	90	36.1581920903955	36.241610738255	12	0.400031039938331	2	5	2	NaN	1	4	0.0710744722734826	1	1	NaN	439	7	61	1	121	221	321	NaN	521	0.799560071434826	1	1	NaN	3615306.8685797	NaN	3615307.8519886	3615308.36852203
98	20	1	0	90	36.1581920903955	36.241610738255	14	0.466702879928052	2	10	5	NaN	2	5	0.0710744722734826	1	1	NaN	440	7	62	1	121	221	321	NaN	521	0.28377367137	2	1	NaN	3615310.1521246	NaN	3615311.1356452	3615311.65217823
98	20	1	0	90	36.1581920903955	36.241610738255	22	0.73339023988694	2	3	4	NaN	1	4	0.0710744722734826	1	1	NaN	441	7	63	1	121	221	321	NaN	521	0.17158647114411	1	1	NaN	3615312.7524877	NaN	3615313.7358961	3615314.25243203
98	20	1	0	90	36.1581920903955	36.241610738255	23	0.7667261598818	2	7	2	NaN	2	4	0.0710744722734826	1	1	NaN	442	8	1	1	121	221	321	NaN	521	0.965765223372728	2	1	NaN	3615325.4703908	NaN	3615326.4538134	3615326.97033598
98	20	1	0	90	36.1581920903955	36.241610738255	19	0.633382479902357	2	3	1	NaN	1	5	0.0710744722734826	1	1	NaN	443	8	2	1	121	221	321	NaN	521	0.314135271124542	1	1	NaN	3615328.7538741	NaN	3615329.7375433	3615330.25399903
98	20	1	0	90	36.1581920903955	36.241610738255	24	0.800062079876661	2	4	4	NaN	1	4	0.0710744722734826	1	1	NaN	444	8	3	1	121	221	321	NaN	521	0.588332918938249	1	1	NaN	3615332.3044112	NaN	3615333.2878026	3615333.80433868
98	20	1	0	90	36.1581920903955	36.241610738255	0	0	1	6	2	NaN	1	3	0.0710744722734826	1	1	NaN	445	8	4	1	111	211	311	NaN	511	0.276983423158526	1	1	NaN	3615335.2712208	NaN	3615336.254771	3615336.77129228
98	20	1	0	90	36.1581920903955	36.241610738255	18	0.600046559907496	2	1	1	NaN	1	4	0.0710744722734826	1	1	NaN	446	8	5	1	121	221	321	NaN	521	0.676615628413856	1	1	NaN	3615337.8716434	NaN	3615338.8550195	3615339.37155067
98	20	1	0	90	36.1581920903955	36.241610738255	10	0.333359199948609	2	11	6	NaN	2	4	0.0710744722734826	1	1	NaN	447	8	6	1	121	221	321	NaN	521	0.228307023178786	2	1	NaN	3615340.8719107	NaN	3615341.8553377	3615342.37185248
98	20	1	0	90	36.1581920903955	36.241610738255	15	0.500038799922913	2	2	4	NaN	1	4	0.0710744722734826	1	1	NaN	448	8	7	1	121	221	321	NaN	521	0.990267571527511	1	1	NaN	3615343.4221667	NaN	3615344.4055716	3615344.92210473
98	20	1	0	90	36.1581920903955	36.241610738255	16	0.533374719917774	2	8	1	NaN	2	4	0.0710744722734826	1	1	NaN	449	8	8	1	121	221	321	NaN	521	0.257365771569312	2	1	NaN	3615346.7391543	NaN	3615347.7225526	3615348.23908153
98	20	1	0	90	36.1581920903955	36.241610738255	8	0.266687359958887	2	3	3	NaN	1	3	0.0710744722734826	1	1	NaN	450	8	9	1	121	221	321	NaN	521	0.833968371618539	1	1	NaN	3615349.3226276	NaN	3615350.3061474	3615350.82267953
98	20	1	0	90	36.1581920903955	36.241610738255	8	0.266687359958887	2	10	5	NaN	2	5	0.0710744722734826	1	1	NaN	451	8	10	1	121	221	321	NaN	521	0.226575471460819	2	1	NaN	3615352.4897181	NaN	3615353.4731235	3615353.98965113
98	20	1	0	90	36.1581920903955	36.241610738255	13	0.433366959933192	2	12	1	NaN	2	4	0.0710744722734826	1	1	NaN	452	8	11	1	121	221	321	NaN	521	0.276907466817647	2	1	NaN	3615355.0233011	NaN	3615356.0066938	3615356.52323223
98	20	1	0	90	36.1581920903955	36.241610738255	11	0.36669511994347	2	6	5	NaN	1	5	0.0710744722734826	1	1	NaN	453	8	12	1	121	221	321	NaN	521	0.116646028123796	1	1	NaN	3615357.6235709	NaN	3615358.6069694	3615359.12349627
98	20	1	0	90	36.1581920903955	36.241610738255	0	0	1	1	3	NaN	1	4	0.0710744722734826	1	1	NaN	454	8	13	1	111	211	311	NaN	511	0.347125376109034	1	1	NaN	3615360.0571198	NaN	3615361.0405375	3615361.55705702
98	20	1	0	90	36.1581920903955	36.241610738255	15	0.500038799922913	2	3	6	NaN	1	5	0.0710744722734826	1	1	NaN	455	8	14	1	121	221	321	NaN	521	1.28832393325865	1	1	NaN	3615362.7238949	NaN	3615363.7074351	3615364.22398597
98	20	1	0	90	36.1581920903955	36.241610738255	13	0.433366959933192	2	11	3	NaN	2	3	0.0710744722734826	1	1	NaN	456	8	15	1	121	221	321	NaN	521	0.751158371102065	2	1	NaN	3615366.3409303	NaN	3615367.3244756	3615367.84102253
98	20	1	0	90	36.1581920903955	36.241610738255	22	0.73339023988694	2	5	3	NaN	1	4	0.0710744722734826	1	1	NaN	457	8	16	1	121	221	321	NaN	521	0.347666871268302	1	1	NaN	3615369.4245644	NaN	3615370.4081208	3615370.92464163
98	20	1	0	90	36.1581920903955	36.241610738255	19	0.633382479902357	2	1	5	NaN	1	3	0.0710744722734826	1	1	NaN	458	8	17	1	121	221	321	NaN	521	0.673219723626971	1	1	NaN	3615372.0914972	NaN	3615373.0750509	3615373.59157848
