subjno	age	gender	isPractice	viewdist	CmToPixX	CmToPixY	SOA_frm	SOA_time	targNum	targID	targExample	targRace	targGender	firstTargPos	contrast	familiarity	curr_staircase	iStair	TrialNum	BlockNum	blktrl	sessionNum	TC_FIXATION	TC_RSVP_START	TC_RSVP_END	TC_BLANK	TC_RESPONSE_ONSET	RT2afc	resp_2afc	acc	RSVPOnsetVBL	RSVPOnsetTime	RSVPOffsetVBL	RSVPOffsetTime	startrt_2afc
61	20	1	0	90	36.1581920903955	36.241610738255	0	0	1	3	4	NaN	1	4	0.0542498672943188	1	1	NaN	1	1	1	2	111	211	311	NaN	511	0.0751272840425372	1	1	NaN	2422805.5865314	NaN	2422806.5697757	2422807.10291072
61	20	1	0	90	36.1581920903955	36.241610738255	11	0.366714128088206	2	1	6	NaN	1	4	0.0542498672943188	1	1	NaN	2	1	2	2	121	221	321	NaN	521	0.0305971358902752	1	1	NaN	2422809.6868822	NaN	2422810.6701687	2422811.20331126
61	20	1	0	90	36.1581920903955	36.241610738255	14	0.466727072112262	2	2	5	NaN	1	5	0.0542498672943188	1	1	NaN	3	1	3	2	121	221	321	NaN	521	0.0106036867946386	1	1	NaN	2422815.6871462	NaN	2422816.6706892	2422817.18723421
61	20	1	0	90	36.1581920903955	36.241610738255	23	0.766765904184431	2	5	3	NaN	1	3	0.0542498672943188	1	1	NaN	4	1	4	2	121	221	321	NaN	521	0.339823980815709	1	1	NaN	2422819.3542844	NaN	2422820.3376991	2422820.85425832
61	20	1	0	90	36.1581920903955	36.241610738255	23	0.766765904184431	2	3	1	NaN	1	3	0.0542498672943188	1	1	NaN	5	1	5	2	121	221	321	NaN	521	0.524874880444258	1	1	NaN	2422822.3213377	NaN	2422823.3046608	2422823.82121132
61	20	1	0	90	36.1581920903955	36.241610738255	22	0.733428256176412	2	9	6	NaN	2	5	0.0542498672943188	1	1	NaN	6	1	6	2	121	221	321	NaN	521	0.407276929356158	2	1	NaN	2422825.8549357	NaN	2422826.83834	2422827.35489087
61	20	1	0	90	36.1581920903955	36.241610738255	7	0.233363536056131	2	5	5	NaN	1	4	0.0542498672943188	1	1	NaN	7	1	7	2	121	221	321	NaN	521	0.390498180408031	1	1	NaN	2422829.0552294	NaN	2422830.0386414	2422830.55520042
61	20	1	0	90	36.1581920903955	36.241610738255	24	0.80010355219245	2	4	5	NaN	1	4	0.0542498672943188	1	1	NaN	8	1	8	2	121	221	321	NaN	521	0.434064680710435	1	1	NaN	2422832.1722382	NaN	2422833.1556361	2422833.67218282
61	20	1	0	90	36.1581920903955	36.241610738255	14	0.466727072112262	2	9	4	NaN	2	4	0.0542498672943188	1	1	NaN	9	1	9	2	121	221	321	NaN	521	0.329650280997157	2	1	NaN	2422835.1725281	NaN	2422836.1559439	2422836.67247192
61	20	1	0	90	36.1581920903955	36.241610738255	19	0.633415312152356	2	8	1	NaN	2	5	0.0542498672943188	1	1	NaN	10	1	10	2	121	221	321	NaN	521	0.383098480757326	1	0	NaN	2422837.8227979	NaN	2422838.8061598	2422839.32273532
61	20	1	0	90	36.1581920903955	36.241610738255	14	0.466727072112262	2	8	2	NaN	2	3	0.0542498672943188	1	1	NaN	11	1	11	2	121	221	321	NaN	521	0.458867490291595	2	1	NaN	2422840.523101	NaN	2422841.5064397	2422842.02300481
61	20	1	0	90	36.1581920903955	36.241610738255	11	0.366714128088206	2	4	5	NaN	1	3	0.0542498672943188	1	1	NaN	12	1	12	2	121	221	321	NaN	521	0.380241080652922	1	1	NaN	2422843.2898708	NaN	2422844.2733828	2422844.78993922
61	20	1	0	90	36.1581920903955	36.241610738255	16	0.5334023681283	2	8	3	NaN	2	5	0.0542498672943188	1	1	NaN	13	1	13	2	121	221	321	NaN	521	0.183828780893236	2	1	NaN	2422845.990264	NaN	2422846.9736538	2422847.49019342
61	20	1	0	90	36.1581920903955	36.241610738255	7	0.233363536056131	2	12	6	NaN	2	3	0.0542498672943188	1	1	NaN	14	1	14	2	121	221	321	NaN	521	0.0787766384892166	2	1	NaN	2422848.8070517	NaN	2422849.790589	2422850.30714386
61	20	1	0	90	36.1581920903955	36.241610738255	20	0.666752960160375	2	7	3	NaN	2	5	0.0542498672943188	1	1	NaN	15	1	15	2	121	221	321	NaN	521	0.438385432586074	1	0	NaN	2422851.2073137	NaN	2422852.1908346	2422852.70738517
61	20	1	0	90	36.1581920903955	36.241610738255	24	0.80010355219245	2	1	6	NaN	1	3	0.0542498672943188	1	1	NaN	16	1	16	2	121	221	321	NaN	521	0.24846078036353	1	1	NaN	2422853.9577002	NaN	2422854.9411023	2422855.45765412
61	20	1	0	90	36.1581920903955	36.241610738255	7	0.233363536056131	2	10	1	NaN	2	5	0.0542498672943188	1	1	NaN	17	1	17	2	121	221	321	NaN	521	0.247969632036984	2	1	NaN	2422856.757849	NaN	2422857.741374	2422858.25792607
61	20	1	0	90	36.1581920903955	36.241610738255	0	0	1	7	2	NaN	2	5	0.0542498672943188	1	1	NaN	18	1	18	2	111	211	311	NaN	511	0.56138978106901	1	0	NaN	2422859.7248998	NaN	2422860.7083092	2422861.22488432
61	20	1	0	90	36.1581920903955	36.241610738255	10	0.333376480080187	2	2	2	NaN	1	3	0.0542498672943188	1	1	NaN	19	1	19	2	121	221	321	NaN	521	0.541724432259798	1	1	NaN	2422862.6085397	NaN	2422863.5919668	2422864.10850167
61	20	1	0	90	36.1581920903955	36.241610738255	22	0.733428256176412	2	6	6	NaN	1	3	0.0542498672943188	1	1	NaN	20	1	20	2	121	221	321	NaN	521	0.610141845420003	1	1	NaN	2422865.4754876	NaN	2422866.4588995	2422866.97545625
61	20	1	0	90	36.1581920903955	36.241610738255	9	0.300038832072169	2	2	4	NaN	1	5	0.0542498672943188	1	1	NaN	21	1	21	2	121	221	321	NaN	521	0.684884780552238	1	1	NaN	2422868.4091198	NaN	2422869.3925187	2422869.90906222
61	20	1	0	90	36.1581920903955	36.241610738255	22	0.733428256176412	2	6	5	NaN	1	4	0.0542498672943188	1	1	NaN	22	1	22	2	121	221	321	NaN	521	0.708966280333698	1	1	NaN	2422871.4094123	NaN	2422872.3928019	2422872.90935882
61	20	1	0	90	36.1581920903955	36.241610738255	13	0.433389424104243	2	1	4	NaN	1	3	0.0542498672943188	1	1	NaN	23	1	23	2	121	221	321	NaN	521	0.451018232386559	1	1	NaN	2422874.4430422	NaN	2422875.4264469	2422875.94299447
61	20	1	0	90	36.1581920903955	36.241610738255	17	0.566740016136318	2	2	3	NaN	1	3	0.0542498672943188	1	1	NaN	24	1	24	2	121	221	321	NaN	521	0.3723169779405	1	1	NaN	2422877.2099846	NaN	2422878.1933834	2422878.70993432
61	20	1	0	90	36.1581920903955	36.241610738255	25	0.833441200200468	2	12	1	NaN	2	4	0.0542498672943188	1	1	NaN	25	1	25	2	121	221	321	NaN	521	0.0963835804723203	2	1	NaN	2422879.8935846	NaN	2422880.8769776	2422881.39352982
61	20	1	0	90	36.1581920903955	36.241610738255	8	0.26670118406415	2	3	3	NaN	1	3	0.0542498672943188	1	1	NaN	26	1	26	2	121	221	321	NaN	521	0.447439980693161	1	1	NaN	2422882.3104928	NaN	2422883.2938854	2422883.81043372
61	20	1	0	90	36.1581920903955	36.241610738255	8	0.26670118406415	2	5	4	NaN	1	5	0.0542498672943188	1	1	NaN	27	1	27	2	121	221	321	NaN	521	0.280910080298781	1	1	NaN	2422885.0774196	NaN	2422886.0608267	2422886.57736872
61	20	1	0	90	36.1581920903955	36.241610738255	8	0.26670118406415	2	6	4	NaN	1	4	0.0542498672943188	1	1	NaN	28	1	28	2	121	221	321	NaN	521	0.41662688087672	1	1	NaN	2422887.6776739	NaN	2422888.6610828	2422889.17763142
61	20	1	0	90	36.1581920903955	36.241610738255	21	0.700090608168393	2	8	2	NaN	2	4	0.0542498672943188	1	1	NaN	29	1	29	2	121	221	321	NaN	521	0.971052132546902	2	1	NaN	2422890.4112824	NaN	2422891.3946877	2422891.91122247
61	20	1	0	90	36.1581920903955	36.241610738255	23	0.766765904184431	2	6	6	NaN	1	5	0.0542498672943188	1	1	NaN	30	1	30	2	121	221	321	NaN	521	0.0104089807718992	1	1	NaN	2422893.6948811	NaN	2422894.6783838	2422895.19488662
61	20	1	0	90	36.1581920903955	36.241610738255	6	0.200025888048112	2	1	4	NaN	1	3	0.0542498672943188	1	1	NaN	31	1	31	2	121	221	321	NaN	521	0.0103988321498036	1	1	NaN	2422896.0283547	NaN	2422897.0118987	2422897.52845337
61	20	1	0	90	36.1581920903955	36.241610738255	13	0.433389424104243	2	7	1	NaN	2	4	0.0542498672943188	1	1	NaN	32	1	32	2	121	221	321	NaN	521	0.315961280837655	2	1	NaN	2422898.3620787	NaN	2422899.3454596	2422899.86201362
61	20	1	0	90	36.1581920903955	36.241610738255	20	0.666752960160375	2	8	6	NaN	2	5	0.0542498672943188	1	1	NaN	33	1	33	2	121	221	321	NaN	521	0.442625032737851	2	1	NaN	2422900.9956529	NaN	2422901.9790592	2422902.49559877
61	20	1	0	90	36.1581920903955	36.241610738255	16	0.5334023681283	2	9	4	NaN	2	5	0.0542498672943188	1	1	NaN	34	1	34	2	121	221	321	NaN	521	0.379230780526996	2	1	NaN	2422903.7625966	NaN	2422904.7459885	2422905.26254432
61	20	1	0	90	36.1581920903955	36.241610738255	24	0.80010355219245	2	8	6	NaN	2	3	0.0542498672943188	1	1	NaN	35	1	35	2	121	221	321	NaN	521	0.455156080890447	2	1	NaN	2422906.4628787	NaN	2422907.4462827	2422907.96280172
61	20	1	0	90	36.1581920903955	36.241610738255	17	0.566740016136318	2	12	2	NaN	2	4	0.0542498672943188	1	1	NaN	36	1	36	2	121	221	321	NaN	521	0.352191893849522	2	1	NaN	2422909.2296879	NaN	2422910.2131919	2422910.72975141
61	20	1	0	90	36.1581920903955	36.241610738255	17	0.566740016136318	2	6	6	NaN	1	3	0.0542498672943188	1	1	NaN	37	1	37	2	121	221	321	NaN	521	0.389600080437958	1	1	NaN	2422911.8966752	NaN	2422912.880125	2422913.39667972
61	20	1	0	90	36.1581920903955	36.241610738255	6	0.200025888048112	2	4	4	NaN	1	3	0.0542498672943188	1	1	NaN	38	1	38	2	121	221	321	NaN	521	0.417373480740935	1	1	NaN	2422914.5969827	NaN	2422915.5803824	2422916.09693882
61	20	1	0	90	36.1581920903955	36.241610738255	13	0.433389424104243	2	6	1	NaN	1	4	0.0542498672943188	1	1	NaN	39	1	39	2	121	221	321	NaN	521	0.40370073216036	1	1	NaN	2422917.3305816	NaN	2422918.3139738	2422918.83053737
61	20	1	0	90	36.1581920903955	36.241610738255	23	0.766765904184431	2	1	5	NaN	1	4	0.0542498672943188	1	1	NaN	40	1	40	2	121	221	321	NaN	521	0.462894781026989	1	1	NaN	2422920.0475174	NaN	2422921.0309612	2422921.54747592
61	20	1	0	90	36.1581920903955	36.241610738255	16	0.5334023681283	2	12	6	NaN	2	4	0.0542498672943188	1	1	NaN	41	1	41	2	121	221	321	NaN	521	0.431384880561382	2	1	NaN	2422922.8143385	NaN	2422923.7978665	2422924.31440612
61	20	1	0	90	36.1581920903955	36.241610738255	18	0.600077664144337	2	6	1	NaN	1	3	0.0542498672943188	1	1	NaN	42	1	42	2	121	221	321	NaN	521	0.497241928707808	1	1	NaN	2422925.5647337	NaN	2422926.5481218	2422927.06467097
61	20	1	0	90	36.1581920903955	36.241610738255	10	0.333376480080187	2	2	1	NaN	1	3	0.0542498672943188	1	1	NaN	43	1	43	2	121	221	321	NaN	521	0.384530983865261	1	1	NaN	2422928.3817536	NaN	2422929.3650713	2422929.88163512
61	20	1	0	90	36.1581920903955	36.241610738255	18	0.600077664144337	2	12	4	NaN	2	4	0.0542498672943188	1	1	NaN	44	1	44	2	121	221	321	NaN	521	1.01993438415229	1	0	NaN	2422931.0819744	NaN	2422932.0653358	2422932.58189492
61	20	1	0	90	36.1581920903955	36.241610738255	17	0.566740016136318	2	5	6	NaN	1	5	0.0542498672943188	1	1	NaN	45	1	45	2	121	221	321	NaN	521	0.430264980532229	1	1	NaN	2422934.415608	NaN	2422935.3989793	2422935.91554752
61	20	1	0	90	36.1581920903955	36.241610738255	10	0.333376480080187	2	3	1	NaN	1	3	0.0542498672943188	1	1	NaN	46	1	46	2	121	221	321	NaN	521	0.49707708042115	1	1	NaN	2422937.1491991	NaN	2422938.1325982	2422938.64915982
61	20	1	0	90	36.1581920903955	36.241610738255	23	0.766765904184431	2	12	5	NaN	2	5	0.0542498672943188	1	1	NaN	47	1	47	2	121	221	321	NaN	521	0.432850480545312	2	1	NaN	2422939.9494835	NaN	2422940.9328696	2422941.44942352
61	20	1	0	90	36.1581920903955	36.241610738255	7	0.233363536056131	2	6	4	NaN	1	4	0.0542498672943188	1	1	NaN	48	1	48	2	121	221	321	NaN	521	0.38528538076207	1	1	NaN	2422942.9331092	NaN	2422943.9165033	2422944.43305422
61	20	1	0	90	36.1581920903955	36.241610738255	15	0.500064720120281	2	7	2	NaN	2	5	0.0542498672943188	1	1	NaN	49	1	49	2	121	221	321	NaN	521	0.476753280498087	2	1	NaN	2422945.6333617	NaN	2422946.6167628	2422947.13331112
61	20	1	0	90	36.1581920903955	36.241610738255	9	0.300038832072169	2	12	6	NaN	2	4	0.0542498672943188	1	1	NaN	50	1	50	2	121	221	321	NaN	521	0.349110532552004	2	1	NaN	2422948.416961	NaN	2422949.4003711	2422949.91692507
61	20	1	0	90	36.1581920903955	36.241610738255	10	0.333376480080187	2	7	5	NaN	2	3	0.0542498672943188	1	1	NaN	51	1	51	2	121	221	321	NaN	521	0.426524380687624	2	1	NaN	2422951.0839012	NaN	2422952.0672915	2422952.58384602
61	20	1	0	90	36.1581920903955	36.241610738255	19	0.633415312152356	2	10	6	NaN	2	5	0.0542498672943188	1	1	NaN	52	1	52	2	121	221	321	NaN	521	0.813042380381376	2	1	NaN	2422953.8174964	NaN	2422954.8008978	2422955.31745512
61	20	1	0	90	36.1581920903955	36.241610738255	0	0	1	11	5	NaN	2	4	0.0542498672943188	1	1	NaN	53	1	53	2	111	211	311	NaN	511	0.47939552878961	1	0	NaN	2422956.9511377	NaN	2422957.9346101	2422958.45108547
61	20	1	0	90	36.1581920903955	36.241610738255	14	0.466727072112262	2	11	3	NaN	2	3	0.0542498672943188	1	1	NaN	54	1	54	2	121	221	321	NaN	521	0.879294080659747	1	0	NaN	2422959.7347573	NaN	2422960.71815	2422961.23470322
61	20	1	0	90	36.1581920903955	36.241610738255	12	0.400051776096225	2	4	5	NaN	1	3	0.0542498672943188	1	1	NaN	55	1	55	2	121	221	321	NaN	521	1.65501803252846	1	1	NaN	2422962.9349426	NaN	2422963.9184232	2422964.43501677
61	20	1	0	90	36.1581920903955	36.241610738255	9	0.300038832072169	2	10	1	NaN	2	4	0.0542498672943188	1	1	NaN	56	1	56	2	121	221	321	NaN	521	0.104076780378819	2	1	NaN	2422966.9021361	NaN	2422967.8855192	2422968.40207322
61	20	1	0	90	36.1581920903955	36.241610738255	11	0.366714128088206	2	6	6	NaN	1	5	0.0542498672943188	1	1	NaN	57	1	57	2	121	221	321	NaN	521	0.758917045313865	1	1	NaN	2422969.3190025	NaN	2422970.3024267	2422970.81897815
61	20	1	0	90	36.1581920903955	36.241610738255	25	0.833441200200468	2	3	2	NaN	1	5	0.0542498672943188	1	1	NaN	58	1	58	2	121	221	321	NaN	521	0.763409780804068	1	1	NaN	2422972.4025186	NaN	2422973.3860658	2422973.90261522
61	20	1	0	90	36.1581920903955	36.241610738255	8	0.26670118406415	2	9	4	NaN	2	5	0.0542498672943188	1	1	NaN	59	1	59	2	121	221	321	NaN	521	0.271973380818963	2	1	NaN	2422975.4863074	NaN	2422976.4696981	2422976.98624642
61	20	1	0	90	36.1581920903955	36.241610738255	17	0.566740016136318	2	11	6	NaN	2	3	0.0542498672943188	1	1	NaN	60	1	60	2	121	221	321	NaN	521	0.43627998046577	1	0	NaN	2422978.1697589	NaN	2422979.153295	2422979.66984532
61	20	1	0	90	36.1581920903955	36.241610738255	6	0.200025888048112	2	12	4	NaN	2	3	0.0542498672943188	1	1	NaN	61	1	61	2	121	221	321	NaN	521	0.0103967324830592	2	1	NaN	2422980.9201007	NaN	2422981.9035617	2422982.42012027
61	20	1	0	90	36.1581920903955	36.241610738255	21	0.700090608168393	2	6	1	NaN	1	3	0.0542498672943188	1	1	NaN	62	1	62	2	121	221	321	NaN	521	0.0104168807156384	1	1	NaN	2422983.2370586	NaN	2422984.2204615	2422984.73700802
61	20	1	0	90	36.1581920903955	36.241610738255	24	0.80010355219245	2	8	5	NaN	2	3	0.0542498672943188	1	1	NaN	63	1	63	2	121	221	321	NaN	521	0.0102534964680672	2	1	NaN	2422985.5538756	NaN	2422986.5373737	2422987.0539111
61	20	1	0	90	36.1581920903955	36.241610738255	21	0.700090608168393	2	3	6	NaN	1	3	0.0542498672943188	1	1	NaN	64	2	1	2	121	221	321	NaN	521	1.49698434583843	1	1	NaN	2422996.2049693	NaN	2422997.1883956	2422997.70494505
61	20	1	0	90	36.1581920903955	36.241610738255	13	0.433389424104243	2	11	5	NaN	2	4	0.0542498672943188	1	1	NaN	65	2	2	2	121	221	321	NaN	521	1.52908058091998	1	0	NaN	2423000.0053729	NaN	2423000.9887671	2423001.50531972
61	20	1	0	90	36.1581920903955	36.241610738255	9	0.300038832072169	2	6	5	NaN	1	4	0.0542498672943188	1	1	NaN	66	2	3	2	121	221	321	NaN	521	1.87943238066509	1	1	NaN	2423003.8390802	NaN	2423004.8224759	2423005.33902312
61	20	1	0	90	36.1581920903955	36.241610738255	22	0.733428256176412	2	1	1	NaN	1	3	0.0542498672943188	1	1	NaN	67	2	4	2	121	221	321	NaN	521	0.271460980642587	1	1	NaN	2423008.0228019	NaN	2423009.006206	2423009.52277582
61	20	1	0	90	36.1581920903955	36.241610738255	17	0.566740016136318	2	10	1	NaN	2	5	0.0542498672943188	1	1	NaN	68	2	5	2	121	221	321	NaN	521	0.0103942323476076	2	1	NaN	2423010.6064341	NaN	2423011.5898116	2423012.10636677
61	20	1	0	90	36.1581920903955	36.241610738255	23	0.766765904184431	2	10	5	NaN	2	4	0.0542498672943188	1	1	NaN	69	2	6	2	121	221	321	NaN	521	0.0103743840008974	2	1	NaN	2423012.9232967	NaN	2423013.906702	2423014.42325802
61	20	1	0	90	36.1581920903955	36.241610738255	25	0.833441200200468	2	6	2	NaN	1	3	0.0542498672943188	1	1	NaN	70	2	7	2	121	221	321	NaN	521	0.0266631324775517	1	1	NaN	2423015.5235615	NaN	2423016.5069602	2423017.02350547
61	20	1	0	90	36.1581920903955	36.241610738255	9	0.300038832072169	2	1	2	NaN	1	4	0.0542498672943188	1	1	NaN	71	2	8	2	121	221	321	NaN	521	0.245055680628866	1	1	NaN	2423017.8571274	NaN	2423018.8405163	2423019.35706462
61	20	1	0	90	36.1581920903955	36.241610738255	8	0.26670118406415	2	6	3	NaN	1	5	0.0542498672943188	1	1	NaN	72	2	9	2	121	221	321	NaN	521	0.142899432219565	1	1	NaN	2423020.4074597	NaN	2423021.3907869	2423021.90732447
61	20	1	0	90	36.1581920903955	36.241610738255	19	0.633415312152356	2	5	1	NaN	1	3	0.0542498672943188	1	1	NaN	73	2	10	2	121	221	321	NaN	521	0.244529980700463	1	1	NaN	2423022.8576189	NaN	2423023.8410064	2423024.35756712
61	20	1	0	90	36.1581920903955	36.241610738255	24	0.80010355219245	2	12	6	NaN	2	4	0.0542498672943188	1	1	NaN	74	2	11	2	121	221	321	NaN	521	0.149952632375062	2	1	NaN	2423025.424543	NaN	2423026.4079339	2423026.92448657
61	20	1	0	90	36.1581920903955	36.241610738255	12	0.400051776096225	2	2	1	NaN	1	3	0.0542498672943188	1	1	NaN	75	2	12	2	121	221	321	NaN	521	0.0669295811094344	1	1	NaN	2423027.8914418	NaN	2423028.8748326	2423029.39138842
61	20	1	0	90	36.1581920903955	36.241610738255	9	0.300038832072169	2	3	3	NaN	1	3	0.0542498672943188	1	1	NaN	76	2	13	2	121	221	321	NaN	521	1.49911573249847	1	1	NaN	2423030.2750193	NaN	2423031.2584156	2423031.77498097
61	20	1	0	90	36.1581920903955	36.241610738255	14	0.466727072112262	2	6	2	NaN	1	3	0.0542498672943188	1	1	NaN	77	2	14	2	121	221	321	NaN	521	0.0105435680598021	1	1	NaN	2423034.0920452	NaN	2423035.0754553	2423035.59199003
61	20	1	0	90	36.1581920903955	36.241610738255	11	0.366714128088206	2	10	3	NaN	2	4	0.0542498672943188	1	1	NaN	78	2	15	2	121	221	321	NaN	521	0.349139532539994	2	1	NaN	2423036.4089443	NaN	2423037.3923757	2423037.90889877
61	20	1	0	90	36.1581920903955	36.241610738255	25	0.833441200200468	2	4	3	NaN	1	5	0.0542498672943188	1	1	NaN	79	2	16	2	121	221	321	NaN	521	0.386617480777204	1	1	NaN	2423039.0758731	NaN	2423040.0592699	2423040.57582132
61	20	1	0	90	36.1581920903955	36.241610738255	22	0.733428256176412	2	9	6	NaN	2	4	0.0542498672943188	1	1	NaN	80	2	17	2	121	221	321	NaN	521	0.406123580876738	2	1	NaN	2423041.7761345	NaN	2423042.7595405	2423043.27607912
61	20	1	0	90	36.1581920903955	36.241610738255	18	0.600077664144337	2	5	4	NaN	1	5	0.0542498672943188	1	1	NaN	81	2	18	2	121	221	321	NaN	521	0.393402593676001	1	1	NaN	2423044.4929658	NaN	2423045.476456	2423045.99303991
61	20	1	0	90	36.1581920903955	36.241610738255	22	0.733428256176412	2	10	1	NaN	2	3	0.0542498672943188	1	1	NaN	82	2	19	2	121	221	321	NaN	521	0.357092480640858	2	1	NaN	2423047.1932346	NaN	2423048.1767247	2423048.69328242
61	20	1	0	90	36.1581920903955	36.241610738255	19	0.633415312152356	2	2	6	NaN	1	3	0.0542498672943188	1	1	NaN	83	2	20	2	121	221	321	NaN	521	0.522259580437094	1	1	NaN	2423049.8601313	NaN	2423050.8436567	2423051.36021742
61	20	1	0	90	36.1581920903955	36.241610738255	19	0.633415312152356	2	9	5	NaN	2	5	0.0542498672943188	1	1	NaN	84	2	21	2	121	221	321	NaN	521	1.23227063240483	2	1	NaN	2423052.6937605	NaN	2423053.6772787	2423054.19382967
61	20	1	0	90	36.1581920903955	36.241610738255	18	0.600077664144337	2	5	1	NaN	1	4	0.0542498672943188	1	1	NaN	85	2	22	2	121	221	321	NaN	521	0.554200532380491	1	1	NaN	2423056.2442175	NaN	2423057.227634	2423057.74417977
61	20	1	0	90	36.1581920903955	36.241610738255	12	0.400051776096225	2	1	5	NaN	1	4	0.0542498672943188	1	1	NaN	86	2	23	2	121	221	321	NaN	521	0.367148032411933	1	1	NaN	2423059.1111889	NaN	2423060.094581	2423060.61112177
61	20	1	0	90	36.1581920903955	36.241610738255	11	0.366714128088206	2	5	5	NaN	1	3	0.0542498672943188	1	1	NaN	87	2	24	2	121	221	321	NaN	521	0.715773632284254	1	1	NaN	2423061.7947664	NaN	2423062.778165	2423063.29472087
61	20	1	0	90	36.1581920903955	36.241610738255	22	0.733428256176412	2	4	1	NaN	1	5	0.0542498672943188	1	1	NaN	88	2	25	2	121	221	321	NaN	521	0.529657632578164	1	1	NaN	2423064.8282676	NaN	2423065.8118048	2423066.32835277
61	20	1	0	90	36.1581920903955	36.241610738255	23	0.766765904184431	2	7	1	NaN	2	3	0.0542498672943188	1	1	NaN	89	2	26	2	121	221	321	NaN	521	0.416219880338758	2	1	NaN	2423067.6620041	NaN	2423068.6454065	2423069.16196342
61	20	1	0	90	36.1581920903955	36.241610738255	19	0.633415312152356	2	4	2	NaN	1	4	0.0542498672943188	1	1	NaN	90	2	27	2	121	221	321	NaN	521	0.538894280791283	1	1	NaN	2423070.3954828	NaN	2423071.3790178	2423071.89555732
61	20	1	0	90	36.1581920903955	36.241610738255	21	0.700090608168393	2	9	2	NaN	2	4	0.0542498672943188	1	1	NaN	91	2	28	2	121	221	321	NaN	521	0.360403828788549	2	1	NaN	2423073.2457572	NaN	2423074.2292968	2423074.74583447
61	20	1	0	90	36.1581920903955	36.241610738255	17	0.566740016136318	2	7	3	NaN	2	3	0.0542498672943188	1	1	NaN	92	2	29	2	121	221	321	NaN	521	0.533647832460701	1	0	NaN	2423075.9129054	NaN	2423076.8962375	2423077.41277227
61	20	1	0	90	36.1581920903955	36.241610738255	20	0.666752960160375	2	7	4	NaN	2	5	0.0542498672943188	1	1	NaN	93	2	30	2	121	221	321	NaN	521	2.12324768071994	2	1	NaN	2423078.7631059	NaN	2423079.7465039	2423080.26306212
61	20	1	0	90	36.1581920903955	36.241610738255	12	0.400051776096225	2	11	2	NaN	2	3	0.0542498672943188	1	1	NaN	94	2	31	2	121	221	321	NaN	521	0.377490880899131	2	1	NaN	2423083.1968804	NaN	2423084.1802776	2423084.69681392
61	20	1	0	90	36.1581920903955	36.241610738255	0	0	1	12	5	NaN	2	5	0.0542498672943188	1	1	NaN	95	2	32	2	111	211	311	NaN	511	0.413067081011832	2	1	NaN	2423085.8971383	NaN	2423086.8805285	2423087.39708802
61	20	1	0	90	36.1581920903955	36.241610738255	19	0.633415312152356	2	6	2	NaN	1	4	0.0542498672943188	1	1	NaN	96	2	33	2	121	221	321	NaN	521	0.463816880714148	1	1	NaN	2423088.6307342	NaN	2423089.6140599	2423090.13069142
61	20	1	0	90	36.1581920903955	36.241610738255	0	0	1	7	1	NaN	2	4	0.0542498672943188	1	1	NaN	97	2	34	2	111	211	311	NaN	511	0.584190580528229	2	1	NaN	2423091.4143467	NaN	2423092.3976717	2423092.91429762
61	20	1	0	90	36.1581920903955	36.241610738255	6	0.200025888048112	2	8	3	NaN	2	5	0.0542498672943188	1	1	NaN	98	2	35	2	121	221	321	NaN	521	0.451933490112424	2	1	NaN	2423094.3146298	NaN	2423095.2980143	2423095.81458761
61	20	1	0	90	36.1581920903955	36.241610738255	12	0.400051776096225	2	11	5	NaN	2	4	0.0542498672943188	1	1	NaN	99	2	36	2	121	221	321	NaN	521	0.380583738908172	2	1	NaN	2423097.08156	NaN	2423098.0649567	2423098.58151116
61	20	1	0	90	36.1581920903955	36.241610738255	8	0.26670118406415	2	11	4	NaN	2	4	0.0542498672943188	1	1	NaN	100	2	37	2	121	221	321	NaN	521	0.45669913245365	2	1	NaN	2423099.7818304	NaN	2423100.7652338	2423101.28177787
61	20	1	0	90	36.1581920903955	36.241610738255	24	0.80010355219245	2	5	5	NaN	1	3	0.0542498672943188	1	1	NaN	101	2	38	2	121	221	321	NaN	521	0.321519128978252	1	1	NaN	2423102.5487972	NaN	2423103.53217	2423104.04871327
61	20	1	0	90	36.1581920903955	36.241610738255	10	0.333376480080187	2	12	4	NaN	2	4	0.0542498672943188	1	1	NaN	102	2	39	2	121	221	321	NaN	521	0.199807532597333	2	1	NaN	2423105.1822492	NaN	2423106.1657677	2423106.68231287
61	20	1	0	90	36.1581920903955	36.241610738255	12	0.400051776096225	2	12	1	NaN	2	3	0.0542498672943188	1	1	NaN	103	2	40	2	121	221	321	NaN	521	0.0104075805284083	2	1	NaN	2423107.699274	NaN	2423108.6827433	2423109.19922332
61	20	1	0	90	36.1581920903955	36.241610738255	25	0.833441200200468	2	5	1	NaN	1	5	0.0542498672943188	1	1	NaN	104	2	41	2	121	221	321	NaN	521	0.325302680488676	1	1	NaN	2423110.03284	NaN	2423111.0162385	2423111.53278222
61	20	1	0	90	36.1581920903955	36.241610738255	18	0.600077664144337	2	2	2	NaN	1	3	0.0542498672943188	1	1	NaN	105	2	42	2	121	221	321	NaN	521	0.283612332772464	2	0	NaN	2423112.6831017	NaN	2423113.6664958	2423114.18305227
61	20	1	0	90	36.1581920903955	36.241610738255	11	0.366714128088206	2	8	1	NaN	2	3	0.0542498672943188	1	1	NaN	106	2	43	2	121	221	321	NaN	521	0.578879580367357	2	1	NaN	2423115.283355	NaN	2423116.2667535	2423116.78329892
61	20	1	0	90	36.1581920903955	36.241610738255	13	0.433389424104243	2	7	3	NaN	2	4	0.0542498672943188	1	1	NaN	107	2	44	2	121	221	321	NaN	521	1.4226610804908	2	1	NaN	2423118.1836422	NaN	2423119.1670256	2423119.68358942
61	20	1	0	90	36.1581920903955	36.241610738255	7	0.233363536056131	2	4	1	NaN	1	3	0.0542498672943188	1	1	NaN	108	2	45	2	121	221	321	NaN	521	0.35289658093825	2	0	NaN	2423121.9173378	NaN	2423122.9007527	2423123.41729902
61	20	1	0	90	36.1581920903955	36.241610738255	11	0.366714128088206	2	6	1	NaN	1	4	0.0542498672943188	1	1	NaN	109	2	46	2	121	221	321	NaN	521	0.558411332312971	2	0	NaN	2423124.584268	NaN	2423125.5676539	2423126.08421047
61	20	1	0	90	36.1581920903955	36.241610738255	20	0.666752960160375	2	1	4	NaN	1	5	0.0542498672943188	1	1	NaN	110	2	47	2	121	221	321	NaN	521	0.299316432327032	1	1	NaN	2423127.4512535	NaN	2423128.4346127	2423128.95116627
61	20	1	0	90	36.1581920903955	36.241610738255	15	0.500064720120281	2	12	2	NaN	2	3	0.0542498672943188	1	1	NaN	111	2	48	2	121	221	321	NaN	521	0.378091080579907	1	0	NaN	2423130.0681298	NaN	2423131.051531	2423131.56808612
61	20	1	0	90	36.1581920903955	36.241610738255	6	0.200025888048112	2	12	5	NaN	2	4	0.0542498672943188	1	1	NaN	112	2	49	2	121	221	321	NaN	521	0.366198232397437	2	1	NaN	2423132.7683966	NaN	2423133.7518049	2423134.26835717
61	20	1	0	90	36.1581920903955	36.241610738255	10	0.333376480080187	2	8	1	NaN	2	3	0.0542498672943188	1	1	NaN	113	2	50	2	121	221	321	NaN	521	0.29030493227765	1	0	NaN	2423135.4519946	NaN	2423136.4354244	2423136.95195527
61	20	1	0	90	36.1581920903955	36.241610738255	0	0	1	5	6	NaN	1	5	0.0542498672943188	1	1	NaN	114	2	51	2	111	211	311	NaN	511	0.234052480664104	1	1	NaN	2423138.0522684	NaN	2423139.0356724	2423139.55219642
61	20	1	0	90	36.1581920903955	36.241610738255	13	0.433389424104243	2	3	6	NaN	1	4	0.0542498672943188	1	1	NaN	115	2	52	2	121	221	321	NaN	521	0.41206338070333	1	1	NaN	2423140.6026021	NaN	2423141.5858664	2423142.10245832
61	20	1	0	90	36.1581920903955	36.241610738255	24	0.80010355219245	2	4	6	NaN	1	3	0.0542498672943188	1	1	NaN	116	2	53	2	121	221	321	NaN	521	0.439227932132781	1	1	NaN	2423143.3194408	NaN	2423144.3028364	2423144.81938837
61	20	1	0	90	36.1581920903955	36.241610738255	7	0.233363536056131	2	11	1	NaN	2	4	0.0542498672943188	1	1	NaN	117	2	54	2	121	221	321	NaN	521	0.40046848077327	1	0	NaN	2423146.0695899	NaN	2423147.0531476	2423147.56966182
61	20	1	0	90	36.1581920903955	36.241610738255	24	0.80010355219245	2	3	2	NaN	1	5	0.0542498672943188	1	1	NaN	118	2	55	2	121	221	321	NaN	521	0.0839043287560344	1	1	NaN	2423148.7866569	NaN	2423149.7700442	2423150.28658547
61	20	1	0	90	36.1581920903955	36.241610738255	13	0.433389424104243	2	1	1	NaN	1	5	0.0542498672943188	1	1	NaN	119	2	56	2	121	221	321	NaN	521	0.651394281070679	1	1	NaN	2423151.1869011	NaN	2423152.1702739	2423152.68682802
61	20	1	0	90	36.1581920903955	36.241610738255	22	0.733428256176412	2	7	2	NaN	2	5	0.0542498672943188	1	1	NaN	120	2	57	2	121	221	321	NaN	521	0.492825580760837	1	0	NaN	2423154.1538458	NaN	2423155.1372273	2423155.65377752
61	20	1	0	90	36.1581920903955	36.241610738255	21	0.700090608168393	2	3	4	NaN	1	4	0.0542498672943188	1	1	NaN	121	2	58	2	121	221	321	NaN	521	0.347589480690658	1	1	NaN	2423156.9707817	NaN	2423157.9541681	2423158.47073332
61	20	1	0	90	36.1581920903955	36.241610738255	15	0.500064720120281	2	11	4	NaN	2	5	0.0542498672943188	1	1	NaN	122	2	59	2	121	221	321	NaN	521	0.305193832144141	2	1	NaN	2423159.6210406	NaN	2423160.604441	2423161.12098767
61	20	1	0	90	36.1581920903955	36.241610738255	8	0.26670118406415	2	8	6	NaN	2	5	0.0542498672943188	1	1	NaN	123	2	60	2	121	221	321	NaN	521	0.400619580876082	2	1	NaN	2423162.2379626	NaN	2423163.221337	2423163.73791432
61	20	1	0	90	36.1581920903955	36.241610738255	21	0.700090608168393	2	6	6	NaN	1	3	0.0542498672943188	1	1	NaN	124	2	61	2	121	221	321	NaN	521	0.0104098808951676	1	1	NaN	2423165.1381181	NaN	2423166.1216498	2423166.63819182
61	20	1	0	90	36.1581920903955	36.241610738255	12	0.400051776096225	2	8	2	NaN	2	3	0.0542498672943188	1	1	NaN	125	2	62	2	121	221	321	NaN	521	0.446434028912336	2	1	NaN	2423167.4716784	NaN	2423168.4552015	2423168.97175357
61	20	1	0	90	36.1581920903955	36.241610738255	12	0.400051776096225	2	10	5	NaN	2	3	0.0542498672943188	1	1	NaN	126	2	63	2	121	221	321	NaN	521	0.288390981033444	1	0	NaN	2423170.2220768	NaN	2423171.2054792	2423171.72202222
61	20	1	0	90	36.1581920903955	36.241610738255	14	0.466727072112262	2	12	5	NaN	2	5	0.0542498672943188	1	1	NaN	127	3	1	2	121	221	321	NaN	521	0.0570136806927621	2	1	NaN	2423177.1894226	NaN	2423178.1728289	2423178.68937922
61	20	1	0	90	36.1581920903955	36.241610738255	23	0.766765904184431	2	9	2	NaN	2	3	0.0542498672943188	1	1	NaN	128	3	2	2	121	221	321	NaN	521	0.129791780840605	2	1	NaN	2423179.5563568	NaN	2423180.5397261	2423181.05628072
61	20	1	0	90	36.1581920903955	36.241610738255	22	0.733428256176412	2	8	6	NaN	2	3	0.0542498672943188	1	1	NaN	129	3	3	2	121	221	321	NaN	521	0.223714280407876	2	1	NaN	2423182.0065786	NaN	2423182.9900468	2423183.50651772
61	20	1	0	90	36.1581920903955	36.241610738255	9	0.300038832072169	2	9	1	NaN	2	4	0.0542498672943188	1	1	NaN	130	3	4	2	121	221	321	NaN	521	0.442604184150696	2	1	NaN	2423184.5401505	NaN	2423185.5235465	2423186.04010442
61	20	1	0	90	36.1581920903955	36.241610738255	20	0.666752960160375	2	4	6	NaN	1	5	0.0542498672943188	1	1	NaN	131	3	5	2	121	221	321	NaN	521	0.587513180915266	2	0	NaN	2423187.3070924	NaN	2423188.2904903	2423188.80703342
61	20	1	0	90	36.1581920903955	36.241610738255	14	0.466727072112262	2	3	1	NaN	1	3	0.0542498672943188	1	1	NaN	132	3	6	2	121	221	321	NaN	521	0.0103920325636864	1	1	NaN	2423190.2073719	NaN	2423191.1907744	2423191.70732957
61	20	1	0	90	36.1581920903955	36.241610738255	20	0.666752960160375	2	11	3	NaN	2	3	0.0542498672943188	1	1	NaN	133	3	7	2	121	221	321	NaN	521	0.33044632896781	1	0	NaN	2423192.5241655	NaN	2423193.5076618	2423194.02421187
61	20	1	0	90	36.1581920903955	36.241610738255	22	0.733428256176412	2	5	2	NaN	1	4	0.0542498672943188	1	1	NaN	134	3	8	2	121	221	321	NaN	521	0.320853132754564	1	1	NaN	2423195.1578649	NaN	2423196.141261	2423196.65781017
61	20	1	0	90	36.1581920903955	36.241610738255	15	0.500064720120281	2	1	1	NaN	1	3	0.0542498672943188	1	1	NaN	135	3	9	2	121	221	321	NaN	521	0.359085580799729	1	1	NaN	2423197.7914517	NaN	2423198.7748541	2423199.29139692
61	20	1	0	90	36.1581920903955	36.241610738255	19	0.633415312152356	2	12	2	NaN	2	5	0.0542498672943188	1	1	NaN	136	3	10	2	121	221	321	NaN	521	0.2120282324031	2	1	NaN	2423200.4583801	NaN	2423201.4417852	2423201.95833257
61	20	1	0	90	36.1581920903955	36.241610738255	8	0.26670118406415	2	4	3	NaN	1	4	0.0542498672943188	1	1	NaN	137	3	11	2	121	221	321	NaN	521	0.334865245502442	1	1	NaN	2423202.9919562	NaN	2423203.9753642	2423204.49192545
61	20	1	0	90	36.1581920903955	36.241610738255	23	0.766765904184431	2	1	2	NaN	1	4	0.0542498672943188	1	1	NaN	138	3	12	2	121	221	321	NaN	521	0.452281381003559	1	1	NaN	2423205.6420949	NaN	2423206.6256201	2423207.14217172
61	20	1	0	90	36.1581920903955	36.241610738255	19	0.633415312152356	2	7	3	NaN	2	5	0.0542498672943188	1	1	NaN	139	3	13	2	121	221	321	NaN	521	0.357564580626786	2	1	NaN	2423208.4091725	NaN	2423209.3925588	2423209.90911002
61	20	1	0	90	36.1581920903955	36.241610738255	9	0.300038832072169	2	4	3	NaN	1	3	0.0542498672943188	1	1	NaN	140	3	14	2	121	221	321	NaN	521	0.354263680521399	1	1	NaN	2423211.0761006	NaN	2423212.0594886	2423212.57603462
61	20	1	0	90	36.1581920903955	36.241610738255	10	0.333376480080187	2	5	3	NaN	1	4	0.0542498672943188	1	1	NaN	141	3	15	2	121	221	321	NaN	521	0.431553984060884	1	1	NaN	2423213.7430306	NaN	2423214.726422	2423215.24297102
61	20	1	0	90	36.1581920903955	36.241610738255	21	0.700090608168393	2	12	6	NaN	2	5	0.0542498672943188	1	1	NaN	142	3	16	2	121	221	321	NaN	521	0.886504645459354	2	1	NaN	2423216.7598866	NaN	2423217.7433587	2423218.25992995
61	20	1	0	90	36.1581920903955	36.241610738255	13	0.433389424104243	2	5	6	NaN	1	3	0.0542498672943188	1	1	NaN	143	3	17	2	121	221	321	NaN	521	0.398242780938745	1	1	NaN	2423219.9603023	NaN	2423220.9436781	2423221.46024212
61	20	1	0	90	36.1581920903955	36.241610738255	10	0.333376480080187	2	6	1	NaN	1	5	0.0542498672943188	1	1	NaN	144	3	18	2	121	221	321	NaN	521	0.809162280987948	1	1	NaN	2423222.6772794	NaN	2423223.6606235	2423224.17718152
61	20	1	0	90	36.1581920903955	36.241610738255	17	0.566740016136318	2	7	4	NaN	2	5	0.0542498672943188	1	1	NaN	145	3	19	2	121	221	321	NaN	521	0.268574432004243	2	1	NaN	2423225.7942204	NaN	2423226.7776066	2423227.29415667
61	20	1	0	90	36.1581920903955	36.241610738255	16	0.5334023681283	2	11	3	NaN	2	5	0.0542498672943188	1	1	NaN	146	3	20	2	121	221	321	NaN	521	0.452596380840987	1	0	NaN	2423228.3777895	NaN	2423229.3611799	2423229.87774072
61	20	1	0	90	36.1581920903955	36.241610738255	7	0.233363536056131	2	1	6	NaN	1	4	0.0542498672943188	1	1	NaN	147	3	21	2	121	221	321	NaN	521	0.301659726072103	2	0	NaN	2423231.1445758	NaN	2423232.1281089	2423232.64466777
61	20	1	0	90	36.1581920903955	36.241610738255	8	0.26670118406415	2	7	5	NaN	2	4	0.0542498672943188	1	1	NaN	148	3	22	2	121	221	321	NaN	521	0.204765080474317	2	1	NaN	2423233.7616585	NaN	2423234.7450541	2423235.26160082
61	20	1	0	90	36.1581920903955	36.241610738255	15	0.500064720120281	2	11	1	NaN	2	4	0.0542498672943188	1	1	NaN	149	3	23	2	121	221	321	NaN	521	0.17593398084864	2	1	NaN	2423236.2785776	NaN	2423237.2619654	2423237.77851632
61	20	1	0	90	36.1581920903955	36.241610738255	6	0.200025888048112	2	8	5	NaN	2	5	0.0542498672943188	1	1	NaN	150	3	24	2	121	221	321	NaN	521	1.8442364805378	2	1	NaN	2423238.7621243	NaN	2423239.7455404	2423240.26210242
61	20	1	0	90	36.1581920903955	36.241610738255	10	0.333376480080187	2	4	2	NaN	1	5	0.0542498672943188	1	1	NaN	151	3	25	2	121	221	321	NaN	521	0.486231580842286	1	1	NaN	2423242.9124128	NaN	2423243.8958449	2423244.41250002
61	20	1	0	90	36.1581920903955	36.241610738255	18	0.600077664144337	2	11	6	NaN	2	4	0.0542498672943188	1	1	NaN	152	3	26	2	121	221	321	NaN	521	0.711950580589473	2	1	NaN	2423246.0628821	NaN	2423247.0462576	2423247.56281022
61	20	1	0	90	36.1581920903955	36.241610738255	14	0.466727072112262	2	1	5	NaN	1	4	0.0542498672943188	1	1	NaN	153	3	27	2	121	221	321	NaN	521	0.438238832168281	1	1	NaN	2423249.0964903	NaN	2423250.0799049	2423250.59644427
61	20	1	0	90	36.1581920903955	36.241610738255	0	0	1	9	6	NaN	2	4	0.0542498672943188	1	1	NaN	154	3	28	2	111	211	311	NaN	511	0.440043880604208	2	1	NaN	2423251.8467515	NaN	2423252.8301606	2423253.34671022
61	20	1	0	90	36.1581920903955	36.241610738255	23	0.766765904184431	2	2	5	NaN	1	4	0.0542498672943188	1	1	NaN	155	3	29	2	121	221	321	NaN	521	0.24985733255744	1	1	NaN	2423254.5970233	NaN	2423255.58043	2423256.09698207
61	20	1	0	90	36.1581920903955	36.241610738255	22	0.733428256176412	2	1	3	NaN	1	5	0.0542498672943188	1	1	NaN	156	3	30	2	121	221	321	NaN	521	0.298498680815101	1	1	NaN	2423257.1639448	NaN	2423258.1473508	2423258.66389802
61	20	1	0	90	36.1581920903955	36.241610738255	24	0.80010355219245	2	9	4	NaN	2	5	0.0542498672943188	1	1	NaN	157	3	31	2	121	221	321	NaN	521	0.265517129097134	1	0	NaN	2423259.7808025	NaN	2423260.7642886	2423261.28081437
61	20	1	0	90	36.1581920903955	36.241610738255	0	0	1	1	2	NaN	1	3	0.0542498672943188	1	1	NaN	158	3	32	2	111	211	311	NaN	511	0.250463480595499	1	1	NaN	2423262.3644523	NaN	2423263.3478833	2423263.86440862
61	20	1	0	90	36.1581920903955	36.241610738255	13	0.433389424104243	2	2	4	NaN	1	3	0.0542498672943188	1	1	NaN	159	3	33	2	121	221	321	NaN	521	0.34723034221679	1	1	NaN	2423264.9313696	NaN	2423265.9147959	2423266.43133456
61	20	1	0	90	36.1581920903955	36.241610738255	24	0.80010355219245	2	11	2	NaN	2	3	0.0542498672943188	1	1	NaN	160	3	34	2	121	221	321	NaN	521	0.240990683902055	2	1	NaN	2423267.581554	NaN	2423268.5650315	2423269.08159292
61	20	1	0	90	36.1581920903955	36.241610738255	10	0.333376480080187	2	6	5	NaN	1	4	0.0542498672943188	1	1	NaN	161	3	35	2	121	221	321	NaN	521	0.450858945492655	2	0	NaN	2423270.1318955	NaN	2423271.1152899	2423271.63184125
61	20	1	0	90	36.1581920903955	36.241610738255	9	0.300038832072169	2	3	4	NaN	1	4	0.0542498672943188	1	1	NaN	162	3	36	2	121	221	321	NaN	521	0.499903980642557	1	1	NaN	2423272.898818	NaN	2423273.8822153	2423274.39877852
61	20	1	0	90	36.1581920903955	36.241610738255	15	0.500064720120281	2	5	4	NaN	1	5	0.0542498672943188	1	1	NaN	163	3	37	2	121	221	321	NaN	521	1.97885423200205	1	1	NaN	2423275.715756	NaN	2423276.6991666	2423277.21571777
61	20	1	0	90	36.1581920903955	36.241610738255	15	0.500064720120281	2	4	3	NaN	1	3	0.0542498672943188	1	1	NaN	164	3	38	2	121	221	321	NaN	521	0.334702426102012	1	1	NaN	2423279.9995211	NaN	2423280.9829198	2423281.49946957
61	20	1	0	90	36.1581920903955	36.241610738255	16	0.5334023681283	2	3	3	NaN	1	3	0.0542498672943188	1	1	NaN	165	3	39	2	121	221	321	NaN	521	1.26905378047377	1	1	NaN	2423282.649774	NaN	2423283.6331863	2423284.14974282
61	20	1	0	90	36.1581920903955	36.241610738255	17	0.566740016136318	2	3	3	NaN	1	4	0.0542498672943188	1	1	NaN	166	3	40	2	121	221	321	NaN	521	0.329786732327193	1	1	NaN	2423286.5168019	NaN	2423287.5002197	2423288.01678427
61	20	1	0	90	36.1581920903955	36.241610738255	21	0.700090608168393	2	1	1	NaN	1	3	0.0542498672943188	1	1	NaN	167	3	41	2	121	221	321	NaN	521	0.767813880462199	1	1	NaN	2423289.1670993	NaN	2423290.1504786	2423290.66702942
61	20	1	0	90	36.1581920903955	36.241610738255	16	0.5334023681283	2	9	1	NaN	2	3	0.0542498672943188	1	1	NaN	168	3	42	2	121	221	321	NaN	521	0.483658532612026	2	1	NaN	2423292.250598	NaN	2423293.2341115	2423293.75066967
61	20	1	0	90	36.1581920903955	36.241610738255	24	0.80010355219245	2	7	5	NaN	2	4	0.0542498672943188	1	1	NaN	169	3	43	2	121	221	321	NaN	521	0.619508580770344	2	1	NaN	2423295.0511386	NaN	2423296.0344035	2423296.55095042
61	20	1	0	90	36.1581920903955	36.241610738255	7	0.233363536056131	2	7	6	NaN	2	3	0.0542498672943188	1	1	NaN	170	3	44	2	121	221	321	NaN	521	0.197970381006598	2	1	NaN	2423297.9846236	NaN	2423298.9680145	2423299.48457412
61	20	1	0	90	36.1581920903955	36.241610738255	6	0.200025888048112	2	11	1	NaN	2	3	0.0542498672943188	1	1	NaN	171	3	45	2	121	221	321	NaN	521	0.177337732166052	2	1	NaN	2423300.5015553	NaN	2423301.4849746	2423302.00148527
61	20	1	0	90	36.1581920903955	36.241610738255	9	0.300038832072169	2	1	3	NaN	1	5	0.0542498672943188	1	1	NaN	172	3	46	2	121	221	321	NaN	521	0.245151480659842	1	1	NaN	2423303.0017428	NaN	2423303.9851743	2423304.50173052
61	20	1	0	90	36.1581920903955	36.241610738255	18	0.600077664144337	2	6	1	NaN	1	5	0.0542498672943188	1	1	NaN	173	3	47	2	121	221	321	NaN	521	0.25484738079831	1	1	NaN	2423305.5520605	NaN	2423306.5354515	2423307.05198222
61	20	1	0	90	36.1581920903955	36.241610738255	22	0.733428256176412	2	11	1	NaN	2	5	0.0542498672943188	1	1	NaN	174	3	48	2	121	221	321	NaN	521	0.151821180712432	1	0	NaN	2423308.1189161	NaN	2423309.1022475	2423309.61890032
61	20	1	0	90	36.1581920903955	36.241610738255	10	0.333376480080187	2	11	2	NaN	2	5	0.0542498672943188	1	1	NaN	175	3	49	2	121	221	321	NaN	521	0.388994680251926	2	1	NaN	2423310.5858694	NaN	2423311.5692564	2423312.08581112
61	20	1	0	90	36.1581920903955	36.241610738255	8	0.26670118406415	2	4	5	NaN	1	3	0.0542498672943188	1	1	NaN	176	3	50	2	121	221	321	NaN	521	0.496514780446887	2	0	NaN	2423313.2861226	NaN	2423314.2695211	2423314.78607482
61	20	1	0	90	36.1581920903955	36.241610738255	7	0.233363536056131	2	7	5	NaN	2	3	0.0542498672943188	1	1	NaN	177	3	51	2	121	221	321	NaN	521	0.263811480719596	2	1	NaN	2423316.1030753	NaN	2423317.0864617	2423317.60302142
61	20	1	0	90	36.1581920903955	36.241610738255	25	0.833441200200468	2	11	4	NaN	2	5	0.0542498672943188	1	1	NaN	178	3	52	2	121	221	321	NaN	521	0.511984332464635	1	0	NaN	2423318.6865048	NaN	2423319.6700489	2423320.18660077
61	20	1	0	90	36.1581920903955	36.241610738255	21	0.700090608168393	2	10	6	NaN	2	3	0.0542498672943188	1	1	NaN	179	3	53	2	121	221	321	NaN	521	0.479305929038674	2	1	NaN	2423321.5034987	NaN	2423322.4869906	2423323.00353967
61	20	1	0	90	36.1581920903955	36.241610738255	11	0.366714128088206	2	9	3	NaN	2	3	0.0542498672943188	1	1	NaN	180	3	54	2	121	221	321	NaN	521	0.222806381061673	2	1	NaN	2423324.303867	NaN	2423325.2873113	2423325.80382242
61	20	1	0	90	36.1581920903955	36.241610738255	15	0.500064720120281	2	6	4	NaN	1	4	0.0542498672943188	1	1	NaN	181	3	55	2	121	221	321	NaN	521	0.0331500810571015	2	0	NaN	2423326.8374495	NaN	2423327.8208805	2423328.33739402
61	20	1	0	90	36.1581920903955	36.241610738255	18	0.600077664144337	2	7	5	NaN	2	3	0.0542498672943188	1	1	NaN	182	3	56	2	121	221	321	NaN	521	0.186934883706272	1	0	NaN	2423329.1876928	NaN	2423330.1710804	2423330.68764012
61	20	1	0	90	36.1581920903955	36.241610738255	11	0.366714128088206	2	9	2	NaN	2	3	0.0542498672943188	1	1	NaN	183	3	57	2	121	221	321	NaN	521	1.6390652358532	2	1	NaN	2423331.6879289	NaN	2423332.6713612	2423333.18787916
61	20	1	0	90	36.1581920903955	36.241610738255	11	0.366714128088206	2	8	3	NaN	2	5	0.0542498672943188	1	1	NaN	184	3	58	2	121	221	321	NaN	521	0.592259780503809	2	1	NaN	2423335.6383052	NaN	2423336.6217257	2423337.13826982
61	20	1	0	90	36.1581920903955	36.241610738255	0	0	1	4	3	NaN	1	3	0.0542498672943188	1	1	NaN	185	3	59	2	111	211	311	NaN	511	0.0104083805344999	1	1	NaN	2423338.5386021	NaN	2423339.5220064	2423340.03854732
61	20	1	0	90	36.1581920903955	36.241610738255	19	0.633415312152356	2	11	1	NaN	2	5	0.0542498672943188	1	1	NaN	186	3	60	2	121	221	321	NaN	521	0.390406181104481	2	1	NaN	2423340.8721534	NaN	2423341.8555628	2423342.37211372
61	20	1	0	90	36.1581920903955	36.241610738255	8	0.26670118406415	2	2	6	NaN	1	4	0.0542498672943188	1	1	NaN	187	3	61	2	121	221	321	NaN	521	0.0256740325130522	2	0	NaN	2423343.5891392	NaN	2423344.5725204	2423345.08904797
61	20	1	0	90	36.1581920903955	36.241610738255	25	0.833441200200468	2	5	6	NaN	1	3	0.0542498672943188	1	1	NaN	188	3	62	2	121	221	321	NaN	521	0.364218880888075	2	0	NaN	2423345.9225357	NaN	2423346.9060583	2423347.42260232
61	20	1	0	90	36.1581920903955	36.241610738255	7	0.233363536056131	2	8	1	NaN	2	3	0.0542498672943188	1	1	NaN	189	3	63	2	121	221	321	NaN	521	1.59243033267558	2	1	NaN	2423348.6061293	NaN	2423349.589741	2423350.10621047
61	20	1	0	90	36.1581920903955	36.241610738255	16	0.5334023681283	2	7	3	NaN	2	4	0.0542498672943188	1	1	NaN	190	4	1	2	121	221	321	NaN	521	0.110394780989736	2	1	NaN	2423356.0403299	NaN	2423357.0237391	2423357.54026832
61	20	1	0	90	36.1581920903955	36.241610738255	18	0.600077664144337	2	9	1	NaN	2	5	0.0542498672943188	1	1	NaN	191	4	2	2	121	221	321	NaN	521	0.333694732282311	1	0	NaN	2423358.8572083	NaN	2423359.8406623	2423360.35721147
61	20	1	0	90	36.1581920903955	36.241610738255	12	0.400051776096225	2	7	2	NaN	2	4	0.0542498672943188	1	1	NaN	192	4	3	2	121	221	321	NaN	521	0.211333180777729	2	1	NaN	2423361.5075387	NaN	2423362.490919	2423363.00746652
61	20	1	0	90	36.1581920903955	36.241610738255	14	0.466727072112262	2	1	2	NaN	1	5	0.0542498672943188	1	1	NaN	193	4	4	2	121	221	321	NaN	521	0.301655329298228	1	1	NaN	2423364.0411133	NaN	2423365.0245058	2423365.54105237
61	20	1	0	90	36.1581920903955	36.241610738255	23	0.766765904184431	2	5	4	NaN	1	4	0.0542498672943188	1	1	NaN	194	4	5	2	121	221	321	NaN	521	0.270259280689061	1	1	NaN	2423367.0247477	NaN	2423368.0081308	2423368.52468302
61	20	1	0	90	36.1581920903955	36.241610738255	21	0.700090608168393	2	5	5	NaN	1	5	0.0542498672943188	1	1	NaN	195	4	6	2	121	221	321	NaN	521	0.294315980747342	1	1	NaN	2423369.6083257	NaN	2423370.5916901	2423371.10826952
61	20	1	0	90	36.1581920903955	36.241610738255	10	0.333376480080187	2	8	5	NaN	2	5	0.0542498672943188	1	1	NaN	196	4	7	2	121	221	321	NaN	521	0.269959981087595	1	0	NaN	2423372.2084579	NaN	2423373.1919722	2423373.70852572
61	20	1	0	90	36.1581920903955	36.241610738255	8	0.26670118406415	2	7	2	NaN	2	5	0.0542498672943188	1	1	NaN	197	4	8	2	121	221	321	NaN	521	0.190513680689037	2	1	NaN	2423374.7921232	NaN	2423375.775546	2423376.29211342
61	20	1	0	90	36.1581920903955	36.241610738255	19	0.633415312152356	2	3	5	NaN	1	5	0.0542498672943188	1	1	NaN	198	4	9	2	121	221	321	NaN	521	0.394657232332975	1	1	NaN	2423377.2924208	NaN	2423378.275815	2423378.79235727
61	20	1	0	90	36.1581920903955	36.241610738255	15	0.500064720120281	2	10	2	NaN	2	4	0.0542498672943188	1	1	NaN	199	4	10	2	121	221	321	NaN	521	0.862437880598009	2	1	NaN	2423379.9926673	NaN	2423380.9760645	2423381.49261122
61	20	1	0	90	36.1581920903955	36.241610738255	0	0	1	10	5	NaN	2	5	0.0542498672943188	1	1	NaN	200	4	11	2	111	211	311	NaN	511	0.366717028897256	2	1	NaN	2423383.1763337	NaN	2423384.1597166	2423384.67625827
61	20	1	0	90	36.1581920903955	36.241610738255	8	0.26670118406415	2	12	3	NaN	2	4	0.0542498672943188	1	1	NaN	201	4	12	2	121	221	321	NaN	521	0.978474880568683	2	1	NaN	2423385.859876	NaN	2423386.8433015	2423387.35986732
61	20	1	0	90	36.1581920903955	36.241610738255	10	0.333376480080187	2	1	5	NaN	1	4	0.0542498672943188	1	1	NaN	202	4	13	2	121	221	321	NaN	521	0.374310080893338	1	1	NaN	2423389.160231	NaN	2423390.143637	2423390.66018832
61	20	1	0	90	36.1581920903955	36.241610738255	9	0.300038832072169	2	6	2	NaN	1	4	0.0542498672943188	1	1	NaN	203	4	14	2	121	221	321	NaN	521	0.418543532025069	1	1	NaN	2423391.8439104	NaN	2423392.827233	2423393.34378647
61	20	1	0	90	36.1581920903955	36.241610738255	19	0.633415312152356	2	12	2	NaN	2	4	0.0542498672943188	1	1	NaN	204	4	15	2	121	221	321	NaN	521	0.0104415779933333	2	1	NaN	2423394.5774551	NaN	2423395.5608426	2423396.07737612
61	20	1	0	90	36.1581920903955	36.241610738255	16	0.5334023681283	2	6	2	NaN	1	3	0.0542498672943188	1	1	NaN	205	4	16	2	121	221	321	NaN	521	0.304287381004542	1	1	NaN	2423396.8942264	NaN	2423397.8777214	2423398.39428192
61	20	1	0	90	36.1581920903955	36.241610738255	15	0.500064720120281	2	7	6	NaN	2	3	0.0542498672943188	1	1	NaN	206	4	17	2	121	221	321	NaN	521	0.0103924325667322	2	1	NaN	2423399.5112621	NaN	2423400.4946566	2423401.01121427
61	20	1	0	90	36.1581920903955	36.241610738255	21	0.700090608168393	2	1	6	NaN	1	3	0.0542498672943188	1	1	NaN	207	4	18	2	121	221	321	NaN	521	0.266654580831528	2	0	NaN	2423401.828146	NaN	2423402.8115447	2423403.32809612
61	20	1	0	90	36.1581920903955	36.241610738255	10	0.333376480080187	2	1	3	NaN	1	4	0.0542498672943188	1	1	NaN	208	4	19	2	121	221	321	NaN	521	0.0102973938919604	1	1	NaN	2423404.4117329	NaN	2423405.3951325	2423405.91168141
61	20	1	0	90	36.1581920903955	36.241610738255	22	0.733428256176412	2	2	4	NaN	1	4	0.0542498672943188	1	1	NaN	209	4	20	2	121	221	321	NaN	521	0.0620588324964046	1	1	NaN	2423406.7286132	NaN	2423407.7120247	2423408.22857787
61	20	1	0	90	36.1581920903955	36.241610738255	14	0.466727072112262	2	10	2	NaN	2	4	0.0542498672943188	1	1	NaN	210	4	21	2	121	221	321	NaN	521	0.0103910327889025	2	1	NaN	2423409.1121841	NaN	2423410.0956005	2423410.61214727
61	20	1	0	90	36.1581920903955	36.241610738255	19	0.633415312152356	2	4	4	NaN	1	5	0.0542498672943188	1	1	NaN	211	4	22	2	121	221	321	NaN	521	0.257967080920935	1	1	NaN	2423411.4290854	NaN	2423412.4124902	2423412.92903582
61	20	1	0	90	36.1581920903955	36.241610738255	11	0.366714128088206	2	7	4	NaN	2	5	0.0542498672943188	1	1	NaN	212	4	23	2	121	221	321	NaN	521	0.0188290807418525	2	1	NaN	2423414.3960429	NaN	2423415.3794646	2423415.89600032
61	20	1	0	90	36.1581920903955	36.241610738255	0	0	1	11	5	NaN	2	5	0.0542498672943188	1	1	NaN	213	4	24	2	111	211	311	NaN	511	0.309259380679578	2	1	NaN	2423416.7295927	NaN	2423417.7130023	2423418.22955882
61	20	1	0	90	36.1581920903955	36.241610738255	12	0.400051776096225	2	5	3	NaN	1	3	0.0542498672943188	1	1	NaN	214	4	25	2	121	221	321	NaN	521	0.340314290486276	1	1	NaN	2423419.346581	NaN	2423420.3299366	2423420.84647851
61	20	1	0	90	36.1581920903955	36.241610738255	23	0.766765904184431	2	3	4	NaN	1	4	0.0542498672943188	1	1	NaN	215	4	26	2	121	221	321	NaN	521	0.378241232130677	1	1	NaN	2423421.996888	NaN	2423422.9801964	2423423.49674877
61	20	1	0	90	36.1581920903955	36.241610738255	20	0.666752960160375	2	12	4	NaN	2	4	0.0542498672943188	1	1	NaN	216	4	27	2	121	221	321	NaN	521	0.438448529224843	2	1	NaN	2423424.6804078	NaN	2423425.6637771	2423426.18033507
61	20	1	0	90	36.1581920903955	36.241610738255	25	0.833441200200468	2	7	4	NaN	2	5	0.0542498672943188	1	1	NaN	217	4	28	2	121	221	321	NaN	521	0.416153280530125	1	0	NaN	2423427.4306644	NaN	2423428.4140595	2423428.93061332
61	20	1	0	90	36.1581920903955	36.241610738255	6	0.200025888048112	2	10	1	NaN	2	5	0.0542498672943188	1	1	NaN	218	4	29	2	121	221	321	NaN	521	0.874492538627237	2	1	NaN	2423430.1641522	NaN	2423431.1476615	2423431.66421106
61	20	1	0	90	36.1581920903955	36.241610738255	10	0.333376480080187	2	9	2	NaN	2	4	0.0542498672943188	1	1	NaN	219	4	30	2	121	221	321	NaN	521	0.343231280334294	2	1	NaN	2423433.4312516	NaN	2423434.4146482	2423434.93120112
61	20	1	0	90	36.1581920903955	36.241610738255	23	0.766765904184431	2	11	6	NaN	2	3	0.0542498672943188	1	1	NaN	220	4	31	2	121	221	321	NaN	521	0.616831232327968	1	0	NaN	2423436.3982038	NaN	2423437.3816046	2423437.89817457
61	20	1	0	90	36.1581920903955	36.241610738255	22	0.733428256176412	2	7	2	NaN	2	3	0.0542498672943188	1	1	NaN	221	4	32	2	121	221	321	NaN	521	0.4438754809089	1	0	NaN	2423439.3150251	NaN	2423440.2985629	2423440.81511182
61	20	1	0	90	36.1581920903955	36.241610738255	23	0.766765904184431	2	9	4	NaN	2	5	0.0542498672943188	1	1	NaN	222	4	33	2	121	221	321	NaN	521	0.509995284024626	2	1	NaN	2423442.2487604	NaN	2423443.2321842	2423443.74873542
61	20	1	0	90	36.1581920903955	36.241610738255	11	0.366714128088206	2	3	3	NaN	1	3	0.0542498672943188	1	1	NaN	223	4	34	2	121	221	321	NaN	521	0.452913180924952	1	1	NaN	2423445.0657182	NaN	2423446.049103	2423446.56567172
61	20	1	0	90	36.1581920903955	36.241610738255	18	0.600077664144337	2	1	2	NaN	1	5	0.0542498672943188	1	1	NaN	224	4	35	2	121	221	321	NaN	521	1.34210092900321	2	0	NaN	2423447.8326753	NaN	2423448.8161312	2423449.33261147
61	20	1	0	90	36.1581920903955	36.241610738255	17	0.566740016136318	2	11	4	NaN	2	5	0.0542498672943188	1	1	NaN	225	4	36	2	121	221	321	NaN	521	0.955062280874699	2	1	NaN	2423451.4995489	NaN	2423452.483088	2423452.99963202
61	20	1	0	90	36.1581920903955	36.241610738255	0	0	1	5	2	NaN	1	3	0.0542498672943188	1	1	NaN	226	4	37	2	111	211	311	NaN	511	0.320348280947655	2	0	NaN	2423454.7666698	NaN	2423455.7500782	2423456.26661932
61	20	1	0	90	36.1581920903955	36.241610738255	15	0.500064720120281	2	5	2	NaN	1	3	0.0542498672943188	1	1	NaN	227	4	38	2	121	221	321	NaN	521	0.326669080648571	1	1	NaN	2423457.4002793	NaN	2423458.3836864	2423458.90022322
61	20	1	0	90	36.1581920903955	36.241610738255	15	0.500064720120281	2	9	3	NaN	2	5	0.0542498672943188	1	1	NaN	228	4	39	2	121	221	321	NaN	521	0.357243080623448	2	1	NaN	2423460.0337421	NaN	2423461.017253	2423461.53380782
61	20	1	0	90	36.1581920903955	36.241610738255	20	0.666752960160375	2	9	3	NaN	2	5	0.0542498672943188	1	1	NaN	229	4	40	2	121	221	321	NaN	521	0.242281680461019	1	0	NaN	2423462.7006276	NaN	2423463.6841869	2423464.20073892
61	20	1	0	90	36.1581920903955	36.241610738255	8	0.26670118406415	2	9	6	NaN	2	3	0.0542498672943188	1	1	NaN	230	4	41	2	121	221	321	NaN	521	0.243940828833729	1	0	NaN	2423465.2510203	NaN	2423466.2344314	2423466.75098427
61	20	1	0	90	36.1581920903955	36.241610738255	15	0.500064720120281	2	4	6	NaN	1	3	0.0542498672943188	1	1	NaN	231	4	42	2	121	221	321	NaN	521	0.0104046803899109	1	1	NaN	2423467.8179624	NaN	2423468.8013542	2423469.31790692
61	20	1	0	90	36.1581920903955	36.241610738255	16	0.5334023681283	2	3	5	NaN	1	4	0.0542498672943188	1	1	NaN	232	4	43	2	121	221	321	NaN	521	0.191424432676286	1	1	NaN	2423470.1514863	NaN	2423471.1349223	2423471.65147447
61	20	1	0	90	36.1581920903955	36.241610738255	21	0.700090608168393	2	11	5	NaN	2	5	0.0542498672943188	1	1	NaN	233	4	44	2	121	221	321	NaN	521	0.243236180860549	2	1	NaN	2423472.6517579	NaN	2423473.6351774	2423474.15171252
61	20	1	0	90	36.1581920903955	36.241610738255	13	0.433389424104243	2	12	5	NaN	2	5	0.0542498672943188	1	1	NaN	234	4	45	2	121	221	321	NaN	521	0.284895880613476	2	1	NaN	2423475.2018794	NaN	2423476.1854196	2423476.70196762
61	20	1	0	90	36.1581920903955	36.241610738255	19	0.633415312152356	2	1	1	NaN	1	4	0.0542498672943188	1	1	NaN	235	4	46	2	121	221	321	NaN	521	1.35684028081596	2	0	NaN	2423477.8022677	NaN	2423478.7856696	2423479.30222212
61	20	1	0	90	36.1581920903955	36.241610738255	25	0.833441200200468	2	3	5	NaN	1	3	0.0542498672943188	1	1	NaN	236	4	47	2	121	221	321	NaN	521	0.697766032535583	2	0	NaN	2423481.4693088	NaN	2423482.4527033	2423482.96924687
61	20	1	0	90	36.1581920903955	36.241610738255	14	0.466727072112262	2	11	6	NaN	2	4	0.0542498672943188	1	1	NaN	237	4	48	2	121	221	321	NaN	521	0.184577480889857	2	1	NaN	2423484.4862633	NaN	2423485.4696596	2423485.98621142
61	20	1	0	90	36.1581920903955	36.241610738255	12	0.400051776096225	2	6	5	NaN	1	4	0.0542498672943188	1	1	NaN	238	4	49	2	121	221	321	NaN	521	0.579593829344958	1	1	NaN	2423487.0031414	NaN	2423487.9865835	2423488.50311767
61	20	1	0	90	36.1581920903955	36.241610738255	25	0.833441200200468	2	9	5	NaN	2	5	0.0542498672943188	1	1	NaN	239	4	50	2	121	221	321	NaN	521	0.0103902844712138	2	1	NaN	2423489.886789	NaN	2423490.8701902	2423491.38674632
61	20	1	0	90	36.1581920903955	36.241610738255	12	0.400051776096225	2	2	4	NaN	1	3	0.0542498672943188	1	1	NaN	240	4	51	2	121	221	321	NaN	521	0.267365632578731	1	1	NaN	2423492.20369	NaN	2423493.1870678	2423493.70363147
61	20	1	0	90	36.1581920903955	36.241610738255	18	0.600077664144337	2	2	3	NaN	1	3	0.0542498672943188	1	1	NaN	241	4	52	2	121	221	321	NaN	521	0.0104104806669056	1	1	NaN	2423494.7872584	NaN	2423495.770672	2423496.28722302
61	20	1	0	90	36.1581920903955	36.241610738255	16	0.5334023681283	2	8	1	NaN	2	5	0.0542498672943188	1	1	NaN	242	4	53	2	121	221	321	NaN	521	0.0104055805131793	2	1	NaN	2423497.1208307	NaN	2423498.1042311	2423498.62079172
61	20	1	0	90	36.1581920903955	36.241610738255	0	0	1	2	4	NaN	1	4	0.0542498672943188	1	1	NaN	243	4	54	2	111	211	311	NaN	511	0.878299480769783	1	1	NaN	2423499.7043989	NaN	2423500.6877113	2423501.20437232
61	20	1	0	90	36.1581920903955	36.241610738255	10	0.333376480080187	2	5	6	NaN	1	4	0.0542498672943188	1	1	NaN	244	4	55	2	121	221	321	NaN	521	0.150862732436508	2	0	NaN	2423502.8881599	NaN	2423503.8714655	2423504.38801257
61	20	1	0	90	36.1581920903955	36.241610738255	15	0.500064720120281	2	8	2	NaN	2	3	0.0542498672943188	1	1	NaN	245	4	56	2	121	221	321	NaN	521	1.01254448061809	2	1	NaN	2423505.3381808	NaN	2423506.3217092	2423506.83826122
61	20	1	0	90	36.1581920903955	36.241610738255	22	0.733428256176412	2	10	4	NaN	2	5	0.0542498672943188	1	1	NaN	246	4	57	2	121	221	321	NaN	521	1.05491668079048	2	1	NaN	2423508.6719787	NaN	2423509.6553689	2423510.17191002
61	20	1	0	90	36.1581920903955	36.241610738255	0	0	1	2	6	NaN	1	5	0.0542498672943188	1	1	NaN	247	4	58	2	111	211	311	NaN	511	0.671784980688244	1	1	NaN	2423512.0389648	NaN	2423513.0223727	2423513.53890552
61	20	1	0	90	36.1581920903955	36.241610738255	15	0.500064720120281	2	9	3	NaN	2	3	0.0542498672943188	1	1	NaN	248	4	59	2	121	221	321	NaN	521	0.204654780682176	2	1	NaN	2423515.1225867	NaN	2423516.1060067	2423516.62254402
61	20	1	0	90	36.1581920903955	36.241610738255	23	0.766765904184431	2	6	6	NaN	1	5	0.0542498672943188	1	1	NaN	249	4	60	2	121	221	321	NaN	521	0.431379580870271	1	1	NaN	2423517.6395172	NaN	2423518.6229171	2423519.13946302
61	20	1	0	90	36.1581920903955	36.241610738255	20	0.666752960160375	2	8	5	NaN	2	4	0.0542498672943188	1	1	NaN	250	4	61	2	121	221	321	NaN	521	1.51313133211806	1	0	NaN	2423520.3896594	NaN	2423521.3731794	2423521.88973477
61	20	1	0	90	36.1581920903955	36.241610738255	6	0.200025888048112	2	3	5	NaN	1	5	0.0542498672943188	1	1	NaN	251	4	62	2	121	221	321	NaN	521	0.280394580680877	1	1	NaN	2423524.2068169	NaN	2423525.1902279	2423525.70677732
61	20	1	0	90	36.1581920903955	36.241610738255	10	0.333376480080187	2	12	6	NaN	2	4	0.0542498672943188	1	1	NaN	252	4	63	2	121	221	321	NaN	521	0.01040108082816	2	1	NaN	2423526.7904214	NaN	2423527.7738127	2423528.29035432
61	20	1	0	90	36.1581920903955	36.241610738255	14	0.466727072112262	2	10	2	NaN	2	4	0.0542498672943188	1	1	NaN	253	5	1	2	121	221	321	NaN	521	2.55368213262409	2	1	NaN	2423538.741561	NaN	2423539.7249882	2423540.24153777
61	20	1	0	90	36.1581920903955	36.241610738255	7	0.233363536056131	2	11	6	NaN	2	5	0.0542498672943188	1	1	NaN	254	5	2	2	121	221	321	NaN	521	0.0102687454782426	2	1	NaN	2423544.0920814	NaN	2423545.0755054	2423545.59205695
61	20	1	0	90	36.1581920903955	36.241610738255	25	0.833441200200468	2	7	6	NaN	2	4	0.0542498672943188	1	1	NaN	255	5	3	2	121	221	321	NaN	521	0.304558832198381	1	0	NaN	2423546.5423242	NaN	2423547.5257663	2423548.04229867
61	20	1	0	90	36.1581920903955	36.241610738255	15	0.500064720120281	2	6	3	NaN	1	3	0.0542498672943188	1	1	NaN	256	5	4	2	121	221	321	NaN	521	0.0104087805375457	1	1	NaN	2423549.1592641	NaN	2423550.1426918	2423550.65922722
61	20	1	0	90	36.1581920903955	36.241610738255	19	0.633415312152356	2	5	3	NaN	1	5	0.0542498672943188	1	1	NaN	257	5	5	2	121	221	321	NaN	521	0.0103172902017832	1	1	NaN	2423551.4762572	NaN	2423552.4595838	2423552.97612281
61	20	1	0	90	36.1581920903955	36.241610738255	15	0.500064720120281	2	10	5	NaN	2	4	0.0542498672943188	1	1	NaN	258	5	6	2	121	221	321	NaN	521	0.0104072806425393	2	1	NaN	2423553.7931043	NaN	2423554.7764567	2423555.29301692
61	20	1	0	90	36.1581920903955	36.241610738255	9	0.300038832072169	2	10	6	NaN	2	3	0.0542498672943188	1	1	NaN	259	5	7	2	121	221	321	NaN	521	1.50533933239058	1	0	NaN	2423556.1099299	NaN	2423557.0933745	2423557.60990507
61	20	1	0	90	36.1581920903955	36.241610738255	8	0.26670118406415	2	1	4	NaN	1	3	0.0542498672943188	1	1	NaN	260	5	8	2	121	221	321	NaN	521	0.0104145808145404	1	1	NaN	2423559.9601985	NaN	2423560.9437225	2423561.46029382
61	20	1	0	90	36.1581920903955	36.241610738255	11	0.366714128088206	2	3	6	NaN	1	4	0.0542498672943188	1	1	NaN	261	5	9	2	121	221	321	NaN	521	0.0103924325667322	1	1	NaN	2423562.6272672	NaN	2423563.6106643	2423564.12720877
61	20	1	0	90	36.1581920903955	36.241610738255	9	0.300038832072169	2	7	4	NaN	2	3	0.0542498672943188	1	1	NaN	262	5	10	2	121	221	321	NaN	521	0.0102861938066781	2	1	NaN	2423564.9441633	NaN	2423565.9275926	2423566.44411541
61	20	1	0	90	36.1581920903955	36.241610738255	24	0.80010355219245	2	6	3	NaN	1	3	0.0542498672943188	1	1	NaN	263	5	11	2	121	221	321	NaN	521	0.0103929839096963	1	1	NaN	2423567.2777255	NaN	2423568.2611216	2423568.77767282
61	20	1	0	90	36.1581920903955	36.241610738255	19	0.633415312152356	2	8	5	NaN	2	4	0.0542498672943188	1	1	NaN	264	5	12	2	121	221	321	NaN	521	1.72416138416156	2	1	NaN	2423569.5946121	NaN	2423570.5780147	2423571.09456782
61	20	1	0	90	36.1581920903955	36.241610738255	12	0.400051776096225	2	9	6	NaN	2	5	0.0542498672943188	1	1	NaN	265	5	13	2	121	221	321	NaN	521	0.0104059805162251	2	1	NaN	2423573.6283389	NaN	2423574.611739	2423575.12829432
61	20	1	0	90	36.1581920903955	36.241610738255	14	0.466727072112262	2	12	1	NaN	2	3	0.0542498672943188	1	1	NaN	266	5	14	2	121	221	321	NaN	521	0.0104178804904222	2	1	NaN	2423575.945137	NaN	2423576.9286407	2423577.44518762
61	20	1	0	90	36.1581920903955	36.241610738255	13	0.433389424104243	2	10	2	NaN	2	3	0.0542498672943188	1	1	NaN	267	5	15	2	121	221	321	NaN	521	0.0104244807735085	2	1	NaN	2423578.395354	NaN	2423579.3788802	2423579.89542792
61	20	1	0	90	36.1581920903955	36.241610738255	22	0.733428256176412	2	12	1	NaN	2	4	0.0542498672943188	1	1	NaN	268	5	16	2	121	221	321	NaN	521	1.22288413252681	2	1	NaN	2423580.7123781	NaN	2423581.6957683	2423582.21232617
61	20	1	0	90	36.1581920903955	36.241610738255	20	0.666752960160375	2	2	1	NaN	1	4	0.0542498672943188	1	1	NaN	269	5	17	2	121	221	321	NaN	521	0.689192584250122	1	1	NaN	2423584.2459986	NaN	2423585.2294476	2423585.74600542
61	20	1	0	90	36.1581920903955	36.241610738255	8	0.26670118406415	2	2	2	NaN	1	3	0.0542498672943188	1	1	NaN	270	5	18	2	121	221	321	NaN	521	0.224950980395079	1	1	NaN	2423587.2463434	NaN	2423588.2297257	2423588.74629702
61	20	1	0	90	36.1581920903955	36.241610738255	12	0.400051776096225	2	1	3	NaN	1	4	0.0542498672943188	1	1	NaN	271	5	19	2	121	221	321	NaN	521	0.307171680498868	1	1	NaN	2423589.7799066	NaN	2423590.763335	2423591.27986922
61	20	1	0	90	36.1581920903955	36.241610738255	25	0.833441200200468	2	10	6	NaN	2	5	0.0542498672943188	1	1	NaN	272	5	20	2	121	221	321	NaN	521	0.282025638967752	2	1	NaN	2423592.3968574	NaN	2423593.3802499	2423593.89679526
61	20	1	0	90	36.1581920903955	36.241610738255	6	0.200025888048112	2	3	2	NaN	1	5	0.0542498672943188	1	1	NaN	273	5	21	2	121	221	321	NaN	521	0.0104106804355979	2	0	NaN	2423594.9970974	NaN	2423595.9805244	2423596.49705282
61	20	1	0	90	36.1581920903955	36.241610738255	14	0.466727072112262	2	4	2	NaN	1	4	0.0542498672943188	1	1	NaN	274	5	22	2	121	221	321	NaN	521	0.724826680496335	1	1	NaN	2423597.3140682	NaN	2423598.2973795	2423598.81394292
61	20	1	0	90	36.1581920903955	36.241610738255	15	0.500064720120281	2	3	2	NaN	1	4	0.0542498672943188	1	1	NaN	275	5	23	2	121	221	321	NaN	521	0.212771981023252	2	0	NaN	2423600.7142142	NaN	2423601.6977245	2423602.21428092
61	20	1	0	90	36.1581920903955	36.241610738255	6	0.200025888048112	2	10	1	NaN	2	4	0.0542498672943188	1	1	NaN	276	5	24	2	121	221	321	NaN	521	0.463799880817533	1	0	NaN	2423603.2312445	NaN	2423604.2146503	2423604.73119602
61	20	1	0	90	36.1581920903955	36.241610738255	17	0.566740016136318	2	2	6	NaN	1	4	0.0542498672943188	1	1	NaN	277	5	25	2	121	221	321	NaN	521	0.280912980437279	1	1	NaN	2423605.9980678	NaN	2423606.9815799	2423607.49812742
61	20	1	0	90	36.1581920903955	36.241610738255	16	0.5334023681283	2	7	6	NaN	2	3	0.0542498672943188	1	1	NaN	278	5	26	2	121	221	321	NaN	521	0.504561332520097	2	1	NaN	2423608.5984432	NaN	2423609.5818468	2423610.09839337
61	20	1	0	90	36.1581920903955	36.241610738255	23	0.766765904184431	2	4	6	NaN	1	5	0.0542498672943188	1	1	NaN	279	5	27	2	121	221	321	NaN	521	0.359572432003915	1	1	NaN	2423611.4153935	NaN	2423612.3987813	2423612.91533727
61	20	1	0	90	36.1581920903955	36.241610738255	24	0.80010355219245	2	5	1	NaN	1	4	0.0542498672943188	1	1	NaN	280	5	28	2	121	221	321	NaN	521	0.88472668081522	1	1	NaN	2423614.0823094	NaN	2423615.0657103	2423615.58226342
61	20	1	0	90	36.1581920903955	36.241610738255	7	0.233363536056131	2	6	3	NaN	1	4	0.0542498672943188	1	1	NaN	281	5	29	2	121	221	321	NaN	521	0.796638484112918	1	1	NaN	2423617.2826211	NaN	2423618.2660092	2423618.78258042
61	20	1	0	90	36.1581920903955	36.241610738255	9	0.300038832072169	2	11	1	NaN	2	3	0.0542498672943188	1	1	NaN	282	5	30	2	121	221	321	NaN	521	0.311758580617607	1	0	NaN	2423620.3995864	NaN	2423621.3829926	2423621.89955012
61	20	1	0	90	36.1581920903955	36.241610738255	21	0.700090608168393	2	12	5	NaN	2	5	0.0542498672943188	1	1	NaN	283	5	31	2	121	221	321	NaN	521	0.421488832682371	2	1	NaN	2423623.0498962	NaN	2423624.0332691	2423624.54980267
61	20	1	0	90	36.1581920903955	36.241610738255	0	0	1	1	3	NaN	1	5	0.0542498672943188	1	1	NaN	284	5	32	2	111	211	311	NaN	511	0.463489186950028	1	1	NaN	2423625.7834533	NaN	2423626.7668657	2423627.28341641
61	20	1	0	90	36.1581920903955	36.241610738255	8	0.26670118406415	2	12	3	NaN	2	4	0.0542498672943188	1	1	NaN	285	5	33	2	121	221	321	NaN	521	0.423990132752806	2	1	NaN	2423628.567073	NaN	2423629.5505013	2423630.06701967
61	20	1	0	90	36.1581920903955	36.241610738255	14	0.466727072112262	2	9	2	NaN	2	5	0.0542498672943188	1	1	NaN	286	5	34	2	121	221	321	NaN	521	0.938744986895472	2	1	NaN	2423631.3006742	NaN	2423632.2840681	2423632.80061781
61	20	1	0	90	36.1581920903955	36.241610738255	21	0.700090608168393	2	7	5	NaN	2	3	0.0542498672943188	1	1	NaN	287	5	35	2	121	221	321	NaN	521	0.408347332384437	1	0	NaN	2423634.550985	NaN	2423635.5343672	2423636.05094327
61	20	1	0	90	36.1581920903955	36.241610738255	19	0.633415312152356	2	9	1	NaN	2	4	0.0542498672943188	1	1	NaN	288	5	36	2	121	221	321	NaN	521	0.578154580667615	2	1	NaN	2423637.3012595	NaN	2423638.2846598	2423638.80120832
61	20	1	0	90	36.1581920903955	36.241610738255	13	0.433389424104243	2	4	6	NaN	1	4	0.0542498672943188	1	1	NaN	289	5	37	2	121	221	321	NaN	521	0.142188881058246	1	1	NaN	2423640.1848689	NaN	2423641.1682914	2423641.68481962
61	20	1	0	90	36.1581920903955	36.241610738255	18	0.600077664144337	2	8	6	NaN	2	4	0.0542498672943188	1	1	NaN	290	5	38	2	121	221	321	NaN	521	0.308337080758065	2	1	NaN	2423642.6351029	NaN	2423643.6184927	2423644.13505842
61	20	1	0	90	36.1581920903955	36.241610738255	25	0.833441200200468	2	12	2	NaN	2	4	0.0542498672943188	1	1	NaN	291	5	39	2	121	221	321	NaN	521	0.339419880881906	2	1	NaN	2423645.2520446	NaN	2423646.2354371	2423646.75198032
61	20	1	0	90	36.1581920903955	36.241610738255	8	0.26670118406415	2	10	2	NaN	2	5	0.0542498672943188	1	1	NaN	292	5	40	2	121	221	321	NaN	521	0.488713128957897	2	1	NaN	2423647.9022655	NaN	2423648.8857234	2423649.40224077
61	20	1	0	90	36.1581920903955	36.241610738255	21	0.700090608168393	2	7	6	NaN	2	5	0.0542498672943188	1	1	NaN	293	5	41	2	121	221	321	NaN	521	0.705161932390183	2	1	NaN	2423650.8858981	NaN	2423651.869326	2423652.38587937
61	20	1	0	90	36.1581920903955	36.241610738255	20	0.666752960160375	2	12	4	NaN	2	5	0.0542498672943188	1	1	NaN	294	5	42	2	121	221	321	NaN	521	0.416529080364853	2	1	NaN	2423653.9029172	NaN	2423654.8862872	2423655.40282832
61	20	1	0	90	36.1581920903955	36.241610738255	16	0.5334023681283	2	11	5	NaN	2	5	0.0542498672943188	1	1	NaN	295	5	43	2	121	221	321	NaN	521	0.378914300352335	2	1	NaN	2423656.6364998	NaN	2423657.6198897	2423658.1364569
61	20	1	0	90	36.1581920903955	36.241610738255	21	0.700090608168393	2	8	4	NaN	2	4	0.0542498672943188	1	1	NaN	296	5	44	2	121	221	321	NaN	521	0.279446080792695	2	1	NaN	2423659.3199767	NaN	2423660.3035002	2423660.82003342
61	20	1	0	90	36.1581920903955	36.241610738255	21	0.700090608168393	2	9	1	NaN	2	5	0.0542498672943188	1	1	NaN	297	5	45	2	121	221	321	NaN	521	0.327428632415831	2	1	NaN	2423661.903524	NaN	2423662.8870841	2423663.40362467
61	20	1	0	90	36.1581920903955	36.241610738255	12	0.400051776096225	2	6	5	NaN	1	3	0.0542498672943188	1	1	NaN	298	5	46	2	121	221	321	NaN	521	0.86961088096723	2	0	NaN	2423664.5372623	NaN	2423665.520561	2423666.03721342
61	20	1	0	90	36.1581920903955	36.241610738255	15	0.500064720120281	2	8	3	NaN	2	4	0.0542498672943188	1	1	NaN	299	5	47	2	121	221	321	NaN	521	0.010421980638057	2	1	NaN	2423667.7209203	NaN	2423668.7043152	2423669.22085622
61	20	1	0	90	36.1581920903955	36.241610738255	17	0.566740016136318	2	4	3	NaN	1	3	0.0542498672943188	1	1	NaN	300	5	48	2	121	221	321	NaN	521	1.1092851809226	1	1	NaN	2423671.3379104	NaN	2423672.3213261	2423672.83788042
61	20	1	0	90	36.1581920903955	36.241610738255	9	0.300038832072169	2	4	6	NaN	1	3	0.0542498672943188	1	1	NaN	301	5	49	2	121	221	321	NaN	521	0.468541580718011	1	1	NaN	2423677.9387083	NaN	2423678.9219699	2423679.43853392
61	20	1	0	90	36.1581920903955	36.241610738255	12	0.400051776096225	2	8	1	NaN	2	3	0.0542498672943188	1	1	NaN	302	5	50	2	121	221	321	NaN	521	0.0529415803030133	2	1	NaN	2423680.7220444	NaN	2423681.7055881	2423682.22213782
61	20	1	0	90	36.1581920903955	36.241610738255	18	0.600077664144337	2	4	5	NaN	1	4	0.0542498672943188	1	1	NaN	303	5	51	2	121	221	321	NaN	521	0.526133980602026	2	0	NaN	2423683.0891096	NaN	2423684.0725303	2423684.58902882
61	20	1	0	90	36.1581920903955	36.241610738255	17	0.566740016136318	2	12	2	NaN	2	3	0.0542498672943188	1	1	NaN	304	5	52	2	121	221	321	NaN	521	0.820803929120302	2	1	NaN	2423685.9226067	NaN	2423686.9060898	2423687.42263827
61	20	1	0	90	36.1581920903955	36.241610738255	14	0.466727072112262	2	2	4	NaN	1	4	0.0542498672943188	1	1	NaN	305	5	53	2	121	221	321	NaN	521	0.454762380570173	1	1	NaN	2423689.0563627	NaN	2423690.0397424	2423690.55629272
61	20	1	0	90	36.1581920903955	36.241610738255	16	0.5334023681283	2	1	3	NaN	1	3	0.0542498672943188	1	1	NaN	306	5	54	2	121	221	321	NaN	521	0.760082180611789	1	1	NaN	2423691.8232762	NaN	2423692.8066612	2423693.32322742
61	20	1	0	90	36.1581920903955	36.241610738255	8	0.26670118406415	2	5	4	NaN	1	3	0.0542498672943188	1	1	NaN	307	5	55	2	121	221	321	NaN	521	0.501241532620043	1	1	NaN	2423694.8902671	NaN	2423695.8736472	2423696.39019537
61	20	1	0	90	36.1581920903955	36.241610738255	23	0.766765904184431	2	12	3	NaN	2	5	0.0542498672943188	1	1	NaN	308	5	56	2	121	221	321	NaN	521	0.704411980696023	2	1	NaN	2423699.5906081	NaN	2423700.5740075	2423701.09065842
61	20	1	0	90	36.1581920903955	36.241610738255	9	0.300038832072169	2	5	4	NaN	1	4	0.0542498672943188	1	1	NaN	309	5	57	2	121	221	321	NaN	521	0.892144335899502	1	1	NaN	2423702.6910362	NaN	2423703.6744228	2423704.19095426
61	20	1	0	90	36.1581920903955	36.241610738255	13	0.433389424104243	2	12	1	NaN	2	5	0.0542498672943188	1	1	NaN	310	5	58	2	121	221	321	NaN	521	0.332498229108751	2	1	NaN	2423705.8912121	NaN	2423706.8746939	2423707.39126507
61	20	1	0	90	36.1581920903955	36.241610738255	14	0.466727072112262	2	7	4	NaN	2	5	0.0542498672943188	1	1	NaN	311	5	59	2	121	221	321	NaN	521	1.03361783223227	2	1	NaN	2423708.5415937	NaN	2423709.5249889	2423710.04153897
61	20	1	0	90	36.1581920903955	36.241610738255	18	0.600077664144337	2	3	6	NaN	1	5	0.0542498672943188	1	1	NaN	312	5	60	2	121	221	321	NaN	521	0.98706873273477	1	1	NaN	2423711.8919128	NaN	2423712.8753179	2423713.39185937
61	20	1	0	90	36.1581920903955	36.241610738255	0	0	1	6	4	NaN	1	3	0.0542498672943188	1	1	NaN	313	5	61	2	111	211	311	NaN	511	0.311314380727708	2	0	NaN	2423715.1922558	NaN	2423716.1756389	2423716.69218022
61	20	1	0	90	36.1581920903955	36.241610738255	23	0.766765904184431	2	7	6	NaN	2	4	0.0542498672943188	1	1	NaN	314	5	62	2	121	221	321	NaN	521	0.421944529283792	1	0	NaN	2423717.80916	NaN	2423718.7925583	2423719.30911037
61	20	1	0	90	36.1581920903955	36.241610738255	6	0.200025888048112	2	6	5	NaN	1	5	0.0542498672943188	1	1	NaN	315	5	63	2	121	221	321	NaN	521	1.44835008075461	2	0	NaN	2423720.5427654	NaN	2423721.5261596	2423722.04271042
61	20	1	0	90	36.1581920903955	36.241610738255	14	0.466727072112262	2	4	4	NaN	1	3	0.0542498672943188	1	1	NaN	316	6	1	2	121	221	321	NaN	521	0.0104072806425393	2	0	NaN	2423727.3434026	NaN	2423728.3268311	2423728.84337502
61	20	1	0	90	36.1581920903955	36.241610738255	17	0.566740016136318	2	1	4	NaN	1	3	0.0542498672943188	1	1	NaN	317	6	2	2	121	221	321	NaN	521	0.234712486620992	1	1	NaN	2423729.6604224	NaN	2423730.6437466	2423731.16027741
61	20	1	0	90	36.1581920903955	36.241610738255	15	0.500064720120281	2	2	5	NaN	1	3	0.0542498672943188	1	1	NaN	318	6	3	2	121	221	321	NaN	521	0.620970232412219	2	0	NaN	2423732.2104936	NaN	2423733.1939753	2423733.71052297
61	20	1	0	90	36.1581920903955	36.241610738255	12	0.400051776096225	2	3	1	NaN	1	3	0.0542498672943188	1	1	NaN	319	6	4	2	121	221	321	NaN	521	0.591004080604762	1	1	NaN	2423735.1441932	NaN	2423736.1275955	2423736.64414472
61	20	1	0	90	36.1581920903955	36.241610738255	17	0.566740016136318	2	1	4	NaN	1	3	0.0542498672943188	1	1	NaN	320	6	5	2	121	221	321	NaN	521	0.291018432471901	1	1	NaN	2423738.044559	NaN	2423739.0278838	2423739.54443227
61	20	1	0	90	36.1581920903955	36.241610738255	13	0.433389424104243	2	8	4	NaN	2	4	0.0542498672943188	1	1	NaN	321	6	6	2	121	221	321	NaN	521	0.370624732226133	2	1	NaN	2423740.6447378	NaN	2423741.6281294	2423742.14468597
61	20	1	0	90	36.1581920903955	36.241610738255	21	0.700090608168393	2	2	2	NaN	1	3	0.0542498672943188	1	1	NaN	322	6	7	2	121	221	321	NaN	521	0.230819132179022	1	1	NaN	2423743.3283445	NaN	2423744.3117342	2423744.82828337
61	20	1	0	90	36.1581920903955	36.241610738255	24	0.80010355219245	2	3	6	NaN	1	3	0.0542498672943188	1	1	NaN	323	6	8	2	121	221	321	NaN	521	0.436691677663475	2	0	NaN	2423746.1784827	NaN	2423747.162009	2423747.67855262
61	20	1	0	90	36.1581920903955	36.241610738255	24	0.80010355219245	2	10	3	NaN	2	3	0.0542498672943188	1	1	NaN	324	6	9	2	121	221	321	NaN	521	0.294300480745733	2	1	NaN	2423748.9288912	NaN	2423749.9122801	2423750.42883402
61	20	1	0	90	36.1581920903955	36.241610738255	7	0.233363536056131	2	5	3	NaN	1	3	0.0542498672943188	1	1	NaN	325	6	10	2	121	221	321	NaN	521	0.478412890341133	1	1	NaN	2423751.5291321	NaN	2423752.5125372	2423753.02908901
61	20	1	0	90	36.1581920903955	36.241610738255	13	0.433389424104243	2	3	2	NaN	1	4	0.0542498672943188	1	1	NaN	326	6	11	2	121	221	321	NaN	521	0.422695932444185	1	1	NaN	2423754.3126119	NaN	2423755.2961417	2423755.81268497
61	20	1	0	90	36.1581920903955	36.241610738255	22	0.733428256176412	2	4	2	NaN	1	3	0.0542498672943188	1	1	NaN	327	6	12	2	121	221	321	NaN	521	0.377073429059237	1	1	NaN	2423757.0463429	NaN	2423758.0296474	2423758.54630307
61	20	1	0	90	36.1581920903955	36.241610738255	20	0.666752960160375	2	4	4	NaN	1	5	0.0542498672943188	1	1	NaN	328	6	13	2	121	221	321	NaN	521	0.173325680661947	2	0	NaN	2423759.7299481	NaN	2423760.7133374	2423761.22988822
61	20	1	0	90	36.1581920903955	36.241610738255	8	0.26670118406415	2	1	3	NaN	1	5	0.0542498672943188	1	1	NaN	329	6	14	2	121	221	321	NaN	521	1.34492092905566	1	1	NaN	2423762.2301041	NaN	2423763.2136826	2423763.73012907
61	20	1	0	90	36.1581920903955	36.241610738255	20	0.666752960160375	2	6	1	NaN	1	5	0.0542498672943188	1	1	NaN	330	6	15	2	121	221	321	NaN	521	0.430308132432401	1	1	NaN	2423765.8972323	NaN	2423766.880635	2423767.39715947
61	20	1	0	90	36.1581920903955	36.241610738255	8	0.26670118406415	2	10	4	NaN	2	3	0.0542498672943188	1	1	NaN	331	6	16	2	121	221	321	NaN	521	0.29634022898972	2	1	NaN	2423768.6307324	NaN	2423769.6142555	2423770.13077147
61	20	1	0	90	36.1581920903955	36.241610738255	24	0.80010355219245	2	6	3	NaN	1	4	0.0542498672943188	1	1	NaN	332	6	17	2	121	221	321	NaN	521	0.472132532391697	1	1	NaN	2423771.231069	NaN	2423772.2144628	2423772.73102397
61	20	1	0	90	36.1581920903955	36.241610738255	25	0.833441200200468	2	8	1	NaN	2	5	0.0542498672943188	1	1	NaN	333	6	18	2	121	221	321	NaN	521	0.35256468039006	1	0	NaN	2423774.0147883	NaN	2423774.9980715	2423775.51462742
61	20	1	0	90	36.1581920903955	36.241610738255	25	0.833441200200468	2	9	2	NaN	2	4	0.0542498672943188	1	1	NaN	334	6	19	2	121	221	321	NaN	521	0.437555080745369	1	0	NaN	2423776.6816014	NaN	2423777.6650036	2423778.18154662
61	20	1	0	90	36.1581920903955	36.241610738255	23	0.766765904184431	2	11	3	NaN	2	4	0.0542498672943188	1	1	NaN	335	6	20	2	121	221	321	NaN	521	0.471561380662024	2	1	NaN	2423779.4318907	NaN	2423780.4153308	2423780.93182282
61	20	1	0	90	36.1581920903955	36.241610738255	15	0.500064720120281	2	1	2	NaN	1	3	0.0542498672943188	1	1	NaN	336	6	21	2	121	221	321	NaN	521	0.600027280859649	2	0	NaN	2423782.2155031	NaN	2423783.1988878	2423783.71542392
61	20	1	0	90	36.1581920903955	36.241610738255	20	0.666752960160375	2	10	4	NaN	2	3	0.0542498672943188	1	1	NaN	337	6	22	2	121	221	321	NaN	521	0.40344978030771	2	1	NaN	2423785.1157354	NaN	2423786.0991648	2423786.61570992
61	20	1	0	90	36.1581920903955	36.241610738255	22	0.733428256176412	2	3	3	NaN	1	3	0.0542498672943188	1	1	NaN	338	6	23	2	121	221	321	NaN	521	0.502630580682307	1	1	NaN	2423787.8326959	NaN	2423788.8160968	2423789.33264652
61	20	1	0	90	36.1581920903955	36.241610738255	17	0.566740016136318	2	9	5	NaN	2	4	0.0542498672943188	1	1	NaN	339	6	24	2	121	221	321	NaN	521	0.341634738724679	1	0	NaN	2423790.649645	NaN	2423791.6330128	2423792.14959846
61	20	1	0	90	36.1581920903955	36.241610738255	21	0.700090608168393	2	2	2	NaN	1	3	0.0542498672943188	1	1	NaN	340	6	25	2	121	221	321	NaN	521	0.355366132687777	2	0	NaN	2423793.2998785	NaN	2423794.2833108	2423794.79985037
61	20	1	0	90	36.1581920903955	36.241610738255	10	0.333376480080187	2	4	1	NaN	1	5	0.0542498672943188	1	1	NaN	341	6	26	2	121	221	321	NaN	521	1.06371708074585	2	0	NaN	2423795.9833554	NaN	2423796.9668971	2423797.48344852
61	20	1	0	90	36.1581920903955	36.241610738255	12	0.400051776096225	2	4	2	NaN	1	3	0.0542498672943188	1	1	NaN	342	6	27	2	121	221	321	NaN	521	0.377168480306864	2	0	NaN	2423799.350377	NaN	2423800.3339015	2423800.85043862
61	20	1	0	90	36.1581920903955	36.241610738255	11	0.366714128088206	2	2	1	NaN	1	3	0.0542498672943188	1	1	NaN	343	6	28	2	121	221	321	NaN	521	0.789276380557567	1	1	NaN	2423802.0341043	NaN	2423803.0174739	2423803.53404332
61	20	1	0	90	36.1581920903955	36.241610738255	25	0.833441200200468	2	8	2	NaN	2	3	0.0542498672943188	1	1	NaN	344	6	29	2	121	221	321	NaN	521	0.561245180666447	2	1	NaN	2423805.1344038	NaN	2423806.117783	2423806.63434582
61	20	1	0	90	36.1581920903955	36.241610738255	20	0.666752960160375	2	1	6	NaN	1	5	0.0542498672943188	1	1	NaN	345	6	30	2	121	221	321	NaN	521	0.54202768066898	2	0	NaN	2423808.0013415	NaN	2423808.9847943	2423809.50129642
61	20	1	0	90	36.1581920903955	36.241610738255	7	0.233363536056131	2	2	5	NaN	1	3	0.0542498672943188	1	1	NaN	346	6	31	2	121	221	321	NaN	521	0.27926793275401	1	1	NaN	2423810.9681816	NaN	2423811.9517006	2423812.46825487
61	20	1	0	90	36.1581920903955	36.241610738255	11	0.366714128088206	2	4	4	NaN	1	4	0.0542498672943188	1	1	NaN	347	6	32	2	121	221	321	NaN	521	0.366831180639565	1	1	NaN	2423813.5685498	NaN	2423814.5520047	2423815.06850962
61	20	1	0	90	36.1581920903955	36.241610738255	20	0.666752960160375	2	11	6	NaN	2	3	0.0542498672943188	1	1	NaN	348	6	33	2	121	221	321	NaN	521	0.459124132525176	2	1	NaN	2423816.2520374	NaN	2423817.235548	2423817.75210517
61	20	1	0	90	36.1581920903955	36.241610738255	13	0.433389424104243	2	2	4	NaN	1	3	0.0542498672943188	1	1	NaN	349	6	34	2	121	221	321	NaN	521	0.364142280537635	1	1	NaN	2423819.0189716	NaN	2423820.0025335	2423820.51904302
61	20	1	0	90	36.1581920903955	36.241610738255	16	0.5334023681283	2	2	2	NaN	1	5	0.0542498672943188	1	1	NaN	350	6	35	2	121	221	321	NaN	521	0.466313580516726	1	1	NaN	2423821.8692809	NaN	2423822.8527714	2423823.36932222
61	20	1	0	90	36.1581920903955	36.241610738255	24	0.80010355219245	2	7	6	NaN	2	3	0.0542498672943188	1	1	NaN	351	6	36	2	121	221	321	NaN	521	0.570774738676846	1	0	NaN	2423824.6529763	NaN	2423825.6363748	2423826.15292306
61	20	1	0	90	36.1581920903955	36.241610738255	16	0.5334023681283	2	10	4	NaN	2	5	0.0542498672943188	1	1	NaN	352	6	37	2	121	221	321	NaN	521	0.470844780560583	2	1	NaN	2423827.536606	NaN	2423828.5199917	2423829.03654052
61	20	1	0	90	36.1581920903955	36.241610738255	11	0.366714128088206	2	11	3	NaN	2	5	0.0542498672943188	1	1	NaN	353	6	38	2	121	221	321	NaN	521	0.471050032414496	2	1	NaN	2423830.3201993	NaN	2423831.3035796	2423831.82015527
61	20	1	0	90	36.1581920903955	36.241610738255	17	0.566740016136318	2	6	4	NaN	1	3	0.0542498672943188	1	1	NaN	354	6	39	2	121	221	321	NaN	521	0.39907533256337	1	1	NaN	2423833.3204748	NaN	2423834.3038842	2423834.82044847
61	20	1	0	90	36.1581920903955	36.241610738255	0	0	1	8	5	NaN	2	4	0.0542498672943188	1	1	NaN	355	6	40	2	111	211	311	NaN	511	0.473765180446208	2	1	NaN	2423836.0373187	NaN	2423837.0208348	2423837.53738292
61	20	1	0	90	36.1581920903955	36.241610738255	13	0.433389424104243	2	10	5	NaN	2	3	0.0542498672943188	1	1	NaN	356	6	41	2	121	221	321	NaN	521	0.458549580536783	2	1	NaN	2423838.8209082	NaN	2423839.8044372	2423840.32098252
61	20	1	0	90	36.1581920903955	36.241610738255	9	0.300038832072169	2	5	3	NaN	1	5	0.0542498672943188	1	1	NaN	357	6	42	2	121	221	321	NaN	521	0.347302180714905	1	1	NaN	2423841.5879887	NaN	2423842.5713689	2423843.08792322
61	20	1	0	90	36.1581920903955	36.241610738255	6	0.200025888048112	2	2	1	NaN	1	3	0.0542498672943188	1	1	NaN	358	6	43	2	121	221	321	NaN	521	0.488445241935551	2	0	NaN	2423844.2549183	NaN	2423845.2383156	2423845.75485826
61	20	1	0	90	36.1581920903955	36.241610738255	9	0.300038832072169	2	2	3	NaN	1	3	0.0542498672943188	1	1	NaN	359	6	44	2	121	221	321	NaN	521	0.0639566807076335	1	1	NaN	2423847.05518	NaN	2423848.0385777	2423848.55512842
61	20	1	0	90	36.1581920903955	36.241610738255	10	0.333376480080187	2	3	2	NaN	1	3	0.0542498672943188	1	1	NaN	360	6	45	2	121	221	321	NaN	521	0.344626080710441	1	1	NaN	2423849.4387256	NaN	2423850.4221425	2423850.93869952
61	20	1	0	90	36.1581920903955	36.241610738255	18	0.600077664144337	2	1	5	NaN	1	4	0.0542498672943188	1	1	NaN	361	6	46	2	121	221	321	NaN	521	0.534397180657834	1	1	NaN	2423852.0890164	NaN	2423853.0724167	2423853.58895752
61	20	1	0	90	36.1581920903955	36.241610738255	13	0.433389424104243	2	6	2	NaN	1	5	0.0542498672943188	1	1	NaN	362	6	47	2	121	221	321	NaN	521	0.404221429023892	1	1	NaN	2423854.9392739	NaN	2423855.9226891	2423856.43923427
61	20	1	0	90	36.1581920903955	36.241610738255	21	0.700090608168393	2	5	2	NaN	1	3	0.0542498672943188	1	1	NaN	363	6	48	2	121	221	321	NaN	521	0.263323180377483	2	0	NaN	2423857.6562077	NaN	2423858.6396147	2423859.15616722
61	20	1	0	90	36.1581920903955	36.241610738255	25	0.833441200200468	2	1	5	NaN	1	3	0.0542498672943188	1	1	NaN	364	6	49	2	121	221	321	NaN	521	0.591521880589426	1	1	NaN	2423860.2398227	NaN	2423861.2231988	2423861.73975082
61	20	1	0	90	36.1581920903955	36.241610738255	15	0.500064720120281	2	2	3	NaN	1	3	0.0542498672943188	1	1	NaN	365	6	50	2	121	221	321	NaN	521	0.50711688073352	1	1	NaN	2423863.1400917	NaN	2423864.1234983	2423864.64003972
61	20	1	0	90	36.1581920903955	36.241610738255	17	0.566740016136318	2	8	2	NaN	2	5	0.0542498672943188	1	1	NaN	366	6	51	2	121	221	321	NaN	521	0.386654280591756	2	1	NaN	2423865.9570347	NaN	2423866.9404247	2423867.45697472
61	20	1	0	90	36.1581920903955	36.241610738255	22	0.733428256176412	2	12	4	NaN	2	4	0.0542498672943188	1	1	NaN	367	6	52	2	121	221	321	NaN	521	0.278427880723029	2	1	NaN	2423868.657315	NaN	2423869.6406962	2423870.15724882
61	20	1	0	90	36.1581920903955	36.241610738255	20	0.666752960160375	2	6	4	NaN	1	3	0.0542498672943188	1	1	NaN	368	6	53	2	121	221	321	NaN	521	0.150798432528973	1	1	NaN	2423871.2408994	NaN	2423872.224288	2423872.74083887
61	20	1	0	90	36.1581920903955	36.241610738255	17	0.566740016136318	2	4	5	NaN	1	3	0.0542498672943188	1	1	NaN	369	6	54	2	121	221	321	NaN	521	0.259933880995959	1	1	NaN	2423873.7077856	NaN	2423874.691184	2423875.20774332
61	20	1	0	90	36.1581920903955	36.241610738255	19	0.633415312152356	2	2	5	NaN	1	4	0.0542498672943188	1	1	NaN	370	6	55	2	121	221	321	NaN	521	0.404788380488753	1	1	NaN	2423876.2747242	NaN	2423877.2581341	2423877.77465632
61	20	1	0	90	36.1581920903955	36.241610738255	7	0.233363536056131	2	9	5	NaN	2	5	0.0542498672943188	1	1	NaN	371	6	56	2	121	221	321	NaN	521	0.351994577795267	1	0	NaN	2423878.9916598	NaN	2423879.9750277	2423880.49159582
61	20	1	0	90	36.1581920903955	36.241610738255	6	0.200025888048112	2	5	5	NaN	1	5	0.0542498672943188	1	1	NaN	372	6	57	2	121	221	321	NaN	521	0.476747932378203	1	1	NaN	2423881.6585638	NaN	2423882.6419776	2423883.15852817
61	20	1	0	90	36.1581920903955	36.241610738255	18	0.600077664144337	2	3	1	NaN	1	3	0.0542498672943188	1	1	NaN	373	6	58	2	121	221	321	NaN	521	0.41248543234542	1	1	NaN	2423884.4588602	NaN	2423885.4422421	2423885.95879567
61	20	1	0	90	36.1581920903955	36.241610738255	23	0.766765904184431	2	2	5	NaN	1	3	0.0542498672943188	1	1	NaN	374	6	59	2	121	221	321	NaN	521	0.270880580879748	1	1	NaN	2423887.1924536	NaN	2423888.1758527	2423888.69239162
61	20	1	0	90	36.1581920903955	36.241610738255	10	0.333376480080187	2	9	4	NaN	2	5	0.0542498672943188	1	1	NaN	375	6	60	2	121	221	321	NaN	521	0.759710780810565	2	1	NaN	2423889.776038	NaN	2423890.7594242	2423891.27598632
61	20	1	0	90	36.1581920903955	36.241610738255	6	0.200025888048112	2	6	6	NaN	1	5	0.0542498672943188	1	1	NaN	376	6	61	2	121	221	321	NaN	521	0.34854913270101	1	1	NaN	2423892.843007	NaN	2423893.8264073	2423894.34295327
61	20	1	0	90	36.1581920903955	36.241610738255	15	0.500064720120281	2	3	4	NaN	1	5	0.0542498672943188	1	1	NaN	377	6	62	2	121	221	321	NaN	521	1.37800643220544	1	1	NaN	2423895.4932544	NaN	2423896.4766974	2423896.99321387
61	20	1	0	90	36.1581920903955	36.241610738255	12	0.400051776096225	2	5	2	NaN	1	4	0.0542498672943188	1	1	NaN	378	6	63	2	121	221	321	NaN	521	0.134170932229608	1	1	NaN	2423899.1936338	NaN	2423900.1770302	2423900.69357287
61	20	1	0	90	36.1581920903955	36.241610738255	7	0.233363536056131	2	1	6	NaN	1	4	0.0542498672943188	1	1	NaN	379	7	1	2	121	221	321	NaN	521	1.00177568057552	1	1	NaN	2423907.4776464	NaN	2423908.4611732	2423908.97772042
61	20	1	0	90	36.1581920903955	36.241610738255	25	0.833441200200468	2	4	4	NaN	1	4	0.0542498672943188	1	1	NaN	380	7	2	2	121	221	321	NaN	521	0.716578680556267	1	1	NaN	2423910.7946225	NaN	2423911.7781659	2423912.29471782
61	20	1	0	90	36.1581920903955	36.241610738255	0	0	1	9	5	NaN	2	4	0.0542498672943188	1	1	NaN	381	7	3	2	111	211	311	NaN	511	1.13492548372597	2	1	NaN	2423913.9284111	NaN	2423914.9118158	2423915.42835842
61	20	1	0	90	36.1581920903955	36.241610738255	18	0.600077664144337	2	10	2	NaN	2	4	0.0542498672943188	1	1	NaN	382	7	4	2	121	221	321	NaN	521	0.236534380353987	2	1	NaN	2423917.3787317	NaN	2423918.362145	2423918.87869222
61	20	1	0	90	36.1581920903955	36.241610738255	10	0.333376480080187	2	10	6	NaN	2	3	0.0542498672943188	1	1	NaN	383	7	5	2	121	221	321	NaN	521	0.630773280747235	2	1	NaN	2423919.9290166	NaN	2423920.9124021	2423921.42893842
61	20	1	0	90	36.1581920903955	36.241610738255	8	0.26670118406415	2	8	6	NaN	2	4	0.0542498672943188	1	1	NaN	384	7	6	2	121	221	321	NaN	521	0.26422738051042	2	1	NaN	2423922.8793093	NaN	2423923.8626803	2423924.37922992
61	20	1	0	90	36.1581920903955	36.241610738255	13	0.433389424104243	2	9	3	NaN	2	4	0.0542498672943188	1	1	NaN	385	7	7	2	121	221	321	NaN	521	0.569374080747366	1	0	NaN	2423925.4461914	NaN	2423926.4295847	2423926.94615032
61	20	1	0	90	36.1581920903955	36.241610738255	0	0	1	10	6	NaN	2	5	0.0542498672943188	1	1	NaN	386	7	8	2	111	211	311	NaN	511	0.397934481035918	2	1	NaN	2423928.3298164	NaN	2423929.3132207	2423929.82976912
61	20	1	0	90	36.1581920903955	36.241610738255	10	0.333376480080187	2	10	3	NaN	2	5	0.0542498672943188	1	1	NaN	387	7	9	2	121	221	321	NaN	521	0.585001332685351	2	1	NaN	2423931.0467678	NaN	2423932.0301425	2423932.54669427
61	20	1	0	90	36.1581920903955	36.241610738255	6	0.200025888048112	2	7	5	NaN	2	5	0.0542498672943188	1	1	NaN	388	7	10	2	121	221	321	NaN	521	0.604572380892932	2	1	NaN	2423933.9470354	NaN	2423934.9304498	2423935.44697882
61	20	1	0	90	36.1581920903955	36.241610738255	0	0	1	4	3	NaN	1	4	0.0542498672943188	1	1	NaN	389	7	11	2	111	211	311	NaN	511	0.271590280812234	1	1	NaN	2423936.8639822	NaN	2423937.8473897	2423938.36395112
61	20	1	0	90	36.1581920903955	36.241610738255	14	0.466727072112262	2	7	1	NaN	2	4	0.0542498672943188	1	1	NaN	390	7	12	2	121	221	321	NaN	521	0.0399529808200896	2	1	NaN	2423939.447591	NaN	2423940.430983	2423940.94752842
61	20	1	0	90	36.1581920903955	36.241610738255	8	0.26670118406415	2	3	2	NaN	1	3	0.0542498672943188	1	1	NaN	391	7	13	2	121	221	321	NaN	521	0.457699980586767	1	1	NaN	2423941.7976938	NaN	2423942.7812114	2423943.29775562
61	20	1	0	90	36.1581920903955	36.241610738255	17	0.566740016136318	2	8	5	NaN	2	3	0.0542498672943188	1	1	NaN	392	7	14	2	121	221	321	NaN	521	0.346992680802941	2	1	NaN	2423944.5647433	NaN	2423945.5481143	2423946.06469342
61	20	1	0	90	36.1581920903955	36.241610738255	24	0.80010355219245	2	11	2	NaN	2	4	0.0542498672943188	1	1	NaN	393	7	15	2	121	221	321	NaN	521	0.0104097807779908	1	0	NaN	2423947.2316671	NaN	2423948.2150722	2423948.73162282
61	20	1	0	90	36.1581920903955	36.241610738255	14	0.466727072112262	2	8	3	NaN	2	4	0.0542498672943188	1	1	NaN	394	7	16	2	121	221	321	NaN	521	0.427078880835325	2	1	NaN	2423949.5484436	NaN	2423950.5319711	2423951.04851322
61	20	1	0	90	36.1581920903955	36.241610738255	25	0.833441200200468	2	11	4	NaN	2	4	0.0542498672943188	1	1	NaN	395	7	17	2	121	221	321	NaN	521	0.285455232486129	2	1	NaN	2423952.2822785	NaN	2423953.2655733	2423953.78211937
61	20	1	0	90	36.1581920903955	36.241610738255	13	0.433389424104243	2	5	6	NaN	1	3	0.0542498672943188	1	1	NaN	396	7	18	2	121	221	321	NaN	521	0.373148480430245	1	1	NaN	2423954.8824382	NaN	2423955.8658283	2423956.38237492
61	20	1	0	90	36.1581920903955	36.241610738255	14	0.466727072112262	2	3	4	NaN	1	5	0.0542498672943188	1	1	NaN	397	7	19	2	121	221	321	NaN	521	0.201487880665809	2	0	NaN	2423957.5660313	NaN	2423958.5494337	2423959.06597532
61	20	1	0	90	36.1581920903955	36.241610738255	11	0.366714128088206	2	2	5	NaN	1	5	0.0542498672943188	1	1	NaN	398	7	20	2	121	221	321	NaN	521	0.0104065802879632	1	1	NaN	2423960.082943	NaN	2423961.0663606	2423961.58287632
61	20	1	0	90	36.1581920903955	36.241610738255	20	0.666752960160375	2	10	3	NaN	2	3	0.0542498672943188	1	1	NaN	399	7	21	2	121	221	321	NaN	521	0.0104034808464348	2	1	NaN	2423962.4998419	NaN	2423963.48324	2423963.99979312
61	20	1	0	90	36.1581920903955	36.241610738255	19	0.633415312152356	2	7	4	NaN	2	4	0.0542498672943188	1	1	NaN	400	7	22	2	121	221	321	NaN	521	0.0104213804006577	2	1	NaN	2423964.8167319	NaN	2423965.8002028	2423966.31667932
61	20	1	0	90	36.1581920903955	36.241610738255	21	0.700090608168393	2	4	1	NaN	1	5	0.0542498672943188	1	1	NaN	401	7	23	2	121	221	321	NaN	521	0.737221932038665	1	1	NaN	2423967.1502732	NaN	2423968.1337157	2423968.65024477
61	20	1	0	90	36.1581920903955	36.241610738255	25	0.833441200200468	2	1	1	NaN	1	5	0.0542498672943188	1	1	NaN	402	7	24	2	121	221	321	NaN	521	0.35890878085047	1	1	NaN	2423970.2005079	NaN	2423971.1839836	2423971.70054872
61	20	1	0	90	36.1581920903955	36.241610738255	12	0.400051776096225	2	10	4	NaN	2	4	0.0542498672943188	1	1	NaN	403	7	25	2	121	221	321	NaN	521	0.347926532384008	2	1	NaN	2423972.8675486	NaN	2423973.8509319	2423974.36747047
61	20	1	0	90	36.1581920903955	36.241610738255	17	0.566740016136318	2	10	2	NaN	2	3	0.0542498672943188	1	1	NaN	404	7	26	2	121	221	321	NaN	521	0.633660745341331	2	1	NaN	2423975.5178093	NaN	2423976.5011831	2423977.01773185
61	20	1	0	90	36.1581920903955	36.241610738255	17	0.566740016136318	2	3	1	NaN	1	3	0.0542498672943188	1	1	NaN	405	7	27	2	121	221	321	NaN	521	0.414888280909508	1	1	NaN	2423978.5846035	NaN	2423979.5681494	2423980.08469812
61	20	1	0	90	36.1581920903955	36.241610738255	23	0.766765904184431	2	10	6	NaN	2	5	0.0542498672943188	1	1	NaN	406	7	28	2	121	221	321	NaN	521	0.3851253320463	2	1	NaN	2423981.3183585	NaN	2423982.3017956	2423982.81829397
61	20	1	0	90	36.1581920903955	36.241610738255	18	0.600077664144337	2	12	6	NaN	2	5	0.0542498672943188	1	1	NaN	407	7	29	2	121	221	321	NaN	521	0.364900680724531	2	1	NaN	2423984.0186229	NaN	2423985.0020207	2423985.51855892
61	20	1	0	90	36.1581920903955	36.241610738255	13	0.433389424104243	2	9	1	NaN	2	4	0.0542498672943188	1	1	NaN	408	7	30	2	121	221	321	NaN	521	0.241515580564737	1	0	NaN	2423986.7022448	NaN	2423987.6855979	2423988.20216552
61	20	1	0	90	36.1581920903955	36.241610738255	0	0	1	8	4	NaN	2	5	0.0542498672943188	1	1	NaN	409	7	31	2	111	211	311	NaN	511	0.243044232483953	2	1	NaN	2423989.2523436	NaN	2423990.235862	2423990.75241737
61	20	1	0	90	36.1581920903955	36.241610738255	7	0.233363536056131	2	4	5	NaN	1	5	0.0542498672943188	1	1	NaN	410	7	32	2	121	221	321	NaN	521	0.452714132145047	1	1	NaN	2423991.8026758	NaN	2423992.7861009	2423993.30266547
61	20	1	0	90	36.1581920903955	36.241610738255	17	0.566740016136318	2	5	4	NaN	1	4	0.0542498672943188	1	1	NaN	411	7	33	2	121	221	321	NaN	521	0.0104070804081857	2	0	NaN	2423994.5696478	NaN	2423995.5530564	2423996.06959942
61	20	1	0	90	36.1581920903955	36.241610738255	22	0.733428256176412	2	8	4	NaN	2	5	0.0542498672943188	1	1	NaN	412	7	34	2	121	221	321	NaN	521	0.0104168290272355	2	1	NaN	2423996.9032301	NaN	2423997.8866138	2423998.40316787
61	20	1	0	90	36.1581920903955	36.241610738255	6	0.200025888048112	2	11	3	NaN	2	5	0.0542498672943188	1	1	NaN	413	7	35	2	121	221	321	NaN	521	0.482851280830801	1	0	NaN	2423999.2367179	NaN	2424000.2201822	2424000.73671822
61	20	1	0	90	36.1581920903955	36.241610738255	18	0.600077664144337	2	7	3	NaN	2	5	0.0542498672943188	1	1	NaN	414	7	36	2	121	221	321	NaN	521	0.402599683962762	2	1	NaN	2424002.0370584	NaN	2424003.0204453	2424003.53700702
61	20	1	0	90	36.1581920903955	36.241610738255	12	0.400051776096225	2	9	5	NaN	2	3	0.0542498672943188	1	1	NaN	415	7	37	2	121	221	321	NaN	521	0.0449040806852281	2	1	NaN	2424004.7706687	NaN	2424005.7540704	2424006.27059632
61	20	1	0	90	36.1581920903955	36.241610738255	20	0.666752960160375	2	5	1	NaN	1	5	0.0542498672943188	1	1	NaN	416	7	38	2	121	221	321	NaN	521	0.0302424803376198	1	1	NaN	2424007.1376169	NaN	2424008.1209774	2424008.63752242
61	20	1	0	90	36.1581920903955	36.241610738255	11	0.366714128088206	2	12	5	NaN	2	5	0.0542498672943188	1	1	NaN	417	7	39	2	121	221	321	NaN	521	0.0104255289770663	2	1	NaN	2424009.4877816	NaN	2424010.4711699	2424010.98772947
61	20	1	0	90	36.1581920903955	36.241610738255	17	0.566740016136318	2	9	2	NaN	2	5	0.0542498672943188	1	1	NaN	418	7	40	2	121	221	321	NaN	521	0.0428607291541994	1	0	NaN	2424011.8045528	NaN	2424012.7880809	2424013.30462937
61	20	1	0	90	36.1581920903955	36.241610738255	16	0.5334023681283	2	2	1	NaN	1	4	0.0542498672943188	1	1	NaN	419	7	41	2	121	221	321	NaN	521	0.0104048806242645	1	1	NaN	2424014.1549174	NaN	2424015.1383057	2424015.65485612
61	20	1	0	90	36.1581920903955	36.241610738255	14	0.466727072112262	2	5	1	NaN	1	3	0.0542498672943188	1	1	NaN	420	7	42	2	121	221	321	NaN	521	0.0104114809073508	1	1	NaN	2424016.488477	NaN	2424017.4718511	2424017.98841832
61	20	1	0	90	36.1581920903955	36.241610738255	12	0.400051776096225	2	3	3	NaN	1	4	0.0542498672943188	1	1	NaN	421	7	43	2	121	221	321	NaN	521	0.0103902327828109	1	1	NaN	2424018.8053451	NaN	2424019.7887665	2424020.30531417
61	20	1	0	90	36.1581920903955	36.241610738255	14	0.466727072112262	2	5	5	NaN	1	4	0.0542498672943188	1	1	NaN	422	7	44	2	121	221	321	NaN	521	0.0104141808114946	1	1	NaN	2424021.1222533	NaN	2424022.1056603	2424022.62220732
61	20	1	0	90	36.1581920903955	36.241610738255	20	0.666752960160375	2	5	1	NaN	1	4	0.0542498672943188	1	1	NaN	423	7	45	2	121	221	321	NaN	521	0.0104466779157519	1	1	NaN	2424023.4391571	NaN	2424024.4225679	2424024.93910092
61	20	1	0	90	36.1581920903955	36.241610738255	16	0.5334023681283	2	4	1	NaN	1	4	0.0542498672943188	1	1	NaN	424	7	46	2	121	221	321	NaN	521	0.179833132773638	2	0	NaN	2424025.7560505	NaN	2424026.7395015	2424027.25599997
61	20	1	0	90	36.1581920903955	36.241610738255	9	0.300038832072169	2	8	4	NaN	2	3	0.0542498672943188	1	1	NaN	425	7	47	2	121	221	321	NaN	521	0.0104086808860302	2	1	NaN	2424028.2563099	NaN	2424029.2396882	2424029.75624562
61	20	1	0	90	36.1581920903955	36.241610738255	16	0.5334023681283	2	10	3	NaN	2	3	0.0542498672943188	1	1	NaN	426	7	48	2	121	221	321	NaN	521	1.96983503224328	2	1	NaN	2424030.5898492	NaN	2424031.5732499	2424032.08980957
61	20	1	0	90	36.1581920903955	36.241610738255	21	0.700090608168393	2	4	4	NaN	1	3	0.0542498672943188	1	1	NaN	427	7	49	2	121	221	321	NaN	521	0.237960881087929	1	1	NaN	2424034.8735265	NaN	2424035.857012	2424036.37355072
61	20	1	0	90	36.1581920903955	36.241610738255	8	0.26670118406415	2	11	2	NaN	2	3	0.0542498672943188	1	1	NaN	428	7	50	2	121	221	321	NaN	521	0.288028283976018	2	1	NaN	2424037.4237578	NaN	2424038.4072621	2424038.92381422
61	20	1	0	90	36.1581920903955	36.241610738255	0	0	1	3	5	NaN	1	3	0.0542498672943188	1	1	NaN	429	7	51	2	111	211	311	NaN	511	1.61583808064461	1	1	NaN	2424040.0241142	NaN	2424041.007519	2424041.52405462
61	20	1	0	90	36.1581920903955	36.241610738255	25	0.833441200200468	2	2	3	NaN	1	5	0.0542498672943188	1	1	NaN	430	7	52	2	121	221	321	NaN	521	0.194327132310718	1	1	NaN	2424043.9410366	NaN	2424044.9245579	2424045.44111417
61	20	1	0	90	36.1581920903955	36.241610738255	23	0.766765904184431	2	8	6	NaN	2	5	0.0542498672943188	1	1	NaN	431	7	53	2	121	221	321	NaN	521	0.165896432474256	2	1	NaN	2424046.4412845	NaN	2424047.424795	2424047.94136177
61	20	1	0	90	36.1581920903955	36.241610738255	12	0.400051776096225	2	12	4	NaN	2	5	0.0542498672943188	1	1	NaN	432	7	54	2	121	221	321	NaN	521	0.23571003228426	2	1	NaN	2424048.9082023	NaN	2424049.8917164	2424050.40826937
61	20	1	0	90	36.1581920903955	36.241610738255	20	0.666752960160375	2	3	6	NaN	1	5	0.0542498672943188	1	1	NaN	433	7	55	2	121	221	321	NaN	521	0.0103949322365224	1	1	NaN	2424051.4585592	NaN	2424052.4420127	2424052.95852107
61	20	1	0	90	36.1581920903955	36.241610738255	9	0.300038832072169	2	11	6	NaN	2	3	0.0542498672943188	1	1	NaN	434	7	56	2	121	221	321	NaN	521	0.0104521778412163	1	0	NaN	2424053.7921272	NaN	2424054.7755236	2424055.29208382
61	20	1	0	90	36.1581920903955	36.241610738255	11	0.366714128088206	2	11	2	NaN	2	3	0.0542498672943188	1	1	NaN	435	7	57	2	121	221	321	NaN	521	0.194601280614734	2	1	NaN	2424056.1090267	NaN	2424057.0924303	2424057.60896662
61	20	1	0	90	36.1581920903955	36.241610738255	25	0.833441200200468	2	2	3	NaN	1	3	0.0542498672943188	1	1	NaN	436	7	58	2	121	221	321	NaN	521	0.414376238826662	2	0	NaN	2424058.6092707	NaN	2424059.5926685	2424060.10922876
61	20	1	0	90	36.1581920903955	36.241610738255	23	0.766765904184431	2	8	3	NaN	2	5	0.0542498672943188	1	1	NaN	437	7	59	2	121	221	321	NaN	521	0.0414751321077347	2	1	NaN	2424061.3262097	NaN	2424062.3096236	2424062.82615807
61	20	1	0	90	36.1581920903955	36.241610738255	16	0.5334023681283	2	5	3	NaN	1	4	0.0542498672943188	1	1	NaN	438	7	60	2	121	221	321	NaN	521	0.171259280759841	1	1	NaN	2424063.6764501	NaN	2424064.6598705	2424065.17638672
61	20	1	0	90	36.1581920903955	36.241610738255	22	0.733428256176412	2	5	6	NaN	1	5	0.0542498672943188	1	1	NaN	439	7	61	2	121	221	321	NaN	521	0.111819080542773	1	1	NaN	2424066.1598695	NaN	2424067.1434138	2424067.65995672
61	20	1	0	90	36.1581920903955	36.241610738255	19	0.633415312152356	2	10	4	NaN	2	4	0.0542498672943188	1	1	NaN	440	7	62	2	121	221	321	NaN	521	0.910622590221465	2	1	NaN	2424068.5934805	NaN	2424069.5770099	2424070.09352871
61	20	1	0	90	36.1581920903955	36.241610738255	6	0.200025888048112	2	4	2	NaN	1	3	0.0542498672943188	1	1	NaN	441	7	63	2	121	221	321	NaN	521	0.0852304324507713	2	0	NaN	2424071.8105945	NaN	2424072.7939516	2424073.31051817
61	20	1	0	90	36.1581920903955	36.241610738255	21	0.700090608168393	2	10	5	NaN	2	5	0.0542498672943188	1	1	NaN	442	8	1	2	121	221	321	NaN	521	0.0418155323714018	2	1	NaN	2424091.6458157	NaN	2424092.6292458	2424093.14579767
61	20	1	0	90	36.1581920903955	36.241610738255	19	0.633415312152356	2	3	4	NaN	1	5	0.0542498672943188	1	1	NaN	443	8	2	2	121	221	321	NaN	521	0.307710087392479	1	1	NaN	2424093.9961806	NaN	2424094.9794752	2424095.49602861
61	20	1	0	90	36.1581920903955	36.241610738255	6	0.200025888048112	2	9	4	NaN	2	4	0.0542498672943188	1	1	NaN	444	8	3	2	121	221	321	NaN	521	0.0293921804986894	2	1	NaN	2424115.8982114	NaN	2424116.8816053	2424117.39818512
61	20	1	0	90	36.1581920903955	36.241610738255	0	0	1	12	3	NaN	2	3	0.0542498672943188	1	1	NaN	445	8	4	2	111	211	311	NaN	511	0.135465832427144	2	1	NaN	2424119.448493	NaN	2424120.432006	2424120.94852237
61	20	1	0	90	36.1581920903955	36.241610738255	14	0.466727072112262	2	6	2	NaN	1	4	0.0542498672943188	1	1	NaN	446	8	5	2	121	221	321	NaN	521	0.084929381031543	1	1	NaN	2424121.898812	NaN	2424122.8822135	2424123.39876862
61	20	1	0	90	36.1581920903955	36.241610738255	11	0.366714128088206	2	1	2	NaN	1	4	0.0542498672943188	1	1	NaN	447	8	6	2	121	221	321	NaN	521	0.0102873938158154	2	0	NaN	2424124.2990611	NaN	2424125.2824839	2424125.79900731
61	20	1	0	90	36.1581920903955	36.241610738255	23	0.766765904184431	2	4	1	NaN	1	3	0.0542498672943188	1	1	NaN	448	8	7	2	121	221	321	NaN	521	0.0104039805009961	1	1	NaN	2424126.6326108	NaN	2424127.6160228	2424128.13256292
61	20	1	0	90	36.1581920903955	36.241610738255	24	0.80010355219245	2	10	1	NaN	2	3	0.0542498672943188	1	1	NaN	449	8	8	2	121	221	321	NaN	521	0.0104108806699514	2	1	NaN	2424128.9494807	NaN	2424129.9329069	2424130.44944972
61	20	1	0	90	36.1581920903955	36.241610738255	6	0.200025888048112	2	2	6	NaN	1	5	0.0542498672943188	1	1	NaN	450	8	9	2	121	221	321	NaN	521	0.0527456840500236	1	1	NaN	2424131.2830745	NaN	2424132.2664665	2424132.78302482
61	20	1	0	90	36.1581920903955	36.241610738255	19	0.633415312152356	2	1	1	NaN	1	3	0.0542498672943188	1	1	NaN	451	8	10	2	121	221	321	NaN	521	0.0102177998051047	1	1	NaN	2424133.6499635	NaN	2424134.6333716	2424135.1499417
61	20	1	0	90	36.1581920903955	36.241610738255	0	0	1	6	3	NaN	1	3	0.0542498672943188	1	1	NaN	452	8	11	2	111	211	311	NaN	511	0.0104052806273103	2	0	NaN	2424135.9835318	NaN	2424136.9669153	2424137.48348292
61	20	1	0	90	36.1581920903955	36.241610738255	16	0.5334023681283	2	5	2	NaN	1	3	0.0542498672943188	1	1	NaN	453	8	12	2	121	221	321	NaN	521	0.0103838322684169	1	1	NaN	2424138.3004141	NaN	2424139.283827	2424139.80037517
61	20	1	0	90	36.1581920903955	36.241610738255	10	0.333376480080187	2	7	1	NaN	2	3	0.0542498672943188	1	1	NaN	454	8	13	2	121	221	321	NaN	521	0.0104048810899258	2	1	NaN	2424140.6173238	NaN	2424141.6007086	2424142.11727062
61	20	1	0	90	36.1581920903955	36.241610738255	7	0.233363536056131	2	10	3	NaN	2	5	0.0542498672943188	1	1	NaN	455	8	14	2	121	221	321	NaN	521	0.049632980953902	2	1	NaN	2424142.9340867	NaN	2424143.9176187	2424144.43415792
61	20	1	0	90	36.1581920903955	36.241610738255	16	0.5334023681283	2	12	3	NaN	2	4	0.0542498672943188	1	1	NaN	456	8	15	2	121	221	321	NaN	521	2.11443448066711	2	1	NaN	2424145.3011135	NaN	2424146.2845057	2424146.80106342
61	20	1	0	90	36.1581920903955	36.241610738255	24	0.80010355219245	2	1	4	NaN	1	4	0.0542498672943188	1	1	NaN	457	8	16	2	121	221	321	NaN	521	0.0104095810092986	1	1	NaN	2424149.7347353	NaN	2424150.7183082	2424151.23482932
61	20	1	0	90	36.1581920903955	36.241610738255	9	0.300038832072169	2	12	1	NaN	2	3	0.0542498672943188	1	1	NaN	458	8	17	2	121	221	321	NaN	521	0.243140380363911	1	0	NaN	2424152.0683017	NaN	2424153.0518369	2424153.56839382
