subjno	age	gender	isPractice	viewdist	CmToPixX	CmToPixY	SOA_frm	SOA_time	targNum	targID	targExample	targRace	targGender	firstTargPos	contrast	familiarity	curr_staircase	iStair	TrialNum	BlockNum	blktrl	sessionNum	TC_FIXATION	TC_RSVP_START	TC_RSVP_END	TC_BLANK	TC_RESPONSE_ONSET	RT2afc	resp_2afc	acc	RSVPOnsetVBL	RSVPOnsetTime	RSVPOffsetVBL	RSVPOffsetTime	startrt_2afc
6	20	0	0	90	36.1581920903955	36.241610738255	15	0.500033640023321	2	4	6	NaN	1	4	0.0205708797960764	1	1	NaN	1	1	1	1	121	221	321	NaN	521	1.101700526895	2	0	NaN	1548766.9447234	NaN	1548767.927998	1548768.46113277
6	20	0	0	90	36.1581920903955	36.241610738255	19	0.63337594402954	2	6	3	NaN	1	4	0.0205708797960764	1	1	NaN	2	1	2	1	121	221	321	NaN	521	0.611008474370465	2	0	NaN	1548770.4117121	NaN	1548771.3950142	1548771.92813123
6	20	0	0	90	36.1581920903955	36.241610738255	19	0.63337594402954	2	4	4	NaN	1	5	0.0205708797960764	1	1	NaN	3	1	3	1	121	221	321	NaN	521	0.548946564318612	1	1	NaN	1548773.361692	NaN	1548774.3451105	1548774.86176334
6	20	0	0	90	36.1581920903955	36.241610738255	11	0.366691336017102	2	5	3	NaN	1	3	0.0205708797960764	1	1	NaN	4	1	4	1	121	221	321	NaN	521	0.722079822095111	1	1	NaN	1548776.2287698	NaN	1548777.2121615	1548777.72870518
6	20	0	0	90	36.1581920903955	36.241610738255	22	0.733382672034204	2	5	3	NaN	1	3	0.0205708797960764	1	1	NaN	5	1	5	1	121	221	321	NaN	521	0.82371791661717	1	1	NaN	1548779.2790591	NaN	1548780.262465	1548780.77900688
6	20	0	0	90	36.1581920903955	36.241610738255	12	0.400026912018657	2	11	2	NaN	2	4	0.0205708797960764	1	1	NaN	6	1	6	1	121	221	321	NaN	521	0.393318221904337	2	1	NaN	1548782.4294085	NaN	1548783.4127526	1548783.92931928
6	20	0	0	90	36.1581920903955	36.241610738255	21	0.700047096032649	2	6	2	NaN	1	3	0.0205708797960764	1	1	NaN	7	1	7	1	121	221	321	NaN	521	0.628347769146785	1	1	NaN	1548785.1462917	NaN	1548786.1296981	1548786.64624273
6	20	0	0	90	36.1581920903955	36.241610738255	14	0.466698064021766	2	2	5	NaN	1	3	0.0205708797960764	1	1	NaN	8	1	8	1	121	221	321	NaN	521	0.379841021960601	2	0	NaN	1548788.1632617	NaN	1548789.146656	1548789.66321718
6	20	0	0	90	36.1581920903955	36.241610738255	18	0.600040368027985	2	9	5	NaN	2	5	0.0205708797960764	1	1	NaN	9	1	9	1	121	221	321	NaN	521	0.335585674503818	2	1	NaN	1548790.8633872	NaN	1548791.8469218	1548792.36348183
6	20	0	0	90	36.1581920903955	36.241610738255	17	0.56670479202643	2	12	1	NaN	2	3	0.0205708797960764	1	1	NaN	10	1	10	1	121	221	321	NaN	521	0.509545637061819	2	1	NaN	1548793.5136522	NaN	1548794.4971843	1548795.01374006
6	20	0	0	90	36.1581920903955	36.241610738255	11	0.366691336017102	2	8	6	NaN	2	5	0.0205708797960764	1	1	NaN	11	1	11	1	121	221	321	NaN	521	0.307360074482858	1	0	NaN	1548796.3474227	NaN	1548797.3307942	1548797.84735233
6	20	0	0	90	36.1581920903955	36.241610738255	9	0.300020184013993	2	2	2	NaN	1	5	0.0205708797960764	1	1	NaN	12	1	12	1	121	221	321	NaN	521	0.97743592178449	2	0	NaN	1548799.1975345	NaN	1548800.1810741	1548800.69763608
6	20	0	0	90	36.1581920903955	36.241610738255	14	0.466698064021766	2	5	1	NaN	1	5	0.0205708797960764	1	1	NaN	13	1	13	1	121	221	321	NaN	521	0.396799642359838	2	0	NaN	1548802.4980205	NaN	1548803.4814092	1548803.99796176
6	20	0	0	90	36.1581920903955	36.241610738255	7	0.233349032010883	2	10	3	NaN	2	3	0.0205708797960764	1	1	NaN	14	1	14	1	121	221	321	NaN	521	0.503340016584843	2	1	NaN	1548805.2315984	NaN	1548806.2149941	1548806.73155618
6	20	0	0	90	36.1581920903955	36.241610738255	6	0.200013456009328	2	4	2	NaN	1	3	0.0205708797960764	1	1	NaN	15	1	15	1	121	221	321	NaN	521	0.310154121834785	1	1	NaN	1548808.0485642	NaN	1548809.0319597	1548809.54850328
6	20	0	0	90	36.1581920903955	36.241610738255	23	0.766718248035759	2	11	2	NaN	2	5	0.0205708797960764	1	1	NaN	16	1	16	1	121	221	321	NaN	521	0.308954432141036	2	1	NaN	1548810.6821368	NaN	1548811.665465	1548812.18209167
6	20	0	0	90	36.1581920903955	36.241610738255	22	0.733382672034204	2	10	1	NaN	2	5	0.0205708797960764	1	1	NaN	17	1	17	1	121	221	321	NaN	521	0.27499386947602	1	0	NaN	1548813.3157553	NaN	1548814.2991381	1548814.81567993
6	20	0	0	90	36.1581920903955	36.241610738255	17	0.56670479202643	2	8	4	NaN	2	3	0.0205708797960764	1	1	NaN	18	1	18	1	121	221	321	NaN	521	0.418718421831727	2	1	NaN	1548815.9160042	NaN	1548816.8993827	1548817.41594108
6	20	0	0	90	36.1581920903955	36.241610738255	10	0.333355760015547	2	7	1	NaN	2	5	0.0205708797960764	1	1	NaN	19	1	19	1	121	221	321	NaN	521	0.263931822031736	2	1	NaN	1548818.9829264	NaN	1548819.9664156	1548820.48290988
6	20	0	0	90	36.1581920903955	36.241610738255	10	0.333355760015547	2	5	3	NaN	1	4	0.0205708797960764	1	1	NaN	20	1	20	1	121	221	321	NaN	521	0.176579121965915	2	0	NaN	1548821.5665414	NaN	1548822.5499401	1548823.06649818
6	20	0	0	90	36.1581920903955	36.241610738255	12	0.400026912018657	2	5	3	NaN	1	3	0.0205708797960764	1	1	NaN	21	1	21	1	121	221	321	NaN	521	0.388339021941647	1	1	NaN	1548824.0667844	NaN	1548825.0501848	1548825.56674418
6	20	0	0	90	36.1581920903955	36.241610738255	14	0.466698064021766	2	9	4	NaN	2	3	0.0205708797960764	1	1	NaN	22	1	22	1	121	221	321	NaN	521	0.239486121805385	2	1	NaN	1548826.7837246	NaN	1548827.7671427	1548828.28367038
6	20	0	0	90	36.1581920903955	36.241610738255	0	0	1	2	1	NaN	1	3	0.0205708797960764	1	1	NaN	23	1	23	1	111	211	311	NaN	511	0.528548869304359	2	0	NaN	1548829.3506519	NaN	1548830.334035	1548830.85058653
6	20	0	0	90	36.1581920903955	36.241610738255	15	0.500033640023321	2	10	1	NaN	2	3	0.0205708797960764	1	1	NaN	24	1	24	1	121	221	321	NaN	521	0.254021521890536	2	1	NaN	1548832.2009447	NaN	1548833.1843107	1548833.70086688
6	20	0	0	90	36.1581920903955	36.241610738255	13	0.433362488020211	2	8	1	NaN	2	3	0.0205708797960764	1	1	NaN	25	1	25	1	121	221	321	NaN	521	0.358625184744596	1	0	NaN	1548834.7845099	NaN	1548835.7679021	1548836.28446882
6	20	0	0	90	36.1581920903955	36.241610738255	15	0.500033640023321	2	5	6	NaN	1	5	0.0205708797960764	1	1	NaN	26	1	26	1	121	221	321	NaN	521	0.283109921729192	2	0	NaN	1548837.4681012	NaN	1548838.4515063	1548838.96805258
6	20	0	0	90	36.1581920903955	36.241610738255	0	0	1	7	3	NaN	2	5	0.0205708797960764	1	1	NaN	27	1	27	1	111	211	311	NaN	511	0.394830269273371	2	1	NaN	1548840.0683756	NaN	1548841.0517565	1548841.56831123
6	20	0	0	90	36.1581920903955	36.241610738255	6	0.200013456009328	2	3	2	NaN	1	5	0.0205708797960764	1	1	NaN	28	1	28	1	121	221	321	NaN	521	0.245548326754943	2	0	NaN	1548842.7853983	NaN	1548843.7686881	1548844.28523887
6	20	0	0	90	36.1581920903955	36.241610738255	13	0.433362488020211	2	5	5	NaN	1	3	0.0205708797960764	1	1	NaN	29	1	29	1	121	221	321	NaN	521	0.010344379581511	2	0	NaN	1548845.3521975	NaN	1548846.3356399	1548846.85216272
6	20	0	0	90	36.1581920903955	36.241610738255	15	0.500033640023321	2	2	6	NaN	1	3	0.0205708797960764	1	1	NaN	30	1	30	1	121	221	321	NaN	521	0.177003916585818	2	0	NaN	1548847.6857795	NaN	1548848.6691652	1548849.18572348
6	20	0	0	90	36.1581920903955	36.241610738255	9	0.300020184013993	2	8	1	NaN	2	4	0.0205708797960764	1	1	NaN	31	1	31	1	121	221	321	NaN	521	0.228962100110948	2	1	NaN	1548850.1860156	NaN	1548851.1694325	1548851.6859648
6	20	0	0	90	36.1581920903955	36.241610738255	23	0.766718248035759	2	4	6	NaN	1	3	0.0205708797960764	1	1	NaN	32	1	32	1	121	221	321	NaN	521	0.238436021842062	1	1	NaN	1548852.7362719	NaN	1548853.7196768	1548854.23621878
6	20	0	0	90	36.1581920903955	36.241610738255	8	0.266684608012438	2	6	5	NaN	1	5	0.0205708797960764	1	1	NaN	33	1	33	1	121	221	321	NaN	521	0.360255584819242	1	1	NaN	1548855.2865324	NaN	1548856.2699129	1548856.78647392
6	20	0	0	90	36.1581920903955	36.241610738255	19	0.63337594402954	2	11	1	NaN	2	3	0.0205708797960764	1	1	NaN	34	1	34	1	121	221	321	NaN	521	0.298817421775311	1	0	NaN	1548858.2194726	NaN	1548859.2035298	1548859.72009088
6	20	0	0	90	36.1581920903955	36.241610738255	25	0.833389400038868	2	7	4	NaN	2	4	0.0205708797960764	1	1	NaN	35	1	35	1	121	221	321	NaN	521	0.353621721733361	1	0	NaN	1548860.8370578	NaN	1548861.8204716	1548862.33701748
6	20	0	0	90	36.1581920903955	36.241610738255	10	0.333355760015547	2	5	2	NaN	1	4	0.0205708797960764	1	1	NaN	36	1	36	1	121	221	321	NaN	521	0.254077589605004	2	0	NaN	1548863.520679	NaN	1548864.5040987	1548865.02061741
6	20	0	0	90	36.1581920903955	36.241610738255	13	0.433362488020211	2	7	3	NaN	2	5	0.0205708797960764	1	1	NaN	37	1	37	1	121	221	321	NaN	521	0.927209469256923	2	1	NaN	1548866.0874403	NaN	1548867.0709942	1548867.58752673
6	20	0	0	90	36.1581920903955	36.241610738255	24	0.800053824037313	2	12	2	NaN	2	3	0.0205708797960764	1	1	NaN	38	1	38	1	121	221	321	NaN	521	0.661170321982354	2	1	NaN	1548869.3379003	NaN	1548870.3212872	1548870.83785128
6	20	0	0	90	36.1581920903955	36.241610738255	9	0.300020184013993	2	11	5	NaN	2	3	0.0205708797960764	1	1	NaN	39	1	39	1	121	221	321	NaN	521	0.790352421812713	2	1	NaN	1548872.3048848	NaN	1548873.2882618	1548873.80481288
6	20	0	0	90	36.1581920903955	36.241610738255	20	0.666711520031095	2	12	6	NaN	2	5	0.0205708797960764	1	1	NaN	40	1	40	1	121	221	321	NaN	521	0.521697621792555	1	0	NaN	1548875.4052068	NaN	1548876.3885943	1548876.90511148
6	20	0	0	90	36.1581920903955	36.241610738255	18	0.600040368027985	2	10	1	NaN	2	4	0.0205708797960764	1	1	NaN	41	1	41	1	121	221	321	NaN	521	0.22416446916759	2	1	NaN	1548878.2387919	NaN	1548879.2221808	1548879.73871823
6	20	0	0	90	36.1581920903955	36.241610738255	17	0.56670479202643	2	10	6	NaN	2	4	0.0205708797960764	1	1	NaN	42	1	42	1	121	221	321	NaN	521	0.242529622046277	2	1	NaN	1548880.7723605	NaN	1548881.7557492	1548882.27230698
6	20	0	0	90	36.1581920903955	36.241610738255	23	0.766718248035759	2	1	6	NaN	1	3	0.0205708797960764	1	1	NaN	43	1	43	1	121	221	321	NaN	521	0.219641421921551	2	0	NaN	1548883.3392778	NaN	1548884.3226772	1548884.83922848
6	20	0	0	90	36.1581920903955	36.241610738255	10	0.333355760015547	2	9	6	NaN	2	4	0.0205708797960764	1	1	NaN	44	1	44	1	121	221	321	NaN	521	0.230438621947542	2	1	NaN	1548885.8729115	NaN	1548886.8562526	1548887.37280408
6	20	0	0	90	36.1581920903955	36.241610738255	19	0.63337594402954	2	9	5	NaN	2	3	0.0205708797960764	1	1	NaN	45	1	45	1	121	221	321	NaN	521	0.784010879462585	2	1	NaN	1548888.4231111	NaN	1548889.4065006	1548889.92305902
6	20	0	0	90	36.1581920903955	36.241610738255	19	0.63337594402954	2	10	4	NaN	2	5	0.0205708797960764	1	1	NaN	46	1	46	1	121	221	321	NaN	521	0.0103918218519539	1	0	NaN	1548891.5234018	NaN	1548892.5067904	1548893.02336558
6	20	0	0	90	36.1581920903955	36.241610738255	16	0.533369216024876	2	4	2	NaN	1	5	0.0205708797960764	1	1	NaN	47	1	47	1	121	221	321	NaN	521	0.0103202846366912	1	1	NaN	1548893.8402984	NaN	1548894.823704	1548895.34025182
6	20	0	0	90	36.1581920903955	36.241610738255	17	0.56670479202643	2	5	4	NaN	1	5	0.0205708797960764	1	1	NaN	48	1	48	1	121	221	321	NaN	521	0.233167421771213	1	1	NaN	1548896.173864	NaN	1548897.157264	1548897.67382308
6	20	0	0	90	36.1581920903955	36.241610738255	13	0.433362488020211	2	1	3	NaN	1	4	0.0205708797960764	1	1	NaN	49	1	49	1	121	221	321	NaN	521	0.290782769210637	2	0	NaN	1548898.7241126	NaN	1548899.7075199	1548900.22406313
6	20	0	0	90	36.1581920903955	36.241610738255	24	0.800053824037313	2	12	3	NaN	2	4	0.0205708797960764	1	1	NaN	50	1	50	1	121	221	321	NaN	521	0.214848516741768	2	1	NaN	1548901.6242757	NaN	1548902.6077925	1548903.12435348
6	20	0	0	90	36.1581920903955	36.241610738255	24	0.800053824037313	2	11	2	NaN	2	5	0.0205708797960764	1	1	NaN	51	1	51	1	121	221	321	NaN	521	0.248856369405985	2	1	NaN	1548904.1579812	NaN	1548905.1413779	1548905.65793233
6	20	0	0	90	36.1581920903955	36.241610738255	9	0.300020184013993	2	6	3	NaN	1	4	0.0205708797960764	1	1	NaN	52	1	52	1	121	221	321	NaN	521	0.257971664192155	1	1	NaN	1548906.7249243	NaN	1548907.7083059	1548908.22484524
6	20	0	0	90	36.1581920903955	36.241610738255	13	0.433362488020211	2	11	4	NaN	2	5	0.0205708797960764	1	1	NaN	53	1	53	1	121	221	321	NaN	521	0.195002137217671	2	1	NaN	1548909.2918303	NaN	1548910.2752282	1548910.79178096
6	20	0	0	90	36.1581920903955	36.241610738255	15	0.500033640023321	2	7	4	NaN	2	4	0.0205708797960764	1	1	NaN	54	1	54	1	121	221	321	NaN	521	0.222753189736977	2	1	NaN	1548911.7921015	NaN	1548912.7754658	1548913.29201581
6	20	0	0	90	36.1581920903955	36.241610738255	24	0.800053824037313	2	5	1	NaN	1	5	0.0205708797960764	1	1	NaN	55	1	55	1	121	221	321	NaN	521	0.198035421781242	1	1	NaN	1548914.6089183	NaN	1548915.5924151	1548916.10896788
6	20	0	0	90	36.1581920903955	36.241610738255	0	0	1	2	3	NaN	1	3	0.0205708797960764	1	1	NaN	56	1	56	1	111	211	311	NaN	511	0.305061921942979	2	0	NaN	1548917.125794	NaN	1548918.10933	1548918.62587788
6	20	0	0	90	36.1581920903955	36.241610738255	11	0.366691336017102	2	3	3	NaN	1	3	0.0205708797960764	1	1	NaN	57	1	57	1	121	221	321	NaN	521	0.360390769317746	2	0	NaN	1548919.742852	NaN	1548920.7262456	1548921.24280183
6	20	0	0	90	36.1581920903955	36.241610738255	19	0.63337594402954	2	12	2	NaN	2	3	0.0205708797960764	1	1	NaN	58	1	58	1	121	221	321	NaN	521	0.261499322019517	2	1	NaN	1548922.4097738	NaN	1548923.3931727	1548923.90972678
6	20	0	0	90	36.1581920903955	36.241610738255	13	0.433362488020211	2	6	5	NaN	1	3	0.0205708797960764	1	1	NaN	59	1	59	1	121	221	321	NaN	521	0.341737621929497	2	0	NaN	1548924.993359	NaN	1548925.9767611	1548926.49331878
6	20	0	0	90	36.1581920903955	36.241610738255	9	0.300020184013993	2	7	3	NaN	2	3	0.0205708797960764	1	1	NaN	60	1	60	1	121	221	321	NaN	521	0.243407621979713	1	0	NaN	1548927.6436178	NaN	1548928.6270201	1548929.14357628
6	20	0	0	90	36.1581920903955	36.241610738255	6	0.200013456009328	2	6	6	NaN	1	5	0.0205708797960764	1	1	NaN	61	1	61	1	121	221	321	NaN	521	0.236935769207776	2	0	NaN	1548930.193751	NaN	1548931.1772914	1548931.69381933
6	20	0	0	90	36.1581920903955	36.241610738255	24	0.800053824037313	2	11	3	NaN	2	5	0.0205708797960764	1	1	NaN	62	1	62	1	121	221	321	NaN	521	0.254788621794432	1	0	NaN	1548932.7441301	NaN	1548933.7275097	1548934.24408108
6	20	0	0	90	36.1581920903955	36.241610738255	6	0.200013456009328	2	2	5	NaN	1	3	0.0205708797960764	1	1	NaN	63	1	63	1	121	221	321	NaN	521	0.223964169388637	2	0	NaN	1548935.311051	NaN	1548936.2944829	1548936.81099143
6	20	0	0	90	36.1581920903955	36.241610738255	19	0.63337594402954	2	7	1	NaN	2	4	0.0205708797960764	1	1	NaN	64	2	1	1	121	221	321	NaN	521	0.0104079744778574	2	1	NaN	1548943.5284845	NaN	1548944.5119129	1548945.02847613
6	20	0	0	90	36.1581920903955	36.241610738255	18	0.600040368027985	2	6	6	NaN	1	3	0.0205708797960764	1	1	NaN	65	2	2	1	121	221	321	NaN	521	0.265642422018573	1	1	NaN	1548945.8453232	NaN	1548946.8287987	1548947.34536218
6	20	0	0	90	36.1581920903955	36.241610738255	23	0.766718248035759	2	2	2	NaN	1	4	0.0205708797960764	1	1	NaN	66	2	3	1	121	221	321	NaN	521	0.241989821894094	2	0	NaN	1548948.4289893	NaN	1548949.4124088	1548949.92895398
6	20	0	0	90	36.1581920903955	36.241610738255	21	0.700047096032649	2	4	1	NaN	1	4	0.0205708797960764	1	1	NaN	67	2	4	1	121	221	321	NaN	521	0.291668222052976	2	0	NaN	1548950.9792417	NaN	1548951.9626396	1548952.47919718
6	20	0	0	90	36.1581920903955	36.241610738255	25	0.833389400038868	2	7	1	NaN	2	3	0.0205708797960764	1	1	NaN	68	2	5	1	121	221	321	NaN	521	0.323419221909717	2	1	NaN	1548953.5794924	NaN	1548954.5628865	1548955.07945528
6	20	0	0	90	36.1581920903955	36.241610738255	25	0.833389400038868	2	5	6	NaN	1	5	0.0205708797960764	1	1	NaN	69	2	6	1	121	221	321	NaN	521	0.234249274712056	2	0	NaN	1548956.2131432	NaN	1548957.196496	1548957.71304673
6	20	0	0	90	36.1581920903955	36.241610738255	0	0	1	8	5	NaN	2	3	0.0205708797960764	1	1	NaN	70	2	7	1	111	211	311	NaN	511	0.307684421772137	2	1	NaN	1548958.7633363	NaN	1548959.746764	1548960.26330138
6	20	0	0	90	36.1581920903955	36.241610738255	9	0.300020184013993	2	4	4	NaN	1	4	0.0205708797960764	1	1	NaN	71	2	8	1	121	221	321	NaN	521	0.290724069112912	1	1	NaN	1548961.3802664	NaN	1548962.3637284	1548962.88021953
6	20	0	0	90	36.1581920903955	36.241610738255	11	0.366691336017102	2	3	2	NaN	1	3	0.0205708797960764	1	1	NaN	72	2	9	1	121	221	321	NaN	521	0.266607369296253	2	0	NaN	1548963.9805232	NaN	1548964.963924	1548965.48047823
6	20	0	0	90	36.1581920903955	36.241610738255	7	0.233349032010883	2	6	5	NaN	1	3	0.0205708797960764	1	1	NaN	73	2	10	1	121	221	321	NaN	521	0.34671222185716	2	0	NaN	1548966.5641063	NaN	1548967.5475161	1548968.06405818
6	20	0	0	90	36.1581920903955	36.241610738255	22	0.733382672034204	2	2	2	NaN	1	3	0.0205708797960764	1	1	NaN	74	2	11	1	121	221	321	NaN	521	0.248021969338879	1	1	NaN	1548969.2310523	NaN	1548970.2144396	1548970.73099513
6	20	0	0	90	36.1581920903955	36.241610738255	16	0.533369216024876	2	1	6	NaN	1	5	0.0205708797960764	1	1	NaN	75	2	12	1	121	221	321	NaN	521	0.305017721839249	2	0	NaN	1548971.7979568	NaN	1548972.7813469	1548973.29790798
6	20	0	0	90	36.1581920903955	36.241610738255	15	0.500033640023321	2	9	1	NaN	2	4	0.0205708797960764	1	1	NaN	76	2	13	1	121	221	321	NaN	521	0.288104916689917	1	0	NaN	1548974.4148769	NaN	1548975.3982793	1548975.91482618
6	20	0	0	90	36.1581920903955	36.241610738255	18	0.600040368027985	2	7	2	NaN	2	5	0.0205708797960764	1	1	NaN	77	2	14	1	121	221	321	NaN	521	0.0237969220615923	2	1	NaN	1548977.0151274	NaN	1548977.9985283	1548978.51509238
6	20	0	0	90	36.1581920903955	36.241610738255	7	0.233349032010883	2	1	5	NaN	1	4	0.0205708797960764	1	1	NaN	78	2	15	1	121	221	321	NaN	521	0.16559501667507	1	1	NaN	1548979.8653735	NaN	1548980.8488163	1548981.36536408
6	20	0	0	90	36.1581920903955	36.241610738255	7	0.233349032010883	2	5	1	NaN	1	3	0.0205708797960764	1	1	NaN	79	2	16	1	121	221	321	NaN	521	0.178143589757383	2	0	NaN	1548982.3490011	NaN	1548983.3324008	1548983.84894991
6	20	0	0	90	36.1581920903955	36.241610738255	16	0.533369216024876	2	2	6	NaN	1	4	0.0205708797960764	1	1	NaN	80	2	17	1	121	221	321	NaN	521	0.222357821883634	1	1	NaN	1548984.8325911	NaN	1548985.8159571	1548986.33252848
6	20	0	0	90	36.1581920903955	36.241610738255	23	0.766718248035759	2	3	4	NaN	1	4	0.0205708797960764	1	1	NaN	81	2	18	1	121	221	321	NaN	521	0.224826921941712	2	0	NaN	1548987.3661485	NaN	1548988.3495546	1548988.86610228
6	20	0	0	90	36.1581920903955	36.241610738255	7	0.233349032010883	2	11	4	NaN	2	3	0.0205708797960764	1	1	NaN	82	2	19	1	121	221	321	NaN	521	0.219335174653679	2	1	NaN	1548989.8997328	NaN	1548990.8831286	1548991.39968443
6	20	0	0	90	36.1581920903955	36.241610738255	13	0.433362488020211	2	5	1	NaN	1	4	0.0205708797960764	1	1	NaN	83	2	20	1	121	221	321	NaN	521	0.565717226825655	2	0	NaN	1548992.433326	NaN	1548993.4167172	1548993.93327477
6	20	0	0	90	36.1581920903955	36.241610738255	0	0	1	3	5	NaN	1	4	0.0205708797960764	1	1	NaN	84	2	21	1	111	211	311	NaN	511	0.266109422082081	2	0	NaN	1548995.3169241	NaN	1548996.3003525	1548996.81688998
6	20	0	0	90	36.1581920903955	36.241610738255	12	0.400026912018657	2	8	2	NaN	2	4	0.0205708797960764	1	1	NaN	85	2	22	1	121	221	321	NaN	521	0.234948621829972	1	0	NaN	1548997.9005273	NaN	1548998.8839237	1548999.40047378
6	20	0	0	90	36.1581920903955	36.241610738255	19	0.63337594402954	2	8	5	NaN	2	4	0.0205708797960764	1	1	NaN	86	2	23	1	121	221	321	NaN	521	0.284312269417569	2	1	NaN	1549000.4507604	NaN	1549001.4341652	1549001.95071693
6	20	0	0	90	36.1581920903955	36.241610738255	10	0.333355760015547	2	10	4	NaN	2	5	0.0205708797960764	1	1	NaN	87	2	24	1	121	221	321	NaN	521	0.220435621915385	1	0	NaN	1549003.0510337	NaN	1549004.0344532	1549004.55097438
6	20	0	0	90	36.1581920903955	36.241610738255	6	0.200013456009328	2	2	3	NaN	1	4	0.0205708797960764	1	1	NaN	88	2	25	1	121	221	321	NaN	521	0.262502342229709	1	1	NaN	1549005.5845015	NaN	1549006.5680075	1549007.08456546
6	20	0	0	90	36.1581920903955	36.241610738255	25	0.833389400038868	2	2	3	NaN	1	4	0.0205708797960764	1	1	NaN	89	2	26	1	121	221	321	NaN	521	0.175424516666681	1	1	NaN	1549008.1515112	NaN	1549009.1349377	1549009.65147448
6	20	0	0	90	36.1581920903955	36.241610738255	23	0.766718248035759	2	12	1	NaN	2	3	0.0205708797960764	1	1	NaN	90	2	27	1	121	221	321	NaN	521	0.187700022011995	2	1	NaN	1549010.6350919	NaN	1549011.6185006	1549012.13505848
6	20	0	0	90	36.1581920903955	36.241610738255	23	0.766718248035759	2	6	1	NaN	1	4	0.0205708797960764	1	1	NaN	91	2	28	1	121	221	321	NaN	521	0.271644979715347	1	1	NaN	1549013.1353465	NaN	1549014.1187454	1549014.63530732
6	20	0	0	90	36.1581920903955	36.241610738255	23	0.766718248035759	2	12	4	NaN	2	5	0.0205708797960764	1	1	NaN	92	2	29	1	121	221	321	NaN	521	0.130136637017131	2	1	NaN	1549016.2689588	NaN	1549017.252377	1549017.76894396
6	20	0	0	90	36.1581920903955	36.241610738255	11	0.366691336017102	2	12	5	NaN	2	4	0.0205708797960764	1	1	NaN	93	2	30	1	121	221	321	NaN	521	0.0103906218428165	2	1	NaN	1549018.7025698	NaN	1549019.6859384	1549020.20251678
6	20	0	0	90	36.1581920903955	36.241610738255	12	0.400026912018657	2	3	4	NaN	1	3	0.0205708797960764	1	1	NaN	94	2	31	1	121	221	321	NaN	521	0.363976621767506	2	0	NaN	1549021.0193887	NaN	1549022.0028673	1549022.51941388
6	20	0	0	90	36.1581920903955	36.241610738255	8	0.266684608012438	2	11	2	NaN	2	5	0.0205708797960764	1	1	NaN	95	2	32	1	121	221	321	NaN	521	0.288627221947536	1	0	NaN	1549023.6863788	NaN	1549024.6697698	1549025.18633418
6	20	0	0	90	36.1581920903955	36.241610738255	22	0.733382672034204	2	1	6	NaN	1	5	0.0205708797960764	1	1	NaN	96	2	33	1	121	221	321	NaN	521	0.224491221830249	2	0	NaN	1549026.2866407	NaN	1549027.2700246	1549027.78658508
6	20	0	0	90	36.1581920903955	36.241610738255	23	0.766718248035759	2	8	2	NaN	2	5	0.0205708797960764	1	1	NaN	97	2	34	1	121	221	321	NaN	521	0.202880421886221	1	0	NaN	1549028.8201854	NaN	1549029.8036054	1549030.32017338
6	20	0	0	90	36.1581920903955	36.241610738255	16	0.533369216024876	2	9	1	NaN	2	4	0.0205708797960764	1	1	NaN	98	2	35	1	121	221	321	NaN	521	0.237936621764675	2	1	NaN	1549031.3371259	NaN	1549032.3205327	1549032.83709218
6	20	0	0	90	36.1581920903955	36.241610738255	12	0.400026912018657	2	6	4	NaN	1	3	0.0205708797960764	1	1	NaN	99	2	36	1	121	221	321	NaN	521	0.223652289714664	2	0	NaN	1549033.8872583	NaN	1549034.8708222	1549035.38733571
6	20	0	0	90	36.1581920903955	36.241610738255	15	0.500033640023321	2	6	6	NaN	1	3	0.0205708797960764	1	1	NaN	100	2	37	1	121	221	321	NaN	521	0.234080322086811	2	0	NaN	1549036.4209589	NaN	1549037.4043689	1549037.92092548
6	20	0	0	90	36.1581920903955	36.241610738255	23	0.766718248035759	2	5	5	NaN	1	5	0.0205708797960764	1	1	NaN	101	2	38	1	121	221	321	NaN	521	0.316316321957856	2	0	NaN	1549038.971255	NaN	1549039.9546159	1549040.47116808
6	20	0	0	90	36.1581920903955	36.241610738255	11	0.366691336017102	2	11	6	NaN	2	3	0.0205708797960764	1	1	NaN	102	2	39	1	121	221	321	NaN	521	0.178685369202867	2	1	NaN	1549041.604822	NaN	1549042.5882174	1549043.10475663
6	20	0	0	90	36.1581920903955	36.241610738255	25	0.833389400038868	2	1	6	NaN	1	4	0.0205708797960764	1	1	NaN	103	2	40	1	121	221	321	NaN	521	0.214180521899834	1	1	NaN	1549044.1050554	NaN	1549045.0884499	1549045.60500528
6	20	0	0	90	36.1581920903955	36.241610738255	8	0.266684608012438	2	7	6	NaN	2	5	0.0205708797960764	1	1	NaN	104	2	41	1	121	221	321	NaN	521	0.272292779525742	1	0	NaN	1549046.638623	NaN	1549047.6220317	1549048.13858352
6	20	0	0	90	36.1581920903955	36.241610738255	21	0.700047096032649	2	10	5	NaN	2	5	0.0205708797960764	1	1	NaN	105	2	42	1	121	221	321	NaN	521	0.216829621931538	1	0	NaN	1549049.2222228	NaN	1549050.2056326	1549050.72217428
6	20	0	0	90	36.1581920903955	36.241610738255	12	0.400026912018657	2	7	2	NaN	2	4	0.0205708797960764	1	1	NaN	106	2	43	1	121	221	321	NaN	521	0.195910521782935	1	0	NaN	1549051.7390295	NaN	1549052.7225333	1549053.23909058
6	20	0	0	90	36.1581920903955	36.241610738255	11	0.366691336017102	2	2	2	NaN	1	5	0.0205708797960764	1	1	NaN	107	2	44	1	121	221	321	NaN	521	0.199170921929181	1	1	NaN	1549054.256039	NaN	1549055.2394289	1549055.75600508
6	20	0	0	90	36.1581920903955	36.241610738255	0	0	1	8	1	NaN	2	3	0.0205708797960764	1	1	NaN	108	2	45	1	111	211	311	NaN	511	0.506589221768081	2	1	NaN	1549056.7729721	NaN	1549057.7563599	1549058.27292008
6	20	0	0	90	36.1581920903955	36.241610738255	12	0.400026912018657	2	1	4	NaN	1	3	0.0205708797960764	1	1	NaN	109	2	46	1	121	221	321	NaN	521	0.225009821821004	1	1	NaN	1549059.5899259	NaN	1549060.5733037	1549061.08986208
6	20	0	0	90	36.1581920903955	36.241610738255	24	0.800053824037313	2	3	1	NaN	1	5	0.0205708797960764	1	1	NaN	110	2	47	1	121	221	321	NaN	521	0.18752816435881	2	0	NaN	1549062.1234934	NaN	1549063.1068861	1549063.62344384
6	20	0	0	90	36.1581920903955	36.241610738255	14	0.466698064021766	2	9	2	NaN	2	4	0.0205708797960764	1	1	NaN	111	2	48	1	121	221	321	NaN	521	0.0103918218519539	1	0	NaN	1549068.1573161	NaN	1549069.140818	1549069.65737108
6	20	0	0	90	36.1581920903955	36.241610738255	23	0.766718248035759	2	2	3	NaN	1	5	0.0205708797960764	1	1	NaN	112	2	49	1	121	221	321	NaN	521	0.581244564382359	2	0	NaN	1549070.474214	NaN	1549071.4577204	1549071.97425284
6	20	0	0	90	36.1581920903955	36.241610738255	13	0.433362488020211	2	2	6	NaN	1	5	0.0205708797960764	1	1	NaN	113	2	50	1	121	221	321	NaN	521	1.68737876415253	2	0	NaN	1549117.7123084	NaN	1549118.6956805	1549119.21223164
6	20	0	0	90	36.1581920903955	36.241610738255	6	0.200013456009328	2	9	3	NaN	2	3	0.0205708797960764	1	1	NaN	114	2	51	1	121	221	321	NaN	521	0.542113689705729	1	0	NaN	1549121.7293659	NaN	1549122.7127276	1549123.22930561
6	20	0	0	90	36.1581920903955	36.241610738255	10	0.333355760015547	2	10	3	NaN	2	5	0.0205708797960764	1	1	NaN	115	2	52	1	121	221	321	NaN	521	0.331041669240221	1	0	NaN	1549124.5962832	NaN	1549125.579605	1549126.09623613
6	20	0	0	90	36.1581920903955	36.241610738255	15	0.500033640023321	2	3	1	NaN	1	3	0.0205708797960764	1	1	NaN	116	2	53	1	121	221	321	NaN	521	0.49710423219949	2	0	NaN	1549127.2465392	NaN	1549128.22997	1549128.74650167
6	20	0	0	90	36.1581920903955	36.241610738255	9	0.300020184013993	2	10	1	NaN	2	4	0.0205708797960764	1	1	NaN	117	2	54	1	121	221	321	NaN	521	0.376091269310564	2	1	NaN	1549130.0634921	NaN	1549131.0469025	1549131.56343633
6	20	0	0	90	36.1581920903955	36.241610738255	8	0.266684608012438	2	8	3	NaN	2	4	0.0205708797960764	1	1	NaN	118	2	55	1	121	221	321	NaN	521	0.379819516791031	1	0	NaN	1549132.7637806	NaN	1549133.7471565	1549134.26371188
6	20	0	0	90	36.1581920903955	36.241610738255	17	0.56670479202643	2	6	3	NaN	1	3	0.0205708797960764	1	1	NaN	119	2	56	1	121	221	321	NaN	521	0.367183221969754	2	0	NaN	1549135.464027	NaN	1549136.4474359	1549136.96397868
6	20	0	0	90	36.1581920903955	36.241610738255	13	0.433362488020211	2	3	1	NaN	1	4	0.0205708797960764	1	1	NaN	120	2	57	1	121	221	321	NaN	521	0.323442221852019	1	1	NaN	1549138.1642841	NaN	1549139.1477075	1549139.66423838
6	20	0	0	90	36.1581920903955	36.241610738255	25	0.833389400038868	2	5	6	NaN	1	5	0.0205708797960764	1	1	NaN	121	2	58	1	121	221	321	NaN	521	0.32108817435801	1	1	NaN	1549140.8145743	NaN	1549141.7979695	1549142.31450983
6	20	0	0	90	36.1581920903955	36.241610738255	18	0.600040368027985	2	5	2	NaN	1	3	0.0205708797960764	1	1	NaN	122	2	59	1	121	221	321	NaN	521	0.35162052186206	2	0	NaN	1549143.4481368	NaN	1549144.4315892	1549144.94808978
6	20	0	0	90	36.1581920903955	36.241610738255	7	0.233349032010883	2	2	3	NaN	1	3	0.0205708797960764	1	1	NaN	123	2	60	1	121	221	321	NaN	521	0.260318721877411	1	1	NaN	1549146.1150674	NaN	1549147.0984871	1549147.61502348
6	20	0	0	90	36.1581920903955	36.241610738255	13	0.433362488020211	2	9	4	NaN	2	4	0.0205708797960764	1	1	NaN	124	2	61	1	121	221	321	NaN	521	0.332382321823388	2	1	NaN	1549148.6985289	NaN	1549149.6820725	1549150.19861018
6	20	0	0	90	36.1581920903955	36.241610738255	20	0.666711520031095	2	2	5	NaN	1	4	0.0205708797960764	1	1	NaN	125	2	62	1	121	221	321	NaN	521	0.290699922014028	1	1	NaN	1549151.3489355	NaN	1549152.3323505	1549152.84887218
6	20	0	0	90	36.1581920903955	36.241610738255	14	0.466698064021766	2	4	1	NaN	1	3	0.0205708797960764	1	1	NaN	126	2	63	1	121	221	321	NaN	521	0.273887021932751	2	0	NaN	1549153.9658625	NaN	1549154.9492363	1549155.46578528
6	20	0	0	90	36.1581920903955	36.241610738255	16	0.533369216024876	2	12	3	NaN	2	3	0.0205708797960764	1	1	NaN	127	3	1	1	121	221	321	NaN	521	0.0104423167649657	1	0	NaN	1549162.5500284	NaN	1549163.5334348	1549164.04996818
6	20	0	0	90	36.1581920903955	36.241610738255	24	0.800053824037313	2	1	2	NaN	1	5	0.0205708797960764	1	1	NaN	128	3	2	1	121	221	321	NaN	521	0.396698799915612	2	0	NaN	1549164.8669184	NaN	1549165.8503156	1549166.3668748
6	20	0	0	90	36.1581920903955	36.241610738255	21	0.700047096032649	2	10	4	NaN	2	5	0.0205708797960764	1	1	NaN	129	3	3	1	121	221	321	NaN	521	0.303756937151775	2	1	NaN	1549167.5838802	NaN	1549168.5672436	1549169.08380286
6	20	0	0	90	36.1581920903955	36.241610738255	7	0.233349032010883	2	9	3	NaN	2	5	0.0205708797960764	1	1	NaN	130	3	4	1	121	221	321	NaN	521	0.398532169405371	2	1	NaN	1549170.2007873	NaN	1549171.1841654	1549171.70071513
6	20	0	0	90	36.1581920903955	36.241610738255	19	0.63337594402954	2	1	4	NaN	1	5	0.0205708797960764	1	1	NaN	131	3	5	1	121	221	321	NaN	521	0.369465716648847	2	0	NaN	1549172.9177197	NaN	1549173.9011173	1549174.41765928
6	20	0	0	90	36.1581920903955	36.241610738255	12	0.400026912018657	2	3	3	NaN	1	4	0.0205708797960764	1	1	NaN	132	3	6	1	121	221	321	NaN	521	0.28524201666005	2	0	NaN	1549175.61789	NaN	1549176.6013901	1549177.11791118
6	20	0	0	90	36.1581920903955	36.241610738255	25	0.833389400038868	2	12	5	NaN	2	4	0.0205708797960764	1	1	NaN	133	3	7	1	121	221	321	NaN	521	0.394009321928024	2	1	NaN	1549178.501586	NaN	1549179.4849137	1549180.00153578
6	20	0	0	90	36.1581920903955	36.241610738255	23	0.766718248035759	2	8	3	NaN	2	5	0.0205708797960764	1	1	NaN	134	3	8	1	121	221	321	NaN	521	0.428930316818878	2	1	NaN	1549181.2185043	NaN	1549182.2019484	1549182.71846068
6	20	0	0	90	36.1581920903955	36.241610738255	12	0.400026912018657	2	11	2	NaN	2	5	0.0205708797960764	1	1	NaN	135	3	9	1	121	221	321	NaN	521	0.278651369269937	1	0	NaN	1549183.9688366	NaN	1549184.9521899	1549185.46872983
6	20	0	0	90	36.1581920903955	36.241610738255	20	0.666711520031095	2	10	1	NaN	2	5	0.0205708797960764	1	1	NaN	136	3	10	1	121	221	321	NaN	521	0.510196469258517	1	0	NaN	1549186.5690334	NaN	1549187.5524557	1549188.06899153
6	20	0	0	90	36.1581920903955	36.241610738255	9	0.300020184013993	2	12	3	NaN	2	4	0.0205708797960764	1	1	NaN	137	3	11	1	121	221	321	NaN	521	0.381103116553277	1	0	NaN	1549189.4026695	NaN	1549190.3860732	1549190.90260358
6	20	0	0	90	36.1581920903955	36.241610738255	25	0.833389400038868	2	3	5	NaN	1	4	0.0205708797960764	1	1	NaN	138	3	12	1	121	221	321	NaN	521	0.288139369338751	1	1	NaN	1549192.1029325	NaN	1549193.0863284	1549193.60286853
6	20	0	0	90	36.1581920903955	36.241610738255	14	0.466698064021766	2	12	4	NaN	2	3	0.0205708797960764	1	1	NaN	139	3	13	1	121	221	321	NaN	521	0.240545669337735	1	0	NaN	1549194.7031843	NaN	1549195.6865862	1549196.20312563
6	20	0	0	90	36.1581920903955	36.241610738255	14	0.466698064021766	2	10	2	NaN	2	4	0.0205708797960764	1	1	NaN	140	3	14	1	121	221	321	NaN	521	0.233788721961901	2	1	NaN	1549197.2700875	NaN	1549198.2535033	1549198.77004218
6	20	0	0	90	36.1581920903955	36.241610738255	22	0.733382672034204	2	12	6	NaN	2	3	0.0205708797960764	1	1	NaN	141	3	15	1	121	221	321	NaN	521	0.307274269405752	2	1	NaN	1549199.8203843	NaN	1549200.8037448	1549201.32028783
6	20	0	0	90	36.1581920903955	36.241610738255	23	0.766718248035759	2	6	3	NaN	1	4	0.0205708797960764	1	1	NaN	142	3	16	1	121	221	321	NaN	521	0.23335476918146	2	0	NaN	1549202.4539172	NaN	1549203.4373556	1549203.95389843
6	20	0	0	90	36.1581920903955	36.241610738255	23	0.766718248035759	2	3	5	NaN	1	3	0.0205708797960764	1	1	NaN	143	3	17	1	121	221	321	NaN	521	0.371485522016883	1	1	NaN	1549205.0040651	NaN	1549205.9875975	1549206.50414358
6	20	0	0	90	36.1581920903955	36.241610738255	11	0.366691336017102	2	9	6	NaN	2	3	0.0205708797960764	1	1	NaN	144	3	18	1	121	221	321	NaN	521	0.351472574518993	2	1	NaN	1549207.687686	NaN	1549208.6711845	1549209.18772643
6	20	0	0	90	36.1581920903955	36.241610738255	7	0.233349032010883	2	3	4	NaN	1	3	0.0205708797960764	1	1	NaN	145	3	19	1	121	221	321	NaN	521	2.59774986933917	1	1	NaN	1549210.5207202	NaN	1549211.5047978	1549212.02134483
6	20	0	0	90	36.1581920903955	36.241610738255	18	0.600040368027985	2	12	5	NaN	2	4	0.0205708797960764	1	1	NaN	146	3	20	1	121	221	321	NaN	521	0.273285169154406	2	1	NaN	1549215.4385398	NaN	1549216.4219454	1549216.93848923
6	20	0	0	90	36.1581920903955	36.241610738255	6	0.200013456009328	2	11	4	NaN	2	4	0.0205708797960764	1	1	NaN	147	3	21	1	121	221	321	NaN	521	0.312426721910015	2	1	NaN	1549218.0387278	NaN	1549219.0221803	1549219.53875188
6	20	0	0	90	36.1581920903955	36.241610738255	0	0	1	5	5	NaN	1	5	0.0205708797960764	1	1	NaN	148	3	22	1	111	211	311	NaN	511	0.558903469471261	1	1	NaN	1549220.6722638	NaN	1549221.6558085	1549222.17233713
6	20	0	0	90	36.1581920903955	36.241610738255	12	0.400026912018657	2	12	4	NaN	2	5	0.0205708797960764	1	1	NaN	149	3	23	1	121	221	321	NaN	521	0.299454621970654	2	1	NaN	1549223.5558638	NaN	1549224.5394051	1549225.05596428
6	20	0	0	90	36.1581920903955	36.241610738255	0	0	1	11	1	NaN	2	4	0.0205708797960764	1	1	NaN	150	3	24	1	111	211	311	NaN	511	0.994982769247144	1	0	NaN	1549226.1727975	NaN	1549227.1563402	1549227.67287413
6	20	0	0	90	36.1581920903955	36.241610738255	24	0.800053824037313	2	4	3	NaN	1	5	0.0205708797960764	1	1	NaN	151	3	25	1	121	221	321	NaN	521	0.869823821820319	1	1	NaN	1549229.489947	NaN	1549230.4733304	1549230.98987718
6	20	0	0	90	36.1581920903955	36.241610738255	9	0.300020184013993	2	11	5	NaN	2	4	0.0205708797960764	1	1	NaN	152	3	26	1	121	221	321	NaN	521	0.373072616755962	2	1	NaN	1549232.690223	NaN	1549233.6736395	1549234.19017868
6	20	0	0	90	36.1581920903955	36.241610738255	14	0.466698064021766	2	3	3	NaN	1	3	0.0205708797960764	1	1	NaN	153	3	27	1	121	221	321	NaN	521	0.241322616580874	2	0	NaN	1549235.3905024	NaN	1549236.3739199	1549236.89045618
6	20	0	0	90	36.1581920903955	36.241610738255	22	0.733382672034204	2	11	5	NaN	2	4	0.0205708797960764	1	1	NaN	154	3	28	1	121	221	321	NaN	521	0.441910821944475	2	1	NaN	1549237.9574231	NaN	1549238.9408208	1549239.45737218
6	20	0	0	90	36.1581920903955	36.241610738255	19	0.63337594402954	2	5	6	NaN	1	4	0.0205708797960764	1	1	NaN	155	3	29	1	121	221	321	NaN	521	0.266855016583577	1	1	NaN	1549240.7243687	NaN	1549241.7077785	1549242.22430558
6	20	0	0	90	36.1581920903955	36.241610738255	7	0.233349032010883	2	10	6	NaN	2	3	0.0205708797960764	1	1	NaN	156	3	30	1	121	221	321	NaN	521	0.0512556692119688	2	1	NaN	1549243.3079328	NaN	1549244.2913349	1549244.80788743
6	20	0	0	90	36.1581920903955	36.241610738255	24	0.800053824037313	2	4	1	NaN	1	4	0.0205708797960764	1	1	NaN	157	3	31	1	121	221	321	NaN	521	0.316489469259977	1	1	NaN	1549245.6748734	NaN	1549246.6582639	1549247.17479023
6	20	0	0	90	36.1581920903955	36.241610738255	18	0.600040368027985	2	3	1	NaN	1	3	0.0205708797960764	1	1	NaN	158	3	32	1	121	221	321	NaN	521	0.234989779535681	2	0	NaN	1549248.3084295	NaN	1549249.2918578	1549249.80839242
6	20	0	0	90	36.1581920903955	36.241610738255	15	0.500033640023321	2	3	3	NaN	1	4	0.0205708797960764	1	1	NaN	159	3	33	1	121	221	321	NaN	521	0.245079464279115	1	1	NaN	1549250.8587779	NaN	1549251.8420935	1549252.35862924
6	20	0	0	90	36.1581920903955	36.241610738255	8	0.266684608012438	2	5	2	NaN	1	4	0.0205708797960764	1	1	NaN	160	3	34	1	121	221	321	NaN	521	0.326188069069758	1	1	NaN	1549253.4256196	NaN	1549254.4089955	1549254.92555743
6	20	0	0	90	36.1581920903955	36.241610738255	24	0.800053824037313	2	10	4	NaN	2	5	0.0205708797960764	1	1	NaN	161	3	35	1	121	221	321	NaN	521	0.155835016863421	2	1	NaN	1549256.0758708	NaN	1549257.0592696	1549257.57581608
6	20	0	0	90	36.1581920903955	36.241610738255	10	0.333355760015547	2	1	3	NaN	1	5	0.0205708797960764	1	1	NaN	162	3	36	1	121	221	321	NaN	521	0.0104395642410964	1	1	NaN	1549258.5594555	NaN	1549259.5428846	1549260.05939094
6	20	0	0	90	36.1581920903955	36.241610738255	20	0.666711520031095	2	6	4	NaN	1	3	0.0205708797960764	1	1	NaN	163	3	37	1	121	221	321	NaN	521	0.272757816594094	1	1	NaN	1549260.9429989	NaN	1549261.9264054	1549262.44295448
6	20	0	0	90	36.1581920903955	36.241610738255	0	0	1	1	2	NaN	1	3	0.0205708797960764	1	1	NaN	164	3	38	1	111	211	311	NaN	511	0.553046269342303	2	0	NaN	1549263.5266137	NaN	1549264.5100132	1549265.02654103
6	20	0	0	90	36.1581920903955	36.241610738255	10	0.333355760015547	2	1	5	NaN	1	4	0.0205708797960764	1	1	NaN	165	3	39	1	121	221	321	NaN	521	0.269437979441136	1	1	NaN	1549266.4102117	NaN	1549267.3936223	1549267.91015982
6	20	0	0	90	36.1581920903955	36.241610738255	22	0.733382672034204	2	8	5	NaN	2	4	0.0205708797960764	1	1	NaN	166	3	40	1	121	221	321	NaN	521	0.429714364232495	2	1	NaN	1549268.9938139	NaN	1549269.9772103	1549270.49374134
6	20	0	0	90	36.1581920903955	36.241610738255	23	0.766718248035759	2	1	3	NaN	1	4	0.0205708797960764	1	1	NaN	167	3	41	1	121	221	321	NaN	521	0.25558511656709	1	1	NaN	1549271.744116	NaN	1549272.7274596	1549273.24401708
6	20	0	0	90	36.1581920903955	36.241610738255	22	0.733382672034204	2	8	6	NaN	2	4	0.0205708797960764	1	1	NaN	168	3	42	1	121	221	321	NaN	521	0.22422421653755	2	1	NaN	1549274.3276797	NaN	1549275.3110549	1549275.82759858
6	20	0	0	90	36.1581920903955	36.241610738255	23	0.766718248035759	2	5	5	NaN	1	5	0.0205708797960764	1	1	NaN	169	3	43	1	121	221	321	NaN	521	0.273355116602033	2	0	NaN	1549276.8777684	NaN	1549277.8613241	1549278.37785458
6	20	0	0	90	36.1581920903955	36.241610738255	16	0.533369216024876	2	3	6	NaN	1	3	0.0205708797960764	1	1	NaN	170	3	44	1	121	221	321	NaN	521	0.209714669268578	1	1	NaN	1549279.4615189	NaN	1549280.4449185	1549280.96143963
6	20	0	0	90	36.1581920903955	36.241610738255	25	0.833389400038868	2	8	4	NaN	2	4	0.0205708797960764	1	1	NaN	171	3	45	1	121	221	321	NaN	521	0.268804126884788	1	0	NaN	1549281.9950638	NaN	1549282.9784855	1549283.49502777
6	20	0	0	90	36.1581920903955	36.241610738255	20	0.666711520031095	2	11	4	NaN	2	4	0.0205708797960764	1	1	NaN	172	3	46	1	121	221	321	NaN	521	0.237155969487503	1	0	NaN	1549284.5787662	NaN	1549285.5620936	1549286.07861313
6	20	0	0	90	36.1581920903955	36.241610738255	21	0.700047096032649	2	8	6	NaN	2	3	0.0205708797960764	1	1	NaN	173	3	47	1	121	221	321	NaN	521	0.269783137133345	1	0	NaN	1549287.1455884	NaN	1549288.1290303	1549288.64552856
6	20	0	0	90	36.1581920903955	36.241610738255	0	0	1	5	2	NaN	1	4	0.0205708797960764	1	1	NaN	174	3	48	1	111	211	311	NaN	511	0.270260921912268	1	1	NaN	1549289.72906	NaN	1549290.7125798	1549291.22912078
6	20	0	0	90	36.1581920903955	36.241610738255	17	0.56670479202643	2	1	1	NaN	1	4	0.0205708797960764	1	1	NaN	175	3	49	1	121	221	321	NaN	521	0.231048122048378	1	1	NaN	1549292.3127897	NaN	1549293.2961439	1549293.81270118
6	20	0	0	90	36.1581920903955	36.241610738255	22	0.733382672034204	2	2	4	NaN	1	4	0.0205708797960764	1	1	NaN	176	3	50	1	121	221	321	NaN	521	0.184822921874002	1	1	NaN	1549294.8629849	NaN	1549295.8464099	1549296.36296108
6	20	0	0	90	36.1581920903955	36.241610738255	18	0.600040368027985	2	1	4	NaN	1	3	0.0205708797960764	1	1	NaN	177	3	51	1	121	221	321	NaN	521	0.284744874341413	1	1	NaN	1549297.3632551	NaN	1549298.3466571	1549298.86320393
6	20	0	0	90	36.1581920903955	36.241610738255	17	0.56670479202643	2	2	4	NaN	1	3	0.0205708797960764	1	1	NaN	178	3	52	1	121	221	321	NaN	521	0.203985416563228	1	1	NaN	1549299.9636245	NaN	1549300.946914	1549301.46344938
6	20	0	0	90	36.1581920903955	36.241610738255	21	0.700047096032649	2	8	5	NaN	2	3	0.0205708797960764	1	1	NaN	179	3	53	1	121	221	321	NaN	521	0.263050516601652	2	1	NaN	1549302.4804273	NaN	1549303.4638399	1549303.98036368
6	20	0	0	90	36.1581920903955	36.241610738255	18	0.600040368027985	2	8	4	NaN	2	4	0.0205708797960764	1	1	NaN	180	3	54	1	121	221	321	NaN	521	0.231479574460536	1	0	NaN	1549305.0640187	NaN	1549306.047402	1549306.56396103
6	20	0	0	90	36.1581920903955	36.241610738255	10	0.333355760015547	2	4	6	NaN	1	4	0.0205708797960764	1	1	NaN	181	3	55	1	121	221	321	NaN	521	0.192960416665301	1	1	NaN	1549307.6143019	NaN	1549308.597675	1549309.11420688
6	20	0	0	90	36.1581920903955	36.241610738255	24	0.800053824037313	2	10	1	NaN	2	5	0.0205708797960764	1	1	NaN	182	3	56	1	121	221	321	NaN	521	0.0104096217546612	1	0	NaN	1549310.1144897	NaN	1549311.0979186	1549311.61446038
6	20	0	0	90	36.1581920903955	36.241610738255	14	0.466698064021766	2	5	6	NaN	1	5	0.0205708797960764	1	1	NaN	183	3	57	1	121	221	321	NaN	521	0.0103952218778431	1	1	NaN	1549312.447939	NaN	1549313.4315296	1549313.94801578
6	20	0	0	90	36.1581920903955	36.241610738255	12	0.400026912018657	2	4	5	NaN	1	5	0.0205708797960764	1	1	NaN	184	3	58	1	121	221	321	NaN	521	0.378452521981671	1	1	NaN	1549314.7649525	NaN	1549315.7483821	1549316.26491298
6	20	0	0	90	36.1581920903955	36.241610738255	21	0.700047096032649	2	12	1	NaN	2	3	0.0205708797960764	1	1	NaN	185	3	59	1	121	221	321	NaN	521	0.262226479593664	1	0	NaN	1549317.4652186	NaN	1549318.4486802	1549318.96517502
6	20	0	0	90	36.1581920903955	36.241610738255	22	0.733382672034204	2	3	6	NaN	1	4	0.0205708797960764	1	1	NaN	186	3	60	1	121	221	321	NaN	521	0.262785569299012	1	1	NaN	1549320.0488498	NaN	1549321.0322524	1549321.54875583
6	20	0	0	90	36.1581920903955	36.241610738255	19	0.63337594402954	2	3	5	NaN	1	5	0.0205708797960764	1	1	NaN	187	3	61	1	121	221	321	NaN	521	0.487784269265831	2	0	NaN	1549322.615715	NaN	1549323.5991362	1549324.11567083
6	20	0	0	90	36.1581920903955	36.241610738255	18	0.600040368027985	2	5	1	NaN	1	3	0.0205708797960764	1	1	NaN	188	3	62	1	121	221	321	NaN	521	0.270798021927476	1	1	NaN	1549325.4326924	NaN	1549326.4160651	1549326.93262188
6	20	0	0	90	36.1581920903955	36.241610738255	12	0.400026912018657	2	9	3	NaN	2	3	0.0205708797960764	1	1	NaN	189	3	63	1	121	221	321	NaN	521	0.239264721982181	1	0	NaN	1549328.0163667	NaN	1549328.9998011	1549329.51621508
6	20	0	0	90	36.1581920903955	36.241610738255	21	0.700047096032649	2	3	1	NaN	1	3	0.0205708797960764	1	1	NaN	190	4	1	1	121	221	321	NaN	521	0.327495021978393	1	1	NaN	1549339.1840262	NaN	1549340.1674408	1549340.68396758
6	20	0	0	90	36.1581920903955	36.241610738255	15	0.500033640023321	2	11	1	NaN	2	5	0.0205708797960764	1	1	NaN	191	4	2	1	121	221	321	NaN	521	0.181049869162962	1	0	NaN	1549341.8342976	NaN	1549342.8177004	1549343.33422533
6	20	0	0	90	36.1581920903955	36.241610738255	19	0.63337594402954	2	2	5	NaN	1	4	0.0205708797960764	1	1	NaN	192	4	3	1	121	221	321	NaN	521	0.0490003796294332	1	1	NaN	1549344.3345299	NaN	1549345.3179464	1549345.83448362
6	20	0	0	90	36.1581920903955	36.241610738255	15	0.500033640023321	2	5	1	NaN	1	4	0.0205708797960764	1	1	NaN	193	4	4	1	121	221	321	NaN	521	0.162032269407064	1	1	NaN	1549346.7014252	NaN	1549347.6848448	1549348.20137583
6	20	0	0	90	36.1581920903955	36.241610738255	17	0.56670479202643	2	7	1	NaN	2	4	0.0205708797960764	1	1	NaN	194	4	5	1	121	221	321	NaN	521	0.0103933219797909	1	0	NaN	1549349.1849531	NaN	1549350.1684257	1549350.68495938
6	20	0	0	90	36.1581920903955	36.241610738255	22	0.733382672034204	2	6	1	NaN	1	4	0.0205708797960764	1	1	NaN	195	4	6	1	121	221	321	NaN	521	0.0104202693328261	1	1	NaN	1549351.5185674	NaN	1549352.5019898	1549353.01851713
6	20	0	0	90	36.1581920903955	36.241610738255	12	0.400026912018657	2	10	2	NaN	2	4	0.0205708797960764	1	1	NaN	196	4	7	1	121	221	321	NaN	521	0.228980521904305	1	0	NaN	1549354.0186947	NaN	1549355.0022832	1549355.51876668
6	20	0	0	90	36.1581920903955	36.241610738255	8	0.266684608012438	2	6	5	NaN	1	3	0.0205708797960764	1	1	NaN	197	4	8	1	121	221	321	NaN	521	0.246377121889964	1	1	NaN	1549356.5690632	NaN	1549357.5524523	1549358.06900708
6	20	0	0	90	36.1581920903955	36.241610738255	21	0.700047096032649	2	9	2	NaN	2	5	0.0205708797960764	1	1	NaN	198	4	9	1	121	221	321	NaN	521	0.255904574645683	2	1	NaN	1549359.1358518	NaN	1549360.1193992	1549360.63593533
6	20	0	0	90	36.1581920903955	36.241610738255	13	0.433362488020211	2	12	3	NaN	2	5	0.0205708797960764	1	1	NaN	199	4	10	1	121	221	321	NaN	521	0.536577869206667	2	1	NaN	1549361.7028659	NaN	1549362.6863038	1549363.20285703
6	20	0	0	90	36.1581920903955	36.241610738255	0	0	1	1	5	NaN	1	3	0.0205708797960764	1	1	NaN	200	4	11	1	111	211	311	NaN	511	0.365700626978651	1	1	NaN	1549364.5698394	NaN	1549365.5532497	1549366.06979907
6	20	0	0	90	36.1581920903955	36.241610738255	23	0.766718248035759	2	10	2	NaN	2	3	0.0205708797960764	1	1	NaN	201	4	12	1	121	221	321	NaN	521	0.274045669240877	1	0	NaN	1549367.2534487	NaN	1549368.2368377	1549368.75339063
6	20	0	0	90	36.1581920903955	36.241610738255	15	0.500033640023321	2	10	3	NaN	2	5	0.0205708797960764	1	1	NaN	202	4	13	1	121	221	321	NaN	521	0.241962221916765	1	0	NaN	1549369.8536421	NaN	1549370.837099	1549371.35365208
6	20	0	0	90	36.1581920903955	36.241610738255	6	0.200013456009328	2	9	2	NaN	2	3	0.0205708797960764	1	1	NaN	203	4	14	1	121	221	321	NaN	521	0.139304616721347	1	0	NaN	1549372.4205609	NaN	1549373.4040428	1549373.92056468
6	20	0	0	90	36.1581920903955	36.241610738255	6	0.200013456009328	2	10	5	NaN	2	3	0.0205708797960764	1	1	NaN	204	4	15	1	121	221	321	NaN	521	0.26448762184009	2	1	NaN	1549374.8874172	NaN	1549375.8709269	1549376.38748268
6	20	0	0	90	36.1581920903955	36.241610738255	9	0.300020184013993	2	3	2	NaN	1	4	0.0205708797960764	1	1	NaN	205	4	16	1	121	221	321	NaN	521	0.494717074558139	2	0	NaN	1549377.7211304	NaN	1549378.7045839	1549379.22109323
6	20	0	0	90	36.1581920903955	36.241610738255	20	0.666711520031095	2	10	5	NaN	2	4	0.0205708797960764	1	1	NaN	206	4	17	1	121	221	321	NaN	521	0.253596769412979	1	0	NaN	1549380.5381068	NaN	1549381.5215035	1549382.03802723
6	20	0	0	90	36.1581920903955	36.241610738255	14	0.466698064021766	2	10	6	NaN	2	3	0.0205708797960764	1	1	NaN	207	4	18	1	121	221	321	NaN	521	0.381958822021261	2	1	NaN	1549383.1216576	NaN	1549384.1051044	1549384.62162098
6	20	0	0	90	36.1581920903955	36.241610738255	23	0.766718248035759	2	9	2	NaN	2	5	0.0205708797960764	1	1	NaN	208	4	19	1	121	221	321	NaN	521	0.290068316506222	1	0	NaN	1549385.8218384	NaN	1549386.8053392	1549387.32187938
6	20	0	0	90	36.1581920903955	36.241610738255	16	0.533369216024876	2	3	6	NaN	1	4	0.0205708797960764	1	1	NaN	209	4	20	1	121	221	321	NaN	521	0.360753369284794	1	1	NaN	1549388.438872	NaN	1549389.422271	1549389.93879813
6	20	0	0	90	36.1581920903955	36.241610738255	24	0.800053824037313	2	2	4	NaN	1	3	0.0205708797960764	1	1	NaN	210	4	21	1	121	221	321	NaN	521	0.309068532194942	2	0	NaN	1549391.1223374	NaN	1549392.1058521	1549392.62240177
6	20	0	0	90	36.1581920903955	36.241610738255	11	0.366691336017102	2	4	4	NaN	1	4	0.0205708797960764	1	1	NaN	211	4	22	1	121	221	321	NaN	521	0.331960964249447	2	0	NaN	1549393.7560535	NaN	1549394.739454	1549395.25599564
6	20	0	0	90	36.1581920903955	36.241610738255	11	0.366691336017102	2	5	2	NaN	1	3	0.0205708797960764	1	1	NaN	212	4	23	1	121	221	321	NaN	521	0.537638121750206	2	0	NaN	1549396.4062933	NaN	1549397.3897054	1549397.90625738
6	20	0	0	90	36.1581920903955	36.241610738255	14	0.466698064021766	2	7	5	NaN	2	4	0.0205708797960764	1	1	NaN	213	4	24	1	121	221	321	NaN	521	0.342706669354811	2	1	NaN	1549399.273276	NaN	1549400.2566571	1549400.77319663
6	20	0	0	90	36.1581920903955	36.241610738255	8	0.266684608012438	2	5	2	NaN	1	3	0.0205708797960764	1	1	NaN	214	4	25	1	121	221	321	NaN	521	0.339795521926135	2	0	NaN	1549401.9402267	NaN	1549402.9236044	1549403.44013168
6	20	0	0	90	36.1581920903955	36.241610738255	16	0.533369216024876	2	8	5	NaN	2	3	0.0205708797960764	1	1	NaN	215	4	26	1	121	221	321	NaN	521	0.424381622113287	2	1	NaN	1549404.6070906	NaN	1549405.590526	1549406.10706498
6	20	0	0	90	36.1581920903955	36.241610738255	8	0.266684608012438	2	2	1	NaN	1	3	0.0205708797960764	1	1	NaN	216	4	27	1	121	221	321	NaN	521	0.386900121811777	2	0	NaN	1549407.3405943	NaN	1549408.3241321	1549408.84066398
6	20	0	0	90	36.1581920903955	36.241610738255	18	0.600040368027985	2	12	4	NaN	2	5	0.0205708797960764	1	1	NaN	217	4	28	1	121	221	321	NaN	521	0.205911074532196	2	1	NaN	1549410.0576522	NaN	1549411.0410579	1549411.55760353
6	20	0	0	90	36.1581920903955	36.241610738255	6	0.200013456009328	2	7	4	NaN	2	4	0.0205708797960764	1	1	NaN	218	4	29	1	121	221	321	NaN	521	0.256341800093651	1	0	NaN	1549412.5912299	NaN	1549413.574729	1549414.091175
6	20	0	0	90	36.1581920903955	36.241610738255	22	0.733382672034204	2	4	5	NaN	1	4	0.0205708797960764	1	1	NaN	219	4	30	1	121	221	321	NaN	521	0.270668521989137	2	0	NaN	1549415.2413935	NaN	1549416.2248841	1549416.74143738
6	20	0	0	90	36.1581920903955	36.241610738255	15	0.500033640023321	2	9	2	NaN	2	3	0.0205708797960764	1	1	NaN	220	4	31	1	121	221	321	NaN	521	0.413956864271313	1	0	NaN	1549417.8417704	NaN	1549418.8250312	1549419.34169114
6	20	0	0	90	36.1581920903955	36.241610738255	24	0.800053824037313	2	5	6	NaN	1	3	0.0205708797960764	1	1	NaN	221	4	32	1	121	221	321	NaN	521	0.296620254172012	2	0	NaN	1549420.5754294	NaN	1549421.5587564	1549422.07529375
6	20	0	0	90	36.1581920903955	36.241610738255	22	0.733382672034204	2	5	6	NaN	1	4	0.0205708797960764	1	1	NaN	222	4	33	1	121	221	321	NaN	521	0.271477916743606	2	0	NaN	1549423.1922552	NaN	1549424.1756826	1549424.69220938
6	20	0	0	90	36.1581920903955	36.241610738255	23	0.766718248035759	2	4	2	NaN	1	5	0.0205708797960764	1	1	NaN	223	4	34	1	121	221	321	NaN	521	0.295099174370989	1	1	NaN	1549425.792549	NaN	1549426.7759402	1549427.29247953
6	20	0	0	90	36.1581920903955	36.241610738255	20	0.666711520031095	2	9	3	NaN	2	4	0.0205708797960764	1	1	NaN	224	4	35	1	121	221	321	NaN	521	0.310721121961251	1	0	NaN	1549428.409463	NaN	1549429.3928566	1549429.90939558
6	20	0	0	90	36.1581920903955	36.241610738255	24	0.800053824037313	2	3	4	NaN	1	3	0.0205708797960764	1	1	NaN	225	4	36	1	121	221	321	NaN	521	0.221714669372886	1	1	NaN	1549431.0263756	NaN	1549432.009785	1549432.52631133
6	20	0	0	90	36.1581920903955	36.241610738255	10	0.333355760015547	2	3	6	NaN	1	5	0.0205708797960764	1	1	NaN	226	4	37	1	121	221	321	NaN	521	0.304212416522205	1	1	NaN	1549433.5598104	NaN	1549434.5433786	1549435.05989838
6	20	0	0	90	36.1581920903955	36.241610738255	11	0.366691336017102	2	6	2	NaN	1	4	0.0205708797960764	1	1	NaN	227	4	38	1	121	221	321	NaN	521	0.20604196912609	2	0	NaN	1549436.1935569	NaN	1549437.1769369	1549437.69349943
6	20	0	0	90	36.1581920903955	36.241610738255	21	0.700047096032649	2	12	6	NaN	2	5	0.0205708797960764	1	1	NaN	228	4	39	1	121	221	321	NaN	521	0.273768574465066	1	0	NaN	1549438.7104875	NaN	1549439.6938852	1549440.21041103
6	20	0	0	90	36.1581920903955	36.241610738255	17	0.56670479202643	2	10	4	NaN	2	3	0.0205708797960764	1	1	NaN	229	4	40	1	121	221	321	NaN	521	0.0968447693157941	2	1	NaN	1549441.3105871	NaN	1549442.2941184	1549442.81065783
6	20	0	0	90	36.1581920903955	36.241610738255	12	0.400026912018657	2	6	4	NaN	1	4	0.0205708797960764	1	1	NaN	230	4	41	1	121	221	321	NaN	521	0.0880035692825913	1	1	NaN	1549443.7276149	NaN	1549444.7110167	1549445.22756053
6	20	0	0	90	36.1581920903955	36.241610738255	8	0.266684608012438	2	2	6	NaN	1	4	0.0205708797960764	1	1	NaN	231	4	42	1	121	221	321	NaN	521	0.199561269255355	1	1	NaN	1549446.1445148	NaN	1549447.1279315	1549447.64446823
6	20	0	0	90	36.1581920903955	36.241610738255	6	0.200013456009328	2	8	2	NaN	2	5	0.0205708797960764	1	1	NaN	232	4	43	1	121	221	321	NaN	521	0.266177922021598	1	0	NaN	1549448.6613123	NaN	1549449.6448292	1549450.16138198
6	20	0	0	90	36.1581920903955	36.241610738255	10	0.333355760015547	2	2	6	NaN	1	3	0.0205708797960764	1	1	NaN	233	4	44	1	121	221	321	NaN	521	0.01042016944848	2	0	NaN	1549451.2450061	NaN	1549452.2284117	1549452.74497243
6	20	0	0	90	36.1581920903955	36.241610738255	10	0.333355760015547	2	6	4	NaN	1	4	0.0205708797960764	1	1	NaN	234	4	45	1	121	221	321	NaN	521	0.260353237157688	1	1	NaN	1549454.3953276	NaN	1549455.378765	1549455.89528836
6	20	0	0	90	36.1581920903955	36.241610738255	13	0.433362488020211	2	4	5	NaN	1	3	0.0205708797960764	1	1	NaN	235	4	46	1	121	221	321	NaN	521	0.501112532336265	1	1	NaN	1549456.9789473	NaN	1549457.962345	1549458.47887387
6	20	0	0	90	36.1581920903955	36.241610738255	25	0.833389400038868	2	10	6	NaN	2	4	0.0205708797960764	1	1	NaN	236	4	47	1	121	221	321	NaN	521	0.268269916530699	1	0	NaN	1549459.7958713	NaN	1549460.7792698	1549461.29581188
6	20	0	0	90	36.1581920903955	36.241610738255	9	0.300020184013993	2	3	4	NaN	1	4	0.0205708797960764	1	1	NaN	237	4	48	1	121	221	321	NaN	521	0.010411221999675	2	0	NaN	1549462.396157	NaN	1549463.3795457	1549463.89609688
6	20	0	0	90	36.1581920903955	36.241610738255	16	0.533369216024876	2	10	2	NaN	2	5	0.0205708797960764	1	1	NaN	238	4	49	1	121	221	321	NaN	521	0.262008779449388	2	1	NaN	1549464.7296756	NaN	1549465.713105	1549466.22962972
6	20	0	0	90	36.1581920903955	36.241610738255	25	0.833389400038868	2	11	6	NaN	2	4	0.0205708797960764	1	1	NaN	239	4	50	1	121	221	321	NaN	521	0.0104383167345077	2	1	NaN	1549467.3132856	NaN	1549468.2966897	1549468.81321458
6	20	0	0	90	36.1581920903955	36.241610738255	25	0.833389400038868	2	4	6	NaN	1	4	0.0205708797960764	1	1	NaN	240	4	51	1	121	221	321	NaN	521	0.0811157219577581	1	1	NaN	1549469.6468412	NaN	1549470.6302229	1549471.14677848
6	20	0	0	90	36.1581920903955	36.241610738255	13	0.433362488020211	2	11	6	NaN	2	4	0.0205708797960764	1	1	NaN	241	4	52	1	121	221	321	NaN	521	0.176845469279215	2	1	NaN	1549472.0470539	NaN	1549473.030469	1549473.54701363
6	20	0	0	90	36.1581920903955	36.241610738255	17	0.56670479202643	2	2	2	NaN	1	5	0.0205708797960764	1	1	NaN	242	4	53	1	121	221	321	NaN	521	0.420277116587386	2	0	NaN	1549474.5473444	NaN	1549475.5306963	1549476.04726198
6	20	0	0	90	36.1581920903955	36.241610738255	24	0.800053824037313	2	7	2	NaN	2	4	0.0205708797960764	1	1	NaN	243	4	54	1	121	221	321	NaN	521	0.332530922023579	1	0	NaN	1549477.347541	NaN	1549478.3309643	1549478.84753518
6	20	0	0	90	36.1581920903955	36.241610738255	20	0.666711520031095	2	4	6	NaN	1	4	0.0205708797960764	1	1	NaN	244	4	55	1	121	221	321	NaN	521	0.386281869374216	2	0	NaN	1549479.9978408	NaN	1549480.9812539	1549481.49778863
6	20	0	0	90	36.1581920903955	36.241610738255	24	0.800053824037313	2	6	1	NaN	1	4	0.0205708797960764	1	1	NaN	245	4	56	1	121	221	321	NaN	521	0.549388621933758	1	1	NaN	1549482.7148143	NaN	1549483.6980724	1549484.21472938
6	20	0	0	90	36.1581920903955	36.241610738255	22	0.733382672034204	2	9	2	NaN	2	5	0.0205708797960764	1	1	NaN	246	4	57	1	121	221	321	NaN	521	0.250003922032192	1	0	NaN	1549485.5817485	NaN	1549486.5651364	1549487.08167248
6	20	0	0	90	36.1581920903955	36.241610738255	11	0.366691336017102	2	1	2	NaN	1	4	0.0205708797960764	1	1	NaN	247	4	58	1	121	221	321	NaN	521	0.267033369280398	2	0	NaN	1549488.1486613	NaN	1549489.1320491	1549489.64859133
6	20	0	0	90	36.1581920903955	36.241610738255	19	0.63337594402954	2	2	4	NaN	1	5	0.0205708797960764	1	1	NaN	248	4	59	1	121	221	321	NaN	521	0.467901116469875	2	0	NaN	1549490.732241	NaN	1549491.7156372	1549492.23218368
6	20	0	0	90	36.1581920903955	36.241610738255	17	0.56670479202643	2	3	5	NaN	1	3	0.0205708797960764	1	1	NaN	249	4	60	1	121	221	321	NaN	521	0.251116126775742	1	1	NaN	1549493.5325643	NaN	1549494.5159409	1549495.03245387
6	20	0	0	90	36.1581920903955	36.241610738255	7	0.233349032010883	2	7	6	NaN	2	4	0.0205708797960764	1	1	NaN	250	4	61	1	121	221	321	NaN	521	0.12430452182889	2	1	NaN	1549496.0994646	NaN	1549497.0828297	1549497.59937428
6	20	0	0	90	36.1581920903955	36.241610738255	12	0.400026912018657	2	12	1	NaN	2	3	0.0205708797960764	1	1	NaN	251	4	62	1	121	221	321	NaN	521	0.266151769319549	2	1	NaN	1549498.5496556	NaN	1549499.5330584	1549500.04960553
6	20	0	0	90	36.1581920903955	36.241610738255	7	0.233349032010883	2	8	3	NaN	2	5	0.0205708797960764	1	1	NaN	252	4	63	1	121	221	321	NaN	521	0.922524316702038	2	1	NaN	1549501.1331221	NaN	1549502.1166548	1549502.63320088
6	20	0	0	90	36.1581920903955	36.241610738255	8	0.266684608012438	2	10	3	NaN	2	4	0.0205708797960764	1	1	NaN	253	5	1	1	121	221	321	NaN	521	0.165658916579559	1	0	NaN	1549509.4339664	NaN	1549510.4174407	1549510.93401448
6	20	0	0	90	36.1581920903955	36.241610738255	7	0.233349032010883	2	1	6	NaN	1	4	0.0205708797960764	1	1	NaN	254	5	2	1	121	221	321	NaN	521	0.14623426925391	2	0	NaN	1549511.9176733	NaN	1549512.9010845	1549513.41758323
6	20	0	0	90	36.1581920903955	36.241610738255	18	0.600040368027985	2	4	5	NaN	1	5	0.0205708797960764	1	1	NaN	255	5	3	1	121	221	321	NaN	521	0.223243216751143	1	1	NaN	1549514.3844243	NaN	1549515.3679419	1549515.88450128
6	20	0	0	90	36.1581920903955	36.241610738255	10	0.333355760015547	2	7	5	NaN	2	5	0.0205708797960764	1	1	NaN	256	5	4	1	121	221	321	NaN	521	0.232938069151714	1	0	NaN	1549516.9347908	NaN	1549517.9181973	1549518.43474153
6	20	0	0	90	36.1581920903955	36.241610738255	16	0.533369216024876	2	6	4	NaN	1	4	0.0205708797960764	1	1	NaN	257	5	5	1	121	221	321	NaN	521	0.250723321922123	1	1	NaN	1549519.4850528	NaN	1549520.4684541	1549520.98500658
6	20	0	0	90	36.1581920903955	36.241610738255	19	0.63337594402954	2	12	3	NaN	2	4	0.0205708797960764	1	1	NaN	258	5	6	1	121	221	321	NaN	521	0.107836837181821	2	1	NaN	1549522.0512936	NaN	1549523.0353619	1549523.55192706
6	20	0	0	90	36.1581920903955	36.241610738255	9	0.300020184013993	2	6	2	NaN	1	5	0.0205708797960764	1	1	NaN	259	5	7	1	121	221	321	NaN	521	0.2742942746263	1	1	NaN	1549524.4855388	NaN	1549525.4689396	1549525.98549043
6	20	0	0	90	36.1581920903955	36.241610738255	8	0.266684608012438	2	8	6	NaN	2	3	0.0205708797960764	1	1	NaN	260	5	8	1	121	221	321	NaN	521	0.138047021813691	2	1	NaN	1549527.0856844	NaN	1549528.0692147	1549528.58575188
6	20	0	0	90	36.1581920903955	36.241610738255	16	0.533369216024876	2	5	5	NaN	1	5	0.0205708797960764	1	1	NaN	261	5	9	1	121	221	321	NaN	521	0.384170364122838	2	0	NaN	1549529.5360442	NaN	1549530.5194431	1549531.03598184
6	20	0	0	90	36.1581920903955	36.241610738255	0	0	1	3	2	NaN	1	3	0.0205708797960764	1	1	NaN	262	5	10	1	111	211	311	NaN	511	0.339519964298233	1	1	NaN	1549532.2363383	NaN	1549533.21968	1549533.73624834
6	20	0	0	90	36.1581920903955	36.241610738255	16	0.533369216024876	2	9	5	NaN	2	5	0.0205708797960764	1	1	NaN	263	5	11	1	121	221	321	NaN	521	0.18492062180303	2	1	NaN	1549534.903347	NaN	1549535.8866558	1549536.40317888
6	20	0	0	90	36.1581920903955	36.241610738255	21	0.700047096032649	2	9	6	NaN	2	3	0.0205708797960764	1	1	NaN	264	5	12	1	121	221	321	NaN	521	0.268715379526839	2	1	NaN	1549537.403495	NaN	1549538.3868866	1549538.90342852
6	20	0	0	90	36.1581920903955	36.241610738255	8	0.266684608012438	2	1	3	NaN	1	4	0.0205708797960764	1	1	NaN	265	5	13	1	121	221	321	NaN	521	0.19604591652751	1	1	NaN	1549540.003622	NaN	1549540.9870555	1549541.50367788
6	20	0	0	90	36.1581920903955	36.241610738255	24	0.800053824037313	2	1	1	NaN	1	4	0.0205708797960764	1	1	NaN	266	5	14	1	121	221	321	NaN	521	0.167604832211509	2	0	NaN	1549542.5206561	NaN	1549543.5040421	1549544.02059547
6	20	0	0	90	36.1581920903955	36.241610738255	16	0.533369216024876	2	10	6	NaN	2	4	0.0205708797960764	1	1	NaN	267	5	15	1	121	221	321	NaN	521	0.467418621992692	1	0	NaN	1549545.0042447	NaN	1549545.9876111	1549546.50418928
6	20	0	0	90	36.1581920903955	36.241610738255	20	0.666711520031095	2	5	3	NaN	1	5	0.0205708797960764	1	1	NaN	268	5	16	1	121	221	321	NaN	521	0.315785669256002	2	0	NaN	1549547.7878208	NaN	1549548.7713049	1549549.28777243
6	20	0	0	90	36.1581920903955	36.241610738255	18	0.600040368027985	2	7	1	NaN	2	3	0.0205708797960764	1	1	NaN	269	5	17	1	121	221	321	NaN	521	0.217630021972582	2	1	NaN	1549550.4547463	NaN	1549551.4382042	1549551.95471218
6	20	0	0	90	36.1581920903955	36.241610738255	11	0.366691336017102	2	7	1	NaN	2	4	0.0205708797960764	1	1	NaN	270	5	18	1	121	221	321	NaN	521	0.235995574621484	2	1	NaN	1549552.9882281	NaN	1549553.9717725	1549554.48828813
6	20	0	0	90	36.1581920903955	36.241610738255	12	0.400026912018657	2	9	5	NaN	2	5	0.0205708797960764	1	1	NaN	271	5	19	1	121	221	321	NaN	521	0.613243221770972	1	0	NaN	1549555.5386172	NaN	1549556.5220109	1549557.03854348
6	20	0	0	90	36.1581920903955	36.241610738255	21	0.700047096032649	2	2	5	NaN	1	3	0.0205708797960764	1	1	NaN	272	5	20	1	121	221	321	NaN	521	0.376240969169885	2	0	NaN	1549558.4555544	NaN	1549559.4389382	1549559.95550253
6	20	0	0	90	36.1581920903955	36.241610738255	7	0.233349032010883	2	11	6	NaN	2	3	0.0205708797960764	1	1	NaN	273	5	21	1	121	221	321	NaN	521	0.538419221760705	1	0	NaN	1549561.2058403	NaN	1549562.1892032	1549562.70576138
6	20	0	0	90	36.1581920903955	36.241610738255	6	0.200013456009328	2	12	2	NaN	2	5	0.0205708797960764	1	1	NaN	274	5	22	1	121	221	321	NaN	521	0.191245122114196	2	1	NaN	1549564.0727868	NaN	1549565.0561765	1549565.57271248
6	20	0	0	90	36.1581920903955	36.241610738255	17	0.56670479202643	2	4	5	NaN	1	3	0.0205708797960764	1	1	NaN	275	5	23	1	121	221	321	NaN	521	0.467177689773962	2	0	NaN	1549566.5730018	NaN	1549567.5564145	1549568.07295961
6	20	0	0	90	36.1581920903955	36.241610738255	15	0.500033640023321	2	6	4	NaN	1	4	0.0205708797960764	1	1	NaN	276	5	24	1	121	221	321	NaN	521	0.450370621867478	1	1	NaN	1549569.3732989	NaN	1549570.3566904	1549570.87323328
6	20	0	0	90	36.1581920903955	36.241610738255	13	0.433362488020211	2	12	5	NaN	2	4	0.0205708797960764	1	1	NaN	277	5	25	1	121	221	321	NaN	521	0.299574174452573	1	0	NaN	1549572.1402444	NaN	1549573.1236316	1549573.64017093
6	20	0	0	90	36.1581920903955	36.241610738255	14	0.466698064021766	2	7	3	NaN	2	3	0.0205708797960764	1	1	NaN	278	5	26	1	121	221	321	NaN	521	0.546463022008538	2	1	NaN	1549574.7738412	NaN	1549575.7572013	1549576.27376168
6	20	0	0	90	36.1581920903955	36.241610738255	18	0.600040368027985	2	4	2	NaN	1	5	0.0205708797960764	1	1	NaN	279	5	27	1	121	221	321	NaN	521	0.374993437202647	1	1	NaN	1549577.640782	NaN	1549578.6241933	1549579.14071786
6	20	0	0	90	36.1581920903955	36.241610738255	13	0.433362488020211	2	10	3	NaN	2	4	0.0205708797960764	1	1	NaN	280	5	28	1	121	221	321	NaN	521	0.0103387422859669	2	1	NaN	1549580.3410267	NaN	1549581.3244167	1549581.84098546
6	20	0	0	90	36.1581920903955	36.241610738255	18	0.600040368027985	2	3	3	NaN	1	3	0.0205708797960764	1	1	NaN	281	5	29	1	121	221	321	NaN	521	0.646040001418442	2	0	NaN	1549582.6577938	NaN	1549583.6413653	1549584.1578551
6	20	0	0	90	36.1581920903955	36.241610738255	6	0.200013456009328	2	5	4	NaN	1	4	0.0205708797960764	1	1	NaN	282	5	30	1	121	221	321	NaN	521	0.238806316629052	1	1	NaN	1549585.6248821	NaN	1549586.6082693	1549587.12482668
6	20	0	0	90	36.1581920903955	36.241610738255	9	0.300020184013993	2	4	4	NaN	1	3	0.0205708797960764	1	1	NaN	283	5	31	1	121	221	321	NaN	521	0.552607921883464	2	0	NaN	1549588.1918146	NaN	1549589.1751826	1549589.69174418
6	20	0	0	90	36.1581920903955	36.241610738255	18	0.600040368027985	2	2	3	NaN	1	5	0.0205708797960764	1	1	NaN	284	5	32	1	121	221	321	NaN	521	0.220970521913841	1	1	NaN	1549591.0753988	NaN	1549592.0588041	1549592.57536488
6	20	0	0	90	36.1581920903955	36.241610738255	8	0.266684608012438	2	9	6	NaN	2	3	0.0205708797960764	1	1	NaN	285	5	33	1	121	221	321	NaN	521	0.175403779605404	1	0	NaN	1549593.6089897	NaN	1549594.5924064	1549595.10894342
6	20	0	0	90	36.1581920903955	36.241610738255	19	0.63337594402954	2	9	3	NaN	2	3	0.0205708797960764	1	1	NaN	286	5	34	1	121	221	321	NaN	521	0.250611616531387	1	0	NaN	1549596.1092637	NaN	1549597.0926261	1549597.60918858
6	20	0	0	90	36.1581920903955	36.241610738255	24	0.800053824037313	2	2	4	NaN	1	5	0.0205708797960764	1	1	NaN	287	5	35	1	121	221	321	NaN	521	0.220208442304283	2	0	NaN	1549598.6761464	NaN	1549599.6595676	1549600.17610726
6	20	0	0	90	36.1581920903955	36.241610738255	20	0.666711520031095	2	8	2	NaN	2	4	0.0205708797960764	1	1	NaN	288	5	36	1	121	221	321	NaN	521	0.229458116693422	1	0	NaN	1549601.2263459	NaN	1549602.2098126	1549602.72635638
6	20	0	0	90	36.1581920903955	36.241610738255	10	0.333355760015547	2	2	1	NaN	1	4	0.0205708797960764	1	1	NaN	289	5	37	1	121	221	321	NaN	521	0.527636411599815	2	0	NaN	1549603.7766682	NaN	1549604.7600515	1549605.27660419
6	20	0	0	90	36.1581920903955	36.241610738255	13	0.433362488020211	2	6	6	NaN	1	5	0.0205708797960764	1	1	NaN	290	5	38	1	121	221	321	NaN	521	0.269363321829587	1	1	NaN	1549606.6269352	NaN	1549607.6103531	1549608.12688998
6	20	0	0	90	36.1581920903955	36.241610738255	20	0.666711520031095	2	1	4	NaN	1	4	0.0205708797960764	1	1	NaN	291	5	39	1	121	221	321	NaN	521	0.189498321851715	2	0	NaN	1549609.2105029	NaN	1549610.193991	1549610.71047168
6	20	0	0	90	36.1581920903955	36.241610738255	13	0.433362488020211	2	3	6	NaN	1	4	0.0205708797960764	1	1	NaN	292	5	40	1	121	221	321	NaN	521	0.208971674321219	1	1	NaN	1549611.7106524	NaN	1549612.6941861	1549613.21071973
6	20	0	0	90	36.1581920903955	36.241610738255	6	0.200013456009328	2	7	2	NaN	2	3	0.0205708797960764	1	1	NaN	293	5	41	1	121	221	321	NaN	521	0.227992264088243	2	1	NaN	1549614.2443461	NaN	1549615.2277611	1549615.74429014
6	20	0	0	90	36.1581920903955	36.241610738255	11	0.366691336017102	2	10	2	NaN	2	4	0.0205708797960764	1	1	NaN	294	5	42	1	121	221	321	NaN	521	0.621780864428729	1	0	NaN	1549616.7946016	NaN	1549617.7780075	1549618.29455644
6	20	0	0	90	36.1581920903955	36.241610738255	10	0.333355760015547	2	8	3	NaN	2	3	0.0205708797960764	1	1	NaN	295	5	43	1	121	221	321	NaN	521	0.167262721806765	1	0	NaN	1549619.7448925	NaN	1549620.7282769	1549621.24483638
6	20	0	0	90	36.1581920903955	36.241610738255	15	0.500033640023321	2	8	1	NaN	2	3	0.0205708797960764	1	1	NaN	296	5	44	1	121	221	321	NaN	521	0.195547269191593	1	0	NaN	1549622.228343	NaN	1549623.211875	1549623.72840843
6	20	0	0	90	36.1581920903955	36.241610738255	6	0.200013456009328	2	10	4	NaN	2	4	0.0205708797960764	1	1	NaN	297	5	45	1	121	221	321	NaN	521	0.222514569293708	2	1	NaN	1549624.7453876	NaN	1549625.7287649	1549626.24533013
6	20	0	0	90	36.1581920903955	36.241610738255	17	0.56670479202643	2	1	1	NaN	1	5	0.0205708797960764	1	1	NaN	298	5	46	1	121	221	321	NaN	521	0.0562506692949682	2	0	NaN	1549627.2955105	NaN	1549628.2790466	1549628.79557233
6	20	0	0	90	36.1581920903955	36.241610738255	21	0.700047096032649	2	6	3	NaN	1	4	0.0205708797960764	1	1	NaN	299	5	47	1	121	221	321	NaN	521	0.217481116531417	1	1	NaN	1549629.6624273	NaN	1549630.6459303	1549631.16248888
6	20	0	0	90	36.1581920903955	36.241610738255	13	0.433362488020211	2	4	3	NaN	1	3	0.0205708797960764	1	1	NaN	300	5	48	1	121	221	321	NaN	521	0.099226689664647	2	0	NaN	1549632.2127892	NaN	1549633.1962006	1549633.71272841
6	20	0	0	90	36.1581920903955	36.241610738255	12	0.400026912018657	2	4	5	NaN	1	5	0.0205708797960764	1	1	NaN	301	5	49	1	121	221	321	NaN	521	0.154275869484991	1	1	NaN	1549634.6296766	NaN	1549635.6131543	1549636.12963063
6	20	0	0	90	36.1581920903955	36.241610738255	14	0.466698064021766	2	8	3	NaN	2	5	0.0205708797960764	1	1	NaN	302	5	50	1	121	221	321	NaN	521	0.159198958892375	2	1	NaN	1549637.0966538	NaN	1549638.0800055	1549638.59653604
6	20	0	0	90	36.1581920903955	36.241610738255	11	0.366691336017102	2	4	4	NaN	1	3	0.0205708797960764	1	1	NaN	303	5	51	1	121	221	321	NaN	521	0.211869716644287	1	1	NaN	1549639.5801851	NaN	1549640.5635506	1549641.08011018
6	20	0	0	90	36.1581920903955	36.241610738255	17	0.56670479202643	2	5	4	NaN	1	4	0.0205708797960764	1	1	NaN	304	5	52	1	121	221	321	NaN	521	0.13432046934031	2	0	NaN	1549642.113768	NaN	1549643.0971596	1549643.61369753
6	20	0	0	90	36.1581920903955	36.241610738255	21	0.700047096032649	2	5	3	NaN	1	4	0.0205708797960764	1	1	NaN	305	5	53	1	121	221	321	NaN	521	0.260438579600304	1	1	NaN	1549644.563953	NaN	1549645.5474351	1549646.06393882
6	20	0	0	90	36.1581920903955	36.241610738255	12	0.400026912018657	2	2	5	NaN	1	5	0.0205708797960764	1	1	NaN	306	5	54	1	121	221	321	NaN	521	0.108436384703964	2	0	NaN	1549647.1475998	NaN	1549648.1310084	1549648.64753222
6	20	0	0	90	36.1581920903955	36.241610738255	12	0.400026912018657	2	1	4	NaN	1	4	0.0205708797960764	1	1	NaN	307	5	55	1	121	221	321	NaN	521	0.307251516729593	1	1	NaN	1549649.5812239	NaN	1549650.5645665	1549651.08109438
6	20	0	0	90	36.1581920903955	36.241610738255	7	0.233349032010883	2	8	3	NaN	2	3	0.0205708797960764	1	1	NaN	308	5	56	1	121	221	321	NaN	521	0.153302611783147	2	1	NaN	1549652.2147334	NaN	1549653.1981224	1549653.71468709
6	20	0	0	90	36.1581920903955	36.241610738255	14	0.466698064021766	2	11	5	NaN	2	5	0.0205708797960764	1	1	NaN	309	5	57	1	121	221	321	NaN	521	0.0104067693464458	1	0	NaN	1549654.6816582	NaN	1549655.6650833	1549656.18159743
6	20	0	0	90	36.1581920903955	36.241610738255	21	0.700047096032649	2	7	4	NaN	2	3	0.0205708797960764	1	1	NaN	310	5	58	1	121	221	321	NaN	521	0.688487869221717	1	0	NaN	1549657.015204	NaN	1549657.9986046	1549658.51515963
6	20	0	0	90	36.1581920903955	36.241610738255	14	0.466698064021766	2	12	2	NaN	2	4	0.0205708797960764	1	1	NaN	311	5	59	1	121	221	321	NaN	521	0.152464621933177	1	0	NaN	1549660.0153875	NaN	1549660.9989132	1549661.51545978
6	20	0	0	90	36.1581920903955	36.241610738255	22	0.733382672034204	2	6	4	NaN	1	4	0.0205708797960764	1	1	NaN	312	5	60	1	121	221	321	NaN	521	0.269006616668776	1	1	NaN	1549662.4991089	NaN	1549663.4824914	1549663.99902878
6	20	0	0	90	36.1581920903955	36.241610738255	10	0.333355760015547	2	11	6	NaN	2	5	0.0205708797960764	1	1	NaN	313	5	61	1	121	221	321	NaN	521	0.084595532156527	2	1	NaN	1549665.0993487	NaN	1549666.0827559	1549666.59930147
6	20	0	0	90	36.1581920903955	36.241610738255	9	0.300020184013993	2	1	2	NaN	1	4	0.0205708797960764	1	1	NaN	314	5	62	1	121	221	321	NaN	521	0.172488626791164	1	1	NaN	1549667.4995611	NaN	1549668.4829873	1549668.99952877
6	20	0	0	90	36.1581920903955	36.241610738255	25	0.833389400038868	2	1	4	NaN	1	3	0.0205708797960764	1	1	NaN	315	5	63	1	121	221	321	NaN	521	0.208960921969265	2	0	NaN	1549669.9831557	NaN	1549670.966574	1549671.48311028
6	20	0	0	90	36.1581920903955	36.241610738255	14	0.466698064021766	2	8	4	NaN	2	3	0.0205708797960764	1	1	NaN	316	6	1	1	121	221	321	NaN	521	0.686773626832291	1	0	NaN	1549682.6177011	NaN	1549683.6011417	1549684.11768587
6	20	0	0	90	36.1581920903955	36.241610738255	22	0.733382672034204	2	11	5	NaN	2	5	0.0205708797960764	1	1	NaN	317	6	2	1	121	221	321	NaN	521	0.370343069313094	1	0	NaN	1549685.7180547	NaN	1549686.7014512	1549687.21798873
6	20	0	0	90	36.1581920903955	36.241610738255	16	0.533369216024876	2	8	4	NaN	2	5	0.0205708797960764	1	1	NaN	318	6	3	1	121	221	321	NaN	521	0.109710021875799	1	0	NaN	1549688.418185	NaN	1549689.4017012	1549689.91824258
6	20	0	0	90	36.1581920903955	36.241610738255	14	0.466698064021766	2	11	4	NaN	2	3	0.0205708797960764	1	1	NaN	319	6	4	1	121	221	321	NaN	521	0.0103977217804641	2	1	NaN	1549690.8518536	NaN	1549691.8352707	1549692.35181948
6	20	0	0	90	36.1581920903955	36.241610738255	20	0.666711520031095	2	12	1	NaN	2	4	0.0205708797960764	1	1	NaN	320	6	5	1	121	221	321	NaN	521	0.951628479640931	2	1	NaN	1549693.1687826	NaN	1549694.1521815	1549694.66871822
6	20	0	0	90	36.1581920903955	36.241610738255	19	0.63337594402954	2	3	2	NaN	1	4	0.0205708797960764	1	1	NaN	321	6	6	1	121	221	321	NaN	521	0.308066421886906	1	1	NaN	1549696.4524338	NaN	1549697.4358375	1549697.95236298
6	20	0	0	90	36.1581920903955	36.241610738255	10	0.333355760015547	2	12	2	NaN	2	4	0.0205708797960764	1	1	NaN	322	6	7	1	121	221	321	NaN	521	0.548639822052792	1	0	NaN	1549699.6193719	NaN	1549700.6028027	1549701.11934628
6	20	0	0	90	36.1581920903955	36.241610738255	7	0.233349032010883	2	2	2	NaN	1	3	0.0205708797960764	1	1	NaN	323	6	8	1	121	221	321	NaN	521	0.202090721810237	2	0	NaN	1549702.4863431	NaN	1549703.4697411	1549703.98629408
6	20	0	0	90	36.1581920903955	36.241610738255	17	0.56670479202643	2	12	5	NaN	2	4	0.0205708797960764	1	1	NaN	324	6	9	1	121	221	321	NaN	521	0.188844837015495	1	0	NaN	1549705.0031921	NaN	1549705.9866589	1549706.50320676
6	20	0	0	90	36.1581920903955	36.241610738255	0	0	1	11	1	NaN	2	3	0.0205708797960764	1	1	NaN	325	6	10	1	111	211	311	NaN	511	0.128982569323853	1	0	NaN	1549707.5035507	NaN	1549708.4869192	1549709.00345143
6	20	0	0	90	36.1581920903955	36.241610738255	22	0.733382672034204	2	1	6	NaN	1	3	0.0205708797960764	1	1	NaN	326	6	11	1	121	221	321	NaN	521	0.246285216649994	2	0	NaN	1549709.9536338	NaN	1549710.937163	1549711.45370938
6	20	0	0	90	36.1581920903955	36.241610738255	25	0.833389400038868	2	11	1	NaN	2	4	0.0205708797960764	1	1	NaN	327	6	12	1	121	221	321	NaN	521	0.117325569503009	1	0	NaN	1549712.7705547	NaN	1549713.7540722	1549714.27063893
6	20	0	0	90	36.1581920903955	36.241610738255	20	0.666711520031095	2	3	3	NaN	1	3	0.0205708797960764	1	1	NaN	328	6	13	1	121	221	321	NaN	521	0.332312874495983	1	1	NaN	1549715.2041298	NaN	1549716.1876781	1549716.70421163
6	20	0	0	90	36.1581920903955	36.241610738255	17	0.56670479202643	2	6	1	NaN	1	4	0.0205708797960764	1	1	NaN	329	6	14	1	121	221	321	NaN	521	0.33770466921851	2	0	NaN	1549717.8544318	NaN	1549718.8379455	1549719.35446673
6	20	0	0	90	36.1581920903955	36.241610738255	8	0.266684608012438	2	4	2	NaN	1	5	0.0205708797960764	1	1	NaN	330	6	15	1	121	221	321	NaN	521	0.175509521970525	1	1	NaN	1549720.50478	NaN	1549721.4881831	1549722.00473078
6	20	0	0	90	36.1581920903955	36.241610738255	25	0.833389400038868	2	12	6	NaN	2	5	0.0205708797960764	1	1	NaN	331	6	16	1	121	221	321	NaN	521	0.193586432142183	2	1	NaN	1549723.4383765	NaN	1549724.4217914	1549724.93834567
6	20	0	0	90	36.1581920903955	36.241610738255	20	0.666711520031095	2	4	3	NaN	1	3	0.0205708797960764	1	1	NaN	332	6	17	1	121	221	321	NaN	521	0.228772337082773	1	1	NaN	1549725.9553107	NaN	1549726.9387225	1549727.45527066
6	20	0	0	90	36.1581920903955	36.241610738255	18	0.600040368027985	2	9	6	NaN	2	3	0.0205708797960764	1	1	NaN	333	6	18	1	121	221	321	NaN	521	0.310816316632554	2	1	NaN	1549728.5056095	NaN	1549729.4889732	1549730.00551088
6	20	0	0	90	36.1581920903955	36.241610738255	22	0.733382672034204	2	7	2	NaN	2	5	0.0205708797960764	1	1	NaN	334	6	19	1	121	221	321	NaN	521	0.010380674386397	1	0	NaN	1549731.1391029	NaN	1549732.1225652	1549732.63910413
6	20	0	0	90	36.1581920903955	36.241610738255	13	0.433362488020211	2	1	3	NaN	1	4	0.0205708797960764	1	1	NaN	335	6	20	1	121	221	321	NaN	521	0.167773569468409	1	1	NaN	1549733.4727327	NaN	1549734.4561413	1549734.97266673
6	20	0	0	90	36.1581920903955	36.241610738255	0	0	1	10	4	NaN	2	3	0.0205708797960764	1	1	NaN	336	6	21	1	111	211	311	NaN	511	0.139092616504058	2	1	NaN	1549735.9728586	NaN	1549736.9564066	1549737.47290318
6	20	0	0	90	36.1581920903955	36.241610738255	17	0.56670479202643	2	3	1	NaN	1	4	0.0205708797960764	1	1	NaN	337	6	22	1	121	221	321	NaN	521	0.272836769232526	2	0	NaN	1549738.4231707	NaN	1549739.4066022	1549739.92315033
6	20	0	0	90	36.1581920903955	36.241610738255	0	0	1	6	2	NaN	1	5	0.0205708797960764	1	1	NaN	338	6	23	1	111	211	311	NaN	511	0.0653307219035923	1	1	NaN	1549741.0068067	NaN	1549741.9902334	1549742.50674328
6	20	0	0	90	36.1581920903955	36.241610738255	17	0.56670479202643	2	11	3	NaN	2	3	0.0205708797960764	1	1	NaN	339	6	24	1	121	221	321	NaN	521	0.264407216571271	2	1	NaN	1549743.6236933	NaN	1549744.6071222	1549745.12365668
6	20	0	0	90	36.1581920903955	36.241610738255	15	0.500033640023321	2	11	6	NaN	2	5	0.0205708797960764	1	1	NaN	340	6	25	1	121	221	321	NaN	521	0.144787021912634	1	0	NaN	1549746.207305	NaN	1549747.1907161	1549747.70725398
6	20	0	0	90	36.1581920903955	36.241610738255	8	0.266684608012438	2	9	2	NaN	2	3	0.0205708797960764	1	1	NaN	341	6	26	1	121	221	321	NaN	521	0.0751914998982102	2	1	NaN	1549748.7409202	NaN	1549749.7242869	1549750.2408572
6	20	0	0	90	36.1581920903955	36.241610738255	25	0.833389400038868	2	6	1	NaN	1	3	0.0205708797960764	1	1	NaN	342	6	27	1	121	221	321	NaN	521	0.379952121758834	1	1	NaN	1549751.124324	NaN	1549752.1078554	1549752.62439478
6	20	0	0	90	36.1581920903955	36.241610738255	0	0	1	9	1	NaN	2	5	0.0205708797960764	1	1	NaN	343	6	28	1	111	211	311	NaN	511	0.212663216749206	1	0	NaN	1549753.8913984	NaN	1549754.874703	1549755.39134058
6	20	0	0	90	36.1581920903955	36.241610738255	0	0	1	10	5	NaN	2	4	0.0205708797960764	1	1	NaN	344	6	29	1	111	211	311	NaN	511	0.198901464231312	1	0	NaN	1549756.4250134	NaN	1549757.4083841	1549757.92491194
6	20	0	0	90	36.1581920903955	36.241610738255	25	0.833389400038868	2	9	3	NaN	2	4	0.0205708797960764	1	1	NaN	345	6	30	1	121	221	321	NaN	521	0.0105039642658085	1	0	NaN	1549758.941769	NaN	1549759.9252842	1549760.44183644
6	20	0	0	90	36.1581920903955	36.241610738255	7	0.233349032010883	2	4	1	NaN	1	4	0.0205708797960764	1	1	NaN	346	6	31	1	121	221	321	NaN	521	0.12504077446647	2	0	NaN	1549761.2754687	NaN	1549762.2588597	1549762.77540283
6	20	0	0	90	36.1581920903955	36.241610738255	11	0.366691336017102	2	12	5	NaN	2	5	0.0205708797960764	1	1	NaN	347	6	32	1	121	221	321	NaN	521	0.275116521865129	1	0	NaN	1549763.7090148	NaN	1549764.6924272	1549765.20897288
6	20	0	0	90	36.1581920903955	36.241610738255	6	0.200013456009328	2	5	4	NaN	1	4	0.0205708797960764	1	1	NaN	348	6	33	1	121	221	321	NaN	521	0.0104173219297081	2	0	NaN	1549766.2926102	NaN	1549767.2760243	1549767.79255248
6	20	0	0	90	36.1581920903955	36.241610738255	24	0.800053824037313	2	9	4	NaN	2	5	0.0205708797960764	1	1	NaN	349	6	34	1	121	221	321	NaN	521	0.366612121928483	2	1	NaN	1549768.6095148	NaN	1549769.5929492	1549770.10945078
6	20	0	0	90	36.1581920903955	36.241610738255	15	0.500033640023321	2	12	5	NaN	2	3	0.0205708797960764	1	1	NaN	350	6	35	1	121	221	321	NaN	521	0.29093555896543	2	1	NaN	1549771.2930904	NaN	1549772.2765314	1549772.79304214
6	20	0	0	90	36.1581920903955	36.241610738255	14	0.466698064021766	2	1	1	NaN	1	5	0.0205708797960764	1	1	NaN	351	6	36	1	121	221	321	NaN	521	0.346046274527907	2	0	NaN	1549773.9100975	NaN	1549774.8933361	1549775.40996803
6	20	0	0	90	36.1581920903955	36.241610738255	13	0.433362488020211	2	8	5	NaN	2	3	0.0205708797960764	1	1	NaN	352	6	37	1	121	221	321	NaN	521	0.111199916573241	2	1	NaN	1549776.5769545	NaN	1549777.5603722	1549778.07689278
6	20	0	0	90	36.1581920903955	36.241610738255	9	0.300020184013993	2	5	4	NaN	1	5	0.0205708797960764	1	1	NaN	353	6	38	1	121	221	321	NaN	521	0.230014269240201	2	0	NaN	1549779.0105607	NaN	1549779.9939344	1549780.51046313
6	20	0	0	90	36.1581920903955	36.241610738255	0	0	1	12	1	NaN	2	5	0.0205708797960764	1	1	NaN	354	6	39	1	111	211	311	NaN	511	0.215909511549398	2	1	NaN	1549781.5606575	NaN	1549782.5441684	1549783.06070819
6	20	0	0	90	36.1581920903955	36.241610738255	8	0.266684608012438	2	3	6	NaN	1	4	0.0205708797960764	1	1	NaN	355	6	40	1	121	221	321	NaN	521	0.0103957219980657	1	1	NaN	1549784.0943125	NaN	1549785.0777492	1549785.59430568
6	20	0	0	90	36.1581920903955	36.241610738255	9	0.300020184013993	2	5	2	NaN	1	4	0.0205708797960764	1	1	NaN	356	6	41	1	121	221	321	NaN	521	0.269059921847656	2	0	NaN	1549786.4111818	NaN	1549787.394684	1549787.91119128
6	20	0	0	90	36.1581920903955	36.241610738255	17	0.56670479202643	2	7	2	NaN	2	3	0.0205708797960764	1	1	NaN	357	6	42	1	121	221	321	NaN	521	0.397728316718712	2	1	NaN	1549788.9948363	NaN	1549789.9782151	1549790.49477708
6	20	0	0	90	36.1581920903955	36.241610738255	20	0.666711520031095	2	6	5	NaN	1	4	0.0205708797960764	1	1	NaN	358	6	43	1	121	221	321	NaN	521	0.696051721926779	1	1	NaN	1549791.7283845	NaN	1549792.7118448	1549793.22838498
6	20	0	0	90	36.1581920903955	36.241610738255	24	0.800053824037313	2	6	6	NaN	1	4	0.0205708797960764	1	1	NaN	359	6	44	1	121	221	321	NaN	521	0.206909622065723	2	0	NaN	1549794.7454109	NaN	1549795.7288003	1549796.24535088
6	20	0	0	90	36.1581920903955	36.241610738255	6	0.200013456009328	2	11	4	NaN	2	5	0.0205708797960764	1	1	NaN	360	6	45	1	121	221	321	NaN	521	0.010395921766758	1	0	NaN	1549797.2790036	NaN	1549798.2623893	1549798.77892978
6	20	0	0	90	36.1581920903955	36.241610738255	20	0.666711520031095	2	9	4	NaN	2	3	0.0205708797960764	1	1	NaN	361	6	46	1	121	221	321	NaN	521	0.155458874534816	2	1	NaN	1549799.6125229	NaN	1549800.5959349	1549801.11249153
6	20	0	0	90	36.1581920903955	36.241610738255	9	0.300020184013993	2	1	5	NaN	1	5	0.0205708797960764	1	1	NaN	362	6	47	1	121	221	321	NaN	521	0.152126669418067	2	0	NaN	1549802.0961179	NaN	1549803.0795104	1549803.59606303
6	20	0	0	90	36.1581920903955	36.241610738255	20	0.666711520031095	2	7	4	NaN	2	3	0.0205708797960764	1	1	NaN	363	6	48	1	121	221	321	NaN	521	0.185780327068642	2	1	NaN	1549804.6463838	NaN	1549805.6297793	1549806.14631857
6	20	0	0	90	36.1581920903955	36.241610738255	21	0.700047096032649	2	1	4	NaN	1	5	0.0205708797960764	1	1	NaN	364	6	49	1	121	221	321	NaN	521	0.0104781691916287	1	1	NaN	1549807.1632904	NaN	1549808.1466939	1549808.66322423
6	20	0	0	90	36.1581920903955	36.241610738255	25	0.833389400038868	2	2	6	NaN	1	5	0.0205708797960764	1	1	NaN	365	6	50	1	121	221	321	NaN	521	0.223839121870697	2	0	NaN	1549809.496847	NaN	1549810.4802457	1549810.99679498
6	20	0	0	90	36.1581920903955	36.241610738255	25	0.833389400038868	2	9	5	NaN	2	3	0.0205708797960764	1	1	NaN	366	6	51	1	121	221	321	NaN	521	0.105023616459221	2	1	NaN	1549812.0470171	NaN	1549813.0305347	1549813.54703748
6	20	0	0	90	36.1581920903955	36.241610738255	19	0.63337594402954	2	11	3	NaN	2	5	0.0205708797960764	1	1	NaN	367	6	52	1	121	221	321	NaN	521	0.736068221973255	2	1	NaN	1549814.4639925	NaN	1549815.447401	1549815.96396698
6	20	0	0	90	36.1581920903955	36.241610738255	9	0.300020184013993	2	2	4	NaN	1	3	0.0205708797960764	1	1	NaN	368	6	53	1	121	221	321	NaN	521	0.0103973220102489	1	1	NaN	1549817.5143244	NaN	1549818.4977095	1549819.01424988
6	20	0	0	90	36.1581920903955	36.241610738255	23	0.766718248035759	2	10	6	NaN	2	3	0.0205708797960764	1	1	NaN	369	6	54	1	121	221	321	NaN	521	0.0244469218887389	2	1	NaN	1549819.8477142	NaN	1549820.8312872	1549821.34781048
6	20	0	0	90	36.1581920903955	36.241610738255	18	0.600040368027985	2	8	2	NaN	2	4	0.0205708797960764	1	1	NaN	370	6	55	1	121	221	321	NaN	521	0.186617569299415	1	0	NaN	1549822.1814246	NaN	1549823.1648287	1549823.68136533
6	20	0	0	90	36.1581920903955	36.241610738255	13	0.433362488020211	2	7	3	NaN	2	5	0.0205708797960764	1	1	NaN	371	6	56	1	121	221	321	NaN	521	0.534986216807738	2	1	NaN	1549824.6817797	NaN	1549825.6650881	1549826.18161388
6	20	0	0	90	36.1581920903955	36.241610738255	17	0.56670479202643	2	9	6	NaN	2	4	0.0205708797960764	1	1	NaN	372	6	57	1	121	221	321	NaN	521	0.212715269299224	2	1	NaN	1549827.5319494	NaN	1549828.5153479	1549829.03190773
6	20	0	0	90	36.1581920903955	36.241610738255	13	0.433362488020211	2	2	1	NaN	1	5	0.0205708797960764	1	1	NaN	373	6	58	1	121	221	321	NaN	521	0.0626975744962692	1	1	NaN	1549830.0655974	NaN	1549831.0489626	1549831.56548143
6	20	0	0	90	36.1581920903955	36.241610738255	15	0.500033640023321	2	4	3	NaN	1	3	0.0205708797960764	1	1	NaN	374	6	59	1	121	221	321	NaN	521	0.470159721793607	2	0	NaN	1549833.482512	NaN	1549834.4659377	1549834.98247628
6	20	0	0	90	36.1581920903955	36.241610738255	6	0.200013456009328	2	3	2	NaN	1	3	0.0205708797960764	1	1	NaN	375	6	60	1	121	221	321	NaN	521	0.445845269365236	1	1	NaN	1549836.282815	NaN	1549837.2662107	1549837.78274833
6	20	0	0	90	36.1581920903955	36.241610738255	0	0	1	12	6	NaN	2	3	0.0205708797960764	1	1	NaN	376	6	61	1	111	211	311	NaN	511	0.110375421820208	2	1	NaN	1549839.0496154	NaN	1549840.0331628	1549840.54969748
6	20	0	0	90	36.1581920903955	36.241610738255	19	0.63337594402954	2	10	3	NaN	2	3	0.0205708797960764	1	1	NaN	377	6	62	1	121	221	321	NaN	521	0.397253826726228	2	1	NaN	1549841.4833325	NaN	1549842.4667169	1549842.98327177
6	20	0	0	90	36.1581920903955	36.241610738255	6	0.200013456009328	2	1	1	NaN	1	3	0.0205708797960764	1	1	NaN	378	6	63	1	121	221	321	NaN	521	0.168086469173431	2	0	NaN	1549844.2002752	NaN	1549845.1836694	1549845.70019683
6	20	0	0	90	36.1581920903955	36.241610738255	10	0.333355760015547	2	11	3	NaN	2	5	0.0205708797960764	1	1	NaN	379	7	1	1	121	221	321	NaN	521	0.771536016603932	2	1	NaN	1549856.4847991	NaN	1549857.4681727	1549857.98473948
6	20	0	0	90	36.1581920903955	36.241610738255	16	0.533369216024876	2	1	2	NaN	1	3	0.0205708797960764	1	1	NaN	380	7	2	1	121	221	321	NaN	521	0.239568069344386	1	1	NaN	1549859.5851306	NaN	1549860.5685051	1549861.08505723
6	20	0	0	90	36.1581920903955	36.241610738255	8	0.266684608012438	2	10	5	NaN	2	5	0.0205708797960764	1	1	NaN	381	7	3	1	121	221	321	NaN	521	0.201375979464501	2	1	NaN	1549862.1352133	NaN	1549863.1187504	1549863.63528722
6	20	0	0	90	36.1581920903955	36.241610738255	22	0.733382672034204	2	3	4	NaN	1	3	0.0205708797960764	1	1	NaN	382	7	4	1	121	221	321	NaN	521	0.404399421764538	2	0	NaN	1549864.6522039	NaN	1549865.6356549	1549866.15220908
6	20	0	0	90	36.1581920903955	36.241610738255	13	0.433362488020211	2	9	1	NaN	2	5	0.0205708797960764	1	1	NaN	383	7	5	1	121	221	321	NaN	521	0.27030082186684	2	1	NaN	1549867.385861	NaN	1549868.3692454	1549868.88580618
6	20	0	0	90	36.1581920903955	36.241610738255	10	0.333355760015547	2	9	5	NaN	2	3	0.0205708797960764	1	1	NaN	384	7	6	1	121	221	321	NaN	521	0.28718126937747	2	1	NaN	1549869.9694258	NaN	1549870.9528378	1549871.46939673
6	20	0	0	90	36.1581920903955	36.241610738255	17	0.56670479202643	2	8	1	NaN	2	5	0.0205708797960764	1	1	NaN	385	7	7	1	121	221	321	NaN	521	0.0104389167390764	1	0	NaN	1549875.0366367	NaN	1549876.0200425	1549876.53655038
6	20	0	0	90	36.1581920903955	36.241610738255	18	0.600040368027985	2	11	6	NaN	2	5	0.0205708797960764	1	1	NaN	386	7	8	1	121	221	321	NaN	521	0.272757621947676	1	0	NaN	1549878.3035823	NaN	1549879.2869881	1549879.80354968
6	20	0	0	90	36.1581920903955	36.241610738255	22	0.733382672034204	2	12	4	NaN	2	3	0.0205708797960764	1	1	NaN	387	7	9	1	121	221	321	NaN	521	0.0963337218854576	2	1	NaN	1549880.9038673	NaN	1549881.8872475	1549882.40379578
6	20	0	0	90	36.1581920903955	36.241610738255	11	0.366691336017102	2	1	2	NaN	1	5	0.0205708797960764	1	1	NaN	388	7	10	1	121	221	321	NaN	521	0.271592169301584	2	0	NaN	1549883.3207628	NaN	1549884.3041485	1549884.82069583
6	20	0	0	90	36.1581920903955	36.241610738255	25	0.833389400038868	2	6	1	NaN	1	4	0.0205708797960764	1	1	NaN	389	7	11	1	121	221	321	NaN	521	0.176289536990225	1	1	NaN	1549885.9043726	NaN	1549886.8877274	1549887.40430146
6	20	0	0	90	36.1581920903955	36.241610738255	17	0.56670479202643	2	9	4	NaN	2	3	0.0205708797960764	1	1	NaN	390	7	12	1	121	221	321	NaN	521	0.0758015166502446	2	1	NaN	1549888.4046124	NaN	1549889.3879011	1549889.90453178
6	20	0	0	90	36.1581920903955	36.241610738255	21	0.700047096032649	2	2	4	NaN	1	3	0.0205708797960764	1	1	NaN	391	7	13	1	121	221	321	NaN	521	0.291363616706803	2	0	NaN	1549890.8048255	NaN	1549891.788249	1549892.30476268
6	20	0	0	90	36.1581920903955	36.241610738255	7	0.233349032010883	2	3	6	NaN	1	5	0.0205708797960764	1	1	NaN	392	7	14	1	121	221	321	NaN	521	0.243549616774544	1	1	NaN	1549893.4049529	NaN	1549894.3884987	1549894.90503378
6	20	0	0	90	36.1581920903955	36.241610738255	19	0.63337594402954	2	8	3	NaN	2	5	0.0205708797960764	1	1	NaN	393	7	15	1	121	221	321	NaN	521	0.252787664067	2	1	NaN	1549895.971998	NaN	1549896.9553902	1549897.47194234
6	20	0	0	90	36.1581920903955	36.241610738255	10	0.333355760015547	2	6	5	NaN	1	4	0.0205708797960764	1	1	NaN	394	7	16	1	121	221	321	NaN	521	0.285754764452577	2	0	NaN	1549898.5389012	NaN	1549899.5223116	1549900.03886604
6	20	0	0	90	36.1581920903955	36.241610738255	20	0.666711520031095	2	1	3	NaN	1	3	0.0205708797960764	1	1	NaN	395	7	17	1	121	221	321	NaN	521	0.0103950793854892	2	0	NaN	1549901.1558611	NaN	1549902.139269	1549902.65578992
6	20	0	0	90	36.1581920903955	36.241610738255	9	0.300020184013993	2	9	4	NaN	2	3	0.0205708797960764	1	1	NaN	396	7	18	1	121	221	321	NaN	521	0.247250369284302	1	0	NaN	1549903.4893926	NaN	1549904.4728271	1549904.98934983
6	20	0	0	90	36.1581920903955	36.241610738255	24	0.800053824037313	2	9	3	NaN	2	5	0.0205708797960764	1	1	NaN	397	7	19	1	121	221	321	NaN	521	0.144158921902999	1	0	NaN	1549906.0563301	NaN	1549907.0397142	1549907.55626818
6	20	0	0	90	36.1581920903955	36.241610738255	19	0.63337594402954	2	7	3	NaN	2	4	0.0205708797960764	1	1	NaN	398	7	20	1	121	221	321	NaN	521	0.0104095693677664	1	0	NaN	1549908.506428	NaN	1549909.4899635	1549910.00651393
6	20	0	0	90	36.1581920903955	36.241610738255	20	0.666711520031095	2	7	4	NaN	2	5	0.0205708797960764	1	1	NaN	399	7	21	1	121	221	321	NaN	521	0.0400768166873604	2	1	NaN	1549910.8400125	NaN	1549911.8235111	1549912.34006478
6	20	0	0	90	36.1581920903955	36.241610738255	21	0.700047096032649	2	5	5	NaN	1	5	0.0205708797960764	1	1	NaN	400	7	22	1	121	221	321	NaN	521	0.225797169376165	2	0	NaN	1549913.1903481	NaN	1549914.1737639	1549914.69030703
6	20	0	0	90	36.1581920903955	36.241610738255	14	0.466698064021766	2	6	6	NaN	1	4	0.0205708797960764	1	1	NaN	401	7	23	1	121	221	321	NaN	521	0.115678137168288	2	0	NaN	1549915.7405986	NaN	1549916.7240287	1549917.24055536
6	20	0	0	90	36.1581920903955	36.241610738255	15	0.500033640023321	2	12	2	NaN	2	3	0.0205708797960764	1	1	NaN	402	7	24	1	121	221	321	NaN	521	0.234391174511984	1	0	NaN	1549918.1741762	NaN	1549919.1576	1549919.67413103
6	20	0	0	90	36.1581920903955	36.241610738255	7	0.233349032010883	2	12	6	NaN	2	3	0.0205708797960764	1	1	NaN	403	7	25	1	121	221	321	NaN	521	0.300417021848261	2	1	NaN	1549920.7244203	NaN	1549921.7078419	1549922.22438188
6	20	0	0	90	36.1581920903955	36.241610738255	17	0.56670479202643	2	4	4	NaN	1	3	0.0205708797960764	1	1	NaN	404	7	26	1	121	221	321	NaN	521	0.194297221954912	1	1	NaN	1549923.3580132	NaN	1549924.3414143	1549924.85796968
6	20	0	0	90	36.1581920903955	36.241610738255	6	0.200013456009328	2	4	1	NaN	1	4	0.0205708797960764	1	1	NaN	405	7	27	1	121	221	321	NaN	521	0.246208421885967	1	1	NaN	1549925.8582698	NaN	1549926.84168	1549927.35821308
6	20	0	0	90	36.1581920903955	36.241610738255	21	0.700047096032649	2	1	1	NaN	1	4	0.0205708797960764	1	1	NaN	406	7	28	1	121	221	321	NaN	521	0.279605421936139	1	1	NaN	1549928.4250685	NaN	1549929.4086143	1549929.92513338
6	20	0	0	90	36.1581920903955	36.241610738255	7	0.233349032010883	2	4	2	NaN	1	5	0.0205708797960764	1	1	NaN	407	7	29	1	121	221	321	NaN	521	0.159385321894661	2	0	NaN	1549931.0253868	NaN	1549932.0088251	1549932.52538578
6	20	0	0	90	36.1581920903955	36.241610738255	18	0.600040368027985	2	1	5	NaN	1	3	0.0205708797960764	1	1	NaN	408	7	30	1	121	221	321	NaN	521	0.275406842352822	1	1	NaN	1549933.5090203	NaN	1549934.492418	1549935.00897296
6	20	0	0	90	36.1581920903955	36.241610738255	11	0.366691336017102	2	6	3	NaN	1	3	0.0205708797960764	1	1	NaN	409	7	31	1	121	221	321	NaN	521	0.107341779395938	2	0	NaN	1549936.1092678	NaN	1549937.0926853	1549937.60922072
6	20	0	0	90	36.1581920903955	36.241610738255	19	0.63337594402954	2	4	5	NaN	1	3	0.0205708797960764	1	1	NaN	410	7	32	1	121	221	321	NaN	521	0.138605621876195	2	0	NaN	1549938.5261668	NaN	1549939.5096093	1549940.02612688
6	20	0	0	90	36.1581920903955	36.241610738255	8	0.266684608012438	2	12	3	NaN	2	3	0.0205708797960764	1	1	NaN	411	7	33	1	121	221	321	NaN	521	0.119551569456235	1	0	NaN	1549940.9931415	NaN	1549941.9764878	1549942.49303033
6	20	0	0	90	36.1581920903955	36.241610738255	7	0.233349032010883	2	6	5	NaN	1	3	0.0205708797960764	1	1	NaN	412	7	34	1	121	221	321	NaN	521	0.29418771667406	1	1	NaN	1549943.4266457	NaN	1549944.4100664	1549944.92659388
6	20	0	0	90	36.1581920903955	36.241610738255	8	0.266684608012438	2	12	4	NaN	2	3	0.0205708797960764	1	1	NaN	413	7	35	1	121	221	321	NaN	521	0.212629969464615	1	0	NaN	1549946.043593	NaN	1549947.0269811	1549947.54352783
6	20	0	0	90	36.1581920903955	36.241610738255	19	0.63337594402954	2	6	2	NaN	1	3	0.0205708797960764	1	1	NaN	414	7	36	1	121	221	321	NaN	521	2.27108202199452	2	0	NaN	1549948.5771914	NaN	1549949.5605551	1549950.07710898
6	20	0	0	90	36.1581920903955	36.241610738255	20	0.666711520031095	2	5	4	NaN	1	4	0.0205708797960764	1	1	NaN	415	7	37	1	121	221	321	NaN	521	0.439120021881536	1	1	NaN	1549953.1776183	NaN	1549954.1610164	1549954.67755728
6	20	0	0	90	36.1581920903955	36.241610738255	23	0.766718248035759	2	11	2	NaN	2	5	0.0205708797960764	1	1	NaN	416	7	38	1	121	221	321	NaN	521	0.408753069350496	2	1	NaN	1549955.9278713	NaN	1549956.9112816	1549957.42782323
6	20	0	0	90	36.1581920903955	36.241610738255	23	0.766718248035759	2	9	1	NaN	2	4	0.0205708797960764	1	1	NaN	417	7	39	1	121	221	321	NaN	521	0.683306821854785	2	1	NaN	1549958.6614745	NaN	1549959.6448924	1549960.16143038
6	20	0	0	90	36.1581920903955	36.241610738255	13	0.433362488020211	2	10	6	NaN	2	4	0.0205708797960764	1	1	NaN	418	7	40	1	121	221	321	NaN	521	0.162498821737245	2	1	NaN	1549961.6618069	NaN	1549962.6451863	1549963.16172978
6	20	0	0	90	36.1581920903955	36.241610738255	21	0.700047096032649	2	3	1	NaN	1	3	0.0205708797960764	1	1	NaN	419	7	41	1	121	221	321	NaN	521	0.263097511604428	2	0	NaN	1549964.1453519	NaN	1549965.1287459	1549965.64529729
6	20	0	0	90	36.1581920903955	36.241610738255	24	0.800053824037313	2	8	6	NaN	2	3	0.0205708797960764	1	1	NaN	420	7	42	1	121	221	321	NaN	521	0.232677669264376	1	0	NaN	1549966.7122818	NaN	1549967.6957001	1549968.21221433
6	20	0	0	90	36.1581920903955	36.241610738255	15	0.500033640023321	2	8	6	NaN	2	3	0.0205708797960764	1	1	NaN	421	7	43	1	121	221	321	NaN	521	0.105702621862292	2	1	NaN	1549969.2625321	NaN	1549970.2459407	1549970.76246678
6	20	0	0	90	36.1581920903955	36.241610738255	21	0.700047096032649	2	7	6	NaN	2	3	0.0205708797960764	1	1	NaN	422	7	44	1	121	221	321	NaN	521	0.328674521995708	2	1	NaN	1549971.6959668	NaN	1549972.6794987	1549973.19604568
6	20	0	0	90	36.1581920903955	36.241610738255	11	0.366691336017102	2	10	3	NaN	2	5	0.0205708797960764	1	1	NaN	423	7	45	1	121	221	321	NaN	521	0.56592991668731	1	0	NaN	1549974.3463592	NaN	1549975.329795	1549975.84630478
6	20	0	0	90	36.1581920903955	36.241610738255	7	0.233349032010883	2	12	6	NaN	2	4	0.0205708797960764	1	1	NaN	424	7	46	1	121	221	321	NaN	521	0.0425094219390303	2	1	NaN	1549977.2299772	NaN	1549978.2133607	1549978.72992248
6	20	0	0	90	36.1581920903955	36.241610738255	24	0.800053824037313	2	8	6	NaN	2	3	0.0205708797960764	1	1	NaN	425	7	47	1	121	221	321	NaN	521	0.523840074427426	2	1	NaN	1549979.5968713	NaN	1549980.5802848	1549981.09681313
6	20	0	0	90	36.1581920903955	36.241610738255	14	0.466698064021766	2	6	3	NaN	1	4	0.0205708797960764	1	1	NaN	426	7	48	1	121	221	321	NaN	521	0.205654174555093	2	0	NaN	1549982.547148	NaN	1549983.530562	1549984.04711273
6	20	0	0	90	36.1581920903955	36.241610738255	10	0.333355760015547	2	8	4	NaN	2	5	0.0205708797960764	1	1	NaN	427	7	49	1	121	221	321	NaN	521	0.535564721794799	1	0	NaN	1549985.0807544	NaN	1549986.0641429	1549986.58069108
6	20	0	0	90	36.1581920903955	36.241610738255	25	0.833389400038868	2	8	2	NaN	2	5	0.0205708797960764	1	1	NaN	428	7	50	1	121	221	321	NaN	521	0.0103046472650021	2	1	NaN	1549987.931026	NaN	1549988.9144285	1549989.43098435
6	20	0	0	90	36.1581920903955	36.241610738255	14	0.466698064021766	2	4	6	NaN	1	4	0.0205708797960764	1	1	NaN	429	7	51	1	121	221	321	NaN	521	0.255862921942025	2	0	NaN	1549990.2644524	NaN	1549991.2479869	1549991.76452618
6	20	0	0	90	36.1581920903955	36.241610738255	0	0	1	4	2	NaN	1	5	0.0205708797960764	1	1	NaN	430	7	52	1	111	211	311	NaN	511	0.217517121927813	2	0	NaN	1549993.0148323	NaN	1549993.9982569	1549994.51480458
6	20	0	0	90	36.1581920903955	36.241610738255	14	0.466698064021766	2	3	2	NaN	1	5	0.0205708797960764	1	1	NaN	431	7	53	1	121	221	321	NaN	521	0.236004421953112	2	0	NaN	1549995.5485484	NaN	1549996.5318289	1549997.04837688
6	20	0	0	90	36.1581920903955	36.241610738255	9	0.300020184013993	2	8	4	NaN	2	3	0.0205708797960764	1	1	NaN	432	7	54	1	121	221	321	NaN	521	0.0297520896419883	2	1	NaN	1549998.0987026	NaN	1549999.0820818	1549999.59864131
6	20	0	0	90	36.1581920903955	36.241610738255	16	0.533369216024876	2	5	1	NaN	1	4	0.0205708797960764	1	1	NaN	433	7	55	1	121	221	321	NaN	521	0.199549521785229	2	0	NaN	1550000.4488533	NaN	1550001.4323235	1550001.94886328
6	20	0	0	90	36.1581920903955	36.241610738255	8	0.266684608012438	2	1	6	NaN	1	5	0.0205708797960764	1	1	NaN	434	7	56	1	121	221	321	NaN	521	0.0105178642552346	1	1	NaN	1550002.9658383	NaN	1550003.9492396	1550004.46577804
6	20	0	0	90	36.1581920903955	36.241610738255	10	0.333355760015547	2	4	3	NaN	1	4	0.0205708797960764	1	1	NaN	435	7	57	1	121	221	321	NaN	521	0.181169621879235	2	0	NaN	1550005.2993996	NaN	1550006.2828136	1550006.79934268
6	20	0	0	90	36.1581920903955	36.241610738255	11	0.366691336017102	2	11	3	NaN	2	4	0.0205708797960764	1	1	NaN	436	7	58	1	121	221	321	NaN	521	0.256676322082058	2	1	NaN	1550007.7996505	NaN	1550008.7830539	1550009.29958558
6	20	0	0	90	36.1581920903955	36.241610738255	11	0.366691336017102	2	7	3	NaN	2	3	0.0205708797960764	1	1	NaN	437	7	59	1	121	221	321	NaN	521	0.0104614219162613	2	1	NaN	1550010.3833723	NaN	1550011.3666433	1550011.88317608
6	20	0	0	90	36.1581920903955	36.241610738255	22	0.733382672034204	2	4	1	NaN	1	3	0.0205708797960764	1	1	NaN	438	7	60	1	121	221	321	NaN	521	0.148141116602346	1	1	NaN	1550012.7001399	NaN	1550013.6835361	1550014.20005888
6	20	0	0	90	36.1581920903955	36.241610738255	9	0.300020184013993	2	12	4	NaN	2	3	0.0205708797960764	1	1	NaN	439	7	61	1	121	221	321	NaN	521	0.41792531684041	2	1	NaN	1550015.1670299	NaN	1550016.1504043	1550016.66697168
6	20	0	0	90	36.1581920903955	36.241610738255	21	0.700047096032649	2	11	1	NaN	2	4	0.0205708797960764	1	1	NaN	440	7	62	1	121	221	321	NaN	521	0.0751754115335643	1	0	NaN	1550017.9173155	NaN	1550018.9007052	1550019.41724669
6	20	0	0	90	36.1581920903955	36.241610738255	8	0.266684608012438	2	4	1	NaN	1	5	0.0205708797960764	1	1	NaN	441	7	63	1	121	221	321	NaN	521	0.0760729219764471	1	1	NaN	1550023.8845473	NaN	1550024.8679163	1550025.38449548
6	20	0	0	90	36.1581920903955	36.241610738255	0	0	1	7	5	NaN	2	3	0.0205708797960764	1	1	NaN	442	8	1	1	111	211	311	NaN	511	0.207977716811001	2	1	NaN	1550031.568661	NaN	1550032.5520314	1550033.06857468
6	20	0	0	90	36.1581920903955	36.241610738255	16	0.533369216024876	2	11	2	NaN	2	3	0.0205708797960764	1	1	NaN	443	8	2	1	121	221	321	NaN	521	0.0102880897466093	2	1	NaN	1550034.1020852	NaN	1550035.0856302	1550035.60217171
6	20	0	0	90	36.1581920903955	36.241610738255	22	0.733382672034204	2	10	2	NaN	2	3	0.0205708797960764	1	1	NaN	444	8	3	1	121	221	321	NaN	521	0.116799116833135	1	0	NaN	1550036.4358658	NaN	1550037.4191757	1550037.93573038
6	20	0	0	90	36.1581920903955	36.241610738255	15	0.500033640023321	2	1	5	NaN	1	5	0.0205708797960764	1	1	NaN	445	8	4	1	121	221	321	NaN	521	0.0425249643158168	2	0	NaN	1550038.8860108	NaN	1550039.8694125	1550040.38597014
6	20	0	0	90	36.1581920903955	36.241610738255	16	0.533369216024876	2	12	1	NaN	2	5	0.0205708797960764	1	1	NaN	446	8	5	1	121	221	321	NaN	521	0.21987592196092	1	0	NaN	1550041.2529072	NaN	1550042.236335	1550042.75286318
6	20	0	0	90	36.1581920903955	36.241610738255	19	0.63337594402954	2	1	3	NaN	1	3	0.0205708797960764	1	1	NaN	447	8	6	1	121	221	321	NaN	521	0.0939079693052918	2	0	NaN	1550043.7864209	NaN	1550044.7699247	1550045.28645163
6	20	0	0	90	36.1581920903955	36.241610738255	19	0.63337594402954	2	5	3	NaN	1	5	0.0205708797960764	1	1	NaN	448	8	7	1	121	221	321	NaN	521	0.150300216861069	2	0	NaN	1550046.1868252	NaN	1550047.1701279	1550047.68667598
6	20	0	0	90	36.1581920903955	36.241610738255	12	0.400026912018657	2	7	6	NaN	2	4	0.0205708797960764	1	1	NaN	449	8	8	1	121	221	321	NaN	521	0.218855069251731	2	1	NaN	1550048.6536517	NaN	1550049.6370513	1550050.15358583
6	20	0	0	90	36.1581920903955	36.241610738255	12	0.400026912018657	2	8	1	NaN	2	5	0.0205708797960764	1	1	NaN	450	8	9	1	121	221	321	NaN	521	0.0373871219344437	1	0	NaN	1550051.187255	NaN	1550052.1706254	1550052.68716808
6	20	0	0	90	36.1581920903955	36.241610738255	10	0.333355760015547	2	3	5	NaN	1	3	0.0205708797960764	1	1	NaN	451	8	10	1	121	221	321	NaN	521	0.263100821757689	1	1	NaN	1550053.5374706	NaN	1550054.5208409	1550055.03740938
6	20	0	0	90	36.1581920903955	36.241610738255	8	0.266684608012438	2	7	4	NaN	2	3	0.0205708797960764	1	1	NaN	452	8	11	1	121	221	321	NaN	521	0.375912747578695	2	1	NaN	1550056.1210353	NaN	1550057.1044643	1550057.62099655
6	20	0	0	90	36.1581920903955	36.241610738255	23	0.766718248035759	2	7	5	NaN	2	3	0.0205708797960764	1	1	NaN	453	8	12	1	121	221	321	NaN	521	0.01047756918706	2	1	NaN	1550058.8213215	NaN	1550059.8048011	1550060.32125753
6	20	0	0	90	36.1581920903955	36.241610738255	18	0.600040368027985	2	11	3	NaN	2	5	0.0205708797960764	1	1	NaN	454	8	13	1	121	221	321	NaN	521	0.142047822009772	2	1	NaN	1550061.1549402	NaN	1550062.1383012	1550062.65482408
6	20	0	0	90	36.1581920903955	36.241610738255	11	0.366691336017102	2	2	3	NaN	1	4	0.0205708797960764	1	1	NaN	455	8	14	1	121	221	321	NaN	521	0.227404922014102	2	0	NaN	1550063.6051027	NaN	1550064.5885202	1550065.10506328
6	20	0	0	90	36.1581920903955	36.241610738255	16	0.533369216024876	2	6	2	NaN	1	4	0.0205708797960764	1	1	NaN	456	8	15	1	121	221	321	NaN	521	0.20513086928986	1	1	NaN	1550066.1553558	NaN	1550067.1387295	1550067.65530923
6	20	0	0	90	36.1581920903955	36.241610738255	8	0.266684608012438	2	11	3	NaN	2	4	0.0205708797960764	1	1	NaN	457	8	16	1	121	221	321	NaN	521	0.384718921966851	2	1	NaN	1550068.6722782	NaN	1550069.65568	1550070.17222898
6	20	0	0	90	36.1581920903955	36.241610738255	23	0.766718248035759	2	7	6	NaN	2	5	0.0205708797960764	1	1	NaN	458	8	17	1	121	221	321	NaN	521	0.299922921927646	2	1	NaN	1550071.3725397	NaN	1550072.3559553	1550072.87248778
6	20	0	0	90	36.1581920903955	36.241610738255	17	0.56670479202643	2	11	1	NaN	2	4	0.0205708797960764	1	1	NaN	459	8	18	1	121	221	321	NaN	521	0.186894121812657	2	1	NaN	1550073.9894636	NaN	1550074.9728787	1550075.48941608
6	20	0	0	90	36.1581920903955	36.241610738255	20	0.666711520031095	2	8	5	NaN	2	5	0.0205708797960764	1	1	NaN	460	8	19	1	121	221	321	NaN	521	0.0309085743501782	1	0	NaN	1550076.4897384	NaN	1550077.473109	1550077.98966203
