subjno	age	gender	isPractice	viewdist	CmToPixX	CmToPixY	SOA_frm	SOA_time	targNum	targID	targExample	targRace	targGender	firstTargPos	contrast	familiarity	curr_staircase	iStair	TrialNum	BlockNum	blktrl	sessionNum	TC_FIXATION	TC_RSVP_START	TC_RSVP_END	TC_BLANK	TC_RESPONSE_ONSET	RT2afc	resp_2afc	acc	RSVPOnsetVBL	RSVPOnsetTime	RSVPOffsetVBL	RSVPOffsetTime	startrt_2afc
107	19	0	0	90	36.1581920903955	36.241610738255	0	0	1	10	4	NaN	2	5	0.0758954804430093	0	1	NaN	1	1	1	1	110	210	310	NaN	510	0.717197474092245	2	1	NaN	4476559.2345808	NaN	4476560.2178839	4476560.75099373
107	19	0	0	90	36.1581920903955	36.241610738255	17	0.566701255999506	2	3	3	NaN	1	5	0.0758954804430093	0	1	NaN	2	1	2	1	120	220	320	NaN	520	11.4386804206297	1	1	NaN	4476562.7849282	NaN	4476563.7682132	4476564.30135558
107	19	0	0	90	36.1581920903955	36.241610738255	19	0.633371991999447	2	8	1	NaN	2	4	0.0758954804430093	0	1	NaN	3	1	3	1	120	220	320	NaN	520	0.644601473584771	2	1	NaN	4476577.0027842	NaN	4476577.9861956	4476578.51940193
107	19	0	0	90	36.1581920903955	36.241610738255	19	0.633371991999447	2	8	2	NaN	2	4	0.0758954804430093	0	1	NaN	4	1	4	1	120	220	320	NaN	520	0.373697120696306	2	1	NaN	4476579.9865142	NaN	4476580.9698322	4476581.48636278
107	19	0	0	90	36.1581920903955	36.241610738255	10	0.333353679999709	2	7	4	NaN	2	5	0.0758954804430093	0	1	NaN	5	1	5	1	120	220	320	NaN	520	0.297356868162751	2	1	NaN	4476582.6866703	NaN	4476583.6700799	4476584.18662273
107	19	0	0	90	36.1581920903955	36.241610738255	8	0.266682943999767	2	11	6	NaN	2	4	0.0758954804430093	0	1	NaN	6	1	6	1	120	220	320	NaN	520	1.03796026855707	2	1	NaN	4476585.3702869	NaN	4476586.3536717	4476586.87022813
107	19	0	0	90	36.1581920903955	36.241610738255	21	0.700042727999389	2	5	4	NaN	1	5	0.0758954804430093	0	1	NaN	7	1	7	1	120	220	320	NaN	520	0.598799968138337	2	0	NaN	4476588.737296	NaN	4476589.7206756	4476590.23722153
107	19	0	0	90	36.1581920903955	36.241610738255	13	0.433359783999622	2	9	1	NaN	2	3	0.0758954804430093	0	1	NaN	8	1	8	1	120	220	320	NaN	520	0.962283620610833	2	1	NaN	4476591.654109	NaN	4476592.6376157	4476593.15418288
107	19	0	0	90	36.1581920903955	36.241610738255	13	0.433359783999622	2	4	2	NaN	1	3	0.0758954804430093	0	1	NaN	9	1	9	1	120	220	320	NaN	520	0.406185569241643	1	1	NaN	4476594.9378841	NaN	4476595.9212581	4476596.43782893
107	19	0	0	90	36.1581920903955	36.241610738255	17	0.566701255999506	2	12	6	NaN	2	3	0.0758954804430093	0	1	NaN	10	1	10	1	120	220	320	NaN	520	0.537267168983817	2	1	NaN	4476597.6548126	NaN	4476598.6382065	4476599.15475843
107	19	0	0	90	36.1581920903955	36.241610738255	11	0.36668904799968	2	8	6	NaN	2	4	0.0758954804430093	0	1	NaN	11	1	11	1	120	220	320	NaN	520	0.446056115441024	2	1	NaN	4476600.7384204	NaN	4476601.721863	4476602.23840128
107	19	0	0	90	36.1581920903955	36.241610738255	24	0.800048831999302	2	4	2	NaN	1	5	0.0758954804430093	0	1	NaN	12	1	12	1	120	220	320	NaN	520	0.326624068431556	1	1	NaN	4476603.7053807	NaN	4476604.6888102	4476605.20535853
107	19	0	0	90	36.1581920903955	36.241610738255	6	0.200012207999825	2	7	1	NaN	2	4	0.0758954804430093	0	1	NaN	13	1	13	1	120	220	320	NaN	520	0.282975468784571	2	1	NaN	4476606.588894	NaN	4476607.5724295	4476608.08898203
107	19	0	0	90	36.1581920903955	36.241610738255	0	0	1	12	2	NaN	2	5	0.0758954804430093	0	1	NaN	14	1	14	1	110	210	310	NaN	510	0.289358315058053	1	0	NaN	4476609.622534	NaN	4476610.606084	4476611.12260928
107	19	0	0	90	36.1581920903955	36.241610738255	22	0.73337809599936	2	8	2	NaN	2	5	0.0758954804430093	0	1	NaN	15	1	15	1	120	220	320	NaN	520	0.323742668144405	1	0	NaN	4476612.7562389	NaN	4476613.7396983	4476614.25625293
107	19	0	0	90	36.1581920903955	36.241610738255	23	0.766713463999331	2	1	1	NaN	1	3	0.0758954804430093	0	1	NaN	16	1	16	1	120	220	320	NaN	520	0.329356268979609	1	1	NaN	4476615.4065736	NaN	4476616.3899441	4476616.90650533
107	19	0	0	90	36.1581920903955	36.241610738255	13	0.433359783999622	2	3	5	NaN	1	3	0.0758954804430093	0	1	NaN	17	1	17	1	120	220	320	NaN	520	0.295731920748949	1	1	NaN	4476618.0567202	NaN	4476619.0402233	4476619.55677108
107	19	0	0	90	36.1581920903955	36.241610738255	18	0.600036623999477	2	7	6	NaN	2	5	0.0758954804430093	0	1	NaN	18	1	18	1	120	220	320	NaN	520	0.246831120923162	1	0	NaN	4476620.6737535	NaN	4476621.6571313	4476622.17369668
107	19	0	0	90	36.1581920903955	36.241610738255	22	0.73337809599936	2	4	3	NaN	1	4	0.0758954804430093	0	1	NaN	19	1	19	1	120	220	320	NaN	520	0.341334668919444	1	1	NaN	4476623.4906542	NaN	4476624.4740781	4476624.99064033
107	19	0	0	90	36.1581920903955	36.241610738255	11	0.36668904799968	2	12	3	NaN	2	3	0.0758954804430093	0	1	NaN	20	1	20	1	120	220	320	NaN	520	0.251080415211618	2	1	NaN	4476626.1408972	NaN	4476627.1243424	4476627.64089798
107	19	0	0	90	36.1581920903955	36.241610738255	7	0.233347575999796	2	8	1	NaN	2	4	0.0758954804430093	0	1	NaN	21	1	21	1	120	220	320	NaN	520	0.340297515504062	2	1	NaN	4476628.7079641	NaN	4476629.6912961	4476630.20780578
107	19	0	0	90	36.1581920903955	36.241610738255	8	0.266682943999767	2	5	3	NaN	1	5	0.0758954804430093	0	1	NaN	22	1	22	1	120	220	320	NaN	520	0.314544068649411	1	1	NaN	4476631.3581284	NaN	4476632.3415385	4476632.85806803
107	19	0	0	90	36.1581920903955	36.241610738255	8	0.266682943999767	2	4	2	NaN	1	5	0.0758954804430093	0	1	NaN	23	1	23	1	120	220	320	NaN	520	0.32881076913327	1	1	NaN	4476633.9915989	NaN	4476634.9751274	4476635.49166363
107	19	0	0	90	36.1581920903955	36.241610738255	21	0.700042727999389	2	12	3	NaN	2	3	0.0758954804430093	0	1	NaN	24	1	24	1	120	220	320	NaN	520	0.318246815353632	2	1	NaN	4476636.6419735	NaN	4476637.6253835	4476638.14191918
107	19	0	0	90	36.1581920903955	36.241610738255	7	0.233347575999796	2	1	5	NaN	1	4	0.0758954804430093	0	1	NaN	25	1	25	1	120	220	320	NaN	520	0.348523436114192	2	0	NaN	4476639.2755741	NaN	4476640.2589509	4476640.77553296
107	19	0	0	90	36.1581920903955	36.241610738255	19	0.633371991999447	2	5	6	NaN	1	5	0.0758954804430093	0	1	NaN	26	1	26	1	120	220	320	NaN	520	0.337704789824784	1	1	NaN	4476641.9424978	NaN	4476642.9258849	4476643.44245001
107	19	0	0	90	36.1581920903955	36.241610738255	25	0.833384199999273	2	2	3	NaN	1	4	0.0758954804430093	0	1	NaN	27	1	27	1	120	220	320	NaN	520	0.263314668089151	1	1	NaN	4476644.5927547	NaN	4476645.576157	4476646.09270193
107	19	0	0	90	36.1581920903955	36.241610738255	21	0.700042727999389	2	9	4	NaN	2	5	0.0758954804430093	0	1	NaN	28	1	28	1	120	220	320	NaN	520	0.351809021085501	2	1	NaN	4476647.1763516	NaN	4476648.159747	4476648.67628878
107	19	0	0	90	36.1581920903955	36.241610738255	13	0.433359783999622	2	5	6	NaN	1	5	0.0758954804430093	0	1	NaN	29	1	29	1	120	220	320	NaN	520	0.324839515611529	1	1	NaN	4476649.8432667	NaN	4476650.8266695	4476651.34321878
107	19	0	0	90	36.1581920903955	36.241610738255	12	0.400024415999651	2	12	2	NaN	2	3	0.0758954804430093	0	1	NaN	30	1	30	1	120	220	320	NaN	520	0.882539568468928	2	1	NaN	4476652.4935402	NaN	4476653.4769306	4476653.99347993
107	19	0	0	90	36.1581920903955	36.241610738255	11	0.36668904799968	2	10	4	NaN	2	5	0.0758954804430093	0	1	NaN	31	1	31	1	120	220	320	NaN	520	0.298789268359542	2	1	NaN	4476655.6938534	NaN	4476656.6772459	4476657.19380053
107	19	0	0	90	36.1581920903955	36.241610738255	7	0.233347575999796	2	5	3	NaN	1	3	0.0758954804430093	0	1	NaN	32	1	32	1	120	220	320	NaN	520	0.737686567939818	1	1	NaN	4476658.3107798	NaN	4476659.2941678	4476659.81071453
107	19	0	0	90	36.1581920903955	36.241610738255	15	0.500030519999564	2	7	6	NaN	2	4	0.0758954804430093	0	1	NaN	33	1	33	1	120	220	320	NaN	520	0.511638915166259	2	1	NaN	4476661.3610865	NaN	4476662.3444688	4476662.86101548
107	19	0	0	90	36.1581920903955	36.241610738255	24	0.800048831999302	2	5	4	NaN	1	3	0.0758954804430093	0	1	NaN	34	1	34	1	120	220	320	NaN	520	0.949453768320382	1	1	NaN	4476664.194686	NaN	4476665.1781691	4476665.69462553
107	19	0	0	90	36.1581920903955	36.241610738255	0	0	1	11	1	NaN	2	4	0.0758954804430093	0	1	NaN	35	1	35	1	110	210	310	NaN	510	0.250840574502945	1	0	NaN	4476667.4616978	NaN	4476668.4450779	4476668.96162683
107	19	0	0	90	36.1581920903955	36.241610738255	18	0.600036623999477	2	5	2	NaN	1	5	0.0758954804430093	0	1	NaN	36	1	36	1	120	220	320	NaN	520	0.259668620303273	1	1	NaN	4476670.0286079	NaN	4476671.0119755	4476671.52853768
107	19	0	0	90	36.1581920903955	36.241610738255	25	0.833384199999273	2	1	6	NaN	1	5	0.0758954804430093	0	1	NaN	37	1	37	1	120	220	320	NaN	520	0.276131320744753	1	1	NaN	4476672.6122594	NaN	4476673.5955773	4476674.11211788
107	19	0	0	90	36.1581920903955	36.241610738255	25	0.833384199999273	2	5	2	NaN	1	3	0.0758954804430093	0	1	NaN	38	1	38	1	120	220	320	NaN	520	0.57238276861608	2	0	NaN	4476675.1957558	NaN	4476676.1790541	4476676.69571243
107	19	0	0	90	36.1581920903955	36.241610738255	22	0.73337809599936	2	9	4	NaN	2	4	0.0758954804430093	0	1	NaN	39	1	39	1	120	220	320	NaN	520	0.273125520907342	2	1	NaN	4476678.0793799	NaN	4476679.0627846	4476679.57933188
107	19	0	0	90	36.1581920903955	36.241610738255	16	0.533365887999535	2	12	5	NaN	2	3	0.0758954804430093	0	1	NaN	40	1	40	1	120	220	320	NaN	520	0.32920722104609	2	1	NaN	4476680.6629713	NaN	4476681.646361	4476682.16291128
107	19	0	0	90	36.1581920903955	36.241610738255	19	0.633371991999447	2	3	2	NaN	1	3	0.0758954804430093	0	1	NaN	41	1	41	1	120	220	320	NaN	520	0.40770576801151	2	0	NaN	4476683.2965466	NaN	4476684.2799489	4476684.79650703
107	19	0	0	90	36.1581920903955	36.241610738255	24	0.800048831999302	2	2	5	NaN	1	3	0.0758954804430093	0	1	NaN	42	1	42	1	120	220	320	NaN	520	0.323003857396543	1	1	NaN	4476686.0135017	NaN	4476686.9968815	4476687.51344014
107	19	0	0	90	36.1581920903955	36.241610738255	20	0.666707359999418	2	4	6	NaN	1	4	0.0758954804430093	0	1	NaN	43	1	43	1	120	220	320	NaN	520	0.432379068806767	1	1	NaN	4476688.6637533	NaN	4476689.6471495	4476690.16369863
107	19	0	0	90	36.1581920903955	36.241610738255	21	0.700042727999389	2	8	6	NaN	2	5	0.0758954804430093	0	1	NaN	44	1	44	1	120	220	320	NaN	520	0.240955368615687	1	0	NaN	4476691.6472662	NaN	4476692.6307741	4476693.14732653
107	19	0	0	90	36.1581920903955	36.241610738255	12	0.400024415999651	2	7	4	NaN	2	5	0.0758954804430093	0	1	NaN	45	1	45	1	120	220	320	NaN	520	0.4024538686499	2	1	NaN	4476694.197621	NaN	4476695.1810268	4476695.69757413
107	19	0	0	90	36.1581920903955	36.241610738255	0	0	1	11	5	NaN	2	3	0.0758954804430093	0	1	NaN	46	1	46	1	110	210	310	NaN	510	0.422110267914832	2	1	NaN	4476696.9145792	NaN	4476697.8979611	4476698.41450243
107	19	0	0	90	36.1581920903955	36.241610738255	16	0.533365887999535	2	4	5	NaN	1	5	0.0758954804430093	0	1	NaN	47	1	47	1	120	220	320	NaN	520	0.216529068537056	1	1	NaN	4476699.6481496	NaN	4476700.6316161	4476701.14810503
107	19	0	0	90	36.1581920903955	36.241610738255	23	0.766713463999331	2	12	3	NaN	2	4	0.0758954804430093	0	1	NaN	48	1	48	1	120	220	320	NaN	520	0.290467668324709	1	0	NaN	4476702.181748	NaN	4476703.1651309	4476703.68168703
107	19	0	0	90	36.1581920903955	36.241610738255	18	0.600036623999477	2	4	3	NaN	1	4	0.0758954804430093	0	1	NaN	49	1	49	1	120	220	320	NaN	520	0.562299715355039	2	0	NaN	4476704.7819976	NaN	4476705.765401	4476706.28196128
107	19	0	0	90	36.1581920903955	36.241610738255	10	0.333353679999709	2	9	5	NaN	2	5	0.0758954804430093	0	1	NaN	50	1	50	1	120	220	320	NaN	520	0.975679120980203	2	1	NaN	4476707.6489537	NaN	4476708.632338	4476709.14889628
107	19	0	0	90	36.1581920903955	36.241610738255	17	0.566701255999506	2	5	2	NaN	1	4	0.0758954804430093	0	1	NaN	51	1	51	1	120	220	320	NaN	520	1.08364661596715	1	1	NaN	4476710.9325955	NaN	4476711.9159066	4476712.43254568
107	19	0	0	90	36.1581920903955	36.241610738255	10	0.333353679999709	2	2	2	NaN	1	5	0.0758954804430093	0	1	NaN	52	1	52	1	120	220	320	NaN	520	0.771656220778823	1	1	NaN	4476714.3329431	NaN	4476715.3163062	4476715.83289278
107	19	0	0	90	36.1581920903955	36.241610738255	12	0.400024415999651	2	3	1	NaN	1	4	0.0758954804430093	0	1	NaN	53	1	53	1	120	220	320	NaN	520	0.310354415327311	2	0	NaN	4476717.4498761	NaN	4476718.4333143	4476718.94985648
107	19	0	0	90	36.1581920903955	36.241610738255	15	0.500030519999564	2	5	5	NaN	1	4	0.0758954804430093	0	1	NaN	54	1	54	1	120	220	320	NaN	520	0.269500221125782	1	1	NaN	4476720.0668434	NaN	4476721.0502235	4476721.56678898
107	19	0	0	90	36.1581920903955	36.241610738255	13	0.433359783999622	2	2	3	NaN	1	4	0.0758954804430093	0	1	NaN	55	1	55	1	120	220	320	NaN	520	0.286249815486372	1	1	NaN	4476722.6504181	NaN	4476723.6338241	4476724.15036598
107	19	0	0	90	36.1581920903955	36.241610738255	18	0.600036623999477	2	3	3	NaN	1	3	0.0758954804430093	0	1	NaN	56	1	56	1	120	220	320	NaN	520	0.333489025942981	1	1	NaN	4476725.2506628	NaN	4476726.2341193	4476726.75063067
107	19	0	0	90	36.1581920903955	36.241610738255	20	0.666707359999418	2	11	6	NaN	2	4	0.0758954804430093	0	1	NaN	57	1	57	1	120	220	320	NaN	520	0.283736716024578	2	1	NaN	4476727.9009309	NaN	4476728.8843432	4476729.40087748
107	19	0	0	90	36.1581920903955	36.241610738255	8	0.266682943999767	2	10	4	NaN	2	5	0.0758954804430093	0	1	NaN	58	1	58	1	120	220	320	NaN	520	0.755133667960763	2	1	NaN	4476730.5011982	NaN	4476731.4845858	4476732.00113773
107	19	0	0	90	36.1581920903955	36.241610738255	25	0.833384199999273	2	3	2	NaN	1	5	0.0758954804430093	0	1	NaN	59	1	59	1	120	220	320	NaN	520	0.328290141187608	1	1	NaN	4476733.5681914	NaN	4476734.5515574	4476735.06810666
107	19	0	0	90	36.1581920903955	36.241610738255	6	0.200012207999825	2	5	3	NaN	1	3	0.0758954804430093	0	1	NaN	60	1	60	1	120	220	320	NaN	520	0.010407168418169	1	1	NaN	4476736.2184208	NaN	4476737.2018327	4476737.71836213
107	19	0	0	90	36.1581920903955	36.241610738255	0	0	1	9	1	NaN	2	5	0.0758954804430093	0	1	NaN	61	1	61	1	110	210	310	NaN	510	0.70485301502049	2	1	NaN	4476738.5353191	NaN	4476739.518714	4476740.03526148
107	19	0	0	90	36.1581920903955	36.241610738255	22	0.73337809599936	2	10	1	NaN	2	5	0.0758954804430093	0	1	NaN	62	1	62	1	120	220	320	NaN	520	0.296404620632529	2	1	NaN	4476741.5521579	NaN	4476742.5356591	4476743.05222538
107	19	0	0	90	36.1581920903955	36.241610738255	8	0.266682943999767	2	8	3	NaN	2	5	0.0758954804430093	0	1	NaN	63	1	63	1	120	220	320	NaN	520	0.351797861978412	1	0	NaN	4476744.1525285	NaN	4476745.1359321	4476745.65247264
107	19	0	0	90	36.1581920903955	36.241610738255	13	0.433359783999622	2	9	5	NaN	2	3	0.0758954804430093	0	1	NaN	64	2	1	1	120	220	320	NaN	520	0.682918268255889	2	1	NaN	4476759.2373463	NaN	4476760.2207529	4476760.73729073
107	19	0	0	90	36.1581920903955	36.241610738255	23	0.766713463999331	2	7	2	NaN	2	3	0.0758954804430093	0	1	NaN	65	2	2	1	120	220	320	NaN	520	0.38704392593354	2	1	NaN	4476762.2376546	NaN	4476763.2210348	4476763.73758367
107	19	0	0	90	36.1581920903955	36.241610738255	20	0.666707359999418	2	2	5	NaN	1	4	0.0758954804430093	0	1	NaN	66	2	3	1	120	220	320	NaN	520	0.734900620765984	1	1	NaN	4476764.9379116	NaN	4476765.9213055	4476766.43785558
107	19	0	0	90	36.1581920903955	36.241610738255	10	0.333353679999709	2	11	3	NaN	2	4	0.0758954804430093	0	1	NaN	67	2	4	1	120	220	320	NaN	520	0.252342100255191	2	1	NaN	4476767.9883129	NaN	4476768.9715889	4476769.4881584
107	19	0	0	90	36.1581920903955	36.241610738255	11	0.36668904799968	2	1	4	NaN	1	5	0.0758954804430093	0	1	NaN	68	2	5	1	120	220	320	NaN	520	0.477257715538144	2	0	NaN	4476770.5551213	NaN	4476771.5385235	4476772.05506558
107	19	0	0	90	36.1581920903955	36.241610738255	6	0.200012207999825	2	2	2	NaN	1	3	0.0758954804430093	0	1	NaN	69	2	6	1	120	220	320	NaN	520	0.716979120858014	1	1	NaN	4476773.3553824	NaN	4476774.3386885	4476774.85534448
107	19	0	0	90	36.1581920903955	36.241610738255	21	0.700042727999389	2	11	5	NaN	2	4	0.0758954804430093	0	1	NaN	70	2	7	1	120	220	320	NaN	520	0.227677321061492	2	1	NaN	4476776.3890337	NaN	4476777.3724274	4476777.88897428
107	19	0	0	90	36.1581920903955	36.241610738255	15	0.500030519999564	2	7	4	NaN	2	3	0.0758954804430093	0	1	NaN	71	2	8	1	120	220	320	NaN	520	0.26145086903125	2	1	NaN	4476778.9392866	NaN	4476779.9227059	4476780.43922663
107	19	0	0	90	36.1581920903955	36.241610738255	10	0.333353679999709	2	10	3	NaN	2	3	0.0758954804430093	0	1	NaN	72	2	9	1	120	220	320	NaN	520	0.486492568627	2	1	NaN	4476781.5061977	NaN	4476782.489596	4476783.00614483
107	19	0	0	90	36.1581920903955	36.241610738255	11	0.36668904799968	2	3	4	NaN	1	3	0.0758954804430093	0	1	NaN	73	2	10	1	120	220	320	NaN	520	0.181832268834114	1	1	NaN	4476784.3064829	NaN	4476785.2898692	4476785.80642173
107	19	0	0	90	36.1581920903955	36.241610738255	23	0.766713463999331	2	2	3	NaN	1	4	0.0758954804430093	0	1	NaN	74	2	11	1	120	220	320	NaN	520	0.554740541614592	2	0	NaN	4476786.7900414	NaN	4476787.7734467	4476788.29000646
107	19	0	0	90	36.1581920903955	36.241610738255	9	0.300018311999738	2	4	6	NaN	1	4	0.0758954804430093	0	1	NaN	75	2	12	1	120	220	320	NaN	520	0.271340720355511	1	1	NaN	4476789.6569959	NaN	4476790.640399	4476791.15694838
107	19	0	0	90	36.1581920903955	36.241610738255	15	0.500030519999564	2	3	1	NaN	1	5	0.0758954804430093	0	1	NaN	76	2	13	1	120	220	320	NaN	520	1.40022686868906	2	0	NaN	4476792.2405982	NaN	4476793.2239875	4476793.74053563
107	19	0	0	90	36.1581920903955	36.241610738255	22	0.73337809599936	2	2	1	NaN	1	5	0.0758954804430093	0	1	NaN	77	2	14	1	120	220	320	NaN	520	0.739791620522738	1	1	NaN	4476795.9409684	NaN	4476796.9243403	4476797.44090368
107	19	0	0	90	36.1581920903955	36.241610738255	6	0.200012207999825	2	9	2	NaN	2	5	0.0758954804430093	0	1	NaN	78	2	15	1	120	220	320	NaN	520	0.297050168737769	1	0	NaN	4476798.9911866	NaN	4476799.9746544	4476800.49119923
107	19	0	0	90	36.1581920903955	36.241610738255	21	0.700042727999389	2	6	6	NaN	1	3	0.0758954804430093	0	1	NaN	79	2	16	1	120	220	320	NaN	520	0.28924946859479	1	1	NaN	4476801.5915092	NaN	4476802.5748893	4476803.09144843
107	19	0	0	90	36.1581920903955	36.241610738255	14	0.466695151999593	2	6	5	NaN	1	3	0.0758954804430093	0	1	NaN	80	2	17	1	120	220	320	NaN	520	0.280623868107796	1	1	NaN	4476804.1917727	NaN	4476805.1751557	4476805.69170543
107	19	0	0	90	36.1581920903955	36.241610738255	20	0.666707359999418	2	9	1	NaN	2	4	0.0758954804430093	0	1	NaN	81	2	18	1	120	220	320	NaN	520	0.313363315537572	2	1	NaN	4476806.7753708	NaN	4476807.7587406	4476808.27528998
107	19	0	0	90	36.1581920903955	36.241610738255	25	0.833384199999273	2	7	5	NaN	2	4	0.0758954804430093	0	1	NaN	82	2	19	1	120	220	320	NaN	520	0.359787121415138	2	1	NaN	4476809.4089855	NaN	4476810.3922307	4476810.90889268
107	19	0	0	90	36.1581920903955	36.241610738255	21	0.700042727999389	2	11	6	NaN	2	5	0.0758954804430093	0	1	NaN	83	2	20	1	120	220	320	NaN	520	0.317043368704617	2	1	NaN	4476812.0758883	NaN	4476813.0592587	4476813.57581993
107	19	0	0	90	36.1581920903955	36.241610738255	20	0.666707359999418	2	12	6	NaN	2	3	0.0758954804430093	0	1	NaN	84	2	21	1	120	220	320	NaN	520	0.346842768602073	2	1	NaN	4476814.7094247	NaN	4476815.6928539	4476816.20941143
107	19	0	0	90	36.1581920903955	36.241610738255	18	0.600036623999477	2	2	2	NaN	1	5	0.0758954804430093	0	1	NaN	85	2	22	1	120	220	320	NaN	520	0.221013821661472	1	1	NaN	4476817.4597237	NaN	4476818.4431259	4476818.95968268
107	19	0	0	90	36.1581920903955	36.241610738255	20	0.666707359999418	2	6	3	NaN	1	3	0.0758954804430093	0	1	NaN	86	2	23	1	120	220	320	NaN	520	0.295177362859249	1	1	NaN	4476819.9933075	NaN	4476820.9767086	4476821.49325164
107	19	0	0	90	36.1581920903955	36.241610738255	18	0.600036623999477	2	6	1	NaN	1	5	0.0758954804430093	0	1	NaN	87	2	24	1	120	220	320	NaN	520	0.487036373466253	1	1	NaN	4476822.5935771	NaN	4476823.5769471	4476824.09351643
107	19	0	0	90	36.1581920903955	36.241610738255	9	0.300018311999738	2	11	4	NaN	2	5	0.0758954804430093	0	1	NaN	88	2	25	1	120	220	320	NaN	520	0.358473468571901	2	1	NaN	4476825.3938387	NaN	4476826.3772414	4476826.89378793
107	19	0	0	90	36.1581920903955	36.241610738255	10	0.333353679999709	2	3	6	NaN	1	4	0.0758954804430093	0	1	NaN	89	2	26	1	120	220	320	NaN	520	0.420045220293105	2	0	NaN	4476828.0607799	NaN	4476829.0441579	4476829.56071878
107	19	0	0	90	36.1581920903955	36.241610738255	24	0.800048831999302	2	12	4	NaN	2	5	0.0758954804430093	0	1	NaN	90	2	27	1	120	220	320	NaN	520	0.541985910385847	2	1	NaN	4476830.7943954	NaN	4476831.777773	4476832.29431719
107	19	0	0	90	36.1581920903955	36.241610738255	6	0.200012207999825	2	11	3	NaN	2	4	0.0758954804430093	0	1	NaN	91	2	28	1	120	220	320	NaN	520	0.267740268260241	2	1	NaN	4476833.6446502	NaN	4476834.6280362	4476835.14459513
107	19	0	0	90	36.1581920903955	36.241610738255	6	0.200012207999825	2	2	1	NaN	1	4	0.0758954804430093	0	1	NaN	92	2	29	1	120	220	320	NaN	520	0.324168068356812	1	1	NaN	4476836.2282432	NaN	4476837.2116415	4476837.72818363
107	19	0	0	90	36.1581920903955	36.241610738255	6	0.200012207999825	2	1	6	NaN	1	4	0.0758954804430093	0	1	NaN	93	2	30	1	120	220	320	NaN	520	0.826591868884861	2	0	NaN	4476838.8618102	NaN	4476839.8452261	4476840.36176833
107	19	0	0	90	36.1581920903955	36.241610738255	9	0.300018311999738	2	9	1	NaN	2	3	0.0758954804430093	0	1	NaN	94	2	31	1	120	220	320	NaN	520	0.460943221114576	2	1	NaN	4476841.9954672	NaN	4476842.978868	4476843.49542318
107	19	0	0	90	36.1581920903955	36.241610738255	13	0.433359783999622	2	6	3	NaN	1	4	0.0758954804430093	0	1	NaN	95	2	32	1	120	220	320	NaN	520	0.286002068780363	1	1	NaN	4476844.7623967	NaN	4476845.7458059	4476846.26235953
107	19	0	0	90	36.1581920903955	36.241610738255	23	0.766713463999331	2	8	3	NaN	2	5	0.0758954804430093	0	1	NaN	96	2	33	1	120	220	320	NaN	520	0.877679268829525	2	1	NaN	4476847.3626598	NaN	4476848.3460636	4476848.86260333
107	19	0	0	90	36.1581920903955	36.241610738255	7	0.233347575999796	2	12	2	NaN	2	3	0.0758954804430093	0	1	NaN	97	2	34	1	120	220	320	NaN	520	0.158188068307936	2	1	NaN	4476850.5463019	NaN	4476851.529704	4476852.04624923
107	19	0	0	90	36.1581920903955	36.241610738255	12	0.400024415999651	2	8	4	NaN	2	5	0.0758954804430093	0	1	NaN	98	2	35	1	120	220	320	NaN	520	0.227612220682204	2	1	NaN	4476853.0132636	NaN	4476853.9966108	4476854.51316688
107	19	0	0	90	36.1581920903955	36.241610738255	10	0.333353679999709	2	8	4	NaN	2	4	0.0758954804430093	0	1	NaN	99	2	36	1	120	220	320	NaN	520	0.853834568522871	2	1	NaN	4476855.5466819	NaN	4476856.5301987	4476857.04674203
107	19	0	0	90	36.1581920903955	36.241610738255	8	0.266682943999767	2	7	6	NaN	2	3	0.0758954804430093	0	1	NaN	100	2	37	1	120	220	320	NaN	520	0.254671868868172	1	0	NaN	4476858.7137733	NaN	4476859.6971681	4476860.21372483
107	19	0	0	90	36.1581920903955	36.241610738255	16	0.533365887999535	2	7	1	NaN	2	3	0.0758954804430093	0	1	NaN	101	2	38	1	120	220	320	NaN	520	0.231824168935418	2	1	NaN	4476861.2807033	NaN	4476862.2640925	4476862.78063713
107	19	0	0	90	36.1581920903955	36.241610738255	10	0.333353679999709	2	1	3	NaN	1	4	0.0758954804430093	0	1	NaN	102	2	39	1	120	220	320	NaN	520	0.257610116153955	2	0	NaN	4476863.8310052	NaN	4476864.8143444	4476865.33089528
107	19	0	0	90	36.1581920903955	36.241610738255	17	0.566701255999506	2	1	1	NaN	1	3	0.0758954804430093	0	1	NaN	103	2	40	1	120	220	320	NaN	520	0.235044920817018	1	1	NaN	4476866.3978709	NaN	4476867.3812506	4476867.89781718
107	19	0	0	90	36.1581920903955	36.241610738255	9	0.300018311999738	2	10	2	NaN	2	4	0.0758954804430093	0	1	NaN	104	2	41	1	120	220	320	NaN	520	0.388748968020082	1	0	NaN	4476868.9481234	NaN	4476869.9315174	4476870.44806783
107	19	0	0	90	36.1581920903955	36.241610738255	17	0.566701255999506	2	2	6	NaN	1	5	0.0758954804430093	0	1	NaN	105	2	42	1	120	220	320	NaN	520	0.296067968942225	2	0	NaN	4476871.6483725	NaN	4476872.6317699	4476873.14832673
107	19	0	0	90	36.1581920903955	36.241610738255	9	0.300018311999738	2	1	4	NaN	1	4	0.0758954804430093	0	1	NaN	106	2	43	1	120	220	320	NaN	520	1.4801634689793	2	0	NaN	4476874.2485644	NaN	4476875.2320266	4476875.74857623
107	19	0	0	90	36.1581920903955	36.241610738255	8	0.266682943999767	2	12	5	NaN	2	4	0.0758954804430093	0	1	NaN	107	2	44	1	120	220	320	NaN	520	1.66343746799976	1	0	NaN	4476878.0490132	NaN	4476879.0323904	4476879.54894963
107	19	0	0	90	36.1581920903955	36.241610738255	8	0.266682943999767	2	3	1	NaN	1	4	0.0758954804430093	0	1	NaN	108	2	45	1	120	220	320	NaN	520	2.22376231569797	1	1	NaN	4476882.0327275	NaN	4476883.0161097	4476883.53267408
107	19	0	0	90	36.1581920903955	36.241610738255	25	0.833384199999273	2	8	3	NaN	2	3	0.0758954804430093	0	1	NaN	109	2	46	1	120	220	320	NaN	520	0.34592196252197	2	1	NaN	4476886.5665487	NaN	4476887.5498971	4476888.06646514
107	19	0	0	90	36.1581920903955	36.241610738255	22	0.73337809599936	2	6	6	NaN	1	4	0.0758954804430093	0	1	NaN	110	2	47	1	120	220	320	NaN	520	0.319145916029811	1	1	NaN	4476889.2334363	NaN	4476890.2168368	4476890.73338398
107	19	0	0	90	36.1581920903955	36.241610738255	12	0.400024415999651	2	5	2	NaN	1	4	0.0758954804430093	0	1	NaN	111	2	48	1	120	220	320	NaN	520	1.13332901522517	2	0	NaN	4476891.8670241	NaN	4476892.8504533	4476893.36697358
107	19	0	0	90	36.1581920903955	36.241610738255	0	0	1	5	4	NaN	1	3	0.0758954804430093	0	1	NaN	112	2	49	1	110	210	310	NaN	510	0.331518390215933	2	0	NaN	4476895.3173685	NaN	4476896.3007593	4476896.81732281
107	19	0	0	90	36.1581920903955	36.241610738255	17	0.566701255999506	2	5	1	NaN	1	5	0.0758954804430093	0	1	NaN	113	2	50	1	120	220	320	NaN	520	0.99365702085197	1	1	NaN	4476897.9509629	NaN	4476898.9343516	4476899.45090848
107	19	0	0	90	36.1581920903955	36.241610738255	11	0.36668904799968	2	6	3	NaN	1	3	0.0758954804430093	0	1	NaN	114	2	51	1	120	220	320	NaN	520	0.261206620372832	1	1	NaN	4476901.2512939	NaN	4476902.234681	4476902.75123788
107	19	0	0	90	36.1581920903955	36.241610738255	20	0.666707359999418	2	9	2	NaN	2	5	0.0758954804430093	0	1	NaN	115	2	52	1	120	220	320	NaN	520	0.278718320652843	2	1	NaN	4476903.818204	NaN	4476904.8015909	4476905.31815098
107	19	0	0	90	36.1581920903955	36.241610738255	19	0.633371991999447	2	11	2	NaN	2	3	0.0758954804430093	0	1	NaN	116	2	53	1	120	220	320	NaN	520	0.246881168335676	2	1	NaN	4476906.4018036	NaN	4476907.3852329	4476907.90173163
107	19	0	0	90	36.1581920903955	36.241610738255	22	0.73337809599936	2	3	5	NaN	1	4	0.0758954804430093	0	1	NaN	117	2	54	1	120	220	320	NaN	520	0.336276320740581	1	1	NaN	4476908.968702	NaN	4476909.9520899	4476910.46865138
107	19	0	0	90	36.1581920903955	36.241610738255	23	0.766713463999331	2	8	3	NaN	2	4	0.0758954804430093	0	1	NaN	118	2	55	1	120	220	320	NaN	520	0.509985968470573	1	0	NaN	4476911.6189782	NaN	4476912.6023617	4476913.11891243
107	19	0	0	90	36.1581920903955	36.241610738255	22	0.73337809599936	2	6	5	NaN	1	3	0.0758954804430093	0	1	NaN	119	2	56	1	120	220	320	NaN	520	0.299922214820981	1	1	NaN	4476914.4525814	NaN	4476915.4359667	4476915.95252348
107	19	0	0	90	36.1581920903955	36.241610738255	22	0.73337809599936	2	7	6	NaN	2	5	0.0758954804430093	0	1	NaN	120	2	57	1	120	220	320	NaN	520	0.32414136826992	2	1	NaN	4476917.2360526	NaN	4476918.2195917	4476918.73613443
107	19	0	0	90	36.1581920903955	36.241610738255	13	0.433359783999622	2	1	4	NaN	1	3	0.0758954804430093	0	1	NaN	121	2	58	1	120	220	320	NaN	520	0.450635468587279	2	0	NaN	4476919.8697936	NaN	4476920.8532344	4476921.36972353
107	19	0	0	90	36.1581920903955	36.241610738255	20	0.666707359999418	2	5	4	NaN	1	4	0.0758954804430093	0	1	NaN	122	2	59	1	120	220	320	NaN	520	0.323706768453121	1	1	NaN	4476922.6367253	NaN	4476923.6201089	4476924.13666193
107	19	0	0	90	36.1581920903955	36.241610738255	22	0.73337809599936	2	5	1	NaN	1	4	0.0758954804430093	0	1	NaN	123	2	60	1	120	220	320	NaN	520	0.250109168700874	2	0	NaN	4476925.2701812	NaN	4476926.2537219	4476926.77024953
107	19	0	0	90	36.1581920903955	36.241610738255	12	0.400024415999651	2	8	2	NaN	2	5	0.0758954804430093	0	1	NaN	124	2	61	1	120	220	320	NaN	520	0.971351268701255	1	0	NaN	4476927.8372398	NaN	4476928.8206283	4476929.33717113
107	19	0	0	90	36.1581920903955	36.241610738255	0	0	1	2	5	NaN	1	5	0.0758954804430093	0	1	NaN	125	2	62	1	110	210	310	NaN	510	0.311663920991123	1	1	NaN	4476931.1208929	NaN	4476932.1042748	4476932.62083438
107	19	0	0	90	36.1581920903955	36.241610738255	22	0.73337809599936	2	4	6	NaN	1	3	0.0758954804430093	0	1	NaN	126	2	63	1	120	220	320	NaN	520	0.010410868562758	1	1	NaN	4476933.7376684	NaN	4476934.7212551	4476935.23775153
107	19	0	0	90	36.1581920903955	36.241610738255	24	0.800048831999302	2	5	6	NaN	1	3	0.0758954804430093	0	1	NaN	127	3	1	1	120	220	320	NaN	520	0.957579968497157	2	0	NaN	4476942.9552517	NaN	4476943.9387501	4476944.45531763
107	19	0	0	90	36.1581920903955	36.241610738255	21	0.700042727999389	2	3	2	NaN	1	5	0.0758954804430093	0	1	NaN	128	3	2	1	120	220	320	NaN	520	0.314607420004904	1	1	NaN	4476946.2223758	NaN	4476947.2057681	4476947.72231718
107	19	0	0	90	36.1581920903955	36.241610738255	7	0.233347575999796	2	2	1	NaN	1	3	0.0758954804430093	0	1	NaN	129	3	3	1	120	220	320	NaN	520	0.512781168334186	2	0	NaN	4476948.8559463	NaN	4476949.8393487	4476950.35590223
107	19	0	0	90	36.1581920903955	36.241610738255	19	0.633371991999447	2	9	6	NaN	2	5	0.0758954804430093	0	1	NaN	130	3	4	1	120	220	320	NaN	520	0.272030821070075	2	1	NaN	4476951.672804	NaN	4476952.6562877	4476953.17284048
107	19	0	0	90	36.1581920903955	36.241610738255	25	0.833384199999273	2	9	4	NaN	2	4	0.0758954804430093	0	1	NaN	131	3	5	1	120	220	320	NaN	520	0.784177920781076	2	1	NaN	4476954.2565741	NaN	4476955.2398592	4476955.75643548
107	19	0	0	90	36.1581920903955	36.241610738255	22	0.73337809599936	2	10	2	NaN	2	3	0.0758954804430093	0	1	NaN	132	3	6	1	120	220	320	NaN	520	0.340193868614733	1	0	NaN	4476957.3567848	NaN	4476958.34018	4476958.85674063
107	19	0	0	90	36.1581920903955	36.241610738255	22	0.73337809599936	2	11	1	NaN	2	5	0.0758954804430093	0	1	NaN	133	3	7	1	120	220	320	NaN	520	0.96964826900512	1	0	NaN	4476960.0070538	NaN	4476960.9904469	4476961.50700213
107	19	0	0	90	36.1581920903955	36.241610738255	18	0.600036623999477	2	1	3	NaN	1	4	0.0758954804430093	0	1	NaN	134	3	8	1	120	220	320	NaN	520	0.30987352039665	1	1	NaN	4476963.2907055	NaN	4476964.2741047	4476964.79065478
107	19	0	0	90	36.1581920903955	36.241610738255	6	0.200012207999825	2	3	5	NaN	1	3	0.0758954804430093	0	1	NaN	135	3	9	1	120	220	320	NaN	520	0.276933057233691	1	1	NaN	4476965.9075868	NaN	4476966.8910237	4476967.40757034
107	19	0	0	90	36.1581920903955	36.241610738255	22	0.73337809599936	2	2	6	NaN	1	5	0.0758954804430093	0	1	NaN	136	3	10	1	120	220	320	NaN	520	0.788056973367929	2	0	NaN	4476968.5245615	NaN	4476969.5079457	4476970.02449813
107	19	0	0	90	36.1581920903955	36.241610738255	13	0.433359783999622	2	3	1	NaN	1	5	0.0758954804430093	0	1	NaN	137	3	11	1	120	220	320	NaN	520	0.345169320702553	1	1	NaN	4476971.7915282	NaN	4476972.7749371	4476973.29149388
107	19	0	0	90	36.1581920903955	36.241610738255	14	0.466695151999593	2	3	3	NaN	1	5	0.0758954804430093	0	1	NaN	138	3	12	1	120	220	320	NaN	520	0.262253320775926	1	1	NaN	4476974.458472	NaN	4476975.4418705	4476975.95842178
107	19	0	0	90	36.1581920903955	36.241610738255	14	0.466695151999593	2	12	1	NaN	2	4	0.0758954804430093	0	1	NaN	139	3	13	1	120	220	320	NaN	520	0.599126015789807	2	1	NaN	4476977.0253742	NaN	4476978.0087623	4476978.52532828
107	19	0	0	90	36.1581920903955	36.241610738255	24	0.800048831999302	2	6	2	NaN	1	3	0.0758954804430093	0	1	NaN	140	3	14	1	120	220	320	NaN	520	0.0103057362139225	1	1	NaN	4476979.9423372	NaN	4476980.9257332	4476981.44228536
107	19	0	0	90	36.1581920903955	36.241610738255	25	0.833384199999273	2	8	6	NaN	2	4	0.0758954804430093	0	1	NaN	141	3	15	1	120	220	320	NaN	520	0.533434868790209	2	1	NaN	4476982.2592295	NaN	4476983.2426291	4476983.75917873
107	19	0	0	90	36.1581920903955	36.241610738255	13	0.433359783999622	2	7	3	NaN	2	3	0.0758954804430093	0	1	NaN	142	3	16	1	120	220	320	NaN	520	0.40349136851728	1	0	NaN	4476985.1095205	NaN	4476986.0929146	4476986.60945323
107	19	0	0	90	36.1581920903955	36.241610738255	17	0.566701255999506	2	4	3	NaN	1	5	0.0758954804430093	0	1	NaN	143	3	17	1	120	220	320	NaN	520	0.278279814869165	1	1	NaN	4476987.826436	NaN	4476988.8098199	4476989.32638978
107	19	0	0	90	36.1581920903955	36.241610738255	6	0.200012207999825	2	12	3	NaN	2	5	0.0758954804430093	0	1	NaN	144	3	18	1	120	220	320	NaN	520	0.445212268270552	2	1	NaN	4476990.6434026	NaN	4476991.6267911	4476992.14333313
107	19	0	0	90	36.1581920903955	36.241610738255	6	0.200012207999825	2	8	2	NaN	2	5	0.0758954804430093	0	1	NaN	145	3	19	1	120	220	320	NaN	520	0.319357825443149	2	1	NaN	4476993.3936495	NaN	4476994.3770584	4476994.89361087
107	19	0	0	90	36.1581920903955	36.241610738255	24	0.800048831999302	2	8	5	NaN	2	5	0.0758954804430093	0	1	NaN	146	3	20	1	120	220	320	NaN	520	0.421460269019008	1	0	NaN	4476996.0272468	NaN	4476997.0106478	4476997.52719203
107	19	0	0	90	36.1581920903955	36.241610738255	20	0.666707359999418	2	6	3	NaN	1	4	0.0758954804430093	0	1	NaN	147	3	21	1	120	220	320	NaN	520	0.19977836869657	1	1	NaN	4476998.7609541	NaN	4476999.7442481	4477000.26080173
107	19	0	0	90	36.1581920903955	36.241610738255	25	0.833384199999273	2	12	5	NaN	2	3	0.0758954804430093	0	1	NaN	148	3	22	1	120	220	320	NaN	520	0.291199420578778	2	1	NaN	4477001.2777699	NaN	4477002.2611588	4477002.77771988
107	19	0	0	90	36.1581920903955	36.241610738255	9	0.300018311999738	2	11	4	NaN	2	3	0.0758954804430093	0	1	NaN	149	3	23	1	120	220	320	NaN	520	0.426748515106738	2	1	NaN	4477003.8779914	NaN	4477004.8614108	4477005.37796258
107	19	0	0	90	36.1581920903955	36.241610738255	20	0.666707359999418	2	12	4	NaN	2	4	0.0758954804430093	0	1	NaN	150	3	24	1	120	220	320	NaN	520	0.429242220707238	2	1	NaN	4477006.611633	NaN	4477007.5950236	4477008.11157498
107	19	0	0	90	36.1581920903955	36.241610738255	12	0.400024415999651	2	7	6	NaN	2	3	0.0758954804430093	0	1	NaN	151	3	25	1	120	220	320	NaN	520	0.291797115467489	1	0	NaN	4477009.4451141	NaN	4477010.4286327	4477010.94517778
107	19	0	0	90	36.1581920903955	36.241610738255	11	0.36668904799968	2	9	4	NaN	2	4	0.0758954804430093	0	1	NaN	152	3	26	1	120	220	320	NaN	520	0.315112268552184	2	1	NaN	4477012.0453567	NaN	4477013.0288868	4477013.54543913
107	19	0	0	90	36.1581920903955	36.241610738255	22	0.73337809599936	2	12	6	NaN	2	5	0.0758954804430093	0	1	NaN	153	3	27	1	120	220	320	NaN	520	0.353859367780387	2	1	NaN	4477014.6790736	NaN	4477015.6624538	4477016.17902763
107	19	0	0	90	36.1581920903955	36.241610738255	12	0.400024415999651	2	4	6	NaN	1	4	0.0758954804430093	0	1	NaN	154	3	28	1	120	220	320	NaN	520	0.246702319942415	1	1	NaN	4477017.3460195	NaN	4477018.3294078	4477018.84595768
107	19	0	0	90	36.1581920903955	36.241610738255	8	0.266682943999767	2	11	4	NaN	2	3	0.0758954804430093	0	1	NaN	155	3	29	1	120	220	320	NaN	520	0.256137915886939	2	1	NaN	4477019.9129192	NaN	4477020.896322	4477021.41287908
107	19	0	0	90	36.1581920903955	36.241610738255	0	0	1	6	1	NaN	1	3	0.0758954804430093	0	1	NaN	156	3	30	1	110	210	310	NaN	510	1.75296982098371	2	0	NaN	4477022.4798443	NaN	4477023.4632367	4477023.97980638
107	19	0	0	90	36.1581920903955	36.241610738255	13	0.433359783999622	2	12	1	NaN	2	5	0.0758954804430093	0	1	NaN	157	3	31	1	120	220	320	NaN	520	0.453686415217817	2	1	NaN	4477026.5469178	NaN	4477027.5302736	4477028.04686068
107	19	0	0	90	36.1581920903955	36.241610738255	16	0.533365887999535	2	10	3	NaN	2	3	0.0758954804430093	0	1	NaN	158	3	32	1	120	220	320	NaN	520	0.0104089686647058	2	1	NaN	4477029.313861	NaN	4477030.2972449	4477030.81380143
107	19	0	0	90	36.1581920903955	36.241610738255	19	0.633371991999447	2	2	6	NaN	1	5	0.0758954804430093	0	1	NaN	159	3	33	1	120	220	320	NaN	520	0.554300168529153	1	1	NaN	4477031.6307324	NaN	4477032.6141424	4477033.13069313
107	19	0	0	90	36.1581920903955	36.241610738255	20	0.666707359999418	2	10	5	NaN	2	3	0.0758954804430093	0	1	NaN	160	3	34	1	120	220	320	NaN	520	0.183045969344676	2	1	NaN	4477034.4976975	NaN	4477035.481083	4477035.99764683
107	19	0	0	90	36.1581920903955	36.241610738255	15	0.500030519999564	2	9	3	NaN	2	3	0.0758954804430093	0	1	NaN	161	3	35	1	120	220	320	NaN	520	0.307443268597126	1	0	NaN	4477036.9812685	NaN	4477037.9646702	4477038.48121743
107	19	0	0	90	36.1581920903955	36.241610738255	18	0.600036623999477	2	3	1	NaN	1	5	0.0758954804430093	0	1	NaN	162	3	36	1	120	220	320	NaN	520	0.714896568097174	2	0	NaN	4477039.5981851	NaN	4477040.5815903	4477041.09814713
107	19	0	0	90	36.1581920903955	36.241610738255	9	0.300018311999738	2	8	2	NaN	2	3	0.0758954804430093	0	1	NaN	163	3	37	1	120	220	320	NaN	520	0.17675721552223	2	1	NaN	4477042.6318311	NaN	4477043.6151905	4477044.13176448
107	19	0	0	90	36.1581920903955	36.241610738255	0	0	1	6	5	NaN	1	3	0.0758954804430093	0	1	NaN	164	3	38	1	110	210	310	NaN	510	0.205456221476197	1	1	NaN	4477045.1154102	NaN	4477046.0987966	4477046.61535458
107	19	0	0	90	36.1581920903955	36.241610738255	7	0.233347575999796	2	3	4	NaN	1	3	0.0758954804430093	0	1	NaN	165	3	39	1	120	220	320	NaN	520	0.568490915931761	1	1	NaN	4477047.6323137	NaN	4477048.6156934	4477049.13225678
107	19	0	0	90	36.1581920903955	36.241610738255	15	0.500030519999564	2	9	4	NaN	2	4	0.0758954804430093	0	1	NaN	166	3	40	1	120	220	320	NaN	520	0.0103930309414864	1	0	NaN	4477050.5159401	NaN	4477051.499362	4477052.01588967
107	19	0	0	90	36.1581920903955	36.241610738255	20	0.666707359999418	2	1	5	NaN	1	5	0.0758954804430093	0	1	NaN	167	3	41	1	120	220	320	NaN	520	0.256349720992148	2	0	NaN	4477052.8328075	NaN	4477053.8162068	4477054.33277798
107	19	0	0	90	36.1581920903955	36.241610738255	23	0.766713463999331	2	11	2	NaN	2	5	0.0758954804430093	0	1	NaN	168	3	42	1	120	220	320	NaN	520	0.217322468757629	2	1	NaN	4477055.399727	NaN	4477056.3831379	4477056.89969033
107	19	0	0	90	36.1581920903955	36.241610738255	10	0.333353679999709	2	1	5	NaN	1	5	0.0758954804430093	0	1	NaN	169	3	43	1	120	220	320	NaN	520	0.356424921192229	2	0	NaN	4477057.9166461	NaN	4477058.9000495	4477059.41660758
107	19	0	0	90	36.1581920903955	36.241610738255	22	0.73337809599936	2	7	4	NaN	2	5	0.0758954804430093	0	1	NaN	170	3	44	1	120	220	320	NaN	520	0.592437568120658	1	0	NaN	4477060.8002441	NaN	4477061.7836663	4477062.30021723
107	19	0	0	90	36.1581920903955	36.241610738255	0	0	1	1	2	NaN	1	3	0.0758954804430093	0	1	NaN	171	3	45	1	110	210	310	NaN	510	1.53206411469728	1	1	NaN	4477063.7005497	NaN	4477064.683956	4477065.20050598
107	19	0	0	90	36.1581920903955	36.241610738255	25	0.833384199999273	2	11	3	NaN	2	3	0.0758954804430093	0	1	NaN	172	3	46	1	120	220	320	NaN	520	0.433647820726037	2	1	NaN	4477067.5509452	NaN	4477068.5343266	4477069.05089148
107	19	0	0	90	36.1581920903955	36.241610738255	17	0.566701255999506	2	8	1	NaN	2	4	0.0758954804430093	0	1	NaN	173	3	47	1	120	220	320	NaN	520	0.427888868376613	2	1	NaN	4477070.3012179	NaN	4477071.2845927	4477071.80115083
107	19	0	0	90	36.1581920903955	36.241610738255	23	0.766713463999331	2	9	5	NaN	2	3	0.0758954804430093	0	1	NaN	174	3	48	1	120	220	320	NaN	520	0.510021320544183	2	1	NaN	4477073.0348201	NaN	4477074.0181966	4477074.53476188
107	19	0	0	90	36.1581920903955	36.241610738255	21	0.700042727999389	2	4	4	NaN	1	4	0.0758954804430093	0	1	NaN	175	3	49	1	120	220	320	NaN	520	1.08489506877959	2	0	NaN	4477075.851744	NaN	4477076.8351499	4477077.35169913
107	19	0	0	90	36.1581920903955	36.241610738255	10	0.333353679999709	2	6	1	NaN	1	4	0.0758954804430093	0	1	NaN	176	3	50	1	120	220	320	NaN	520	0.812567620538175	2	0	NaN	4477079.2521032	NaN	4477080.2354774	4477080.75203558
107	19	0	0	90	36.1581920903955	36.241610738255	13	0.433359783999622	2	8	5	NaN	2	4	0.0758954804430093	0	1	NaN	177	3	51	1	120	220	320	NaN	520	0.431325568817556	2	1	NaN	4477082.3857315	NaN	4477083.3691226	4477083.88567463
107	19	0	0	90	36.1581920903955	36.241610738255	0	0	1	4	2	NaN	1	4	0.0758954804430093	0	1	NaN	178	3	52	1	110	210	310	NaN	510	0.161188820376992	1	1	NaN	4477085.1360163	NaN	4477086.1193947	4477086.63594838
107	19	0	0	90	36.1581920903955	36.241610738255	18	0.600036623999477	2	7	3	NaN	2	4	0.0758954804430093	0	1	NaN	179	3	53	1	120	220	320	NaN	520	0.5091666681692	2	1	NaN	4477087.619578	NaN	4477088.6030119	4477089.11952193
107	19	0	0	90	36.1581920903955	36.241610738255	14	0.466695151999593	2	11	5	NaN	2	4	0.0758954804430093	0	1	NaN	180	3	54	1	120	220	320	NaN	520	0.564251220785081	1	0	NaN	4477090.4365259	NaN	4477091.419928	4477091.93646688
107	19	0	0	90	36.1581920903955	36.241610738255	19	0.633371991999447	2	9	3	NaN	2	5	0.0758954804430093	0	1	NaN	181	3	55	1	120	220	320	NaN	520	0.272804468870163	1	0	NaN	4477093.3201303	NaN	4477094.3035313	4477094.82008653
107	19	0	0	90	36.1581920903955	36.241610738255	25	0.833384199999273	2	1	1	NaN	1	3	0.0758954804430093	0	1	NaN	182	3	56	1	120	220	320	NaN	520	0.0102765411138535	1	1	NaN	4477095.9037263	NaN	4477096.8871174	4477097.40367406
107	19	0	0	90	36.1581920903955	36.241610738255	17	0.566701255999506	2	6	2	NaN	1	3	0.0758954804430093	0	1	NaN	183	3	57	1	120	220	320	NaN	520	0.23661723639816	1	1	NaN	4477098.2206031	NaN	4477099.2040109	4477099.72057086
107	19	0	0	90	36.1581920903955	36.241610738255	17	0.566701255999506	2	6	6	NaN	1	4	0.0758954804430093	0	1	NaN	184	3	58	1	120	220	320	NaN	520	0.246238968335092	1	1	NaN	4477100.7707361	NaN	4477101.7542564	4477102.27080893
107	19	0	0	90	36.1581920903955	36.241610738255	0	0	1	9	6	NaN	2	4	0.0758954804430093	0	1	NaN	185	3	59	1	110	210	310	NaN	510	1.61386616900563	2	1	NaN	4477103.7711749	NaN	4477104.7545581	4477105.27110223
107	19	0	0	90	36.1581920903955	36.241610738255	11	0.36668904799968	2	2	3	NaN	1	3	0.0758954804430093	0	1	NaN	186	3	60	1	120	220	320	NaN	520	0.119763321243227	1	1	NaN	4477107.704871	NaN	4477108.6882691	4477109.20482588
107	19	0	0	90	36.1581920903955	36.241610738255	7	0.233347575999796	2	4	4	NaN	1	5	0.0758954804430093	0	1	NaN	187	3	61	1	120	220	320	NaN	520	0.326297368854284	1	1	NaN	4477110.1384471	NaN	4477111.121845	4477111.63839393
107	19	0	0	90	36.1581920903955	36.241610738255	8	0.266682943999767	2	8	4	NaN	2	3	0.0758954804430093	0	1	NaN	188	3	62	1	120	220	320	NaN	520	0.420818420127034	2	1	NaN	4477112.7720485	NaN	4477113.7554322	4477114.27198768
107	19	0	0	90	36.1581920903955	36.241610738255	23	0.766713463999331	2	7	5	NaN	2	4	0.0758954804430093	0	1	NaN	189	3	63	1	120	220	320	NaN	520	0.010415269061923	2	1	NaN	4477115.5056316	NaN	4477116.4890389	4477117.00558863
107	19	0	0	90	36.1581920903955	36.241610738255	13	0.433359783999622	2	8	4	NaN	2	4	0.0758954804430093	0	1	NaN	190	4	1	1	120	220	320	NaN	520	0.292104168795049	2	1	NaN	4477126.9567629	NaN	4477127.9402054	4477128.45671373
107	19	0	0	90	36.1581920903955	36.241610738255	8	0.266682943999767	2	10	1	NaN	2	3	0.0758954804430093	0	1	NaN	191	4	2	1	120	220	320	NaN	520	0.436149768531322	2	1	NaN	4477129.5569101	NaN	4477130.5404176	4477131.05696723
107	19	0	0	90	36.1581920903955	36.241610738255	12	0.400024415999651	2	10	1	NaN	2	3	0.0758954804430093	0	1	NaN	192	4	3	1	120	220	320	NaN	520	0.254177968017757	2	1	NaN	4477132.6906809	NaN	4477133.6740566	4477134.19060683
107	19	0	0	90	36.1581920903955	36.241610738255	10	0.333353679999709	2	5	3	NaN	1	5	0.0758954804430093	0	1	NaN	193	4	4	1	120	220	320	NaN	520	0.279466114938259	2	0	NaN	4477135.2575634	NaN	4477136.2409676	4477136.75752848
107	19	0	0	90	36.1581920903955	36.241610738255	11	0.36668904799968	2	10	4	NaN	2	3	0.0758954804430093	0	1	NaN	194	4	5	1	120	220	320	NaN	520	0.295148820616305	2	1	NaN	4477137.8578252	NaN	4477138.8412733	4477139.35778848
107	19	0	0	90	36.1581920903955	36.241610738255	8	0.266682943999767	2	9	5	NaN	2	4	0.0758954804430093	0	1	NaN	195	4	6	1	120	220	320	NaN	520	0.374640468508005	2	1	NaN	4477140.4580977	NaN	4477141.4414885	4477141.95804103
107	19	0	0	90	36.1581920903955	36.241610738255	24	0.800048831999302	2	10	3	NaN	2	5	0.0758954804430093	0	1	NaN	196	4	7	1	120	220	320	NaN	520	0.803130420856178	2	1	NaN	4477143.1417687	NaN	4477144.1251105	4477144.64164028
107	19	0	0	90	36.1581920903955	36.241610738255	24	0.800048831999302	2	9	2	NaN	2	5	0.0758954804430093	0	1	NaN	197	4	8	1	120	220	320	NaN	520	0.0103977210819721	2	1	NaN	4477146.2586659	NaN	4477147.2420546	4477147.75860368
107	19	0	0	90	36.1581920903955	36.241610738255	9	0.300018311999738	2	3	3	NaN	1	4	0.0758954804430093	0	1	NaN	198	4	9	1	120	220	320	NaN	520	2.26509656850249	1	1	NaN	4477148.5755508	NaN	4477149.5589567	4477150.07550643
107	19	0	0	90	36.1581920903955	36.241610738255	8	0.266682943999767	2	2	4	NaN	1	3	0.0758954804430093	0	1	NaN	199	4	10	1	120	220	320	NaN	520	0.0104112690314651	1	1	NaN	4477153.4093403	NaN	4477154.3927593	4477154.90931103
107	19	0	0	90	36.1581920903955	36.241610738255	23	0.766713463999331	2	5	3	NaN	1	5	0.0758954804430093	0	1	NaN	200	4	11	1	120	220	320	NaN	520	1.4497988158837	1	1	NaN	4477155.7429151	NaN	4477156.7263682	4477157.24286708
107	19	0	0	90	36.1581920903955	36.241610738255	0	0	1	12	1	NaN	2	4	0.0758954804430093	0	1	NaN	201	4	12	1	110	210	310	NaN	510	0.458783368580043	1	0	NaN	4477159.5099647	NaN	4477160.4933541	4477161.00990553
107	19	0	0	90	36.1581920903955	36.241610738255	6	0.200012207999825	2	1	5	NaN	1	3	0.0758954804430093	0	1	NaN	202	4	13	1	120	220	320	NaN	520	0.176494221203029	2	0	NaN	4477162.76027	NaN	4477163.7436663	4477164.26023068
107	19	0	0	90	36.1581920903955	36.241610738255	21	0.700042727999389	2	6	2	NaN	1	5	0.0758954804430093	0	1	NaN	203	4	14	1	120	220	320	NaN	520	0.348913968540728	1	1	NaN	4477165.2438547	NaN	4477166.227251	4477166.74380683
107	19	0	0	90	36.1581920903955	36.241610738255	11	0.36668904799968	2	12	5	NaN	2	4	0.0758954804430093	0	1	NaN	204	4	15	1	120	220	320	NaN	520	0.386111874133348	1	0	NaN	4477167.9107947	NaN	4477168.8941849	4477169.41073853
107	19	0	0	90	36.1581920903955	36.241610738255	13	0.433359783999622	2	5	5	NaN	1	4	0.0758954804430093	0	1	NaN	205	4	16	1	120	220	320	NaN	520	0.917804569005966	1	1	NaN	4477170.6110584	NaN	4477171.5944439	4477172.11099153
107	19	0	0	90	36.1581920903955	36.241610738255	15	0.500030519999564	2	11	3	NaN	2	3	0.0758954804430093	0	1	NaN	206	4	17	1	120	220	320	NaN	520	0.356173767708242	2	1	NaN	4477173.8447004	NaN	4477174.8281608	4477175.34464633
107	19	0	0	90	36.1581920903955	36.241610738255	9	0.300018311999738	2	2	2	NaN	1	5	0.0758954804430093	0	1	NaN	207	4	18	1	120	220	320	NaN	520	0.289625869132578	1	1	NaN	4477176.5116341	NaN	4477177.495021	4477178.01156963
107	19	0	0	90	36.1581920903955	36.241610738255	25	0.833384199999273	2	6	4	NaN	1	4	0.0758954804430093	0	1	NaN	208	4	19	1	120	220	320	NaN	520	0.329045841470361	1	1	NaN	4477179.1118742	NaN	4477180.0952893	4477180.61183736
107	19	0	0	90	36.1581920903955	36.241610738255	10	0.333353679999709	2	3	2	NaN	1	4	0.0758954804430093	0	1	NaN	209	4	20	1	120	220	320	NaN	520	0.31078246794641	1	1	NaN	4477181.7620172	NaN	4477182.7455392	4477183.26208423
107	19	0	0	90	36.1581920903955	36.241610738255	0	0	1	2	5	NaN	1	3	0.0758954804430093	0	1	NaN	210	4	21	1	110	210	310	NaN	510	0.286260415799916	1	1	NaN	4477184.379073	NaN	4477185.3624719	4477185.87901458
107	19	0	0	90	36.1581920903955	36.241610738255	12	0.400024415999651	2	3	4	NaN	1	3	0.0758954804430093	0	1	NaN	211	4	22	1	120	220	320	NaN	520	0.645614769309759	2	0	NaN	4477186.9793334	NaN	4477187.9627223	4477188.47927743
107	19	0	0	90	36.1581920903955	36.241610738255	9	0.300018311999738	2	12	6	NaN	2	3	0.0758954804430093	0	1	NaN	212	4	23	1	120	220	320	NaN	520	1.11874292138964	2	1	NaN	4477189.9462778	NaN	4477190.9296973	4477191.44623308
107	19	0	0	90	36.1581920903955	36.241610738255	16	0.533365887999535	2	2	4	NaN	1	5	0.0758954804430093	0	1	NaN	213	4	24	1	120	220	320	NaN	520	0.301286836154759	2	0	NaN	4477193.3798872	NaN	4477194.3633421	4477194.87990486
107	19	0	0	90	36.1581920903955	36.241610738255	10	0.333353679999709	2	11	6	NaN	2	3	0.0758954804430093	0	1	NaN	214	4	25	1	120	220	320	NaN	520	0.443939036689699	2	1	NaN	4477195.9968775	NaN	4477196.980271	4477197.49683256
107	19	0	0	90	36.1581920903955	36.241610738255	25	0.833384199999273	2	4	4	NaN	1	5	0.0758954804430093	0	1	NaN	215	4	26	1	120	220	320	NaN	520	0.661431268788874	2	0	NaN	4477198.7636693	NaN	4477199.7472054	4477200.26376033
107	19	0	0	90	36.1581920903955	36.241610738255	7	0.233347575999796	2	11	1	NaN	2	4	0.0758954804430093	0	1	NaN	216	4	27	1	120	220	320	NaN	520	0.470238089561462	2	1	NaN	4477201.7307603	NaN	4477202.7141723	4477203.23072811
107	19	0	0	90	36.1581920903955	36.241610738255	10	0.333353679999709	2	9	2	NaN	2	5	0.0758954804430093	0	1	NaN	217	4	28	1	120	220	320	NaN	520	0.32658807374537	2	1	NaN	4477204.5143814	NaN	4477205.4977779	4477206.01433133
107	19	0	0	90	36.1581920903955	36.241610738255	24	0.800048831999302	2	7	4	NaN	2	4	0.0758954804430093	0	1	NaN	218	4	29	1	120	220	320	NaN	520	0.276914268732071	1	0	NaN	4477207.1479741	NaN	4477208.1313672	4477208.64791483
107	19	0	0	90	36.1581920903955	36.241610738255	18	0.600036623999477	2	9	6	NaN	2	4	0.0758954804430093	0	1	NaN	219	4	30	1	120	220	320	NaN	520	0.309541968628764	1	0	NaN	4477209.73158	NaN	4477210.714959	4477211.23150173
107	19	0	0	90	36.1581920903955	36.241610738255	23	0.766713463999331	2	11	3	NaN	2	5	0.0758954804430093	0	1	NaN	220	4	31	1	120	220	320	NaN	520	0.260527168400586	2	1	NaN	4477212.3484862	NaN	4477213.3318782	4477213.84843023
107	19	0	0	90	36.1581920903955	36.241610738255	12	0.400024415999651	2	4	6	NaN	1	5	0.0758954804430093	0	1	NaN	221	4	32	1	120	220	320	NaN	520	0.445916268974543	1	1	NaN	4477214.9154054	NaN	4477215.8987806	4477216.41534863
107	19	0	0	90	36.1581920903955	36.241610738255	24	0.800048831999302	2	4	2	NaN	1	4	0.0758954804430093	0	1	NaN	222	4	33	1	120	220	320	NaN	520	0.263613068498671	1	1	NaN	4477217.6656798	NaN	4477218.6490656	4477219.16561313
107	19	0	0	90	36.1581920903955	36.241610738255	24	0.800048831999302	2	12	5	NaN	2	5	0.0758954804430093	0	1	NaN	223	4	34	1	120	220	320	NaN	520	1.06409736908972	1	0	NaN	4477220.2492686	NaN	4477221.2326405	4477221.74920753
107	19	0	0	90	36.1581920903955	36.241610738255	15	0.500030519999564	2	4	3	NaN	1	3	0.0758954804430093	0	1	NaN	224	4	35	1	120	220	320	NaN	520	0.264042268507183	1	1	NaN	4477223.6327788	NaN	4477224.6163186	4477225.13286713
107	19	0	0	90	36.1581920903955	36.241610738255	6	0.200012207999825	2	4	5	NaN	1	4	0.0758954804430093	0	1	NaN	225	4	36	1	120	220	320	NaN	520	0.36037222109735	2	0	NaN	4477226.2165336	NaN	4477227.1999019	4477227.71645868
107	19	0	0	90	36.1581920903955	36.241610738255	22	0.73337809599936	2	11	4	NaN	2	3	0.0758954804430093	0	1	NaN	226	4	37	1	120	220	320	NaN	520	0.301955421455204	2	1	NaN	4477228.8834514	NaN	4477229.8668934	4477230.38339018
107	19	0	0	90	36.1581920903955	36.241610738255	11	0.36668904799968	2	11	2	NaN	2	4	0.0758954804430093	0	1	NaN	227	4	38	1	120	220	320	NaN	520	1.29293842054904	1	0	NaN	4477231.5003682	NaN	4477232.4837808	4477233.00030658
107	19	0	0	90	36.1581920903955	36.241610738255	9	0.300018311999738	2	7	3	NaN	2	4	0.0758954804430093	0	1	NaN	228	4	39	1	120	220	320	NaN	520	0.388252320699394	1	0	NaN	4477235.1007053	NaN	4477236.0841391	4477236.60065868
107	19	0	0	90	36.1581920903955	36.241610738255	20	0.666707359999418	2	3	5	NaN	1	5	0.0758954804430093	0	1	NaN	229	4	40	1	120	220	320	NaN	520	0.263990120962262	1	1	NaN	4477237.8009861	NaN	4477238.784364	4477239.30092278
107	19	0	0	90	36.1581920903955	36.241610738255	6	0.200012207999825	2	6	5	NaN	1	3	0.0758954804430093	0	1	NaN	230	4	41	1	120	220	320	NaN	520	0.296806568279862	1	1	NaN	4477240.3844138	NaN	4477241.3680443	4477241.88451863
107	19	0	0	90	36.1581920903955	36.241610738255	13	0.433359783999622	2	11	1	NaN	2	3	0.0758954804430093	0	1	NaN	231	4	42	1	120	220	320	NaN	520	0.280552720651031	2	1	NaN	4477242.9848183	NaN	4477243.9682085	4477244.48477428
107	19	0	0	90	36.1581920903955	36.241610738255	20	0.666707359999418	2	8	1	NaN	2	3	0.0758954804430093	0	1	NaN	232	4	43	1	120	220	320	NaN	520	1.04027906805277	2	1	NaN	4477245.5849711	NaN	4477246.5684785	4477247.08502353
107	19	0	0	90	36.1581920903955	36.241610738255	14	0.466695151999593	2	5	5	NaN	1	4	0.0758954804430093	0	1	NaN	233	4	44	1	120	220	320	NaN	520	0.330001820810139	1	1	NaN	4477248.9353853	NaN	4477249.9187931	4477250.43534338
107	19	0	0	90	36.1581920903955	36.241610738255	14	0.466695151999593	2	2	1	NaN	1	3	0.0758954804430093	0	1	NaN	234	4	45	1	120	220	320	NaN	520	0.375146368518472	2	0	NaN	4477251.5856477	NaN	4477252.5690662	4477253.08561573
107	19	0	0	90	36.1581920903955	36.241610738255	7	0.233347575999796	2	3	3	NaN	1	3	0.0758954804430093	0	1	NaN	235	4	46	1	120	220	320	NaN	520	0.315710368566215	1	1	NaN	4477254.269265	NaN	4477255.2526529	4477255.76921323
107	19	0	0	90	36.1581920903955	36.241610738255	13	0.433359783999622	2	12	3	NaN	2	3	0.0758954804430093	0	1	NaN	236	4	47	1	120	220	320	NaN	520	0.954836115241051	1	0	NaN	4477256.8860343	NaN	4477257.8695811	4477258.38613158
107	19	0	0	90	36.1581920903955	36.241610738255	6	0.200012207999825	2	11	4	NaN	2	3	0.0758954804430093	0	1	NaN	237	4	48	1	120	220	320	NaN	520	0.416245888918638	2	1	NaN	4477260.1531833	NaN	4477261.1365909	4477261.65312621
107	19	0	0	90	36.1581920903955	36.241610738255	12	0.400024415999651	2	9	2	NaN	2	5	0.0758954804430093	0	1	NaN	238	4	49	1	120	220	320	NaN	520	0.370612268336117	1	0	NaN	4477262.8867744	NaN	4477263.8701741	4477264.38671813
107	19	0	0	90	36.1581920903955	36.241610738255	18	0.600036623999477	2	12	6	NaN	2	4	0.0758954804430093	0	1	NaN	239	4	50	1	120	220	320	NaN	520	0.534615168347955	1	0	NaN	4477265.5703662	NaN	4477266.5537608	4477267.07031813
107	19	0	0	90	36.1581920903955	36.241610738255	17	0.566701255999506	2	7	3	NaN	2	4	0.0758954804430093	0	1	NaN	240	4	51	1	120	220	320	NaN	520	0.540374920703471	2	1	NaN	4477268.4206496	NaN	4477269.404026	4477269.92059058
107	19	0	0	90	36.1581920903955	36.241610738255	12	0.400024415999651	2	2	5	NaN	1	3	0.0758954804430093	0	1	NaN	241	4	52	1	120	220	320	NaN	520	0.322067968547344	2	0	NaN	4477271.2709327	NaN	4477272.25432	4477272.77087773
107	19	0	0	90	36.1581920903955	36.241610738255	12	0.400024415999651	2	5	1	NaN	1	3	0.0758954804430093	0	1	NaN	242	4	53	1	120	220	320	NaN	520	0.200556973926723	1	1	NaN	4477273.9045256	NaN	4477274.8879011	4477275.40446993
107	19	0	0	90	36.1581920903955	36.241610738255	19	0.633371991999447	2	10	1	NaN	2	5	0.0758954804430093	0	1	NaN	243	4	54	1	120	220	320	NaN	520	0.299754568375647	2	1	NaN	4477276.4214399	NaN	4477277.4048324	4477277.92137873
107	19	0	0	90	36.1581920903955	36.241610738255	16	0.533365887999535	2	1	5	NaN	1	4	0.0758954804430093	0	1	NaN	244	4	55	1	120	220	320	NaN	520	0.0348547678440809	2	0	NaN	4477279.0383647	NaN	4477280.0217627	4477280.53830403
107	19	0	0	90	36.1581920903955	36.241610738255	20	0.666707359999418	2	10	6	NaN	2	5	0.0758954804430093	0	1	NaN	245	4	56	1	120	220	320	NaN	520	0.396442720666528	1	0	NaN	4477281.3885903	NaN	4477282.3719806	4477282.88853988
107	19	0	0	90	36.1581920903955	36.241610738255	16	0.533365887999535	2	9	1	NaN	2	4	0.0758954804430093	0	1	NaN	246	4	57	1	120	220	320	NaN	520	0.335538968443871	2	1	NaN	4477284.1055202	NaN	4477285.0889125	4477285.60547153
107	19	0	0	90	36.1581920903955	36.241610738255	7	0.233347575999796	2	1	2	NaN	1	5	0.0758954804430093	0	1	NaN	247	4	58	1	120	220	320	NaN	520	0.253761868923903	1	1	NaN	4477286.7557276	NaN	4477287.7391777	4477288.25572433
107	19	0	0	90	36.1581920903955	36.241610738255	20	0.666707359999418	2	11	4	NaN	2	4	0.0758954804430093	0	1	NaN	248	4	59	1	120	220	320	NaN	520	0.30223454721272	2	1	NaN	4477289.322691	NaN	4477290.3060926	4477290.82267195
107	19	0	0	90	36.1581920903955	36.241610738255	7	0.233347575999796	2	11	1	NaN	2	3	0.0758954804430093	0	1	NaN	249	4	60	1	120	220	320	NaN	520	0.149858220480382	2	1	NaN	4477291.939633	NaN	4477292.9230191	4477293.43957548
107	19	0	0	90	36.1581920903955	36.241610738255	21	0.700042727999389	2	9	3	NaN	2	4	0.0758954804430093	0	1	NaN	250	4	61	1	120	220	320	NaN	520	0.954393120482564	2	1	NaN	4477294.4065332	NaN	4477295.3899352	4477295.90648468
107	19	0	0	90	36.1581920903955	36.241610738255	18	0.600036623999477	2	5	5	NaN	1	4	0.0758954804430093	0	1	NaN	251	4	62	1	120	220	320	NaN	520	0.25595077406615	2	0	NaN	4477297.6735579	NaN	4477298.656933	4477299.17347233
107	19	0	0	90	36.1581920903955	36.241610738255	15	0.500030519999564	2	10	2	NaN	2	4	0.0758954804430093	0	1	NaN	252	4	63	1	120	220	320	NaN	520	0.336581674404442	2	1	NaN	4477300.2404332	NaN	4477301.2238618	4477301.74039033
107	19	0	0	90	36.1581920903955	36.241610738255	16	0.533365887999535	2	5	6	NaN	1	5	0.0758954804430093	0	1	NaN	253	5	1	1	120	220	320	NaN	520	0.827831420116127	1	1	NaN	4477321.5092682	NaN	4477322.4925878	4477323.00913478
107	19	0	0	90	36.1581920903955	36.241610738255	23	0.766713463999331	2	9	4	NaN	2	3	0.0758954804430093	0	1	NaN	254	5	2	1	120	220	320	NaN	520	0.342262268066406	2	1	NaN	4477324.6428422	NaN	4477325.6262311	4477326.14277613
107	19	0	0	90	36.1581920903955	36.241610738255	16	0.533365887999535	2	8	3	NaN	2	5	0.0758954804430093	0	1	NaN	255	5	3	1	120	220	320	NaN	520	0.308151869103312	2	1	NaN	4477327.2931222	NaN	4477328.276492	4477328.79304363
107	19	0	0	90	36.1581920903955	36.241610738255	25	0.833384199999273	2	7	3	NaN	2	3	0.0758954804430093	0	1	NaN	256	5	4	1	120	220	320	NaN	520	1.38691901508719	1	0	NaN	4477329.9100215	NaN	4477330.8934006	4477331.40995418
107	19	0	0	90	36.1581920903955	36.241610738255	15	0.500030519999564	2	4	5	NaN	1	3	0.0758954804430093	0	1	NaN	257	5	5	1	120	220	320	NaN	520	0.278972215019166	1	1	NaN	4477333.6103623	NaN	4477334.5937729	4477335.11032008
107	19	0	0	90	36.1581920903955	36.241610738255	20	0.666707359999418	2	2	2	NaN	1	3	0.0758954804430093	0	1	NaN	258	5	6	1	120	220	320	NaN	520	0.391572020947933	1	1	NaN	4477336.1939679	NaN	4477337.1773524	4477337.69391718
107	19	0	0	90	36.1581920903955	36.241610738255	23	0.766713463999331	2	1	3	NaN	1	5	0.0758954804430093	0	1	NaN	259	5	7	1	120	220	320	NaN	520	0.219266915693879	1	1	NaN	4477338.8942403	NaN	4477339.8776066	4477340.39417078
107	19	0	0	90	36.1581920903955	36.241610738255	18	0.600036623999477	2	10	5	NaN	2	5	0.0758954804430093	0	1	NaN	260	5	8	1	120	220	320	NaN	520	0.349727320484817	1	0	NaN	4477341.4278083	NaN	4477342.4112051	4477342.92776338
107	19	0	0	90	36.1581920903955	36.241610738255	21	0.700042727999389	2	12	2	NaN	2	3	0.0758954804430093	0	1	NaN	261	5	9	1	120	220	320	NaN	520	0.0104122683405876	2	1	NaN	4477344.0947451	NaN	4477345.0781435	4477345.59469003
107	19	0	0	90	36.1581920903955	36.241610738255	12	0.400024415999651	2	1	4	NaN	1	5	0.0758954804430093	0	1	NaN	262	5	10	1	120	220	320	NaN	520	1.50147787947208	1	1	NaN	4477346.4116531	NaN	4477347.3950275	4477347.91158962
107	19	0	0	90	36.1581920903955	36.241610738255	25	0.833384199999273	2	3	6	NaN	1	4	0.0758954804430093	0	1	NaN	263	5	11	1	120	220	320	NaN	520	0.588783668354154	2	0	NaN	4477350.2286976	NaN	4477351.2120759	4477351.72862443
107	19	0	0	90	36.1581920903955	36.241610738255	14	0.466695151999593	2	7	3	NaN	2	4	0.0758954804430093	0	1	NaN	264	5	12	1	120	220	320	NaN	520	0.544270421378314	1	0	NaN	4477353.1289515	NaN	4477354.112364	4477354.62890948
107	19	0	0	90	36.1581920903955	36.241610738255	8	0.266682943999767	2	1	4	NaN	1	4	0.0758954804430093	0	1	NaN	265	5	13	1	120	220	320	NaN	520	0.413774515502155	1	1	NaN	4477355.995908	NaN	4477356.9793129	4477357.49585298
107	19	0	0	90	36.1581920903955	36.241610738255	14	0.466695151999593	2	10	4	NaN	2	4	0.0758954804430093	0	1	NaN	266	5	14	1	120	220	320	NaN	520	0.271834468469024	1	0	NaN	4477358.7295051	NaN	4477359.7128988	4477360.22945453
107	19	0	0	90	36.1581920903955	36.241610738255	13	0.433359783999622	2	10	4	NaN	2	4	0.0758954804430093	0	1	NaN	267	5	15	1	120	220	320	NaN	520	1.47217796836048	1	0	NaN	4477361.3131225	NaN	4477362.2964959	4477362.81304723
107	19	0	0	90	36.1581920903955	36.241610738255	25	0.833384199999273	2	9	5	NaN	2	3	0.0758954804430093	0	1	NaN	268	5	16	1	120	220	320	NaN	520	0.832536668516695	2	1	NaN	4477365.0969057	NaN	4477366.0801709	4477366.59674143
107	19	0	0	90	36.1581920903955	36.241610738255	17	0.566701255999506	2	7	2	NaN	2	4	0.0758954804430093	0	1	NaN	269	5	17	1	120	220	320	NaN	520	0.338464415632188	2	1	NaN	4477368.2471047	NaN	4477369.2305256	4477369.74706088
107	19	0	0	90	36.1581920903955	36.241610738255	19	0.633371991999447	2	12	6	NaN	2	5	0.0758954804430093	0	1	NaN	270	5	18	1	120	220	320	NaN	520	1.35212507843971	1	0	NaN	4477370.8973694	NaN	4477371.8807566	4477372.39732662
107	19	0	0	90	36.1581920903955	36.241610738255	23	0.766713463999331	2	6	4	NaN	1	4	0.0758954804430093	0	1	NaN	271	5	19	1	120	220	320	NaN	520	0.237205968238413	1	1	NaN	4477374.5643861	NaN	4477375.5477854	4477376.06433973
107	19	0	0	90	36.1581920903955	36.241610738255	19	0.633371991999447	2	1	3	NaN	1	5	0.0758954804430093	0	1	NaN	272	5	20	1	120	220	320	NaN	520	0.447056121192873	2	0	NaN	4477377.1146524	NaN	4477378.0980329	4477378.61459398
107	19	0	0	90	36.1581920903955	36.241610738255	7	0.233347575999796	2	5	4	NaN	1	3	0.0758954804430093	0	1	NaN	273	5	21	1	120	220	320	NaN	520	0.407482068054378	2	0	NaN	4477379.8815825	NaN	4477380.864982	4477381.38153183
107	19	0	0	90	36.1581920903955	36.241610738255	12	0.400024415999651	2	2	2	NaN	1	3	0.0758954804430093	0	1	NaN	274	5	22	1	120	220	320	NaN	520	0.283077267929912	1	1	NaN	4477382.598523	NaN	4477383.581897	4477384.09845843
107	19	0	0	90	36.1581920903955	36.241610738255	19	0.633371991999447	2	11	5	NaN	2	3	0.0758954804430093	0	1	NaN	275	5	23	1	120	220	320	NaN	520	0.570956069044769	2	1	NaN	4477385.1822092	NaN	4477386.1655626	4477386.68205143
107	19	0	0	90	36.1581920903955	36.241610738255	7	0.233347575999796	2	8	1	NaN	2	4	0.0758954804430093	0	1	NaN	276	5	24	1	120	220	320	NaN	520	0.194027420133352	1	0	NaN	4477388.1990922	NaN	4477389.1824623	4477389.69902028
107	19	0	0	90	36.1581920903955	36.241610738255	14	0.466695151999593	2	10	2	NaN	2	5	0.0758954804430093	0	1	NaN	277	5	25	1	120	220	320	NaN	520	0.272536494769156	2	1	NaN	4477391.0327031	NaN	4477392.0160788	4477392.5326351
107	19	0	0	90	36.1581920903955	36.241610738255	9	0.300018311999738	2	9	6	NaN	2	3	0.0758954804430093	0	1	NaN	278	5	26	1	120	220	320	NaN	520	0.36083896830678	2	1	NaN	4477393.6162805	NaN	4477394.5996576	4477395.11621633
107	19	0	0	90	36.1581920903955	36.241610738255	17	0.566701255999506	2	3	6	NaN	1	3	0.0758954804430093	0	1	NaN	279	5	27	1	120	220	320	NaN	520	0.0140187153592706	1	1	NaN	4477396.2832251	NaN	4477397.2665974	4477397.78313568
107	19	0	0	90	36.1581920903955	36.241610738255	11	0.36668904799968	2	7	2	NaN	2	4	0.0758954804430093	0	1	NaN	280	5	28	1	120	220	320	NaN	520	0.216477069072425	2	1	NaN	4477398.6167878	NaN	4477399.6001477	4477400.11670203
107	19	0	0	90	36.1581920903955	36.241610738255	14	0.466695151999593	2	11	1	NaN	2	5	0.0758954804430093	0	1	NaN	281	5	29	1	120	220	320	NaN	520	0.618960294872522	2	1	NaN	4477401.1503583	NaN	4477402.1337599	4477402.65029681
107	19	0	0	90	36.1581920903955	36.241610738255	24	0.800048831999302	2	3	1	NaN	1	5	0.0758954804430093	0	1	NaN	282	5	30	1	120	220	320	NaN	520	0.221283569000661	1	1	NaN	4477404.0839691	NaN	4477405.0673601	4477405.58390153
107	19	0	0	90	36.1581920903955	36.241610738255	14	0.466695151999593	2	8	6	NaN	2	5	0.0758954804430093	0	1	NaN	283	5	31	1	120	220	320	NaN	520	0.247502321377397	1	0	NaN	4477406.6175374	NaN	4477407.6009458	4477408.11749448
107	19	0	0	90	36.1581920903955	36.241610738255	19	0.633371991999447	2	6	2	NaN	1	3	0.0758954804430093	0	1	NaN	284	5	32	1	120	220	320	NaN	520	0.0104246158152819	1	1	NaN	4477409.1844929	NaN	4477410.1678896	4477410.68440308
107	19	0	0	90	36.1581920903955	36.241610738255	13	0.433359783999622	2	4	1	NaN	1	5	0.0758954804430093	0	1	NaN	285	5	33	1	120	220	320	NaN	520	0.147896094247699	1	1	NaN	4477411.501354	NaN	4477412.4846279	4477413.00130981
107	19	0	0	90	36.1581920903955	36.241610738255	14	0.466695151999593	2	7	5	NaN	2	4	0.0758954804430093	0	1	NaN	286	5	34	1	120	220	320	NaN	520	0.185355921275914	1	0	NaN	4477413.9682634	NaN	4477414.9516594	4477415.46821808
107	19	0	0	90	36.1581920903955	36.241610738255	10	0.333353679999709	2	8	5	NaN	2	4	0.0758954804430093	0	1	NaN	287	5	35	1	120	220	320	NaN	520	0.0104049211367965	2	1	NaN	4477416.4684912	NaN	4477417.4518951	4477417.96845268
107	19	0	0	90	36.1581920903955	36.241610738255	21	0.700042727999389	2	2	2	NaN	1	4	0.0758954804430093	0	1	NaN	288	5	36	1	120	220	320	NaN	520	0.115861737169325	2	0	NaN	4477418.8854263	NaN	4477419.868806	4477420.38536536
107	19	0	0	90	36.1581920903955	36.241610738255	6	0.200012207999825	2	6	4	NaN	1	5	0.0758954804430093	0	1	NaN	289	5	37	1	120	220	320	NaN	520	0.762055015191436	1	1	NaN	4477421.3189894	NaN	4477422.3023827	4477422.81893258
107	19	0	0	90	36.1581920903955	36.241610738255	9	0.300018311999738	2	6	1	NaN	1	4	0.0758954804430093	0	1	NaN	290	5	38	1	120	220	320	NaN	520	0.350645668804646	1	1	NaN	4477424.4026343	NaN	4477425.3860079	4477425.90256253
107	19	0	0	90	36.1581920903955	36.241610738255	11	0.36668904799968	2	4	4	NaN	1	5	0.0758954804430093	0	1	NaN	291	5	39	1	120	220	320	NaN	520	0.426889662630856	1	1	NaN	4477427.4862561	NaN	4477428.469657	4477428.98619824
107	19	0	0	90	36.1581920903955	36.241610738255	20	0.666707359999418	2	3	5	NaN	1	3	0.0758954804430093	0	1	NaN	292	5	40	1	120	220	320	NaN	520	0.40597031544894	1	1	NaN	4477430.603199	NaN	4477431.5866293	4477432.10317648
107	19	0	0	90	36.1581920903955	36.241610738255	6	0.200012207999825	2	4	1	NaN	1	5	0.0758954804430093	0	1	NaN	293	5	41	1	120	220	320	NaN	520	0.217504320666194	1	1	NaN	4477433.3201606	NaN	4477434.3035462	4477434.82011218
107	19	0	0	90	36.1581920903955	36.241610738255	16	0.533365887999535	2	2	5	NaN	1	5	0.0758954804430093	0	1	NaN	294	5	42	1	120	220	320	NaN	520	0.77147842105478	2	0	NaN	4477435.8537884	NaN	4477436.8371521	4477437.35369398
107	19	0	0	90	36.1581920903955	36.241610738255	9	0.300018311999738	2	10	3	NaN	2	3	0.0758954804430093	0	1	NaN	295	5	43	1	120	220	320	NaN	520	0.655901420861483	1	0	NaN	4477438.9373659	NaN	4477439.9207887	4477440.43732768
107	19	0	0	90	36.1581920903955	36.241610738255	19	0.633371991999447	2	7	2	NaN	2	5	0.0758954804430093	0	1	NaN	296	5	44	1	120	220	320	NaN	520	0.384976315312088	2	1	NaN	4477441.9043458	NaN	4477442.8877391	4477443.40427828
107	19	0	0	90	36.1581920903955	36.241610738255	21	0.700042727999389	2	8	5	NaN	2	3	0.0758954804430093	0	1	NaN	297	5	45	1	120	220	320	NaN	520	0.353074073791504	1	0	NaN	4477445.1046405	NaN	4477446.0880606	4477446.60459683
107	19	0	0	90	36.1581920903955	36.241610738255	12	0.400024415999651	2	9	1	NaN	2	4	0.0758954804430093	0	1	NaN	298	5	46	1	120	220	320	NaN	520	0.286077421158552	2	1	NaN	4477447.7715811	NaN	4477448.7549675	4477449.27152378
107	19	0	0	90	36.1581920903955	36.241610738255	16	0.533365887999535	2	11	5	NaN	2	5	0.0758954804430093	0	1	NaN	299	5	47	1	120	220	320	NaN	520	0.509940268471837	2	1	NaN	4477450.3718415	NaN	4477451.3552314	4477451.87178083
107	19	0	0	90	36.1581920903955	36.241610738255	9	0.300018311999738	2	6	3	NaN	1	3	0.0758954804430093	0	1	NaN	300	5	48	1	120	220	320	NaN	520	0.220802168361843	1	1	NaN	4477453.1887813	NaN	4477454.1721639	4477454.68873043
107	19	0	0	90	36.1581920903955	36.241610738255	21	0.700042727999389	2	3	4	NaN	1	3	0.0758954804430093	0	1	NaN	301	5	49	1	120	220	320	NaN	520	1.17475561518222	2	0	NaN	4477455.7223593	NaN	4477456.7057345	4477457.22230188
107	19	0	0	90	36.1581920903955	36.241610738255	17	0.566701255999506	2	12	5	NaN	2	5	0.0758954804430093	0	1	NaN	302	5	50	1	120	220	320	NaN	520	0.411227889358997	2	1	NaN	4477459.2060396	NaN	4477460.189433	4477460.70598291
107	19	0	0	90	36.1581920903955	36.241610738255	18	0.600036623999477	2	10	4	NaN	2	5	0.0758954804430093	0	1	NaN	303	5	51	1	120	220	320	NaN	520	0.461701569147408	2	1	NaN	4477461.9396487	NaN	4477462.923038	4477463.43959083
107	19	0	0	90	36.1581920903955	36.241610738255	0	0	1	7	5	NaN	2	4	0.0758954804430093	0	1	NaN	304	5	52	1	110	210	310	NaN	510	0.350497821345925	1	0	NaN	4477464.7232519	NaN	4477465.7066407	4477466.22318808
107	19	0	0	90	36.1581920903955	36.241610738255	19	0.633371991999447	2	4	1	NaN	1	4	0.0758954804430093	0	1	NaN	305	5	53	1	120	220	320	NaN	520	0.259453215636313	1	1	NaN	4477467.390032	NaN	4477468.373568	4477468.89011688
107	19	0	0	90	36.1581920903955	36.241610738255	16	0.533365887999535	2	3	3	NaN	1	3	0.0758954804430093	0	1	NaN	306	5	54	1	120	220	320	NaN	520	0.348282820545137	1	1	NaN	4477469.9570986	NaN	4477470.9404756	4477471.45704388
107	19	0	0	90	36.1581920903955	36.241610738255	12	0.400024415999651	2	6	4	NaN	1	3	0.0758954804430093	0	1	NaN	307	5	55	1	120	220	320	NaN	520	0.201693268492818	1	1	NaN	4477472.6240213	NaN	4477473.6074145	4477474.12396293
107	19	0	0	90	36.1581920903955	36.241610738255	22	0.73337809599936	2	1	2	NaN	1	5	0.0758954804430093	0	1	NaN	308	5	56	1	120	220	320	NaN	520	0.0523856626823545	1	1	NaN	4477475.1409395	NaN	4477476.1243305	4477476.64087464
107	19	0	0	90	36.1581920903955	36.241610738255	16	0.533365887999535	2	11	2	NaN	2	3	0.0758954804430093	0	1	NaN	309	5	57	1	120	220	320	NaN	520	0.0213883211836219	2	1	NaN	4477477.5078314	NaN	4477478.49123	4477479.00778138
107	19	0	0	90	36.1581920903955	36.241610738255	11	0.36668904799968	2	8	2	NaN	2	4	0.0758954804430093	0	1	NaN	310	5	58	1	120	220	320	NaN	520	0.151296367868781	1	0	NaN	4477480.2579733	NaN	4477481.2414773	4477481.75804823
107	19	0	0	90	36.1581920903955	36.241610738255	16	0.533365887999535	2	9	5	NaN	2	3	0.0758954804430093	0	1	NaN	311	5	59	1	120	220	320	NaN	520	1.00432036817074	2	1	NaN	4477482.724994	NaN	4477483.7083102	4477484.22495153
107	19	0	0	90	36.1581920903955	36.241610738255	19	0.633371991999447	2	10	3	NaN	2	3	0.0758954804430093	0	1	NaN	312	5	60	1	120	220	320	NaN	520	0.919350269250572	2	1	NaN	4477486.0419988	NaN	4477487.0253956	4477487.54195033
107	19	0	0	90	36.1581920903955	36.241610738255	16	0.533365887999535	2	3	2	NaN	1	4	0.0758954804430093	0	1	NaN	313	5	61	1	120	220	320	NaN	520	0.174033968709409	1	1	NaN	4477489.2755421	NaN	4477490.2590993	4477490.77559623
107	19	0	0	90	36.1581920903955	36.241610738255	20	0.666707359999418	2	7	1	NaN	2	3	0.0758954804430093	0	1	NaN	314	5	62	1	120	220	320	NaN	520	0.674136068671942	2	1	NaN	4477491.7592353	NaN	4477492.7426249	4477493.25917763
107	19	0	0	90	36.1581920903955	36.241610738255	16	0.533365887999535	2	4	1	NaN	1	3	0.0758954804430093	0	1	NaN	315	5	63	1	120	220	320	NaN	520	0.73143302090466	1	1	NaN	4477494.9262192	NaN	4477495.9095887	4477496.42615338
107	19	0	0	90	36.1581920903955	36.241610738255	24	0.800048831999302	2	8	4	NaN	2	4	0.0758954804430093	0	1	NaN	316	6	1	1	120	220	320	NaN	520	0.295139262452722	2	1	NaN	4477521.3622844	NaN	4477522.3455301	4477522.86208354
107	19	0	0	90	36.1581920903955	36.241610738255	17	0.566701255999506	2	10	1	NaN	2	4	0.0758954804430093	0	1	NaN	317	6	2	1	120	220	320	NaN	520	0.230959821492434	2	1	NaN	4477523.9623956	NaN	4477524.9457839	4477525.46234368
107	19	0	0	90	36.1581920903955	36.241610738255	15	0.500030519999564	2	12	2	NaN	2	4	0.0758954804430093	0	1	NaN	318	6	3	1	120	220	320	NaN	520	0.24066536873579	2	1	NaN	4477526.5126569	NaN	4477527.4960346	4477528.01258163
107	19	0	0	90	36.1581920903955	36.241610738255	14	0.466695151999593	2	1	6	NaN	1	5	0.0758954804430093	0	1	NaN	319	6	4	1	120	220	320	NaN	520	0.21043196786195	2	0	NaN	4477529.0628698	NaN	4477530.0462797	4477530.56284393
107	19	0	0	90	36.1581920903955	36.241610738255	9	0.300018311999738	2	2	1	NaN	1	5	0.0758954804430093	0	1	NaN	320	6	5	1	120	220	320	NaN	520	0.0104109682142735	2	0	NaN	4477531.579797	NaN	4477532.5632064	4477533.07974943
107	19	0	0	90	36.1581920903955	36.241610738255	23	0.766713463999331	2	10	5	NaN	2	3	0.0758954804430093	0	1	NaN	321	6	6	1	120	220	320	NaN	520	0.225157321430743	1	0	NaN	4477533.8967036	NaN	4477534.8800876	4477535.39664068
107	19	0	0	90	36.1581920903955	36.241610738255	15	0.500030519999564	2	5	2	NaN	1	5	0.0758954804430093	0	1	NaN	322	6	7	1	120	220	320	NaN	520	0.506604067981243	1	1	NaN	4477536.4469454	NaN	4477537.4303435	4477537.94689513
107	19	0	0	90	36.1581920903955	36.241610738255	15	0.500030519999564	2	3	6	NaN	1	3	0.0758954804430093	0	1	NaN	323	6	8	1	120	220	320	NaN	520	0.473573068156838	2	0	NaN	4477539.2638922	NaN	4477540.2472782	4477540.76383373
107	19	0	0	90	36.1581920903955	36.241610738255	0	0	1	8	1	NaN	2	5	0.0758954804430093	0	1	NaN	324	6	9	1	110	210	310	NaN	510	0.297817915678024	2	1	NaN	4477542.0475009	NaN	4477543.0309002	4477543.54744738
107	19	0	0	90	36.1581920903955	36.241610738255	16	0.533365887999535	2	1	3	NaN	1	4	0.0758954804430093	0	1	NaN	325	6	10	1	120	220	320	NaN	520	0.145736061967909	2	0	NaN	4477544.6477682	NaN	4477545.63115	4477546.14770594
107	19	0	0	90	36.1581920903955	36.241610738255	18	0.600036623999477	2	12	4	NaN	2	5	0.0758954804430093	0	1	NaN	326	6	11	1	120	220	320	NaN	520	0.263216968625784	1	0	NaN	4477547.1146712	NaN	4477548.098066	4477548.61461153
107	19	0	0	90	36.1581920903955	36.241610738255	8	0.266682943999767	2	3	4	NaN	1	5	0.0758954804430093	0	1	NaN	327	6	12	1	120	220	320	NaN	520	0.223198268562555	1	1	NaN	4477549.6982591	NaN	4477550.681648	4477551.19820523
107	19	0	0	90	36.1581920903955	36.241610738255	22	0.73337809599936	2	1	3	NaN	1	4	0.0758954804430093	0	1	NaN	328	6	13	1	120	220	320	NaN	520	0.216928515583277	1	1	NaN	4477552.2485001	NaN	4477553.2319806	4477553.74846248
107	19	0	0	90	36.1581920903955	36.241610738255	19	0.633371991999447	2	4	2	NaN	1	3	0.0758954804430093	0	1	NaN	329	6	14	1	120	220	320	NaN	520	0.315696278586984	1	1	NaN	4477554.7820768	NaN	4477555.7654595	4477556.28202292
107	19	0	0	90	36.1581920903955	36.241610738255	13	0.433359783999622	2	1	1	NaN	1	3	0.0758954804430093	0	1	NaN	330	6	15	1	120	220	320	NaN	520	0.993742268532515	1	1	NaN	4477557.415638	NaN	4477558.3990602	4477558.91561583
107	19	0	0	90	36.1581920903955	36.241610738255	15	0.500030519999564	2	2	1	NaN	1	3	0.0758954804430093	0	1	NaN	331	6	16	1	120	220	320	NaN	520	0.157195962965488	1	1	NaN	4477560.7326624	NaN	4477561.7159679	4477562.23261414
107	19	0	0	90	36.1581920903955	36.241610738255	13	0.433359783999622	2	11	2	NaN	2	5	0.0758954804430093	0	1	NaN	332	6	17	1	120	220	320	NaN	520	0.33030501473695	2	1	NaN	4477563.1995757	NaN	4477564.1829787	4477564.69951288
107	19	0	0	90	36.1581920903955	36.241610738255	23	0.766713463999331	2	10	3	NaN	2	5	0.0758954804430093	0	1	NaN	333	6	18	1	120	220	320	NaN	520	0.936004520393908	2	1	NaN	4477565.8498259	NaN	4477566.8332142	4477567.34978128
107	19	0	0	90	36.1581920903955	36.241610738255	7	0.233347575999796	2	10	3	NaN	2	3	0.0758954804430093	0	1	NaN	334	6	19	1	120	220	320	NaN	520	0.853706468828022	1	0	NaN	4477569.1001443	NaN	4477570.0835508	4477570.60010183
107	19	0	0	90	36.1581920903955	36.241610738255	25	0.833384199999273	2	11	6	NaN	2	4	0.0758954804430093	0	1	NaN	335	6	20	1	120	220	320	NaN	520	0.262597020715475	2	1	NaN	4477572.2671219	NaN	4477573.2505321	4477573.76708388
107	19	0	0	90	36.1581920903955	36.241610738255	11	0.36668904799968	2	5	1	NaN	1	4	0.0758954804430093	0	1	NaN	336	6	21	1	120	220	320	NaN	520	0.502655669115484	2	0	NaN	4477574.8507102	NaN	4477575.8341105	4477576.35066173
107	19	0	0	90	36.1581920903955	36.241610738255	16	0.533365887999535	2	6	6	NaN	1	5	0.0758954804430093	0	1	NaN	337	6	22	1	120	220	320	NaN	520	0.0139335682615638	1	1	NaN	4477577.66752	NaN	4477578.6510532	4477579.16761143
107	19	0	0	90	36.1581920903955	36.241610738255	11	0.36668904799968	2	6	4	NaN	1	5	0.0758954804430093	0	1	NaN	338	6	23	1	120	220	320	NaN	520	0.152204720303416	1	1	NaN	4477580.0012269	NaN	4477580.9846243	4477581.50117318
107	19	0	0	90	36.1581920903955	36.241610738255	16	0.533365887999535	2	10	6	NaN	2	5	0.0758954804430093	0	1	NaN	339	6	24	1	120	220	320	NaN	520	0.293417816050351	1	0	NaN	4477582.4681379	NaN	4477583.4515226	4477583.96808128
107	19	0	0	90	36.1581920903955	36.241610738255	23	0.766713463999331	2	2	6	NaN	1	4	0.0758954804430093	0	1	NaN	340	6	25	1	120	220	320	NaN	520	0.356991368345916	2	0	NaN	4477585.0682782	NaN	4477586.0517886	4477586.56833483
107	19	0	0	90	36.1581920903955	36.241610738255	9	0.300018311999738	2	1	4	NaN	1	5	0.0758954804430093	0	1	NaN	341	6	26	1	120	220	320	NaN	520	0.0741817690432072	1	1	NaN	4477587.735323	NaN	4477588.7186934	4477589.23526513
107	19	0	0	90	36.1581920903955	36.241610738255	18	0.600036623999477	2	2	4	NaN	1	3	0.0758954804430093	0	1	NaN	342	6	27	1	120	220	320	NaN	520	0.114573978818953	1	1	NaN	4477590.1187535	NaN	4477591.102275	4477591.61883382
107	19	0	0	90	36.1581920903955	36.241610738255	7	0.233347575999796	2	7	2	NaN	2	3	0.0758954804430093	0	1	NaN	343	6	28	1	120	220	320	NaN	520	0.264709616079926	2	1	NaN	4477592.9691296	NaN	4477593.9525737	4477594.46910138
107	19	0	0	90	36.1581920903955	36.241610738255	23	0.766713463999331	2	4	4	NaN	1	3	0.0758954804430093	0	1	NaN	344	6	29	1	120	220	320	NaN	520	0.233405568636954	2	0	NaN	4477595.9360164	NaN	4477596.91952	4477597.43606743
107	19	0	0	90	36.1581920903955	36.241610738255	15	0.500030519999564	2	10	2	NaN	2	3	0.0758954804430093	0	1	NaN	345	6	30	1	120	220	320	NaN	520	0.403155469335616	2	1	NaN	4477598.4862279	NaN	4477599.4697496	4477599.98631463
107	19	0	0	90	36.1581920903955	36.241610738255	11	0.36668904799968	2	4	5	NaN	1	3	0.0758954804430093	0	1	NaN	346	6	31	1	120	220	320	NaN	520	0.0104081686586142	1	1	NaN	4477601.2033031	NaN	4477602.1867286	4477602.70326843
107	19	0	0	90	36.1581920903955	36.241610738255	23	0.766713463999331	2	6	3	NaN	1	5	0.0758954804430093	0	1	NaN	347	6	32	1	120	220	320	NaN	520	0.462401169352233	2	0	NaN	4477604.003556	NaN	4477604.9869751	4477605.50351963
107	19	0	0	90	36.1581920903955	36.241610738255	11	0.36668904799968	2	11	6	NaN	2	3	0.0758954804430093	0	1	NaN	348	6	33	1	120	220	320	NaN	520	0.167112968862057	2	1	NaN	4477606.7705144	NaN	4477607.7539176	4477608.27046123
107	19	0	0	90	36.1581920903955	36.241610738255	22	0.73337809599936	2	8	4	NaN	2	5	0.0758954804430093	0	1	NaN	349	6	34	1	120	220	320	NaN	520	0.443346167914569	2	1	NaN	4477609.2541076	NaN	4477610.2375021	4477610.75403303
107	19	0	0	90	36.1581920903955	36.241610738255	18	0.600036623999477	2	6	6	NaN	1	4	0.0758954804430093	0	1	NaN	350	6	35	1	120	220	320	NaN	520	0.22948166821152	2	0	NaN	4477612.0043588	NaN	4477612.9877734	4477613.50430753
107	19	0	0	90	36.1581920903955	36.241610738255	22	0.73337809599936	2	12	4	NaN	2	3	0.0758954804430093	0	1	NaN	351	6	36	1	120	220	320	NaN	520	0.790816168300807	2	1	NaN	4477614.5546128	NaN	4477615.5380113	4477616.05456133
107	19	0	0	90	36.1581920903955	36.241610738255	12	0.400024415999651	2	11	2	NaN	2	5	0.0758954804430093	0	1	NaN	352	6	37	1	120	220	320	NaN	520	0.0104227159172297	2	1	NaN	4477617.6549221	NaN	4477618.6383222	4477619.15485858
107	19	0	0	90	36.1581920903955	36.241610738255	10	0.333353679999709	2	12	1	NaN	2	5	0.0758954804430093	0	1	NaN	353	6	38	1	120	220	320	NaN	520	0.0104396622627974	1	0	NaN	4477619.9718103	NaN	4477620.9552098	4477621.47175194
107	19	0	0	90	36.1581920903955	36.241610738255	14	0.466695151999593	2	2	1	NaN	1	5	0.0758954804430093	0	1	NaN	354	6	39	1	120	220	320	NaN	520	1.49638786818832	1	1	NaN	4477622.3053535	NaN	4477623.2887715	4477623.80532413
107	19	0	0	90	36.1581920903955	36.241610738255	24	0.800048831999302	2	9	1	NaN	2	3	0.0758954804430093	0	1	NaN	355	6	40	1	120	220	320	NaN	520	0.263117268681526	2	1	NaN	4477626.1224199	NaN	4477627.1058065	4477627.62235353
107	19	0	0	90	36.1581920903955	36.241610738255	21	0.700042727999389	2	5	5	NaN	1	5	0.0758954804430093	0	1	NaN	356	6	41	1	120	220	320	NaN	520	0.295635514892638	1	1	NaN	4477628.7060031	NaN	4477629.6893993	4477630.20594218
107	19	0	0	90	36.1581920903955	36.241610738255	8	0.266682943999767	2	9	4	NaN	2	4	0.0758954804430093	0	1	NaN	357	6	42	1	120	220	320	NaN	520	0.511325341649354	2	1	NaN	4477631.3062562	NaN	4477632.2896513	4477632.80620436
107	19	0	0	90	36.1581920903955	36.241610738255	7	0.233347575999796	2	9	6	NaN	2	4	0.0758954804430093	0	1	NaN	358	6	43	1	120	220	320	NaN	520	1.6308060688898	1	0	NaN	4477634.1231972	NaN	4477635.1065867	4477635.62314683
107	19	0	0	90	36.1581920903955	36.241610738255	10	0.333353679999709	2	7	5	NaN	2	3	0.0758954804430093	0	1	NaN	359	6	44	1	120	220	320	NaN	520	0.312420820817351	2	1	NaN	4477638.273467	NaN	4477639.2570021	4477639.77355338
107	19	0	0	90	36.1581920903955	36.241610738255	8	0.266682943999767	2	7	6	NaN	2	5	0.0758954804430093	0	1	NaN	360	6	45	1	120	220	320	NaN	520	0.502248668111861	2	1	NaN	4477640.9072012	NaN	4477641.8905812	4477642.40714613
107	19	0	0	90	36.1581920903955	36.241610738255	12	0.400024415999651	2	12	4	NaN	2	4	0.0758954804430093	0	1	NaN	361	6	46	1	120	220	320	NaN	520	2.58939062058926	2	1	NaN	4477643.7241508	NaN	4477644.7075415	4477645.22408948
107	19	0	0	90	36.1581920903955	36.241610738255	6	0.200012207999825	2	10	6	NaN	2	4	0.0758954804430093	0	1	NaN	362	6	47	1	120	220	320	NaN	520	0.177045715972781	2	1	NaN	4477648.624612	NaN	4477649.6080199	4477650.12456698
107	19	0	0	90	36.1581920903955	36.241610738255	13	0.433359783999622	2	6	6	NaN	1	5	0.0758954804430093	0	1	NaN	363	6	48	1	120	220	320	NaN	520	0.177371968515217	2	0	NaN	4477651.2081604	NaN	4477652.1915993	4477652.70815113
107	19	0	0	90	36.1581920903955	36.241610738255	23	0.766713463999331	2	3	6	NaN	1	3	0.0758954804430093	0	1	NaN	364	6	49	1	120	220	320	NaN	520	0.429841267876327	1	1	NaN	4477653.6917771	NaN	4477654.6752204	4477655.19173053
107	19	0	0	90	36.1581920903955	36.241610738255	7	0.233347575999796	2	10	6	NaN	2	3	0.0758954804430093	0	1	NaN	365	6	50	1	120	220	320	NaN	520	0.359668214805424	2	1	NaN	4477656.4420667	NaN	4477657.4254818	4477657.94199468
107	19	0	0	90	36.1581920903955	36.241610738255	14	0.466695151999593	2	9	3	NaN	2	4	0.0758954804430093	0	1	NaN	366	6	51	1	120	220	320	NaN	520	0.435989867895842	2	1	NaN	4477659.1256562	NaN	4477660.1090509	4477660.62559353
107	19	0	0	90	36.1581920903955	36.241610738255	14	0.466695151999593	2	12	1	NaN	2	4	0.0758954804430093	0	1	NaN	367	6	52	1	120	220	320	NaN	520	0.437362268567085	2	1	NaN	4477662.0925818	NaN	4477663.0759957	4477663.59255113
107	19	0	0	90	36.1581920903955	36.241610738255	25	0.833384199999273	2	2	3	NaN	1	5	0.0758954804430093	0	1	NaN	368	6	53	1	120	220	320	NaN	520	0.65466286893934	1	1	NaN	4477664.8428817	NaN	4477665.8262764	4477666.34282603
107	19	0	0	90	36.1581920903955	36.241610738255	10	0.333353679999709	2	6	2	NaN	1	3	0.0758954804430093	0	1	NaN	369	6	54	1	120	220	320	NaN	520	0.159993069246411	1	1	NaN	4477667.80988	NaN	4477668.7932478	4477669.30978333
107	19	0	0	90	36.1581920903955	36.241610738255	15	0.500030519999564	2	1	4	NaN	1	5	0.0758954804430093	0	1	NaN	370	6	55	1	120	220	320	NaN	520	0.340729520656168	1	1	NaN	4477670.276754	NaN	4477671.2601424	4477671.77669928
107	19	0	0	90	36.1581920903955	36.241610738255	24	0.800048831999302	2	1	1	NaN	1	3	0.0758954804430093	0	1	NaN	371	6	56	1	120	220	320	NaN	520	0.0907314205542207	1	1	NaN	4477672.9270011	NaN	4477673.9103976	4477674.42695358
107	19	0	0	90	36.1581920903955	36.241610738255	6	0.200012207999825	2	3	4	NaN	1	5	0.0758954804430093	0	1	NaN	372	6	57	1	120	220	320	NaN	520	0.662379215471447	2	0	NaN	4477675.8272488	NaN	4477676.8107105	4477677.32723878
107	19	0	0	90	36.1581920903955	36.241610738255	8	0.266682943999767	2	4	4	NaN	1	5	0.0758954804430093	0	1	NaN	373	6	58	1	120	220	320	NaN	520	0.0103732254356146	2	0	NaN	4477678.8109331	NaN	4477679.7943475	4477680.31086457
107	19	0	0	90	36.1581920903955	36.241610738255	8	0.266682943999767	2	5	3	NaN	1	5	0.0758954804430093	0	1	NaN	374	6	59	1	120	220	320	NaN	520	0.209745667874813	1	1	NaN	4477681.1278552	NaN	4477682.1112025	4477682.62776173
107	19	0	0	90	36.1581920903955	36.241610738255	14	0.466695151999593	2	9	3	NaN	2	4	0.0758954804430093	0	1	NaN	375	6	60	1	120	220	320	NaN	520	0.0609235689043999	2	1	NaN	4477683.6447212	NaN	4477684.6281586	4477685.14467693
107	19	0	0	90	36.1581920903955	36.241610738255	24	0.800048831999302	2	3	5	NaN	1	4	0.0758954804430093	0	1	NaN	376	6	61	1	120	220	320	NaN	520	0.0680420156568289	1	1	NaN	4477686.4616724	NaN	4477687.4450642	4477687.96161018
107	19	0	0	90	36.1581920903955	36.241610738255	24	0.800048831999302	2	11	3	NaN	2	3	0.0758954804430093	0	1	NaN	377	6	62	1	120	220	320	NaN	520	0.596407568082213	2	1	NaN	4477688.8452432	NaN	4477689.8286232	4477690.34517613
107	19	0	0	90	36.1581920903955	36.241610738255	6	0.200012207999825	2	9	2	NaN	2	5	0.0758954804430093	0	1	NaN	378	6	63	1	120	220	320	NaN	520	0.655361768789589	2	1	NaN	4477691.7621903	NaN	4477692.7455929	4477693.26213413
107	19	0	0	90	36.1581920903955	36.241610738255	20	0.666707359999418	2	5	6	NaN	1	5	0.0758954804430093	0	1	NaN	379	7	1	1	120	220	320	NaN	520	0.486415068618953	2	0	NaN	4477715.5311664	NaN	4477716.5145961	4477717.03112893
107	19	0	0	90	36.1581920903955	36.241610738255	19	0.633371991999447	2	3	2	NaN	1	4	0.0758954804430093	0	1	NaN	380	7	2	1	120	220	320	NaN	520	0.230216516181827	1	1	NaN	4477718.3315485	NaN	4477719.3148612	4477719.83140838
107	19	0	0	90	36.1581920903955	36.241610738255	9	0.300018311999738	2	5	3	NaN	1	3	0.0758954804430093	0	1	NaN	381	7	3	1	120	220	320	NaN	520	0.248268815688789	2	0	NaN	4477720.8817286	NaN	4477721.8651413	4477722.38165358
107	19	0	0	90	36.1581920903955	36.241610738255	13	0.433359783999622	2	10	5	NaN	2	4	0.0758954804430093	0	1	NaN	382	7	4	1	120	220	320	NaN	520	0.176992774009705	2	1	NaN	4477723.4486396	NaN	4477724.4320325	4477724.94858363
107	19	0	0	90	36.1581920903955	36.241610738255	25	0.833384199999273	2	6	4	NaN	1	4	0.0758954804430093	0	1	NaN	383	7	5	1	120	220	320	NaN	520	0.301816068589687	1	1	NaN	4477725.9322115	NaN	4477726.9156282	4477727.43214703
107	19	0	0	90	36.1581920903955	36.241610738255	18	0.600036623999477	2	4	6	NaN	1	5	0.0758954804430093	0	1	NaN	384	7	6	1	120	220	320	NaN	520	0.364897068589926	1	1	NaN	4477728.5491334	NaN	4477729.5325188	4477730.04907263
107	19	0	0	90	36.1581920903955	36.241610738255	15	0.500030519999564	2	12	4	NaN	2	5	0.0758954804430093	0	1	NaN	385	7	7	1	120	220	320	NaN	520	0.216936768963933	1	0	NaN	4477731.2327268	NaN	4477732.21612	4477732.73267863
107	19	0	0	90	36.1581920903955	36.241610738255	18	0.600036623999477	2	1	6	NaN	1	3	0.0758954804430093	0	1	NaN	386	7	8	1	120	220	320	NaN	520	0.795818820595741	2	0	NaN	4477733.7662967	NaN	4477734.749691	4477735.26625038
107	19	0	0	90	36.1581920903955	36.241610738255	0	0	1	10	6	NaN	2	3	0.0758954804430093	0	1	NaN	387	7	9	1	110	210	310	NaN	510	0.279051468707621	2	1	NaN	4477736.8666202	NaN	4477737.8499961	4477738.36655843
107	19	0	0	90	36.1581920903955	36.241610738255	13	0.433359783999622	2	7	6	NaN	2	3	0.0758954804430093	0	1	NaN	388	7	10	1	120	220	320	NaN	520	0.190839068964124	2	1	NaN	4477739.4668736	NaN	4477740.4502511	4477740.96681683
107	19	0	0	90	36.1581920903955	36.241610738255	7	0.233347575999796	2	6	1	NaN	1	3	0.0758954804430093	0	1	NaN	389	7	11	1	120	220	320	NaN	520	0.0104031693190336	1	1	NaN	4477742.0837828	NaN	4477743.0671917	4477743.58373933
107	19	0	0	90	36.1581920903955	36.241610738255	16	0.533365887999535	2	8	5	NaN	2	5	0.0758954804430093	0	1	NaN	390	7	12	1	120	220	320	NaN	520	0.760944767855108	2	1	NaN	4477744.4007648	NaN	4477745.3841455	4477745.90062973
107	19	0	0	90	36.1581920903955	36.241610738255	8	0.266682943999767	2	1	6	NaN	1	3	0.0758954804430093	0	1	NaN	391	7	13	1	120	220	320	NaN	520	0.430018869228661	2	0	NaN	4477747.4676666	NaN	4477748.4510508	4477748.96760343
107	19	0	0	90	36.1581920903955	36.241610738255	0	0	1	3	6	NaN	1	5	0.0758954804430093	0	1	NaN	392	7	14	1	110	210	310	NaN	510	0.0103941205888987	2	0	NaN	4477750.2012476	NaN	4477751.1846454	4477751.70120628
107	19	0	0	90	36.1581920903955	36.241610738255	15	0.500030519999564	2	6	6	NaN	1	3	0.0758954804430093	0	1	NaN	393	7	15	1	120	220	320	NaN	520	0.210822415538132	1	1	NaN	4477752.5348309	NaN	4477753.51822	4477754.03475768
107	19	0	0	90	36.1581920903955	36.241610738255	7	0.233347575999796	2	6	3	NaN	1	5	0.0758954804430093	0	1	NaN	394	7	16	1	120	220	320	NaN	520	0.125270741991699	1	1	NaN	4477755.0684486	NaN	4477756.0517926	4477756.56835626
107	19	0	0	90	36.1581920903955	36.241610738255	12	0.400024415999651	2	11	2	NaN	2	5	0.0758954804430093	0	1	NaN	395	7	17	1	120	220	320	NaN	520	0.572202469222248	2	1	NaN	4477757.5019696	NaN	4477758.4853644	4477759.00192013
107	19	0	0	90	36.1581920903955	36.241610738255	7	0.233347575999796	2	4	3	NaN	1	4	0.0758954804430093	0	1	NaN	396	7	18	1	120	220	320	NaN	520	0.82745071593672	2	0	NaN	4477760.7022572	NaN	4477761.6856738	4477762.20222908
107	19	0	0	90	36.1581920903955	36.241610738255	21	0.700042727999389	2	2	4	NaN	1	5	0.0758954804430093	0	1	NaN	397	7	19	1	120	220	320	NaN	520	0.13391986861825	1	1	NaN	4477763.8359185	NaN	4477764.8193067	4477765.33587833
107	19	0	0	90	36.1581920903955	36.241610738255	10	0.333353679999709	2	4	2	NaN	1	5	0.0758954804430093	0	1	NaN	398	7	20	1	120	220	320	NaN	520	0.308028668165207	1	1	NaN	4477766.2861748	NaN	4477767.2695627	4477767.78611343
107	19	0	0	90	36.1581920903955	36.241610738255	24	0.800048831999302	2	1	5	NaN	1	4	0.0758954804430093	0	1	NaN	399	7	21	1	120	220	320	NaN	520	0.36262046918273	1	1	NaN	4477768.9031976	NaN	4477769.8864847	4477770.40303653
107	19	0	0	90	36.1581920903955	36.241610738255	12	0.400024415999651	2	10	2	NaN	2	4	0.0758954804430093	0	1	NaN	400	7	22	1	120	220	320	NaN	520	0.303097873926163	2	1	NaN	4477771.5866954	NaN	4477772.5700863	4477773.08663483
107	19	0	0	90	36.1581920903955	36.241610738255	19	0.633371991999447	2	6	5	NaN	1	3	0.0758954804430093	0	1	NaN	401	7	23	1	120	220	320	NaN	520	0.286131968721747	1	1	NaN	4477774.2036079	NaN	4477775.1870236	4477775.70355773
107	19	0	0	90	36.1581920903955	36.241610738255	15	0.500030519999564	2	2	6	NaN	1	4	0.0758954804430093	0	1	NaN	402	7	24	1	120	220	320	NaN	520	0.661861868575215	2	0	NaN	4477776.8038766	NaN	4477777.787251	4477778.30381663
107	19	0	0	90	36.1581920903955	36.241610738255	12	0.400024415999651	2	1	1	NaN	1	4	0.0758954804430093	0	1	NaN	403	7	25	1	120	220	320	NaN	520	0.294078073464334	1	1	NaN	4477779.7875006	NaN	4477780.7708923	4477781.28744133
107	19	0	0	90	36.1581920903955	36.241610738255	19	0.633371991999447	2	12	6	NaN	2	4	0.0758954804430093	0	1	NaN	404	7	26	1	120	220	320	NaN	520	0.575279421173036	2	1	NaN	4477782.9544777	NaN	4477783.9378548	4477784.45441838
107	19	0	0	90	36.1581920903955	36.241610738255	11	0.36668904799968	2	3	6	NaN	1	4	0.0758954804430093	0	1	NaN	405	7	27	1	120	220	320	NaN	520	0.555973978713155	1	1	NaN	4477785.8381021	NaN	4477786.8214836	4477787.33803232
107	19	0	0	90	36.1581920903955	36.241610738255	9	0.300018311999738	2	7	2	NaN	2	4	0.0758954804430093	0	1	NaN	406	7	28	1	120	220	320	NaN	520	0.0647237682715058	2	1	NaN	4477788.7050198	NaN	4477789.6884218	4477790.20498113
107	19	0	0	90	36.1581920903955	36.241610738255	0	0	1	1	2	NaN	1	3	0.0758954804430093	0	1	NaN	407	7	29	1	110	210	310	NaN	510	0.0104237152263522	1	1	NaN	4477791.0885957	NaN	4477792.0720532	4477792.58854628
107	19	0	0	90	36.1581920903955	36.241610738255	20	0.666707359999418	2	4	6	NaN	1	5	0.0758954804430093	0	1	NaN	408	7	30	1	120	220	320	NaN	520	0.316263468936086	1	1	NaN	4477793.405506	NaN	4477794.3888785	4477794.90544303
107	19	0	0	90	36.1581920903955	36.241610738255	17	0.566701255999506	2	11	6	NaN	2	5	0.0758954804430093	0	1	NaN	409	7	31	1	120	220	320	NaN	520	0.2985759684816	2	1	NaN	4477796.0391049	NaN	4477797.022482	4477797.53903383
107	19	0	0	90	36.1581920903955	36.241610738255	21	0.700042727999389	2	10	5	NaN	2	3	0.0758954804430093	0	1	NaN	410	7	32	1	120	220	320	NaN	520	0.0103779742494226	1	0	NaN	4477798.639337	NaN	4477799.6227672	4477800.13929253
107	19	0	0	90	36.1581920903955	36.241610738255	19	0.633371991999447	2	7	1	NaN	2	4	0.0758954804430093	0	1	NaN	411	7	33	1	120	220	320	NaN	520	0.293863510712981	2	1	NaN	4477800.9562526	NaN	4477801.939623	4477802.45617889
107	19	0	0	90	36.1581920903955	36.241610738255	10	0.333353679999709	2	12	1	NaN	2	3	0.0758954804430093	0	1	NaN	412	7	34	1	120	220	320	NaN	520	0.0103909205645323	2	1	NaN	4477803.5564981	NaN	4477804.5398829	4477805.05644248
107	19	0	0	90	36.1581920903955	36.241610738255	6	0.200012207999825	2	8	6	NaN	2	3	0.0758954804430093	0	1	NaN	413	7	35	1	120	220	320	NaN	520	0.344382368028164	2	1	NaN	4477805.8733809	NaN	4477806.85678	4477807.37332993
107	19	0	0	90	36.1581920903955	36.241610738255	9	0.300018311999738	2	5	1	NaN	1	3	0.0758954804430093	0	1	NaN	414	7	36	1	120	220	320	NaN	520	0.25426886882633	1	1	NaN	4477808.5236528	NaN	4477809.5070647	4477810.02358613
107	19	0	0	90	36.1581920903955	36.241610738255	17	0.566701255999506	2	8	5	NaN	2	4	0.0758954804430093	0	1	NaN	415	7	37	1	120	220	320	NaN	520	0.62310406845063	2	1	NaN	4477811.0905888	NaN	4477812.073958	4477812.59051073
107	19	0	0	90	36.1581920903955	36.241610738255	14	0.466695151999593	2	3	4	NaN	1	4	0.0758954804430093	0	1	NaN	416	7	38	1	120	220	320	NaN	520	0.610008568502963	2	0	NaN	4477814.024194	NaN	4477815.0075505	4477815.52413393
107	19	0	0	90	36.1581920903955	36.241610738255	8	0.266682943999767	2	12	1	NaN	2	4	0.0758954804430093	0	1	NaN	417	7	39	1	120	220	320	NaN	520	0.221120768226683	1	0	NaN	4477816.9411257	NaN	4477817.9245711	4477818.44108763
107	19	0	0	90	36.1581920903955	36.241610738255	25	0.833384199999273	2	5	5	NaN	1	5	0.0758954804430093	0	1	NaN	418	7	40	1	120	220	320	NaN	520	0.311535920016468	1	1	NaN	4477819.474728	NaN	4477820.4581129	4477820.97467298
107	19	0	0	90	36.1581920903955	36.241610738255	6	0.200012207999825	2	12	2	NaN	2	5	0.0758954804430093	0	1	NaN	419	7	41	1	120	220	320	NaN	520	0.0861782683059573	1	0	NaN	4477822.0916254	NaN	4477823.075042	4477823.59158803
107	19	0	0	90	36.1581920903955	36.241610738255	12	0.400024415999651	2	6	5	NaN	1	4	0.0758954804430093	0	1	NaN	420	7	42	1	120	220	320	NaN	520	0.0103899212554097	1	1	NaN	4477824.4918773	NaN	4477825.4752651	4477825.99182868
107	19	0	0	90	36.1581920903955	36.241610738255	17	0.566701255999506	2	2	6	NaN	1	3	0.0758954804430093	0	1	NaN	421	7	43	1	120	220	320	NaN	520	0.280894320458174	1	1	NaN	4477826.8087691	NaN	4477827.7921749	4477828.30872598
107	19	0	0	90	36.1581920903955	36.241610738255	0	0	1	5	1	NaN	1	3	0.0758954804430093	0	1	NaN	422	7	44	1	110	210	310	NaN	510	0.744711268693209	1	1	NaN	4477829.4090347	NaN	4477830.3924126	4477830.90897463
107	19	0	0	90	36.1581920903955	36.241610738255	18	0.600036623999477	2	11	4	NaN	2	5	0.0758954804430093	0	1	NaN	423	7	45	1	120	220	320	NaN	520	0.0104077691212296	2	1	NaN	4477832.4593072	NaN	4477833.4427256	4477833.95927323
107	19	0	0	90	36.1581920903955	36.241610738255	25	0.833384199999273	2	10	2	NaN	2	3	0.0758954804430093	0	1	NaN	424	7	46	1	120	220	320	NaN	520	0.393577769398689	2	1	NaN	4477834.7761669	NaN	4477835.759611	4477836.27616553
107	19	0	0	90	36.1581920903955	36.241610738255	15	0.500030519999564	2	11	1	NaN	2	5	0.0758954804430093	0	1	NaN	425	7	47	1	120	220	320	NaN	520	0.325892394408584	2	1	NaN	4477837.4764774	NaN	4477838.4598855	4477838.97643591
107	19	0	0	90	36.1581920903955	36.241610738255	17	0.566701255999506	2	9	6	NaN	2	3	0.0758954804430093	0	1	NaN	426	7	48	1	120	220	320	NaN	520	0.316065668128431	1	0	NaN	4477840.1100806	NaN	4477841.0934639	4477841.61002843
107	19	0	0	90	36.1581920903955	36.241610738255	15	0.500030519999564	2	8	1	NaN	2	5	0.0758954804430093	0	1	NaN	427	7	49	1	120	220	320	NaN	520	0.458570768125355	1	0	NaN	4477842.7436595	NaN	4477843.7270648	4477844.24361573
107	19	0	0	90	36.1581920903955	36.241610738255	15	0.500030519999564	2	8	3	NaN	2	4	0.0758954804430093	0	1	NaN	428	7	50	1	120	220	320	NaN	520	0.227548421360552	2	1	NaN	4477845.5106098	NaN	4477846.493984	4477847.01057598
107	19	0	0	90	36.1581920903955	36.241610738255	16	0.533365887999535	2	12	2	NaN	2	5	0.0758954804430093	0	1	NaN	429	7	51	1	120	220	320	NaN	520	0.83001006860286	2	1	NaN	4477848.0441976	NaN	4477849.0275959	4477849.54413233
107	19	0	0	90	36.1581920903955	36.241610738255	24	0.800048831999302	2	7	1	NaN	2	5	0.0758954804430093	0	1	NaN	430	7	52	1	120	220	320	NaN	520	0.336388268508017	1	0	NaN	4477851.1778174	NaN	4477852.1612189	4477852.67777643
107	19	0	0	90	36.1581920903955	36.241610738255	10	0.333353679999709	2	4	5	NaN	1	4	0.0758954804430093	0	1	NaN	431	7	53	1	120	220	320	NaN	520	0.541960216127336	1	1	NaN	4477853.8280922	NaN	4477854.8115635	4477855.32803518
107	19	0	0	90	36.1581920903955	36.241610738255	21	0.700042727999389	2	1	3	NaN	1	3	0.0758954804430093	0	1	NaN	432	7	54	1	120	220	320	NaN	520	0.323465551249683	2	0	NaN	4477856.6783695	NaN	4477857.6617592	4477858.17830775
107	19	0	0	90	36.1581920903955	36.241610738255	7	0.233347575999796	2	2	4	NaN	1	4	0.0758954804430093	0	1	NaN	433	7	55	1	120	220	320	NaN	520	0.288887420669198	1	1	NaN	4477859.7453106	NaN	4477860.7287397	4477861.24528698
107	19	0	0	90	36.1581920903955	36.241610738255	17	0.566701255999506	2	10	6	NaN	2	4	0.0758954804430093	0	1	NaN	434	7	56	1	120	220	320	NaN	520	0.320333914831281	1	0	NaN	4477862.3455982	NaN	4477863.3289837	4477863.84554488
107	19	0	0	90	36.1581920903955	36.241610738255	20	0.666707359999418	2	1	6	NaN	1	5	0.0758954804430093	0	1	NaN	435	7	57	1	120	220	320	NaN	520	0.53456776868552	1	1	NaN	4477864.9792011	NaN	4477865.9625777	4477866.47912783
107	19	0	0	90	36.1581920903955	36.241610738255	10	0.333353679999709	2	2	3	NaN	1	3	0.0758954804430093	0	1	NaN	436	7	58	1	120	220	320	NaN	520	1.17280142102391	1	1	NaN	4477867.8293416	NaN	4477868.8129242	4477869.32941748
107	19	0	0	90	36.1581920903955	36.241610738255	8	0.266682943999767	2	2	3	NaN	1	3	0.0758954804430093	0	1	NaN	437	7	59	1	120	220	320	NaN	520	0.409225569106638	1	1	NaN	4477871.3131301	NaN	4477872.2965339	4477872.81308493
107	19	0	0	90	36.1581920903955	36.241610738255	22	0.73337809599936	2	3	2	NaN	1	4	0.0758954804430093	0	1	NaN	438	7	60	1	120	220	320	NaN	520	0.315794868394732	1	1	NaN	4477874.0300769	NaN	4477875.0134749	4477875.53001663
107	19	0	0	90	36.1581920903955	36.241610738255	17	0.566701255999506	2	1	6	NaN	1	5	0.0758954804430093	0	1	NaN	439	7	61	1	120	220	320	NaN	520	0.106112809851766	2	0	NaN	4477876.6636719	NaN	4477877.647042	4477878.16360539
107	19	0	0	90	36.1581920903955	36.241610738255	11	0.36668904799968	2	9	6	NaN	2	3	0.0758954804430093	0	1	NaN	440	7	62	1	120	220	320	NaN	520	0.18536782078445	2	1	NaN	4477879.0805631	NaN	4477880.0639643	4477880.58052048
107	19	0	0	90	36.1581920903955	36.241610738255	22	0.73337809599936	2	9	3	NaN	2	5	0.0758954804430093	0	1	NaN	441	7	63	1	120	220	320	NaN	520	1.46101541537791	2	1	NaN	4477881.5808286	NaN	4477882.5642532	4477883.08076298
107	19	0	0	90	36.1581920903955	36.241610738255	17	0.566701255999506	2	4	4	NaN	1	4	0.0758954804430093	0	1	NaN	442	8	1	1	120	220	320	NaN	520	0.279617468826473	2	0	NaN	4477904.2663686	NaN	4477905.2498267	4477905.76631253
107	19	0	0	90	36.1581920903955	36.241610738255	19	0.633371991999447	2	5	1	NaN	1	5	0.0758954804430093	0	1	NaN	443	8	2	1	120	220	320	NaN	520	0.407294920645654	2	0	NaN	4477906.8666347	NaN	4477907.8500108	4477908.36657438
107	19	0	0	90	36.1581920903955	36.241610738255	23	0.766713463999331	2	12	3	NaN	2	3	0.0758954804430093	0	1	NaN	444	8	3	1	120	220	320	NaN	520	0.498283537104726	2	1	NaN	4477909.5835556	NaN	4477910.5669643	4477911.08350966
107	19	0	0	90	36.1581920903955	36.241610738255	14	0.466695151999593	2	8	2	NaN	2	3	0.0758954804430093	0	1	NaN	445	8	4	1	120	220	320	NaN	520	0.697311468422413	1	0	NaN	4477912.4005107	NaN	4477913.383904	4477913.90044843
107	19	0	0	90	36.1581920903955	36.241610738255	21	0.700042727999389	2	4	1	NaN	1	5	0.0758954804430093	0	1	NaN	446	8	5	1	120	220	320	NaN	520	0.256528215482831	1	1	NaN	4477915.41746	NaN	4477916.4008942	4477916.91741128
107	19	0	0	90	36.1581920903955	36.241610738255	8	0.266682943999767	2	6	2	NaN	1	4	0.0758954804430093	0	1	NaN	447	8	6	1	120	220	320	NaN	520	0.0102711413055658	1	1	NaN	4477917.9842777	NaN	4477918.9677797	4477919.48433826
107	19	0	0	90	36.1581920903955	36.241610738255	15	0.500030519999564	2	6	4	NaN	1	3	0.0758954804430093	0	1	NaN	448	8	7	1	120	220	320	NaN	520	0.0104003688320518	1	1	NaN	4477920.3012785	NaN	4477921.2846727	4477921.80122603
107	19	0	0	90	36.1581920903955	36.241610738255	16	0.533365887999535	2	5	2	NaN	1	5	0.0758954804430093	0	1	NaN	449	8	8	1	120	220	320	NaN	520	0.335727768018842	1	1	NaN	4477922.6181906	NaN	4477923.6015661	4477924.11811723
107	19	0	0	90	36.1581920903955	36.241610738255	21	0.700042727999389	2	7	4	NaN	2	4	0.0758954804430093	0	1	NaN	450	8	9	1	120	220	320	NaN	520	0.493870415724814	1	0	NaN	4477925.268469	NaN	4477926.2518305	4477926.76838048
107	19	0	0	90	36.1581920903955	36.241610738255	8	0.266682943999767	2	6	2	NaN	1	5	0.0758954804430093	0	1	NaN	451	8	10	1	120	220	320	NaN	520	0.244671568274498	1	1	NaN	4477928.0853946	NaN	4477929.068774	4477929.58531933
107	19	0	0	90	36.1581920903955	36.241610738255	19	0.633371991999447	2	2	5	NaN	1	5	0.0758954804430093	0	1	NaN	452	8	11	1	120	220	320	NaN	520	0.341847369447351	1	1	NaN	4477930.6522839	NaN	4477931.6357281	4477932.15224603
107	19	0	0	90	36.1581920903955	36.241610738255	21	0.700042727999389	2	10	6	NaN	2	4	0.0758954804430093	0	1	NaN	453	8	12	1	120	220	320	NaN	520	0.61936866864562	2	1	NaN	4477933.3025683	NaN	4477934.2859365	4477934.80250013
107	19	0	0	90	36.1581920903955	36.241610738255	6	0.200012207999825	2	7	1	NaN	2	3	0.0758954804430093	0	1	NaN	454	8	13	1	120	220	320	NaN	520	0.550217868760228	1	0	NaN	4477936.2361688	NaN	4477937.2195693	4477937.73611913
107	19	0	0	90	36.1581920903955	36.241610738255	24	0.800048831999302	2	10	1	NaN	2	5	0.0758954804430093	0	1	NaN	455	8	14	1	120	220	320	NaN	520	3.81935786828399	2	1	NaN	4477939.103136	NaN	4477940.086558	4477940.60306713
107	19	0	0	90	36.1581920903955	36.241610738255	9	0.300018311999738	2	8	3	NaN	2	5	0.0758954804430093	0	1	NaN	456	8	15	1	120	220	320	NaN	520	1.48541947361082	1	0	NaN	4477945.2370698	NaN	4477946.2204579	4477946.73700903
