subjno	age	gender	isPractice	viewdist	CmToPixX	CmToPixY	SOA_frm	SOA_time	targNum	targID	targExample	targRace	targGender	firstTargPos	contrast	familiarity	curr_staircase	iStair	TrialNum	BlockNum	blktrl	sessionNum	TC_FIXATION	TC_RSVP_START	TC_RSVP_END	TC_BLANK	TC_RESPONSE_ONSET	RT2afc	resp_2afc	acc	RSVPOnsetVBL	RSVPOnsetTime	RSVPOffsetVBL	RSVPOffsetTime	startrt_2afc
95	99	99	1	90	36.1581920903955	36.241610738255	0	0	1	9	1	NaN	2	3	0.1	0	1	1	1	1	1	1	110	210	310	NaN	510	2.09147727536038	2	1	NaN	3377212.4911404	NaN	3377213.4743371	3377214.00743722
95	99	99	1	90	36.1581920903955	36.241610738255	0	0	1	6	1	NaN	1	5	0.251188643150958	0	1	2	2	1	2	1	110	210	310	NaN	510	1.08364467555657	1	1	NaN	3377217.0748464	NaN	3377218.0581402	3377218.59122232
95	99	99	1	90	36.1581920903955	36.241610738255	0	0	1	8	1	NaN	2	5	0.0251188643150958	0	1	3	3	1	3	1	110	210	310	NaN	510	2.32555220043287	2	1	NaN	3377220.6249528	NaN	3377221.6084073	3377222.1246807
95	99	99	1	90	36.1581920903955	36.241610738255	0	0	1	11	1	NaN	2	5	0.398107170553497	0	1	4	4	1	4	1	110	210	310	NaN	510	0.743391271214932	2	1	NaN	3377225.3754278	NaN	3377226.3588076	3377226.87536253
95	99	99	1	90	36.1581920903955	36.241610738255	0	0	1	11	1	NaN	2	4	0.0158489319246111	0	1	5	5	1	5	1	110	210	310	NaN	510	1.26443529035896	1	0	NaN	3377228.5424	NaN	3377229.5258023	3377230.04234531
95	99	99	1	90	36.1581920903955	36.241610738255	0	0	1	6	1	NaN	1	3	0.0398107170553497	0	1	6	6	1	6	1	110	210	310	NaN	510	0.36362377088517	1	1	NaN	3377232.6426666	NaN	3377233.6262118	3377234.14274423
95	99	99	1	90	36.1581920903955	36.241610738255	0	0	1	6	1	NaN	1	3	0.158489319246111	0	1	7	7	1	7	1	110	210	310	NaN	510	0.0442590708844364	1	1	NaN	3377235.4264276	NaN	3377236.4098271	3377236.92635283
95	99	99	1	90	36.1581920903955	36.241610738255	0	0	1	12	1	NaN	2	4	0.0630957344480193	0	1	8	8	1	8	1	110	210	310	NaN	510	0.449410632718354	2	1	NaN	3377237.8933341	NaN	3377238.8767297	3377239.39327057
95	99	99	1	90	36.1581920903955	36.241610738255	0	0	1	8	1	NaN	2	4	0.0251188643150958	0	1	9	9	1	9	1	110	210	310	NaN	510	2.64615898067132	1	0	NaN	3377240.7602764	NaN	3377241.7436804	3377242.26023302
95	99	99	1	90	36.1581920903955	36.241610738255	0	0	1	8	1	NaN	2	3	0.0630957344480193	0	1	10	10	1	10	1	110	210	310	NaN	510	0.963044728618115	2	1	NaN	3377245.8274317	NaN	3377246.8108294	3377247.32738017
95	99	99	1	90	36.1581920903955	36.241610738255	0	0	1	2	1	NaN	1	3	0.251188643150958	0	1	11	11	1	11	1	110	210	310	NaN	510	0.163406466133893	1	1	NaN	3377249.2111089	NaN	3377250.1944938	3377250.71103603
95	99	99	1	90	36.1581920903955	36.241610738255	0	0	1	8	1	NaN	2	4	0.630957344480193	0	1	12	12	1	12	1	110	210	310	NaN	510	0.23587482329458	1	0	NaN	3377251.7946813	NaN	3377252.7780901	3377253.29462468
95	99	99	1	90	36.1581920903955	36.241610738255	0	0	1	2	1	NaN	1	5	0.0398107170553497	0	1	13	13	1	13	1	110	210	310	NaN	510	1.07338221836835	2	0	NaN	3377254.4449436	NaN	3377255.4283596	3377255.94488648
95	99	99	1	90	36.1581920903955	36.241610738255	0	0	1	10	1	NaN	2	3	0.158489319246111	0	1	14	14	1	14	1	110	210	310	NaN	510	0.677153290249407	2	1	NaN	3377257.9452894	NaN	3377258.9286902	3377259.44523461
95	99	99	1	90	36.1581920903955	36.241610738255	0	0	1	1	1	NaN	1	4	0.1	0	1	15	15	1	15	1	110	210	310	NaN	510	0.0103590902872384	1	1	NaN	3377261.045453	NaN	3377262.0289931	3377262.54555421
95	99	99	1	90	36.1581920903955	36.241610738255	0	0	1	6	1	NaN	1	5	0.0158489319246111	0	1	16	16	1	16	1	110	210	310	NaN	510	0.903414770960808	2	0	NaN	3377263.4791605	NaN	3377264.4625648	3377264.97910793
95	99	99	1	90	36.1581920903955	36.241610738255	0	0	1	10	1	NaN	2	4	0.398107170553497	0	1	17	17	1	17	1	110	210	310	NaN	510	1.16975137079135	2	1	NaN	3377266.812834	NaN	3377267.7962648	3377268.31278003
95	99	99	1	90	36.1581920903955	36.241610738255	0	0	1	7	1	NaN	2	3	0.1	0	1	18	18	1	18	1	110	210	310	NaN	510	0.0334079181775451	1	0	NaN	3377270.4131952	NaN	3377271.3966112	3377271.91311978
95	99	99	1	90	36.1581920903955	36.241610738255	0	0	1	12	1	NaN	2	5	0.236981637202913	0	1	19	19	1	19	1	110	210	310	NaN	510	0.631061666179448	2	1	NaN	3377272.8634044	NaN	3377273.8467982	3377274.36335563
95	99	99	1	90	36.1581920903955	36.241610738255	0	0	1	5	1	NaN	1	3	0.179555814546676	0	1	20	20	1	20	1	110	210	310	NaN	510	0.532755065709352	2	0	NaN	3377276.9138756	NaN	3377277.8972208	3377278.41375343
95	99	99	1	90	36.1581920903955	36.241610738255	0	0	1	10	1	NaN	2	4	0.358123719547438	0	1	21	21	1	21	1	110	210	310	NaN	510	0.614476970862597	2	1	NaN	3377279.8641025	NaN	3377280.8475044	3377281.36404413
95	99	99	1	90	36.1581920903955	36.241610738255	0	0	1	9	1	NaN	2	5	0.303799998698627	0	1	22	22	1	22	1	110	210	310	NaN	510	0.0104651758447289	2	1	NaN	3377282.8977235	NaN	3377283.88114	3377284.39768212
95	99	99	1	90	36.1581920903955	36.241610738255	0	0	1	8	1	NaN	2	4	0.252187951131667	0	1	23	23	1	23	1	110	210	310	NaN	510	0.139732895419002	2	1	NaN	3377285.3313111	NaN	3377286.3147592	3377286.8312835
95	99	99	1	90	36.1581920903955	36.241610738255	0	0	1	12	1	NaN	2	3	0.206369013342512	0	1	24	24	1	24	1	110	210	310	NaN	510	0.412367370910943	2	1	NaN	3377287.8982316	NaN	3377288.8816233	3377289.39816543
95	99	99	1	90	36.1581920903955	36.241610738255	0	0	1	3	1	NaN	1	3	0.168629409910553	0	1	25	25	1	25	1	110	210	310	NaN	510	1.00263066589832	1	1	NaN	3377290.7318472	NaN	3377291.7152277	3377292.23178113
95	99	99	1	90	36.1581920903955	36.241610738255	0	0	1	3	1	NaN	1	4	0.139489437936607	0	1	26	26	1	26	1	110	210	310	NaN	510	0.569665390532464	1	1	NaN	3377294.1488563	NaN	3377295.1323033	3377295.64879301
95	99	99	1	90	36.1581920903955	36.241610738255	0	0	1	5	1	NaN	1	4	0.117781211598959	0	1	27	27	1	27	1	110	210	310	NaN	510	2.58621157053858	1	1	NaN	3377297.1324629	NaN	3377298.1159283	3377298.63240393
95	99	99	1	90	36.1581920903955	36.241610738255	0	0	1	5	1	NaN	1	3	0.101648610501699	0	1	28	28	1	28	1	110	210	310	NaN	510	0.537581123411655	1	1	NaN	3377302.1329705	NaN	3377303.1163673	3377303.63290668
95	99	99	1	90	36.1581920903955	36.241610738255	0	0	1	6	1	NaN	1	3	0.0893973586291998	0	1	29	29	1	29	1	110	210	310	NaN	510	0.0104201803915203	1	1	NaN	3377305.0999163	NaN	3377306.0833509	3377306.59985412
95	99	99	1	90	36.1581920903955	36.241610738255	0	0	1	9	1	NaN	2	5	0.0797760685195026	0	1	30	30	1	30	1	110	210	310	NaN	510	0.0104727707803249	2	1	NaN	3377307.5333951	NaN	3377308.5168906	3377309.03342393
95	99	99	1	90	36.1581920903955	36.241610738255	0	0	1	1	1	NaN	1	3	0.0719360908128387	0	1	31	31	1	31	1	110	210	310	NaN	510	0.915181370917708	2	0	NaN	3377310.2836383	NaN	3377311.2671687	3377311.78369713
95	99	99	1	90	36.1581920903955	36.241610738255	0	0	1	7	1	NaN	2	4	0.0856913949773319	0	1	32	32	1	32	1	110	210	310	NaN	510	0.0104831708595157	2	1	NaN	3377313.6174195	NaN	3377314.6008245	3377315.11736073
95	99	99	1	90	36.1581920903955	36.241610738255	0	0	1	7	1	NaN	2	3	0.0779572977837246	0	1	33	33	1	33	1	110	210	310	NaN	510	0.435693523380905	2	1	NaN	3377316.0510011	NaN	3377317.0343982	3377317.55093768
95	99	99	1	90	36.1581920903955	36.241610738255	0	0	1	11	1	NaN	2	4	0.0716653570128335	0	1	34	34	1	34	1	110	210	310	NaN	510	0.64186172792688	2	1	NaN	3377318.901279	NaN	3377319.8846929	3377320.40120877
95	99	99	1	90	36.1581920903955	36.241610738255	0	0	1	4	1	NaN	1	4	0.0663974331657836	0	1	35	35	1	35	1	110	210	310	NaN	510	0.0864722807891667	1	1	NaN	3377321.9682308	NaN	3377322.9516484	3377323.46817882
95	99	99	1	90	36.1581920903955	36.241610738255	0	0	1	2	1	NaN	1	4	0.0618736433773891	0	1	36	36	1	36	1	110	210	310	NaN	510	0.457695418037474	1	1	NaN	3377324.4851349	NaN	3377325.4685601	3377325.98508628
95	99	99	1	90	36.1581920903955	36.241610738255	0	0	1	11	1	NaN	2	5	0.0579040545780666	0	1	37	37	1	37	1	110	210	310	NaN	510	0.446206218097359	1	0	NaN	3377327.3687862	NaN	3377328.3521631	3377328.86870238
95	99	99	1	90	36.1581920903955	36.241610738255	0	0	1	7	1	NaN	2	3	0.0644804644267442	0	1	38	38	1	38	1	110	210	310	NaN	510	0.010453328024596	2	1	NaN	3377330.2358574	NaN	3377331.2191265	3377331.73565397
95	99	99	1	90	36.1581920903955	36.241610738255	0	0	1	9	1	NaN	2	5	0.0605836983686644	0	1	39	39	1	39	1	110	210	310	NaN	510	0.433873623143882	2	1	NaN	3377332.6526191	NaN	3377333.6360441	3377334.15256058
95	99	99	1	90	36.1581920903955	36.241610738255	0	0	1	10	1	NaN	2	3	0.0571536122646795	0	1	40	40	1	40	1	110	210	310	NaN	510	1.30390717554837	2	1	NaN	3377335.50291	NaN	3377336.4863262	3377337.00284512
95	99	99	1	90	36.1581920903955	36.241610738255	0	0	1	2	1	NaN	1	4	0.0540891054016425	0	1	41	41	1	41	1	110	210	310	NaN	510	0.010530723258853	1	1	NaN	3377339.2366127	NaN	3377340.2200036	3377340.73653938
95	99	99	1	90	36.1581920903955	36.241610738255	0	0	1	3	1	NaN	1	3	0.0513186544680865	0	1	42	42	1	42	1	110	210	310	NaN	510	0.200847075786442	1	1	NaN	3377341.6701809	NaN	3377342.6535767	3377343.17011942
95	99	99	1	90	36.1581920903955	36.241610738255	0	0	1	12	1	NaN	2	4	0.0487909868001524	0	1	43	43	1	43	1	110	210	310	NaN	510	1.36256011854857	2	1	NaN	3377344.6203628	NaN	3377345.6038738	3377346.12039188
95	99	99	1	90	36.1581920903955	36.241610738255	0	0	1	2	1	NaN	1	5	0.046468730742859	0	1	44	44	1	44	1	110	210	310	NaN	510	0.0104793705977499	1	1	NaN	3377348.3874988	NaN	3377349.370898	3377349.88745333
95	99	99	1	90	36.1581920903955	36.241610738255	0	0	1	1	1	NaN	1	4	0.04432400974263	0	1	45	45	1	45	1	110	210	310	NaN	510	0.745710328221321	1	1	NaN	3377350.8210694	NaN	3377351.8044818	3377352.32101467
95	99	99	1	90	36.1581920903955	36.241610738255	0	0	1	1	1	NaN	1	4	0.0423353604470625	0	1	46	46	1	46	1	110	210	310	NaN	510	0.315061685163528	1	1	NaN	3377353.9713751	NaN	3377354.9547734	3377355.47131991
95	99	99	1	90	36.1581920903955	36.241610738255	0	0	1	3	1	NaN	1	3	0.0404855887061023	0	1	47	47	1	47	1	110	210	310	NaN	510	0.533690185286105	1	1	NaN	3377356.7049791	NaN	3377357.6883858	3377358.20491641
95	99	99	1	90	36.1581920903955	36.241610738255	0	0	1	2	1	NaN	1	5	0.0387603073452581	0	1	48	48	1	48	1	110	210	310	NaN	510	1.46342893783003	1	1	NaN	3377359.6552627	NaN	3377360.6386699	3377361.15521966
95	99	99	1	90	36.1581920903955	36.241610738255	0	0	1	9	1	NaN	2	3	0.0371469729732379	0	1	49	49	1	49	1	110	210	310	NaN	510	1.26776037085801	1	0	NaN	3377363.5389942	NaN	3377364.5223993	3377365.03891573
95	99	99	1	90	36.1581920903955	36.241610738255	0	0	1	5	1	NaN	1	4	0.0397456494216189	0	1	50	50	1	50	1	110	210	310	NaN	510	2.42141147097573	1	1	NaN	3377367.4892742	NaN	3377368.4727682	3377368.98930843
95	99	99	1	90	36.1581920903955	36.241610738255	0	0	1	3	1	NaN	1	3	0.0381590730575741	0	1	51	51	1	51	1	110	210	310	NaN	510	0.882925576064736	1	1	NaN	3377372.339844	NaN	3377373.32326	3377373.83978982
95	99	99	1	90	36.1581920903955	36.241610738255	0	0	1	4	1	NaN	1	4	0.0366791709435278	0	1	52	52	1	52	1	110	210	310	NaN	510	0.687520171049982	1	1	NaN	3377376.2235583	NaN	3377377.2069637	3377377.72349743
95	99	99	1	90	36.1581920903955	36.241610738255	0	0	1	4	1	NaN	1	3	0.0352960117974861	0	1	53	53	1	53	1	110	210	310	NaN	510	0.531172622926533	1	1	NaN	3377379.3238647	NaN	3377380.3072899	3377380.82380308
95	99	99	1	90	36.1581920903955	36.241610738255	0	0	1	7	1	NaN	2	5	0.0340004562118936	0	1	54	54	1	54	1	110	210	310	NaN	510	0.492649223189801	2	1	NaN	3377382.2741454	NaN	3377383.257552	3377383.77409208
95	99	99	1	90	36.1581920903955	36.241610738255	0	0	1	10	1	NaN	2	4	0.0327840266759975	0	1	55	55	1	55	1	110	210	310	NaN	510	0.504163870587945	2	1	NaN	3377385.5745757	NaN	3377386.5578888	3377387.07442313
95	99	99	1	90	36.1581920903955	36.241610738255	0	0	1	11	1	NaN	2	3	0.03163884901002	0	1	56	56	1	56	1	110	210	310	NaN	510	0.787291118409485	1	0	NaN	3377388.4914202	NaN	3377389.474853	3377389.99136588
95	99	99	1	90	36.1581920903955	36.241610738255	0	0	1	4	1	NaN	1	3	0.0334550905166397	0	1	57	57	1	57	1	110	210	310	NaN	510	0.498236337676644	1	1	NaN	3377391.708407	NaN	3377392.6918099	3377393.20836026
95	99	99	1	90	36.1581920903955	36.241610738255	0	0	1	9	1	NaN	2	4	0.0323243122423036	0	1	58	58	1	58	1	110	210	310	NaN	510	0.542335570789874	2	1	NaN	3377394.6087014	NaN	3377395.5920982	3377396.10863623
95	99	99	1	90	36.1581920903955	36.241610738255	0	0	1	12	1	NaN	2	5	0.031261255559198	0	1	59	59	1	59	1	110	210	310	NaN	510	1.32700287085027	1	0	NaN	3377397.5756499	NaN	3377398.5590729	3377399.07559603
95	99	99	1	90	36.1581920903955	36.241610738255	0	0	1	1	1	NaN	1	5	0.0329328258205511	0	1	60	60	1	60	1	110	210	310	NaN	510	1.46534811798483	2	0	NaN	3377401.3094248	NaN	3377402.2927673	3377402.80929458
95	99	99	1	90	36.1581920903955	36.241610738255	0	0	1	5	1	NaN	1	3	0.0346935118846664	0	1	61	61	1	61	1	110	210	310	NaN	510	0.637888175901026	1	1	NaN	3377405.193072	NaN	3377406.1764783	3377406.69301512
95	99	99	1	90	36.1581920903955	36.241610738255	0	0	1	1	1	NaN	1	3	0.0335711230367592	0	1	62	62	1	62	1	110	210	310	NaN	510	0.915675728116184	1	1	NaN	3377408.2433865	NaN	3377409.2267751	3377409.74331397
95	99	99	1	90	36.1581920903955	36.241610738255	0	0	1	7	1	NaN	2	4	0.0325213124563167	0	1	63	63	1	63	1	110	210	310	NaN	510	0.550664618145674	2	1	NaN	3377411.5603734	NaN	3377412.5437569	3377413.06029238
95	99	99	1	90	36.1581920903955	36.241610738255	0	0	1	4	1	NaN	1	3	0.0315374314035109	0	1	64	64	1	64	1	110	210	310	NaN	510	0.664402333088219	1	1	NaN	3377414.5105736	NaN	3377415.4939725	3377416.01058937
95	99	99	1	90	36.1581920903955	36.241610738255	0	0	1	5	1	NaN	1	5	0.0306133583652023	0	1	65	65	1	65	1	110	210	310	NaN	510	0.652486070990562	2	0	NaN	3377417.5942775	NaN	3377418.5776894	3377419.09422983
95	99	99	1	90	36.1581920903955	36.241610738255	0	0	1	8	1	NaN	2	5	0.0320473268469574	0	1	66	66	1	66	1	110	210	310	NaN	510	0.345923118293285	1	0	NaN	3377420.8444913	NaN	3377421.8280051	3377422.34453628
95	99	99	1	90	36.1581920903955	36.241610738255	0	0	1	3	1	NaN	1	5	0.0335713575371416	0	1	67	67	1	67	1	110	210	310	NaN	510	2.13107092306018	2	0	NaN	3377423.6115381	NaN	3377424.5949583	3377425.11148668
95	99	99	1	90	36.1581920903955	36.241610738255	0	0	1	12	1	NaN	2	3	0.0352032568276335	0	1	68	68	1	68	1	110	210	310	NaN	510	0.341777271125466	1	0	NaN	3377428.145316	NaN	3377429.1287166	3377429.64525373
95	99	99	1	90	36.1581920903955	36.241610738255	0	0	1	10	1	NaN	2	5	0.0369610232091478	0	1	69	69	1	69	1	110	210	310	NaN	510	0.449328223243356	1	0	NaN	3377431.2456057	NaN	3377432.229039	3377432.74555838
95	99	99	1	90	36.1581920903955	36.241610738255	0	0	1	6	1	NaN	1	3	0.0388627745691311	0	1	70	70	1	70	1	110	210	310	NaN	510	1.29480648040771	1	1	NaN	3377434.0957941	NaN	3377435.0793123	3377435.59584542
95	99	99	1	90	36.1581920903955	36.241610738255	0	0	1	11	1	NaN	2	5	0.0376263529429782	0	1	71	71	1	71	1	110	210	310	NaN	510	0.666222118306905	1	0	NaN	3377437.8129376	NaN	3377438.7963368	3377439.31286538
95	99	99	1	90	36.1581920903955	36.241610738255	0	0	1	4	1	NaN	1	4	0.0395364857218626	0	1	72	72	1	72	1	110	210	310	NaN	510	0.277949975803494	1	1	NaN	3377440.8965724	NaN	3377441.8799679	3377442.39650652
