subjno	age	gender	isPractice	viewdist	CmToPixX	CmToPixY	SOA_frm	SOA_time	targNum	targID	targExample	targRace	targGender	firstTargPos	contrast	familiarity	curr_staircase	iStair	TrialNum	BlockNum	blktrl	sessionNum	TC_FIXATION	TC_RSVP_START	TC_RSVP_END	TC_BLANK	TC_RESPONSE_ONSET	RT2afc	resp_2afc	acc	RSVPOnsetVBL	RSVPOnsetTime	RSVPOffsetVBL	RSVPOffsetTime	startrt_2afc
95	19	1	0	90	36.1581920903955	36.241610738255	17	0.566724647860974	2	1	1	NaN	1	5	0.0382915101775862	0	1	NaN	1	1	1	1	120	220	320	NaN	520	0.69744202774018	2	0	NaN	3377503.6529348	NaN	3377504.636196	3377505.16932147
95	19	1	0	90	36.1581920903955	36.241610738255	20	0.66673487983644	2	10	4	NaN	2	3	0.0382915101775862	0	1	NaN	2	1	2	1	120	220	320	NaN	520	1.73455113219097	1	0	NaN	3377506.7199011	NaN	3377507.703133	3377508.23629357
95	19	1	0	90	36.1581920903955	36.241610738255	18	0.600061391852796	2	12	3	NaN	2	4	0.0382915101775862	0	1	NaN	3	1	3	1	120	220	320	NaN	520	0.842623879667372	2	1	NaN	3377510.8034028	NaN	3377511.7868126	3377512.32003132
95	19	1	0	90	36.1581920903955	36.241610738255	15	0.50005115987733	2	3	2	NaN	1	3	0.0382915101775862	0	1	NaN	4	1	4	1	120	220	320	NaN	520	0.676194175612181	2	0	NaN	3377513.9870666	NaN	3377514.9704402	3377515.48699802
95	19	1	0	90	36.1581920903955	36.241610738255	17	0.566724647860974	2	4	2	NaN	1	4	0.0382915101775862	0	1	NaN	5	1	5	1	120	220	320	NaN	520	0.675846527796239	1	1	NaN	3377516.9873591	NaN	3377517.970741	3377518.48730227
95	19	1	0	90	36.1581920903955	36.241610738255	18	0.600061391852796	2	5	1	NaN	1	4	0.0382915101775862	0	1	NaN	6	1	6	1	120	220	320	NaN	520	1.14716892782599	2	0	NaN	3377519.9875167	NaN	3377520.9710195	3377521.48759047
95	19	1	0	90	36.1581920903955	36.241610738255	17	0.566724647860974	2	5	1	NaN	1	3	0.0382915101775862	0	1	NaN	7	1	7	1	120	220	320	NaN	520	1.73610032349825	1	1	NaN	3377523.4546515	NaN	3377524.4380548	3377524.95459538
95	19	1	0	90	36.1581920903955	36.241610738255	0	0	1	6	6	NaN	1	4	0.0382915101775862	0	1	NaN	8	1	8	1	110	210	310	NaN	510	1.34191487543285	1	1	NaN	3377527.5049238	NaN	3377528.4884389	3377529.00499312
95	19	1	0	90	36.1581920903955	36.241610738255	19	0.633398135844618	2	10	2	NaN	2	4	0.0382915101775862	0	1	NaN	9	1	9	1	120	220	320	NaN	520	1.15466142771766	2	1	NaN	3377531.1720099	NaN	3377532.1554713	3377532.67203107
95	19	1	0	90	36.1581920903955	36.241610738255	25	0.83341859979555	2	9	3	NaN	2	5	0.0382915101775862	0	1	NaN	10	1	10	1	120	220	320	NaN	520	1.01910932781175	2	1	NaN	3377534.7557368	NaN	3377535.739154	3377536.25570927
95	19	1	0	90	36.1581920903955	36.241610738255	25	0.83341859979555	2	8	5	NaN	2	4	0.0382915101775862	0	1	NaN	11	1	11	1	120	220	320	NaN	520	2.22173562785611	1	0	NaN	3377538.0894112	NaN	3377539.0728084	3377539.58937467
95	19	1	0	90	36.1581920903955	36.241610738255	14	0.466714415885508	2	6	2	NaN	1	3	0.0382915101775862	0	1	NaN	12	1	12	1	120	220	320	NaN	520	0.447688827756792	1	1	NaN	3377542.6398726	NaN	3377543.6232679	3377544.13981247
95	19	1	0	90	36.1581920903955	36.241610738255	19	0.633398135844618	2	7	3	NaN	2	3	0.0382915101775862	0	1	NaN	13	1	13	1	120	220	320	NaN	520	0.800226027611643	1	0	NaN	3377545.4068303	NaN	3377546.3901968	3377546.90675957
95	19	1	0	90	36.1581920903955	36.241610738255	11	0.366704183910042	2	3	3	NaN	1	5	0.0382915101775862	0	1	NaN	14	1	14	1	120	220	320	NaN	520	0.483015327714384	1	1	NaN	3377548.5237971	NaN	3377549.5071767	3377550.02372817
95	19	1	0	90	36.1581920903955	36.241610738255	23	0.766745111811906	2	6	6	NaN	1	5	0.0382915101775862	0	1	NaN	15	1	15	1	120	220	320	NaN	520	0.482969827950001	1	1	NaN	3377551.3239207	NaN	3377552.3074613	3377552.82399927
95	19	1	0	90	36.1581920903955	36.241610738255	25	0.83341859979555	2	11	5	NaN	2	4	0.0382915101775862	0	1	NaN	16	1	16	1	120	220	320	NaN	520	1.16236512735486	2	1	NaN	3377554.1243323	NaN	3377555.1077194	3377555.62427427
95	19	1	0	90	36.1581920903955	36.241610738255	6	0.200020463950932	2	1	1	NaN	1	4	0.0382915101775862	0	1	NaN	17	1	17	1	120	220	320	NaN	520	0.327201075386256	1	1	NaN	3377557.6080112	NaN	3377558.5913996	3377559.10794302
95	19	1	0	90	36.1581920903955	36.241610738255	18	0.600061391852796	2	12	2	NaN	2	3	0.0382915101775862	0	1	NaN	18	1	18	1	120	220	320	NaN	520	1.00440907524899	2	1	NaN	3377560.2582315	NaN	3377561.2416478	3377561.75820312
95	19	1	0	90	36.1581920903955	36.241610738255	8	0.266693951934576	2	11	5	NaN	2	3	0.0382915101775862	0	1	NaN	19	1	19	1	120	220	320	NaN	520	0.775660775601864	1	0	NaN	3377563.575262	NaN	3377564.5586448	3377565.07519612
95	19	1	0	90	36.1581920903955	36.241610738255	10	0.33336743991822	2	10	4	NaN	2	3	0.0382915101775862	0	1	NaN	20	1	20	1	120	220	320	NaN	520	1.42740927543491	2	1	NaN	3377566.6755576	NaN	3377567.658931	3377568.17549882
95	19	1	0	90	36.1581920903955	36.241610738255	23	0.766745111811906	2	9	6	NaN	2	5	0.0382915101775862	0	1	NaN	21	1	21	1	120	220	320	NaN	520	1.06140494439751	2	1	NaN	3377570.4257871	NaN	3377571.4093192	3377571.92587166
95	19	1	0	90	36.1581920903955	36.241610738255	9	0.300030695926398	2	11	1	NaN	2	5	0.0382915101775862	0	1	NaN	22	1	22	1	120	220	320	NaN	520	0.989240227732807	2	1	NaN	3377573.8094607	NaN	3377574.7929778	3377575.30953167
95	19	1	0	90	36.1581920903955	36.241610738255	23	0.766745111811906	2	4	3	NaN	1	3	0.0382915101775862	0	1	NaN	23	1	23	1	120	220	320	NaN	520	0.424860275350511	2	0	NaN	3377577.1099143	NaN	3377578.0933053	3377578.60986642
95	19	1	0	90	36.1581920903955	36.241610738255	6	0.200020463950932	2	10	1	NaN	2	5	0.0382915101775862	0	1	NaN	24	1	24	1	120	220	320	NaN	520	0.0104106753133237	2	1	NaN	3377579.8601809	NaN	3377580.8435874	3377581.36013592
95	19	1	0	90	36.1581920903955	36.241610738255	18	0.600061391852796	2	1	5	NaN	1	3	0.0382915101775862	0	1	NaN	25	1	25	1	120	220	320	NaN	520	1.0936588277109	1	1	NaN	3377582.1769357	NaN	3377583.1605215	3377583.67703217
95	19	1	0	90	36.1581920903955	36.241610738255	19	0.633398135844618	2	9	4	NaN	2	4	0.0382915101775862	0	1	NaN	26	1	26	1	120	220	320	NaN	520	0.424467027653009	1	0	NaN	3377585.910637	NaN	3377586.8941788	3377587.41072397
95	19	1	0	90	36.1581920903955	36.241610738255	0	0	1	7	2	NaN	2	4	0.0382915101775862	0	1	NaN	27	1	27	1	110	210	310	NaN	510	1.73035017540678	2	1	NaN	3377588.6611325	NaN	3377589.644444	3377590.16099682
95	19	1	0	90	36.1581920903955	36.241610738255	21	0.700071623828262	2	9	5	NaN	2	3	0.0382915101775862	0	1	NaN	28	1	28	1	120	220	320	NaN	520	0.399829827714711	2	1	NaN	3377592.7114525	NaN	3377593.6948398	3377594.21139087
95	19	1	0	90	36.1581920903955	36.241610738255	0	0	1	5	2	NaN	1	5	0.0382915101775862	0	1	NaN	29	1	29	1	110	210	310	NaN	510	0.402668027672917	2	0	NaN	3377595.4284248	NaN	3377596.411778	3377596.92832947
95	19	1	0	90	36.1581920903955	36.241610738255	25	0.83341859979555	2	1	1	NaN	1	5	0.0382915101775862	0	1	NaN	30	1	30	1	120	220	320	NaN	520	1.78953027585521	1	1	NaN	3377598.1453199	NaN	3377599.1287185	3377599.64525752
95	19	1	0	90	36.1581920903955	36.241610738255	16	0.533387903869152	2	8	6	NaN	2	3	0.0382915101775862	0	1	NaN	31	1	31	1	120	220	320	NaN	520	2.66520537529141	2	1	NaN	3377602.2456877	NaN	3377603.2291188	3377603.74565392
95	19	1	0	90	36.1581920903955	36.241610738255	6	0.200020463950932	2	8	4	NaN	2	5	0.0382915101775862	0	1	NaN	32	1	32	1	120	220	320	NaN	520	1.12979752756655	2	1	NaN	3377607.2294047	NaN	3377608.2129913	3377608.72948677
95	19	1	0	90	36.1581920903955	36.241610738255	10	0.33336743991822	2	4	5	NaN	1	5	0.0382915101775862	0	1	NaN	33	1	33	1	120	220	320	NaN	520	0.398883327841759	1	1	NaN	3377610.6797438	NaN	3377611.6633343	3377612.17982617
95	19	1	0	90	36.1581920903955	36.241610738255	11	0.366704183910042	2	8	1	NaN	2	5	0.0382915101775862	0	1	NaN	34	1	34	1	120	220	320	NaN	520	1.53857702389359	1	0	NaN	3377613.3968007	NaN	3377614.3802289	3377614.89674798
95	19	1	0	90	36.1581920903955	36.241610738255	15	0.50005115987733	2	12	2	NaN	2	3	0.0382915101775862	0	1	NaN	35	1	35	1	120	220	320	NaN	520	0.311571727972478	2	1	NaN	3377617.2637126	NaN	3377618.2472423	3377618.76380487
95	19	1	0	90	36.1581920903955	36.241610738255	0	0	1	2	3	NaN	1	5	0.0382915101775862	0	1	NaN	36	1	36	1	110	210	310	NaN	510	0.933416027575731	1	1	NaN	3377619.8974427	NaN	3377620.8808428	3377621.39739577
95	19	1	0	90	36.1581920903955	36.241610738255	7	0.233357207942754	2	12	6	NaN	2	5	0.0382915101775862	0	1	NaN	37	1	37	1	120	220	320	NaN	520	1.68366962764412	1	0	NaN	3377623.1477485	NaN	3377624.1311599	3377624.64771397
95	19	1	0	90	36.1581920903955	36.241610738255	21	0.700071623828262	2	12	4	NaN	2	4	0.0382915101775862	0	1	NaN	38	1	38	1	120	220	320	NaN	520	0.658906827680767	2	1	NaN	3377627.1481578	NaN	3377628.1315335	3377628.64810317
95	19	1	0	90	36.1581920903955	36.241610738255	8	0.266693951934576	2	7	2	NaN	2	4	0.0382915101775862	0	1	NaN	39	1	39	1	120	220	320	NaN	520	0.387946675531566	2	1	NaN	3377630.115107	NaN	3377631.098528	3377631.61505462
95	19	1	0	90	36.1581920903955	36.241610738255	21	0.700071623828262	2	8	4	NaN	2	5	0.0382915101775862	0	1	NaN	40	1	40	1	120	220	320	NaN	520	0.91995842801407	1	0	NaN	3377632.8153151	NaN	3377633.798753	3377634.31532787
95	19	1	0	90	36.1581920903955	36.241610738255	12	0.400040927901864	2	10	6	NaN	2	3	0.0382915101775862	0	1	NaN	41	1	41	1	120	220	320	NaN	520	0.374395875725895	2	1	NaN	3377636.0490156	NaN	3377637.0324177	3377637.54896772
95	19	1	0	90	36.1581920903955	36.241610738255	16	0.533387903869152	2	4	6	NaN	1	5	0.0382915101775862	0	1	NaN	42	1	42	1	120	220	320	NaN	520	0.2582380278036	2	0	NaN	3377638.7326213	NaN	3377639.716051	3377640.23257027
95	19	1	0	90	36.1581920903955	36.241610738255	9	0.300030695926398	2	6	5	NaN	1	5	0.0382915101775862	0	1	NaN	43	1	43	1	120	220	320	NaN	520	0.858741127885878	1	1	NaN	3377641.3162013	NaN	3377642.2996093	3377642.81615767
95	19	1	0	90	36.1581920903955	36.241610738255	24	0.800081855803728	2	11	5	NaN	2	3	0.0382915101775862	0	1	NaN	44	1	44	1	120	220	320	NaN	520	0.331784727517515	2	1	NaN	3377644.4831698	NaN	3377645.4665794	3377645.98313097
95	19	1	0	90	36.1581920903955	36.241610738255	12	0.400040927901864	2	12	5	NaN	2	4	0.0382915101775862	0	1	NaN	45	1	45	1	120	220	320	NaN	520	1.1508377273567	2	1	NaN	3377647.4000327	NaN	3377648.3835562	3377648.90009177
95	19	1	0	90	36.1581920903955	36.241610738255	19	0.633398135844618	2	8	2	NaN	2	4	0.0382915101775862	0	1	NaN	46	1	46	1	120	220	320	NaN	520	0.355660827830434	2	1	NaN	3377650.8672367	NaN	3377651.8505209	3377652.36709467
95	19	1	0	90	36.1581920903955	36.241610738255	8	0.266693951934576	2	10	6	NaN	2	5	0.0382915101775862	0	1	NaN	47	1	47	1	120	220	320	NaN	520	3.12936627538875	2	1	NaN	3377653.5339261	NaN	3377654.5174733	3377655.03402302
95	19	1	0	90	36.1581920903955	36.241610738255	15	0.50005115987733	2	1	5	NaN	1	4	0.0382915101775862	0	1	NaN	48	1	48	1	120	220	320	NaN	520	0.686748575419188	2	0	NaN	3377658.984606	NaN	3377659.9680105	3377660.48455532
95	19	1	0	90	36.1581920903955	36.241610738255	21	0.700071623828262	2	5	5	NaN	1	4	0.0382915101775862	0	1	NaN	49	1	49	1	120	220	320	NaN	520	1.4064371753484	2	0	NaN	3377661.9848978	NaN	3377662.9683428	3377663.48484672
95	19	1	0	90	36.1581920903955	36.241610738255	17	0.566724647860974	2	12	1	NaN	2	4	0.0382915101775862	0	1	NaN	50	1	50	1	120	220	320	NaN	520	2.28940852778032	1	0	NaN	3377665.7018104	NaN	3377666.6853192	3377667.20188397
95	19	1	0	90	36.1581920903955	36.241610738255	18	0.600061391852796	2	8	4	NaN	2	4	0.0382915101775862	0	1	NaN	51	1	51	1	120	220	320	NaN	520	1.5925157754682	2	1	NaN	3377670.302362	NaN	3377671.2857822	3377671.80233632
95	19	1	0	90	36.1581920903955	36.241610738255	19	0.633398135844618	2	11	1	NaN	2	3	0.0382915101775862	0	1	NaN	52	1	52	1	120	220	320	NaN	520	0.484463791828603	2	1	NaN	3377674.2028135	NaN	3377675.1861334	3377675.70272621
95	19	1	0	90	36.1581920903955	36.241610738255	10	0.33336743991822	2	5	6	NaN	1	5	0.0382915101775862	0	1	NaN	53	1	53	1	120	220	320	NaN	520	0.66783302789554	2	0	NaN	3377677.0030307	NaN	3377677.9864386	3377678.50299247
95	19	1	0	90	36.1581920903955	36.241610738255	8	0.266693951934576	2	1	6	NaN	1	4	0.0382915101775862	0	1	NaN	54	1	54	1	120	220	320	NaN	520	1.33268032409251	1	1	NaN	3377679.986667	NaN	3377680.9700666	3377681.48660978
95	19	1	0	90	36.1581920903955	36.241610738255	21	0.700071623828262	2	6	4	NaN	1	5	0.0382915101775862	0	1	NaN	55	1	55	1	120	220	320	NaN	520	0.418025275226682	1	1	NaN	3377683.6370203	NaN	3377684.6204246	3377685.13696802
95	19	1	0	90	36.1581920903955	36.241610738255	20	0.66673487983644	2	2	4	NaN	1	5	0.0382915101775862	0	1	NaN	56	1	56	1	120	220	320	NaN	520	0.324645675253123	2	0	NaN	3377686.3706438	NaN	3377687.3540145	3377687.87057172
95	19	1	0	90	36.1581920903955	36.241610738255	23	0.766745111811906	2	12	4	NaN	2	4	0.0382915101775862	0	1	NaN	57	1	57	1	120	220	320	NaN	520	1.77915842738003	1	0	NaN	3377689.0043112	NaN	3377689.9876098	3377690.50417097
95	19	1	0	90	36.1581920903955	36.241610738255	12	0.400040927901864	2	1	6	NaN	1	4	0.0382915101775862	0	1	NaN	58	1	58	1	120	220	320	NaN	520	1.13508442789316	2	0	NaN	3377693.0878219	NaN	3377694.07135	3377694.58790027
95	19	1	0	90	36.1581920903955	36.241610738255	9	0.300030695926398	2	4	2	NaN	1	5	0.0382915101775862	0	1	NaN	59	1	59	1	120	220	320	NaN	520	0.580828175414354	2	0	NaN	3377696.5382817	NaN	3377697.5216872	3377698.03824382
95	19	1	0	90	36.1581920903955	36.241610738255	17	0.566724647860974	2	10	3	NaN	2	4	0.0382915101775862	0	1	NaN	60	1	60	1	120	220	320	NaN	520	1.9128694278188	1	0	NaN	3377699.4385864	NaN	3377700.4219536	3377700.93851937
95	19	1	0	90	36.1581920903955	36.241610738255	22	0.733408367820084	2	2	5	NaN	1	4	0.0382915101775862	0	1	NaN	61	1	61	1	120	220	320	NaN	520	0.327879375778139	2	0	NaN	3377703.6556481	NaN	3377704.6390562	3377705.15560242
95	19	1	0	90	36.1581920903955	36.241610738255	9	0.300030695926398	2	1	5	NaN	1	5	0.0382915101775862	0	1	NaN	62	1	62	1	120	220	320	NaN	520	2.35770522756502	1	1	NaN	3377706.2892424	NaN	3377707.2726426	3377707.78919137
95	19	1	0	90	36.1581920903955	36.241610738255	10	0.33336743991822	2	2	6	NaN	1	4	0.0382915101775862	0	1	NaN	63	1	63	1	120	220	320	NaN	520	1.08274637581781	2	0	NaN	3377710.9563341	NaN	3377711.9397822	3377712.45632382
95	19	1	0	90	36.1581920903955	36.241610738255	8	0.266693951934576	2	7	1	NaN	2	3	0.0382915101775862	0	1	NaN	64	2	1	1	120	220	320	NaN	520	0.484481424093246	2	1	NaN	3377720.4906118	NaN	3377721.4740599	3377721.99058108
95	19	1	0	90	36.1581920903955	36.241610738255	8	0.266693951934576	2	5	5	NaN	1	4	0.0382915101775862	0	1	NaN	65	2	2	1	120	220	320	NaN	520	1.28461162745953	1	1	NaN	3377723.2909305	NaN	3377724.274323	3377724.79085667
95	19	1	0	90	36.1581920903955	36.241610738255	11	0.366704183910042	2	5	6	NaN	1	4	0.0382915101775862	0	1	NaN	66	2	3	1	120	220	320	NaN	520	0.30030027590692	1	1	NaN	3377726.8912619	NaN	3377727.8746691	3377728.39121002
95	19	1	0	90	36.1581920903955	36.241610738255	13	0.433377671893686	2	12	2	NaN	2	4	0.0382915101775862	0	1	NaN	67	2	4	1	120	220	320	NaN	520	1.20902942772955	1	0	NaN	3377729.5581904	NaN	3377730.5416242	3377731.05814507
95	19	1	0	90	36.1581920903955	36.241610738255	6	0.200020463950932	2	4	3	NaN	1	5	0.0382915101775862	0	1	NaN	68	2	5	1	120	220	320	NaN	520	0.291986827738583	1	1	NaN	3377733.0751958	NaN	3377734.0586108	3377734.57515937
95	19	1	0	90	36.1581920903955	36.241610738255	15	0.50005115987733	2	7	2	NaN	2	5	0.0382915101775862	0	1	NaN	69	2	6	1	120	220	320	NaN	520	0.251676124054939	2	1	NaN	3377735.6754643	NaN	3377736.6588582	3377737.17541098
95	19	1	0	90	36.1581920903955	36.241610738255	9	0.300030695926398	2	8	6	NaN	2	5	0.0382915101775862	0	1	NaN	70	2	7	1	120	220	320	NaN	520	0.244702627882361	1	0	NaN	3377738.2423717	NaN	3377739.2257777	3377739.74234337
95	19	1	0	90	36.1581920903955	36.241610738255	24	0.800081855803728	2	2	2	NaN	1	5	0.0382915101775862	0	1	NaN	71	2	8	1	120	220	320	NaN	520	0.622243427671492	1	1	NaN	3377740.809313	NaN	3377741.7926924	3377742.30924937
95	19	1	0	90	36.1581920903955	36.241610738255	17	0.566724647860974	2	6	2	NaN	1	5	0.0382915101775862	0	1	NaN	72	2	9	1	120	220	320	NaN	520	0.312550175469369	1	1	NaN	3377743.7430133	NaN	3377744.7263156	3377745.24287432
95	19	1	0	90	36.1581920903955	36.241610738255	16	0.533387903869152	2	10	5	NaN	2	5	0.0382915101775862	0	1	NaN	73	2	10	1	120	220	320	NaN	520	0.366496627684683	1	0	NaN	3377746.3765326	NaN	3377747.3599031	3377747.87645697
95	19	1	0	90	36.1581920903955	36.241610738255	22	0.733408367820084	2	6	3	NaN	1	3	0.0382915101775862	0	1	NaN	74	2	11	1	120	220	320	NaN	520	0.819151175674051	1	1	NaN	3377749.0601181	NaN	3377750.0435122	3377750.56007012
95	19	1	0	90	36.1581920903955	36.241610738255	19	0.633398135844618	2	4	6	NaN	1	4	0.0382915101775862	0	1	NaN	75	2	12	1	120	220	320	NaN	520	1.50935882749036	2	0	NaN	3377752.1936134	NaN	3377753.1771374	3377753.69369607
95	19	1	0	90	36.1581920903955	36.241610738255	19	0.633398135844618	2	8	3	NaN	2	5	0.0382915101775862	0	1	NaN	76	2	13	1	120	220	320	NaN	520	1.31644132779911	2	1	NaN	3377756.0107597	NaN	3377756.9941832	3377757.51074537
95	19	1	0	90	36.1581920903955	36.241610738255	14	0.466714415885508	2	3	3	NaN	1	4	0.0382915101775862	0	1	NaN	77	2	14	1	120	220	320	NaN	520	0.723011827562004	2	0	NaN	3377759.6444994	NaN	3377760.6278746	3377761.14442837
95	19	1	0	90	36.1581920903955	36.241610738255	10	0.33336743991822	2	1	1	NaN	1	5	0.0382915101775862	0	1	NaN	78	2	15	1	120	220	320	NaN	520	0.329074675682932	2	0	NaN	3377762.6779793	NaN	3377763.661506	3377764.17805162
95	19	1	0	90	36.1581920903955	36.241610738255	14	0.466714415885508	2	9	4	NaN	2	5	0.0382915101775862	0	1	NaN	79	2	16	1	120	220	320	NaN	520	0.486796627752483	2	1	NaN	3377765.3283623	NaN	3377766.3117657	3377766.82831457
95	19	1	0	90	36.1581920903955	36.241610738255	12	0.400040927901864	2	8	3	NaN	2	5	0.0382915101775862	0	1	NaN	80	2	17	1	120	220	320	NaN	520	0.262566391844302	1	0	NaN	3377768.1285209	NaN	3377769.1120806	3377769.62859451
95	19	1	0	90	36.1581920903955	36.241610738255	23	0.766745111811906	2	12	3	NaN	2	5	0.0382915101775862	0	1	NaN	81	2	18	1	120	220	320	NaN	520	1.23878472764045	1	0	NaN	3377770.7121128	NaN	3377771.6956242	3377772.21218307
95	19	1	0	90	36.1581920903955	36.241610738255	23	0.766745111811906	2	8	5	NaN	2	3	0.0382915101775862	0	1	NaN	82	2	19	1	120	220	320	NaN	520	0.568658927921206	2	1	NaN	3377774.262585	NaN	3377775.2459795	3377775.76253097
95	19	1	0	90	36.1581920903955	36.241610738255	0	0	1	7	3	NaN	2	5	0.0382915101775862	0	1	NaN	83	2	20	1	110	210	310	NaN	510	0.453409427776933	2	1	NaN	3377777.146202	NaN	3377778.1295925	3377778.64614487
95	19	1	0	90	36.1581920903955	36.241610738255	16	0.533387903869152	2	2	2	NaN	1	4	0.0382915101775862	0	1	NaN	84	2	21	1	120	220	320	NaN	520	0.262071127537638	1	1	NaN	3377779.913161	NaN	3377780.8965292	3377781.41308907
95	19	1	0	90	36.1581920903955	36.241610738255	8	0.266693951934576	2	3	6	NaN	1	5	0.0382915101775862	0	1	NaN	85	2	22	1	120	220	320	NaN	520	0.863283079583198	1	1	NaN	3377782.4800511	NaN	3377783.463446	3377783.98000852
95	19	1	0	90	36.1581920903955	36.241610738255	7	0.233357207942754	2	2	6	NaN	1	4	0.0382915101775862	0	1	NaN	86	2	23	1	120	220	320	NaN	520	0.159364011604339	2	0	NaN	3377785.6636974	NaN	3377786.6471095	3377787.16364809
95	19	1	0	90	36.1581920903955	36.241610738255	11	0.366704183910042	2	11	3	NaN	2	4	0.0382915101775862	0	1	NaN	87	2	24	1	120	220	320	NaN	520	0.356961827725172	2	1	NaN	3377788.1304835	NaN	3377789.1140013	3377789.63055617
95	19	1	0	90	36.1581920903955	36.241610738255	9	0.300030695926398	2	3	4	NaN	1	3	0.0382915101775862	0	1	NaN	88	2	25	1	120	220	320	NaN	520	0.321621475275606	1	1	NaN	3377790.7975348	NaN	3377791.7809335	3377792.29747732
95	19	1	0	90	36.1581920903955	36.241610738255	6	0.200020463950932	2	2	6	NaN	1	5	0.0382915101775862	0	1	NaN	89	2	26	1	120	220	320	NaN	520	0.304137027822435	2	0	NaN	3377793.4311268	NaN	3377794.4145294	3377794.93107507
95	19	1	0	90	36.1581920903955	36.241610738255	6	0.200020463950932	2	5	5	NaN	1	3	0.0382915101775862	0	1	NaN	90	2	27	1	120	220	320	NaN	520	0.239627275615931	1	1	NaN	3377796.0480532	NaN	3377797.0314475	3377797.54798972
95	19	1	0	90	36.1581920903955	36.241610738255	15	0.50005115987733	2	4	4	NaN	1	4	0.0382915101775862	0	1	NaN	91	2	28	1	120	220	320	NaN	520	0.600896027870476	1	1	NaN	3377798.5983072	NaN	3377799.581676	3377800.09824597
95	19	1	0	90	36.1581920903955	36.241610738255	24	0.800081855803728	2	6	1	NaN	1	3	0.0382915101775862	0	1	NaN	92	2	29	1	120	220	320	NaN	520	1.45863102376461	1	1	NaN	3377801.5484587	NaN	3377802.5319865	3377803.04853078
95	19	1	0	90	36.1581920903955	36.241610738255	20	0.66673487983644	2	8	5	NaN	2	4	0.0382915101775862	0	1	NaN	93	2	30	1	120	220	320	NaN	520	0.427668675314635	2	1	NaN	3377805.3155906	NaN	3377806.2990266	3377806.81556862
95	19	1	0	90	36.1581920903955	36.241610738255	24	0.800081855803728	2	7	5	NaN	2	3	0.0382915101775862	0	1	NaN	94	2	31	1	120	220	320	NaN	520	0.374093175400048	1	0	NaN	3377808.0491547	NaN	3377809.0326849	3377809.54916742
95	19	1	0	90	36.1581920903955	36.241610738255	14	0.466714415885508	2	2	3	NaN	1	4	0.0382915101775862	0	1	NaN	95	2	32	1	120	220	320	NaN	520	0.594752280041575	1	1	NaN	3377810.7328348	NaN	3377811.7162281	3377812.23276472
95	19	1	0	90	36.1581920903955	36.241610738255	13	0.433377671893686	2	6	2	NaN	1	5	0.0382915101775862	0	1	NaN	96	2	33	1	120	220	320	NaN	520	0.229852627497166	1	1	NaN	3377813.6496619	NaN	3377814.6331705	3377815.14973047
95	19	1	0	90	36.1581920903955	36.241610738255	16	0.533387903869152	2	6	4	NaN	1	5	0.0382915101775862	0	1	NaN	97	2	34	1	120	220	320	NaN	520	0.231260827742517	1	1	NaN	3377816.2000302	NaN	3377817.1834209	3377817.69996967
95	19	1	0	90	36.1581920903955	36.241610738255	0	0	1	10	1	NaN	2	4	0.0382915101775862	0	1	NaN	98	2	35	1	110	210	310	NaN	510	0.0969834756106138	2	1	NaN	3377818.7502749	NaN	3377819.7336719	3377820.25023002
95	19	1	0	90	36.1581920903955	36.241610738255	12	0.400040927901864	2	3	5	NaN	1	4	0.0382915101775862	0	1	NaN	99	2	36	1	120	220	320	NaN	520	0.176547527313232	1	1	NaN	3377821.1671747	NaN	3377822.1505571	3377822.66713037
95	19	1	0	90	36.1581920903955	36.241610738255	20	0.66673487983644	2	12	3	NaN	2	3	0.0382915101775862	0	1	NaN	100	2	37	1	120	220	320	NaN	520	0.51570667559281	1	0	NaN	3377823.6674204	NaN	3377824.6508215	3377825.16737052
95	19	1	0	90	36.1581920903955	36.241610738255	21	0.700071623828262	2	12	1	NaN	2	5	0.0382915101775862	0	1	NaN	101	2	38	1	120	220	320	NaN	520	0.706557027529925	2	1	NaN	3377826.5010419	NaN	3377827.4844286	3377828.00098847
95	19	1	0	90	36.1581920903955	36.241610738255	17	0.566724647860974	2	3	4	NaN	1	3	0.0382915101775862	0	1	NaN	102	2	39	1	120	220	320	NaN	520	0.761083628050983	1	1	NaN	3377829.5178729	NaN	3377830.5013913	3377831.01794267
95	19	1	0	90	36.1581920903955	36.241610738255	16	0.533387903869152	2	1	1	NaN	1	3	0.0382915101775862	0	1	NaN	103	2	40	1	120	220	320	NaN	520	1.19751419592649	1	1	NaN	3377832.6015656	NaN	3377833.5850243	3377834.1015909
95	19	1	0	90	36.1581920903955	36.241610738255	23	0.766745111811906	2	2	2	NaN	1	3	0.0382915101775862	0	1	NaN	104	2	41	1	120	220	320	NaN	520	0.264773875940591	1	1	NaN	3377836.1185982	NaN	3377837.102041	3377837.61858642
95	19	1	0	90	36.1581920903955	36.241610738255	0	0	1	4	1	NaN	1	5	0.0382915101775862	0	1	NaN	105	2	42	1	110	210	310	NaN	510	0.446971127763391	1	1	NaN	3377839.1522489	NaN	3377840.135673	3377840.65222007
95	19	1	0	90	36.1581920903955	36.241610738255	25	0.83341859979555	2	2	1	NaN	1	4	0.0382915101775862	0	1	NaN	106	2	43	1	120	220	320	NaN	520	0.352183275390416	1	1	NaN	3377841.9192188	NaN	3377842.9026163	3377843.41916592
95	19	1	0	90	36.1581920903955	36.241610738255	19	0.633398135844618	2	5	1	NaN	1	3	0.0382915101775862	0	1	NaN	107	2	44	1	120	220	320	NaN	520	1.10095312772319	1	1	NaN	3377844.5860075	NaN	3377845.5695305	3377846.08608917
95	19	1	0	90	36.1581920903955	36.241610738255	12	0.400040927901864	2	6	1	NaN	1	5	0.0382915101775862	0	1	NaN	108	2	45	1	120	220	320	NaN	520	0.732188919559121	1	1	NaN	3377848.0031498	NaN	3377848.9865398	3377849.50309078
95	19	1	0	90	36.1581920903955	36.241610738255	25	0.83341859979555	2	8	2	NaN	2	5	0.0382915101775862	0	1	NaN	109	2	46	1	120	220	320	NaN	520	0.433717623818666	2	1	NaN	3377851.0534404	NaN	3377852.0368427	3377852.55338498
95	19	1	0	90	36.1581920903955	36.241610738255	18	0.600061391852796	2	3	4	NaN	1	4	0.0382915101775862	0	1	NaN	110	2	47	1	120	220	320	NaN	520	4.05148682789877	2	0	NaN	3377853.8037099	NaN	3377854.7871369	3377855.30366397
95	19	1	0	90	36.1581920903955	36.241610738255	17	0.566724647860974	2	2	4	NaN	1	5	0.0382915101775862	0	1	NaN	111	2	48	1	120	220	320	NaN	520	0.244475127663463	2	0	NaN	3377860.1709956	NaN	3377861.1544019	3377861.67096737
95	19	1	0	90	36.1581920903955	36.241610738255	11	0.366704183910042	2	5	1	NaN	1	3	0.0382915101775862	0	1	NaN	112	2	49	1	120	220	320	NaN	520	0.526457375846803	1	1	NaN	3377862.7212398	NaN	3377863.704648	3377864.22119532
95	19	1	0	90	36.1581920903955	36.241610738255	23	0.766745111811906	2	5	2	NaN	1	5	0.0382915101775862	0	1	NaN	113	2	50	1	120	220	320	NaN	520	0.460442375391722	1	1	NaN	3377865.5548609	NaN	3377866.5382932	3377867.05481222
95	19	1	0	90	36.1581920903955	36.241610738255	20	0.66673487983644	2	9	4	NaN	2	5	0.0382915101775862	0	1	NaN	114	2	51	1	120	220	320	NaN	520	0.253170327749103	2	1	NaN	3377868.3384786	NaN	3377869.3218674	3377869.83841397
95	19	1	0	90	36.1581920903955	36.241610738255	11	0.366704183910042	2	4	5	NaN	1	5	0.0382915101775862	0	1	NaN	115	2	52	1	120	220	320	NaN	520	0.413815428037196	2	0	NaN	3377870.9053807	NaN	3377871.8887832	3377872.40534037
95	19	1	0	90	36.1581920903955	36.241610738255	9	0.300030695926398	2	6	3	NaN	1	4	0.0382915101775862	0	1	NaN	116	2	53	1	120	220	320	NaN	520	0.548322875518352	1	1	NaN	3377873.7390114	NaN	3377874.7223826	3377875.23894442
95	19	1	0	90	36.1581920903955	36.241610738255	20	0.66673487983644	2	11	6	NaN	2	3	0.0382915101775862	0	1	NaN	117	2	54	1	120	220	320	NaN	520	0.465217227581888	2	1	NaN	3377876.605953	NaN	3377877.5893459	3377878.10589957
95	19	1	0	90	36.1581920903955	36.241610738255	18	0.600061391852796	2	5	4	NaN	1	3	0.0382915101775862	0	1	NaN	118	2	55	1	120	220	320	NaN	520	0.905709427781403	2	0	NaN	3377879.389425	NaN	3377880.3729467	3377880.88950777
95	19	1	0	90	36.1581920903955	36.241610738255	19	0.633398135844618	2	5	5	NaN	1	4	0.0382915101775862	0	1	NaN	119	2	56	1	120	220	320	NaN	520	0.328810427803546	1	1	NaN	3377882.6065509	NaN	3377883.5899378	3377884.10648447
95	19	1	0	90	36.1581920903955	36.241610738255	12	0.400040927901864	2	1	1	NaN	1	4	0.0382915101775862	0	1	NaN	120	2	57	1	120	220	320	NaN	520	0.310743127483875	1	1	NaN	3377885.2568025	NaN	3377886.2401972	3377886.75674977
95	19	1	0	90	36.1581920903955	36.241610738255	24	0.800081855803728	2	1	3	NaN	1	5	0.0382915101775862	0	1	NaN	121	2	58	1	120	220	320	NaN	520	0.396895132027566	1	1	NaN	3377887.8903876	NaN	3377888.8737053	3377889.39033527
95	19	1	0	90	36.1581920903955	36.241610738255	23	0.766745111811906	2	5	5	NaN	1	5	0.0382915101775862	0	1	NaN	122	2	59	1	120	220	320	NaN	520	0.0560894883237779	1	1	NaN	3377890.6073315	NaN	3377891.590712	3377892.10726771
95	19	1	0	90	36.1581920903955	36.241610738255	20	0.66673487983644	2	3	1	NaN	1	5	0.0382915101775862	0	1	NaN	123	2	60	1	120	220	320	NaN	520	0.344927127938718	1	1	NaN	3377892.9742318	NaN	3377893.9576066	3377894.47417107
95	19	1	0	90	36.1581920903955	36.241610738255	20	0.66673487983644	2	3	3	NaN	1	5	0.0382915101775862	0	1	NaN	124	2	61	1	120	220	320	NaN	520	0.0547333755530417	1	1	NaN	3377895.6243458	NaN	3377896.6078822	3377897.12442782
95	19	1	0	90	36.1581920903955	36.241610738255	22	0.733408367820084	2	10	1	NaN	2	3	0.0382915101775862	0	1	NaN	125	2	62	1	120	220	320	NaN	520	0.119991027750075	2	1	NaN	3377897.9914242	NaN	3377898.9747727	3377899.49132687
95	19	1	0	90	36.1581920903955	36.241610738255	13	0.433377671893686	2	2	1	NaN	1	3	0.0382915101775862	0	1	NaN	126	2	63	1	120	220	320	NaN	520	0.486303627956659	1	1	NaN	3377900.42511	NaN	3377901.4083625	3377901.92490287
95	19	1	0	90	36.1581920903955	36.241610738255	7	0.233357207942754	2	6	2	NaN	1	4	0.0382915101775862	0	1	NaN	127	3	1	1	120	220	320	NaN	520	0.205910975579172	1	1	NaN	3377917.9933572	NaN	3377918.9767377	3377919.49329282
95	19	1	0	90	36.1581920903955	36.241610738255	14	0.466714415885508	2	10	6	NaN	2	4	0.0382915101775862	0	1	NaN	128	3	2	1	120	220	320	NaN	520	0.249041527975351	2	1	NaN	3377920.5101333	NaN	3377921.4936338	3377922.01020457
95	19	1	0	90	36.1581920903955	36.241610738255	22	0.733408367820084	2	4	3	NaN	1	4	0.0382915101775862	0	1	NaN	129	3	3	1	120	220	320	NaN	520	0.42649987526238	2	0	NaN	3377923.0771724	NaN	3377924.0605146	3377924.57711432
95	19	1	0	90	36.1581920903955	36.241610738255	16	0.533387903869152	2	1	4	NaN	1	4	0.0382915101775862	0	1	NaN	130	3	4	1	120	220	320	NaN	520	0.499929327517748	2	0	NaN	3377925.8274629	NaN	3377926.8108358	3377927.32739407
95	19	1	0	90	36.1581920903955	36.241610738255	22	0.733408367820084	2	12	1	NaN	2	4	0.0382915101775862	0	1	NaN	131	3	5	1	120	220	320	NaN	520	0.531405927613378	2	1	NaN	3377928.644366	NaN	3377929.6277818	3377930.14433527
95	19	1	0	90	36.1581920903955	36.241610738255	12	0.400040927901864	2	8	5	NaN	2	4	0.0382915101775862	0	1	NaN	132	3	6	1	120	220	320	NaN	520	0.312673475593328	2	1	NaN	3377931.4946794	NaN	3377932.4780478	3377932.99461552
95	19	1	0	90	36.1581920903955	36.241610738255	0	0	1	9	6	NaN	2	5	0.0382915101775862	0	1	NaN	133	3	7	1	110	210	310	NaN	510	0.27902387548238	2	1	NaN	3377934.1282553	NaN	3377935.111647	3377935.62820592
95	19	1	0	90	36.1581920903955	36.241610738255	19	0.633398135844618	2	3	2	NaN	1	3	0.0382915101775862	0	1	NaN	134	3	8	1	120	220	320	NaN	520	0.110949727706611	2	0	NaN	3377936.7285142	NaN	3377937.7119148	3377938.22845607
95	19	1	0	90	36.1581920903955	36.241610738255	16	0.533387903869152	2	6	5	NaN	1	4	0.0382915101775862	0	1	NaN	135	3	9	1	120	220	320	NaN	520	0.0104132755659521	1	1	NaN	3377939.1620677	NaN	3377940.1454861	3377940.66203632
95	19	1	0	90	36.1581920903955	36.241610738255	24	0.800081855803728	2	9	2	NaN	2	5	0.0382915101775862	0	1	NaN	136	3	10	1	120	220	320	NaN	520	0.472493827808648	1	0	NaN	3377941.4788356	NaN	3377942.4623728	3377942.97892667
95	19	1	0	90	36.1581920903955	36.241610738255	0	0	1	2	1	NaN	1	5	0.0382915101775862	0	1	NaN	137	3	11	1	110	210	310	NaN	510	0.0808043275028467	2	0	NaN	3377944.2625753	NaN	3377945.2459896	3377945.76252757
95	19	1	0	90	36.1581920903955	36.241610738255	17	0.566724647860974	2	4	6	NaN	1	4	0.0382915101775862	0	1	NaN	138	3	12	1	120	220	320	NaN	520	0.360463180113584	1	1	NaN	3377946.6627581	NaN	3377947.6462485	3377948.16277342
95	19	1	0	90	36.1581920903955	36.241610738255	14	0.466714415885508	2	6	3	NaN	1	5	0.0382915101775862	0	1	NaN	139	3	13	1	120	220	320	NaN	520	0.253993327729404	2	0	NaN	3377949.329644	NaN	3377950.3131331	3377950.82969667
95	19	1	0	90	36.1581920903955	36.241610738255	25	0.83341859979555	2	5	3	NaN	1	5	0.0382915101775862	0	1	NaN	140	3	14	1	120	220	320	NaN	520	0.854845027439296	2	0	NaN	3377951.8966411	NaN	3377952.8800527	3377953.39661327
95	19	1	0	90	36.1581920903955	36.241610738255	17	0.566724647860974	2	9	2	NaN	2	5	0.0382915101775862	0	1	NaN	141	3	15	1	120	220	320	NaN	520	0.559551775455475	2	1	NaN	3377955.0636343	NaN	3377956.0470546	3377956.56358152
95	19	1	0	90	36.1581920903955	36.241610738255	19	0.633398135844618	2	10	5	NaN	2	3	0.0382915101775862	0	1	NaN	142	3	16	1	120	220	320	NaN	520	0.332720127888024	2	1	NaN	3377957.9304635	NaN	3377958.9139817	3377959.43055737
95	19	1	0	90	36.1581920903955	36.241610738255	21	0.700071623828262	2	11	1	NaN	2	4	0.0382915101775862	0	1	NaN	143	3	17	1	120	220	320	NaN	520	0.0425777961499989	2	1	NaN	3377960.5808511	NaN	3377961.5642528	3377962.0808068
95	19	1	0	90	36.1581920903955	36.241610738255	16	0.533387903869152	2	10	2	NaN	2	3	0.0382915101775862	0	1	NaN	144	3	18	1	120	220	320	NaN	520	1.98828637972474	1	0	NaN	3377962.9310785	NaN	3377963.9144705	3377964.43103482
95	19	1	0	90	36.1581920903955	36.241610738255	0	0	1	4	1	NaN	1	3	0.0382915101775862	0	1	NaN	145	3	19	1	110	210	310	NaN	510	0.0104216756299138	1	1	NaN	3377967.2315148	NaN	3377968.2148976	3377968.73144872
95	19	1	0	90	36.1581920903955	36.241610738255	16	0.533387903869152	2	9	3	NaN	2	3	0.0382915101775862	0	1	NaN	146	3	20	1	120	220	320	NaN	520	1.48236302798614	2	1	NaN	3377969.5649661	NaN	3377970.5484583	3377971.06500927
95	19	1	0	90	36.1581920903955	36.241610738255	20	0.66673487983644	2	7	4	NaN	2	3	0.0382915101775862	0	1	NaN	147	3	21	1	120	220	320	NaN	520	2.24243572773412	2	1	NaN	3377973.3654201	NaN	3377974.3488363	3377974.86537957
95	19	1	0	90	36.1581920903955	36.241610738255	14	0.466714415885508	2	8	4	NaN	2	4	0.0382915101775862	0	1	NaN	148	3	22	1	120	220	320	NaN	520	0.227349091786891	2	1	NaN	3377977.9324156	NaN	3377978.9159396	3377979.43250171
95	19	1	0	90	36.1581920903955	36.241610738255	15	0.50005115987733	2	9	5	NaN	2	5	0.0382915101775862	0	1	NaN	149	3	23	1	120	220	320	NaN	520	0.0286830277182162	2	1	NaN	3377980.4827907	NaN	3377981.466194	3377981.98275477
95	19	1	0	90	36.1581920903955	36.241610738255	25	0.83341859979555	2	7	5	NaN	2	4	0.0382915101775862	0	1	NaN	150	3	24	1	120	220	320	NaN	520	0.110420727636665	2	1	NaN	3377982.8329009	NaN	3377983.81645	3377984.33298027
95	19	1	0	90	36.1581920903955	36.241610738255	15	0.50005115987733	2	1	4	NaN	1	3	0.0382915101775862	0	1	NaN	151	3	25	1	120	220	320	NaN	520	1.77349917544052	2	0	NaN	3377985.2499374	NaN	3377986.2333517	3377986.74988662
95	19	1	0	90	36.1581920903955	36.241610738255	22	0.733408367820084	2	5	3	NaN	1	5	0.0382915101775862	0	1	NaN	152	3	26	1	120	220	320	NaN	520	0.0103264879435301	2	0	NaN	3377989.3336627	NaN	3377990.3170662	3377990.83361951
95	19	1	0	90	36.1581920903955	36.241610738255	7	0.233357207942754	2	3	4	NaN	1	5	0.0382915101775862	0	1	NaN	153	3	27	1	120	220	320	NaN	520	0.349377127829939	2	0	NaN	3377991.6505294	NaN	3377992.6339714	3377993.15050497
95	19	1	0	90	36.1581920903955	36.241610738255	14	0.466714415885508	2	1	5	NaN	1	5	0.0382915101775862	0	1	NaN	154	3	28	1	120	220	320	NaN	520	0.378299927804619	2	0	NaN	3377994.3174845	NaN	3377995.300896	3377995.81743507
95	19	1	0	90	36.1581920903955	36.241610738255	18	0.600061391852796	2	3	1	NaN	1	3	0.0382915101775862	0	1	NaN	155	3	29	1	120	220	320	NaN	520	1.74961542803794	2	0	NaN	3377997.0178401	NaN	3377998.001045	3377998.51770227
95	19	1	0	90	36.1581920903955	36.241610738255	13	0.433377671893686	2	1	2	NaN	1	3	0.0382915101775862	0	1	NaN	156	3	30	1	120	220	320	NaN	520	1.55516682751477	2	0	NaN	3378001.0846903	NaN	3378002.0682141	3378002.58476947
95	19	1	0	90	36.1581920903955	36.241610738255	22	0.733408367820084	2	3	2	NaN	1	3	0.0382915101775862	0	1	NaN	157	3	31	1	120	220	320	NaN	520	0.39960412774235	2	0	NaN	3378004.9518588	NaN	3378005.9352715	3378006.45181977
95	19	1	0	90	36.1581920903955	36.241610738255	24	0.800081855803728	2	4	2	NaN	1	3	0.0382915101775862	0	1	NaN	158	3	32	1	120	220	320	NaN	520	1.16273127542809	1	1	NaN	3378007.6688076	NaN	3378008.6522913	3378009.16874222
95	19	1	0	90	36.1581920903955	36.241610738255	6	0.200020463950932	2	12	3	NaN	2	3	0.0382915101775862	0	1	NaN	159	3	33	1	120	220	320	NaN	520	0.455034227576107	1	0	NaN	3378011.1525052	NaN	3378012.1358676	3378012.65241637
95	19	1	0	90	36.1581920903955	36.241610738255	16	0.533387903869152	2	3	2	NaN	1	3	0.0382915101775862	0	1	NaN	160	3	34	1	120	220	320	NaN	520	0.0103942276909947	1	1	NaN	3378013.9194112	NaN	3378014.9027978	3378015.41935927
95	19	1	0	90	36.1581920903955	36.241610738255	10	0.33336743991822	2	3	1	NaN	1	5	0.0382915101775862	0	1	NaN	161	3	35	1	120	220	320	NaN	520	1.37116167554632	2	0	NaN	3378016.236292	NaN	3378017.2197133	3378017.73625402
95	19	1	0	90	36.1581920903955	36.241610738255	8	0.266693951934576	2	10	3	NaN	2	4	0.0382915101775862	0	1	NaN	162	3	36	1	120	220	320	NaN	520	0.0104045276530087	1	0	NaN	3378019.9200009	NaN	3378020.9033846	3378021.41994967
95	19	1	0	90	36.1581920903955	36.241610738255	14	0.466714415885508	2	7	1	NaN	2	4	0.0382915101775862	0	1	NaN	163	3	37	1	120	220	320	NaN	520	0.442651675548404	1	0	NaN	3378022.2368918	NaN	3378023.220299	3378023.73683542
95	19	1	0	90	36.1581920903955	36.241610738255	18	0.600061391852796	2	7	2	NaN	2	4	0.0382915101775862	0	1	NaN	164	3	38	1	120	220	320	NaN	520	0.524460227694362	1	0	NaN	3378024.9871281	NaN	3378025.970582	3378026.48711007
95	19	1	0	90	36.1581920903955	36.241610738255	18	0.600061391852796	2	6	4	NaN	1	3	0.0382915101775862	0	1	NaN	165	3	39	1	120	220	320	NaN	520	0.0104775279760361	1	1	NaN	3378027.8208311	NaN	3378028.8041826	3378029.32073967
95	19	1	0	90	36.1581920903955	36.241610738255	15	0.50005115987733	2	8	1	NaN	2	3	0.0382915101775862	0	1	NaN	166	3	40	1	120	220	320	NaN	520	0.0104000279679894	1	0	NaN	3378030.1375917	NaN	3378031.1210623	3378031.63761467
95	19	1	0	90	36.1581920903955	36.241610738255	16	0.533387903869152	2	5	1	NaN	1	4	0.0382915101775862	0	1	NaN	167	3	41	1	120	220	320	NaN	520	0.216527627781034	1	1	NaN	3378032.4712517	NaN	3378033.4546342	3378033.97117577
95	19	1	0	90	36.1581920903955	36.241610738255	0	0	1	10	1	NaN	2	5	0.0382915101775862	0	1	NaN	168	3	42	1	110	210	310	NaN	510	0.0104261757805943	2	1	NaN	3378035.0048966	NaN	3378035.9882028	3378036.50476172
95	19	1	0	90	36.1581920903955	36.241610738255	6	0.200020463950932	2	11	3	NaN	2	3	0.0382915101775862	0	1	NaN	169	3	43	1	120	220	320	NaN	520	1.69389167567715	2	1	NaN	3378037.3217317	NaN	3378038.3051053	3378038.82165582
95	19	1	0	90	36.1581920903955	36.241610738255	22	0.733408367820084	2	7	5	NaN	2	3	0.0382915101775862	0	1	NaN	170	3	44	1	120	220	320	NaN	520	0.0103950276970863	2	1	NaN	3378041.3221069	NaN	3378042.305497	3378042.82204597
95	19	1	0	90	36.1581920903955	36.241610738255	25	0.83341859979555	2	12	4	NaN	2	5	0.0382915101775862	0	1	NaN	171	3	45	1	120	220	320	NaN	520	0.608219239860773	1	0	NaN	3378043.6556654	NaN	3378044.6390539	3378045.15561506
95	19	1	0	90	36.1581920903955	36.241610738255	24	0.800081855803728	2	5	2	NaN	1	3	0.0382915101775862	0	1	NaN	172	3	46	1	120	220	320	NaN	520	0.50697067566216	1	1	NaN	3378046.5726185	NaN	3378047.5560124	3378048.07255512
95	19	1	0	90	36.1581920903955	36.241610738255	10	0.33336743991822	2	11	2	NaN	2	3	0.0382915101775862	0	1	NaN	173	3	47	1	120	220	320	NaN	520	0.297970323823392	2	1	NaN	3378049.3894223	NaN	3378050.3729539	3378050.88949518
95	19	1	0	90	36.1581920903955	36.241610738255	14	0.466714415885508	2	11	2	NaN	2	5	0.0382915101775862	0	1	NaN	174	3	48	1	120	220	320	NaN	520	0.512990827672184	2	1	NaN	3378052.0064456	NaN	3378052.9899291	3378053.50642637
95	19	1	0	90	36.1581920903955	36.241610738255	7	0.233357207942754	2	1	2	NaN	1	3	0.0382915101775862	0	1	NaN	175	3	49	1	120	220	320	NaN	520	0.647318588104099	2	0	NaN	3378054.8401	NaN	3378055.8234942	3378056.34003701
95	19	1	0	90	36.1581920903955	36.241610738255	16	0.533387903869152	2	7	4	NaN	2	4	0.0382915101775862	0	1	NaN	176	3	50	1	120	220	320	NaN	520	0.0103953275829554	2	1	NaN	3378057.8070401	NaN	3378058.7903649	3378059.30699787
95	19	1	0	90	36.1581920903955	36.241610738255	15	0.50005115987733	2	5	2	NaN	1	4	0.0382915101775862	0	1	NaN	177	3	51	1	120	220	320	NaN	520	1.38753237528726	2	0	NaN	3378060.1238439	NaN	3378061.1073126	3378061.62388442
95	19	1	0	90	36.1581920903955	36.241610738255	6	0.200020463950932	2	10	1	NaN	2	5	0.0382915101775862	0	1	NaN	178	3	52	1	120	220	320	NaN	520	0.0103822802193463	2	1	NaN	3378063.8243086	NaN	3378064.8076839	3378065.32425702
95	19	1	0	90	36.1581920903955	36.241610738255	18	0.600061391852796	2	10	3	NaN	2	4	0.0382915101775862	0	1	NaN	179	3	53	1	120	220	320	NaN	520	0.450758339371532	2	1	NaN	3378066.1411141	NaN	3378067.1245996	3378067.64114236
95	19	1	0	90	36.1581920903955	36.241610738255	6	0.200020463950932	2	12	5	NaN	2	3	0.0382915101775862	0	1	NaN	180	3	54	1	120	220	320	NaN	520	0.0103933275677264	1	0	NaN	3378068.9081566	NaN	3378069.8915358	3378070.40810087
95	19	1	0	90	36.1581920903955	36.241610738255	16	0.533387903869152	2	8	6	NaN	2	4	0.0382915101775862	0	1	NaN	181	3	55	1	120	220	320	NaN	520	0.350923575460911	2	1	NaN	3378071.2249154	NaN	3378072.2084218	3378072.72498022
95	19	1	0	90	36.1581920903955	36.241610738255	18	0.600061391852796	2	1	3	NaN	1	3	0.0382915101775862	0	1	NaN	182	3	56	1	120	220	320	NaN	520	0.010414675809443	2	0	NaN	3378073.8919638	NaN	3378074.8753605	3378075.39190992
95	19	1	0	90	36.1581920903955	36.241610738255	23	0.766745111811906	2	11	3	NaN	2	4	0.0382915101775862	0	1	NaN	183	3	57	1	120	220	320	NaN	520	0.142477827612311	2	1	NaN	3378076.2254182	NaN	3378077.2089164	3378077.72546477
95	19	1	0	90	36.1581920903955	36.241610738255	25	0.83341859979555	2	4	6	NaN	1	5	0.0382915101775862	0	1	NaN	184	3	58	1	120	220	320	NaN	520	0.428249027580023	2	0	NaN	3378078.6757524	NaN	3378079.6591663	3378080.17571017
95	19	1	0	90	36.1581920903955	36.241610738255	24	0.800081855803728	2	2	4	NaN	1	3	0.0382915101775862	0	1	NaN	185	3	59	1	120	220	320	NaN	520	0.814303027931601	2	0	NaN	3378081.4092372	NaN	3378082.3927624	3378082.90931287
95	19	1	0	90	36.1581920903955	36.241610738255	25	0.83341859979555	2	10	6	NaN	2	4	0.0382915101775862	0	1	NaN	186	3	60	1	120	220	320	NaN	520	1.68854627572	1	0	NaN	3378084.5429987	NaN	3378085.5263982	3378086.04294492
95	19	1	0	90	36.1581920903955	36.241610738255	22	0.733408367820084	2	9	4	NaN	2	5	0.0382915101775862	0	1	NaN	187	3	61	1	120	220	320	NaN	520	0.522939623799175	2	1	NaN	3378088.6766087	NaN	3378089.6601459	3378090.17668388
95	19	1	0	90	36.1581920903955	36.241610738255	8	0.266693951934576	2	12	6	NaN	2	5	0.0382915101775862	0	1	NaN	188	3	62	1	120	220	320	NaN	520	0.28171277558431	1	0	NaN	3378091.5103422	NaN	3378092.4937261	3378093.01029842
95	19	1	0	90	36.1581920903955	36.241610738255	19	0.633398135844618	2	1	4	NaN	1	5	0.0382915101775862	0	1	NaN	189	3	63	1	120	220	320	NaN	520	0.752896475605667	2	0	NaN	3378094.1104869	NaN	3378095.0939997	3378095.61055372
95	19	1	0	90	36.1581920903955	36.241610738255	11	0.366704183910042	2	2	6	NaN	1	4	0.0382915101775862	0	1	NaN	190	4	1	1	120	220	320	NaN	520	0.0103869275189936	1	1	NaN	3378109.8286917	NaN	3378110.8122054	3378111.32876027
95	19	1	0	90	36.1581920903955	36.241610738255	6	0.200020463950932	2	3	1	NaN	1	5	0.0382915101775862	0	1	NaN	191	4	2	1	120	220	320	NaN	520	0.821333927568048	1	1	NaN	3378112.1623873	NaN	3378113.1457802	3378113.66232417
95	19	1	0	90	36.1581920903955	36.241610738255	22	0.733408367820084	2	11	4	NaN	2	5	0.0382915101775862	0	1	NaN	192	4	3	1	120	220	320	NaN	520	0.336089831776917	2	1	NaN	3378115.2960132	NaN	3378116.2794047	3378116.79597467
95	19	1	0	90	36.1581920903955	36.241610738255	7	0.233357207942754	2	9	2	NaN	2	3	0.0382915101775862	0	1	NaN	193	4	4	1	120	220	320	NaN	520	0.309413227718323	2	1	NaN	3378117.9461424	NaN	3378118.9296757	3378119.44622067
95	19	1	0	90	36.1581920903955	36.241610738255	17	0.566724647860974	2	6	6	NaN	1	3	0.0382915101775862	0	1	NaN	194	4	5	1	120	220	320	NaN	520	1.22876772750169	1	1	NaN	3378120.563118	NaN	3378121.546595	3378122.06315287
95	19	1	0	90	36.1581920903955	36.241610738255	7	0.233357207942754	2	5	3	NaN	1	5	0.0382915101775862	0	1	NaN	195	4	6	1	120	220	320	NaN	520	0.350113375578076	1	1	NaN	3378124.1134598	NaN	3378125.0969087	3378125.61349782
95	19	1	0	90	36.1581920903955	36.241610738255	10	0.33336743991822	2	12	4	NaN	2	3	0.0382915101775862	0	1	NaN	196	4	7	1	120	220	320	NaN	520	0.947231727652252	1	0	NaN	3378126.7804672	NaN	3378127.763853	3378128.28042677
95	19	1	0	90	36.1581920903955	36.241610738255	8	0.266693951934576	2	6	4	NaN	1	5	0.0382915101775862	0	1	NaN	197	4	8	1	120	220	320	NaN	520	0.0102889919653535	1	1	NaN	3378130.0474672	NaN	3378131.0308605	3378131.54741921
95	19	1	0	90	36.1581920903955	36.241610738255	11	0.366704183910042	2	12	3	NaN	2	4	0.0382915101775862	0	1	NaN	198	4	9	1	120	220	320	NaN	520	1.31519877538085	2	1	NaN	3378132.3642496	NaN	3378133.3477764	3378133.86430342
95	19	1	0	90	36.1581920903955	36.241610738255	12	0.400040927901864	2	11	6	NaN	2	3	0.0382915101775862	0	1	NaN	199	4	10	1	120	220	320	NaN	520	0.2895423239097	2	1	NaN	3378135.9979241	NaN	3378136.9814336	3378137.49798608
95	19	1	0	90	36.1581920903955	36.241610738255	23	0.766745111811906	2	8	6	NaN	2	3	0.0382915101775862	0	1	NaN	200	4	11	1	120	220	320	NaN	520	0.169432227499783	1	0	NaN	3378138.5984023	NaN	3378139.5816953	3378140.09824887
95	19	1	0	90	36.1581920903955	36.241610738255	15	0.50005115987733	2	11	1	NaN	2	5	0.0382915101775862	0	1	NaN	201	4	12	1	120	220	320	NaN	520	0.125758380163461	2	1	NaN	3378141.0817399	NaN	3378142.0652829	3378142.58183232
95	19	1	0	90	36.1581920903955	36.241610738255	0	0	1	8	3	NaN	2	3	0.0382915101775862	0	1	NaN	202	4	13	1	110	210	310	NaN	510	1.01210487540811	1	0	NaN	3378143.5154433	NaN	3378144.4988509	3378145.01538952
95	19	1	0	90	36.1581920903955	36.241610738255	9	0.300030695926398	2	4	2	NaN	1	4	0.0382915101775862	0	1	NaN	203	4	14	1	120	220	320	NaN	520	0.286570127587765	1	1	NaN	3378146.8491328	NaN	3378147.8324987	3378148.34905387
95	19	1	0	90	36.1581920903955	36.241610738255	13	0.433377671893686	2	3	3	NaN	1	4	0.0382915101775862	0	1	NaN	204	4	15	1	120	220	320	NaN	520	1.1907672798261	1	1	NaN	3378149.4492573	NaN	3378150.4327417	3378150.94931082
95	19	1	0	90	36.1581920903955	36.241610738255	14	0.466714415885508	2	5	6	NaN	1	4	0.0382915101775862	0	1	NaN	205	4	16	1	120	220	320	NaN	520	0.0104143754579127	1	1	NaN	3378152.9497189	NaN	3378153.9331279	3378154.44965382
95	19	1	0	90	36.1581920903955	36.241610738255	8	0.266693951934576	2	9	1	NaN	2	3	0.0382915101775862	0	1	NaN	206	4	17	1	120	220	320	NaN	520	0.429021927993745	1	0	NaN	3378155.2664677	NaN	3378156.2500082	3378156.76656807
95	19	1	0	90	36.1581920903955	36.241610738255	8	0.266693951934576	2	4	6	NaN	1	4	0.0382915101775862	0	1	NaN	207	4	18	1	120	220	320	NaN	520	0.0104081756435335	2	0	NaN	3378158.016878	NaN	3378159.0002594	3378159.51681672
95	19	1	0	90	36.1581920903955	36.241610738255	13	0.433377671893686	2	6	4	NaN	1	4	0.0382915101775862	0	1	NaN	208	4	19	1	120	220	320	NaN	520	0.0103945275768638	1	1	NaN	3378160.3336691	NaN	3378161.3171542	3378161.83371417
95	19	1	0	90	36.1581920903955	36.241610738255	13	0.433377671893686	2	7	6	NaN	2	5	0.0382915101775862	0	1	NaN	209	4	20	1	120	220	320	NaN	520	0.181056827772409	2	1	NaN	3378162.6506668	NaN	3378163.634051	3378164.15060897
95	19	1	0	90	36.1581920903955	36.241610738255	16	0.533387903869152	2	11	2	NaN	2	3	0.0382915101775862	0	1	NaN	210	4	21	1	120	220	320	NaN	520	1.88074962748215	2	1	NaN	3378165.1509085	NaN	3378166.1342961	3378166.65085307
95	19	1	0	90	36.1581920903955	36.241610738255	24	0.800081855803728	2	4	3	NaN	1	4	0.0382915101775862	0	1	NaN	211	4	22	1	120	220	320	NaN	520	0.296433427836746	1	1	NaN	3378169.3513125	NaN	3378170.3347033	3378170.85125787
95	19	1	0	90	36.1581920903955	36.241610738255	0	0	1	11	4	NaN	2	5	0.0382915101775862	0	1	NaN	212	4	23	1	110	210	310	NaN	510	1.67944597546011	2	1	NaN	3378171.9682386	NaN	3378172.9516394	3378173.46819262
95	19	1	0	90	36.1581920903955	36.241610738255	23	0.766745111811906	2	6	5	NaN	1	3	0.0382915101775862	0	1	NaN	213	4	24	1	120	220	320	NaN	520	0.303136575501412	1	1	NaN	3378175.9685039	NaN	3378176.9520336	3378177.46858122
95	19	1	0	90	36.1581920903955	36.241610738255	10	0.33336743991822	2	6	2	NaN	1	5	0.0382915101775862	0	1	NaN	214	4	25	1	120	220	320	NaN	520	1.92614377569407	1	1	NaN	3378178.5855456	NaN	3378179.5689604	3378180.08549462
95	19	1	0	90	36.1581920903955	36.241610738255	0	0	1	3	4	NaN	1	5	0.0382915101775862	0	1	NaN	215	4	26	1	110	210	310	NaN	510	0.932345127686858	2	0	NaN	3378182.8191975	NaN	3378183.8027028	3378184.31925347
95	19	1	0	90	36.1581920903955	36.241610738255	7	0.233357207942754	2	10	3	NaN	2	5	0.0382915101775862	0	1	NaN	216	4	27	1	120	220	320	NaN	520	0.586253775749356	1	0	NaN	3378186.0696337	NaN	3378187.0530115	3378187.56956352
95	19	1	0	90	36.1581920903955	36.241610738255	13	0.433377671893686	2	8	6	NaN	2	3	0.0382915101775862	0	1	NaN	217	4	28	1	120	220	320	NaN	520	0.0104181240312755	1	0	NaN	3378188.969868	NaN	3378189.9533032	3378190.46984908
95	19	1	0	90	36.1581920903955	36.241610738255	16	0.533387903869152	2	12	5	NaN	2	5	0.0382915101775862	0	1	NaN	218	4	29	1	120	220	320	NaN	520	0.656246275641024	2	1	NaN	3378191.3034535	NaN	3378192.2868789	3378192.80341492
95	19	1	0	90	36.1581920903955	36.241610738255	20	0.66673487983644	2	7	1	NaN	2	5	0.0382915101775862	0	1	NaN	219	4	30	1	120	220	320	NaN	520	0.192690727766603	1	0	NaN	3378194.2869736	NaN	3378195.2704852	3378195.78704147
95	19	1	0	90	36.1581920903955	36.241610738255	8	0.266693951934576	2	12	6	NaN	2	5	0.0382915101775862	0	1	NaN	220	4	31	1	120	220	320	NaN	520	0.284525875467807	2	1	NaN	3378196.7873335	NaN	3378197.7707387	3378198.28728042
95	19	1	0	90	36.1581920903955	36.241610738255	8	0.266693951934576	2	3	6	NaN	1	4	0.0382915101775862	0	1	NaN	221	4	32	1	120	220	320	NaN	520	0.0104110757820308	1	1	NaN	3378199.3875542	NaN	3378200.3709844	3378200.88753682
95	19	1	0	90	36.1581920903955	36.241610738255	24	0.800081855803728	2	10	3	NaN	2	5	0.0382915101775862	0	1	NaN	222	4	33	1	120	220	320	NaN	520	0.246709027793258	1	0	NaN	3378201.721163	NaN	3378202.7045497	3378203.22110877
95	19	1	0	90	36.1581920903955	36.241610738255	23	0.766745111811906	2	3	1	NaN	1	5	0.0382915101775862	0	1	NaN	223	4	34	1	120	220	320	NaN	520	0.351740127429366	1	1	NaN	3378204.2880729	NaN	3378205.2714889	3378205.78801447
95	19	1	0	90	36.1581920903955	36.241610738255	10	0.33336743991822	2	6	6	NaN	1	5	0.0382915101775862	0	1	NaN	224	4	35	1	120	220	320	NaN	520	0.188616675790399	1	1	NaN	3378206.9549949	NaN	3378207.9384001	3378208.45495082
95	19	1	0	90	36.1581920903955	36.241610738255	17	0.566724647860974	2	7	4	NaN	2	4	0.0382915101775862	0	1	NaN	225	4	36	1	120	220	320	NaN	520	0.464400827884674	1	0	NaN	3378209.455142	NaN	3378210.4386504	3378210.95519547
95	19	1	0	90	36.1581920903955	36.241610738255	0	0	1	8	5	NaN	2	4	0.0382915101775862	0	1	NaN	226	4	37	1	110	210	310	NaN	510	0.224794375710189	1	0	NaN	3378212.2388667	NaN	3378213.2222567	3378213.73880142
95	19	1	0	90	36.1581920903955	36.241610738255	8	0.266693951934576	2	11	6	NaN	2	3	0.0382915101775862	0	1	NaN	227	4	38	1	120	220	320	NaN	520	0.62767627555877	2	1	NaN	3378214.7724427	NaN	3378215.755836	3378216.27237982
95	19	1	0	90	36.1581920903955	36.241610738255	19	0.633398135844618	2	3	6	NaN	1	3	0.0382915101775862	0	1	NaN	228	4	39	1	120	220	320	NaN	520	0.0103978277184069	1	1	NaN	3378217.7225911	NaN	3378218.7061163	3378219.22266907
95	19	1	0	90	36.1581920903955	36.241610738255	17	0.566724647860974	2	8	3	NaN	2	5	0.0382915101775862	0	1	NaN	229	4	40	1	120	220	320	NaN	520	0.336119675543159	1	0	NaN	3378220.0396243	NaN	3378221.0230133	3378221.53956652
95	19	1	0	90	36.1581920903955	36.241610738255	10	0.33336743991822	2	9	6	NaN	2	5	0.0382915101775862	0	1	NaN	230	4	41	1	120	220	320	NaN	520	0.0104082757607102	2	1	NaN	3378222.689841	NaN	3378223.6732748	3378224.18982652
95	19	1	0	90	36.1581920903955	36.241610738255	20	0.66673487983644	2	10	2	NaN	2	3	0.0382915101775862	0	1	NaN	231	4	42	1	120	220	320	NaN	520	0.0102878916077316	1	0	NaN	3378225.0234581	NaN	3378226.0068304	3378226.52338461
95	19	1	0	90	36.1581920903955	36.241610738255	11	0.366704183910042	2	11	4	NaN	2	3	0.0382915101775862	0	1	NaN	232	4	43	1	120	220	320	NaN	520	0.0104117756709456	2	1	NaN	3378227.3570281	NaN	3378228.3403928	3378228.85695512
95	19	1	0	90	36.1581920903955	36.241610738255	25	0.83341859979555	2	2	3	NaN	1	4	0.0382915101775862	0	1	NaN	233	4	44	1	120	220	320	NaN	520	0.821317228022963	1	1	NaN	3378229.6904862	NaN	3378230.6739643	3378231.19051357
95	19	1	0	90	36.1581920903955	36.241610738255	0	0	1	12	3	NaN	2	3	0.0382915101775862	0	1	NaN	234	4	45	1	110	210	310	NaN	510	0.0104380240663886	2	1	NaN	3378232.824075	NaN	3378233.8075906	3378234.32414848
95	19	1	0	90	36.1581920903955	36.241610738255	19	0.633398135844618	2	9	5	NaN	2	5	0.0382915101775862	0	1	NaN	235	4	46	1	120	220	320	NaN	520	0.010394127573818	2	1	NaN	3378235.1577869	NaN	3378236.1411619	3378236.65771617
95	19	1	0	90	36.1581920903955	36.241610738255	24	0.800081855803728	2	11	5	NaN	2	5	0.0382915101775862	0	1	NaN	236	4	47	1	120	220	320	NaN	520	0.340438744053245	1	0	NaN	3378237.49132	NaN	3378238.4747192	3378238.99128386
95	19	1	0	90	36.1581920903955	36.241610738255	6	0.200020463950932	2	11	1	NaN	2	4	0.0382915101775862	0	1	NaN	237	4	48	1	120	220	320	NaN	520	0.0104096280410886	2	1	NaN	3378240.1415855	NaN	3378241.1249824	3378241.64154137
95	19	1	0	90	36.1581920903955	36.241610738255	21	0.700071623828262	2	2	3	NaN	1	4	0.0382915101775862	0	1	NaN	238	4	49	1	120	220	320	NaN	520	1.38101192750037	2	0	NaN	3378242.4751533	NaN	3378243.458544	3378243.97510187
95	19	1	0	90	36.1581920903955	36.241610738255	19	0.633398135844618	2	11	6	NaN	2	3	0.0382915101775862	0	1	NaN	239	4	50	1	120	220	320	NaN	520	0.312234827782959	2	1	NaN	3378246.1755968	NaN	3378247.1589128	3378247.67546217
95	19	1	0	90	36.1581920903955	36.241610738255	20	0.66673487983644	2	4	2	NaN	1	5	0.0382915101775862	0	1	NaN	240	4	51	1	120	220	320	NaN	520	0.310722675174475	2	0	NaN	3378248.8091002	NaN	3378249.7925085	3378250.30905812
95	19	1	0	90	36.1581920903955	36.241610738255	13	0.433377671893686	2	11	4	NaN	2	3	0.0382915101775862	0	1	NaN	241	4	52	1	120	220	320	NaN	520	0.0292573277838528	2	1	NaN	3378251.4426861	NaN	3378252.4260947	3378252.94264687
95	19	1	0	90	36.1581920903955	36.241610738255	10	0.33336743991822	2	1	4	NaN	1	5	0.0382915101775862	0	1	NaN	242	4	53	1	120	220	320	NaN	520	0.671651227399707	2	0	NaN	3378253.7762528	NaN	3378254.7596575	3378255.27621167
95	19	1	0	90	36.1581920903955	36.241610738255	20	0.66673487983644	2	2	5	NaN	1	3	0.0382915101775862	0	1	NaN	243	4	54	1	120	220	320	NaN	520	0.383805728051811	2	0	NaN	3378256.7598921	NaN	3378257.7432781	3378258.25983247
95	19	1	0	90	36.1581920903955	36.241610738255	17	0.566724647860974	2	5	5	NaN	1	4	0.0382915101775862	0	1	NaN	244	4	55	1	120	220	320	NaN	520	0.163767224177718	1	1	NaN	3378259.4601	NaN	3378260.4435371	3378260.96009078
95	19	1	0	90	36.1581920903955	36.241610738255	10	0.33336743991822	2	3	3	NaN	1	5	0.0382915101775862	0	1	NaN	245	4	56	1	120	220	320	NaN	520	0.456577627453953	2	0	NaN	3378261.9437185	NaN	3378262.9271198	3378263.44367107
95	19	1	0	90	36.1581920903955	36.241610738255	18	0.600061391852796	2	2	6	NaN	1	3	0.0382915101775862	0	1	NaN	246	4	57	1	120	220	320	NaN	520	0.433160423766822	2	0	NaN	3378264.7106646	NaN	3378265.6940714	3378266.21060308
95	19	1	0	90	36.1581920903955	36.241610738255	6	0.200020463950932	2	6	6	NaN	1	3	0.0382915101775862	0	1	NaN	247	4	58	1	120	220	320	NaN	520	1.40367632778361	2	0	NaN	3378267.444295	NaN	3378268.4276642	3378268.94421487
95	19	1	0	90	36.1581920903955	36.241610738255	24	0.800081855803728	2	5	4	NaN	1	4	0.0382915101775862	0	1	NaN	248	4	59	1	120	220	320	NaN	520	0.0102565963752568	1	1	NaN	3378271.161293	NaN	3378272.1446956	3378272.6612501
95	19	1	0	90	36.1581920903955	36.241610738255	20	0.66673487983644	2	5	2	NaN	1	4	0.0382915101775862	0	1	NaN	249	4	60	1	120	220	320	NaN	520	0.921005127951503	2	0	NaN	3378273.4948617	NaN	3378274.478263	3378274.99480087
95	19	1	0	90	36.1581920903955	36.241610738255	21	0.700071623828262	2	9	3	NaN	2	5	0.0382915101775862	0	1	NaN	250	4	61	1	120	220	320	NaN	520	0.215399323962629	1	0	NaN	3378276.7283807	NaN	3378277.7119312	3378278.22845438
95	19	1	0	90	36.1581920903955	36.241610738255	22	0.733408367820084	2	4	5	NaN	1	4	0.0382915101775862	0	1	NaN	251	4	62	1	120	220	320	NaN	520	0.337841427419335	2	0	NaN	3378279.2620988	NaN	3378280.2454929	3378280.76204317
95	19	1	0	90	36.1581920903955	36.241610738255	14	0.466714415885508	2	4	4	NaN	1	5	0.0382915101775862	0	1	NaN	252	4	63	1	120	220	320	NaN	520	0.687483175192028	2	0	NaN	3378281.9122172	NaN	3378282.8957466	3378283.41229082
95	19	1	0	90	36.1581920903955	36.241610738255	0	0	1	11	5	NaN	2	3	0.0382915101775862	0	1	NaN	253	5	1	1	110	210	310	NaN	510	1.15983549598604	2	1	NaN	3378303.2644381	NaN	3378304.247842	3378304.7644005
95	19	1	0	90	36.1581920903955	36.241610738255	16	0.533387903869152	2	4	5	NaN	1	5	0.0382915101775862	0	1	NaN	254	5	2	1	120	220	320	NaN	520	0.691943587735295	2	0	NaN	3378306.7480082	NaN	3378307.7315289	3378308.24806351
95	19	1	0	90	36.1581920903955	36.241610738255	25	0.83341859979555	2	6	1	NaN	1	5	0.0382915101775862	0	1	NaN	255	5	3	1	120	220	320	NaN	520	0.0104125756770372	1	1	NaN	3378309.7484253	NaN	3378310.7318064	3378311.24835302
95	19	1	0	90	36.1581920903955	36.241610738255	9	0.300030695926398	2	12	5	NaN	2	5	0.0382915101775862	0	1	NaN	256	5	4	1	120	220	320	NaN	520	0.301826875656843	1	0	NaN	3378312.0819676	NaN	3378313.0653672	3378313.58191612
95	19	1	0	90	36.1581920903955	36.241610738255	20	0.66673487983644	2	1	2	NaN	1	5	0.0382915101775862	0	1	NaN	257	5	5	1	120	220	320	NaN	520	0.010392127558589	1	1	NaN	3378314.6987656	NaN	3378315.6822936	3378316.19884037
95	19	1	0	90	36.1581920903955	36.241610738255	20	0.66673487983644	2	8	5	NaN	2	5	0.0382915101775862	0	1	NaN	258	5	6	1	120	220	320	NaN	520	0.232200227677822	2	1	NaN	3378317.0156561	NaN	3378317.9991956	3378318.51573437
95	19	1	0	90	36.1581920903955	36.241610738255	11	0.366704183910042	2	10	4	NaN	2	4	0.0382915101775862	0	1	NaN	259	5	7	1	120	220	320	NaN	520	0.0104115754365921	2	1	NaN	3378319.5660531	NaN	3378320.5494417	3378321.06598632
95	19	1	0	90	36.1581920903955	36.241610738255	17	0.566724647860974	2	7	3	NaN	2	5	0.0382915101775862	0	1	NaN	260	5	8	1	120	220	320	NaN	520	0.484347827732563	1	0	NaN	3378321.8996052	NaN	3378322.8829794	3378323.39955287
95	19	1	0	90	36.1581920903955	36.241610738255	8	0.266693951934576	2	9	2	NaN	2	3	0.0382915101775862	0	1	NaN	261	5	9	1	120	220	320	NaN	520	0.0760862752795219	2	1	NaN	3378324.6997666	NaN	3378325.6832802	3378326.19981982
95	19	1	0	90	36.1581920903955	36.241610738255	21	0.700071623828262	2	11	3	NaN	2	4	0.0382915101775862	0	1	NaN	262	5	10	1	120	220	320	NaN	520	0.300461680162698	2	1	NaN	3378327.0833372	NaN	3378328.0668385	3378328.58339772
95	19	1	0	90	36.1581920903955	36.241610738255	9	0.300030695926398	2	10	4	NaN	2	4	0.0382915101775862	0	1	NaN	263	5	11	1	120	220	320	NaN	520	0.363783427514136	2	1	NaN	3378329.7002402	NaN	3378330.6837651	3378331.20031967
95	19	1	0	90	36.1581920903955	36.241610738255	9	0.300030695926398	2	10	5	NaN	2	3	0.0382915101775862	0	1	NaN	264	5	12	1	120	220	320	NaN	520	0.191970727872103	1	0	NaN	3378332.3839533	NaN	3378333.3673621	3378333.88390947
95	19	1	0	90	36.1581920903955	36.241610738255	22	0.733408367820084	2	1	6	NaN	1	4	0.0382915101775862	0	1	NaN	265	5	13	1	120	220	320	NaN	520	1.09025067556649	1	1	NaN	3378334.9174201	NaN	3378335.9009428	3378336.41748932
95	19	1	0	90	36.1581920903955	36.241610738255	13	0.433377671893686	2	1	2	NaN	1	3	0.0382915101775862	0	1	NaN	266	5	14	1	120	220	320	NaN	520	0.0102973398752511	1	1	NaN	3378338.317922	NaN	3378339.3012743	3378339.81782376
95	19	1	0	90	36.1581920903955	36.241610738255	19	0.633398135844618	2	2	5	NaN	1	5	0.0382915101775862	0	1	NaN	267	5	15	1	120	220	320	NaN	520	0.221211227588356	2	0	NaN	3378340.6346481	NaN	3378341.6181872	3378342.13472147
95	19	1	0	90	36.1581920903955	36.241610738255	22	0.733408367820084	2	8	1	NaN	2	5	0.0382915101775862	0	1	NaN	268	5	16	1	120	220	320	NaN	520	0.496028928086162	2	1	NaN	3378343.1683583	NaN	3378344.1517354	3378344.66830157
95	19	1	0	90	36.1581920903955	36.241610738255	17	0.566724647860974	2	1	2	NaN	1	5	0.0382915101775862	0	1	NaN	269	5	17	1	120	220	320	NaN	520	0.439510727766901	2	0	NaN	3378345.9686283	NaN	3378346.9520329	3378347.46857997
95	19	1	0	90	36.1581920903955	36.241610738255	17	0.566724647860974	2	9	3	NaN	2	5	0.0382915101775862	0	1	NaN	270	5	18	1	120	220	320	NaN	520	0.15287233190611	2	1	NaN	3378348.735553	NaN	3378349.718967	3378350.23550897
95	19	1	0	90	36.1581920903955	36.241610738255	23	0.766745111811906	2	7	1	NaN	2	5	0.0382915101775862	0	1	NaN	271	5	19	1	120	220	320	NaN	520	0.165429175365716	1	0	NaN	3378351.2024584	NaN	3378352.1858806	3378352.70241582
95	19	1	0	90	36.1581920903955	36.241610738255	15	0.50005115987733	2	10	2	NaN	2	4	0.0382915101775862	0	1	NaN	272	5	20	1	120	220	320	NaN	520	0.361972100101411	2	1	NaN	3378353.6860529	NaN	3378354.6694477	3378355.1860228
95	19	1	0	90	36.1581920903955	36.241610738255	23	0.766745111811906	2	11	4	NaN	2	4	0.0382915101775862	0	1	NaN	273	5	21	1	120	220	320	NaN	520	0.215085775591433	2	1	NaN	3378356.3528421	NaN	3378357.3363714	3378357.85292052
95	19	1	0	90	36.1581920903955	36.241610738255	25	0.83341859979555	2	4	6	NaN	1	4	0.0382915101775862	0	1	NaN	274	5	22	1	120	220	320	NaN	520	0.330106227658689	2	0	NaN	3378358.8699097	NaN	3378359.8532889	3378360.36984577
95	19	1	0	90	36.1581920903955	36.241610738255	14	0.466714415885508	2	8	2	NaN	2	5	0.0382915101775862	0	1	NaN	275	5	23	1	120	220	320	NaN	520	0.296261627692729	2	1	NaN	3378361.5201367	NaN	3378362.5035322	3378363.02010547
95	19	1	0	90	36.1581920903955	36.241610738255	16	0.533387903869152	2	12	1	NaN	2	4	0.0382915101775862	0	1	NaN	276	5	24	1	120	220	320	NaN	520	0.0103945275768638	2	1	NaN	3378364.137089	NaN	3378365.1204703	3378365.63702437
95	19	1	0	90	36.1581920903955	36.241610738255	15	0.50005115987733	2	11	2	NaN	2	5	0.0382915101775862	0	1	NaN	277	5	25	1	120	220	320	NaN	520	0.249673227779567	1	0	NaN	3378366.4704622	NaN	3378367.4540348	3378367.97059047
95	19	1	0	90	36.1581920903955	36.241610738255	12	0.400040927901864	2	11	3	NaN	2	4	0.0382915101775862	0	1	NaN	278	5	26	1	120	220	320	NaN	520	0.266934427898377	2	1	NaN	3378369.0375785	NaN	3378370.0209198	3378370.53750127
95	19	1	0	90	36.1581920903955	36.241610738255	13	0.433377671893686	2	2	1	NaN	1	3	0.0382915101775862	0	1	NaN	279	5	27	1	120	220	320	NaN	520	0.0104131759144366	1	1	NaN	3378371.6211443	NaN	3378372.6045464	3378373.12108172
95	19	1	0	90	36.1581920903955	36.241610738255	14	0.466714415885508	2	10	6	NaN	2	3	0.0382915101775862	0	1	NaN	280	5	28	1	120	220	320	NaN	520	0.0102552957832813	1	0	NaN	3378373.954718	NaN	3378374.9381205	3378375.4546632
95	19	1	0	90	36.1581920903955	36.241610738255	19	0.633398135844618	2	1	3	NaN	1	3	0.0382915101775862	0	1	NaN	281	5	29	1	120	220	320	NaN	520	0.0104100755415857	2	0	NaN	3378376.2715912	NaN	3378377.25501	3378377.77153952
95	19	1	0	90	36.1581920903955	36.241610738255	21	0.700071623828262	2	7	1	NaN	2	3	0.0382915101775862	0	1	NaN	282	5	30	1	120	220	320	NaN	520	0.203667227644473	1	0	NaN	3378378.5883681	NaN	3378379.5718869	3378380.08843857
95	19	1	0	90	36.1581920903955	36.241610738255	15	0.50005115987733	2	2	5	NaN	1	3	0.0382915101775862	0	1	NaN	283	5	31	1	120	220	320	NaN	520	0.0104211755096912	1	1	NaN	3378381.1054527	NaN	3378382.0888031	3378382.60534832
95	19	1	0	90	36.1581920903955	36.241610738255	8	0.266693951934576	2	6	3	NaN	1	4	0.0382915101775862	0	1	NaN	284	5	32	1	120	220	320	NaN	520	0.185637027956545	1	1	NaN	3378383.4223117	NaN	3378384.4056797	3378384.92224547
95	19	1	0	90	36.1581920903955	36.241610738255	21	0.700071623828262	2	6	5	NaN	1	5	0.0382915101775862	0	1	NaN	285	5	33	1	120	220	320	NaN	520	0.0103966277092695	1	1	NaN	3378386.1891132	NaN	3378387.1726712	3378387.68918647
95	19	1	0	90	36.1581920903955	36.241610738255	18	0.600061391852796	2	2	2	NaN	1	4	0.0382915101775862	0	1	NaN	286	5	34	1	120	220	320	NaN	520	0.0104257236234844	1	1	NaN	3378388.5061373	NaN	3378389.4895268	3378390.00607108
95	19	1	0	90	36.1581920903955	36.241610738255	19	0.633398135844618	2	7	4	NaN	2	3	0.0382915101775862	0	1	NaN	287	5	35	1	120	220	320	NaN	520	2.34439327567816	2	1	NaN	3378390.8396962	NaN	3378391.8230815	3378392.33963892
95	19	1	0	90	36.1581920903955	36.241610738255	11	0.366704183910042	2	7	5	NaN	2	4	0.0382915101775862	0	1	NaN	288	5	36	1	120	220	320	NaN	520	0.0104031753726304	2	1	NaN	3378395.6900998	NaN	3378396.673565	3378397.19011472
95	19	1	0	90	36.1581920903955	36.241610738255	12	0.400040927901864	2	10	3	NaN	2	5	0.0382915101775862	0	1	NaN	289	5	37	1	120	220	320	NaN	520	5.84941282402724	1	0	NaN	3378398.0069323	NaN	3378398.9904603	3378399.50700118
95	19	1	0	90	36.1581920903955	36.241610738255	14	0.466714415885508	2	7	6	NaN	2	4	0.0382915101775862	0	1	NaN	290	5	38	1	120	220	320	NaN	520	0.369754327926785	2	1	NaN	3378406.1745381	NaN	3378407.1579332	3378407.67447557
95	19	1	0	90	36.1581920903955	36.241610738255	9	0.300030695926398	2	11	6	NaN	2	4	0.0382915101775862	0	1	NaN	291	5	39	1	120	220	320	NaN	520	0.341970975510776	1	0	NaN	3378408.8581128	NaN	3378409.8415287	3378410.35807892
95	19	1	0	90	36.1581920903955	36.241610738255	9	0.300030695926398	2	1	6	NaN	1	3	0.0382915101775862	0	1	NaN	292	5	40	1	120	220	320	NaN	520	0.811543727759272	1	1	NaN	3378411.5084473	NaN	3378412.4917697	3378413.00833167
95	19	1	0	90	36.1581920903955	36.241610738255	6	0.200020463950932	2	7	5	NaN	2	5	0.0382915101775862	0	1	NaN	293	5	41	1	120	220	320	NaN	520	0.52621257584542	2	1	NaN	3378414.6419195	NaN	3378415.6254598	3378416.14196712
95	19	1	0	90	36.1581920903955	36.241610738255	13	0.433377671893686	2	3	5	NaN	1	3	0.0382915101775862	0	1	NaN	294	5	42	1	120	220	320	NaN	520	0.348872775677592	1	1	NaN	3378417.4756287	NaN	3378418.4590316	3378418.97558032
95	19	1	0	90	36.1581920903955	36.241610738255	14	0.466714415885508	2	1	3	NaN	1	5	0.0382915101775862	0	1	NaN	295	5	43	1	120	220	320	NaN	520	0.529376627877355	1	1	NaN	3378420.1425699	NaN	3378421.1260025	3378421.64251597
95	19	1	0	90	36.1581920903955	36.241610738255	25	0.83341859979555	2	9	3	NaN	2	3	0.0382915101775862	0	1	NaN	296	5	44	1	120	220	320	NaN	520	0.0103972279466689	1	0	NaN	3378422.9927003	NaN	3378423.9762476	3378424.49279157
95	19	1	0	90	36.1581920903955	36.241610738255	20	0.66673487983644	2	11	5	NaN	2	4	0.0382915101775862	0	1	NaN	297	5	45	1	120	220	320	NaN	520	0.194639627821743	1	0	NaN	3378425.3096973	NaN	3378426.293143	3378426.80968847
95	19	1	0	90	36.1581920903955	36.241610738255	0	0	1	6	4	NaN	1	5	0.0382915101775862	0	1	NaN	298	5	46	1	110	210	310	NaN	510	0.229486027732491	2	0	NaN	3378427.8266912	NaN	3378428.8100405	3378429.32660197
95	19	1	0	90	36.1581920903955	36.241610738255	7	0.233357207942754	2	6	5	NaN	1	4	0.0382915101775862	0	1	NaN	299	5	47	1	120	220	320	NaN	520	0.383256623987108	2	0	NaN	3378430.3768876	NaN	3378431.3602929	3378431.87684368
95	19	1	0	90	36.1581920903955	36.241610738255	21	0.700071623828262	2	10	4	NaN	2	5	0.0382915101775862	0	1	NaN	300	5	48	1	120	220	320	NaN	520	0.234786527696997	2	1	NaN	3378433.0771636	NaN	3378434.0605657	3378434.57711537
95	19	1	0	90	36.1581920903955	36.241610738255	14	0.466714415885508	2	12	4	NaN	2	5	0.0382915101775862	0	1	NaN	301	5	49	1	120	220	320	NaN	520	0.877062328159809	1	0	NaN	3378435.6273992	NaN	3378436.6108506	3378437.12736927
95	19	1	0	90	36.1581920903955	36.241610738255	18	0.600061391852796	2	9	6	NaN	2	4	0.0382915101775862	0	1	NaN	302	5	50	1	120	220	320	NaN	520	0.669033527839929	1	0	NaN	3378438.811058	NaN	3378439.7944525	3378440.31100857
95	19	1	0	90	36.1581920903955	36.241610738255	6	0.200020463950932	2	4	4	NaN	1	5	0.0382915101775862	0	1	NaN	303	5	51	1	120	220	320	NaN	520	0.0103929275646806	1	1	NaN	3378441.7946941	NaN	3378442.7780882	3378443.29463937
95	19	1	0	90	36.1581920903955	36.241610738255	0	0	1	1	6	NaN	1	4	0.0382915101775862	0	1	NaN	304	5	52	1	110	210	310	NaN	510	0.176526627503335	2	0	NaN	3378444.1114693	NaN	3378445.0949814	3378445.61153387
95	19	1	0	90	36.1581920903955	36.241610738255	19	0.633398135844618	2	6	1	NaN	1	3	0.0382915101775862	0	1	NaN	305	5	53	1	120	220	320	NaN	520	0.24413772765547	1	1	NaN	3378446.6118183	NaN	3378447.5952224	3378448.11179267
95	19	1	0	90	36.1581920903955	36.241610738255	8	0.266693951934576	2	4	1	NaN	1	5	0.0382915101775862	0	1	NaN	306	5	54	1	120	220	320	NaN	520	0.453700275626034	1	1	NaN	3378449.1787458	NaN	3378450.1621423	3378450.67868792
95	19	1	0	90	36.1581920903955	36.241610738255	16	0.533387903869152	2	3	6	NaN	1	4	0.0382915101775862	0	1	NaN	307	5	55	1	120	220	320	NaN	520	0.422548427712172	2	0	NaN	3378451.9456734	NaN	3378452.9290792	3378453.44563587
95	19	1	0	90	36.1581920903955	36.241610738255	21	0.700071623828262	2	2	6	NaN	1	5	0.0382915101775862	0	1	NaN	308	5	56	1	120	220	320	NaN	520	0.328958023805171	1	1	NaN	3378454.6792977	NaN	3378455.6626791	3378456.17922308
95	19	1	0	90	36.1581920903955	36.241610738255	12	0.400040927901864	2	7	3	NaN	2	3	0.0382915101775862	0	1	NaN	309	5	57	1	120	220	320	NaN	520	0.382518723607063	2	1	NaN	3378457.3295383	NaN	3378458.3129747	3378458.82948408
95	19	1	0	90	36.1581920903955	36.241610738255	24	0.800081855803728	2	12	6	NaN	2	5	0.0382915101775862	0	1	NaN	310	5	58	1	120	220	320	NaN	520	0.338253523688763	1	0	NaN	3378460.0298201	NaN	3378461.0131893	3378461.52974738
95	19	1	0	90	36.1581920903955	36.241610738255	12	0.400040927901864	2	4	5	NaN	1	3	0.0382915101775862	0	1	NaN	311	5	59	1	120	220	320	NaN	520	0.168123127892613	2	0	NaN	3378462.6800533	NaN	3378463.6634809	3378464.18001217
95	19	1	0	90	36.1581920903955	36.241610738255	17	0.566724647860974	2	2	1	NaN	1	5	0.0382915101775862	0	1	NaN	312	5	60	1	120	220	320	NaN	520	0.260474527720362	1	1	NaN	3378465.1636408	NaN	3378466.1470423	3378466.66359097
95	19	1	0	90	36.1581920903955	36.241610738255	12	0.400040927901864	2	5	6	NaN	1	4	0.0382915101775862	0	1	NaN	313	5	61	1	120	220	320	NaN	520	0.0855271755717695	1	1	NaN	3378467.7305464	NaN	3378468.7139605	3378469.23050662
95	19	1	0	90	36.1581920903955	36.241610738255	22	0.733408367820084	2	12	3	NaN	2	5	0.0382915101775862	0	1	NaN	314	5	62	1	120	220	320	NaN	520	0.261788127943873	1	0	NaN	3378470.1307978	NaN	3378471.114203	3378471.63074337
95	19	1	0	90	36.1581920903955	36.241610738255	24	0.800081855803728	2	8	6	NaN	2	3	0.0382915101775862	0	1	NaN	315	5	63	1	120	220	320	NaN	520	0.478393175639212	2	1	NaN	3378472.6977458	NaN	3378473.6810991	3378474.19765782
95	19	1	0	90	36.1581920903955	36.241610738255	6	0.200020463950932	2	8	6	NaN	2	3	0.0382915101775862	0	1	NaN	316	6	1	1	120	220	320	NaN	520	0.916562224272639	1	0	NaN	3378619.612104	NaN	3378620.5955037	3378621.11205318
95	19	1	0	90	36.1581920903955	36.241610738255	23	0.766745111811906	2	1	2	NaN	1	5	0.0382915101775862	0	1	NaN	317	6	2	1	120	220	320	NaN	520	0.394530972000211	1	1	NaN	3378622.8457653	NaN	3378623.8291569	3378624.34571383
95	19	1	0	90	36.1581920903955	36.241610738255	20	0.66673487983644	2	6	2	NaN	1	5	0.0382915101775862	0	1	NaN	318	6	3	1	120	220	320	NaN	520	0.326411495916545	2	0	NaN	3378625.5459886	NaN	3378626.5294252	3378627.045979
95	19	1	0	90	36.1581920903955	36.241610738255	21	0.700071623828262	2	4	4	NaN	1	5	0.0382915101775862	0	1	NaN	319	6	4	1	120	220	320	NaN	520	0.32457362767309	2	0	NaN	3378628.1796392	NaN	3378629.1630212	3378629.67956577
95	19	1	0	90	36.1581920903955	36.241610738255	19	0.633398135844618	2	4	1	NaN	1	3	0.0382915101775862	0	1	NaN	320	6	5	1	120	220	320	NaN	520	0.403084775432944	2	0	NaN	3378630.8131838	NaN	3378631.7966114	3378632.31315242
95	19	1	0	90	36.1581920903955	36.241610738255	19	0.633398135844618	2	2	2	NaN	1	4	0.0382915101775862	0	1	NaN	321	6	6	1	120	220	320	NaN	520	0.206167327705771	1	1	NaN	3378633.5301223	NaN	3378634.5135375	3378635.03008587
95	19	1	0	90	36.1581920903955	36.241610738255	13	0.433377671893686	2	12	2	NaN	2	4	0.0382915101775862	0	1	NaN	322	6	7	1	120	220	320	NaN	520	0.121187327895314	1	0	NaN	3378636.0470442	NaN	3378637.0305191	3378637.54701017
95	19	1	0	90	36.1581920903955	36.241610738255	23	0.766745111811906	2	1	5	NaN	1	4	0.0382915101775862	0	1	NaN	323	6	8	1	120	220	320	NaN	520	0.655775627586991	1	1	NaN	3378638.4806183	NaN	3378639.4640226	3378639.98057287
95	19	1	0	90	36.1581920903955	36.241610738255	13	0.433377671893686	2	11	4	NaN	2	4	0.0382915101775862	0	1	NaN	324	6	9	1	120	220	320	NaN	520	0.304647527635098	2	1	NaN	3378641.4475732	NaN	3378642.4309777	3378642.94753417
95	19	1	0	90	36.1581920903955	36.241610738255	11	0.366704183910042	2	6	6	NaN	1	5	0.0382915101775862	0	1	NaN	325	6	10	1	120	220	320	NaN	520	0.175994227640331	2	0	NaN	3378644.0645151	NaN	3378645.0479514	3378645.56445857
95	19	1	0	90	36.1581920903955	36.241610738255	22	0.733408367820084	2	2	6	NaN	1	5	0.0382915101775862	0	1	NaN	326	6	11	1	120	220	320	NaN	520	0.307529875542969	2	0	NaN	3378646.564742	NaN	3378647.54816	3378648.06469302
95	19	1	0	90	36.1581920903955	36.241610738255	8	0.266693951934576	2	1	2	NaN	1	3	0.0382915101775862	0	1	NaN	327	6	12	1	120	220	320	NaN	520	0.346698223613203	2	0	NaN	3378649.1816743	NaN	3378650.165063	3378650.68164038
95	19	1	0	90	36.1581920903955	36.241610738255	6	0.200020463950932	2	6	5	NaN	1	4	0.0382915101775862	0	1	NaN	328	6	13	1	120	220	320	NaN	520	0.047971123829484	2	0	NaN	3378651.8484692	NaN	3378652.8320046	3378653.34855048
95	19	1	0	90	36.1581920903955	36.241610738255	14	0.466714415885508	2	3	5	NaN	1	5	0.0382915101775862	0	1	NaN	329	6	14	1	120	220	320	NaN	520	0.137308727949858	1	1	NaN	3378654.2154961	NaN	3378655.1988775	3378655.71544577
95	19	1	0	90	36.1581920903955	36.241610738255	7	0.233357207942754	2	11	1	NaN	2	5	0.0382915101775862	0	1	NaN	330	6	15	1	120	220	320	NaN	520	0.150704675819725	2	1	NaN	3378656.665729	NaN	3378657.649133	3378658.16569362
95	19	1	0	90	36.1581920903955	36.241610738255	11	0.366704183910042	2	12	5	NaN	2	3	0.0382915101775862	0	1	NaN	331	6	16	1	120	220	320	NaN	520	0.291685375850648	1	0	NaN	3378659.1326497	NaN	3378660.1160272	3378660.63260272
95	19	1	0	90	36.1581920903955	36.241610738255	10	0.33336743991822	2	7	6	NaN	2	5	0.0382915101775862	0	1	NaN	332	6	17	1	120	220	320	NaN	520	0.259918627794832	2	1	NaN	3378661.7328963	NaN	3378662.7163705	3378663.23285657
95	19	1	0	90	36.1581920903955	36.241610738255	21	0.700071623828262	2	3	5	NaN	1	3	0.0382915101775862	0	1	NaN	333	6	18	1	120	220	320	NaN	520	0.252523027826101	1	1	NaN	3378664.2998086	NaN	3378665.283255	3378665.79976657
95	19	1	0	90	36.1581920903955	36.241610738255	23	0.766745111811906	2	3	5	NaN	1	4	0.0382915101775862	0	1	NaN	334	6	19	1	120	220	320	NaN	520	0.166118524037302	1	1	NaN	3378666.8667374	NaN	3378667.8501394	3378668.36668268
95	19	1	0	90	36.1581920903955	36.241610738255	10	0.33336743991822	2	12	5	NaN	2	3	0.0382915101775862	0	1	NaN	335	6	20	1	120	220	320	NaN	520	0.194304627832025	1	0	NaN	3378669.35022	NaN	3378670.3337112	3378670.85026007
95	19	1	0	90	36.1581920903955	36.241610738255	10	0.33336743991822	2	5	1	NaN	1	4	0.0382915101775862	0	1	NaN	336	6	21	1	120	220	320	NaN	520	0.349802928045392	1	1	NaN	3378671.850562	NaN	3378672.833957	3378673.35050547
95	19	1	0	90	36.1581920903955	36.241610738255	11	0.366704183910042	2	9	4	NaN	2	5	0.0382915101775862	0	1	NaN	337	6	22	1	120	220	320	NaN	520	0.419385235756636	1	0	NaN	3378674.5175032	NaN	3378675.5009112	3378676.01744376
95	19	1	0	90	36.1581920903955	36.241610738255	20	0.66673487983644	2	6	3	NaN	1	4	0.0382915101775862	0	1	NaN	338	6	23	1	120	220	320	NaN	520	0.237649375572801	1	1	NaN	3378677.2510877	NaN	3378678.2345036	3378678.75103772
95	19	1	0	90	36.1581920903955	36.241610738255	25	0.83341859979555	2	12	6	NaN	2	3	0.0382915101775862	0	1	NaN	339	6	24	1	120	220	320	NaN	520	0.255103527568281	1	0	NaN	3378679.8013537	NaN	3378680.7847351	3378681.30130497
95	19	1	0	90	36.1581920903955	36.241610738255	11	0.366704183910042	2	10	4	NaN	2	3	0.0382915101775862	0	1	NaN	340	6	25	1	120	220	320	NaN	520	0.0242655277252197	2	1	NaN	3378682.3682505	NaN	3378683.3516603	3378683.86821337
95	19	1	0	90	36.1581920903955	36.241610738255	6	0.200020463950932	2	9	5	NaN	2	3	0.0382915101775862	0	1	NaN	341	6	26	1	120	220	320	NaN	520	0.874984432011843	1	0	NaN	3378684.7016885	NaN	3378685.6852199	3378686.20177827
95	19	1	0	90	36.1581920903955	36.241610738255	21	0.700071623828262	2	7	5	NaN	2	4	0.0382915101775862	0	1	NaN	342	6	27	1	120	220	320	NaN	520	0.307479475624859	2	1	NaN	3378687.8853387	NaN	3378688.8688668	3378689.38541432
95	19	1	0	90	36.1581920903955	36.241610738255	22	0.733408367820084	2	8	3	NaN	2	3	0.0382915101775862	0	1	NaN	343	6	28	1	120	220	320	NaN	520	0.314356627408415	1	0	NaN	3378690.5023859	NaN	3378691.4857991	3378692.00234217
95	19	1	0	90	36.1581920903955	36.241610738255	0	0	1	3	6	NaN	1	3	0.0382915101775862	0	1	NaN	344	6	29	1	110	210	310	NaN	510	0.384527367539704	2	0	NaN	3378693.13599	NaN	3378694.1193925	3378694.63592233
95	19	1	0	90	36.1581920903955	36.241610738255	12	0.400040927901864	2	5	3	NaN	1	5	0.0382915101775862	0	1	NaN	345	6	30	1	120	220	320	NaN	520	0.010410828050226	1	1	NaN	3378695.8362465	NaN	3378696.819647	3378697.33619787
95	19	1	0	90	36.1581920903955	36.241610738255	17	0.566724647860974	2	3	1	NaN	1	3	0.0382915101775862	0	1	NaN	346	6	31	1	120	220	320	NaN	520	0.254675975535065	2	0	NaN	3378698.1696653	NaN	3378699.1532435	3378699.66975302
95	19	1	0	90	36.1581920903955	36.241610738255	23	0.766745111811906	2	10	5	NaN	2	3	0.0382915101775862	0	1	NaN	347	6	32	1	120	220	320	NaN	520	0.271826227661222	1	0	NaN	3378700.7367222	NaN	3378701.7201279	3378702.23668057
95	19	1	0	90	36.1581920903955	36.241610738255	15	0.50005115987733	2	8	1	NaN	2	4	0.0382915101775862	0	1	NaN	348	6	33	1	120	220	320	NaN	520	0.42408657586202	2	1	NaN	3378703.3202346	NaN	3378704.3037146	3378704.82026692
95	19	1	0	90	36.1581920903955	36.241610738255	8	0.266693951934576	2	5	1	NaN	1	3	0.0382915101775862	0	1	NaN	349	6	34	1	120	220	320	NaN	520	0.266713383607566	1	1	NaN	3378706.0539529	NaN	3378707.037316	3378707.55385962
95	19	1	0	90	36.1581920903955	36.241610738255	24	0.800081855803728	2	10	1	NaN	2	5	0.0382915101775862	0	1	NaN	350	6	35	1	120	220	320	NaN	520	0.33898772392422	2	1	NaN	3378708.6374811	NaN	3378709.6209157	3378710.13744528
95	19	1	0	90	36.1581920903955	36.241610738255	15	0.50005115987733	2	2	4	NaN	1	3	0.0382915101775862	0	1	NaN	351	6	36	1	120	220	320	NaN	520	0.313081627711654	2	0	NaN	3378711.2877642	NaN	3378712.2711672	3378712.78771327
95	19	1	0	90	36.1581920903955	36.241610738255	17	0.566724647860974	2	11	5	NaN	2	5	0.0382915101775862	0	1	NaN	352	6	37	1	120	220	320	NaN	520	0.799259727355093	2	1	NaN	3378713.9213389	NaN	3378714.9047547	3378715.42130667
95	19	1	0	90	36.1581920903955	36.241610738255	10	0.33336743991822	2	8	2	NaN	2	4	0.0382915101775862	0	1	NaN	353	6	38	1	120	220	320	NaN	520	0.234152627643198	2	1	NaN	3378717.0383378	NaN	3378718.0217145	3378718.53827537
95	19	1	0	90	36.1581920903955	36.241610738255	10	0.33336743991822	2	9	5	NaN	2	3	0.0382915101775862	0	1	NaN	354	6	39	1	120	220	320	NaN	520	0.203827027697116	2	1	NaN	3378719.5885663	NaN	3378720.5719536	3378721.08852667
95	19	1	0	90	36.1581920903955	36.241610738255	16	0.533387903869152	2	11	2	NaN	2	4	0.0382915101775862	0	1	NaN	355	6	40	1	120	220	320	NaN	520	0.295199627522379	2	1	NaN	3378722.1054935	NaN	3378723.088871	3378723.60543497
95	19	1	0	90	36.1581920903955	36.241610738255	19	0.633398135844618	2	12	6	NaN	2	3	0.0382915101775862	0	1	NaN	356	6	41	1	120	220	320	NaN	520	0.333911827299744	2	1	NaN	3378724.7224113	NaN	3378725.7058082	3378726.22236707
95	19	1	0	90	36.1581920903955	36.241610738255	15	0.50005115987733	2	7	4	NaN	2	3	0.0382915101775862	0	1	NaN	357	6	42	1	120	220	320	NaN	520	0.0103913275524974	1	0	NaN	3378727.3726034	NaN	3378728.3560959	3378728.87262367
95	19	1	0	90	36.1581920903955	36.241610738255	12	0.400040927901864	2	2	5	NaN	1	5	0.0382915101775862	0	1	NaN	358	6	43	1	120	220	320	NaN	520	0.110964727587998	1	1	NaN	3378729.6894334	NaN	3378730.6729446	3378731.18951577
95	19	1	0	90	36.1581920903955	36.241610738255	14	0.466714415885508	2	9	6	NaN	2	3	0.0382915101775862	0	1	NaN	359	6	44	1	120	220	320	NaN	520	0.0103954277001321	1	0	NaN	3378732.1064654	NaN	3378733.089867	3378733.60641387
95	19	1	0	90	36.1581920903955	36.241610738255	9	0.300030695926398	2	12	1	NaN	2	4	0.0382915101775862	0	1	NaN	360	6	45	1	120	220	320	NaN	520	0.249450175557286	2	1	NaN	3378734.4233563	NaN	3378735.4067873	3378735.92330392
95	19	1	0	90	36.1581920903955	36.241610738255	18	0.600061391852796	2	10	2	NaN	2	4	0.0382915101775862	0	1	NaN	361	6	46	1	120	220	320	NaN	520	0.0901866280473769	2	1	NaN	3378736.9903251	NaN	3378737.9736963	3378738.49023467
95	19	1	0	90	36.1581920903955	36.241610738255	20	0.66673487983644	2	9	1	NaN	2	4	0.0382915101775862	0	1	NaN	362	6	47	1	120	220	320	NaN	520	0.09799963561818	2	1	NaN	3378739.3905082	NaN	3378740.373908	3378740.89047126
95	19	1	0	90	36.1581920903955	36.241610738255	10	0.33336743991822	2	8	4	NaN	2	5	0.0382915101775862	0	1	NaN	363	6	48	1	120	220	320	NaN	520	0.24118682788685	2	1	NaN	3378741.8074316	NaN	3378742.7908021	3378743.30736407
95	19	1	0	90	36.1581920903955	36.241610738255	15	0.50005115987733	2	3	4	NaN	1	3	0.0382915101775862	0	1	NaN	364	6	49	1	120	220	320	NaN	520	0.0104054757393897	2	0	NaN	3378744.3576143	NaN	3378745.3410587	3378745.85761542
95	19	1	0	90	36.1581920903955	36.241610738255	7	0.233357207942754	2	2	1	NaN	1	4	0.0382915101775862	0	1	NaN	365	6	50	1	120	220	320	NaN	520	1.38228312786669	2	0	NaN	3378746.6744311	NaN	3378747.6579412	3378748.17450987
95	19	1	0	90	36.1581920903955	36.241610738255	25	0.83341859979555	2	3	1	NaN	1	3	0.0382915101775862	0	1	NaN	366	6	51	1	120	220	320	NaN	520	0.217500027734786	2	0	NaN	3378750.3749186	NaN	3378751.3583276	3378751.87487817
95	19	1	0	90	36.1581920903955	36.241610738255	14	0.466714415885508	2	12	4	NaN	2	3	0.0382915101775862	0	1	NaN	367	6	52	1	120	220	320	NaN	520	0.276064224075526	1	0	NaN	3378752.9085066	NaN	3378753.8919083	3378754.40845368
95	19	1	0	90	36.1581920903955	36.241610738255	15	0.50005115987733	2	6	5	NaN	1	5	0.0382915101775862	0	1	NaN	368	6	53	1	120	220	320	NaN	520	0.276948524173349	1	1	NaN	3378755.4919663	NaN	3378756.4754846	3378756.99203428
95	19	1	0	90	36.1581920903955	36.241610738255	8	0.266693951934576	2	8	4	NaN	2	3	0.0382915101775862	0	1	NaN	369	6	54	1	120	220	320	NaN	520	0.276935627683997	2	1	NaN	3378758.0755458	NaN	3378759.0591238	3378759.57563387
95	19	1	0	90	36.1581920903955	36.241610738255	23	0.766745111811906	2	9	1	NaN	2	4	0.0382915101775862	0	1	NaN	370	6	55	1	120	220	320	NaN	520	0.10930157545954	2	1	NaN	3378760.6593104	NaN	3378761.6426699	3378762.15920962
95	19	1	0	90	36.1581920903955	36.241610738255	12	0.400040927901864	2	9	2	NaN	2	3	0.0382915101775862	0	1	NaN	371	6	56	1	120	220	320	NaN	520	0.316273727454245	2	1	NaN	3378763.0761908	NaN	3378764.0595471	3378764.57612397
95	19	1	0	90	36.1581920903955	36.241610738255	13	0.433377671893686	2	8	1	NaN	2	4	0.0382915101775862	0	1	NaN	372	6	57	1	120	220	320	NaN	520	0.0104442713782191	2	1	NaN	3378765.7097336	NaN	3378766.6931698	3378767.20970163
95	19	1	0	90	36.1581920903955	36.241610738255	11	0.366704183910042	2	7	1	NaN	2	3	0.0382915101775862	0	1	NaN	373	6	58	1	120	220	320	NaN	520	0.0104078277945518	2	1	NaN	3378768.0266539	NaN	3378769.0100515	3378769.52660067
95	19	1	0	90	36.1581920903955	36.241610738255	23	0.766745111811906	2	7	4	NaN	2	5	0.0382915101775862	0	1	NaN	374	6	59	1	120	220	320	NaN	520	0.712934527546167	2	1	NaN	3378770.3436498	NaN	3378771.3268833	3378771.84350027
95	19	1	0	90	36.1581920903955	36.241610738255	24	0.800081855803728	2	1	4	NaN	1	4	0.0382915101775862	0	1	NaN	375	6	60	1	120	220	320	NaN	520	0.199326075613499	1	1	NaN	3378773.3772015	NaN	3378774.3605663	3378774.87713472
95	19	1	0	90	36.1581920903955	36.241610738255	16	0.533387903869152	2	7	6	NaN	2	4	0.0382915101775862	0	1	NaN	376	6	61	1	120	220	320	NaN	520	0.251514127943665	1	0	NaN	3378775.8774381	NaN	3378776.8608203	3378777.37738097
95	19	1	0	90	36.1581920903955	36.241610738255	13	0.433377671893686	2	9	5	NaN	2	3	0.0382915101775862	0	1	NaN	377	6	62	1	120	220	320	NaN	520	0.316545328125358	2	1	NaN	3378778.4443514	NaN	3378779.4277339	3378779.94429237
95	19	1	0	90	36.1581920903955	36.241610738255	25	0.83341859979555	2	6	2	NaN	1	5	0.0382915101775862	0	1	NaN	378	6	63	1	120	220	320	NaN	520	0.0102554960176349	1	1	NaN	3378781.0779526	NaN	3378782.0613761	3378782.5778939
95	19	1	0	90	36.1581920903955	36.241610738255	7	0.233357207942754	2	3	2	NaN	1	3	0.0382915101775862	0	1	NaN	379	7	1	1	120	220	320	NaN	520	0.129095027688891	1	1	NaN	3378790.4955221	NaN	3378791.4789213	3378791.99547297
95	19	1	0	90	36.1581920903955	36.241610738255	24	0.800081855803728	2	3	6	NaN	1	3	0.0382915101775862	0	1	NaN	380	7	2	1	120	220	320	NaN	520	0.199695175513625	1	1	NaN	3378792.9291307	NaN	3378793.9124999	3378794.42904722
95	19	1	0	90	36.1581920903955	36.241610738255	7	0.233357207942754	2	1	3	NaN	1	5	0.0382915101775862	0	1	NaN	381	7	3	1	120	220	320	NaN	520	0.2026222278364	1	1	NaN	3378795.4460121	NaN	3378796.4294089	3378796.94595877
95	19	1	0	90	36.1581920903955	36.241610738255	7	0.233357207942754	2	11	6	NaN	2	4	0.0382915101775862	0	1	NaN	382	7	4	1	120	220	320	NaN	520	1.36574237560853	2	1	NaN	3378797.9629166	NaN	3378798.9463241	3378799.46286782
95	19	1	0	90	36.1581920903955	36.241610738255	15	0.50005115987733	2	9	3	NaN	2	4	0.0382915101775862	0	1	NaN	383	7	5	1	120	220	320	NaN	520	0.22620507562533	1	0	NaN	3378801.6466177	NaN	3378802.6300149	3378803.14655922
95	19	1	0	90	36.1581920903955	36.241610738255	13	0.433377671893686	2	10	1	NaN	2	3	0.0382915101775862	0	1	NaN	384	7	6	1	120	220	320	NaN	520	0.236719127744436	2	1	NaN	3378804.1802127	NaN	3378805.1636075	3378805.68014597
95	19	1	0	90	36.1581920903955	36.241610738255	11	0.366704183910042	2	1	6	NaN	1	5	0.0382915101775862	0	1	NaN	385	7	7	1	120	220	320	NaN	520	0.262043127790093	1	1	NaN	3378806.7304415	NaN	3378807.7138493	3378808.23040207
95	19	1	0	90	36.1581920903955	36.241610738255	22	0.733408367820084	2	3	2	NaN	1	5	0.0382915101775862	0	1	NaN	386	7	8	1	120	220	320	NaN	520	0.126572027802467	1	1	NaN	3378809.3140332	NaN	3378810.29743	3378810.81398557
95	19	1	0	90	36.1581920903955	36.241610738255	6	0.200020463950932	2	5	3	NaN	1	5	0.0382915101775862	0	1	NaN	387	7	9	1	120	220	320	NaN	520	0.0207850276492536	1	1	NaN	3378811.7474898	NaN	3378812.7309989	3378813.24755667
95	19	1	0	90	36.1581920903955	36.241610738255	7	0.233357207942754	2	10	6	NaN	2	3	0.0382915101775862	0	1	NaN	388	7	10	1	120	220	320	NaN	520	0.151491627562791	2	1	NaN	3378814.0811024	NaN	3378815.0645915	3378815.58112047
95	19	1	0	90	36.1581920903955	36.241610738255	17	0.566724647860974	2	11	6	NaN	2	3	0.0382915101775862	0	1	NaN	389	7	11	1	120	220	320	NaN	520	1.34902253933251	2	1	NaN	3378816.5480571	NaN	3378817.5315182	3378818.04802626
95	19	1	0	90	36.1581920903955	36.241610738255	10	0.33336743991822	2	7	2	NaN	2	5	0.0382915101775862	0	1	NaN	390	7	12	1	120	220	320	NaN	520	0.21019772766158	1	0	NaN	3378820.198408	NaN	3378821.1818393	3378821.69838947
95	19	1	0	90	36.1581920903955	36.241610738255	24	0.800081855803728	2	3	4	NaN	1	5	0.0382915101775862	0	1	NaN	391	7	13	1	120	220	320	NaN	520	0.0685706273652613	2	0	NaN	3378822.9320112	NaN	3378823.9154543	3378824.43198717
95	19	1	0	90	36.1581920903955	36.241610738255	18	0.600061391852796	2	11	3	NaN	2	3	0.0382915101775862	0	1	NaN	392	7	14	1	120	220	320	NaN	520	1.41299952752888	2	1	NaN	3378825.3156166	NaN	3378826.2990031	3378826.81555117
95	19	1	0	90	36.1581920903955	36.241610738255	18	0.600061391852796	2	11	3	NaN	2	4	0.0382915101775862	0	1	NaN	393	7	15	1	120	220	320	NaN	520	0.0103937280364335	2	1	NaN	3378829.049313	NaN	3378830.0326991	3378830.54925707
95	19	1	0	90	36.1581920903955	36.241610738255	16	0.533387903869152	2	9	6	NaN	2	4	0.0382915101775862	0	1	NaN	394	7	16	1	120	220	320	NaN	520	0.0103914276696742	2	1	NaN	3378831.3828722	NaN	3378832.3662713	3378832.88280887
95	19	1	0	90	36.1581920903955	36.241610738255	22	0.733408367820084	2	7	2	NaN	2	5	0.0382915101775862	0	1	NaN	395	7	17	1	120	220	320	NaN	520	0.236779875587672	1	0	NaN	3378833.6996268	NaN	3378834.683156	3378835.19970692
95	19	1	0	90	36.1581920903955	36.241610738255	21	0.700071623828262	2	5	4	NaN	1	5	0.0382915101775862	0	1	NaN	396	7	18	1	120	220	320	NaN	520	0.0104183754883707	1	1	NaN	3378836.2500099	NaN	3378837.2334091	3378837.74995862
95	19	1	0	90	36.1581920903955	36.241610738255	18	0.600061391852796	2	4	5	NaN	1	4	0.0382915101775862	0	1	NaN	397	7	19	1	120	220	320	NaN	520	1.46509037539363	1	1	NaN	3378838.583494	NaN	3378839.5669663	3378840.08351832
95	19	1	0	90	36.1581920903955	36.241610738255	24	0.800081855803728	2	12	2	NaN	2	5	0.0382915101775862	0	1	NaN	398	7	20	1	120	220	320	NaN	520	0.010409127920866	1	0	NaN	3378842.3672836	NaN	3378843.3506795	3378843.86721827
95	19	1	0	90	36.1581920903955	36.241610738255	18	0.600061391852796	2	8	3	NaN	2	4	0.0382915101775862	0	1	NaN	399	7	21	1	120	220	320	NaN	520	0.284888627938926	2	1	NaN	3378844.6841752	NaN	3378845.6675704	3378846.18412337
95	19	1	0	90	36.1581920903955	36.241610738255	20	0.66673487983644	2	4	4	NaN	1	3	0.0382915101775862	0	1	NaN	400	7	22	1	120	220	320	NaN	520	0.010417427867651	2	0	NaN	3378847.2844252	NaN	3378848.2678167	3378848.78439197
95	19	1	0	90	36.1581920903955	36.241610738255	11	0.366704183910042	2	3	6	NaN	1	5	0.0382915101775862	0	1	NaN	401	7	23	1	120	220	320	NaN	520	0.0103499833494425	2	0	NaN	3378849.6012395	NaN	3378850.5847165	3378851.10127332
95	19	1	0	90	36.1581920903955	36.241610738255	10	0.33336743991822	2	4	6	NaN	1	5	0.0382915101775862	0	1	NaN	402	7	24	1	120	220	320	NaN	520	1.1539338841103	2	0	NaN	3378851.934875	NaN	3378852.9183307	3378853.43483052
95	19	1	0	90	36.1581920903955	36.241610738255	21	0.700071623828262	2	10	2	NaN	2	4	0.0382915101775862	0	1	NaN	403	7	25	1	120	220	320	NaN	520	0.010410975664854	1	0	NaN	3378855.401877	NaN	3378856.3852758	3378856.90182872
95	19	1	0	90	36.1581920903955	36.241610738255	10	0.33336743991822	2	10	4	NaN	2	4	0.0382915101775862	0	1	NaN	404	7	26	1	120	220	320	NaN	520	0.209485627710819	2	1	NaN	3378857.7354487	NaN	3378858.7188432	3378859.23540967
95	19	1	0	90	36.1581920903955	36.241610738255	15	0.50005115987733	2	4	1	NaN	1	4	0.0382915101775862	0	1	NaN	405	7	27	1	120	220	320	NaN	520	0.932268875651062	1	1	NaN	3378860.25236	NaN	3378861.2357599	3378861.75231262
95	19	1	0	90	36.1581920903955	36.241610738255	17	0.566724647860974	2	12	6	NaN	2	5	0.0382915101775862	0	1	NaN	406	7	28	1	120	220	320	NaN	520	0.218463527504355	1	0	NaN	3378863.502674	NaN	3378864.4860724	3378865.00262777
95	19	1	0	90	36.1581920903955	36.241610738255	9	0.300030695926398	2	3	5	NaN	1	5	0.0382915101775862	0	1	NaN	407	7	29	1	120	220	320	NaN	520	0.0103860278613865	1	1	NaN	3378866.0361243	NaN	3378867.019665	3378867.53621217
95	19	1	0	90	36.1581920903955	36.241610738255	6	0.200020463950932	2	7	6	NaN	2	5	0.0382915101775862	0	1	NaN	408	7	30	1	120	220	320	NaN	520	0.0636184276081622	1	0	NaN	3378868.3531556	NaN	3378869.3365522	3378869.85310787
95	19	1	0	90	36.1581920903955	36.241610738255	25	0.83341859979555	2	5	4	NaN	1	4	0.0382915101775862	0	1	NaN	409	7	31	1	120	220	320	NaN	520	0.320642075967044	1	1	NaN	3378870.7200533	NaN	3378871.7034542	3378872.21999472
95	19	1	0	90	36.1581920903955	36.241610738255	9	0.300030695926398	2	5	5	NaN	1	5	0.0382915101775862	0	1	NaN	410	7	32	1	120	220	320	NaN	520	0.0103946276940405	1	1	NaN	3378873.3536512	NaN	3378874.3370294	3378874.85359237
95	19	1	0	90	36.1581920903955	36.241610738255	22	0.733408367820084	2	5	3	NaN	1	5	0.0382915101775862	0	1	NaN	411	7	33	1	120	220	320	NaN	520	0.218583827838302	1	1	NaN	3378875.6705324	NaN	3378876.6539498	3378877.17048937
95	19	1	0	90	36.1581920903955	36.241610738255	7	0.233357207942754	2	5	2	NaN	1	4	0.0382915101775862	0	1	NaN	412	7	34	1	120	220	320	NaN	520	0.188495227601379	1	1	NaN	3378878.2041169	NaN	3378879.1875194	3378879.70406797
95	19	1	0	90	36.1581920903955	36.241610738255	21	0.700071623828262	2	4	2	NaN	1	4	0.0382915101775862	0	1	NaN	413	7	35	1	120	220	320	NaN	520	0.0104048755019903	1	1	NaN	3378880.7043529	NaN	3378881.6878052	3378882.20430562
95	19	1	0	90	36.1581920903955	36.241610738255	20	0.66673487983644	2	5	6	NaN	1	5	0.0382915101775862	0	1	NaN	414	7	36	1	120	220	320	NaN	520	1.31588233588263	2	0	NaN	3378883.021267	NaN	3378884.0046611	3378884.52121656
95	19	1	0	90	36.1581920903955	36.241610738255	9	0.300030695926398	2	8	1	NaN	2	3	0.0382915101775862	0	1	NaN	415	7	37	1	120	220	320	NaN	520	0.95412412751466	2	1	NaN	3378886.6549383	NaN	3378887.6383495	3378888.15489187
95	19	1	0	90	36.1581920903955	36.241610738255	12	0.400040927901864	2	2	1	NaN	1	5	0.0382915101775862	0	1	NaN	416	7	38	1	120	220	320	NaN	520	0.0103950276970863	1	1	NaN	3378889.9219342	NaN	3378890.9053348	3378891.42188197
95	19	1	0	90	36.1581920903955	36.241610738255	25	0.83341859979555	2	7	2	NaN	2	3	0.0382915101775862	0	1	NaN	417	7	39	1	120	220	320	NaN	520	0.225364975631237	2	1	NaN	3378892.2555013	NaN	3378893.2388794	3378893.75544422
95	19	1	0	90	36.1581920903955	36.241610738255	22	0.733408367820084	2	11	2	NaN	2	4	0.0382915101775862	0	1	NaN	418	7	40	1	120	220	320	NaN	520	0.867662327364087	2	1	NaN	3378894.7889696	NaN	3378895.7724797	3378896.28902907
95	19	1	0	90	36.1581920903955	36.241610738255	23	0.766745111811906	2	10	5	NaN	2	4	0.0382915101775862	0	1	NaN	419	7	41	1	120	220	320	NaN	520	1.32391202775761	1	0	NaN	3378897.9727108	NaN	3378898.9561197	3378899.47267447
95	19	1	0	90	36.1581920903955	36.241610738255	13	0.433377671893686	2	7	6	NaN	2	3	0.0382915101775862	0	1	NaN	420	7	42	1	120	220	320	NaN	520	0.258165227714926	1	0	NaN	3378901.6064115	NaN	3378902.5898148	3378903.10636037
95	19	1	0	90	36.1581920903955	36.241610738255	11	0.366704183910042	2	8	5	NaN	2	3	0.0382915101775862	0	1	NaN	421	7	43	1	120	220	320	NaN	520	0.699323475826532	2	1	NaN	3378904.1733249	NaN	3378905.1567363	3378905.67328022
95	19	1	0	90	36.1581920903955	36.241610738255	18	0.600061391852796	2	4	1	NaN	1	4	0.0382915101775862	0	1	NaN	422	7	44	1	120	220	320	NaN	520	0.426952191628516	1	1	NaN	3378907.1903015	NaN	3378908.1736945	3378908.69024791
95	19	1	0	90	36.1581920903955	36.241610738255	7	0.233357207942754	2	12	1	NaN	2	3	0.0382915101775862	0	1	NaN	423	7	45	1	120	220	320	NaN	520	0.0104253757745028	2	1	NaN	3378909.9405622	NaN	3378910.9239654	3378911.44050442
95	19	1	0	90	36.1581920903955	36.241610738255	20	0.66673487983644	2	12	2	NaN	2	4	0.0382915101775862	0	1	NaN	424	7	46	1	120	220	320	NaN	520	0.350494028069079	1	0	NaN	3378912.2741148	NaN	3378913.2575363	3378913.77407737
95	19	1	0	90	36.1581920903955	36.241610738255	8	0.266693951934576	2	8	2	NaN	2	3	0.0382915101775862	0	1	NaN	425	7	47	1	120	220	320	NaN	520	0.010426523629576	2	1	NaN	3378914.9410437	NaN	3378915.924449	3378916.44099308
95	19	1	0	90	36.1581920903955	36.241610738255	18	0.600061391852796	2	7	3	NaN	2	5	0.0382915101775862	0	1	NaN	426	7	48	1	120	220	320	NaN	520	0.238193075638264	1	0	NaN	3378917.2745918	NaN	3378918.2580248	3378918.77456082
95	19	1	0	90	36.1581920903955	36.241610738255	9	0.300030695926398	2	7	6	NaN	2	3	0.0382915101775862	0	1	NaN	427	7	49	1	120	220	320	NaN	520	0.111821928061545	1	0	NaN	3378919.8247373	NaN	3378920.8082633	3378921.32482107
95	19	1	0	90	36.1581920903955	36.241610738255	17	0.566724647860974	2	8	2	NaN	2	4	0.0382915101775862	0	1	NaN	428	7	50	1	120	220	320	NaN	520	0.206897475291044	1	0	NaN	3378922.2416664	NaN	3378923.2252172	3378923.74173402
95	19	1	0	90	36.1581920903955	36.241610738255	0	0	1	12	5	NaN	2	3	0.0382915101775862	0	1	NaN	429	7	51	1	110	210	310	NaN	510	1.31398337520659	1	0	NaN	3378924.7586863	NaN	3378925.7420829	3378926.25862352
95	19	1	0	90	36.1581920903955	36.241610738255	22	0.733408367820084	2	10	5	NaN	2	3	0.0382915101775862	0	1	NaN	430	7	52	1	120	220	320	NaN	520	0.824401823803782	2	1	NaN	3378928.3924611	NaN	3378929.3757634	3378929.89231928
95	19	1	0	90	36.1581920903955	36.241610738255	19	0.633398135844618	2	6	1	NaN	1	3	0.0382915101775862	0	1	NaN	431	7	53	1	120	220	320	NaN	520	0.0104153752326965	1	1	NaN	3378931.5260109	NaN	3378932.5094196	3378933.02595462
95	19	1	0	90	36.1581920903955	36.241610738255	16	0.533387903869152	2	5	6	NaN	1	3	0.0382915101775862	0	1	NaN	432	7	54	1	120	220	320	NaN	520	0.0104116755537689	1	1	NaN	3378933.8429256	NaN	3378934.8263058	3378935.34285272
95	19	1	0	90	36.1581920903955	36.241610738255	7	0.233357207942754	2	8	3	NaN	2	3	0.0382915101775862	0	1	NaN	433	7	55	1	120	220	320	NaN	520	0.353075979743153	2	1	NaN	3378936.159764	NaN	3378937.1432076	3378937.65975362
95	19	1	0	90	36.1581920903955	36.241610738255	12	0.400040927901864	2	4	1	NaN	1	5	0.0382915101775862	0	1	NaN	434	7	56	1	120	220	320	NaN	520	0.334493288304657	1	1	NaN	3378938.8267408	NaN	3378939.8101126	3378940.32667791
95	19	1	0	90	36.1581920903955	36.241610738255	25	0.83341859979555	2	11	1	NaN	2	4	0.0382915101775862	0	1	NaN	435	7	57	1	120	220	320	NaN	520	0.788289927877486	2	1	NaN	3378941.4770061	NaN	3378942.4604349	3378942.97693727
95	19	1	0	90	36.1581920903955	36.241610738255	11	0.366704183910042	2	4	5	NaN	1	3	0.0382915101775862	0	1	NaN	436	7	58	1	120	220	320	NaN	520	0.0104247238487005	1	1	NaN	3378944.5773182	NaN	3378945.5606955	3378946.07723268
95	19	1	0	90	36.1581920903955	36.241610738255	25	0.83341859979555	2	1	3	NaN	1	4	0.0382915101775862	0	1	NaN	437	7	59	1	120	220	320	NaN	520	0.0104197757318616	1	1	NaN	3378946.9108401	NaN	3378947.8942514	3378948.41080082
95	19	1	0	90	36.1581920903955	36.241610738255	18	0.600061391852796	2	6	3	NaN	1	5	0.0382915101775862	0	1	NaN	438	7	60	1	120	220	320	NaN	520	1.46151927579194	2	0	NaN	3378949.2276179	NaN	3378950.2111386	3378950.72769752
95	19	1	0	90	36.1581920903955	36.241610738255	0	0	1	1	1	NaN	1	3	0.0382915101775862	0	1	NaN	439	7	61	1	110	210	310	NaN	510	0.309733975678682	2	0	NaN	3378953.0114587	NaN	3378953.9948281	3378954.51139322
95	19	1	0	90	36.1581920903955	36.241610738255	22	0.733408367820084	2	1	4	NaN	1	5	0.0382915101775862	0	1	NaN	440	7	62	1	120	220	320	NaN	520	0.0102645438164473	2	0	NaN	3378955.6450635	NaN	3378956.6284392	3378957.14499736
95	19	1	0	90	36.1581920903955	36.241610738255	15	0.50005115987733	2	10	6	NaN	2	4	0.0382915101775862	0	1	NaN	441	7	63	1	120	220	320	NaN	520	1.36669937986881	2	1	NaN	3378957.9785965	NaN	3378958.9619964	3378959.47855702
95	19	1	0	90	36.1581920903955	36.241610738255	24	0.800081855803728	2	9	3	NaN	2	3	0.0382915101775862	0	1	NaN	442	8	1	1	120	220	320	NaN	520	0.0954247754998505	2	1	NaN	3378966.1294292	NaN	3378967.1128018	3378967.62935382
95	19	1	0	90	36.1581920903955	36.241610738255	14	0.466714415885508	2	5	3	NaN	1	4	0.0382915101775862	0	1	NaN	443	8	2	1	120	220	320	NaN	520	0.0104183754883707	2	0	NaN	3378968.5463159	NaN	3378969.5297047	3378970.04625872
95	19	1	0	90	36.1581920903955	36.241610738255	15	0.50005115987733	2	5	6	NaN	1	3	0.0382915101775862	0	1	NaN	444	8	3	1	120	220	320	NaN	520	1.009000828024	2	0	NaN	3378970.8798754	NaN	3378971.8633056	3378972.37982047
95	19	1	0	90	36.1581920903955	36.241610738255	25	0.83341859979555	2	10	5	NaN	2	3	0.0382915101775862	0	1	NaN	445	8	4	1	120	220	320	NaN	520	0.46829142794013	1	0	NaN	3378974.1967303	NaN	3378975.180246	3378975.69680907
95	19	1	0	90	36.1581920903955	36.241610738255	7	0.233357207942754	2	8	4	NaN	2	5	0.0382915101775862	0	1	NaN	446	8	5	1	120	220	320	NaN	520	0.0104066757485271	2	1	NaN	3378977.1305046	NaN	3378978.1138788	3378978.63042732
95	19	1	0	90	36.1581920903955	36.241610738255	12	0.400040927901864	2	12	4	NaN	2	5	0.0382915101775862	0	1	NaN	447	8	6	1	120	220	320	NaN	520	0.0103965275920928	1	0	NaN	3378979.4640382	NaN	3378980.4474396	3378980.96398547
95	19	1	0	90	36.1581920903955	36.241610738255	7	0.233357207942754	2	4	2	NaN	1	4	0.0382915101775862	0	1	NaN	448	8	7	1	120	220	320	NaN	520	0.0104081751778722	2	0	NaN	3378981.7809287	NaN	3378982.764335	3378983.28087882
95	19	1	0	90	36.1581920903955	36.241610738255	11	0.366704183910042	2	6	4	NaN	1	3	0.0382915101775862	0	1	NaN	449	8	8	1	120	220	320	NaN	520	0.334437627810985	1	1	NaN	3378984.11455	NaN	3378985.0978891	3378985.61446157
95	19	1	0	90	36.1581920903955	36.241610738255	7	0.233357207942754	2	4	3	NaN	1	4	0.0382915101775862	0	1	NaN	450	8	9	1	120	220	320	NaN	520	0.0104112755507231	1	1	NaN	3378986.7647406	NaN	3378987.7481548	3378988.26470312
95	19	1	0	90	36.1581920903955	36.241610738255	24	0.800081855803728	2	6	6	NaN	1	4	0.0382915101775862	0	1	NaN	451	8	10	1	120	220	320	NaN	520	0.838527823798358	1	1	NaN	3378989.0983294	NaN	3378990.0817129	3378990.59826248
95	19	1	0	90	36.1581920903955	36.241610738255	15	0.50005115987733	2	12	1	NaN	2	5	0.0382915101775862	0	1	NaN	452	8	11	1	120	220	320	NaN	520	0.0322843757458031	2	1	NaN	3378992.2486271	NaN	3378993.2320831	3378993.74857272
95	19	1	0	90	36.1581920903955	36.241610738255	10	0.33336743991822	2	2	5	NaN	1	4	0.0382915101775862	0	1	NaN	453	8	12	1	120	220	320	NaN	520	0.185974027495831	2	0	NaN	3378994.5987346	NaN	3378995.5822554	3378996.09880997
95	19	1	0	90	36.1581920903955	36.241610738255	9	0.300030695926398	2	7	1	NaN	2	5	0.0382915101775862	0	1	NaN	454	8	13	1	120	220	320	NaN	520	0.149916227906942	2	1	NaN	3378997.0991219	NaN	3378998.082508	3378998.59905857
95	19	1	0	90	36.1581920903955	36.241610738255	14	0.466714415885508	2	4	3	NaN	1	4	0.0382915101775862	0	1	NaN	455	8	14	1	120	220	320	NaN	520	0.0103953275829554	2	0	NaN	3378999.5660143	NaN	3379000.5494499	3379001.06595757
95	19	1	0	90	36.1581920903955	36.241610738255	25	0.83341859979555	2	3	3	NaN	1	4	0.0382915101775862	0	1	NaN	456	8	15	1	120	220	320	NaN	520	0.805322671774775	2	0	NaN	3379001.8995175	NaN	3379002.8829793	3379003.39951663
95	19	1	0	90	36.1581920903955	36.241610738255	13	0.433377671893686	2	4	4	NaN	1	5	0.0382915101775862	0	1	NaN	457	8	16	1	120	220	320	NaN	520	1.1767709273845	2	0	NaN	3379005.0165604	NaN	3379005.9999353	3379006.51650077
95	19	1	0	90	36.1581920903955	36.241610738255	0	0	1	9	1	NaN	2	5	0.0382915101775862	0	1	NaN	458	8	17	1	110	210	310	NaN	510	0.0104070752859116	2	1	NaN	3379008.5168858	NaN	3379009.5002605	3379010.01683142
