subjno	age	gender	isPractice	viewdist	CmToPixX	CmToPixY	SOA_frm	SOA_time	targNum	targID	targExample	targRace	targGender	firstTargPos	contrast	familiarity	curr_staircase	iStair	TrialNum	BlockNum	blktrl	sessionNum	TC_FIXATION	TC_RSVP_START	TC_RSVP_END	TC_BLANK	TC_RESPONSE_ONSET	RT2afc	resp_2afc	acc	RSVPOnsetVBL	RSVPOnsetTime	RSVPOffsetVBL	RSVPOffsetTime	startrt_2afc
60	23	0	0	90	36.1581920903955	36.241610738255	18	0.600063191950321	2	7	4	NaN	2	5	0.0190648399435654	1	1	NaN	1	1	1	1	121	221	321	NaN	521	3.12665328057483	2	1	NaN	2583298.0410729	NaN	2583299.024372	2583299.55748052
60	23	0	0	90	36.1581920903955	36.241610738255	10	0.333368439972401	2	4	5	NaN	1	3	0.0190648399435654	1	1	NaN	2	1	2	1	121	221	321	NaN	521	4.12180373212323	2	0	NaN	2583303.5416254	NaN	2583304.5249409	2583305.05801987
60	23	0	0	90	36.1581920903955	36.241610738255	20	0.666736879944801	2	12	1	NaN	2	5	0.0190648399435654	1	1	NaN	3	1	3	1	121	221	321	NaN	521	4.69549924042076	2	1	NaN	2583310.0086932	NaN	2583310.9920797	2583311.50866076
60	23	0	0	90	36.1581920903955	36.241610738255	9	0.300031595975161	2	9	2	NaN	2	5	0.0190648399435654	1	1	NaN	4	1	4	1	121	221	321	NaN	521	1.51815262809396	1	0	NaN	2583317.0259297	NaN	2583318.0094642	2583318.52601047
60	23	0	0	90	36.1581920903955	36.241610738255	10	0.333368439972401	2	9	3	NaN	2	4	0.0190648399435654	1	1	NaN	5	1	5	1	121	221	321	NaN	521	1.21175152808428	1	0	NaN	2583320.8764578	NaN	2583321.8598397	2583322.37639547
60	23	0	0	90	36.1581920903955	36.241610738255	12	0.400042127966881	2	7	1	NaN	2	3	0.0190648399435654	1	1	NaN	6	1	6	1	121	221	321	NaN	521	2.46989172836766	2	1	NaN	2583324.4099976	NaN	2583325.3935036	2583325.91007387
60	23	0	0	90	36.1581920903955	36.241610738255	12	0.400042127966881	2	11	6	NaN	2	3	0.0190648399435654	1	1	NaN	7	1	7	1	121	221	321	NaN	521	1.71749942470342	1	0	NaN	2583329.2105928	NaN	2583330.1939812	2583330.71053818
60	23	0	0	90	36.1581920903955	36.241610738255	18	0.600063191950321	2	8	5	NaN	2	5	0.0190648399435654	1	1	NaN	8	1	8	1	121	221	321	NaN	521	1.44345742836595	1	0	NaN	2583333.2441888	NaN	2583334.2277145	2583334.74427827
60	23	0	0	90	36.1581920903955	36.241610738255	10	0.333368439972401	2	7	4	NaN	2	3	0.0190648399435654	1	1	NaN	9	1	9	1	121	221	321	NaN	521	1.21252977661788	2	1	NaN	2583337.0112364	NaN	2583337.9947651	2583338.51131762
60	23	0	0	90	36.1581920903955	36.241610738255	14	0.466715815961361	2	11	3	NaN	2	5	0.0190648399435654	1	1	NaN	10	1	10	1	121	221	321	NaN	521	3.72683962853625	2	1	NaN	2583340.545046	NaN	2583341.5284511	2583342.04499527
60	23	0	0	90	36.1581920903955	36.241610738255	14	0.466715815961361	2	4	5	NaN	1	3	0.0190648399435654	1	1	NaN	11	1	11	1	121	221	321	NaN	521	1.76454262435436	1	1	NaN	2583346.5956395	NaN	2583347.5790392	2583348.09559208
60	23	0	0	90	36.1581920903955	36.241610738255	12	0.400042127966881	2	7	4	NaN	2	4	0.0190648399435654	1	1	NaN	12	1	12	1	121	221	321	NaN	521	2.36028862791136	1	0	NaN	2583350.6793828	NaN	2583351.6628343	2583352.17932447
60	23	0	0	90	36.1581920903955	36.241610738255	25	0.833421099931002	2	1	4	NaN	1	4	0.0190648399435654	1	1	NaN	13	1	13	1	121	221	321	NaN	521	3.14062182419002	1	1	NaN	2583355.3630432	NaN	2583356.3465656	2583356.86311678
60	23	0	0	90	36.1581920903955	36.241610738255	7	0.23335790798068	2	1	1	NaN	1	5	0.0190648399435654	1	1	NaN	14	1	14	1	121	221	321	NaN	521	4.04934122785926	1	1	NaN	2583360.8303725	NaN	2583361.8137787	2583362.33032887
60	23	0	0	90	36.1581920903955	36.241610738255	25	0.833421099931002	2	4	3	NaN	1	3	0.0190648399435654	1	1	NaN	15	1	15	1	121	221	321	NaN	521	2.66652607638389	1	1	NaN	2583367.197661	NaN	2583368.181137	2583368.69762032
60	23	0	0	90	36.1581920903955	36.241610738255	7	0.23335790798068	2	10	3	NaN	2	3	0.0190648399435654	1	1	NaN	16	1	16	1	121	221	321	NaN	521	2.53827132843435	2	1	NaN	2583372.1813679	NaN	2583373.1648981	2583373.68143847
60	23	0	0	90	36.1581920903955	36.241610738255	15	0.500052659958601	2	12	5	NaN	2	3	0.0190648399435654	1	1	NaN	17	1	17	1	121	221	321	NaN	521	2.76784692425281	2	1	NaN	2583377.0318748	NaN	2583378.0153734	2583378.53192618
60	23	0	0	90	36.1581920903955	36.241610738255	8	0.266694751977921	2	6	5	NaN	1	3	0.0190648399435654	1	1	NaN	18	1	18	1	121	221	321	NaN	521	2.69199768034741	2	0	NaN	2583382.115674	NaN	2583383.0991955	2583383.61576172
60	23	0	0	90	36.1581920903955	36.241610738255	9	0.300031595975161	2	2	5	NaN	1	5	0.0190648399435654	1	1	NaN	19	1	19	1	121	221	321	NaN	521	2.85084592411295	2	0	NaN	2583387.1329409	NaN	2583388.1163678	2583388.63292128
60	23	0	0	90	36.1581920903955	36.241610738255	10	0.333368439972401	2	2	6	NaN	1	3	0.0190648399435654	1	1	NaN	20	1	20	1	121	221	321	NaN	521	9.53193692816421	1	1	NaN	2583407.868389	NaN	2583408.8517326	2583409.36829827
60	23	0	0	90	36.1581920903955	36.241610738255	7	0.23335790798068	2	6	5	NaN	1	5	0.0190648399435654	1	1	NaN	21	1	21	1	121	221	321	NaN	521	1.01643944391981	2	0	NaN	2583419.7195114	NaN	2583420.7029064	2583421.21946726
60	23	0	0	90	36.1581920903955	36.241610738255	24	0.800084255933762	2	7	4	NaN	2	4	0.0190648399435654	1	1	NaN	22	1	22	1	121	221	321	NaN	521	2.96304557658732	2	1	NaN	2583423.0531725	NaN	2583424.03657	2583424.55312472
60	23	0	0	90	36.1581920903955	36.241610738255	20	0.666736879944801	2	4	4	NaN	1	3	0.0190648399435654	1	1	NaN	23	1	23	1	121	221	321	NaN	521	1.55127712804824	1	1	NaN	2583428.3369166	NaN	2583429.3204334	2583429.83697487
60	23	0	0	90	36.1581920903955	36.241610738255	20	0.666736879944801	2	8	2	NaN	2	4	0.0190648399435654	1	1	NaN	24	1	24	1	121	221	321	NaN	521	2.62825192417949	1	0	NaN	2583432.2039242	NaN	2583433.1874949	2583433.70401348
60	23	0	0	90	36.1581920903955	36.241610738255	6	0.20002106398344	2	1	5	NaN	1	3	0.0190648399435654	1	1	NaN	25	1	25	1	121	221	321	NaN	521	2.45369982812554	2	0	NaN	2583437.1545766	NaN	2583438.1379663	2583438.65451117
60	23	0	0	90	36.1581920903955	36.241610738255	9	0.300031595975161	2	6	4	NaN	1	4	0.0190648399435654	1	1	NaN	26	1	26	1	121	221	321	NaN	521	2.63019442465156	1	1	NaN	2583441.921692	NaN	2583442.9050849	2583443.42164588
60	23	0	0	90	36.1581920903955	36.241610738255	20	0.666736879944801	2	9	2	NaN	2	5	0.0190648399435654	1	1	NaN	27	1	27	1	121	221	321	NaN	521	5.23177832830697	2	1	NaN	2583446.8720648	NaN	2583447.8555771	2583448.37213737
60	23	0	0	90	36.1581920903955	36.241610738255	8	0.266694751977921	2	3	1	NaN	1	3	0.0190648399435654	1	1	NaN	28	1	28	1	121	221	321	NaN	521	0.969078872352839	1	1	NaN	2583454.4228394	NaN	2583455.4063214	2583455.92286743
60	23	0	0	90	36.1581920903955	36.241610738255	0	0	1	11	4	NaN	2	4	0.0190648399435654	1	1	NaN	29	1	29	1	111	211	311	NaN	511	2.62133882800117	2	1	NaN	2583457.706458	NaN	2583458.6899829	2583459.20653457
60	23	0	0	90	36.1581920903955	36.241610738255	13	0.433378971964121	2	11	2	NaN	2	5	0.0190648399435654	1	1	NaN	30	1	30	1	121	221	321	NaN	521	2.45565452845767	2	1	NaN	2583462.6403839	NaN	2583463.6237718	2583464.14035807
60	23	0	0	90	36.1581920903955	36.241610738255	23	0.766747411936522	2	2	6	NaN	1	4	0.0190648399435654	1	1	NaN	31	1	31	1	121	221	321	NaN	521	1.45627072826028	1	1	NaN	2583467.4242068	NaN	2583468.4076082	2583468.92415017
60	23	0	0	90	36.1581920903955	36.241610738255	17	0.566726347953081	2	9	4	NaN	2	4	0.0190648399435654	1	1	NaN	32	1	32	1	121	221	321	NaN	521	1.75738839991391	1	0	NaN	2583471.4745908	NaN	2583472.4580101	2583472.9745717
60	23	0	0	90	36.1581920903955	36.241610738255	9	0.300031595975161	2	6	2	NaN	1	3	0.0190648399435654	1	1	NaN	33	1	33	1	121	221	321	NaN	521	1.04246142832562	1	1	NaN	2583475.5416807	NaN	2583476.5250771	2583477.04161497
60	23	0	0	90	36.1581920903955	36.241610738255	20	0.666736879944801	2	6	1	NaN	1	5	0.0190648399435654	1	1	NaN	34	1	34	1	121	221	321	NaN	521	1.41094067646191	1	1	NaN	2583479.1253354	NaN	2583480.1087528	2583480.62530652
60	23	0	0	90	36.1581920903955	36.241610738255	21	0.700073723942041	2	6	6	NaN	1	5	0.0190648399435654	1	1	NaN	35	1	35	1	121	221	321	NaN	521	2.45334252435714	2	0	NaN	2583482.8590616	NaN	2583483.8424636	2583484.35901078
60	23	0	0	90	36.1581920903955	36.241610738255	7	0.23335790798068	2	5	2	NaN	1	3	0.0190648399435654	1	1	NaN	36	1	36	1	121	221	321	NaN	521	1.4062865767628	1	1	NaN	2583487.6261848	NaN	2583488.6096103	2583489.12615062
60	23	0	0	90	36.1581920903955	36.241610738255	19	0.633400035947561	2	10	6	NaN	2	4	0.0190648399435654	1	1	NaN	37	1	37	1	121	221	321	NaN	521	4.23323442833498	2	1	NaN	2583491.3431314	NaN	2583492.3266378	2583492.84317077
60	23	0	0	90	36.1581920903955	36.241610738255	17	0.566726347953081	2	8	4	NaN	2	3	0.0190648399435654	1	1	NaN	38	1	38	1	121	221	321	NaN	521	4.59676297660917	2	1	NaN	2583499.8273987	NaN	2583500.8107941	2583501.32734182
60	23	0	0	90	36.1581920903955	36.241610738255	6	0.20002106398344	2	10	1	NaN	2	5	0.0190648399435654	1	1	NaN	39	1	39	1	121	221	321	NaN	521	1.48026282805949	1	0	NaN	2583506.7280201	NaN	2583507.7114758	2583508.22802987
60	23	0	0	90	36.1581920903955	36.241610738255	19	0.633400035947561	2	12	4	NaN	2	5	0.0190648399435654	1	1	NaN	40	1	40	1	121	221	321	NaN	521	2.11137562803924	2	1	NaN	2583510.5284464	NaN	2583511.5118342	2583512.02840397
60	23	0	0	90	36.1581920903955	36.241610738255	0	0	1	11	5	NaN	2	3	0.0190648399435654	1	1	NaN	41	1	41	1	111	211	311	NaN	511	2.87823852850124	2	1	NaN	2583514.9622368	NaN	2583515.9456241	2583516.46217457
60	23	0	0	90	36.1581920903955	36.241610738255	14	0.466715815961361	2	8	2	NaN	2	3	0.0190648399435654	1	1	NaN	42	1	42	1	121	221	321	NaN	521	2.17328842449933	1	0	NaN	2583520.1627524	NaN	2583521.1461307	2583521.66268368
60	23	0	0	90	36.1581920903955	36.241610738255	0	0	1	4	6	NaN	1	3	0.0190648399435654	1	1	NaN	43	1	43	1	111	211	311	NaN	511	2.14533832808957	1	1	NaN	2583524.6631831	NaN	2583525.6465709	2583526.16311877
60	23	0	0	90	36.1581920903955	36.241610738255	18	0.600063191950321	2	7	5	NaN	2	4	0.0190648399435654	1	1	NaN	44	1	44	1	121	221	321	NaN	521	1.71836892841384	2	1	NaN	2583529.1136213	NaN	2583530.0970355	2583530.61356247
60	23	0	0	90	36.1581920903955	36.241610738255	9	0.300031595975161	2	11	1	NaN	2	4	0.0190648399435654	1	1	NaN	45	1	45	1	121	221	321	NaN	521	3.83665948035195	1	0	NaN	2583533.1473441	NaN	2583534.1307465	2583534.64729052
60	23	0	0	90	36.1581920903955	36.241610738255	22	0.733410567939281	2	4	5	NaN	1	5	0.0190648399435654	1	1	NaN	46	1	46	1	121	221	321	NaN	521	2.90209282469004	1	1	NaN	2583539.297946	NaN	2583540.2813389	2583540.79789878
60	23	0	0	90	36.1581920903955	36.241610738255	14	0.466715815961361	2	8	6	NaN	2	4	0.0190648399435654	1	1	NaN	47	1	47	1	121	221	321	NaN	521	4.316929128021	1	0	NaN	2583544.5151348	NaN	2583545.4985312	2583546.01507477
60	23	0	0	90	36.1581920903955	36.241610738255	0	0	1	6	6	NaN	1	3	0.0190648399435654	1	1	NaN	48	1	48	1	111	211	311	NaN	511	3.58741587633267	1	1	NaN	2583551.1324607	NaN	2583552.1158435	2583552.63239982
60	23	0	0	90	36.1581920903955	36.241610738255	19	0.633400035947561	2	3	2	NaN	1	5	0.0190648399435654	1	1	NaN	49	1	49	1	121	221	321	NaN	521	4.70347657660022	1	1	NaN	2583557.0330329	NaN	2583558.0164185	2583558.53297912
60	23	0	0	90	36.1581920903955	36.241610738255	6	0.20002106398344	2	2	4	NaN	1	5	0.0190648399435654	1	1	NaN	50	1	50	1	121	221	321	NaN	521	1.84570877626538	1	1	NaN	2583564.0503792	NaN	2583565.0337772	2583565.55033712
60	23	0	0	90	36.1581920903955	36.241610738255	21	0.700073723942041	2	8	6	NaN	2	3	0.0190648399435654	1	1	NaN	51	1	51	1	121	221	321	NaN	521	3.19108234392479	2	1	NaN	2583568.2174633	NaN	2583569.200863	2583569.71741566
60	23	0	0	90	36.1581920903955	36.241610738255	15	0.500052659958601	2	2	6	NaN	1	4	0.0190648399435654	1	1	NaN	52	1	52	1	121	221	321	NaN	521	1.57797592459247	1	1	NaN	2583573.717998	NaN	2583574.7013959	2583575.21796058
60	23	0	0	90	36.1581920903955	36.241610738255	15	0.500052659958601	2	3	2	NaN	1	5	0.0190648399435654	1	1	NaN	53	1	53	1	121	221	321	NaN	521	3.57369552832097	2	0	NaN	2583577.6183984	NaN	2583578.6017802	2583579.11833257
60	23	0	0	90	36.1581920903955	36.241610738255	11	0.366705283969641	2	8	4	NaN	2	3	0.0190648399435654	1	1	NaN	54	1	54	1	121	221	321	NaN	521	6.4017494241707	2	1	NaN	2583583.5022896	NaN	2583584.4856836	2583585.00224208
60	23	0	0	90	36.1581920903955	36.241610738255	23	0.766747411936522	2	10	4	NaN	2	3	0.0190648399435654	1	1	NaN	55	1	55	1	121	221	321	NaN	521	4.66857018042356	1	0	NaN	2583592.2198271	NaN	2583593.2032241	2583593.71977972
60	23	0	0	90	36.1581920903955	36.241610738255	23	0.766747411936522	2	3	5	NaN	1	5	0.0190648399435654	1	1	NaN	56	1	56	1	121	221	321	NaN	521	1.0922551243566	2	0	NaN	2583599.2037222	NaN	2583600.187251	2583600.70379268
60	23	0	0	90	36.1581920903955	36.241610738255	20	0.666736879944801	2	11	3	NaN	2	5	0.0190648399435654	1	1	NaN	57	1	57	1	121	221	321	NaN	521	3.82797748036683	2	1	NaN	2583602.6040649	NaN	2583603.5875968	2583604.10413092
60	23	0	0	90	36.1581920903955	36.241610738255	7	0.23335790798068	2	4	3	NaN	1	3	0.0190648399435654	1	1	NaN	58	1	58	1	121	221	321	NaN	521	2.38985462812707	2	0	NaN	2583608.7547849	NaN	2583609.7381709	2583610.25475277
60	23	0	0	90	36.1581920903955	36.241610738255	8	0.266694751977921	2	12	5	NaN	2	4	0.0190648399435654	1	1	NaN	59	1	59	1	121	221	321	NaN	521	3.39300142833963	2	1	NaN	2583613.4552494	NaN	2583614.4386648	2583614.95519627
60	23	0	0	90	36.1581920903955	36.241610738255	18	0.600063191950321	2	11	6	NaN	2	5	0.0190648399435654	1	1	NaN	60	1	60	1	121	221	321	NaN	521	5.81242747651413	1	0	NaN	2583619.1558036	NaN	2583620.1392224	2583620.65576182
60	23	0	0	90	36.1581920903955	36.241610738255	16	0.533389503955841	2	12	2	NaN	2	3	0.0190648399435654	1	1	NaN	61	1	61	1	121	221	321	NaN	521	1.45526342839003	2	1	NaN	2583627.2732578	NaN	2583628.2566806	2583628.77322377
60	23	0	0	90	36.1581920903955	36.241610738255	0	0	1	5	6	NaN	1	3	0.0190648399435654	1	1	NaN	62	1	62	1	111	211	311	NaN	511	2.84785697609186	2	0	NaN	2583631.0402966	NaN	2583632.0236879	2583632.54025192
60	23	0	0	90	36.1581920903955	36.241610738255	8	0.266694751977921	2	5	3	NaN	1	5	0.0190648399435654	1	1	NaN	63	1	63	1	121	221	321	NaN	521	4.56916508078575	2	0	NaN	2583636.2074944	NaN	2583637.1908864	2583637.70743552
60	23	0	0	90	36.1581920903955	36.241610738255	25	0.833421099931002	2	11	2	NaN	2	4	0.0190648399435654	1	1	NaN	64	2	1	1	121	221	321	NaN	521	2.50800622813404	2	1	NaN	2583678.8283993	NaN	2583679.8117563	2583680.32829567
60	23	0	0	90	36.1581920903955	36.241610738255	13	0.433378971964121	2	12	2	NaN	2	4	0.0190648399435654	1	1	NaN	65	2	2	1	121	221	321	NaN	521	1.80998382810503	1	0	NaN	2583683.662149	NaN	2583684.6455911	2583685.16211157
60	23	0	0	90	36.1581920903955	36.241610738255	22	0.733410567939281	2	2	4	NaN	1	4	0.0190648399435654	1	1	NaN	66	2	3	1	121	221	321	NaN	521	1.41266137640923	1	1	NaN	2583687.7959351	NaN	2583688.7793041	2583689.29584012
60	23	0	0	90	36.1581920903955	36.241610738255	22	0.733410567939281	2	10	6	NaN	2	5	0.0190648399435654	1	1	NaN	67	2	4	1	121	221	321	NaN	521	3.34323052410036	2	1	NaN	2583691.5129389	NaN	2583692.4962896	2583693.01287458
60	23	0	0	90	36.1581920903955	36.241610738255	16	0.533389503955841	2	5	3	NaN	1	4	0.0190648399435654	1	1	NaN	68	2	5	1	121	221	321	NaN	521	2.00525522837415	1	1	NaN	2583697.1634998	NaN	2583698.1468828	2583698.66343477
60	23	0	0	90	36.1581920903955	36.241610738255	17	0.566726347953081	2	12	3	NaN	2	4	0.0190648399435654	1	1	NaN	69	2	6	1	121	221	321	NaN	521	1.47800042433664	2	1	NaN	2583701.7304652	NaN	2583702.7140634	2583703.23054098
60	23	0	0	90	36.1581920903955	36.241610738255	16	0.533389503955841	2	12	2	NaN	2	5	0.0190648399435654	1	1	NaN	70	2	7	1	121	221	321	NaN	521	2.12536042835563	2	1	NaN	2583705.5309736	NaN	2583706.5143763	2583707.03092057
60	23	0	0	90	36.1581920903955	36.241610738255	22	0.733410567939281	2	2	4	NaN	1	3	0.0190648399435654	1	1	NaN	71	2	8	1	121	221	321	NaN	521	1.37165942415595	1	1	NaN	2583709.9646447	NaN	2583710.9481372	2583711.46468578
60	23	0	0	90	36.1581920903955	36.241610738255	9	0.300031595975161	2	4	2	NaN	1	3	0.0190648399435654	1	1	NaN	72	2	9	1	121	221	321	NaN	521	1.31228567659855	1	1	NaN	2583713.6484505	NaN	2583714.6318411	2583715.14838352
60	23	0	0	90	36.1581920903955	36.241610738255	16	0.533389503955841	2	4	3	NaN	1	3	0.0190648399435654	1	1	NaN	73	2	10	1	121	221	321	NaN	521	1.44656612817198	2	0	NaN	2583717.2821141	NaN	2583718.2655272	2583718.78207697
60	23	0	0	90	36.1581920903955	36.241610738255	21	0.700073723942041	2	10	4	NaN	2	4	0.0190648399435654	1	1	NaN	74	2	11	1	121	221	321	NaN	521	1.14391272794455	1	0	NaN	2583721.0323743	NaN	2583722.0158906	2583722.53245407
60	23	0	0	90	36.1581920903955	36.241610738255	6	0.20002106398344	2	4	1	NaN	1	3	0.0190648399435654	1	1	NaN	75	2	12	1	121	221	321	NaN	521	1.75741572445258	1	1	NaN	2583724.4828262	NaN	2583725.4662294	2583725.98278678
60	23	0	0	90	36.1581920903955	36.241610738255	22	0.733410567939281	2	7	3	NaN	2	5	0.0190648399435654	1	1	NaN	76	2	13	1	121	221	321	NaN	521	3.57877582823858	1	0	NaN	2583728.5499118	NaN	2583729.5333064	2583730.04985607
60	23	0	0	90	36.1581920903955	36.241610738255	15	0.500052659958601	2	10	3	NaN	2	3	0.0190648399435654	1	1	NaN	77	2	14	1	121	221	321	NaN	521	4.28601896483451	1	0	NaN	2583734.4504809	NaN	2583735.4338793	2583735.95043064
60	23	0	0	90	36.1581920903955	36.241610738255	20	0.666736879944801	2	2	5	NaN	1	3	0.0190648399435654	1	1	NaN	78	2	15	1	121	221	321	NaN	521	4.70152022829279	1	1	NaN	2583741.0511514	NaN	2583742.0345302	2583742.55108567
60	23	0	0	90	36.1581920903955	36.241610738255	12	0.400042127966881	2	5	3	NaN	1	5	0.0190648399435654	1	1	NaN	79	2	16	1	121	221	321	NaN	521	3.07584272418171	1	1	NaN	2583748.068337	NaN	2583749.0518965	2583749.56844258
60	23	0	0	90	36.1581920903955	36.241610738255	10	0.333368439972401	2	9	5	NaN	2	4	0.0190648399435654	1	1	NaN	80	2	17	1	121	221	321	NaN	521	2.25110402842984	2	1	NaN	2583753.4690166	NaN	2583754.4524278	2583754.96896897
60	23	0	0	90	36.1581920903955	36.241610738255	12	0.400042127966881	2	6	3	NaN	1	5	0.0190648399435654	1	1	NaN	81	2	18	1	121	221	321	NaN	521	2.1245993245393	1	1	NaN	2583758.0361345	NaN	2583759.0195192	2583759.53608658
60	23	0	0	90	36.1581920903955	36.241610738255	6	0.20002106398344	2	10	2	NaN	2	4	0.0190648399435654	1	1	NaN	82	2	19	1	121	221	321	NaN	521	1.58650912810117	1	0	NaN	2583762.4699991	NaN	2583763.4533081	2583763.96984757
60	23	0	0	90	36.1581920903955	36.241610738255	0	0	1	7	6	NaN	2	3	0.0190648399435654	1	1	NaN	83	2	20	1	111	211	311	NaN	511	2.49406197667122	2	1	NaN	2583766.3701535	NaN	2583767.3536882	2583767.87023292
60	23	0	0	90	36.1581920903955	36.241610738255	12	0.400042127966881	2	9	4	NaN	2	4	0.0190648399435654	1	1	NaN	84	2	21	1	121	221	321	NaN	521	0.981557376682758	1	0	NaN	2583771.1706343	NaN	2583772.1541612	2583772.67070402
60	23	0	0	90	36.1581920903955	36.241610738255	9	0.300031595975161	2	5	3	NaN	1	5	0.0190648399435654	1	1	NaN	85	2	22	1	121	221	321	NaN	521	2.36132452450693	1	1	NaN	2583774.4709782	NaN	2583775.4545095	2583775.97103558
60	23	0	0	90	36.1581920903955	36.241610738255	14	0.466715815961361	2	2	1	NaN	1	3	0.0190648399435654	1	1	NaN	86	2	23	1	121	221	321	NaN	521	1.89413838041946	1	1	NaN	2583779.1380874	NaN	2583780.1216014	2583780.63815692
60	23	0	0	90	36.1581920903955	36.241610738255	0	0	1	4	2	NaN	1	3	0.0190648399435654	1	1	NaN	87	2	24	1	111	211	311	NaN	511	5.34175322437659	1	1	NaN	2583783.3384987	NaN	2583784.3220111	2583784.83857048
60	23	0	0	90	36.1581920903955	36.241610738255	20	0.666736879944801	2	11	5	NaN	2	3	0.0190648399435654	1	1	NaN	88	2	25	1	121	221	321	NaN	521	3.8031400279142	1	0	NaN	2583790.989249	NaN	2583791.9727728	2583792.48932337
60	23	0	0	90	36.1581920903955	36.241610738255	11	0.366705283969641	2	7	3	NaN	2	4	0.0190648399435654	1	1	NaN	89	2	26	1	121	221	321	NaN	521	2.74988252436742	1	0	NaN	2583797.1066434	NaN	2583798.0900438	2583798.60658958
60	23	0	0	90	36.1581920903955	36.241610738255	0	0	1	3	5	NaN	1	5	0.0190648399435654	1	1	NaN	90	2	27	1	111	211	311	NaN	511	1.77852482814342	2	0	NaN	2583802.1738085	NaN	2583803.1572152	2583803.67376097
60	23	0	0	90	36.1581920903955	36.241610738255	8	0.266694751977921	2	8	5	NaN	2	3	0.0190648399435654	1	1	NaN	91	2	28	1	121	221	321	NaN	521	2.8382772244513	2	1	NaN	2583806.2742221	NaN	2583807.2576236	2583807.77416248
60	23	0	0	90	36.1581920903955	36.241610738255	11	0.366705283969641	2	2	6	NaN	1	3	0.0190648399435654	1	1	NaN	92	2	29	1	121	221	321	NaN	521	2.00813652854413	2	0	NaN	2583811.4246036	NaN	2583812.40812	2583812.92466117
60	23	0	0	90	36.1581920903955	36.241610738255	14	0.466715815961361	2	6	2	NaN	1	3	0.0190648399435654	1	1	NaN	93	2	30	1	121	221	321	NaN	521	4.46662107622251	2	0	NaN	2583815.7417961	NaN	2583816.7252209	2583817.24176142
60	23	0	0	90	36.1581920903955	36.241610738255	21	0.700073723942041	2	3	6	NaN	1	3	0.0190648399435654	1	1	NaN	94	2	31	1	121	221	321	NaN	521	4.73867202783003	1	1	NaN	2583822.5258089	NaN	2583823.509208	2583824.02575467
60	23	0	0	90	36.1581920903955	36.241610738255	25	0.833421099931002	2	7	1	NaN	2	3	0.0190648399435654	1	1	NaN	95	2	32	1	121	221	321	NaN	521	3.33620892791077	2	1	NaN	2583829.5763538	NaN	2583830.5598857	2583831.07645817
60	23	0	0	90	36.1581920903955	36.241610738255	9	0.300031595975161	2	10	3	NaN	2	4	0.0190648399435654	1	1	NaN	96	2	33	1	121	221	321	NaN	521	2.79777542827651	2	1	NaN	2583835.2270543	NaN	2583836.2104628	2583836.72700637
60	23	0	0	90	36.1581920903955	36.241610738255	21	0.700073723942041	2	9	2	NaN	2	4	0.0190648399435654	1	1	NaN	97	2	34	1	121	221	321	NaN	521	6.69696172419935	1	0	NaN	2583840.3275579	NaN	2583841.3109565	2583841.82750688
60	23	0	0	90	36.1581920903955	36.241610738255	21	0.700073723942041	2	11	4	NaN	2	4	0.0190648399435654	1	1	NaN	98	2	35	1	121	221	321	NaN	521	2.95957472780719	2	1	NaN	2583849.3451139	NaN	2583850.3285632	2583850.84505897
60	23	0	0	90	36.1581920903955	36.241610738255	15	0.500052659958601	2	9	5	NaN	2	4	0.0190648399435654	1	1	NaN	99	2	36	1	121	221	321	NaN	521	5.12427327642217	2	1	NaN	2583854.6121702	NaN	2583855.5957152	2583856.11224592
60	23	0	0	90	36.1581920903955	36.241610738255	8	0.266694751977921	2	2	1	NaN	1	4	0.0190648399435654	1	1	NaN	100	2	37	1	121	221	321	NaN	521	1.45815423643216	2	0	NaN	2583862.0463779	NaN	2583863.0297556	2583863.54631106
60	23	0	0	90	36.1581920903955	36.241610738255	10	0.333368439972401	2	1	2	NaN	1	3	0.0190648399435654	1	1	NaN	101	2	38	1	121	221	321	NaN	521	4.92349442420527	2	0	NaN	2583865.8133943	NaN	2583866.7968036	2583867.31334448
60	23	0	0	90	36.1581920903955	36.241610738255	17	0.566726347953081	2	7	6	NaN	2	3	0.0190648399435654	1	1	NaN	102	2	39	1	121	221	321	NaN	521	2.2891610278748	1	0	NaN	2583873.0474482	NaN	2583874.0308498	2583874.54739667
60	23	0	0	90	36.1581920903955	36.241610738255	12	0.400042127966881	2	8	6	NaN	2	5	0.0190648399435654	1	1	NaN	103	2	40	1	121	221	321	NaN	521	1.15301707666367	2	1	NaN	2583877.6478867	NaN	2583878.6312857	2583879.14784352
60	23	0	0	90	36.1581920903955	36.241610738255	11	0.366705283969641	2	12	6	NaN	2	5	0.0190648399435654	1	1	NaN	104	2	41	1	121	221	321	NaN	521	4.45361032802612	1	0	NaN	2583881.1149027	NaN	2583882.0983112	2583882.61485587
60	23	0	0	90	36.1581920903955	36.241610738255	10	0.333368439972401	2	11	1	NaN	2	4	0.0190648399435654	1	1	NaN	105	2	42	1	121	221	321	NaN	521	1.75064049242064	2	1	NaN	2583887.8820867	NaN	2583888.865638	2583889.38218441
60	23	0	0	90	36.1581920903955	36.241610738255	11	0.366705283969641	2	10	1	NaN	2	5	0.0190648399435654	1	1	NaN	106	2	43	1	121	221	321	NaN	521	3.43528232816607	2	1	NaN	2583891.9493031	NaN	2583892.9326986	2583893.44924527
60	23	0	0	90	36.1581920903955	36.241610738255	9	0.300031595975161	2	7	3	NaN	2	5	0.0190648399435654	1	1	NaN	107	2	44	1	121	221	321	NaN	521	1.58047112450004	2	1	NaN	2583897.6997398	NaN	2583898.683275	2583899.19981498
60	23	0	0	90	36.1581920903955	36.241610738255	19	0.633400035947561	2	6	6	NaN	1	4	0.0190648399435654	1	1	NaN	108	2	45	1	121	221	321	NaN	521	0.856181928422302	1	1	NaN	2583901.6002608	NaN	2583902.5836457	2583903.10020107
60	23	0	0	90	36.1581920903955	36.241610738255	20	0.666736879944801	2	10	6	NaN	2	4	0.0190648399435654	1	1	NaN	109	2	46	1	121	221	321	NaN	521	3.51355197653174	2	1	NaN	2583904.767212	NaN	2583905.7506177	2583906.26717442
60	23	0	0	90	36.1581920903955	36.241610738255	13	0.433378971964121	2	2	4	NaN	1	5	0.0190648399435654	1	1	NaN	110	2	47	1	121	221	321	NaN	521	2.93619182799011	2	0	NaN	2583910.584353	NaN	2583911.5678658	2583912.08442197
60	23	0	0	90	36.1581920903955	36.241610738255	22	0.733410567939281	2	8	2	NaN	2	4	0.0190648399435654	1	1	NaN	111	2	48	1	121	221	321	NaN	521	4.04543917207047	1	0	NaN	2583915.8349671	NaN	2583916.818383	2583917.33492573
60	23	0	0	90	36.1581920903955	36.241610738255	19	0.633400035947561	2	11	6	NaN	2	3	0.0190648399435654	1	1	NaN	112	2	49	1	121	221	321	NaN	521	2.87851032800972	1	0	NaN	2583922.2022776	NaN	2583923.1856745	2583923.70222907
60	23	0	0	90	36.1581920903955	36.241610738255	25	0.833421099931002	2	8	4	NaN	2	5	0.0190648399435654	1	1	NaN	113	2	50	1	121	221	321	NaN	521	3.83898542448878	1	0	NaN	2583927.386153	NaN	2583928.3695099	2583928.88607498
60	23	0	0	90	36.1581920903955	36.241610738255	13	0.433378971964121	2	5	4	NaN	1	4	0.0190648399435654	1	1	NaN	114	2	51	1	121	221	321	NaN	521	2.66436258051544	2	0	NaN	2583933.5367233	NaN	2583934.520123	2583935.03667882
60	23	0	0	90	36.1581920903955	36.241610738255	19	0.633400035947561	2	1	1	NaN	1	3	0.0190648399435654	1	1	NaN	115	2	52	1	121	221	321	NaN	521	6.08077167673036	2	0	NaN	2583938.5038644	NaN	2583939.4872759	2583940.00382782
60	23	0	0	90	36.1581920903955	36.241610738255	24	0.800084255933762	2	12	1	NaN	2	5	0.0190648399435654	1	1	NaN	116	2	53	1	121	221	321	NaN	521	3.93584768008441	2	1	NaN	2583946.904705	NaN	2583947.8880956	2583948.40466942
60	23	0	0	90	36.1581920903955	36.241610738255	10	0.333368439972401	2	3	5	NaN	1	4	0.0190648399435654	1	1	NaN	117	2	54	1	121	221	321	NaN	521	1.38969837641343	2	0	NaN	2583953.1553118	NaN	2583954.1387143	2583954.65527152
60	23	0	0	90	36.1581920903955	36.241610738255	0	0	1	6	1	NaN	1	3	0.0190648399435654	1	1	NaN	118	2	55	1	111	211	311	NaN	511	1.38530247658491	1	1	NaN	2583956.8557604	NaN	2583957.8390898	2583958.35562922
60	23	0	0	90	36.1581920903955	36.241610738255	11	0.366705283969641	2	10	5	NaN	2	3	0.0190648399435654	1	1	NaN	119	2	56	1	121	221	321	NaN	521	2.46100912429392	1	0	NaN	2583960.5559342	NaN	2583961.5395141	2583962.05599348
60	23	0	0	90	36.1581920903955	36.241610738255	21	0.700073723942041	2	12	4	NaN	2	3	0.0190648399435654	1	1	NaN	120	2	57	1	121	221	321	NaN	521	1.11760342819616	2	1	NaN	2583965.3230388	NaN	2583966.306559	2583966.82312647
60	23	0	0	90	36.1581920903955	36.241610738255	15	0.500052659958601	2	4	6	NaN	1	4	0.0190648399435654	1	1	NaN	121	2	58	1	121	221	321	NaN	521	2.55579887656495	1	1	NaN	2583968.7567212	NaN	2583969.7402587	2583970.25680502
60	23	0	0	90	36.1581920903955	36.241610738255	14	0.466715815961361	2	4	1	NaN	1	4	0.0190648399435654	1	1	NaN	122	2	59	1	121	221	321	NaN	521	1.27308612782508	2	0	NaN	2583973.6239983	NaN	2583974.6073932	2583975.12395437
60	23	0	0	90	36.1581920903955	36.241610738255	0	0	1	8	6	NaN	2	3	0.0190648399435654	1	1	NaN	123	2	60	1	111	211	311	NaN	511	3.34694437682629	2	1	NaN	2583977.3577339	NaN	2583978.3411897	2583978.85765032
60	23	0	0	90	36.1581920903955	36.241610738255	16	0.533389503955841	2	2	4	NaN	1	3	0.0190648399435654	1	1	NaN	124	2	61	1	121	221	321	NaN	521	6.78392367623746	1	1	NaN	2583983.0249284	NaN	2583984.0083211	2583984.52486642
60	23	0	0	90	36.1581920903955	36.241610738255	7	0.23335790798068	2	2	4	NaN	1	4	0.0190648399435654	1	1	NaN	125	2	62	1	121	221	321	NaN	521	3.21084737638012	2	0	NaN	2583992.1256813	NaN	2583993.10921	2583993.62576992
60	23	0	0	90	36.1581920903955	36.241610738255	18	0.600063191950321	2	6	1	NaN	1	5	0.0190648399435654	1	1	NaN	126	2	63	1	121	221	321	NaN	521	1.05378582794219	1	1	NaN	2583997.6430343	NaN	2583998.6264304	2583999.14297117
60	23	0	0	90	36.1581920903955	36.241610738255	17	0.566726347953081	2	6	4	NaN	1	5	0.0190648399435654	1	1	NaN	127	3	1	1	121	221	321	NaN	521	2.40773777617142	2	0	NaN	2584031.1130076	NaN	2584032.0963627	2584032.61292612
60	23	0	0	90	36.1581920903955	36.241610738255	17	0.566726347953081	2	1	6	NaN	1	3	0.0190648399435654	1	1	NaN	128	3	2	1	121	221	321	NaN	521	3.35440292814746	2	0	NaN	2584035.8301458	NaN	2584036.8135036	2584037.33006687
60	23	0	0	90	36.1581920903955	36.241610738255	16	0.533389503955841	2	1	4	NaN	1	5	0.0190648399435654	1	1	NaN	129	3	3	1	121	221	321	NaN	521	1.3832887285389	1	1	NaN	2584041.4972293	NaN	2584042.4807411	2584042.99729327
60	23	0	0	90	36.1581920903955	36.241610738255	21	0.700073723942041	2	1	6	NaN	1	5	0.0190648399435654	1	1	NaN	130	3	4	1	121	221	321	NaN	521	4.49109132448211	1	1	NaN	2584045.1976948	NaN	2584046.1811107	2584046.69764908
60	23	0	0	90	36.1581920903955	36.241610738255	7	0.23335790798068	2	9	5	NaN	2	4	0.0190648399435654	1	1	NaN	131	3	5	1	121	221	321	NaN	521	2.58669823221862	2	1	NaN	2584051.9982822	NaN	2584052.98177	2584053.49831817
60	23	0	0	90	36.1581920903955	36.241610738255	21	0.700073723942041	2	4	1	NaN	1	5	0.0190648399435654	1	1	NaN	132	3	6	1	121	221	321	NaN	521	1.25431752810255	1	1	NaN	2584056.8988453	NaN	2584057.8822381	2584058.39880327
60	23	0	0	90	36.1581920903955	36.241610738255	20	0.666736879944801	2	1	5	NaN	1	5	0.0190648399435654	1	1	NaN	133	3	7	1	121	221	321	NaN	521	3.14297452848405	2	0	NaN	2584060.465873	NaN	2584061.4492757	2584061.96581877
60	23	0	0	90	36.1581920903955	36.241610738255	16	0.533389503955841	2	9	3	NaN	2	5	0.0190648399435654	1	1	NaN	134	3	8	1	121	221	321	NaN	521	4.90771242417395	2	1	NaN	2584065.9330659	NaN	2584066.916482	2584067.43302638
60	23	0	0	90	36.1581920903955	36.241610738255	24	0.800084255933762	2	7	4	NaN	2	5	0.0190648399435654	1	1	NaN	135	3	9	1	121	221	321	NaN	521	2.17824592813849	2	1	NaN	2584073.1504632	NaN	2584074.1338495	2584074.65039477
60	23	0	0	90	36.1581920903955	36.241610738255	16	0.533389503955841	2	4	6	NaN	1	3	0.0190648399435654	1	1	NaN	136	3	10	1	121	221	321	NaN	521	3.09404544020072	1	1	NaN	2584077.650756	NaN	2584078.63428	2584079.15084346
60	23	0	0	90	36.1581920903955	36.241610738255	22	0.733410567939281	2	11	1	NaN	2	5	0.0190648399435654	1	1	NaN	137	3	11	1	121	221	321	NaN	521	2.88475892832503	2	1	NaN	2584083.0680976	NaN	2584084.0514878	2584084.56803917
60	23	0	0	90	36.1581920903955	36.241610738255	10	0.333368439972401	2	4	4	NaN	1	3	0.0190648399435654	1	1	NaN	138	3	12	1	121	221	321	NaN	521	0.828581024426967	1	1	NaN	2584088.268589	NaN	2584089.2520066	2584089.76854778
60	23	0	0	90	36.1581920903955	36.241610738255	18	0.600063191950321	2	2	3	NaN	1	5	0.0190648399435654	1	1	NaN	139	3	13	1	121	221	321	NaN	521	0.862555727828294	1	1	NaN	2584091.4021102	NaN	2584092.3856457	2584092.90219287
60	23	0	0	90	36.1581920903955	36.241610738255	16	0.533389503955841	2	1	5	NaN	1	5	0.0190648399435654	1	1	NaN	140	3	14	1	121	221	321	NaN	521	2.76811792422086	1	1	NaN	2584094.5690772	NaN	2584095.5526148	2584096.06917038
60	23	0	0	90	36.1581920903955	36.241610738255	8	0.266694751977921	2	2	1	NaN	1	5	0.0190648399435654	1	1	NaN	141	3	15	1	121	221	321	NaN	521	6.05978572834283	2	0	NaN	2584099.6530779	NaN	2584100.6364658	2584101.15300607
60	23	0	0	90	36.1581920903955	36.241610738255	25	0.833421099931002	2	3	3	NaN	1	5	0.0190648399435654	1	1	NaN	142	3	16	1	121	221	321	NaN	521	1.54865452786908	1	1	NaN	2584108.0205284	NaN	2584109.0039387	2584109.52049467
60	23	0	0	90	36.1581920903955	36.241610738255	23	0.766747411936522	2	1	6	NaN	1	5	0.0190648399435654	1	1	NaN	143	3	17	1	121	221	321	NaN	521	4.10518132802099	2	0	NaN	2584111.8874628	NaN	2584112.8709707	2584113.38753387
60	23	0	0	90	36.1581920903955	36.241610738255	7	0.23335790798068	2	11	6	NaN	2	3	0.0190648399435654	1	1	NaN	144	3	18	1	121	221	321	NaN	521	2.00046044029295	1	0	NaN	2584118.3047665	NaN	2584119.2882776	2584119.80484826
60	23	0	0	90	36.1581920903955	36.241610738255	22	0.733410567939281	2	8	2	NaN	2	4	0.0190648399435654	1	1	NaN	145	3	19	1	121	221	321	NaN	521	2.03479978023097	2	1	NaN	2584122.6219954	NaN	2584123.6053705	2584124.12193052
60	23	0	0	90	36.1581920903955	36.241610738255	21	0.700073723942041	2	2	2	NaN	1	5	0.0190648399435654	1	1	NaN	146	3	20	1	121	221	321	NaN	521	2.26843737624586	2	0	NaN	2584126.9724078	NaN	2584127.9558055	2584128.47236182
60	23	0	0	90	36.1581920903955	36.241610738255	18	0.600063191950321	2	2	6	NaN	1	5	0.0190648399435654	1	1	NaN	147	3	21	1	121	221	321	NaN	521	1.54870908008888	1	1	NaN	2584131.5561837	NaN	2584132.5395937	2584133.05614652
60	23	0	0	90	36.1581920903955	36.241610738255	24	0.800084255933762	2	1	4	NaN	1	5	0.0190648399435654	1	1	NaN	148	3	22	1	121	221	321	NaN	521	2.83352313190699	1	1	NaN	2584135.4232372	NaN	2584136.4066334	2584136.92318707
60	23	0	0	90	36.1581920903955	36.241610738255	19	0.633400035947561	2	5	2	NaN	1	3	0.0190648399435654	1	1	NaN	149	3	23	1	121	221	321	NaN	521	2.54713148018345	2	0	NaN	2584140.5737549	NaN	2584141.5571403	2584142.07369962
60	23	0	0	90	36.1581920903955	36.241610738255	23	0.766747411936522	2	5	5	NaN	1	3	0.0190648399435654	1	1	NaN	150	3	24	1	121	221	321	NaN	521	3.265071824193	1	1	NaN	2584145.4242182	NaN	2584146.4076167	2584146.92417538
60	23	0	0	90	36.1581920903955	36.241610738255	21	0.700073723942041	2	2	2	NaN	1	4	0.0190648399435654	1	1	NaN	151	3	25	1	121	221	321	NaN	521	2.68081712815911	2	0	NaN	2584151.0081044	NaN	2584151.9915296	2584152.50805047
60	23	0	0	90	36.1581920903955	36.241610738255	15	0.500052659958601	2	1	3	NaN	1	3	0.0190648399435654	1	1	NaN	152	3	26	1	121	221	321	NaN	521	2.9843019284308	1	1	NaN	2584156.0086898	NaN	2584156.991986	2584157.50854767
60	23	0	0	90	36.1581920903955	36.241610738255	13	0.433378971964121	2	10	6	NaN	2	3	0.0190648399435654	1	1	NaN	153	3	27	1	121	221	321	NaN	521	4.10758632840589	1	0	NaN	2584161.3089984	NaN	2584162.2925214	2584162.80906407
60	23	0	0	90	36.1581920903955	36.241610738255	24	0.800084255933762	2	5	1	NaN	1	3	0.0190648399435654	1	1	NaN	154	3	28	1	121	221	321	NaN	521	5.14691252401099	2	0	NaN	2584167.7262863	NaN	2584168.7098614	2584169.22635908
60	23	0	0	90	36.1581920903955	36.241610738255	15	0.500052659958601	2	8	2	NaN	2	5	0.0190648399435654	1	1	NaN	155	3	29	1	121	221	321	NaN	521	3.39107478037477	1	0	NaN	2584175.1938141	NaN	2584176.1772052	2584176.69376822
60	23	0	0	90	36.1581920903955	36.241610738255	19	0.633400035947561	2	4	6	NaN	1	3	0.0190648399435654	1	1	NaN	156	3	30	1	121	221	321	NaN	521	2.05860597686842	1	1	NaN	2584180.8943692	NaN	2584181.8778078	2584182.39432762
60	23	0	0	90	36.1581920903955	36.241610738255	25	0.833421099931002	2	5	5	NaN	1	3	0.0190648399435654	1	1	NaN	157	3	31	1	121	221	321	NaN	521	2.37950168037787	2	0	NaN	2584185.261478	NaN	2584186.2448778	2584186.76142372
60	23	0	0	90	36.1581920903955	36.241610738255	19	0.633400035947561	2	5	2	NaN	1	5	0.0190648399435654	1	1	NaN	158	3	32	1	121	221	321	NaN	521	3.08749822806567	2	0	NaN	2584189.9452596	NaN	2584190.9286686	2584191.44521607
60	23	0	0	90	36.1581920903955	36.241610738255	8	0.266694751977921	2	10	1	NaN	2	4	0.0190648399435654	1	1	NaN	159	3	33	1	121	221	321	NaN	521	1.13518798025325	1	0	NaN	2584195.3459044	NaN	2584196.3291944	2584196.84574622
60	23	0	0	90	36.1581920903955	36.241610738255	6	0.20002106398344	2	8	1	NaN	2	5	0.0190648399435654	1	1	NaN	160	3	34	1	121	221	321	NaN	521	2.29284392809495	1	0	NaN	2584198.7960886	NaN	2584199.779528	2584200.29608507
60	23	0	0	90	36.1581920903955	36.241610738255	12	0.400042127966881	2	6	3	NaN	1	3	0.0190648399435654	1	1	NaN	161	3	35	1	121	221	321	NaN	521	2.25269402796403	2	0	NaN	2584203.3965995	NaN	2584204.3799838	2584204.89653497
60	23	0	0	90	36.1581920903955	36.241610738255	7	0.23335790798068	2	10	2	NaN	2	4	0.0190648399435654	1	1	NaN	162	3	36	1	121	221	321	NaN	521	1.69344757217914	1	0	NaN	2584207.9636934	NaN	2584208.9470968	2584209.46363933
60	23	0	0	90	36.1581920903955	36.241610738255	17	0.566726347953081	2	5	4	NaN	1	3	0.0190648399435654	1	1	NaN	163	3	37	1	121	221	321	NaN	521	2.50909368041903	1	1	NaN	2584211.9640984	NaN	2584212.9475597	2584213.46404372
60	23	0	0	90	36.1581920903955	36.241610738255	0	0	1	1	5	NaN	1	3	0.0190648399435654	1	1	NaN	164	3	38	1	111	211	311	NaN	511	2.45211707614362	2	0	NaN	2584216.7811021	NaN	2584217.7645194	2584218.28118992
60	23	0	0	90	36.1581920903955	36.241610738255	24	0.800084255933762	2	12	3	NaN	2	3	0.0190648399435654	1	1	NaN	165	3	39	1	121	221	321	NaN	521	6.2046191804111	1	0	NaN	2584221.5483712	NaN	2584222.5317806	2584223.04832162
60	23	0	0	90	36.1581920903955	36.241610738255	24	0.800084255933762	2	8	1	NaN	2	3	0.0190648399435654	1	1	NaN	166	3	40	1	121	221	321	NaN	521	1.6395601243712	2	1	NaN	2584230.0658672	NaN	2584231.0492993	2584231.56581158
60	23	0	0	90	36.1581920903955	36.241610738255	17	0.566726347953081	2	2	3	NaN	1	5	0.0190648399435654	1	1	NaN	167	3	41	1	121	221	321	NaN	521	1.84060829225928	1	1	NaN	2584234.0162634	NaN	2584234.9996559	2584235.51621591
60	23	0	0	90	36.1581920903955	36.241610738255	16	0.533389503955841	2	3	4	NaN	1	5	0.0190648399435654	1	1	NaN	168	3	42	1	121	221	321	NaN	521	1.49874592432752	1	1	NaN	2584238.1666957	NaN	2584239.1500694	2584239.66660798
60	23	0	0	90	36.1581920903955	36.241610738255	0	0	1	9	4	NaN	2	4	0.0190648399435654	1	1	NaN	169	3	43	1	111	211	311	NaN	511	2.20958352833986	1	0	NaN	2584241.9837543	NaN	2584242.9671071	2584243.48365617
60	23	0	0	90	36.1581920903955	36.241610738255	10	0.333368439972401	2	8	3	NaN	2	5	0.0190648399435654	1	1	NaN	170	3	44	1	121	221	321	NaN	521	2.22864352446049	2	1	NaN	2584246.5007091	NaN	2584247.4842288	2584248.00077188
60	23	0	0	90	36.1581920903955	36.241610738255	0	0	1	2	5	NaN	1	5	0.0190648399435654	1	1	NaN	171	3	45	1	111	211	311	NaN	511	2.117728528101	2	0	NaN	2584251.0512682	NaN	2584252.0346711	2584252.55121747
60	23	0	0	90	36.1581920903955	36.241610738255	12	0.400042127966881	2	4	3	NaN	1	3	0.0190648399435654	1	1	NaN	172	3	46	1	121	221	321	NaN	521	2.30802182853222	1	1	NaN	2584255.4849388	NaN	2584256.468429	2584256.98498937
60	23	0	0	90	36.1581920903955	36.241610738255	8	0.266694751977921	2	8	5	NaN	2	4	0.0190648399435654	1	1	NaN	173	3	47	1	121	221	321	NaN	521	2.60334698017687	1	0	NaN	2584260.1021795	NaN	2584261.0855636	2584261.60211102
60	23	0	0	90	36.1581920903955	36.241610738255	7	0.23335790798068	2	12	4	NaN	2	5	0.0190648399435654	1	1	NaN	174	3	48	1	121	221	321	NaN	521	1.58983308821917	2	1	NaN	2584265.0192171	NaN	2584266.0027145	2584266.51925221
60	23	0	0	90	36.1581920903955	36.241610738255	10	0.333368439972401	2	3	6	NaN	1	4	0.0190648399435654	1	1	NaN	175	3	49	1	121	221	321	NaN	521	1.20992762828246	1	1	NaN	2584268.9197204	NaN	2584269.9031004	2584270.41963577
60	23	0	0	90	36.1581920903955	36.241610738255	12	0.400042127966881	2	3	5	NaN	1	5	0.0190648399435654	1	1	NaN	176	3	50	1	121	221	321	NaN	521	1.30031927628443	2	0	NaN	2584272.4366943	NaN	2584273.4201435	2584273.93664272
60	23	0	0	90	36.1581920903955	36.241610738255	0	0	1	1	4	NaN	1	5	0.0190648399435654	1	1	NaN	177	3	51	1	111	211	311	NaN	511	4.33949618041515	2	0	NaN	2584276.0537274	NaN	2584277.0371487	2584277.55367652
60	23	0	0	90	36.1581920903955	36.241610738255	13	0.433378971964121	2	10	5	NaN	2	3	0.0190648399435654	1	1	NaN	178	3	52	1	121	221	321	NaN	521	1.48917257646099	2	1	NaN	2584282.7042453	NaN	2584283.6877796	2584284.20432522
60	23	0	0	90	36.1581920903955	36.241610738255	14	0.466715815961361	2	10	2	NaN	2	3	0.0190648399435654	1	1	NaN	179	3	53	1	121	221	321	NaN	521	2.09640878019854	2	1	NaN	2584286.504769	NaN	2584287.4881807	2584288.00470672
60	23	0	0	90	36.1581920903955	36.241610738255	13	0.433378971964121	2	7	2	NaN	2	5	0.0190648399435654	1	1	NaN	180	3	54	1	121	221	321	NaN	521	2.63161842478439	2	1	NaN	2584290.9217289	NaN	2584291.905256	2584292.42179878
60	23	0	0	90	36.1581920903955	36.241610738255	23	0.766747411936522	2	12	5	NaN	2	4	0.0190648399435654	1	1	NaN	181	3	55	1	121	221	321	NaN	521	3.2732014246285	2	1	NaN	2584295.8723459	NaN	2584296.8557397	2584297.37228788
60	23	0	0	90	36.1581920903955	36.241610738255	14	0.466715815961361	2	3	1	NaN	1	4	0.0190648399435654	1	1	NaN	182	3	56	1	121	221	321	NaN	521	2.67289267620072	1	1	NaN	2584301.4562241	NaN	2584302.439611	2584302.95618932
60	23	0	0	90	36.1581920903955	36.241610738255	22	0.733410567939281	2	9	4	NaN	2	4	0.0190648399435654	1	1	NaN	183	3	57	1	121	221	321	NaN	521	2.51313372794539	2	1	NaN	2584306.4400486	NaN	2584307.4234489	2584307.93998597
60	23	0	0	90	36.1581920903955	36.241610738255	11	0.366705283969641	2	6	1	NaN	1	4	0.0190648399435654	1	1	NaN	184	3	58	1	121	221	321	NaN	521	2.69636267609894	1	1	NaN	2584311.2570568	NaN	2584312.2406133	2584312.75713412
60	23	0	0	90	36.1581920903955	36.241610738255	9	0.300031595975161	2	12	4	NaN	2	3	0.0190648399435654	1	1	NaN	185	3	59	1	121	221	321	NaN	521	3.42337018763646	1	0	NaN	2584316.2576931	NaN	2584317.2410756	2584317.75762621
60	23	0	0	90	36.1581920903955	36.241610738255	11	0.366705283969641	2	11	5	NaN	2	3	0.0190648399435654	1	1	NaN	186	3	60	1	121	221	321	NaN	521	3.39371727639809	1	0	NaN	2584321.9915689	NaN	2584322.9749618	2584323.49152132
60	23	0	0	90	36.1581920903955	36.241610738255	18	0.600063191950321	2	4	4	NaN	1	3	0.0190648399435654	1	1	NaN	187	3	61	1	121	221	321	NaN	521	5.6371375285089	1	1	NaN	2584327.6920128	NaN	2584328.6755567	2584329.19208127
60	23	0	0	90	36.1581920903955	36.241610738255	19	0.633400035947561	2	2	1	NaN	1	4	0.0190648399435654	1	1	NaN	188	3	62	1	121	221	321	NaN	521	1.56630392419174	2	0	NaN	2584335.6429114	NaN	2584336.6263049	2584337.14285558
60	23	0	0	90	36.1581920903955	36.241610738255	24	0.800084255933762	2	10	1	NaN	2	4	0.0190648399435654	1	1	NaN	189	3	63	1	121	221	321	NaN	521	2.56300472840667	2	1	NaN	2584339.5266784	NaN	2584340.5100254	2584341.02657267
60	23	0	0	90	36.1581920903955	36.241610738255	23	0.766747411936522	2	4	6	NaN	1	5	0.0190648399435654	1	1	NaN	190	4	1	1	121	221	321	NaN	521	1.8706310284324	2	0	NaN	2584394.8987292	NaN	2584395.8821397	2584396.39867687
60	23	0	0	90	36.1581920903955	36.241610738255	16	0.533389503955841	2	11	1	NaN	2	5	0.0190648399435654	1	1	NaN	191	4	2	1	121	221	321	NaN	521	1.14272122457623	1	0	NaN	2584399.0824821	NaN	2584400.0658698	2584400.58242778
60	23	0	0	90	36.1581920903955	36.241610738255	20	0.666736879944801	2	7	1	NaN	2	5	0.0190648399435654	1	1	NaN	192	4	3	1	121	221	321	NaN	521	1.73284378042445	2	1	NaN	2584402.5326897	NaN	2584403.5162298	2584404.03276902
60	23	0	0	90	36.1581920903955	36.241610738255	7	0.23335790798068	2	1	2	NaN	1	4	0.0190648399435654	1	1	NaN	193	4	4	1	121	221	321	NaN	521	1.61046252446249	1	1	NaN	2584406.5832223	NaN	2584407.5666498	2584408.08316638
60	23	0	0	90	36.1581920903955	36.241610738255	23	0.766747411936522	2	6	1	NaN	1	3	0.0190648399435654	1	1	NaN	194	4	5	1	121	221	321	NaN	521	1.54112872807309	1	1	NaN	2584410.5002758	NaN	2584411.4837095	2584412.00021607
60	23	0	0	90	36.1581920903955	36.241610738255	7	0.23335790798068	2	8	6	NaN	2	3	0.0190648399435654	1	1	NaN	195	4	6	1	121	221	321	NaN	521	1.69858417613432	1	0	NaN	2584414.350688	NaN	2584415.3340599	2584415.85059162
60	23	0	0	90	36.1581920903955	36.241610738255	25	0.833421099931002	2	12	3	NaN	2	4	0.0190648399435654	1	1	NaN	196	4	7	1	121	221	321	NaN	521	2.00153052434325	1	0	NaN	2584418.3675931	NaN	2584419.351083	2584419.86765478
60	23	0	0	90	36.1581920903955	36.241610738255	14	0.466715815961361	2	1	4	NaN	1	3	0.0190648399435654	1	1	NaN	197	4	8	1	121	221	321	NaN	521	1.80489919194952	1	1	NaN	2584422.6848223	NaN	2584423.6681783	2584424.18475471
60	23	0	0	90	36.1581920903955	36.241610738255	17	0.566726347953081	2	3	3	NaN	1	3	0.0190648399435654	1	1	NaN	198	4	9	1	121	221	321	NaN	521	3.87990097654983	1	1	NaN	2584426.8017684	NaN	2584427.7852675	2584428.30181472
60	23	0	0	90	36.1581920903955	36.241610738255	13	0.433378971964121	2	9	6	NaN	2	3	0.0190648399435654	1	1	NaN	199	4	10	1	121	221	321	NaN	521	2.14388452423736	2	1	NaN	2584432.9857918	NaN	2584433.9692384	2584434.48576158
60	23	0	0	90	36.1581920903955	36.241610738255	12	0.400042127966881	2	12	1	NaN	2	4	0.0190648399435654	1	1	NaN	200	4	11	1	121	221	321	NaN	521	2.20519988052547	2	1	NaN	2584437.4361281	NaN	2584438.419641	2584438.93620242
60	23	0	0	90	36.1581920903955	36.241610738255	18	0.600063191950321	2	8	1	NaN	2	4	0.0190648399435654	1	1	NaN	201	4	12	1	121	221	321	NaN	521	2.45600592810661	1	0	NaN	2584441.9532292	NaN	2584442.9367795	2584443.45330837
60	23	0	0	90	36.1581920903955	36.241610738255	17	0.566726347953081	2	5	4	NaN	1	5	0.0190648399435654	1	1	NaN	202	4	13	1	121	221	321	NaN	521	4.04084604373202	2	0	NaN	2584446.7204998	NaN	2584447.7038879	2584448.22046386
60	23	0	0	90	36.1581920903955	36.241610738255	20	0.666736879944801	2	9	3	NaN	2	4	0.0190648399435654	1	1	NaN	203	4	14	1	121	221	321	NaN	521	1.95416027633473	2	1	NaN	2584453.0710013	NaN	2584454.0545257	2584454.57106552
60	23	0	0	90	36.1581920903955	36.241610738255	13	0.433378971964121	2	5	4	NaN	1	5	0.0190648399435654	1	1	NaN	204	4	15	1	121	221	321	NaN	521	2.67135717673227	2	0	NaN	2584457.3381832	NaN	2584458.3215837	2584458.83814562
60	23	0	0	90	36.1581920903955	36.241610738255	22	0.733410567939281	2	1	2	NaN	1	3	0.0190648399435654	1	1	NaN	205	4	16	1	121	221	321	NaN	521	1.99933322845027	1	1	NaN	2584462.3220206	NaN	2584463.3054221	2584463.82197967
60	23	0	0	90	36.1581920903955	36.241610738255	21	0.700073723942041	2	5	5	NaN	1	5	0.0190648399435654	1	1	NaN	206	4	17	1	121	221	321	NaN	521	1.96260712807998	1	1	NaN	2584466.6391181	NaN	2584467.6225158	2584468.13906117
60	23	0	0	90	36.1581920903955	36.241610738255	16	0.533389503955841	2	2	5	NaN	1	3	0.0190648399435654	1	1	NaN	207	4	18	1	121	221	321	NaN	521	2.65553872799501	2	0	NaN	2584470.9060553	NaN	2584471.8896671	2584472.40615637
60	23	0	0	90	36.1581920903955	36.241610738255	11	0.366705283969641	2	8	1	NaN	2	5	0.0190648399435654	1	1	NaN	208	4	19	1	121	221	321	NaN	521	1.04010028066114	2	1	NaN	2584475.873423	NaN	2584476.8567469	2584477.37331142
60	23	0	0	90	36.1581920903955	36.241610738255	23	0.766747411936522	2	7	2	NaN	2	3	0.0190648399435654	1	1	NaN	209	4	20	1	121	221	321	NaN	521	2.3443474243395	1	0	NaN	2584479.6569405	NaN	2584480.6404487	2584481.15701388
60	23	0	0	90	36.1581920903955	36.241610738255	18	0.600063191950321	2	1	5	NaN	1	4	0.0190648399435654	1	1	NaN	210	4	21	1	121	221	321	NaN	521	2.71831267187372	2	0	NaN	2584484.3073835	NaN	2584485.2909091	2584485.80746493
60	23	0	0	90	36.1581920903955	36.241610738255	23	0.766747411936522	2	8	4	NaN	2	4	0.0190648399435654	1	1	NaN	211	4	22	1	121	221	321	NaN	521	2.25219412799925	2	1	NaN	2584489.3413152	NaN	2584490.3247725	2584490.84129917
60	23	0	0	90	36.1581920903955	36.241610738255	14	0.466715815961361	2	7	6	NaN	2	3	0.0190648399435654	1	1	NaN	212	4	23	1	121	221	321	NaN	521	6.28501488035545	2	1	NaN	2584493.9084565	NaN	2584494.8918525	2584495.40841402
60	23	0	0	90	36.1581920903955	36.241610738255	6	0.20002106398344	2	5	4	NaN	1	5	0.0190648399435654	1	1	NaN	213	4	24	1	121	221	321	NaN	521	3.68430112442002	2	0	NaN	2584502.5092997	NaN	2584503.4927396	2584504.00924878
60	23	0	0	90	36.1581920903955	36.241610738255	24	0.800084255933762	2	9	3	NaN	2	3	0.0190648399435654	1	1	NaN	214	4	25	1	121	221	321	NaN	521	1.17165832826868	1	0	NaN	2584508.5099101	NaN	2584509.4932971	2584510.00984307
60	23	0	0	90	36.1581920903955	36.241610738255	13	0.433378971964121	2	12	5	NaN	2	4	0.0190648399435654	1	1	NaN	215	4	26	1	121	221	321	NaN	521	3.0720770242624	1	0	NaN	2584511.9935673	NaN	2584512.9769668	2584513.49352098
60	23	0	0	90	36.1581920903955	36.241610738255	10	0.333368439972401	2	11	5	NaN	2	5	0.0190648399435654	1	1	NaN	216	4	27	1	121	221	321	NaN	521	3.76808052835986	1	0	NaN	2584517.3774049	NaN	2584518.3608152	2584518.87737687
60	23	0	0	90	36.1581920903955	36.241610738255	7	0.23335790798068	2	7	5	NaN	2	5	0.0190648399435654	1	1	NaN	217	4	28	1	121	221	321	NaN	521	1.9320007241331	2	1	NaN	2584523.4614401	NaN	2584524.4447473	2584524.96131668
60	23	0	0	90	36.1581920903955	36.241610738255	14	0.466715815961361	2	5	1	NaN	1	4	0.0190648399435654	1	1	NaN	218	4	29	1	121	221	321	NaN	521	2.24965448025614	2	0	NaN	2584528.1118177	NaN	2584529.0952115	2584529.61177372
60	23	0	0	90	36.1581920903955	36.241610738255	15	0.500052659958601	2	6	6	NaN	1	5	0.0190648399435654	1	1	NaN	219	4	30	1	121	221	321	NaN	521	5.06692972453311	2	0	NaN	2584532.6789137	NaN	2584533.6623373	2584534.17888418
60	23	0	0	90	36.1581920903955	36.241610738255	9	0.300031595975161	2	3	2	NaN	1	5	0.0190648399435654	1	1	NaN	220	4	31	1	121	221	321	NaN	521	2.42648062808439	1	1	NaN	2584540.0629931	NaN	2584541.0463953	2584541.56294647
60	23	0	0	90	36.1581920903955	36.241610738255	6	0.20002106398344	2	12	6	NaN	2	3	0.0190648399435654	1	1	NaN	221	4	32	1	121	221	321	NaN	521	3.30067052459344	1	0	NaN	2584544.796792	NaN	2584545.7802207	2584546.29674358
60	23	0	0	90	36.1581920903955	36.241610738255	13	0.433378971964121	2	4	1	NaN	1	5	0.0190648399435654	1	1	NaN	222	4	33	1	121	221	321	NaN	521	4.31550652813166	1	1	NaN	2584550.4140491	NaN	2584551.3974101	2584551.91395807
60	23	0	0	90	36.1581920903955	36.241610738255	23	0.766747411936522	2	4	2	NaN	1	3	0.0190648399435654	1	1	NaN	223	4	34	1	121	221	321	NaN	521	2.6981267365627	1	1	NaN	2584557.0311976	NaN	2584558.0147282	2584558.53128006
60	23	0	0	90	36.1581920903955	36.241610738255	19	0.633400035947561	2	9	2	NaN	2	5	0.0190648399435654	1	1	NaN	224	4	35	1	121	221	321	NaN	521	5.89685502834618	2	1	NaN	2584562.448498	NaN	2584563.431974	2584563.94847387
60	23	0	0	90	36.1581920903955	36.241610738255	22	0.733410567939281	2	1	6	NaN	1	4	0.0190648399435654	1	1	NaN	225	4	36	1	121	221	321	NaN	521	3.10338332457468	2	0	NaN	2584570.6659914	NaN	2584571.6494225	2584572.16595158
60	23	0	0	90	36.1581920903955	36.241610738255	0	0	1	7	5	NaN	2	5	0.0190648399435654	1	1	NaN	226	4	37	1	111	211	311	NaN	511	3.05476066051051	2	1	NaN	2584576.0831952	NaN	2584577.0665984	2584577.58314374
60	23	0	0	90	36.1581920903955	36.241610738255	18	0.600063191950321	2	9	5	NaN	2	5	0.0190648399435654	1	1	NaN	227	4	38	1	121	221	321	NaN	521	2.24723372841254	1	0	NaN	2584581.4503847	NaN	2584582.4338097	2584582.95034797
60	23	0	0	90	36.1581920903955	36.241610738255	0	0	1	2	2	NaN	1	4	0.0190648399435654	1	1	NaN	228	4	39	1	111	211	311	NaN	511	2.04036767687649	1	1	NaN	2584586.0174295	NaN	2584587.0008897	2584587.51745392
60	23	0	0	90	36.1581920903955	36.241610738255	17	0.566726347953081	2	2	6	NaN	1	3	0.0190648399435654	1	1	NaN	229	4	40	1	121	221	321	NaN	521	4.30604453990236	1	1	NaN	2584590.3680186	NaN	2584591.3513296	2584591.86788376
60	23	0	0	90	36.1581920903955	36.241610738255	23	0.766747411936522	2	11	2	NaN	2	5	0.0190648399435654	1	1	NaN	230	4	41	1	121	221	321	NaN	521	4.10468522831798	1	0	NaN	2584596.9853483	NaN	2584597.9686581	2584598.48520217
60	23	0	0	90	36.1581920903955	36.241610738255	16	0.533389503955841	2	10	5	NaN	2	4	0.0190648399435654	1	1	NaN	231	4	42	1	121	221	321	NaN	521	3.59100272413343	1	0	NaN	2584603.4025391	NaN	2584604.3859586	2584604.90249968
60	23	0	0	90	36.1581920903955	36.241610738255	6	0.20002106398344	2	8	5	NaN	2	5	0.0190648399435654	1	1	NaN	232	4	43	1	121	221	321	NaN	521	2.10658292798325	2	1	NaN	2584609.3031316	NaN	2584610.2865294	2584610.80307227
60	23	0	0	90	36.1581920903955	36.241610738255	11	0.366705283969641	2	12	4	NaN	2	5	0.0190648399435654	1	1	NaN	233	4	44	1	121	221	321	NaN	521	4.76135708065704	1	0	NaN	2584613.7201287	NaN	2584614.7036774	2584615.22017142
60	23	0	0	90	36.1581920903955	36.241610738255	12	0.400042127966881	2	8	5	NaN	2	4	0.0190648399435654	1	1	NaN	234	4	45	1	121	221	321	NaN	521	2.90993587207049	2	1	NaN	2584620.7875177	NaN	2584621.7709992	2584622.28753553
60	23	0	0	90	36.1581920903955	36.241610738255	15	0.500052659958601	2	4	5	NaN	1	5	0.0190648399435654	1	1	NaN	235	4	46	1	121	221	321	NaN	521	4.50134342815727	1	1	NaN	2584626.004638	NaN	2584626.9881541	2584627.50472317
60	23	0	0	90	36.1581920903955	36.241610738255	24	0.800084255933762	2	11	6	NaN	2	4	0.0190648399435654	1	1	NaN	236	4	47	1	121	221	321	NaN	521	4.29262082790956	2	1	NaN	2584632.8054457	NaN	2584633.7888415	2584634.30538367
60	23	0	0	90	36.1581920903955	36.241610738255	6	0.20002106398344	2	11	4	NaN	2	5	0.0190648399435654	1	1	NaN	237	4	48	1	121	221	321	NaN	521	6.54787222808227	2	1	NaN	2584639.4060897	NaN	2584640.3894931	2584640.90603757
60	23	0	0	90	36.1581920903955	36.241610738255	9	0.300031595975161	2	2	5	NaN	1	5	0.0190648399435654	1	1	NaN	238	4	49	1	121	221	321	NaN	521	3.36008922802284	2	0	NaN	2584648.2736273	NaN	2584649.257021	2584649.77357297
60	23	0	0	90	36.1581920903955	36.241610738255	12	0.400042127966881	2	4	4	NaN	1	4	0.0190648399435654	1	1	NaN	239	4	50	1	121	221	321	NaN	521	3.0528055280447	1	1	NaN	2584653.9408201	NaN	2584654.924164	2584655.44079977
60	23	0	0	90	36.1581920903955	36.241610738255	13	0.433378971964121	2	9	2	NaN	2	3	0.0190648399435654	1	1	NaN	240	4	51	1	121	221	321	NaN	521	3.23809623206034	2	1	NaN	2584659.3080347	NaN	2584660.2914377	2584660.80799507
60	23	0	0	90	36.1581920903955	36.241610738255	11	0.366705283969641	2	11	4	NaN	2	4	0.0190648399435654	1	1	NaN	241	4	52	1	121	221	321	NaN	521	6.43938722414896	2	1	NaN	2584664.8585805	NaN	2584665.8419754	2584666.35853768
60	23	0	0	90	36.1581920903955	36.241610738255	10	0.333368439972401	2	8	3	NaN	2	3	0.0190648399435654	1	1	NaN	242	4	53	1	121	221	321	NaN	521	2.64827102841809	2	1	NaN	2584673.6094478	NaN	2584674.592849	2584675.10939407
60	23	0	0	90	36.1581920903955	36.241610738255	10	0.333368439972401	2	5	3	NaN	1	5	0.0190648399435654	1	1	NaN	243	4	54	1	121	221	321	NaN	521	3.1617659246549	1	1	NaN	2584678.5599429	NaN	2584679.5433314	2584680.05988248
60	23	0	0	90	36.1581920903955	36.241610738255	9	0.300031595975161	2	8	4	NaN	2	3	0.0190648399435654	1	1	NaN	244	4	55	1	121	221	321	NaN	521	1.82266272837296	2	1	NaN	2584684.0271057	NaN	2584685.0105383	2584685.52708127
60	23	0	0	90	36.1581920903955	36.241610738255	15	0.500052659958601	2	5	6	NaN	1	5	0.0190648399435654	1	1	NaN	245	4	56	1	121	221	321	NaN	521	4.78473697649315	2	0	NaN	2584688.1608612	NaN	2584689.1442831	2584689.66082762
60	23	0	0	90	36.1581920903955	36.241610738255	19	0.633400035947561	2	11	2	NaN	2	4	0.0190648399435654	1	1	NaN	246	4	57	1	121	221	321	NaN	521	5.58013592800125	1	0	NaN	2584695.2615898	NaN	2584696.2449688	2584696.76151817
60	23	0	0	90	36.1581920903955	36.241610738255	15	0.500052659958601	2	11	3	NaN	2	3	0.0190648399435654	1	1	NaN	247	4	58	1	121	221	321	NaN	521	3.20749372430146	2	1	NaN	2584703.162342	NaN	2584704.1457577	2584704.66228848
60	23	0	0	90	36.1581920903955	36.241610738255	21	0.700073723942041	2	4	4	NaN	1	3	0.0190648399435654	1	1	NaN	248	4	59	1	121	221	321	NaN	521	2.33808208024129	1	1	NaN	2584708.6795475	NaN	2584709.6629415	2584710.17950892
60	23	0	0	90	36.1581920903955	36.241610738255	23	0.766747411936522	2	11	6	NaN	2	3	0.0190648399435654	1	1	NaN	249	4	60	1	121	221	321	NaN	521	2.5202134763822	1	0	NaN	2584713.329869	NaN	2584714.3134102	2584714.82995202
60	23	0	0	90	36.1581920903955	36.241610738255	19	0.633400035947561	2	6	1	NaN	1	3	0.0190648399435654	1	1	NaN	250	4	61	1	121	221	321	NaN	521	1.12623642804101	1	1	NaN	2584718.1638279	NaN	2584719.1472218	2584719.66376997
60	23	0	0	90	36.1581920903955	36.241610738255	23	0.766747411936522	2	6	3	NaN	1	4	0.0190648399435654	1	1	NaN	251	4	62	1	121	221	321	NaN	521	1.8766560764052	1	1	NaN	2584721.597484	NaN	2584722.5808916	2584723.09743782
60	23	0	0	90	36.1581920903955	36.241610738255	18	0.600063191950321	2	3	1	NaN	1	4	0.0190648399435654	1	1	NaN	252	4	63	1	121	221	321	NaN	521	2.62058348022401	1	1	NaN	2584725.7812415	NaN	2584726.7646289	2584727.28118842
60	23	0	0	90	36.1581920903955	36.241610738255	6	0.20002106398344	2	9	3	NaN	2	4	0.0190648399435654	1	1	NaN	253	5	1	1	121	221	321	NaN	521	2.61190773220733	2	1	NaN	2584806.6058421	NaN	2584807.5892204	2584808.10579197
60	23	0	0	90	36.1581920903955	36.241610738255	25	0.833421099931002	2	4	5	NaN	1	5	0.0190648399435654	1	1	NaN	254	5	2	1	121	221	321	NaN	521	2.09424792416394	2	0	NaN	2584811.5397345	NaN	2584812.5230525	2584813.03960738
60	23	0	0	90	36.1581920903955	36.241610738255	9	0.300031595975161	2	11	3	NaN	2	5	0.0190648399435654	1	1	NaN	255	5	3	1	121	221	321	NaN	521	4.02149228006601	1	0	NaN	2584815.9567551	NaN	2584816.9401579	2584817.45671182
60	23	0	0	90	36.1581920903955	36.241610738255	17	0.566726347953081	2	1	3	NaN	1	4	0.0190648399435654	1	1	NaN	256	5	4	1	121	221	321	NaN	521	4.23940232442692	2	0	NaN	2584822.2907159	NaN	2584823.2741161	2584823.79066418
60	23	0	0	90	36.1581920903955	36.241610738255	25	0.833421099931002	2	6	4	NaN	1	5	0.0190648399435654	1	1	NaN	257	5	5	1	121	221	321	NaN	521	1.5368879805319	1	1	NaN	2584828.8413627	NaN	2584829.824749	2584830.34130732
60	23	0	0	90	36.1581920903955	36.241610738255	0	0	1	8	3	NaN	2	3	0.0190648399435654	1	1	NaN	258	5	6	1	111	211	311	NaN	511	3.93417092831805	1	0	NaN	2584832.6917301	NaN	2584833.675133	2584834.19168627
60	23	0	0	90	36.1581920903955	36.241610738255	6	0.20002106398344	2	2	2	NaN	1	3	0.0190648399435654	1	1	NaN	259	5	7	1	121	221	321	NaN	521	5.55560987628996	2	0	NaN	2584838.9423477	NaN	2584839.9258555	2584840.44228972
60	23	0	0	90	36.1581920903955	36.241610738255	11	0.366705283969641	2	9	6	NaN	2	5	0.0190648399435654	1	1	NaN	260	5	8	1	121	221	321	NaN	521	1.28009124007076	1	0	NaN	2584846.809733	NaN	2584847.7931854	2584848.30973356
60	23	0	0	90	36.1581920903955	36.241610738255	15	0.500052659958601	2	12	1	NaN	2	5	0.0190648399435654	1	1	NaN	261	5	9	1	121	221	321	NaN	521	2.91287828423083	1	0	NaN	2584850.3934794	NaN	2584851.3769209	2584851.89342302
60	23	0	0	90	36.1581920903955	36.241610738255	6	0.20002106398344	2	9	6	NaN	2	4	0.0190648399435654	1	1	NaN	262	5	10	1	121	221	321	NaN	521	5.57466542441398	2	1	NaN	2584855.6273218	NaN	2584856.6107103	2584857.12727028
60	23	0	0	90	36.1581920903955	36.241610738255	21	0.700073723942041	2	5	2	NaN	1	5	0.0190648399435654	1	1	NaN	263	5	11	1	121	221	321	NaN	521	2.78659878019243	1	1	NaN	2584863.5114386	NaN	2584864.4948265	2584865.01138162
60	23	0	0	90	36.1581920903955	36.241610738255	23	0.766747411936522	2	5	3	NaN	1	5	0.0190648399435654	1	1	NaN	264	5	12	1	121	221	321	NaN	521	2.10240242816508	1	1	NaN	2584868.6118867	NaN	2584869.5953222	2584870.11187417
60	23	0	0	90	36.1581920903955	36.241610738255	16	0.533389503955841	2	7	3	NaN	2	4	0.0190648399435654	1	1	NaN	265	5	13	1	121	221	321	NaN	521	7.08494882844388	1	0	NaN	2584873.0290287	NaN	2584874.012425	2584874.52897537
60	23	0	0	90	36.1581920903955	36.241610738255	25	0.833421099931002	2	10	4	NaN	2	5	0.0190648399435654	1	1	NaN	266	5	14	1	121	221	321	NaN	521	4.34044552454725	2	1	NaN	2584882.4299639	NaN	2584883.4133475	2584883.92989558
60	23	0	0	90	36.1581920903955	36.241610738255	22	0.733410567939281	2	3	4	NaN	1	4	0.0190648399435654	1	1	NaN	267	5	15	1	121	221	321	NaN	521	4.29782472830266	1	1	NaN	2584889.0804809	NaN	2584890.0640716	2584890.58055127
60	23	0	0	90	36.1581920903955	36.241610738255	20	0.666736879944801	2	6	4	NaN	1	3	0.0190648399435654	1	1	NaN	268	5	16	1	121	221	321	NaN	521	4.27246932778507	1	1	NaN	2584895.6979178	NaN	2584896.6813135	2584897.19787607
60	23	0	0	90	36.1581920903955	36.241610738255	19	0.633400035947561	2	2	6	NaN	1	3	0.0190648399435654	1	1	NaN	269	5	17	1	121	221	321	NaN	521	3.87251972826198	1	1	NaN	2584902.2818956	NaN	2584903.2653017	2584903.78184547
60	23	0	0	90	36.1581920903955	36.241610738255	22	0.733410567939281	2	6	6	NaN	1	3	0.0190648399435654	1	1	NaN	270	5	18	1	121	221	321	NaN	521	4.54444732423872	1	1	NaN	2584908.4659203	NaN	2584909.4492473	2584909.96578238
60	23	0	0	90	36.1581920903955	36.241610738255	15	0.500052659958601	2	2	2	NaN	1	3	0.0190648399435654	1	1	NaN	271	5	19	1	121	221	321	NaN	521	2.83746994426474	1	1	NaN	2584915.3165301	NaN	2584916.2999086	2584916.81646056
60	23	0	0	90	36.1581920903955	36.241610738255	15	0.500052659958601	2	7	1	NaN	2	4	0.0190648399435654	1	1	NaN	272	5	20	1	121	221	321	NaN	521	4.36719792429358	2	1	NaN	2584920.4670325	NaN	2584921.4504154	2584921.96697118
60	23	0	0	90	36.1581920903955	36.241610738255	9	0.300031595975161	2	7	2	NaN	2	3	0.0190648399435654	1	1	NaN	273	5	21	1	121	221	321	NaN	521	3.49946837220341	2	1	NaN	2584927.1511392	NaN	2584928.134432	2584928.65095873
60	23	0	0	90	36.1581920903955	36.241610738255	0	0	1	12	5	NaN	2	4	0.0190648399435654	1	1	NaN	274	5	22	1	111	211	311	NaN	511	3.37779002822936	1	0	NaN	2584932.9682297	NaN	2584933.9516567	2584934.46820217
60	23	0	0	90	36.1581920903955	36.241610738255	20	0.666736879944801	2	2	5	NaN	1	4	0.0190648399435654	1	1	NaN	275	5	23	1	121	221	321	NaN	521	4.01399298058823	1	1	NaN	2584938.6521296	NaN	2584939.635537	2584940.15209162
60	23	0	0	90	36.1581920903955	36.241610738255	21	0.700073723942041	2	6	3	NaN	1	5	0.0190648399435654	1	1	NaN	276	5	24	1	121	221	321	NaN	521	1.69465933647007	1	1	NaN	2584945.0194355	NaN	2584946.0028214	2584946.51938946
60	23	0	0	90	36.1581920903955	36.241610738255	10	0.333368439972401	2	1	3	NaN	1	3	0.0190648399435654	1	1	NaN	277	5	25	1	121	221	321	NaN	521	6.97355153178796	2	0	NaN	2584949.0365027	NaN	2584950.0199182	2584950.53643507
60	23	0	0	90	36.1581920903955	36.241610738255	11	0.366705283969641	2	3	4	NaN	1	4	0.0190648399435654	1	1	NaN	278	5	26	1	121	221	321	NaN	521	2.2256978279911	1	1	NaN	2584958.3206068	NaN	2584959.3041206	2584959.82068877
60	23	0	0	90	36.1581920903955	36.241610738255	14	0.466715815961361	2	9	6	NaN	2	5	0.0190648399435654	1	1	NaN	279	5	27	1	121	221	321	NaN	521	4.08303452795371	1	0	NaN	2584962.8712873	NaN	2584963.8545942	2584964.37113107
60	23	0	0	90	36.1581920903955	36.241610738255	16	0.533389503955841	2	8	2	NaN	2	3	0.0190648399435654	1	1	NaN	280	5	28	1	121	221	321	NaN	521	4.06620432436466	2	1	NaN	2584969.2718009	NaN	2584970.2552041	2584970.77176058
60	23	0	0	90	36.1581920903955	36.241610738255	8	0.266694751977921	2	10	6	NaN	2	5	0.0190648399435654	1	1	NaN	281	5	29	1	121	221	321	NaN	521	6.45858442783356	2	1	NaN	2584975.6558098	NaN	2584976.6391721	2584977.15572217
60	23	0	0	90	36.1581920903955	36.241610738255	17	0.566726347953081	2	10	4	NaN	2	5	0.0190648399435654	1	1	NaN	282	5	30	1	121	221	321	NaN	521	3.23512882459909	1	0	NaN	2584984.4231761	NaN	2584985.4066936	2584985.92325018
60	23	0	0	90	36.1581920903955	36.241610738255	7	0.23335790798068	2	2	2	NaN	1	5	0.0190648399435654	1	1	NaN	283	5	31	1	121	221	321	NaN	521	2.19669308047742	1	1	NaN	2584989.9738457	NaN	2584990.9572513	2584991.47379952
60	23	0	0	90	36.1581920903955	36.241610738255	18	0.600063191950321	2	1	2	NaN	1	5	0.0190648399435654	1	1	NaN	284	5	32	1	121	221	321	NaN	521	4.05556012410671	1	1	NaN	2584994.4908051	NaN	2584995.474388	2584995.99090498
60	23	0	0	90	36.1581920903955	36.241610738255	7	0.23335790798068	2	9	5	NaN	2	5	0.0190648399435654	1	1	NaN	285	5	33	1	121	221	321	NaN	521	0.919845780357718	2	1	NaN	2585000.8582503	NaN	2585001.8416433	2585002.35820222
60	23	0	0	90	36.1581920903955	36.241610738255	25	0.833421099931002	2	3	3	NaN	1	4	0.0190648399435654	1	1	NaN	286	5	34	1	121	221	321	NaN	521	1.68615512410179	1	1	NaN	2585004.091991	NaN	2585005.0753067	2585005.59184078
60	23	0	0	90	36.1581920903955	36.241610738255	0	0	1	9	5	NaN	2	5	0.0190648399435654	1	1	NaN	287	5	35	1	111	211	311	NaN	511	4.31024387991056	2	1	NaN	2585008.0922896	NaN	2585009.0756968	2585009.59224612
60	23	0	0	90	36.1581920903955	36.241610738255	12	0.400042127966881	2	11	4	NaN	2	4	0.0190648399435654	1	1	NaN	288	5	36	1	121	221	321	NaN	521	4.10238232789561	2	1	NaN	2585026.4441337	NaN	2585027.4275105	2585027.94404907
60	23	0	0	90	36.1581920903955	36.241610738255	0	0	1	5	1	NaN	1	5	0.0190648399435654	1	1	NaN	289	5	37	1	111	211	311	NaN	511	1.69320992426947	1	1	NaN	2585032.861278	NaN	2585033.8447884	2585034.36135238
60	23	0	0	90	36.1581920903955	36.241610738255	23	0.766747411936522	2	1	1	NaN	1	3	0.0190648399435654	1	1	NaN	290	5	38	1	121	221	321	NaN	521	6.34816462825984	2	0	NaN	2585036.8784562	NaN	2585037.861852	2585038.37839357
60	23	0	0	90	36.1581920903955	36.241610738255	11	0.366705283969641	2	6	6	NaN	1	5	0.0190648399435654	1	1	NaN	291	5	39	1	121	221	321	NaN	521	3.5291680241935	2	0	NaN	2585045.529172	NaN	2585046.5127032	2585047.02924378
60	23	0	0	90	36.1581920903955	36.241610738255	10	0.333368439972401	2	2	3	NaN	1	4	0.0190648399435654	1	1	NaN	292	5	40	1	121	221	321	NaN	521	2.12730822805315	1	1	NaN	2585051.3632212	NaN	2585052.3465959	2585052.86315617
60	23	0	0	90	36.1581920903955	36.241610738255	10	0.333368439972401	2	12	4	NaN	2	5	0.0190648399435654	1	1	NaN	293	5	41	1	121	221	321	NaN	521	2.22936512809247	1	0	NaN	2585055.7968715	NaN	2585056.7804098	2585057.29692967
60	23	0	0	90	36.1581920903955	36.241610738255	25	0.833421099931002	2	10	3	NaN	2	4	0.0190648399435654	1	1	NaN	294	5	42	1	121	221	321	NaN	521	2.90346799604595	1	0	NaN	2585060.3307494	NaN	2585061.3141434	2585061.8307062
60	23	0	0	90	36.1581920903955	36.241610738255	22	0.733410567939281	2	7	5	NaN	2	4	0.0190648399435654	1	1	NaN	295	5	43	1	121	221	321	NaN	521	7.43050012830645	2	1	NaN	2585065.547926	NaN	2585066.5313336	2585067.04788607
60	23	0	0	90	36.1581920903955	36.241610738255	9	0.300031595975161	2	8	1	NaN	2	5	0.0190648399435654	1	1	NaN	296	5	44	1	121	221	321	NaN	521	1.82358302827924	2	1	NaN	2585075.2988908	NaN	2585076.2822919	2585076.79884427
60	23	0	0	90	36.1581920903955	36.241610738255	20	0.666736879944801	2	5	3	NaN	1	5	0.0190648399435654	1	1	NaN	297	5	45	1	121	221	321	NaN	521	2.0579735240899	1	1	NaN	2585079.4325854	NaN	2585080.4160427	2585080.93257498
60	23	0	0	90	36.1581920903955	36.241610738255	12	0.400042127966881	2	3	3	NaN	1	4	0.0190648399435654	1	1	NaN	298	5	46	1	121	221	321	NaN	521	1.97058352828026	1	1	NaN	2585083.7996868	NaN	2585084.7831216	2585085.29967347
60	23	0	0	90	36.1581920903955	36.241610738255	14	0.466715815961361	2	11	2	NaN	2	5	0.0190648399435654	1	1	NaN	299	5	47	1	121	221	321	NaN	521	6.39885232457891	2	1	NaN	2585088.0834792	NaN	2585089.0668853	2585089.58343358
60	23	0	0	90	36.1581920903955	36.241610738255	18	0.600063191950321	2	4	1	NaN	1	4	0.0190648399435654	1	1	NaN	300	5	48	1	121	221	321	NaN	521	3.73733422812074	1	1	NaN	2585096.8010335	NaN	2585097.7844262	2585098.30095167
60	23	0	0	90	36.1581920903955	36.241610738255	24	0.800084255933762	2	4	4	NaN	1	3	0.0190648399435654	1	1	NaN	301	5	49	1	121	221	321	NaN	521	6.71069602435455	2	0	NaN	2585102.851676	NaN	2585103.8350115	2585104.35154598
60	23	0	0	90	36.1581920903955	36.241610738255	13	0.433378971964121	2	2	4	NaN	1	3	0.0190648399435654	1	1	NaN	302	5	50	1	121	221	321	NaN	521	3.0935461842455	2	0	NaN	2585111.8691531	NaN	2585112.8525463	2585113.36909412
60	23	0	0	90	36.1581920903955	36.241610738255	8	0.266694751977921	2	11	5	NaN	2	5	0.0190648399435654	1	1	NaN	303	5	51	1	121	221	321	NaN	521	6.59168152837083	2	1	NaN	2585117.6029989	NaN	2585118.5864492	2585119.10300077
60	23	0	0	90	36.1581920903955	36.241610738255	24	0.800084255933762	2	2	2	NaN	1	5	0.0190648399435654	1	1	NaN	304	5	52	1	121	221	321	NaN	521	1.68274917639792	1	1	NaN	2585126.5039281	NaN	2585127.4873346	2585128.00386782
60	23	0	0	90	36.1581920903955	36.241610738255	22	0.733410567939281	2	12	6	NaN	2	5	0.0190648399435654	1	1	NaN	305	5	53	1	121	221	321	NaN	521	2.74644722463563	1	0	NaN	2585130.5042564	NaN	2585131.4877017	2585132.00426308
60	23	0	0	90	36.1581920903955	36.241610738255	19	0.633400035947561	2	12	5	NaN	2	3	0.0190648399435654	1	1	NaN	306	5	54	1	121	221	321	NaN	521	3.43917698040605	2	1	NaN	2585135.5714784	NaN	2585136.5548905	2585137.07143122
60	23	0	0	90	36.1581920903955	36.241610738255	15	0.500052659958601	2	3	6	NaN	1	4	0.0190648399435654	1	1	NaN	307	5	55	1	121	221	321	NaN	521	2.14433002471924	1	1	NaN	2585141.322032	NaN	2585142.3054408	2585142.82199238
60	23	0	0	90	36.1581920903955	36.241610738255	24	0.800084255933762	2	11	1	NaN	2	5	0.0190648399435654	1	1	NaN	308	5	56	1	121	221	321	NaN	521	3.27720782812685	2	1	NaN	2585145.7890785	NaN	2585146.7725942	2585147.28909447
60	23	0	0	90	36.1581920903955	36.241610738255	12	0.400042127966881	2	12	1	NaN	2	5	0.0190648399435654	1	1	NaN	309	5	57	1	121	221	321	NaN	521	4.70962202409282	2	1	NaN	2585151.372954	NaN	2585152.3564399	2585152.87296838
60	23	0	0	90	36.1581920903955	36.241610738255	25	0.833421099931002	2	2	3	NaN	1	3	0.0190648399435654	1	1	NaN	310	5	58	1	121	221	321	NaN	521	2.73201422858983	2	0	NaN	2585158.3903829	NaN	2585159.3737646	2585159.89033367
60	23	0	0	90	36.1581920903955	36.241610738255	20	0.666736879944801	2	1	1	NaN	1	5	0.0190648399435654	1	1	NaN	311	5	59	1	121	221	321	NaN	521	4.77750637661666	1	1	NaN	2585163.4409201	NaN	2585164.4242663	2585164.94082442
60	23	0	0	90	36.1581920903955	36.241610738255	6	0.20002106398344	2	1	6	NaN	1	5	0.0190648399435654	1	1	NaN	312	5	60	1	121	221	321	NaN	521	4.13268498051912	2	0	NaN	2585170.541577	NaN	2585171.5249954	2585172.04153152
60	23	0	0	90	36.1581920903955	36.241610738255	17	0.566726347953081	2	9	1	NaN	2	3	0.0190648399435654	1	1	NaN	313	5	61	1	121	221	321	NaN	521	3.55400377651677	1	0	NaN	2585176.9922018	NaN	2585177.9756311	2585178.49216132
60	23	0	0	90	36.1581920903955	36.241610738255	13	0.433378971964121	2	1	3	NaN	1	4	0.0190648399435654	1	1	NaN	314	5	62	1	121	221	321	NaN	521	4.70296008046716	2	0	NaN	2585182.8594449	NaN	2585183.8428626	2585184.35940852
60	23	0	0	90	36.1581920903955	36.241610738255	11	0.366705283969641	2	3	2	NaN	1	3	0.0190648399435654	1	1	NaN	315	5	63	1	121	221	321	NaN	521	4.07751922449097	1	1	NaN	2585189.8767956	NaN	2585190.8602033	2585191.37675868
60	23	0	0	90	36.1581920903955	36.241610738255	18	0.600063191950321	2	10	4	NaN	2	4	0.0190648399435654	1	1	NaN	316	6	1	1	121	221	321	NaN	521	3.15901922434568	2	1	NaN	2585235.1479496	NaN	2585236.1313137	2585236.64786448
60	23	0	0	90	36.1581920903955	36.241610738255	24	0.800084255933762	2	8	6	NaN	2	4	0.0190648399435654	1	1	NaN	317	6	2	1	121	221	321	NaN	521	7.05435862811282	2	1	NaN	2585240.9483581	NaN	2585241.9318784	2585242.44844257
60	23	0	0	90	36.1581920903955	36.241610738255	20	0.666736879944801	2	10	1	NaN	2	3	0.0190648399435654	1	1	NaN	318	6	3	1	121	221	321	NaN	521	0.854820024222136	1	0	NaN	2585250.3160717	NaN	2585251.2994733	2585251.81602608
60	23	0	0	90	36.1581920903955	36.241610738255	6	0.20002106398344	2	7	2	NaN	2	5	0.0190648399435654	1	1	NaN	319	6	4	1	121	221	321	NaN	521	0.775849228259176	2	1	NaN	2585253.4830593	NaN	2585254.4664536	2585254.98300077
60	23	0	0	90	36.1581920903955	36.241610738255	7	0.23335790798068	2	11	3	NaN	2	3	0.0190648399435654	1	1	NaN	320	6	5	1	121	221	321	NaN	521	2.21222543995827	2	1	NaN	2585256.5666884	NaN	2585257.5500991	2585258.06664246
60	23	0	0	90	36.1581920903955	36.241610738255	16	0.533389503955841	2	5	5	NaN	1	4	0.0190648399435654	1	1	NaN	321	6	6	1	121	221	321	NaN	521	2.18327767634764	2	0	NaN	2585261.0838093	NaN	2585262.0671787	2585262.58374162
60	23	0	0	90	36.1581920903955	36.241610738255	14	0.466715815961361	2	12	2	NaN	2	4	0.0190648399435654	1	1	NaN	322	6	7	1	121	221	321	NaN	521	2.44226722419262	1	0	NaN	2585265.58424	NaN	2585266.5676352	2585267.08418558
60	23	0	0	90	36.1581920903955	36.241610738255	23	0.766747411936522	2	10	6	NaN	2	3	0.0190648399435654	1	1	NaN	323	6	8	1	121	221	321	NaN	521	4.85995958046988	2	1	NaN	2585270.3347476	NaN	2585271.3181352	2585271.83466072
60	23	0	0	90	36.1581920903955	36.241610738255	9	0.300031595975161	2	4	2	NaN	1	5	0.0190648399435654	1	1	NaN	324	6	9	1	121	221	321	NaN	521	3.19650847231969	1	1	NaN	2585277.5021076	NaN	2585278.4854657	2585279.00204143
60	23	0	0	90	36.1581920903955	36.241610738255	17	0.566726347953081	2	6	5	NaN	1	4	0.0190648399435654	1	1	NaN	325	6	10	1	121	221	321	NaN	521	4.10389197664335	1	1	NaN	2585283.0026582	NaN	2585283.9860143	2585284.50258772
60	23	0	0	90	36.1581920903955	36.241610738255	9	0.300031595975161	2	1	6	NaN	1	5	0.0190648399435654	1	1	NaN	326	6	11	1	121	221	321	NaN	521	4.38400007644668	2	0	NaN	2585289.7865752	NaN	2585290.7700178	2585291.28656472
60	23	0	0	90	36.1581920903955	36.241610738255	11	0.366705283969641	2	7	2	NaN	2	3	0.0190648399435654	1	1	NaN	327	6	12	1	121	221	321	NaN	521	0.803170128259808	2	1	NaN	2585296.4871513	NaN	2585297.4706623	2585297.98722497
60	23	0	0	90	36.1581920903955	36.241610738255	17	0.566726347953081	2	7	6	NaN	2	4	0.0190648399435654	1	1	NaN	328	6	13	1	121	221	321	NaN	521	4.34228872833773	2	1	NaN	2585299.6042199	NaN	2585300.5876389	2585301.10419587
60	23	0	0	90	36.1581920903955	36.241610738255	8	0.266694751977921	2	7	1	NaN	2	4	0.0190648399435654	1	1	NaN	329	6	14	1	121	221	321	NaN	521	2.51530962437391	2	1	NaN	2585317.0392883	NaN	2585318.0226906	2585318.53924408
60	23	0	0	90	36.1581920903955	36.241610738255	21	0.700073723942041	2	9	1	NaN	2	5	0.0190648399435654	1	1	NaN	330	6	15	1	121	221	321	NaN	521	2.93739682808518	2	1	NaN	2585321.8731189	NaN	2585322.8565109	2585323.37305267
60	23	0	0	90	36.1581920903955	36.241610738255	18	0.600063191950321	2	5	1	NaN	1	5	0.0190648399435654	1	1	NaN	331	6	16	1	121	221	321	NaN	521	2.95137957669795	1	1	NaN	2585327.1236158	NaN	2585328.1070232	2585328.62356422
60	23	0	0	90	36.1581920903955	36.241610738255	12	0.400042127966881	2	2	5	NaN	1	5	0.0190648399435654	1	1	NaN	332	6	17	1	121	221	321	NaN	521	4.79617028031498	1	1	NaN	2585332.3907997	NaN	2585333.374203	2585333.89075702
60	23	0	0	90	36.1581920903955	36.241610738255	11	0.366705283969641	2	5	6	NaN	1	4	0.0190648399435654	1	1	NaN	333	6	18	1	121	221	321	NaN	521	4.51841482426971	1	1	NaN	2585339.5081602	NaN	2585340.491575	2585341.00811598
60	23	0	0	90	36.1581920903955	36.241610738255	20	0.666736879944801	2	7	6	NaN	2	5	0.0190648399435654	1	1	NaN	334	6	19	1	121	221	321	NaN	521	3.80461002839729	2	1	NaN	2585346.3421731	NaN	2585347.3255703	2585347.84211947
60	23	0	0	90	36.1581920903955	36.241610738255	25	0.833421099931002	2	8	3	NaN	2	4	0.0190648399435654	1	1	NaN	335	6	20	1	121	221	321	NaN	521	1.96757272817194	2	1	NaN	2585352.4593199	NaN	2585353.4428363	2585353.95939447
60	23	0	0	90	36.1581920903955	36.241610738255	7	0.23335790798068	2	4	5	NaN	1	3	0.0190648399435654	1	1	NaN	336	6	21	1	121	221	321	NaN	521	4.95570522826165	1	1	NaN	2585356.7432003	NaN	2585357.7266009	2585358.24314417
60	23	0	0	90	36.1581920903955	36.241610738255	18	0.600063191950321	2	3	1	NaN	1	5	0.0190648399435654	1	1	NaN	337	6	22	1	121	221	321	NaN	521	2.88037947611883	1	1	NaN	2585364.0104404	NaN	2585364.9939794	2585365.51052632
60	23	0	0	90	36.1581920903955	36.241610738255	8	0.266694751977921	2	7	3	NaN	2	4	0.0190648399435654	1	1	NaN	338	6	23	1	121	221	321	NaN	521	4.19999682810158	2	1	NaN	2585369.21108	NaN	2585370.1944782	2585370.71103717
60	23	0	0	90	36.1581920903955	36.241610738255	14	0.466715815961361	2	9	1	NaN	2	3	0.0190648399435654	1	1	NaN	339	6	24	1	121	221	321	NaN	521	2.81037037679926	2	1	NaN	2585375.7283138	NaN	2585376.7118427	2585377.22834332
60	23	0	0	90	36.1581920903955	36.241610738255	15	0.500052659958601	2	7	1	NaN	2	5	0.0190648399435654	1	1	NaN	340	6	25	1	121	221	321	NaN	521	3.78076562797651	2	1	NaN	2585380.8622349	NaN	2585381.845626	2585382.36217247
60	23	0	0	90	36.1581920903955	36.241610738255	10	0.333368439972401	2	6	3	NaN	1	5	0.0190648399435654	1	1	NaN	341	6	26	1	121	221	321	NaN	521	2.65689732832834	1	1	NaN	2585386.9461497	NaN	2585387.9295445	2585388.44610977
60	23	0	0	90	36.1581920903955	36.241610738255	16	0.533389503955841	2	7	6	NaN	2	4	0.0190648399435654	1	1	NaN	342	6	27	1	121	221	321	NaN	521	4.67377928039059	2	1	NaN	2585391.9131917	NaN	2585392.8967179	2585393.41326682
60	23	0	0	90	36.1581920903955	36.241610738255	23	0.766747411936522	2	2	1	NaN	1	5	0.0190648399435654	1	1	NaN	343	6	28	1	121	221	321	NaN	521	4.32158742845058	1	1	NaN	2585398.8973085	NaN	2585399.8807278	2585400.39727827
60	23	0	0	90	36.1581920903955	36.241610738255	6	0.20002106398344	2	6	5	NaN	1	4	0.0190648399435654	1	1	NaN	344	6	29	1	121	221	321	NaN	521	3.20778122823685	1	1	NaN	2585405.5311912	NaN	2585406.5147203	2585407.03126547
60	23	0	0	90	36.1581920903955	36.241610738255	20	0.666736879944801	2	8	3	NaN	2	5	0.0190648399435654	1	1	NaN	345	6	30	1	121	221	321	NaN	521	3.80214682407677	1	0	NaN	2585411.0485182	NaN	2585412.0319262	2585412.54847658
60	23	0	0	90	36.1581920903955	36.241610738255	7	0.23335790798068	2	12	1	NaN	2	5	0.0190648399435654	1	1	NaN	346	6	31	1	121	221	321	NaN	521	4.45332558033988	2	1	NaN	2585417.165669	NaN	2585418.1491892	2585418.66574882
60	23	0	0	90	36.1581920903955	36.241610738255	0	0	1	10	6	NaN	2	5	0.0190648399435654	1	1	NaN	347	6	32	1	111	211	311	NaN	511	4.13369112787768	2	1	NaN	2585423.9331169	NaN	2585424.9165124	2585425.43307637
60	23	0	0	90	36.1581920903955	36.241610738255	13	0.433378971964121	2	11	1	NaN	2	5	0.0190648399435654	1	1	NaN	348	6	33	1	121	221	321	NaN	521	5.89089622814208	2	1	NaN	2585432.1839093	NaN	2585433.1672998	2585433.68388807
60	23	0	0	90	36.1581920903955	36.241610738255	15	0.500052659958601	2	8	2	NaN	2	5	0.0190648399435654	1	1	NaN	349	6	34	1	121	221	321	NaN	521	3.05019702389836	1	0	NaN	2585440.3847431	NaN	2585441.3681451	2585441.88469068
60	23	0	0	90	36.1581920903955	36.241610738255	6	0.20002106398344	2	6	3	NaN	1	3	0.0190648399435654	1	1	NaN	350	6	35	1	121	221	321	NaN	521	0.754952580668032	1	1	NaN	2585445.7519356	NaN	2585446.7353142	2585447.25188162
60	23	0	0	90	36.1581920903955	36.241610738255	22	0.733410567939281	2	3	3	NaN	1	3	0.0190648399435654	1	1	NaN	351	6	36	1	121	221	321	NaN	521	0.912001124117523	1	1	NaN	2585448.8188953	NaN	2585449.8022906	2585450.31885518
60	23	0	0	90	36.1581920903955	36.241610738255	10	0.333368439972401	2	10	5	NaN	2	4	0.0190648399435654	1	1	NaN	352	6	37	1	121	221	321	NaN	521	4.35078652808443	2	1	NaN	2585452.035897	NaN	2585453.019287	2585453.53583727
60	23	0	0	90	36.1581920903955	36.241610738255	24	0.800084255933762	2	4	3	NaN	1	3	0.0190648399435654	1	1	NaN	353	6	38	1	121	221	321	NaN	521	3.52910422813147	1	1	NaN	2585462.3534112	NaN	2585463.3369416	2585463.85351647
60	23	0	0	90	36.1581920903955	36.241610738255	20	0.666736879944801	2	3	4	NaN	1	3	0.0190648399435654	1	1	NaN	354	6	39	1	121	221	321	NaN	521	1.14324897201732	1	1	NaN	2585468.1873228	NaN	2585469.1708708	2585469.68741683
60	23	0	0	90	36.1581920903955	36.241610738255	23	0.766747411936522	2	3	1	NaN	1	4	0.0190648399435654	1	1	NaN	355	6	40	1	121	221	321	NaN	521	2.32544202776626	1	1	NaN	2585471.6377945	NaN	2585472.6212083	2585473.13776327
60	23	0	0	90	36.1581920903955	36.241610738255	8	0.266694751977921	2	6	5	NaN	1	4	0.0190648399435654	1	1	NaN	356	6	41	1	121	221	321	NaN	521	4.56360249593854	1	1	NaN	2585476.2715937	NaN	2585477.2550095	2585477.7715524
60	23	0	0	90	36.1581920903955	36.241610738255	18	0.600063191950321	2	11	3	NaN	2	5	0.0190648399435654	1	1	NaN	357	6	42	1	121	221	321	NaN	521	2.23116602841765	2	1	NaN	2585483.1555871	NaN	2585484.1390001	2585484.65555977
60	23	0	0	90	36.1581920903955	36.241610738255	14	0.466715815961361	2	12	3	NaN	2	5	0.0190648399435654	1	1	NaN	358	6	43	1	121	221	321	NaN	521	1.97706992831081	1	0	NaN	2585487.706058	NaN	2585488.6894592	2585489.20600357
60	23	0	0	90	36.1581920903955	36.241610738255	11	0.366705283969641	2	4	2	NaN	1	5	0.0190648399435654	1	1	NaN	359	6	44	1	121	221	321	NaN	521	4.61243642447516	2	0	NaN	2585492.00636	NaN	2585492.9898901	2585493.50642738
60	23	0	0	90	36.1581920903955	36.241610738255	8	0.266694751977921	2	11	5	NaN	2	5	0.0190648399435654	1	1	NaN	360	6	45	1	121	221	321	NaN	521	3.19064088026062	2	1	NaN	2585498.9404881	NaN	2585499.9238761	2585500.44044432
60	23	0	0	90	36.1581920903955	36.241610738255	11	0.366705283969641	2	5	2	NaN	1	4	0.0190648399435654	1	1	NaN	361	6	46	1	121	221	321	NaN	521	3.28976357681677	2	0	NaN	2585504.4410329	NaN	2585505.4244239	2585505.94097972
60	23	0	0	90	36.1581920903955	36.241610738255	19	0.633400035947561	2	4	2	NaN	1	5	0.0190648399435654	1	1	NaN	362	6	47	1	121	221	321	NaN	521	3.33757602842525	2	0	NaN	2585510.0414326	NaN	2585511.024967	2585511.54153007
60	23	0	0	90	36.1581920903955	36.241610738255	10	0.333368439972401	2	6	4	NaN	1	4	0.0190648399435654	1	1	NaN	363	6	48	1	121	221	321	NaN	521	2.29511047666892	1	1	NaN	2585515.6920114	NaN	2585516.6755516	2585517.19208502
60	23	0	0	90	36.1581920903955	36.241610738255	20	0.666736879944801	2	3	4	NaN	1	4	0.0190648399435654	1	1	NaN	364	6	49	1	121	221	321	NaN	521	3.2141765281558	1	1	NaN	2585520.2925888	NaN	2585521.2759874	2585521.79253617
60	23	0	0	90	36.1581920903955	36.241610738255	6	0.20002106398344	2	4	2	NaN	1	5	0.0190648399435654	1	1	NaN	365	6	50	1	121	221	321	NaN	521	4.10474457219243	1	1	NaN	2585525.8264401	NaN	2585526.8098812	2585527.32640283
60	23	0	0	90	36.1581920903955	36.241610738255	13	0.433378971964121	2	3	6	NaN	1	3	0.0190648399435654	1	1	NaN	366	6	51	1	121	221	321	NaN	521	6.04745517671108	2	0	NaN	2585532.2437567	NaN	2585533.2271671	2585533.74370522
60	23	0	0	90	36.1581920903955	36.241610738255	19	0.633400035947561	2	8	3	NaN	2	5	0.0190648399435654	1	1	NaN	367	6	52	1	121	221	321	NaN	521	2.97596177645028	2	1	NaN	2585540.6112338	NaN	2585541.5946476	2585542.11120122
60	23	0	0	90	36.1581920903955	36.241610738255	23	0.766747411936522	2	9	1	NaN	2	3	0.0190648399435654	1	1	NaN	368	6	53	1	121	221	321	NaN	521	2.33985982835293	2	1	NaN	2585545.8950939	NaN	2585546.8785141	2585547.39504737
60	23	0	0	90	36.1581920903955	36.241610738255	12	0.400042127966881	2	10	3	NaN	2	3	0.0190648399435654	1	1	NaN	369	6	54	1	121	221	321	NaN	521	2.28127552429214	2	1	NaN	2585550.5455718	NaN	2585551.5289391	2585552.04550698
60	23	0	0	90	36.1581920903955	36.241610738255	15	0.500052659958601	2	5	1	NaN	1	5	0.0190648399435654	1	1	NaN	370	6	55	1	121	221	321	NaN	521	1.37749532843009	2	0	NaN	2585555.1292188	NaN	2585556.1127442	2585556.62928967
60	23	0	0	90	36.1581920903955	36.241610738255	13	0.433378971964121	2	6	6	NaN	1	4	0.0190648399435654	1	1	NaN	371	6	56	1	121	221	321	NaN	521	1.31830934388563	1	1	NaN	2585558.8130171	NaN	2585559.7964403	2585560.31298866
60	23	0	0	90	36.1581920903955	36.241610738255	21	0.700073723942041	2	7	2	NaN	2	3	0.0190648399435654	1	1	NaN	372	6	57	1	121	221	321	NaN	521	1.55137122794986	2	1	NaN	2585562.763452	NaN	2585563.746819	2585564.26337117
60	23	0	0	90	36.1581920903955	36.241610738255	16	0.533389503955841	2	9	4	NaN	2	4	0.0190648399435654	1	1	NaN	373	6	58	1	121	221	321	NaN	521	1.95660872431472	1	0	NaN	2585566.6304019	NaN	2585567.6138665	2585568.13041258
60	23	0	0	90	36.1581920903955	36.241610738255	9	0.300031595975161	2	5	5	NaN	1	4	0.0190648399435654	1	1	NaN	374	6	59	1	121	221	321	NaN	521	5.68142292834818	2	0	NaN	2585570.8975771	NaN	2585571.8809579	2585572.39750647
60	23	0	0	90	36.1581920903955	36.241610738255	15	0.500052659958601	2	1	2	NaN	1	4	0.0190648399435654	1	1	NaN	375	6	60	1	121	221	321	NaN	521	2.36108252825215	2	0	NaN	2585578.8983294	NaN	2585579.8817375	2585580.39830437
60	23	0	0	90	36.1581920903955	36.241610738255	20	0.666736879944801	2	12	3	NaN	2	4	0.0190648399435654	1	1	NaN	376	6	61	1	121	221	321	NaN	521	1.95745532773435	2	1	NaN	2585583.5654635	NaN	2585584.5489121	2585585.06541807
60	23	0	0	90	36.1581920903955	36.241610738255	8	0.266694751977921	2	1	4	NaN	1	4	0.0190648399435654	1	1	NaN	377	6	62	1	121	221	321	NaN	521	6.13862452469766	1	1	NaN	2585587.8326098	NaN	2585588.8159624	2585589.33249298
60	23	0	0	90	36.1581920903955	36.241610738255	17	0.566726347953081	2	11	5	NaN	2	5	0.0190648399435654	1	1	NaN	378	6	63	1	121	221	321	NaN	521	2.68749298015609	1	0	NaN	2585596.2833779	NaN	2585597.2667887	2585597.78333252
60	23	0	0	90	36.1581920903955	36.241610738255	12	0.400042127966881	2	5	2	NaN	1	4	0.0190648399435654	1	1	NaN	379	7	1	1	121	221	321	NaN	521	1.92670857673511	2	0	NaN	2585653.9723624	NaN	2585654.9557587	2585655.47232272
60	23	0	0	90	36.1581920903955	36.241610738255	6	0.20002106398344	2	3	2	NaN	1	5	0.0190648399435654	1	1	NaN	380	7	2	1	121	221	321	NaN	521	2.07716352446005	2	0	NaN	2585658.2059961	NaN	2585659.1895445	2585659.70606708
60	23	0	0	90	36.1581920903955	36.241610738255	8	0.266694751977921	2	5	2	NaN	1	4	0.0190648399435654	1	1	NaN	381	7	3	1	121	221	321	NaN	521	3.5571244279854	1	1	NaN	2585662.5897664	NaN	2585663.5732728	2585664.08983107
60	23	0	0	90	36.1581920903955	36.241610738255	25	0.833421099931002	2	2	1	NaN	1	5	0.0190648399435654	1	1	NaN	382	7	4	1	121	221	321	NaN	521	3.26530137658119	1	1	NaN	2585668.4737903	NaN	2585669.4572004	2585669.97375052
60	23	0	0	90	36.1581920903955	36.241610738255	13	0.433378971964121	2	4	5	NaN	1	3	0.0190648399435654	1	1	NaN	383	7	5	1	121	221	321	NaN	521	3.78616208024323	2	0	NaN	2585674.0410073	NaN	2585675.0243812	2585675.54096182
60	23	0	0	90	36.1581920903955	36.241610738255	23	0.766747411936522	2	9	4	NaN	2	5	0.0190648399435654	1	1	NaN	384	7	6	1	121	221	321	NaN	521	4.68545192433521	1	0	NaN	2585680.1415409	NaN	2585681.1250061	2585681.64155298
60	23	0	0	90	36.1581920903955	36.241610738255	25	0.833421099931002	2	7	1	NaN	2	3	0.0190648399435654	1	1	NaN	385	7	7	1	121	221	321	NaN	521	5.02883632807061	2	1	NaN	2585687.1423398	NaN	2585688.1257228	2585688.64224697
60	23	0	0	90	36.1581920903955	36.241610738255	9	0.300031595975161	2	9	2	NaN	2	4	0.0190648399435654	1	1	NaN	386	7	8	1	121	221	321	NaN	521	2.58216392435133	1	0	NaN	2585694.493023	NaN	2585695.4764167	2585695.99297238
60	23	0	0	90	36.1581920903955	36.241610738255	16	0.533389503955841	2	6	2	NaN	1	3	0.0190648399435654	1	1	NaN	387	7	9	1	121	221	321	NaN	521	3.52953322837129	2	0	NaN	2585699.3933856	NaN	2585700.3768907	2585700.89345407
60	23	0	0	90	36.1581920903955	36.241610738255	24	0.800084255933762	2	2	3	NaN	1	5	0.0190648399435654	1	1	NaN	388	7	10	1	121	221	321	NaN	521	6.83179902471602	2	0	NaN	2585708.2275721	NaN	2585709.2111154	2585709.72765308
60	23	0	0	90	36.1581920903955	36.241610738255	15	0.500052659958601	2	11	3	NaN	2	5	0.0190648399435654	1	1	NaN	389	7	11	1	121	221	321	NaN	521	2.99254402844235	2	1	NaN	2585717.3785995	NaN	2585718.3619969	2585718.87854877
60	23	0	0	90	36.1581920903955	36.241610738255	19	0.633400035947561	2	8	1	NaN	2	5	0.0190648399435654	1	1	NaN	390	7	12	1	121	221	321	NaN	521	2.59603287652135	1	0	NaN	2585722.6789964	NaN	2585723.662517	2585724.17906502
60	23	0	0	90	36.1581920903955	36.241610738255	15	0.500052659958601	2	6	4	NaN	1	3	0.0190648399435654	1	1	NaN	391	7	13	1	121	221	321	NaN	521	4.23977188020945	1	1	NaN	2585727.5796305	NaN	2585728.5630444	2585729.07955492
60	23	0	0	90	36.1581920903955	36.241610738255	21	0.700073723942041	2	11	2	NaN	2	3	0.0190648399435654	1	1	NaN	392	7	14	1	121	221	321	NaN	521	2.77589407656342	1	0	NaN	2585744.9313089	NaN	2585745.9147085	2585746.43125032
60	23	0	0	90	36.1581920903955	36.241610738255	24	0.800084255933762	2	9	6	NaN	2	4	0.0190648399435654	1	1	NaN	393	7	15	1	121	221	321	NaN	521	3.4924928243272	2	1	NaN	2585750.0150096	NaN	2585750.9985365	2585751.51507958
60	23	0	0	90	36.1581920903955	36.241610738255	13	0.433378971964121	2	6	2	NaN	1	5	0.0190648399435654	1	1	NaN	394	7	16	1	121	221	321	NaN	521	1.98796224035323	2	0	NaN	2585755.8157165	NaN	2585756.7991138	2585757.31566066
60	23	0	0	90	36.1581920903955	36.241610738255	19	0.633400035947561	2	9	5	NaN	2	4	0.0190648399435654	1	1	NaN	395	7	17	1	121	221	321	NaN	521	2.5990332281217	2	1	NaN	2585760.1161296	NaN	2585761.0995255	2585761.61608317
60	23	0	0	90	36.1581920903955	36.241610738255	20	0.666736879944801	2	4	6	NaN	1	3	0.0190648399435654	1	1	NaN	396	7	18	1	121	221	321	NaN	521	2.19494312815368	1	1	NaN	2585765.0166852	NaN	2585766.0000755	2585766.51656177
60	23	0	0	90	36.1581920903955	36.241610738255	14	0.466715815961361	2	7	5	NaN	2	3	0.0190648399435654	1	1	NaN	397	7	19	1	121	221	321	NaN	521	2.4062682762742	2	1	NaN	2585769.5170435	NaN	2585770.5004529	2585771.01699792
60	23	0	0	90	36.1581920903955	36.241610738255	14	0.466715815961361	2	1	1	NaN	1	4	0.0190648399435654	1	1	NaN	398	7	20	1	121	221	321	NaN	521	5.30487742787227	2	0	NaN	2585774.2341901	NaN	2585775.2176199	2585775.73413527
60	23	0	0	90	36.1581920903955	36.241610738255	9	0.300031595975161	2	10	5	NaN	2	5	0.0190648399435654	1	1	NaN	399	7	21	1	121	221	321	NaN	521	2.52759357634932	2	1	NaN	2585781.8515965	NaN	2585782.8349958	2585783.35154122
60	23	0	0	90	36.1581920903955	36.241610738255	18	0.600063191950321	2	9	4	NaN	2	4	0.0190648399435654	1	1	NaN	400	7	22	1	121	221	321	NaN	521	6.25351577997208	2	1	NaN	2585786.7019521	NaN	2585787.6854688	2585788.20202962
60	23	0	0	90	36.1581920903955	36.241610738255	18	0.600063191950321	2	5	6	NaN	1	3	0.0190648399435654	1	1	NaN	401	7	23	1	121	221	321	NaN	521	3.11801142431796	1	1	NaN	2585795.2694492	NaN	2585796.2529793	2585796.76952428
60	23	0	0	90	36.1581920903955	36.241610738255	13	0.433378971964121	2	7	2	NaN	2	5	0.0190648399435654	1	1	NaN	402	7	24	1	121	221	321	NaN	521	4.46178947668523	1	0	NaN	2585800.8534713	NaN	2585801.8368432	2585802.35341062
60	23	0	0	90	36.1581920903955	36.241610738255	14	0.466715815961361	2	2	1	NaN	1	3	0.0190648399435654	1	1	NaN	403	7	25	1	121	221	321	NaN	521	3.43043407658115	2	0	NaN	2585807.6207894	NaN	2585808.6041925	2585809.12074402
60	23	0	0	90	36.1581920903955	36.241610738255	12	0.400042127966881	2	10	2	NaN	2	4	0.0190648399435654	1	1	NaN	404	7	26	1	121	221	321	NaN	521	1.03184208041057	1	0	NaN	2585813.3713912	NaN	2585814.3546561	2585814.87131352
60	23	0	0	90	36.1581920903955	36.241610738255	8	0.266694751977921	2	1	3	NaN	1	4	0.0190648399435654	1	1	NaN	405	7	27	1	121	221	321	NaN	521	4.16987527627498	2	0	NaN	2585816.7216827	NaN	2585817.7050876	2585818.22164172
60	23	0	0	90	36.1581920903955	36.241610738255	24	0.800084255933762	2	1	1	NaN	1	4	0.0190648399435654	1	1	NaN	406	7	28	1	121	221	321	NaN	521	2.10155043192208	1	1	NaN	2585823.2056633	NaN	2585824.1890565	2585824.70560487
60	23	0	0	90	36.1581920903955	36.241610738255	0	0	1	10	1	NaN	2	4	0.0190648399435654	1	1	NaN	407	7	29	1	111	211	311	NaN	511	1.82848392426968	1	0	NaN	2585827.6227306	NaN	2585828.6061557	2585829.12270778
60	23	0	0	90	36.1581920903955	36.241610738255	17	0.566726347953081	2	8	4	NaN	2	4	0.0190648399435654	1	1	NaN	408	7	30	1	121	221	321	NaN	521	8.43819252820686	2	1	NaN	2585831.7730504	NaN	2585832.7565655	2585833.27311347
60	23	0	0	90	36.1581920903955	36.241610738255	6	0.20002106398344	2	7	4	NaN	2	4	0.0190648399435654	1	1	NaN	409	7	31	1	121	221	321	NaN	521	7.02060162415728	2	1	NaN	2585844.7910801	NaN	2585845.7745032	2585846.29106088
60	23	0	0	90	36.1581920903955	36.241610738255	16	0.533389503955841	2	8	3	NaN	2	3	0.0190648399435654	1	1	NaN	410	7	32	1	121	221	321	NaN	521	1.11785872792825	2	1	NaN	2585854.1253651	NaN	2585855.108755	2585855.62530947
60	23	0	0	90	36.1581920903955	36.241610738255	17	0.566726347953081	2	11	6	NaN	2	5	0.0190648399435654	1	1	NaN	411	7	33	1	121	221	321	NaN	521	2.43664077622816	2	1	NaN	2585857.5590678	NaN	2585858.5424363	2585859.05897212
60	23	0	0	90	36.1581920903955	36.241610738255	17	0.566726347953081	2	4	6	NaN	1	5	0.0190648399435654	1	1	NaN	412	7	34	1	121	221	321	NaN	521	3.30179332802072	1	1	NaN	2585862.3095241	NaN	2585863.2928813	2585863.80944727
60	23	0	0	90	36.1581920903955	36.241610738255	8	0.266694751977921	2	9	1	NaN	2	5	0.0190648399435654	1	1	NaN	413	7	35	1	121	221	321	NaN	521	1.02901377668604	2	1	NaN	2585867.9267101	NaN	2585868.9101012	2585869.42666222
60	23	0	0	90	36.1581920903955	36.241610738255	25	0.833421099931002	2	5	6	NaN	1	3	0.0190648399435654	1	1	NaN	414	7	36	1	121	221	321	NaN	521	1.46260318066925	1	1	NaN	2585871.276932	NaN	2585872.2604406	2585872.77699902
60	23	0	0	90	36.1581920903955	36.241610738255	25	0.833421099931002	2	1	5	NaN	1	3	0.0190648399435654	1	1	NaN	415	7	37	1	121	221	321	NaN	521	2.93499302817509	2	0	NaN	2585875.0606168	NaN	2585876.044144	2585876.56070207
60	23	0	0	90	36.1581920903955	36.241610738255	9	0.300031595975161	2	1	6	NaN	1	4	0.0190648399435654	1	1	NaN	416	7	38	1	121	221	321	NaN	521	3.15610608039424	2	0	NaN	2585880.311262	NaN	2585881.2946615	2585881.81121632
60	23	0	0	90	36.1581920903955	36.241610738255	12	0.400042127966881	2	9	3	NaN	2	3	0.0190648399435654	1	1	NaN	417	7	39	1	121	221	321	NaN	521	2.26557232439518	2	1	NaN	2585885.7783464	NaN	2585886.7618866	2585887.27840998
60	23	0	0	90	36.1581920903955	36.241610738255	12	0.400042127966881	2	2	3	NaN	1	5	0.0190648399435654	1	1	NaN	418	7	40	1	121	221	321	NaN	521	1.47315142815933	1	1	NaN	2585890.3622414	NaN	2585891.345645	2585891.86220147
60	23	0	0	90	36.1581920903955	36.241610738255	22	0.733410567939281	2	9	3	NaN	2	3	0.0190648399435654	1	1	NaN	419	7	41	1	121	221	321	NaN	521	2.11338297231123	2	1	NaN	2585894.1458953	NaN	2585895.1293406	2585895.64589903
60	23	0	0	90	36.1581920903955	36.241610738255	10	0.333368439972401	2	5	1	NaN	1	3	0.0190648399435654	1	1	NaN	420	7	42	1	121	221	321	NaN	521	2.23202638002113	2	0	NaN	2585898.5797262	NaN	2585899.5631286	2585900.07967982
60	23	0	0	90	36.1581920903955	36.241610738255	0	0	1	3	3	NaN	1	3	0.0190648399435654	1	1	NaN	421	7	43	1	111	211	311	NaN	511	4.10535017680377	1	1	NaN	2585903.130161	NaN	2585904.1135761	2585904.63012502
60	23	0	0	90	36.1581920903955	36.241610738255	22	0.733410567939281	2	5	4	NaN	1	5	0.0190648399435654	1	1	NaN	422	7	44	1	121	221	321	NaN	521	6.3904120279476	1	1	NaN	2585910.9809238	NaN	2585911.9643443	2585912.48089557
60	23	0	0	90	36.1581920903955	36.241610738255	14	0.466715815961361	2	3	4	NaN	1	4	0.0190648399435654	1	1	NaN	423	7	45	1	121	221	321	NaN	521	3.20204472821206	2	0	NaN	2585919.6816711	NaN	2585920.6651945	2585921.18174267
60	23	0	0	90	36.1581920903955	36.241610738255	11	0.366705283969641	2	2	3	NaN	1	4	0.0190648399435654	1	1	NaN	424	7	46	1	121	221	321	NaN	521	5.78873072843999	2	0	NaN	2585925.1990171	NaN	2585926.1823944	2585926.69894997
60	23	0	0	90	36.1581920903955	36.241610738255	8	0.266694751977921	2	12	4	NaN	2	3	0.0190648399435654	1	1	NaN	425	7	47	1	121	221	321	NaN	521	1.18371132435277	2	1	NaN	2585933.2998014	NaN	2585934.2832119	2585934.79975078
60	23	0	0	90	36.1581920903955	36.241610738255	18	0.600063191950321	2	12	6	NaN	2	3	0.0190648399435654	1	1	NaN	426	7	48	1	121	221	321	NaN	521	2.09115892788395	2	1	NaN	2585936.8001449	NaN	2585937.7835403	2585938.30009907
60	23	0	0	90	36.1581920903955	36.241610738255	18	0.600063191950321	2	12	6	NaN	2	4	0.0190648399435654	1	1	NaN	427	7	49	1	121	221	321	NaN	521	3.94736639643088	1	0	NaN	2585941.2005625	NaN	2585942.1840288	2585942.700532
60	23	0	0	90	36.1581920903955	36.241610738255	6	0.20002106398344	2	12	2	NaN	2	5	0.0190648399435654	1	1	NaN	428	7	50	1	121	221	321	NaN	521	1.75225238036364	1	0	NaN	2585947.451204	NaN	2585948.4345895	2585948.95114342
60	23	0	0	90	36.1581920903955	36.241610738255	13	0.433378971964121	2	8	6	NaN	2	5	0.0190648399435654	1	1	NaN	429	7	51	1	121	221	321	NaN	521	4.21352442447096	2	1	NaN	2585951.5182389	NaN	2585952.5016547	2585953.01820708
60	23	0	0	90	36.1581920903955	36.241610738255	17	0.566726347953081	2	3	2	NaN	1	5	0.0190648399435654	1	1	NaN	430	7	52	1	121	221	321	NaN	521	4.82328552799299	2	0	NaN	2585958.0522469	NaN	2585959.0356401	2585959.55218007
60	23	0	0	90	36.1581920903955	36.241610738255	22	0.733410567939281	2	11	2	NaN	2	5	0.0190648399435654	1	1	NaN	431	7	53	1	121	221	321	NaN	521	4.67363522807136	1	0	NaN	2585965.1862523	NaN	2585966.1696671	2585966.68621707
60	23	0	0	90	36.1581920903955	36.241610738255	9	0.300031595975161	2	3	1	NaN	1	5	0.0190648399435654	1	1	NaN	432	7	54	1	121	221	321	NaN	521	1.67318502813578	1	1	NaN	2585972.170288	NaN	2585973.1536838	2585973.67022917
60	23	0	0	90	36.1581920903955	36.241610738255	23	0.766747411936522	2	8	5	NaN	2	4	0.0190648399435654	1	1	NaN	433	7	55	1	121	221	321	NaN	521	3.17751032812521	1	0	NaN	2585976.1540716	NaN	2585977.1373978	2585977.65395967
60	23	0	0	90	36.1581920903955	36.241610738255	14	0.466715815961361	2	6	2	NaN	1	5	0.0190648399435654	1	1	NaN	434	7	56	1	121	221	321	NaN	521	2.88588862819597	2	0	NaN	2585981.6378913	NaN	2585982.6212779	2585983.13782287
60	23	0	0	90	36.1581920903955	36.241610738255	25	0.833421099931002	2	12	3	NaN	2	5	0.0190648399435654	1	1	NaN	435	7	57	1	121	221	321	NaN	521	2.89355337666348	1	0	NaN	2585986.838387	NaN	2585987.8217922	2585988.33833232
60	23	0	0	90	36.1581920903955	36.241610738255	7	0.23335790798068	2	3	5	NaN	1	3	0.0190648399435654	1	1	NaN	436	7	58	1	121	221	321	NaN	521	1.92460328061134	2	0	NaN	2585992.0389032	NaN	2585993.0223672	2585993.53885462
60	23	0	0	90	36.1581920903955	36.241610738255	25	0.833421099931002	2	9	1	NaN	2	5	0.0190648399435654	1	1	NaN	437	7	59	1	121	221	321	NaN	521	1.38719552801922	1	0	NaN	2585996.2726353	NaN	2585997.2560422	2585997.77259807
60	23	0	0	90	36.1581920903955	36.241610738255	7	0.23335790798068	2	6	2	NaN	1	4	0.0190648399435654	1	1	NaN	438	7	60	1	121	221	321	NaN	521	0.637106728274375	1	1	NaN	2586000.2062499	NaN	2586001.1897607	2586001.70631547
60	23	0	0	90	36.1581920903955	36.241610738255	21	0.700073723942041	2	8	5	NaN	2	5	0.0190648399435654	1	1	NaN	439	7	61	1	121	221	321	NaN	521	2.83938252786174	2	1	NaN	2586003.1566538	NaN	2586004.1400522	2586004.65660717
60	23	0	0	90	36.1581920903955	36.241610738255	19	0.633400035947561	2	1	4	NaN	1	3	0.0190648399435654	1	1	NaN	440	7	62	1	121	221	321	NaN	521	4.53683787677437	1	1	NaN	2586008.3071656	NaN	2586009.2905635	2586009.80710772
60	23	0	0	90	36.1581920903955	36.241610738255	25	0.833421099931002	2	6	3	NaN	1	3	0.0190648399435654	1	1	NaN	441	7	63	1	121	221	321	NaN	521	3.97369962465018	1	1	NaN	2586015.1578191	NaN	2586016.1412425	2586016.65778018
60	23	0	0	90	36.1581920903955	36.241610738255	21	0.700073723942041	2	12	2	NaN	2	3	0.0190648399435654	1	1	NaN	442	8	1	1	121	221	321	NaN	521	4.42000792454928	2	1	NaN	2586075.0637208	NaN	2586076.0471825	2586076.56366288
60	23	0	0	90	36.1581920903955	36.241610738255	18	0.600063191950321	2	6	5	NaN	1	4	0.0190648399435654	1	1	NaN	443	8	2	1	121	221	321	NaN	521	2.74368182849139	2	0	NaN	2586082.1643907	NaN	2586083.1478094	2586083.66435587
60	23	0	0	90	36.1581920903955	36.241610738255	25	0.833421099931002	2	11	4	NaN	2	3	0.0190648399435654	1	1	NaN	444	8	3	1	121	221	321	NaN	521	3.77279012417421	2	1	NaN	2586087.2149222	NaN	2586088.1983026	2586088.71485498
60	23	0	0	90	36.1581920903955	36.241610738255	0	0	1	12	6	NaN	2	5	0.0190648399435654	1	1	NaN	445	8	4	1	111	211	311	NaN	511	3.06473018042743	1	0	NaN	2586093.2988399	NaN	2586094.2822396	2586094.79879162
60	23	0	0	90	36.1581920903955	36.241610738255	19	0.633400035947561	2	10	2	NaN	2	5	0.0190648399435654	1	1	NaN	446	8	5	1	121	221	321	NaN	521	0.54606757638976	1	0	NaN	2586098.6660596	NaN	2586099.6494326	2586100.16598532
60	23	0	0	90	36.1581920903955	36.241610738255	10	0.333368439972401	2	7	5	NaN	2	4	0.0190648399435654	1	1	NaN	447	8	6	1	121	221	321	NaN	521	4.10730582848191	2	1	NaN	2586101.6163927	NaN	2586102.5997163	2586103.11627107
60	23	0	0	90	36.1581920903955	36.241610738255	23	0.766747411936522	2	7	3	NaN	2	5	0.0190648399435654	1	1	NaN	448	8	7	1	121	221	321	NaN	521	3.4251252245158	2	1	NaN	2586108.0502856	NaN	2586109.0336892	2586109.55023728
60	23	0	0	90	36.1581920903955	36.241610738255	21	0.700073723942041	2	10	4	NaN	2	4	0.0190648399435654	1	1	NaN	449	8	8	1	121	221	321	NaN	521	2.87556273210794	2	1	NaN	2586113.7841845	NaN	2586114.7675855	2586115.28412667
60	23	0	0	90	36.1581920903955	36.241610738255	16	0.533389503955841	2	3	6	NaN	1	3	0.0190648399435654	1	1	NaN	450	8	9	1	121	221	321	NaN	521	0.547433928120881	1	1	NaN	2586118.9846766	NaN	2586119.9680864	2586120.48464597
60	23	0	0	90	36.1581920903955	36.241610738255	17	0.566726347953081	2	4	3	NaN	1	5	0.0190648399435654	1	1	NaN	451	8	10	1	121	221	321	NaN	521	1.92343562841415	1	1	NaN	2586122.1683545	NaN	2586123.1517322	2586123.66828887
60	23	0	0	90	36.1581920903955	36.241610738255	8	0.266694751977921	2	4	4	NaN	1	5	0.0190648399435654	1	1	NaN	452	8	11	1	121	221	321	NaN	521	1.46599617647007	1	1	NaN	2586126.4020933	NaN	2586127.3854907	2586127.90203382
60	23	0	0	90	36.1581920903955	36.241610738255	7	0.23335790798068	2	3	4	NaN	1	3	0.0190648399435654	1	1	NaN	453	8	12	1	121	221	321	NaN	521	2.02590882824734	1	1	NaN	2586130.1857892	NaN	2586131.1691938	2586131.68573497
60	23	0	0	90	36.1581920903955	36.241610738255	21	0.700073723942041	2	1	1	NaN	1	3	0.0190648399435654	1	1	NaN	454	8	13	1	121	221	321	NaN	521	4.64426797628403	2	0	NaN	2586134.5195326	NaN	2586135.5029842	2586136.01949752
60	23	0	0	90	36.1581920903955	36.241610738255	19	0.633400035947561	2	7	5	NaN	2	3	0.0190648399435654	1	1	NaN	455	8	14	1	121	221	321	NaN	521	2.36546152830124	1	0	NaN	2586141.470233	NaN	2586142.4536401	2586142.97018397
60	23	0	0	90	36.1581920903955	36.241610738255	22	0.733410567939281	2	12	2	NaN	2	3	0.0190648399435654	1	1	NaN	456	8	15	1	121	221	321	NaN	521	3.21840472798795	1	0	NaN	2586146.1373494	NaN	2586147.1207515	2586147.63730807
60	23	0	0	90	36.1581920903955	36.241610738255	20	0.666736879944801	2	5	4	NaN	1	5	0.0190648399435654	1	1	NaN	457	8	16	1	121	221	321	NaN	521	3.45292988000438	2	0	NaN	2586151.6712419	NaN	2586152.6546379	2586153.17119012
60	23	0	0	90	36.1581920903955	36.241610738255	13	0.433378971964121	2	8	4	NaN	2	5	0.0190648399435654	1	1	NaN	458	8	17	1	121	221	321	NaN	521	3.28541012434289	2	1	NaN	2586157.4384612	NaN	2586158.4218924	2586158.93842058
60	23	0	0	90	36.1581920903955	36.241610738255	19	0.633400035947561	2	3	6	NaN	1	5	0.0190648399435654	1	1	NaN	459	8	18	1	121	221	321	NaN	521	2.66881338041276	1	1	NaN	2586163.0390234	NaN	2586164.0224177	2586164.53897112
60	23	0	0	90	36.1581920903955	36.241610738255	24	0.800084255933762	2	6	1	NaN	1	4	0.0190648399435654	1	1	NaN	460	8	19	1	121	221	321	NaN	521	3.90904882410541	2	0	NaN	2586168.0228305	NaN	2586169.0062439	2586169.52278938
