subjno	age	gender	isPractice	viewdist	CmToPixX	CmToPixY	SOA_frm	SOA_time	targNum	targID	targExample	targRace	targGender	firstTargPos	contrast	familiarity	curr_staircase	iStair	TrialNum	BlockNum	blktrl	sessionNum	TC_FIXATION	TC_RSVP_START	TC_RSVP_END	TC_BLANK	TC_RESPONSE_ONSET	RT2afc	resp_2afc	acc	RSVPOnsetVBL	RSVPOnsetTime	RSVPOffsetVBL	RSVPOffsetTime	startrt_2afc
74	18	0	0	90	36.1581920903955	36.241610738255	8	0.266685568094254	2	2	4	NaN	1	3	0.142757223351999	1	1	NaN	1	1	1	1	121	221	321	NaN	521	0.910896775312722	1	1	NaN	5001288.5624931	NaN	5001289.545731	5001290.07883673
74	18	0	0	90	36.1581920903955	36.241610738255	7	0.233349872082472	2	12	2	NaN	2	3	0.142757223351999	1	1	NaN	2	1	2	1	121	221	321	NaN	521	0.0112956166267395	2	1	NaN	5001291.846075	NaN	5001292.8293415	5001293.36248558
74	18	0	0	90	36.1581920903955	36.241610738255	9	0.300021264106035	2	12	4	NaN	2	4	0.142757223351999	1	1	NaN	3	1	3	1	121	221	321	NaN	521	1.76567071210593	1	0	NaN	5001294.1959824	NaN	5001295.179511	5001295.69605439
74	18	0	0	90	36.1581920903955	36.241610738255	9	0.300021264106035	2	6	3	NaN	1	3	0.142757223351999	1	1	NaN	4	1	4	1	121	221	321	NaN	521	0.0105172228068113	1	1	NaN	5001298.2798502	NaN	5001299.2632596	5001299.77979518
74	18	0	0	90	36.1581920903955	36.241610738255	17	0.566706832200289	2	10	4	NaN	2	4	0.142757223351999	1	1	NaN	5	1	5	1	121	221	321	NaN	521	0.0104112699627876	2	1	NaN	5001300.8967887	NaN	5001301.8801702	5001302.39671663
74	18	0	0	90	36.1581920903955	36.241610738255	24	0.800056704282761	2	10	4	NaN	2	4	0.142757223351999	1	1	NaN	6	1	6	1	121	221	321	NaN	521	0.0104101691395044	2	1	NaN	5001303.2303528	NaN	5001304.2137051	5001304.73027733
74	18	0	0	90	36.1581920903955	36.241610738255	22	0.733385312259197	2	12	2	NaN	2	5	0.142757223351999	1	1	NaN	7	1	7	1	121	221	321	NaN	521	0.902332517318428	2	1	NaN	5001305.563885	NaN	5001306.5472959	5001307.06384338
74	18	0	0	90	36.1581920903955	36.241610738255	10	0.333356960117817	2	9	1	NaN	2	4	0.142757223351999	1	1	NaN	8	1	8	1	121	221	321	NaN	521	0.0689334226772189	2	1	NaN	5001308.7808091	NaN	5001309.7642832	5001310.28083318
74	18	0	0	90	36.1581920903955	36.241610738255	12	0.40002835214138	2	12	2	NaN	2	4	0.142757223351999	1	1	NaN	9	1	9	1	121	221	321	NaN	521	0.0104268174618483	2	1	NaN	5001311.1642987	NaN	5001312.1478451	5001312.66439208
74	18	0	0	90	36.1581920903955	36.241610738255	12	0.40002835214138	2	9	6	NaN	2	3	0.142757223351999	1	1	NaN	10	1	10	1	121	221	321	NaN	521	0.0103938225656748	2	1	NaN	5001313.4980233	NaN	5001314.4814116	5001314.99796138
74	18	0	0	90	36.1581920903955	36.241610738255	22	0.733385312259197	2	8	6	NaN	2	4	0.142757223351999	1	1	NaN	11	1	11	1	121	221	321	NaN	521	0.162360522896051	2	1	NaN	5001315.831571	NaN	5001316.8150265	5001317.33152538
74	18	0	0	90	36.1581920903955	36.241610738255	18	0.60004252821207	2	5	2	NaN	1	5	0.142757223351999	1	1	NaN	12	1	12	1	121	221	321	NaN	521	0.0102858897298574	1	1	NaN	5001318.3151303	NaN	5001319.2985492	5001319.81510141
74	18	0	0	90	36.1581920903955	36.241610738255	9	0.300021264106035	2	11	4	NaN	2	4	0.142757223351999	1	1	NaN	13	1	13	1	121	221	321	NaN	521	5.92090596910566	2	1	NaN	5001320.6486136	NaN	5001321.6321608	5001322.14866473
74	18	0	0	90	36.1581920903955	36.241610738255	17	0.566706832200289	2	9	6	NaN	2	3	0.142757223351999	1	1	NaN	14	1	14	1	121	221	321	NaN	521	0.103122222237289	1	0	NaN	5001328.8828565	NaN	5001329.8662575	5001330.38280428
74	18	0	0	90	36.1581920903955	36.241610738255	23	0.766721008270979	2	10	2	NaN	2	3	0.142757223351999	1	1	NaN	15	1	15	1	121	221	321	NaN	521	2.34190302249044	2	1	NaN	5001331.2997661	NaN	5001332.2831669	5001332.79971698
74	18	0	0	90	36.1581920903955	36.241610738255	22	0.733385312259197	2	7	2	NaN	2	5	0.142757223351999	1	1	NaN	16	1	16	1	121	221	321	NaN	521	0.155589769594371	2	1	NaN	5001335.9502462	NaN	5001336.9336127	5001337.45016673
74	18	0	0	90	36.1581920903955	36.241610738255	7	0.233349872082472	2	3	2	NaN	1	3	0.142757223351999	1	1	NaN	17	1	17	1	121	221	321	NaN	521	0.0104090692475438	1	1	NaN	5001338.4337878	NaN	5001339.4171931	5001339.93375403
74	18	0	0	90	36.1581920903955	36.241610738255	8	0.266685568094254	2	4	1	NaN	1	5	0.142757223351999	1	1	NaN	18	1	18	1	121	221	321	NaN	521	0.0103970225900412	1	1	NaN	5001340.7673755	NaN	5001341.7507461	5001342.26731578
74	18	0	0	90	36.1581920903955	36.241610738255	23	0.766721008270979	2	7	3	NaN	2	3	0.142757223351999	1	1	NaN	19	1	19	1	121	221	321	NaN	521	0.0102732433006167	2	1	NaN	5001343.1008043	NaN	5001344.0843341	5001344.60088476
74	18	0	0	90	36.1581920903955	36.241610738255	7	0.233349872082472	2	5	6	NaN	1	5	0.142757223351999	1	1	NaN	20	1	20	1	121	221	321	NaN	521	0.0103931231424212	1	1	NaN	5001345.4344979	NaN	5001346.4178855	5001346.93444758
74	18	0	0	90	36.1581920903955	36.241610738255	14	0.466699744164944	2	2	3	NaN	1	3	0.142757223351999	1	1	NaN	21	1	21	1	121	221	321	NaN	521	0.0104132695123553	1	1	NaN	5001347.7512614	NaN	5001348.7347912	5001349.25133073
74	18	0	0	90	36.1581920903955	36.241610738255	12	0.40002835214138	2	11	3	NaN	2	3	0.142757223351999	1	1	NaN	22	1	22	1	121	221	321	NaN	521	0.0103830751031637	2	1	NaN	5001350.0849617	NaN	5001351.0683819	5001351.58490163
74	18	0	0	90	36.1581920903955	36.241610738255	7	0.233349872082472	2	8	6	NaN	2	5	0.142757223351999	1	1	NaN	23	1	23	1	121	221	321	NaN	521	0.0104357171803713	2	1	NaN	5001352.5351998	NaN	5001353.5185985	5001354.03514538
74	18	0	0	90	36.1581920903955	36.241610738255	11	0.366692656129599	2	4	5	NaN	1	3	0.142757223351999	1	1	NaN	24	1	24	1	121	221	321	NaN	521	0.010396322235465	1	1	NaN	5001354.8687616	NaN	5001355.8521537	5001356.36871028
74	18	0	0	90	36.1581920903955	36.241610738255	25	0.833392400294542	2	7	4	NaN	2	4	0.142757223351999	1	1	NaN	25	1	25	1	121	221	321	NaN	521	1.3837658688426	2	1	NaN	5001357.2023107	NaN	5001358.1857242	5001358.70226683
74	18	0	0	90	36.1581920903955	36.241610738255	13	0.433364048153162	2	9	4	NaN	2	5	0.142757223351999	1	1	NaN	26	1	26	1	121	221	321	NaN	521	0.0103974221274257	2	1	NaN	5001360.9026855	NaN	5001361.8860953	5001362.40263388
74	18	0	0	90	36.1581920903955	36.241610738255	7	0.233349872082472	2	10	5	NaN	2	3	0.142757223351999	1	1	NaN	27	1	27	1	121	221	321	NaN	521	0.0104430178180337	2	1	NaN	5001363.2362403	NaN	5001364.2196559	5001364.73620058
74	18	0	0	90	36.1581920903955	36.241610738255	23	0.766721008270979	2	2	4	NaN	1	4	0.142757223351999	1	1	NaN	28	1	28	1	121	221	321	NaN	521	0.0104255173355341	1	1	NaN	5001365.5698178	NaN	5001366.5532001	5001367.06976178
74	18	0	0	90	36.1581920903955	36.241610738255	10	0.333356960117817	2	7	4	NaN	2	4	0.142757223351999	1	1	NaN	29	1	29	1	121	221	321	NaN	521	0.0104296170175076	2	1	NaN	5001367.9033735	NaN	5001368.8867734	5001369.40332848
74	18	0	0	90	36.1581920903955	36.241610738255	14	0.466699744164944	2	7	1	NaN	2	5	0.142757223351999	1	1	NaN	30	1	30	1	121	221	321	NaN	521	0.0902473693713546	2	1	NaN	5001370.3035836	NaN	5001371.2870145	5001371.80355573
74	18	0	0	90	36.1581920903955	36.241610738255	23	0.766721008270979	2	8	4	NaN	2	4	0.142757223351999	1	1	NaN	31	1	31	1	121	221	321	NaN	521	0.0104237170889974	2	1	NaN	5001372.7038452	NaN	5001373.6872457	5001374.20378898
74	18	0	0	90	36.1581920903955	36.241610738255	11	0.366692656129599	2	2	1	NaN	1	3	0.142757223351999	1	1	NaN	32	1	32	1	121	221	321	NaN	521	0.0104108694940805	1	1	NaN	5001375.0374167	NaN	5001376.0207894	5001376.53736083
74	18	0	0	90	36.1581920903955	36.241610738255	11	0.366692656129599	2	5	6	NaN	1	3	0.142757223351999	1	1	NaN	33	1	33	1	121	221	321	NaN	521	0.0104139698669314	1	1	NaN	5001377.3709942	NaN	5001378.354398	5001378.87092673
74	18	0	0	90	36.1581920903955	36.241610738255	25	0.833392400294542	2	2	2	NaN	1	4	0.142757223351999	1	1	NaN	34	1	34	1	121	221	321	NaN	521	0.0105513976886868	1	1	NaN	5001379.7045437	NaN	5001380.6879853	5001381.2044769
74	18	0	0	90	36.1581920903955	36.241610738255	13	0.433364048153162	2	7	2	NaN	2	5	0.142757223351999	1	1	NaN	35	1	35	1	121	221	321	NaN	521	0.010427868925035	2	1	NaN	5001382.0380979	NaN	5001383.0214806	5001383.53805043
74	18	0	0	90	36.1581920903955	36.241610738255	14	0.466699744164944	2	2	3	NaN	1	4	0.142757223351999	1	1	NaN	36	1	36	1	121	221	321	NaN	521	0.0104351695626974	1	1	NaN	5001384.3716784	NaN	5001385.3550634	5001385.87161423
74	18	0	0	90	36.1581920903955	36.241610738255	16	0.533371136188507	2	3	1	NaN	1	5	0.142757223351999	1	1	NaN	37	1	37	1	121	221	321	NaN	521	1.28849421720952	1	1	NaN	5001386.7052238	NaN	5001387.6886297	5001388.20518208
74	18	0	0	90	36.1581920903955	36.241610738255	22	0.733385312259197	2	6	3	NaN	1	4	0.142757223351999	1	1	NaN	38	1	38	1	121	221	321	NaN	521	0.0165339224040508	1	1	NaN	5001390.3055869	NaN	5001391.289014	5001391.80553398
74	18	0	0	90	36.1581920903955	36.241610738255	25	0.833392400294542	2	4	3	NaN	1	3	0.142757223351999	1	1	NaN	39	1	39	1	121	221	321	NaN	521	1.27510096970946	1	1	NaN	5001392.6391508	NaN	5001393.6225363	5001394.13909903
74	18	0	0	90	36.1581920903955	36.241610738255	21	0.700049616247416	2	9	1	NaN	2	5	0.142757223351999	1	1	NaN	40	1	40	1	121	221	321	NaN	521	0.0103909224271774	2	1	NaN	5001396.2228502	NaN	5001397.2062328	5001397.72277888
74	18	0	0	90	36.1581920903955	36.241610738255	17	0.566706832200289	2	2	5	NaN	1	5	0.142757223351999	1	1	NaN	41	1	41	1	121	221	321	NaN	521	0.0102967899292707	1	1	NaN	5001398.5396202	NaN	5001399.5231149	5001400.03967911
74	18	0	0	90	36.1581920903955	36.241610738255	22	0.733385312259197	2	5	6	NaN	1	3	0.142757223351999	1	1	NaN	42	1	42	1	121	221	321	NaN	521	0.0104399221017957	1	1	NaN	5001400.8733186	NaN	5001401.8566905	5001402.37323508
74	18	0	0	90	36.1581920903955	36.241610738255	19	0.633378224223852	2	8	1	NaN	2	3	0.142757223351999	1	1	NaN	43	1	43	1	121	221	321	NaN	521	0.010410469956696	2	1	NaN	5001403.2068436	NaN	5001404.1902605	5001404.70680333
74	18	0	0	90	36.1581920903955	36.241610738255	10	0.333356960117817	2	1	6	NaN	1	4	0.142757223351999	1	1	NaN	44	1	44	1	121	221	321	NaN	521	0.0104257697239518	1	1	NaN	5001405.5237551	NaN	5001406.5071538	5001407.02370373
74	18	0	0	90	36.1581920903955	36.241610738255	23	0.766721008270979	2	2	2	NaN	1	3	0.142757223351999	1	1	NaN	45	1	45	1	121	221	321	NaN	521	0.0104221170768142	1	1	NaN	5001407.857329	NaN	5001408.840701	5001409.35725658
74	18	0	0	90	36.1581920903955	36.241610738255	16	0.533371136188507	2	6	3	NaN	1	3	0.142757223351999	1	1	NaN	46	1	46	1	121	221	321	NaN	521	0.0103936223313212	1	1	NaN	5001410.1908845	NaN	5001411.1743447	5001411.69082808
74	18	0	0	90	36.1581920903955	36.241610738255	18	0.60004252821207	2	12	6	NaN	2	3	0.142757223351999	1	1	NaN	47	1	47	1	121	221	321	NaN	521	0.0104244174435735	2	1	NaN	5001412.5077871	NaN	5001413.4911728	5001414.00771378
74	18	0	0	90	36.1581920903955	36.241610738255	22	0.733385312259197	2	7	1	NaN	2	5	0.142757223351999	1	1	NaN	48	1	48	1	121	221	321	NaN	521	0.0103944223374128	2	1	NaN	5001414.824673	NaN	5001415.8080646	5001416.32461038
74	18	0	0	90	36.1581920903955	36.241610738255	10	0.333356960117817	2	6	4	NaN	1	5	0.142757223351999	1	1	NaN	49	1	49	1	121	221	321	NaN	521	0.0104083688929677	1	1	NaN	5001417.1582245	NaN	5001418.1416338	5001418.65817823
74	18	0	0	90	36.1581920903955	36.241610738255	17	0.566706832200289	2	8	1	NaN	2	4	0.142757223351999	1	1	NaN	50	1	50	1	121	221	321	NaN	521	0.0103737749159336	2	1	NaN	5001419.4918017	NaN	5001420.4751831	5001420.99174253
74	18	0	0	90	36.1581920903955	36.241610738255	21	0.700049616247416	2	5	2	NaN	1	4	0.142757223351999	1	1	NaN	51	1	51	1	121	221	321	NaN	521	0.010418470017612	1	1	NaN	5001421.8087134	NaN	5001422.7920933	5001423.30863493
74	18	0	0	90	36.1581920903955	36.241610738255	24	0.800056704282761	2	9	2	NaN	2	4	0.142757223351999	1	1	NaN	52	1	52	1	121	221	321	NaN	521	1.94020517449826	2	1	NaN	5001424.1255809	NaN	5001425.1089878	5001425.62553473
74	18	0	0	90	36.1581920903955	36.241610738255	22	0.733385312259197	2	5	1	NaN	1	3	0.142757223351999	1	1	NaN	53	1	53	1	121	221	321	NaN	521	0.0104103703051805	1	1	NaN	5001428.3759483	NaN	5001429.3594098	5001429.87594923
74	18	0	0	90	36.1581920903955	36.241610738255	21	0.700049616247416	2	4	3	NaN	1	4	0.142757223351999	1	1	NaN	54	1	54	1	121	221	321	NaN	521	0.0103946225717664	1	1	NaN	5001430.6928821	NaN	5001431.6762954	5001432.19284008
74	18	0	0	90	36.1581920903955	36.241610738255	18	0.60004252821207	2	3	2	NaN	1	5	0.142757223351999	1	1	NaN	55	1	55	1	121	221	321	NaN	521	0.0104270176962018	1	1	NaN	5001433.0096727	NaN	5001433.9931907	5001434.50973988
74	18	0	0	90	36.1581920903955	36.241610738255	21	0.700049616247416	2	9	3	NaN	2	5	0.142757223351999	1	1	NaN	56	1	56	1	121	221	321	NaN	521	0.0103920232504606	2	1	NaN	5001435.3433636	NaN	5001436.3267566	5001436.84330708
74	18	0	0	90	36.1581920903955	36.241610738255	25	0.833392400294542	2	9	2	NaN	2	4	0.142757223351999	1	1	NaN	57	1	57	1	121	221	321	NaN	521	0.0104260174557567	2	1	NaN	5001437.6601355	NaN	5001438.643686	5001439.16019518
74	18	0	0	90	36.1581920903955	36.241610738255	24	0.800056704282761	2	5	6	NaN	1	3	0.142757223351999	1	1	NaN	58	1	58	1	121	221	321	NaN	521	0.0103920754045248	1	1	NaN	5001439.9938207	NaN	5001440.9772041	5001441.49377212
74	18	0	0	90	36.1581920903955	36.241610738255	15	0.500035440176725	2	2	2	NaN	1	4	0.142757223351999	1	1	NaN	59	1	59	1	121	221	321	NaN	521	1.02749986946583	1	1	NaN	5001442.310699	NaN	5001443.2941207	5001443.81066053
74	18	0	0	90	36.1581920903955	36.241610738255	6	0.20001417607069	2	8	1	NaN	2	5	0.142757223351999	1	1	NaN	60	1	60	1	121	221	321	NaN	521	0.0104100694879889	2	1	NaN	5001445.6610467	NaN	5001446.6444445	5001447.16098173
74	18	0	0	90	36.1581920903955	36.241610738255	0	0	1	11	2	NaN	2	5	0.142757223351999	1	1	NaN	61	1	61	1	111	211	311	NaN	511	0.010406669229269	2	1	NaN	5001447.9779421	NaN	5001448.961336	5001449.47788603
74	18	0	0	90	36.1581920903955	36.241610738255	23	0.766721008270979	2	10	2	NaN	2	5	0.142757223351999	1	1	NaN	62	1	62	1	121	221	321	NaN	521	1.4830877231434	2	1	NaN	5001450.294708	NaN	5001451.2782167	5001451.79478118
74	18	0	0	90	36.1581920903955	36.241610738255	18	0.60004252821207	2	6	2	NaN	1	4	0.142757223351999	1	1	NaN	63	1	63	1	121	221	321	NaN	521	0.0104306172579527	1	1	NaN	5001454.0950889	NaN	5001455.0786084	5001455.59515368
74	18	0	0	90	36.1581920903955	36.241610738255	20	0.666713920235634	2	8	5	NaN	2	5	0.142757223351999	1	1	NaN	64	2	1	1	121	221	321	NaN	521	1.53391906991601	2	1	NaN	5001469.5799921	NaN	5001470.5634783	5001471.08001053
74	18	0	0	90	36.1581920903955	36.241610738255	11	0.366692656129599	2	10	6	NaN	2	5	0.142757223351999	1	1	NaN	65	2	2	1	121	221	321	NaN	521	1.65944742225111	2	1	NaN	5001473.4304604	NaN	5001474.4138232	5001474.93039408
74	18	0	0	90	36.1581920903955	36.241610738255	12	0.40002835214138	2	8	6	NaN	2	4	0.142757223351999	1	1	NaN	66	2	3	1	121	221	321	NaN	521	0.0105436500161886	2	1	NaN	5001477.4141884	NaN	5001478.3975728	5001478.91410725
74	18	0	0	90	36.1581920903955	36.241610738255	17	0.566706832200289	2	1	1	NaN	1	3	0.142757223351999	1	1	NaN	67	2	4	1	121	221	321	NaN	521	0.0103961229324341	1	1	NaN	5001479.7310713	NaN	5001480.7144789	5001481.23101578
74	18	0	0	90	36.1581920903955	36.241610738255	22	0.733385312259197	2	4	5	NaN	1	3	0.142757223351999	1	1	NaN	68	2	5	1	121	221	321	NaN	521	0.0104092694818974	1	1	NaN	5001482.0479643	NaN	5001483.0313693	5001483.54791463
74	18	0	0	90	36.1581920903955	36.241610738255	0	0	1	10	2	NaN	2	5	0.142757223351999	1	1	NaN	69	2	6	1	111	211	311	NaN	511	0.0104090692475438	2	1	NaN	5001484.3815531	NaN	5001485.3649169	5001485.88147233
74	18	0	0	90	36.1581920903955	36.241610738255	25	0.833392400294542	2	8	3	NaN	2	4	0.142757223351999	1	1	NaN	70	2	7	1	121	221	321	NaN	521	1.12766781728715	2	1	NaN	5001486.6985137	NaN	5001487.6818219	5001488.19836268
74	18	0	0	90	36.1581920903955	36.241610738255	24	0.800056704282761	2	4	2	NaN	1	4	0.142757223351999	1	1	NaN	71	2	8	1	121	221	321	NaN	521	0.22185362316668	1	1	NaN	5001490.1320846	NaN	5001491.1154751	5001491.63203578
74	18	0	0	90	36.1581920903955	36.241610738255	14	0.466699744164944	2	1	3	NaN	1	3	0.142757223351999	1	1	NaN	72	2	9	1	121	221	321	NaN	521	0.0104136690497398	1	1	NaN	5001492.6656637	NaN	5001493.6490809	5001494.16562353
74	18	0	0	90	36.1581920903955	36.241610738255	13	0.433364048153162	2	10	2	NaN	2	5	0.142757223351999	1	1	NaN	73	2	10	1	121	221	321	NaN	521	0.0104118697345257	2	1	NaN	5001494.9992501	NaN	5001495.9825344	5001496.49918453
74	18	0	0	90	36.1581920903955	36.241610738255	7	0.233349872082472	2	2	4	NaN	1	3	0.142757223351999	1	1	NaN	74	2	11	1	121	221	321	NaN	521	0.710172169841826	1	1	NaN	5001497.3160363	NaN	5001498.2995213	5001498.81608083
74	18	0	0	90	36.1581920903955	36.241610738255	0	0	1	2	6	NaN	1	5	0.142757223351999	1	1	NaN	75	2	12	1	111	211	311	NaN	511	0.348889069631696	1	1	NaN	5001500.3329658	NaN	5001501.3164825	5001501.83303923
74	18	0	0	90	36.1581920903955	36.241610738255	7	0.233349872082472	2	7	3	NaN	2	4	0.142757223351999	1	1	NaN	76	2	13	1	121	221	321	NaN	521	0.0104060750454664	2	1	NaN	5001503.0000188	NaN	5001503.9834246	5001504.49998073
74	18	0	0	90	36.1581920903955	36.241610738255	10	0.333356960117817	2	6	6	NaN	1	5	0.142757223351999	1	1	NaN	77	2	14	1	121	221	321	NaN	521	0.0104357171803713	1	1	NaN	5001505.3169482	NaN	5001506.3003238	5001506.81687508
74	18	0	0	90	36.1581920903955	36.241610738255	13	0.433364048153162	2	2	2	NaN	1	5	0.142757223351999	1	1	NaN	78	2	15	1	121	221	321	NaN	521	1.64037276897579	1	1	NaN	5001507.6338181	NaN	5001508.6172285	5001509.13377243
74	18	0	0	90	36.1581920903955	36.241610738255	6	0.20001417607069	2	7	2	NaN	2	3	0.142757223351999	1	1	NaN	79	2	16	1	121	221	321	NaN	521	0.0103799747303128	2	1	NaN	5001511.5842146	NaN	5001512.5676007	5001513.08416123
74	18	0	0	90	36.1581920903955	36.241610738255	17	0.566706832200289	2	6	6	NaN	1	3	0.142757223351999	1	1	NaN	80	2	17	1	121	221	321	NaN	521	0.0104643693193793	1	1	NaN	5001513.9010969	NaN	5001514.8845127	5001515.40104673
74	18	0	0	90	36.1581920903955	36.241610738255	19	0.633378224223852	2	12	1	NaN	2	5	0.142757223351999	1	1	NaN	81	2	18	1	121	221	321	NaN	521	0.133836322464049	2	1	NaN	5001516.268017	NaN	5001517.2513876	5001517.76796918
74	18	0	0	90	36.1581920903955	36.241610738255	24	0.800056704282761	2	5	2	NaN	1	4	0.142757223351999	1	1	NaN	82	2	19	1	121	221	321	NaN	521	0.010424017906189	1	1	NaN	5001518.7182393	NaN	5001519.7016437	5001520.21818958
74	18	0	0	90	36.1581920903955	36.241610738255	13	0.433364048153162	2	11	1	NaN	2	3	0.142757223351999	1	1	NaN	83	2	20	1	121	221	321	NaN	521	0.959166075102985	2	1	NaN	5001521.03514	NaN	5001522.0185418	5001522.53509072
74	18	0	0	90	36.1581920903955	36.241610738255	19	0.633378224223852	2	10	1	NaN	2	4	0.142757223351999	1	1	NaN	84	2	21	1	121	221	321	NaN	521	0.0103663271293044	2	1	NaN	5001524.3021328	NaN	5001525.2855695	5001525.80208007
74	18	0	0	90	36.1581920903955	36.241610738255	8	0.266685568094254	2	7	2	NaN	2	4	0.142757223351999	1	1	NaN	85	2	22	1	121	221	321	NaN	521	0.662150222808123	2	1	NaN	5001526.6357026	NaN	5001527.6190911	5001528.13563208
74	18	0	0	90	36.1581920903955	36.241610738255	20	0.666713920235634	2	12	5	NaN	2	3	0.142757223351999	1	1	NaN	86	2	23	1	121	221	321	NaN	521	0.0104081695899367	2	1	NaN	5001529.6026418	NaN	5001530.5860545	5001531.10259633
74	18	0	0	90	36.1581920903955	36.241610738255	22	0.733385312259197	2	2	1	NaN	1	5	0.142757223351999	1	1	NaN	87	2	24	1	121	221	321	NaN	521	0.0104002226144075	1	1	NaN	5001532.3362634	NaN	5001533.319684	5001533.83620048
74	18	0	0	90	36.1581920903955	36.241610738255	19	0.633378224223852	2	6	2	NaN	1	4	0.142757223351999	1	1	NaN	88	2	25	1	121	221	321	NaN	521	0.0102688428014517	1	1	NaN	5001534.6697989	NaN	5001535.6531928	5001536.16976776
74	18	0	0	90	36.1581920903955	36.241610738255	18	0.60004252821207	2	1	4	NaN	1	3	0.142757223351999	1	1	NaN	89	2	26	1	121	221	321	NaN	521	0.0103958230465651	1	1	NaN	5001536.9866753	NaN	5001537.9701109	5001538.48666308
74	18	0	0	90	36.1581920903955	36.241610738255	9	0.300021264106035	2	9	3	NaN	2	5	0.142757223351999	1	1	NaN	90	2	27	1	121	221	321	NaN	521	0.0102699426934123	2	1	NaN	5001539.3036232	NaN	5001540.2870117	5001540.80356346
74	18	0	0	90	36.1581920903955	36.241610738255	11	0.366692656129599	2	6	6	NaN	1	3	0.142757223351999	1	1	NaN	91	2	28	1	121	221	321	NaN	521	0.0104228174313903	1	1	NaN	5001541.6204885	NaN	5001542.6039142	5001543.12044438
74	18	0	0	90	36.1581920903955	36.241610738255	8	0.266685568094254	2	11	2	NaN	2	5	0.142757223351999	1	1	NaN	92	2	29	1	121	221	321	NaN	521	0.0104080690070987	2	1	NaN	5001543.9372685	NaN	5001544.920792	5001545.43733833
74	18	0	0	90	36.1581920903955	36.241610738255	24	0.800056704282761	2	2	4	NaN	1	3	0.142757223351999	1	1	NaN	93	2	30	1	121	221	321	NaN	521	0.010425116866827	1	1	NaN	5001546.2709694	NaN	5001547.2543467	5001547.77090278
74	18	0	0	90	36.1581920903955	36.241610738255	16	0.533371136188507	2	8	5	NaN	2	4	0.142757223351999	1	1	NaN	94	2	31	1	121	221	321	NaN	521	0.85447976924479	2	1	NaN	5001548.5877295	NaN	5001549.5712387	5001550.08780193
74	18	0	0	90	36.1581920903955	36.241610738255	19	0.633378224223852	2	2	3	NaN	1	5	0.142757223351999	1	1	NaN	95	2	32	1	121	221	321	NaN	521	0.0103581277653575	1	1	NaN	5001551.754847	NaN	5001552.7382391	5001553.25477697
74	18	0	0	90	36.1581920903955	36.241610738255	0	0	1	10	5	NaN	2	3	0.142757223351999	1	1	NaN	96	2	33	1	111	211	311	NaN	511	0.0103419804945588	2	1	NaN	5001554.0717312	NaN	5001555.0551265	5001555.57168152
74	18	0	0	90	36.1581920903955	36.241610738255	7	0.233349872082472	2	11	1	NaN	2	4	0.142757223351999	1	1	NaN	97	2	34	1	121	221	321	NaN	521	0.13363846577704	2	1	NaN	5001556.3885725	NaN	5001557.3720213	5001557.88857063
74	18	0	0	90	36.1581920903955	36.241610738255	21	0.700049616247416	2	6	6	NaN	1	3	0.142757223351999	1	1	NaN	98	2	35	1	121	221	321	NaN	521	0.0104571171104908	1	1	NaN	5001558.8722091	NaN	5001559.8555863	5001560.37215228
74	18	0	0	90	36.1581920903955	36.241610738255	23	0.766721008270979	2	4	1	NaN	1	5	0.142757223351999	1	1	NaN	99	2	36	1	121	221	321	NaN	521	0.148708089254797	1	1	NaN	5001561.1889718	NaN	5001562.1725098	5001562.68904431
74	18	0	0	90	36.1581920903955	36.241610738255	25	0.833392400294542	2	12	3	NaN	2	4	0.142757223351999	1	1	NaN	100	2	37	1	121	221	321	NaN	521	0.0104087693616748	2	1	NaN	5001563.6559533	NaN	5001564.6393847	5001565.15595443
74	18	0	0	90	36.1581920903955	36.241610738255	16	0.533371136188507	2	3	5	NaN	1	3	0.142757223351999	1	1	NaN	101	2	38	1	121	221	321	NaN	521	0.0104141216725111	1	1	NaN	5001565.9728952	NaN	5001566.9562984	5001567.47284498
74	18	0	0	90	36.1581920903955	36.241610738255	12	0.40002835214138	2	1	1	NaN	1	4	0.142757223351999	1	1	NaN	102	2	39	1	121	221	321	NaN	521	1.95249977428466	1	1	NaN	5001568.289817	NaN	5001569.2732168	5001569.78974903
74	18	0	0	90	36.1581920903955	36.241610738255	24	0.800056704282761	2	7	3	NaN	2	4	0.142757223351999	1	1	NaN	103	2	40	1	121	221	321	NaN	521	0.0533331222832203	2	1	NaN	5001572.5569053	NaN	5001573.5402846	5001574.05683198
74	18	0	0	90	36.1581920903955	36.241610738255	8	0.266685568094254	2	3	1	NaN	1	5	0.142757223351999	1	1	NaN	104	2	41	1	121	221	321	NaN	521	0.0104267168790102	1	1	NaN	5001574.9236475	NaN	5001575.9071875	5001576.42372628
74	18	0	0	90	36.1581920903955	36.241610738255	18	0.60004252821207	2	8	2	NaN	2	3	0.142757223351999	1	1	NaN	105	2	42	1	121	221	321	NaN	521	0.0103958230465651	2	1	NaN	5001577.2573524	NaN	5001578.2407423	5001578.75728988
74	18	0	0	90	36.1581920903955	36.241610738255	24	0.800056704282761	2	8	5	NaN	2	4	0.142757223351999	1	1	NaN	106	2	43	1	121	221	321	NaN	521	0.0104102697223425	2	1	NaN	5001579.5909074	NaN	5001580.5743065	5001581.09085473
74	18	0	0	90	36.1581920903955	36.241610738255	25	0.833392400294542	2	5	1	NaN	1	4	0.142757223351999	1	1	NaN	107	2	44	1	121	221	321	NaN	521	0.0103913219645619	1	1	NaN	5001581.9245119	NaN	5001582.9078839	5001583.42442398
74	18	0	0	90	36.1581920903955	36.241610738255	25	0.833392400294542	2	9	2	NaN	2	4	0.142757223351999	1	1	NaN	108	2	45	1	121	221	321	NaN	521	0.0102692423388362	2	1	NaN	5001584.2413578	NaN	5001585.224769	5001585.74131586
74	18	0	0	90	36.1581920903955	36.241610738255	17	0.566706832200289	2	9	4	NaN	2	5	0.142757223351999	1	1	NaN	109	2	46	1	121	221	321	NaN	521	0.0104159694164991	2	1	NaN	5001586.5581379	NaN	5001587.5416599	5001588.05820993
74	18	0	0	90	36.1581920903955	36.241610738255	12	0.40002835214138	2	9	5	NaN	2	4	0.142757223351999	1	1	NaN	110	2	47	1	121	221	321	NaN	521	0.0103778745979071	1	0	NaN	5001588.8751205	NaN	5001589.8585549	5001590.37511072
74	18	0	0	90	36.1581920903955	36.241610738255	13	0.433364048153162	2	4	4	NaN	1	5	0.142757223351999	1	1	NaN	111	2	48	1	121	221	321	NaN	521	1.42632052209228	2	0	NaN	5001591.1920583	NaN	5001592.1754419	5001592.69200388
74	18	0	0	90	36.1581920903955	36.241610738255	13	0.433364048153162	2	10	1	NaN	2	5	0.142757223351999	1	1	NaN	112	2	49	1	121	221	321	NaN	521	0.0104340175166726	2	1	NaN	5001594.9257489	NaN	5001595.9090864	5001596.42569608
74	18	0	0	90	36.1581920903955	36.241610738255	20	0.666713920235634	2	9	6	NaN	2	3	0.142757223351999	1	1	NaN	113	2	50	1	121	221	321	NaN	521	1.23130391724408	2	1	NaN	5001597.2426453	NaN	5001598.2260379	5001598.74259368
74	18	0	0	90	36.1581920903955	36.241610738255	22	0.733385312259197	2	3	3	NaN	1	3	0.142757223351999	1	1	NaN	114	2	51	1	121	221	321	NaN	521	0.0104076694697142	1	1	NaN	5001600.7929969	NaN	5001601.7763846	5001602.29294763
74	18	0	0	90	36.1581920903955	36.241610738255	12	0.40002835214138	2	5	5	NaN	1	5	0.142757223351999	1	1	NaN	115	2	52	1	121	221	321	NaN	521	0.852259022183716	2	0	NaN	5001603.1099159	NaN	5001604.0932849	5001604.60983898
74	18	0	0	90	36.1581920903955	36.241610738255	9	0.300021264106035	2	8	4	NaN	2	5	0.142757223351999	1	1	NaN	116	2	53	1	121	221	321	NaN	521	0.0103915221989155	2	1	NaN	5001606.2768879	NaN	5001607.2602655	5001607.77682408
74	18	0	0	90	36.1581920903955	36.241610738255	11	0.366692656129599	2	3	2	NaN	1	5	0.142757223351999	1	1	NaN	117	2	54	1	121	221	321	NaN	521	0.0104690119624138	1	1	NaN	5001608.5937785	NaN	5001609.5770598	5001610.09372239
74	18	0	0	90	36.1581920903955	36.241610738255	22	0.733385312259197	2	4	1	NaN	1	3	0.142757223351999	1	1	NaN	118	2	55	1	121	221	321	NaN	521	0.963826069608331	1	1	NaN	5001610.9106809	NaN	5001611.8940674	5001612.41061183
74	18	0	0	90	36.1581920903955	36.241610738255	7	0.233349872082472	2	4	2	NaN	1	5	0.142757223351999	1	1	NaN	119	2	56	1	121	221	321	NaN	521	1.17577672284096	2	0	NaN	5001614.1943218	NaN	5001615.1777177	5001615.69426448
74	18	0	0	90	36.1581920903955	36.241610738255	25	0.833392400294542	2	3	6	NaN	1	5	0.142757223351999	1	1	NaN	120	2	57	1	121	221	321	NaN	521	0.0104236174374819	1	1	NaN	5001617.6780023	NaN	5001618.6614036	5001619.17793928
74	18	0	0	90	36.1581920903955	36.241610738255	20	0.666713920235634	2	11	1	NaN	2	3	0.142757223351999	1	1	NaN	121	2	58	1	121	221	321	NaN	521	0.010395921766758	2	1	NaN	5001619.9947669	NaN	5001620.978268	5001621.49483428
74	18	0	0	90	36.1581920903955	36.241610738255	6	0.20001417607069	2	12	4	NaN	2	3	0.142757223351999	1	1	NaN	122	2	59	1	121	221	321	NaN	521	0.218619769439101	2	1	NaN	5001622.3117024	NaN	5001623.2951962	5001623.81173933
74	18	0	0	90	36.1581920903955	36.241610738255	9	0.300021264106035	2	2	5	NaN	1	3	0.142757223351999	1	1	NaN	123	2	60	1	121	221	321	NaN	521	0.0104243168607354	1	1	NaN	5001624.8453882	NaN	5001625.8287716	5001626.34531348
74	18	0	0	90	36.1581920903955	36.241610738255	0	0	1	8	3	NaN	2	5	0.142757223351999	1	1	NaN	124	2	61	1	111	211	311	NaN	511	0.0104122692719102	2	1	NaN	5001627.1622229	NaN	5001628.1456673	5001628.66221403
74	18	0	0	90	36.1581920903955	36.241610738255	23	0.766721008270979	2	1	2	NaN	1	5	0.142757223351999	1	1	NaN	125	2	62	1	121	221	321	NaN	521	0.0103973224759102	1	1	NaN	5001629.4958387	NaN	5001630.4792193	5001630.99578048
74	18	0	0	90	36.1581920903955	36.241610738255	16	0.533371136188507	2	10	5	NaN	2	5	0.142757223351999	1	1	NaN	126	2	63	1	121	221	321	NaN	521	0.0104263173416257	2	1	NaN	5001631.812614	NaN	5001632.7961267	5001633.31266638
74	18	0	0	90	36.1581920903955	36.241610738255	18	0.60004252821207	2	11	2	NaN	2	5	0.142757223351999	1	1	NaN	127	3	1	1	121	221	321	NaN	521	0.0103804748505354	2	1	NaN	5001655.8650955	NaN	5001656.8485032	5001657.36505012
74	18	0	0	90	36.1581920903955	36.241610738255	13	0.433364048153162	2	1	2	NaN	1	5	0.142757223351999	1	1	NaN	128	3	2	1	121	221	321	NaN	521	0.0104024233296514	1	1	NaN	5001658.1986852	NaN	5001659.1820477	5001659.69860728
74	18	0	0	90	36.1581920903955	36.241610738255	17	0.566706832200289	2	5	2	NaN	1	5	0.142757223351999	1	1	NaN	129	3	3	1	121	221	321	NaN	521	0.0206128424033523	1	1	NaN	5001660.5654473	NaN	5001661.5489582	5001662.06551766
74	18	0	0	90	36.1581920903955	36.241610738255	10	0.333356960117817	2	4	4	NaN	1	5	0.142757223351999	1	1	NaN	130	3	4	1	121	221	321	NaN	521	0.0104049229994416	1	1	NaN	5001662.8991213	NaN	5001663.8824945	5001664.39906648
74	18	0	0	90	36.1581920903955	36.241610738255	12	0.40002835214138	2	6	3	NaN	1	5	0.142757223351999	1	1	NaN	131	3	5	1	121	221	321	NaN	521	0.562537416815758	1	1	NaN	5001665.2158865	NaN	5001666.1994068	5001666.71595838
74	18	0	0	90	36.1581920903955	36.241610738255	13	0.433364048153162	2	5	4	NaN	1	3	0.142757223351999	1	1	NaN	132	3	6	1	121	221	321	NaN	521	0.010366627946496	1	1	NaN	5001668.0996396	NaN	5001669.0830193	5001669.59960157
74	18	0	0	90	36.1581920903955	36.241610738255	25	0.833392400294542	2	6	1	NaN	1	4	0.142757223351999	1	1	NaN	133	3	7	1	121	221	321	NaN	521	0.01040752325207	1	1	NaN	5001670.4165149	NaN	5001671.3999259	5001671.91647218
74	18	0	0	90	36.1581920903955	36.241610738255	0	0	1	6	1	NaN	1	3	0.142757223351999	1	1	NaN	134	3	8	1	111	211	311	NaN	511	0.0104059223085642	1	1	NaN	5001672.766747	NaN	5001673.7501625	5001674.26670948
74	18	0	0	90	36.1581920903955	36.241610738255	12	0.40002835214138	2	2	1	NaN	1	3	0.142757223351999	1	1	NaN	135	3	9	1	121	221	321	NaN	521	0.0104795694351196	1	1	NaN	5001675.0836574	NaN	5001676.067073	5001676.58360013
74	18	0	0	90	36.1581920903955	36.241610738255	19	0.633378224223852	2	7	1	NaN	2	5	0.142757223351999	1	1	NaN	136	3	10	1	121	221	321	NaN	521	0.0103946225717664	2	1	NaN	5001677.4004238	NaN	5001678.3839938	5001678.90049648
74	18	0	0	90	36.1581920903955	36.241610738255	17	0.566706832200289	2	3	2	NaN	1	3	0.142757223351999	1	1	NaN	137	3	11	1	121	221	321	NaN	521	1.66807556897402	1	1	NaN	5001679.7341011	NaN	5001680.7175147	5001681.23405803
74	18	0	0	90	36.1581920903955	36.241610738255	11	0.366692656129599	2	7	1	NaN	2	3	0.142757223351999	1	1	NaN	138	3	12	1	121	221	321	NaN	521	0.0103959226980805	2	1	NaN	5001683.7178394	NaN	5001684.7012244	5001685.21778438
74	18	0	0	90	36.1581920903955	36.241610738255	11	0.366692656129599	2	9	6	NaN	2	5	0.142757223351999	1	1	NaN	139	3	13	1	121	221	321	NaN	521	0.0104244174435735	2	1	NaN	5001686.0513973	NaN	5001687.0348062	5001687.55135648
74	18	0	0	90	36.1581920903955	36.241610738255	18	0.60004252821207	2	9	3	NaN	2	5	0.142757223351999	1	1	NaN	140	3	14	1	121	221	321	NaN	521	0.0224781231954694	2	1	NaN	5001688.4516133	NaN	5001689.4350227	5001689.95158368
74	18	0	0	90	36.1581920903955	36.241610738255	16	0.533371136188507	2	5	1	NaN	1	5	0.142757223351999	1	1	NaN	141	3	15	1	121	221	321	NaN	521	0.0104090692475438	1	1	NaN	5001690.7850707	NaN	5001691.7686251	5001692.28515003
74	18	0	0	90	36.1581920903955	36.241610738255	14	0.466699744164944	2	6	5	NaN	1	5	0.142757223351999	1	1	NaN	142	3	16	1	121	221	321	NaN	521	0.0103849750012159	1	1	NaN	5001693.1021232	NaN	5001694.0854801	5001694.60205142
74	18	0	0	90	36.1581920903955	36.241610738255	16	0.533371136188507	2	11	5	NaN	2	3	0.142757223351999	1	1	NaN	143	3	17	1	121	221	321	NaN	521	1.20723446924239	1	0	NaN	5001695.4189954	NaN	5001696.4023966	5001696.91894113
74	18	0	0	90	36.1581920903955	36.241610738255	19	0.633378224223852	2	3	2	NaN	1	4	0.142757223351999	1	1	NaN	144	3	18	1	121	221	321	NaN	521	0.0103956218808889	1	1	NaN	5001698.9360074	NaN	5001699.9194183	5001700.43594938
74	18	0	0	90	36.1581920903955	36.241610738255	10	0.333356960117817	2	2	5	NaN	1	3	0.142757223351999	1	1	NaN	145	3	19	1	121	221	321	NaN	521	0.0104042692109942	1	1	NaN	5001701.2529116	NaN	5001702.2363122	5001702.75285583
74	18	0	0	90	36.1581920903955	36.241610738255	21	0.700049616247416	2	5	3	NaN	1	3	0.142757223351999	1	1	NaN	146	3	20	1	121	221	321	NaN	521	0.0103810746222734	1	1	NaN	5001703.5697975	NaN	5001704.5531893	5001705.06975373
74	18	0	0	90	36.1581920903955	36.241610738255	19	0.633378224223852	2	11	1	NaN	2	4	0.142757223351999	1	1	NaN	147	3	21	1	121	221	321	NaN	521	0.0104688173159957	2	1	NaN	5001705.8866251	NaN	5001706.8700909	5001707.38663358
74	18	0	0	90	36.1581920903955	36.241610738255	25	0.833392400294542	2	1	4	NaN	1	5	0.142757223351999	1	1	NaN	148	3	22	1	121	221	321	NaN	521	0.0103760752826929	1	1	NaN	5001708.2035844	NaN	5001709.1869637	5001709.70354383
74	18	0	0	90	36.1581920903955	36.241610738255	23	0.766721008270979	2	6	6	NaN	1	3	0.142757223351999	1	1	NaN	149	3	23	1	121	221	321	NaN	521	0.0104156695306301	1	1	NaN	5001710.5371603	NaN	5001711.5205458	5001712.03710053
74	18	0	0	90	36.1581920903955	36.241610738255	9	0.300021264106035	2	10	6	NaN	2	4	0.142757223351999	1	1	NaN	150	3	24	1	121	221	321	NaN	521	0.0103933224454522	2	1	NaN	5001713.1206996	NaN	5001714.1041509	5001714.62068298
74	18	0	0	90	36.1581920903955	36.241610738255	16	0.533371136188507	2	1	1	NaN	1	5	0.142757223351999	1	1	NaN	151	3	25	1	121	221	321	NaN	521	0.20411076862365	1	1	NaN	5001715.4541592	NaN	5001716.4377048	5001716.95425143
74	18	0	0	90	36.1581920903955	36.241610738255	8	0.266685568094254	2	8	4	NaN	2	4	0.142757223351999	1	1	NaN	152	3	26	1	121	221	321	NaN	521	2.11921147536486	2	1	NaN	5001717.9712232	NaN	5001718.954671	5001719.47117293
74	18	0	0	90	36.1581920903955	36.241610738255	12	0.40002835214138	2	7	1	NaN	2	4	0.142757223351999	1	1	NaN	153	3	27	1	121	221	321	NaN	521	0.0104085691273212	2	1	NaN	5001722.4049813	NaN	5001723.3883897	5001723.90494153
74	18	0	0	90	36.1581920903955	36.241610738255	25	0.833392400294542	2	10	1	NaN	2	5	0.142757223351999	1	1	NaN	154	3	28	1	121	221	321	NaN	521	0.0103956218808889	2	1	NaN	5001724.7218843	NaN	5001725.7052771	5001726.22182628
74	18	0	0	90	36.1581920903955	36.241610738255	17	0.566706832200289	2	11	5	NaN	2	5	0.142757223351999	1	1	NaN	155	3	29	1	121	221	321	NaN	521	0.107587317936122	2	1	NaN	5001727.0387705	NaN	5001728.0221731	5001728.53872518
74	18	0	0	90	36.1581920903955	36.241610738255	22	0.733385312259197	2	1	5	NaN	1	4	0.142757223351999	1	1	NaN	156	3	30	1	121	221	321	NaN	521	0.0103933224454522	1	1	NaN	5001729.4556849	NaN	5001730.4390808	5001730.95563138
74	18	0	0	90	36.1581920903955	36.241610738255	10	0.333356960117817	2	7	3	NaN	2	3	0.142757223351999	1	1	NaN	157	3	31	1	121	221	321	NaN	521	1.55813171807677	2	1	NaN	5001731.7725717	NaN	5001732.7559787	5001733.27252458
74	18	0	0	90	36.1581920903955	36.241610738255	17	0.566706832200289	2	12	2	NaN	2	4	0.142757223351999	1	1	NaN	158	3	32	1	121	221	321	NaN	521	0.0103599280118942	2	1	NaN	5001735.6396391	NaN	5001736.623018	5001737.13957657
74	18	0	0	90	36.1581920903955	36.241610738255	14	0.466699744164944	2	8	4	NaN	2	3	0.142757223351999	1	1	NaN	159	3	33	1	121	221	321	NaN	521	0.0104100694879889	2	1	NaN	5001737.9565101	NaN	5001738.939923	5001739.45647163
74	18	0	0	90	36.1581920903955	36.241610738255	16	0.533371136188507	2	2	5	NaN	1	4	0.142757223351999	1	1	NaN	160	3	34	1	121	221	321	NaN	521	0.0103951226919889	1	1	NaN	5001740.2732913	NaN	5001741.2568229	5001741.77336358
74	18	0	0	90	36.1581920903955	36.241610738255	9	0.300021264106035	2	10	6	NaN	2	5	0.142757223351999	1	1	NaN	161	3	35	1	121	221	321	NaN	521	0.619922216981649	2	1	NaN	5001742.5901676	NaN	5001743.5737091	5001744.09025388
74	18	0	0	90	36.1581920903955	36.241610738255	25	0.833392400294542	2	11	4	NaN	2	5	0.142757223351999	1	1	NaN	162	3	36	1	121	221	321	NaN	521	0.0102718425914645	2	1	NaN	5001745.5239464	NaN	5001746.5072921	5001747.02389286
74	18	0	0	90	36.1581920903955	36.241610738255	0	0	1	11	2	NaN	2	4	0.142757223351999	1	1	NaN	163	3	37	1	111	211	311	NaN	511	0.0103288851678371	2	1	NaN	5001747.8575914	NaN	5001748.8408957	5001749.35744961
74	18	0	0	90	36.1581920903955	36.241610738255	9	0.300021264106035	2	11	4	NaN	2	5	0.142757223351999	1	1	NaN	164	3	38	1	121	221	321	NaN	521	0.0103948228061199	2	1	NaN	5001750.1743467	NaN	5001751.1578031	5001751.67433958
74	18	0	0	90	36.1581920903955	36.241610738255	8	0.266685568094254	2	3	6	NaN	1	5	0.142757223351999	1	1	NaN	165	3	39	1	121	221	321	NaN	521	0.0105049172416329	1	1	NaN	5001752.49127	NaN	5001753.4746885	5001753.99124848
74	18	0	0	90	36.1581920903955	36.241610738255	6	0.20001417607069	2	8	5	NaN	2	5	0.142757223351999	1	1	NaN	166	3	40	1	121	221	321	NaN	521	0.0102532943710685	2	1	NaN	5001754.8082052	NaN	5001755.7915674	5001756.30814971
74	18	0	0	90	36.1581920903955	36.241610738255	6	0.20001417607069	2	5	2	NaN	1	5	0.142757223351999	1	1	NaN	167	3	41	1	121	221	321	NaN	521	0.0103330845013261	1	1	NaN	5001757.1250681	NaN	5001758.1084607	5001758.62502082
74	18	0	0	90	36.1581920903955	36.241610738255	23	0.766721008270979	2	3	4	NaN	1	3	0.142757223351999	1	1	NaN	168	3	42	1	121	221	321	NaN	521	0.0104029225185513	1	1	NaN	5001759.8586471	NaN	5001760.8420792	5001761.35862368
74	18	0	0	90	36.1581920903955	36.241610738255	17	0.566706832200289	2	1	3	NaN	1	4	0.142757223351999	1	1	NaN	169	3	43	1	121	221	321	NaN	521	0.0104363178834319	1	1	NaN	5001762.175573	NaN	5001763.1589765	5001763.67553308
74	18	0	0	90	36.1581920903955	36.241610738255	10	0.333356960117817	2	5	4	NaN	1	3	0.142757223351999	1	1	NaN	170	3	44	1	121	221	321	NaN	521	0.010408922098577	1	1	NaN	5001764.5924717	NaN	5001765.5758581	5001766.09242038
74	18	0	0	90	36.1581920903955	36.241610738255	9	0.300021264106035	2	3	3	NaN	1	3	0.142757223351999	1	1	NaN	171	3	45	1	121	221	321	NaN	521	0.0102703422307968	1	1	NaN	5001766.9093887	NaN	5001767.8927745	5001768.40932726
74	18	0	0	90	36.1581920903955	36.241610738255	18	0.60004252821207	2	4	1	NaN	1	5	0.142757223351999	1	1	NaN	172	3	46	1	121	221	321	NaN	521	0.0103791747242212	1	1	NaN	5001769.2262669	NaN	5001770.2097269	5001770.72622003
74	18	0	0	90	36.1581920903955	36.241610738255	22	0.733385312259197	2	10	6	NaN	2	5	0.142757223351999	1	1	NaN	173	3	47	1	121	221	321	NaN	521	0.0104124695062637	2	1	NaN	5001771.5598178	NaN	5001772.5432221	5001773.05978093
74	18	0	0	90	36.1581920903955	36.241610738255	15	0.500035440176725	2	4	6	NaN	1	3	0.142757223351999	1	1	NaN	174	3	48	1	121	221	321	NaN	521	0.0103948228061199	1	1	NaN	5001773.8933364	NaN	5001774.8767953	5001775.39334728
74	18	0	0	90	36.1581920903955	36.241610738255	14	0.466699744164944	2	12	4	NaN	2	5	0.142757223351999	1	1	NaN	175	3	49	1	121	221	321	NaN	521	0.0104224691167474	2	1	NaN	5001776.2103902	NaN	5001777.1936939	5001777.71023523
74	18	0	0	90	36.1581920903955	36.241610738255	14	0.466699744164944	2	3	1	NaN	1	3	0.142757223351999	1	1	NaN	176	3	50	1	121	221	321	NaN	521	0.0104250172153115	1	1	NaN	5001778.5272116	NaN	5001779.5105805	5001780.02712948
74	18	0	0	90	36.1581920903955	36.241610738255	12	0.40002835214138	2	10	3	NaN	2	3	0.142757223351999	1	1	NaN	177	3	51	1	121	221	321	NaN	521	0.0104086697101593	2	1	NaN	5001780.8440782	NaN	5001781.827493	5001782.34403263
74	18	0	0	90	36.1581920903955	36.241610738255	6	0.20001417607069	2	1	5	NaN	1	5	0.142757223351999	1	1	NaN	178	3	52	1	121	221	321	NaN	521	0.0104056233540177	1	1	NaN	5001783.1776486	NaN	5001784.1610677	5001784.67759218
74	18	0	0	90	36.1581920903955	36.241610738255	23	0.766721008270979	2	5	3	NaN	1	5	0.142757223351999	1	1	NaN	179	3	53	1	121	221	321	NaN	521	0.0103920232504606	1	1	NaN	5001785.4944156	NaN	5001786.4779377	5001786.99448168
74	18	0	0	90	36.1581920903955	36.241610738255	15	0.500035440176725	2	8	6	NaN	2	4	0.142757223351999	1	1	NaN	180	3	54	1	121	221	321	NaN	521	0.0104024233296514	2	1	NaN	5001787.8281303	NaN	5001788.8114976	5001789.32805408
74	18	0	0	90	36.1581920903955	36.241610738255	15	0.500035440176725	2	9	1	NaN	2	4	0.142757223351999	1	1	NaN	181	3	55	1	121	221	321	NaN	521	0.0104168690741062	2	1	NaN	5001790.1615834	NaN	5001791.1450865	5001791.66161723
74	18	0	0	90	36.1581920903955	36.241610738255	22	0.733385312259197	2	12	4	NaN	2	5	0.142757223351999	1	1	NaN	182	3	56	1	121	221	321	NaN	521	0.0103969229385257	2	1	NaN	5001792.4952263	NaN	5001793.478614	5001793.99517938
74	18	0	0	90	36.1581920903955	36.241610738255	15	0.500035440176725	2	5	3	NaN	1	4	0.142757223351999	1	1	NaN	183	3	57	1	121	221	321	NaN	521	0.0104092694818974	1	1	NaN	5001794.812114	NaN	5001795.7955314	5001796.31207423
74	18	0	0	90	36.1581920903955	36.241610738255	23	0.766721008270979	2	1	1	NaN	1	3	0.142757223351999	1	1	NaN	184	3	58	1	121	221	321	NaN	521	0.0104102697223425	1	1	NaN	5001797.145697	NaN	5001798.1290825	5001798.64563613
74	18	0	0	90	36.1581920903955	36.241610738255	16	0.533371136188507	2	8	3	NaN	2	5	0.142757223351999	1	1	NaN	185	3	59	1	121	221	321	NaN	521	0.0104237180203199	2	1	NaN	5001799.4626267	NaN	5001800.4459913	5001800.96252918
74	18	0	0	90	36.1581920903955	36.241610738255	17	0.566706832200289	2	11	6	NaN	2	5	0.142757223351999	1	1	NaN	186	3	60	1	121	221	321	NaN	521	0.135112922638655	2	1	NaN	5001801.7793529	NaN	5001802.7628782	5001803.27942718
74	18	0	0	90	36.1581920903955	36.241610738255	0	0	1	3	2	NaN	1	4	0.142757223351999	1	1	NaN	187	3	61	1	111	211	311	NaN	511	0.0104075698181987	1	1	NaN	5001804.2297313	NaN	5001805.2131079	5001805.72966613
74	18	0	0	90	36.1581920903955	36.241610738255	7	0.233349872082472	2	12	2	NaN	2	5	0.142757223351999	1	1	NaN	188	3	62	1	121	221	321	NaN	521	0.0103135854005814	2	1	NaN	5001806.5466294	NaN	5001807.5300362	5001808.04656981
74	18	0	0	90	36.1581920903955	36.241610738255	23	0.766721008270979	2	9	3	NaN	2	5	0.142757223351999	1	1	NaN	189	3	63	1	121	221	321	NaN	521	0.0104219168424606	2	1	NaN	5001808.8635059	NaN	5001809.8469082	5001810.36345038
74	18	0	0	90	36.1581920903955	36.241610738255	19	0.633378224223852	2	4	4	NaN	1	5	0.142757223351999	1	1	NaN	190	4	1	1	121	221	321	NaN	521	0.0205832328647375	2	0	NaN	5001819.7979886	NaN	5001820.7813168	5001821.29787687
74	18	0	0	90	36.1581920903955	36.241610738255	20	0.666713920235634	2	7	6	NaN	2	4	0.142757223351999	1	1	NaN	191	4	2	1	121	221	321	NaN	521	0.0104268174618483	2	1	NaN	5001822.1315005	NaN	5001823.1148987	5001823.63143268
74	18	0	0	90	36.1581920903955	36.241610738255	9	0.300021264106035	2	4	5	NaN	1	4	0.142757223351999	1	1	NaN	192	4	3	1	121	221	321	NaN	521	0.0103917745873332	1	1	NaN	5001824.4483761	NaN	5001825.4317779	5001825.94832893
74	18	0	0	90	36.1581920903955	36.241610738255	8	0.266685568094254	2	7	2	NaN	2	3	0.142757223351999	1	1	NaN	193	4	4	1	121	221	321	NaN	521	0.0103916227817535	2	1	NaN	5001826.7651557	NaN	5001827.7486632	5001828.26521538
74	18	0	0	90	36.1581920903955	36.241610738255	20	0.666713920235634	2	10	6	NaN	2	3	0.142757223351999	1	1	NaN	194	4	5	1	121	221	321	NaN	521	0.0104227177798748	2	1	NaN	5001829.0822722	NaN	5001830.0655924	5001830.58212168
74	18	0	0	90	36.1581920903955	36.241610738255	24	0.800056704282761	2	1	4	NaN	1	5	0.142757223351999	1	1	NaN	195	4	6	1	121	221	321	NaN	521	0.307467422448099	1	1	NaN	5001831.3989634	NaN	5001832.382365	5001832.89900608
74	18	0	0	90	36.1581920903955	36.241610738255	21	0.700049616247416	2	11	1	NaN	2	5	0.142757223351999	1	1	NaN	196	4	7	1	121	221	321	NaN	521	1.46661651786417	2	1	NaN	5001834.0159758	NaN	5001834.9993817	5001835.51593848
74	18	0	0	90	36.1581920903955	36.241610738255	14	0.466699744164944	2	5	3	NaN	1	3	0.142757223351999	1	1	NaN	197	4	8	1	121	221	321	NaN	521	0.0103974221274257	1	1	NaN	5001837.7829212	NaN	5001838.7664329	5001839.28297138
74	18	0	0	90	36.1581920903955	36.241610738255	18	0.60004252821207	2	7	3	NaN	2	5	0.142757223351999	1	1	NaN	198	4	9	1	121	221	321	NaN	521	0.0104360170662403	2	1	NaN	5001840.0998829	NaN	5001841.0833766	5001841.59986048
74	18	0	0	90	36.1581920903955	36.241610738255	14	0.466699744164944	2	10	3	NaN	2	5	0.142757223351999	1	1	NaN	199	4	10	1	121	221	321	NaN	521	0.0103953219950199	2	1	NaN	5001842.4667953	NaN	5001843.4502152	5001843.96676988
74	18	0	0	90	36.1581920903955	36.241610738255	15	0.500035440176725	2	5	3	NaN	1	4	0.142757223351999	1	1	NaN	200	4	11	1	121	221	321	NaN	521	0.0102679943665862	1	1	NaN	5001844.7835806	NaN	5001845.767119	5001846.28366841
74	18	0	0	90	36.1581920903955	36.241610738255	8	0.266685568094254	2	9	6	NaN	2	4	0.142757223351999	1	1	NaN	201	4	12	1	121	221	321	NaN	521	0.0104233175516129	2	1	NaN	5001847.1006002	NaN	5001848.0839935	5001848.60056258
74	18	0	0	90	36.1581920903955	36.241610738255	18	0.60004252821207	2	4	5	NaN	1	4	0.142757223351999	1	1	NaN	202	4	13	1	121	221	321	NaN	521	0.0104226171970367	1	1	NaN	5001849.4174884	NaN	5001850.4009095	5001850.91744978
74	18	0	0	90	36.1581920903955	36.241610738255	13	0.433364048153162	2	7	6	NaN	2	5	0.142757223351999	1	1	NaN	203	4	14	1	121	221	321	NaN	521	0.236372128129005	2	1	NaN	5001851.734364	NaN	5001852.7178074	5001853.23434797
74	18	0	0	90	36.1581920903955	36.241610738255	17	0.566706832200289	2	3	5	NaN	1	5	0.142757223351999	1	1	NaN	204	4	15	1	121	221	321	NaN	521	0.0104077700525522	1	1	NaN	5001854.2846407	NaN	5001855.268061	5001855.78460253
74	18	0	0	90	36.1581920903955	36.241610738255	21	0.700049616247416	2	3	3	NaN	1	3	0.142757223351999	1	1	NaN	205	4	16	1	121	221	321	NaN	521	0.010394923388958	1	1	NaN	5001856.6015856	NaN	5001857.5849374	5001858.10150148
74	18	0	0	90	36.1581920903955	36.241610738255	25	0.833392400294542	2	12	1	NaN	2	4	0.142757223351999	1	1	NaN	206	4	17	1	121	221	321	NaN	521	0.0104207694530487	2	1	NaN	5001858.918443	NaN	5001859.9018476	5001860.41838513
74	18	0	0	90	36.1581920903955	36.241610738255	18	0.60004252821207	2	8	6	NaN	2	5	0.142757223351999	1	1	NaN	207	4	18	1	121	221	321	NaN	521	0.0103944223374128	2	1	NaN	5001861.2353537	NaN	5001862.2186305	5001862.73528608
74	18	0	0	90	36.1581920903955	36.241610738255	12	0.40002835214138	2	5	1	NaN	1	5	0.142757223351999	1	1	NaN	208	4	19	1	121	221	321	NaN	521	0.0104365171864629	1	1	NaN	5001863.5689004	NaN	5001864.5522943	5001865.06884188
74	18	0	0	90	36.1581920903955	36.241610738255	13	0.433364048153162	2	8	1	NaN	2	3	0.142757223351999	1	1	NaN	209	4	20	1	121	221	321	NaN	521	0.0103972218930721	2	1	NaN	5001865.8857965	NaN	5001866.8691913	5001867.38574308
74	18	0	0	90	36.1581920903955	36.241610738255	13	0.433364048153162	2	12	6	NaN	2	4	0.142757223351999	1	1	NaN	210	4	21	1	121	221	321	NaN	521	0.0104208178818226	2	1	NaN	5001868.2027268	NaN	5001869.186093	5001869.70263158
74	18	0	0	90	36.1581920903955	36.241610738255	18	0.60004252821207	2	3	4	NaN	1	3	0.142757223351999	1	1	NaN	211	4	22	1	121	221	321	NaN	521	0.0104230176657438	1	1	NaN	5001870.5195871	NaN	5001871.5029856	5001872.01952678
74	18	0	0	90	36.1581920903955	36.241610738255	21	0.700049616247416	2	6	2	NaN	1	4	0.142757223351999	1	1	NaN	212	4	23	1	121	221	321	NaN	521	0.981775416992605	1	1	NaN	5001872.8531408	NaN	5001873.8365429	5001874.35309128
74	18	0	0	90	36.1581920903955	36.241610738255	6	0.20001417607069	2	6	3	NaN	1	3	0.142757223351999	1	1	NaN	213	4	24	1	121	221	321	NaN	521	0.769112922251225	2	0	NaN	5001876.1534835	NaN	5001877.1369327	5001877.65342788
74	18	0	0	90	36.1581920903955	36.241610738255	19	0.633378224223852	2	9	2	NaN	2	5	0.142757223351999	1	1	NaN	214	4	25	1	121	221	321	NaN	521	0.0104251177981496	2	1	NaN	5001879.2370933	NaN	5001880.2205018	5001880.73705098
74	18	0	0	90	36.1581920903955	36.241610738255	24	0.800056704282761	2	3	3	NaN	1	4	0.142757223351999	1	1	NaN	215	4	26	1	121	221	321	NaN	521	1.51981847546995	1	1	NaN	5001881.5705995	NaN	5001882.554059	5001883.07062232
74	18	0	0	90	36.1581920903955	36.241610738255	8	0.266685568094254	2	9	3	NaN	2	3	0.142757223351999	1	1	NaN	216	4	27	1	121	221	321	NaN	521	0.0104067688807845	2	1	NaN	5001885.4043697	NaN	5001886.387786	5001886.90433573
74	18	0	0	90	36.1581920903955	36.241610738255	10	0.333356960117817	2	11	5	NaN	2	4	0.142757223351999	1	1	NaN	217	4	28	1	121	221	321	NaN	521	0.0104061225429177	2	1	NaN	5001887.7213084	NaN	5001888.7046838	5001889.22122488
74	18	0	0	90	36.1581920903955	36.241610738255	17	0.566706832200289	2	12	3	NaN	2	5	0.142757223351999	1	1	NaN	218	4	29	1	121	221	321	NaN	521	1.42010506894439	2	1	NaN	5001890.0548376	NaN	5001891.0382518	5001891.55479063
74	18	0	0	90	36.1581920903955	36.241610738255	11	0.366692656129599	2	1	3	NaN	1	4	0.142757223351999	1	1	NaN	219	4	30	1	121	221	321	NaN	521	0.0104248179122806	1	1	NaN	5001893.7885667	NaN	5001894.7719324	5001895.28849828
74	18	0	0	90	36.1581920903955	36.241610738255	9	0.300021264106035	2	5	5	NaN	1	5	0.142757223351999	1	1	NaN	220	4	31	1	121	221	321	NaN	521	0.0104264179244637	1	1	NaN	5001896.1054396	NaN	5001897.0887981	5001897.60537988
74	18	0	0	90	36.1581920903955	36.241610738255	9	0.300021264106035	2	1	2	NaN	1	3	0.142757223351999	1	1	NaN	221	4	32	1	121	221	321	NaN	521	0.0104250172153115	1	1	NaN	5001898.4223494	NaN	5001899.4057376	5001899.92227498
74	18	0	0	90	36.1581920903955	36.241610738255	8	0.266685568094254	2	1	5	NaN	1	5	0.142757223351999	1	1	NaN	222	4	33	1	121	221	321	NaN	521	1.56759426929057	1	1	NaN	5001900.73918	NaN	5001901.7226325	5001902.23917453
74	18	0	0	90	36.1581920903955	36.241610738255	13	0.433364048153162	2	3	5	NaN	1	3	0.142757223351999	1	1	NaN	223	4	34	1	121	221	321	NaN	521	0.0103987222537398	1	1	NaN	5001904.6229456	NaN	5001905.6063482	5001906.12289008
74	18	0	0	90	36.1581920903955	36.241610738255	13	0.433364048153162	2	6	2	NaN	1	4	0.142757223351999	1	1	NaN	224	4	35	1	121	221	321	NaN	521	0.0104225696995854	2	0	NaN	5001906.956506	NaN	5001907.9399004	5001908.45645553
74	18	0	0	90	36.1581920903955	36.241610738255	11	0.366692656129599	2	12	3	NaN	2	5	0.142757223351999	1	1	NaN	225	4	36	1	121	221	321	NaN	521	0.0103512806817889	2	1	NaN	5001909.2735158	NaN	5001910.2567861	5001910.77335462
74	18	0	0	90	36.1581920903955	36.241610738255	16	0.533371136188507	2	4	4	NaN	1	5	0.142757223351999	1	1	NaN	226	4	37	1	121	221	321	NaN	521	0.0104076694697142	1	1	NaN	5001911.590175	NaN	5001912.5736853	5001913.09024973
74	18	0	0	90	36.1581920903955	36.241610738255	6	0.20001417607069	2	10	2	NaN	2	3	0.142757223351999	1	1	NaN	227	4	38	1	121	221	321	NaN	521	0.0104071693494916	2	1	NaN	5001913.9072158	NaN	5001914.8905972	5001915.40714783
74	18	0	0	90	36.1581920903955	36.241610738255	21	0.700049616247416	2	12	3	NaN	2	5	0.142757223351999	1	1	NaN	228	4	39	1	121	221	321	NaN	521	0.0104239694774151	2	1	NaN	5001916.2240594	NaN	5001917.2074929	5001917.72404373
74	18	0	0	90	36.1581920903955	36.241610738255	16	0.533371136188507	2	4	6	NaN	1	5	0.142757223351999	1	1	NaN	229	4	40	1	121	221	321	NaN	521	0.0103950230404735	1	1	NaN	5001918.540998	NaN	5001919.5243673	5001920.04093068
74	18	0	0	90	36.1581920903955	36.241610738255	23	0.766721008270979	2	7	5	NaN	2	3	0.142757223351999	1	1	NaN	230	4	41	1	121	221	321	NaN	521	0.0103481793776155	1	0	NaN	5001920.8577577	NaN	5001921.8412821	5001922.35782342
74	18	0	0	90	36.1581920903955	36.241610738255	12	0.40002835214138	2	4	2	NaN	1	5	0.142757223351999	1	1	NaN	231	4	42	1	121	221	321	NaN	521	0.0103884227573872	1	1	NaN	5001923.1748235	NaN	5001924.1581755	5001924.67471908
74	18	0	0	90	36.1581920903955	36.241610738255	19	0.633378224223852	2	9	5	NaN	2	3	0.142757223351999	1	1	NaN	232	4	43	1	121	221	321	NaN	521	1.42312016990036	2	1	NaN	5001925.4916715	NaN	5001926.4750561	5001926.99161073
74	18	0	0	90	36.1581920903955	36.241610738255	8	0.266685568094254	2	5	2	NaN	1	3	0.142757223351999	1	1	NaN	233	4	44	1	121	221	321	NaN	521	0.0103912223130465	1	1	NaN	5001929.2252975	NaN	5001930.2087653	5001930.72532248
74	18	0	0	90	36.1581920903955	36.241610738255	10	0.333356960117817	2	10	4	NaN	2	3	0.142757223351999	1	1	NaN	234	4	45	1	121	221	321	NaN	521	0.348014122806489	2	1	NaN	5001931.5589256	NaN	5001932.5422316	5001933.05888708
74	18	0	0	90	36.1581920903955	36.241610738255	8	0.266685568094254	2	10	5	NaN	2	3	0.142757223351999	1	1	NaN	235	4	46	1	121	221	321	NaN	521	0.0104095693677664	2	1	NaN	5001934.842491	NaN	5001935.8259943	5001936.34253243
74	18	0	0	90	36.1581920903955	36.241610738255	0	0	1	1	3	NaN	1	3	0.142757223351999	1	1	NaN	236	4	47	1	111	211	311	NaN	511	0.0104648172855377	1	1	NaN	5001937.1594779	NaN	5001938.1428878	5001938.65944728
74	18	0	0	90	36.1581920903955	36.241610738255	25	0.833392400294542	2	3	3	NaN	1	3	0.142757223351999	1	1	NaN	237	4	48	1	121	221	321	NaN	521	0.0103208851069212	1	1	NaN	5001939.476262	NaN	5001940.4597813	5001940.97633532
74	18	0	0	90	36.1581920903955	36.241610738255	13	0.433364048153162	2	1	5	NaN	1	3	0.142757223351999	1	1	NaN	238	4	49	1	121	221	321	NaN	521	0.0104265166446567	1	1	NaN	5001941.7932001	NaN	5001942.776663	5001943.29322548
74	18	0	0	90	36.1581920903955	36.241610738255	0	0	1	4	6	NaN	1	4	0.142757223351999	1	1	NaN	239	4	50	1	111	211	311	NaN	511	0.764262022450566	1	1	NaN	5001944.1100544	NaN	5001945.0935777	5001945.61014208
74	18	0	0	90	36.1581920903955	36.241610738255	14	0.466699744164944	2	4	3	NaN	1	3	0.142757223351999	1	1	NaN	240	4	51	1	121	221	321	NaN	521	0.0104228695854545	1	1	NaN	5001947.1771394	NaN	5001948.1605284	5001948.67708523
74	18	0	0	90	36.1581920903955	36.241610738255	23	0.766721008270979	2	8	1	NaN	2	3	0.142757223351999	1	1	NaN	241	4	52	1	121	221	321	NaN	521	0.764539422467351	2	1	NaN	5001949.4940502	NaN	5001950.4773351	5001950.99398458
74	18	0	0	90	36.1581920903955	36.241610738255	6	0.20001417607069	2	7	5	NaN	2	5	0.142757223351999	1	1	NaN	242	4	53	1	121	221	321	NaN	521	0.0104102697223425	2	1	NaN	5001952.5776793	NaN	5001953.5610601	5001954.07762673
74	18	0	0	90	36.1581920903955	36.241610738255	19	0.633378224223852	2	7	1	NaN	2	4	0.142757223351999	1	1	NaN	243	4	54	1	121	221	321	NaN	521	0.0103932749480009	2	1	NaN	5001954.8945977	NaN	5001955.8779597	5001956.39452303
74	18	0	0	90	36.1581920903955	36.241610738255	14	0.466699744164944	2	3	6	NaN	1	4	0.142757223351999	1	1	NaN	244	4	55	1	121	221	321	NaN	521	1.67122261784971	1	1	NaN	5001957.2114459	NaN	5001958.1948545	5001958.71141078
74	18	0	0	90	36.1581920903955	36.241610738255	23	0.766721008270979	2	11	2	NaN	2	4	0.142757223351999	1	1	NaN	245	4	56	1	121	221	321	NaN	521	0.0104308221489191	2	1	NaN	5001961.1950864	NaN	5001962.1785874	5001962.69513078
74	18	0	0	90	36.1581920903955	36.241610738255	6	0.20001417607069	2	6	1	NaN	1	5	0.142757223351999	1	1	NaN	246	4	57	1	121	221	321	NaN	521	0.010429217480123	1	1	NaN	5001963.5286331	NaN	5001964.5121491	5001965.02869628
74	18	0	0	90	36.1581920903955	36.241610738255	16	0.533371136188507	2	5	5	NaN	1	5	0.142757223351999	1	1	NaN	247	4	58	1	121	221	321	NaN	521	0.244895122945309	1	1	NaN	5001965.8456522	NaN	5001966.8290498	5001967.34559578
74	18	0	0	90	36.1581920903955	36.241610738255	6	0.20001417607069	2	1	4	NaN	1	3	0.142757223351999	1	1	NaN	248	4	59	1	121	221	321	NaN	521	0.0104280170053244	1	1	NaN	5001968.3958976	NaN	5001969.3793012	5001969.89584018
74	18	0	0	90	36.1581920903955	36.241610738255	7	0.233349872082472	2	11	6	NaN	2	3	0.142757223351999	1	1	NaN	249	4	60	1	121	221	321	NaN	521	0.0103951226919889	2	1	NaN	5001970.8960038	NaN	5001971.8795386	5001972.39609378
74	18	0	0	90	36.1581920903955	36.241610738255	15	0.500035440176725	2	12	2	NaN	2	4	0.142757223351999	1	1	NaN	250	4	61	1	121	221	321	NaN	521	0.477801717817783	2	1	NaN	5001973.2129207	NaN	5001974.1964503	5001974.71297918
74	18	0	0	90	36.1581920903955	36.241610738255	18	0.60004252821207	2	12	4	NaN	2	5	0.142757223351999	1	1	NaN	251	4	62	1	121	221	321	NaN	521	0.0103925224393606	2	1	NaN	5001975.9966524	NaN	5001976.980043	5001977.49659078
74	18	0	0	90	36.1581920903955	36.241610738255	15	0.500035440176725	2	7	6	NaN	2	3	0.142757223351999	1	1	NaN	252	4	63	1	121	221	321	NaN	521	0.89650352858007	1	0	NaN	5001978.3302072	NaN	5001979.3135993	5001979.83015827
74	18	0	0	90	36.1581920903955	36.241610738255	6	0.20001417607069	2	9	2	NaN	2	5	0.142757223351999	1	1	NaN	253	5	1	1	121	221	321	NaN	521	1.87687856890261	2	1	NaN	5002004.7661328	NaN	5002005.7495469	5002006.26609353
74	18	0	0	90	36.1581920903955	36.241610738255	9	0.300021264106035	2	1	1	NaN	1	3	0.142757223351999	1	1	NaN	254	5	2	1	121	221	321	NaN	521	0.0102979373186827	1	1	NaN	5002008.9499245	NaN	5002009.9332728	5002010.44984526
74	18	0	0	90	36.1581920903955	36.241610738255	24	0.800056704282761	2	12	6	NaN	2	3	0.142757223351999	1	1	NaN	255	5	3	1	121	221	321	NaN	521	0.010424917563796	2	1	NaN	5002011.5166888	NaN	5002012.5002176	5002013.01675968
74	18	0	0	90	36.1581920903955	36.241610738255	11	0.366692656129599	2	5	3	NaN	1	5	0.142757223351999	1	1	NaN	256	5	4	1	121	221	321	NaN	521	0.0104127218946815	1	1	NaN	5002013.850384	NaN	5002014.8337867	5002015.35033068
74	18	0	0	90	36.1581920903955	36.241610738255	6	0.20001417607069	2	9	1	NaN	2	5	0.142757223351999	1	1	NaN	257	5	5	1	121	221	321	NaN	521	0.0104095693677664	2	1	NaN	5002016.1672616	NaN	5002017.1506785	5002017.66722313
74	18	0	0	90	36.1581920903955	36.241610738255	19	0.633378224223852	2	5	1	NaN	1	4	0.142757223351999	1	1	NaN	258	5	6	1	121	221	321	NaN	521	1.24593482259661	1	1	NaN	5002018.5008491	NaN	5002019.4842293	5002020.00078538
74	18	0	0	90	36.1581920903955	36.241610738255	6	0.20001417607069	2	3	6	NaN	1	5	0.142757223351999	1	1	NaN	259	5	7	1	121	221	321	NaN	521	0.0104375164955854	1	1	NaN	5002022.0678464	NaN	5002023.0512539	5002023.56779718
74	18	0	0	90	36.1581920903955	36.241610738255	0	0	1	6	6	NaN	1	3	0.142757223351999	1	1	NaN	260	5	8	1	111	211	311	NaN	511	0.0103929229080677	1	1	NaN	5002024.3847535	NaN	5002025.3681489	5002025.88469728
74	18	0	0	90	36.1581920903955	36.241610738255	16	0.533371136188507	2	6	6	NaN	1	5	0.142757223351999	1	1	NaN	261	5	9	1	121	221	321	NaN	521	0.765007817186415	1	1	NaN	5002026.7015199	NaN	5002027.6850387	5002028.20158958
74	18	0	0	90	36.1581920903955	36.241610738255	17	0.566706832200289	2	7	6	NaN	2	3	0.142757223351999	1	1	NaN	262	5	10	1	121	221	321	NaN	521	0.0103943226858974	2	1	NaN	5002029.7853059	NaN	5002030.7686886	5002031.28522348
74	18	0	0	90	36.1581920903955	36.241610738255	21	0.700049616247416	2	12	1	NaN	2	4	0.142757223351999	1	1	NaN	263	5	11	1	121	221	321	NaN	521	0.0104097696021199	2	1	NaN	5002032.1020331	NaN	5002033.0856312	5002033.60212283
74	18	0	0	90	36.1581920903955	36.241610738255	8	0.266685568094254	2	5	5	NaN	1	3	0.142757223351999	1	1	NaN	264	5	12	1	121	221	321	NaN	521	0.0103946225717664	1	1	NaN	5002034.4189389	NaN	5002035.4024789	5002035.91902048
74	18	0	0	90	36.1581920903955	36.241610738255	9	0.300021264106035	2	6	4	NaN	1	5	0.142757223351999	1	1	NaN	265	5	13	1	121	221	321	NaN	521	0.0104223173111677	1	1	NaN	5002036.7526299	NaN	5002037.7360335	5002038.25257988
74	18	0	0	90	36.1581920903955	36.241610738255	11	0.366692656129599	2	6	5	NaN	1	5	0.142757223351999	1	1	NaN	266	5	14	1	121	221	321	NaN	521	0.0103458799421787	1	1	NaN	5002039.0861991	NaN	5002040.0695984	5002040.58614332
74	18	0	0	90	36.1581920903955	36.241610738255	15	0.500035440176725	2	3	3	NaN	1	4	0.142757223351999	1	1	NaN	267	5	15	1	121	221	321	NaN	521	0.0104240691289306	1	1	NaN	5002041.4030959	NaN	5002042.3864861	5002042.90304063
74	18	0	0	90	36.1581920903955	36.241610738255	21	0.700049616247416	2	4	1	NaN	1	5	0.142757223351999	1	1	NaN	268	5	16	1	121	221	321	NaN	521	0.0104265175759792	1	1	NaN	5002043.7366674	NaN	5002044.7200372	5002045.23660188
74	18	0	0	90	36.1581920903955	36.241610738255	10	0.333356960117817	2	8	2	NaN	2	4	0.142757223351999	1	1	NaN	269	5	17	1	121	221	321	NaN	521	0.0103924740105867	2	1	NaN	5002046.0535598	NaN	5002047.036946	5002047.55350373
74	18	0	0	90	36.1581920903955	36.241610738255	10	0.333356960117817	2	5	1	NaN	1	5	0.142757223351999	1	1	NaN	270	5	18	1	121	221	321	NaN	521	0.0103945229202509	1	1	NaN	5002048.3871295	NaN	5002049.3705577	5002049.88705758
74	18	0	0	90	36.1581920903955	36.241610738255	7	0.233349872082472	2	2	3	NaN	1	5	0.142757223351999	1	1	NaN	271	5	19	1	121	221	321	NaN	521	1.41875596996397	1	1	NaN	5002050.7039965	NaN	5002051.6874194	5002052.20395663
74	18	0	0	90	36.1581920903955	36.241610738255	18	0.60004252821207	2	11	4	NaN	2	3	0.142757223351999	1	1	NaN	272	5	20	1	121	221	321	NaN	521	0.0103968223556876	2	1	NaN	5002054.4377308	NaN	5002055.4211663	5002055.93765428
74	18	0	0	90	36.1581920903955	36.241610738255	15	0.500035440176725	2	2	4	NaN	1	3	0.142757223351999	1	1	NaN	273	5	21	1	121	221	321	NaN	521	0.0104044694453478	1	1	NaN	5002056.7545999	NaN	5002057.7380064	5002058.25455463
74	18	0	0	90	36.1581920903955	36.241610738255	18	0.60004252821207	2	6	1	NaN	1	4	0.142757223351999	1	1	NaN	274	5	22	1	121	221	321	NaN	521	0.0103941224515438	1	1	NaN	5002059.0713764	NaN	5002060.0549228	5002060.57144488
74	18	0	0	90	36.1581920903955	36.241610738255	21	0.700049616247416	2	2	6	NaN	1	5	0.142757223351999	1	1	NaN	275	5	23	1	121	221	321	NaN	521	1.22238466981798	1	1	NaN	5002061.388271	NaN	5002062.3717884	5002062.88833903
74	18	0	0	90	36.1581920903955	36.241610738255	23	0.766721008270979	2	4	4	NaN	1	5	0.142757223351999	1	1	NaN	276	5	24	1	121	221	321	NaN	521	0.0104058701545	1	1	NaN	5002064.9220855	NaN	5002065.9054627	5002066.42202883
74	18	0	0	90	36.1581920903955	36.241610738255	20	0.666713920235634	2	8	2	NaN	2	3	0.142757223351999	1	1	NaN	277	5	25	1	121	221	321	NaN	521	0.595178117975593	2	1	NaN	5002067.2556363	NaN	5002068.239051	5002068.75558038
74	18	0	0	90	36.1581920903955	36.241610738255	23	0.766721008270979	2	9	5	NaN	2	4	0.142757223351999	1	1	NaN	278	5	26	1	121	221	321	NaN	521	0.0103900227695704	2	1	NaN	5002070.1725864	NaN	5002071.1560564	5002071.67253818
74	18	0	0	90	36.1581920903955	36.241610738255	10	0.333356960117817	2	10	6	NaN	2	4	0.142757223351999	1	1	NaN	279	5	27	1	121	221	321	NaN	521	0.0104237170889974	2	1	NaN	5002072.4893629	NaN	5002073.4728871	5002073.98943208
74	18	0	0	90	36.1581920903955	36.241610738255	7	0.233349872082472	2	10	4	NaN	2	3	0.142757223351999	1	1	NaN	280	5	28	1	121	221	321	NaN	521	0.0104124220088124	2	1	NaN	5002074.8063972	NaN	5002075.7897868	5002076.30634148
74	18	0	0	90	36.1581920903955	36.241610738255	7	0.233349872082472	2	6	5	NaN	1	5	0.142757223351999	1	1	NaN	281	5	29	1	121	221	321	NaN	521	0.519808517768979	2	0	NaN	5002077.1232784	NaN	5002078.1066713	5002078.62322168
74	18	0	0	90	36.1581920903955	36.241610738255	17	0.566706832200289	2	4	3	NaN	1	5	0.142757223351999	1	1	NaN	282	5	30	1	121	221	321	NaN	521	0.0103912223130465	1	1	NaN	5002079.9569077	NaN	5002080.9402732	5002081.45683928
74	18	0	0	90	36.1581920903955	36.241610738255	15	0.500035440176725	2	3	4	NaN	1	5	0.142757223351999	1	1	NaN	283	5	31	1	121	221	321	NaN	521	0.0104306172579527	1	1	NaN	5002082.2736887	NaN	5002083.2571867	5002083.77372878
74	18	0	0	90	36.1581920903955	36.241610738255	19	0.633378224223852	2	11	4	NaN	2	5	0.142757223351999	1	1	NaN	284	5	32	1	121	221	321	NaN	521	1.08404082246125	2	1	NaN	5002084.5907027	NaN	5002085.574084	5002086.09062578
74	18	0	0	90	36.1581920903955	36.241610738255	0	0	1	1	2	NaN	1	5	0.142757223351999	1	1	NaN	285	5	33	1	111	211	311	NaN	511	0.0104390168562531	1	1	NaN	5002087.9910186	NaN	5002088.9744173	5002089.49095898
74	18	0	0	90	36.1581920903955	36.241610738255	7	0.233349872082472	2	6	5	NaN	1	5	0.142757223351999	1	1	NaN	286	5	34	1	121	221	321	NaN	521	1.38328581769019	1	1	NaN	5002090.3077855	NaN	5002091.2912917	5002091.80785808
74	18	0	0	90	36.1581920903955	36.241610738255	17	0.566706832200289	2	7	5	NaN	2	4	0.142757223351999	1	1	NaN	287	5	35	1	121	221	321	NaN	521	0.0104098692536354	2	1	NaN	5002094.0082688	NaN	5002094.9916692	5002095.50823183
74	18	0	0	90	36.1581920903955	36.241610738255	24	0.800056704282761	2	3	6	NaN	1	3	0.142757223351999	1	1	NaN	288	5	36	1	121	221	321	NaN	521	0.757511570118368	1	1	NaN	5002096.3250821	NaN	5002097.3085329	5002097.82511863
74	18	0	0	90	36.1581920903955	36.241610738255	22	0.733385312259197	2	3	4	NaN	1	3	0.142757223351999	1	1	NaN	289	5	37	1	121	221	321	NaN	521	0.0103985229507089	1	1	NaN	5002099.392172	NaN	5002100.3755396	5002100.89209208
74	18	0	0	90	36.1581920903955	36.241610738255	25	0.833392400294542	2	4	6	NaN	1	5	0.142757223351999	1	1	NaN	290	5	38	1	121	221	321	NaN	521	0.0104262167587876	1	1	NaN	5002101.7257165	NaN	5002102.7091097	5002103.22565608
74	18	0	0	90	36.1581920903955	36.241610738255	18	0.60004252821207	2	10	3	NaN	2	4	0.142757223351999	1	1	NaN	291	5	39	1	121	221	321	NaN	521	0.0104089695960283	2	1	NaN	5002104.0426188	NaN	5002105.0259992	5002105.54255063
74	18	0	0	90	36.1581920903955	36.241610738255	12	0.40002835214138	2	10	6	NaN	2	4	0.142757223351999	1	1	NaN	292	5	40	1	121	221	321	NaN	521	0.0103922225534916	2	1	NaN	5002106.3761881	NaN	5002107.3595682	5002107.87610528
74	18	0	0	90	36.1581920903955	36.241610738255	16	0.533371136188507	2	9	2	NaN	2	5	0.142757223351999	1	1	NaN	293	5	41	1	121	221	321	NaN	521	0.0103949224576354	2	1	NaN	5002108.6930555	NaN	5002109.6764631	5002110.19301328
74	18	0	0	90	36.1581920903955	36.241610738255	17	0.566706832200289	2	5	6	NaN	1	3	0.142757223351999	1	1	NaN	294	5	42	1	121	221	321	NaN	521	1.29643702227622	1	1	NaN	5002111.0266299	NaN	5002112.0100177	5002112.52657228
74	18	0	0	90	36.1581920903955	36.241610738255	15	0.500035440176725	2	1	2	NaN	1	3	0.142757223351999	1	1	NaN	295	5	43	1	121	221	321	NaN	521	0.010395722463727	1	1	NaN	5002114.6268745	NaN	5002115.6103782	5002116.12692468
74	18	0	0	90	36.1581920903955	36.241610738255	19	0.633378224223852	2	8	4	NaN	2	5	0.142757223351999	1	1	NaN	296	5	44	1	121	221	321	NaN	521	1.07533591706306	2	1	NaN	5002116.9437457	NaN	5002117.9272908	5002118.44381688
74	18	0	0	90	36.1581920903955	36.241610738255	20	0.666713920235634	2	6	2	NaN	1	3	0.142757223351999	1	1	NaN	297	5	45	1	121	221	321	NaN	521	0.0103953219950199	1	1	NaN	5002120.3275381	NaN	5002121.3109782	5002121.82749208
74	18	0	0	90	36.1581920903955	36.241610738255	14	0.466699744164944	2	7	4	NaN	2	5	0.142757223351999	1	1	NaN	298	5	46	1	121	221	321	NaN	521	0.366146189160645	2	1	NaN	5002122.6611083	NaN	5002123.6444902	5002124.16104841
74	18	0	0	90	36.1581920903955	36.241610738255	13	0.433364048153162	2	12	4	NaN	2	4	0.142757223351999	1	1	NaN	299	5	47	1	121	221	321	NaN	521	0.0104426648467779	2	1	NaN	5002125.3447008	NaN	5002126.3280887	5002126.84463823
74	18	0	0	90	36.1581920903955	36.241610738255	18	0.60004252821207	2	1	6	NaN	1	3	0.142757223351999	1	1	NaN	300	5	48	1	121	221	321	NaN	521	0.0103927226737142	1	1	NaN	5002127.6782727	NaN	5002128.6616991	5002129.17820638
74	18	0	0	90	36.1581920903955	36.241610738255	15	0.500035440176725	2	11	5	NaN	2	4	0.142757223351999	1	1	NaN	301	5	49	1	121	221	321	NaN	521	0.0104141691699624	2	1	NaN	5002129.9951503	NaN	5002130.9785578	5002131.49511263
74	18	0	0	90	36.1581920903955	36.241610738255	12	0.40002835214138	2	1	6	NaN	1	3	0.142757223351999	1	1	NaN	302	5	50	1	121	221	321	NaN	521	1.14606912247837	1	1	NaN	5002132.3287512	NaN	5002133.312161	5002133.82867228
74	18	0	0	90	36.1581920903955	36.241610738255	11	0.366692656129599	2	12	3	NaN	2	5	0.142757223351999	1	1	NaN	303	5	51	1	121	221	321	NaN	521	0.559107217006385	2	1	NaN	5002135.795717	NaN	5002136.7791289	5002137.29567668
74	18	0	0	90	36.1581920903955	36.241610738255	12	0.40002835214138	2	6	3	NaN	1	4	0.142757223351999	1	1	NaN	304	5	52	1	121	221	321	NaN	521	0.0103826755657792	1	1	NaN	5002138.66277	NaN	5002139.6460907	5002140.16263442
74	18	0	0	90	36.1581920903955	36.241610738255	11	0.366692656129599	2	8	3	NaN	2	3	0.142757223351999	1	1	NaN	305	5	53	1	121	221	321	NaN	521	0.0104015693068504	2	1	NaN	5002140.9795619	NaN	5002141.9629697	5002142.47953173
74	18	0	0	90	36.1581920903955	36.241610738255	6	0.20001417607069	2	2	5	NaN	1	3	0.142757223351999	1	1	NaN	306	5	54	1	121	221	321	NaN	521	0.562349368818104	1	1	NaN	5002143.2964883	NaN	5002144.2798655	5002144.79642123
74	18	0	0	90	36.1581920903955	36.241610738255	8	0.266685568094254	2	6	4	NaN	1	3	0.142757223351999	1	1	NaN	307	5	55	1	121	221	321	NaN	521	0.751241269521415	1	1	NaN	5002146.1634158	NaN	5002147.1468242	5002147.66336763
74	18	0	0	90	36.1581920903955	36.241610738255	9	0.300021264106035	2	12	1	NaN	2	5	0.142757223351999	1	1	NaN	308	5	56	1	121	221	321	NaN	521	0.0103969220072031	2	1	NaN	5002149.2303818	NaN	5002150.2137958	5002150.73032938
74	18	0	0	90	36.1581920903955	36.241610738255	11	0.366692656129599	2	3	3	NaN	1	3	0.142757223351999	1	1	NaN	309	5	57	1	121	221	321	NaN	521	0.0102664940059185	1	1	NaN	5002151.5472848	NaN	5002152.53068	5002153.04723981
74	18	0	0	90	36.1581920903955	36.241610738255	18	0.60004252821207	2	5	2	NaN	1	3	0.142757223351999	1	1	NaN	310	5	58	1	121	221	321	NaN	521	0.0103953229263425	1	1	NaN	5002153.864275	NaN	5002154.8476011	5002155.36412518
74	18	0	0	90	36.1581920903955	36.241610738255	19	0.633378224223852	2	1	3	NaN	1	5	0.142757223351999	1	1	NaN	311	5	59	1	121	221	321	NaN	521	0.0104089695960283	1	1	NaN	5002156.1809478	NaN	5002157.1644996	5002157.68101773
74	18	0	0	90	36.1581920903955	36.241610738255	18	0.60004252821207	2	2	1	NaN	1	3	0.142757223351999	1	1	NaN	312	5	60	1	121	221	321	NaN	521	0.0103767747059464	1	1	NaN	5002158.4978069	NaN	5002159.4813841	5002159.99792183
74	18	0	0	90	36.1581920903955	36.241610738255	19	0.633378224223852	2	5	3	NaN	1	5	0.142757223351999	1	1	NaN	313	5	61	1	121	221	321	NaN	521	0.0104259168729186	1	1	NaN	5002160.8148376	NaN	5002161.7982585	5002162.31480568
74	18	0	0	90	36.1581920903955	36.241610738255	11	0.366692656129599	2	10	5	NaN	2	5	0.142757223351999	1	1	NaN	314	5	62	1	121	221	321	NaN	521	0.0103921219706535	2	1	NaN	5002163.1317764	NaN	5002164.1151517	5002164.63170448
74	18	0	0	90	36.1581920903955	36.241610738255	10	0.333356960117817	2	9	4	NaN	2	5	0.142757223351999	1	1	NaN	315	5	63	1	121	221	321	NaN	521	0.562595685012639	2	1	NaN	5002165.4486434	NaN	5002166.4320574	5002166.94860351
74	18	0	0	90	36.1581920903955	36.241610738255	11	0.366692656129599	2	9	5	NaN	2	4	0.142757223351999	1	1	NaN	316	6	1	1	121	221	321	NaN	521	1.07270786911249	2	1	NaN	5002183.2504235	NaN	5002184.2338305	5002184.75035573
74	18	0	0	90	36.1581920903955	36.241610738255	20	0.666713920235634	2	4	3	NaN	1	4	0.142757223351999	1	1	NaN	317	6	2	1	121	221	321	NaN	521	0.0104076694697142	1	1	NaN	5002186.6340735	NaN	5002187.6174826	5002188.13401573
74	18	0	0	90	36.1581920903955	36.241610738255	22	0.733385312259197	2	11	6	NaN	2	3	0.142757223351999	1	1	NaN	318	6	3	1	121	221	321	NaN	521	0.0104078697040677	2	1	NaN	5002188.9508914	NaN	5002189.9344081	5002190.45091423
74	18	0	0	90	36.1581920903955	36.241610738255	14	0.466699744164944	2	6	5	NaN	1	4	0.142757223351999	1	1	NaN	319	6	4	1	121	221	321	NaN	521	0.010391122661531	1	1	NaN	5002191.2845392	NaN	5002192.2679566	5002192.78448598
74	18	0	0	90	36.1581920903955	36.241610738255	25	0.833392400294542	2	10	3	NaN	2	5	0.142757223351999	1	1	NaN	320	6	5	1	121	221	321	NaN	521	0.361480017192662	2	1	NaN	5002193.6013003	NaN	5002194.5848242	5002195.10137038
74	18	0	0	90	36.1581920903955	36.241610738255	25	0.833392400294542	2	1	4	NaN	1	3	0.142757223351999	1	1	NaN	321	6	6	1	121	221	321	NaN	521	0.010400322265923	1	1	NaN	5002196.2683792	NaN	5002197.251749	5002197.76830558
74	18	0	0	90	36.1581920903955	36.241610738255	19	0.633378224223852	2	4	3	NaN	1	3	0.142757223351999	1	1	NaN	322	6	7	1	121	221	321	NaN	521	0.0104125691577792	1	1	NaN	5002198.6019243	NaN	5002199.5853209	5002200.10186693
74	18	0	0	90	36.1581920903955	36.241610738255	21	0.700049616247416	2	2	4	NaN	1	5	0.142757223351999	1	1	NaN	323	6	8	1	121	221	321	NaN	521	0.0103948228061199	1	1	NaN	5002200.9188393	NaN	5002201.9022246	5002202.41876598
74	18	0	0	90	36.1581920903955	36.241610738255	23	0.766721008270979	2	12	5	NaN	2	5	0.142757223351999	1	1	NaN	324	6	9	1	121	221	321	NaN	521	0.0104354182258248	1	0	NaN	5002203.2523731	NaN	5002204.2357751	5002204.75232508
74	18	0	0	90	36.1581920903955	36.241610738255	14	0.466699744164944	2	11	4	NaN	2	3	0.142757223351999	1	1	NaN	325	6	10	1	121	221	321	NaN	521	0.0102503942325711	1	0	NaN	5002205.5691413	NaN	5002206.5526726	5002207.06922511
74	18	0	0	90	36.1581920903955	36.241610738255	20	0.666713920235634	2	1	2	NaN	1	5	0.142757223351999	1	1	NaN	326	6	11	1	121	221	321	NaN	521	0.0104188174009323	1	1	NaN	5002208.0855148	NaN	5002209.0695786	5002209.58613668
74	18	0	0	90	36.1581920903955	36.241610738255	0	0	1	8	5	NaN	2	5	0.142757223351999	1	1	NaN	327	6	12	1	111	211	311	NaN	511	0.0105510223656893	2	1	NaN	5002210.419773	NaN	5002211.4031384	5002211.91972028
74	18	0	0	90	36.1581920903955	36.241610738255	18	0.60004252821207	2	9	2	NaN	2	5	0.142757223351999	1	1	NaN	328	6	13	1	121	221	321	NaN	521	0.0104688750579953	2	1	NaN	5002212.7366368	NaN	5002213.7200358	5002214.23661462
74	18	0	0	90	36.1581920903955	36.241610738255	22	0.733385312259197	2	9	6	NaN	2	4	0.142757223351999	1	1	NaN	329	6	14	1	121	221	321	NaN	521	0.077388022094965	2	1	NaN	5002215.053572	NaN	5002216.0369389	5002216.55348698
74	18	0	0	90	36.1581920903955	36.241610738255	22	0.733385312259197	2	9	4	NaN	2	4	0.142757223351999	1	1	NaN	330	6	15	1	121	221	321	NaN	521	0.0218180166557431	2	1	NaN	5002217.4371122	NaN	5002218.4205044	5002218.93705828
74	18	0	0	90	36.1581920903955	36.241610738255	7	0.233349872082472	2	1	6	NaN	1	5	0.142757223351999	1	1	NaN	331	6	16	1	121	221	321	NaN	521	0.0104079693555832	1	1	NaN	5002219.7706803	NaN	5002220.7540676	5002221.27061893
74	18	0	0	90	36.1581920903955	36.241610738255	20	0.666713920235634	2	10	4	NaN	2	5	0.142757223351999	1	1	NaN	332	6	17	1	121	221	321	NaN	521	0.403510269708931	2	1	NaN	5002222.087566	NaN	5002223.070964	5002223.58751783
74	18	0	0	90	36.1581920903955	36.241610738255	13	0.433364048153162	2	2	1	NaN	1	3	0.142757223351999	1	1	NaN	333	6	18	1	121	221	321	NaN	521	0.0103756748139858	1	1	NaN	5002224.8045108	NaN	5002225.7878889	5002226.30445543
74	18	0	0	90	36.1581920903955	36.241610738255	9	0.300021264106035	2	4	2	NaN	1	4	0.142757223351999	1	1	NaN	334	6	19	1	121	221	321	NaN	521	0.0103931222110987	1	1	NaN	5002227.121417	NaN	5002228.104777	5002228.62134748
74	18	0	0	90	36.1581920903955	36.241610738255	0	0	1	9	5	NaN	2	5	0.142757223351999	1	1	NaN	335	6	20	1	111	211	311	NaN	511	0.564774774946272	2	1	NaN	5002229.4382984	NaN	5002230.421677	5002230.93824423
74	18	0	0	90	36.1581920903955	36.241610738255	17	0.566706832200289	2	6	2	NaN	1	4	0.142757223351999	1	1	NaN	336	6	21	1	121	221	321	NaN	521	0.921057317405939	1	1	NaN	5002232.3219084	NaN	5002233.3052874	5002233.82185208
74	18	0	0	90	36.1581920903955	36.241610738255	13	0.433364048153162	2	6	1	NaN	1	4	0.142757223351999	1	1	NaN	337	6	22	1	121	221	321	NaN	521	0.0103866746649146	1	1	NaN	5002235.5555198	NaN	5002236.5389611	5002237.05550813
74	18	0	0	90	36.1581920903955	36.241610738255	14	0.466699744164944	2	12	6	NaN	2	3	0.142757223351999	1	1	NaN	338	6	23	1	121	221	321	NaN	521	0.010420517064631	2	1	NaN	5002237.8724535	NaN	5002238.8558557	5002239.37239898
74	18	0	0	90	36.1581920903955	36.241610738255	22	0.733385312259197	2	11	3	NaN	2	3	0.142757223351999	1	1	NaN	339	6	24	1	121	221	321	NaN	521	0.0103922225534916	2	1	NaN	5002240.1892204	NaN	5002241.1727588	5002241.68929998
74	18	0	0	90	36.1581920903955	36.241610738255	21	0.700049616247416	2	1	2	NaN	1	3	0.142757223351999	1	1	NaN	340	6	25	1	121	221	321	NaN	521	0.0104203689843416	1	1	NaN	5002242.5227775	NaN	5002243.5063319	5002244.02286693
74	18	0	0	90	36.1581920903955	36.241610738255	8	0.266685568094254	2	12	3	NaN	2	3	0.142757223351999	1	1	NaN	341	6	26	1	121	221	321	NaN	521	0.0103965234011412	2	1	NaN	5002244.8565028	NaN	5002245.8398797	5002246.35641858
74	18	0	0	90	36.1581920903955	36.241610738255	18	0.60004252821207	2	7	6	NaN	2	4	0.142757223351999	1	1	NaN	342	6	27	1	121	221	321	NaN	521	0.0103774741292	2	1	NaN	5002247.3900536	NaN	5002248.3734691	5002248.89000943
74	18	0	0	90	36.1581920903955	36.241610738255	20	0.666713920235634	2	9	5	NaN	2	5	0.142757223351999	1	1	NaN	343	6	28	1	121	221	321	NaN	521	0.0103980218991637	2	1	NaN	5002249.7069653	NaN	5002250.6903594	5002251.20690758
74	18	0	0	90	36.1581920903955	36.241610738255	23	0.766721008270979	2	3	4	NaN	1	4	0.142757223351999	1	1	NaN	344	6	29	1	121	221	321	NaN	521	0.0191416945308447	1	1	NaN	5002252.0238452	NaN	5002253.0072435	5002253.52380981
74	18	0	0	90	36.1581920903955	36.241610738255	20	0.666713920235634	2	4	5	NaN	1	3	0.142757223351999	1	1	NaN	345	6	30	1	121	221	321	NaN	521	0.965895722620189	1	1	NaN	5002254.3574174	NaN	5002255.3408813	5002255.85736358
74	18	0	0	90	36.1581920903955	36.241610738255	6	0.20001417607069	2	11	6	NaN	2	3	0.142757223351999	1	1	NaN	346	6	31	1	121	221	321	NaN	521	0.0104076694697142	2	1	NaN	5002257.6577324	NaN	5002258.6411481	5002259.15768653
74	18	0	0	90	36.1581920903955	36.241610738255	24	0.800056704282761	2	1	1	NaN	1	3	0.142757223351999	1	1	NaN	347	6	32	1	121	221	321	NaN	521	0.0103776752948761	2	0	NaN	5002259.991316	NaN	5002260.9746978	5002261.49125593
74	18	0	0	90	36.1581920903955	36.241610738255	20	0.666713920235634	2	2	1	NaN	1	3	0.142757223351999	1	1	NaN	348	6	33	1	121	221	321	NaN	521	0.0103767747059464	1	1	NaN	5002262.3248547	NaN	5002263.3082699	5002263.82481643
74	18	0	0	90	36.1581920903955	36.241610738255	21	0.700049616247416	2	8	3	NaN	2	3	0.142757223351999	1	1	NaN	349	6	34	1	121	221	321	NaN	521	0.0103941224515438	2	1	NaN	5002264.6583003	NaN	5002265.6418135	5002266.15838368
74	18	0	0	90	36.1581920903955	36.241610738255	10	0.333356960117817	2	12	5	NaN	2	3	0.142757223351999	1	1	NaN	350	6	35	1	121	221	321	NaN	521	0.484186874702573	2	1	NaN	5002266.975324	NaN	5002267.9587089	5002268.47527263
74	18	0	0	90	36.1581920903955	36.241610738255	15	0.500035440176725	2	12	6	NaN	2	5	0.142757223351999	1	1	NaN	351	6	36	1	121	221	321	NaN	521	0.0104106226935983	2	1	NaN	5002269.7756213	NaN	5002270.7589973	5002271.27555338
74	18	0	0	90	36.1581920903955	36.241610738255	16	0.533371136188507	2	12	4	NaN	2	4	0.142757223351999	1	1	NaN	352	6	37	1	121	221	321	NaN	521	0.214722543023527	2	1	NaN	5002272.0924923	NaN	5002273.0758955	5002273.59244366
74	18	0	0	90	36.1581920903955	36.241610738255	7	0.233349872082472	2	8	1	NaN	2	4	0.142757223351999	1	1	NaN	353	6	38	1	121	221	321	NaN	521	0.0104223173111677	2	1	NaN	5002274.6094511	NaN	5002275.5928183	5002276.10935598
74	18	0	0	90	36.1581920903955	36.241610738255	9	0.300021264106035	2	8	2	NaN	2	3	0.142757223351999	1	1	NaN	354	6	39	1	121	221	321	NaN	521	1.07677347026765	2	1	NaN	5002276.9263188	NaN	5002277.9097019	5002278.42625623
74	18	0	0	90	36.1581920903955	36.241610738255	23	0.766721008270979	2	6	1	NaN	1	3	0.142757223351999	1	1	NaN	355	6	40	1	121	221	321	NaN	521	0.0103903226554394	1	1	NaN	5002280.3266832	NaN	5002281.310028	5002281.82658728
74	18	0	0	90	36.1581920903955	36.241610738255	8	0.266685568094254	2	8	3	NaN	2	3	0.142757223351999	1	1	NaN	356	6	41	1	121	221	321	NaN	521	0.0104284696280956	2	1	NaN	5002282.6435383	NaN	5002283.6269381	5002284.14348943
74	18	0	0	90	36.1581920903955	36.241610738255	7	0.233349872082472	2	5	5	NaN	1	5	0.142757223351999	1	1	NaN	357	6	42	1	121	221	321	NaN	521	0.0104256169870496	1	1	NaN	5002284.9771846	NaN	5002285.9605068	5002286.47704128
74	18	0	0	90	36.1581920903955	36.241610738255	16	0.533371136188507	2	2	2	NaN	1	4	0.142757223351999	1	1	NaN	358	6	43	1	121	221	321	NaN	521	0.0103968223556876	1	1	NaN	5002287.2939922	NaN	5002288.2773753	5002288.79394548
74	18	0	0	90	36.1581920903955	36.241610738255	6	0.20001417607069	2	10	4	NaN	2	5	0.142757223351999	1	1	NaN	359	6	44	1	121	221	321	NaN	521	0.59239698946476	2	1	NaN	5002289.6108956	NaN	5002290.5942876	5002291.11083951
74	18	0	0	90	36.1581920903955	36.241610738255	6	0.20001417607069	2	4	2	NaN	1	5	0.142757223351999	1	1	NaN	360	6	45	1	121	221	321	NaN	521	0.180110417306423	1	1	NaN	5002292.5111733	NaN	5002293.4945633	5002294.01112208
74	18	0	0	90	36.1581920903955	36.241610738255	7	0.233349872082472	2	7	6	NaN	2	3	0.142757223351999	1	1	NaN	361	6	46	1	121	221	321	NaN	521	0.0104290219023824	2	1	NaN	5002295.0114157	NaN	5002295.9948324	5002296.51136848
74	18	0	0	90	36.1581920903955	36.241610738255	10	0.333356960117817	2	8	4	NaN	2	3	0.142757223351999	1	1	NaN	362	6	47	1	121	221	321	NaN	521	0.0103920232504606	2	1	NaN	5002297.3283068	NaN	5002298.3117086	5002298.82826598
74	18	0	0	90	36.1581920903955	36.241610738255	24	0.800056704282761	2	6	2	NaN	1	4	0.142757223351999	1	1	NaN	363	6	48	1	121	221	321	NaN	521	0.0104229170829058	1	1	NaN	5002299.6618895	NaN	5002300.6452836	5002301.16183238
74	18	0	0	90	36.1581920903955	36.241610738255	14	0.466699744164944	2	9	4	NaN	2	3	0.142757223351999	1	1	NaN	364	6	49	1	121	221	321	NaN	521	0.0104145696386695	2	1	NaN	5002301.9786462	NaN	5002302.9621783	5002303.47872443
74	18	0	0	90	36.1581920903955	36.241610738255	13	0.433364048153162	2	9	4	NaN	2	3	0.142757223351999	1	1	NaN	365	6	50	1	121	221	321	NaN	521	0.0103971222415566	2	1	NaN	5002304.2956882	NaN	5002305.2790867	5002305.79561888
74	18	0	0	90	36.1581920903955	36.241610738255	14	0.466699744164944	2	5	6	NaN	1	5	0.142757223351999	1	1	NaN	366	6	51	1	121	221	321	NaN	521	0.0104062696918845	1	1	NaN	5002306.6126716	NaN	5002307.5959434	5002308.11251263
74	18	0	0	90	36.1581920903955	36.241610738255	10	0.333356960117817	2	3	5	NaN	1	3	0.142757223351999	1	1	NaN	367	6	52	1	121	221	321	NaN	521	0.0103943226858974	1	1	NaN	5002308.9294652	NaN	5002309.9128663	5002310.42941068
74	18	0	0	90	36.1581920903955	36.241610738255	10	0.333356960117817	2	12	6	NaN	2	5	0.142757223351999	1	1	NaN	368	6	53	1	121	221	321	NaN	521	0.0104189179837704	2	1	NaN	5002311.2630164	NaN	5002312.2464043	5002312.76296128
74	18	0	0	90	36.1581920903955	36.241610738255	19	0.633378224223852	2	6	4	NaN	1	4	0.142757223351999	1	1	NaN	369	6	54	1	121	221	321	NaN	521	0.0104080690070987	1	1	NaN	5002313.579916	NaN	5002314.5633152	5002315.07987073
74	18	0	0	90	36.1581920903955	36.241610738255	21	0.700049616247416	2	10	1	NaN	2	4	0.142757223351999	1	1	NaN	370	6	55	1	121	221	321	NaN	521	1.2984015699476	2	1	NaN	5002315.8966751	NaN	5002316.8802128	5002317.39676523
74	18	0	0	90	36.1581920903955	36.241610738255	25	0.833392400294542	2	6	3	NaN	1	5	0.142757223351999	1	1	NaN	371	6	56	1	121	221	321	NaN	521	0.0104043232277036	1	1	NaN	5002319.5138322	NaN	5002320.4972123	5002321.01377868
74	18	0	0	90	36.1581920903955	36.241610738255	11	0.366692656129599	2	7	6	NaN	2	5	0.142757223351999	1	1	NaN	372	6	57	1	121	221	321	NaN	521	0.0104029690846801	1	0	NaN	5002321.8307396	NaN	5002322.8140201	5002323.33068373
74	18	0	0	90	36.1581920903955	36.241610738255	10	0.333356960117817	2	1	3	NaN	1	5	0.142757223351999	1	1	NaN	373	6	58	1	121	221	321	NaN	521	0.0103429807350039	1	1	NaN	5002324.1643005	NaN	5002325.1476749	5002325.66425412
74	18	0	0	90	36.1581920903955	36.241610738255	21	0.700049616247416	2	7	2	NaN	2	4	0.142757223351999	1	1	NaN	374	6	59	1	121	221	321	NaN	521	0.92162686958909	2	1	NaN	5002326.4811966	NaN	5002327.4645915	5002327.98113463
74	18	0	0	90	36.1581920903955	36.241610738255	22	0.733385312259197	2	1	1	NaN	1	4	0.142757223351999	1	1	NaN	375	6	60	1	121	221	321	NaN	521	0.0104080690070987	1	1	NaN	5002329.7148392	NaN	5002330.6982244	5002331.21478223
74	18	0	0	90	36.1581920903955	36.241610738255	23	0.766721008270979	2	5	5	NaN	1	4	0.142757223351999	1	1	NaN	376	6	61	1	121	221	321	NaN	521	0.0104737170040607	1	1	NaN	5002332.0317372	NaN	5002333.0151349	5002333.53168578
74	18	0	0	90	36.1581920903955	36.241610738255	0	0	1	7	5	NaN	2	4	0.142757223351999	1	1	NaN	377	6	62	1	111	211	311	NaN	511	0.0103913219645619	2	1	NaN	5002334.365305	NaN	5002335.3486481	5002335.86524698
74	18	0	0	90	36.1581920903955	36.241610738255	10	0.333356960117817	2	4	1	NaN	1	3	0.142757223351999	1	1	NaN	378	6	63	1	121	221	321	NaN	521	0.0104235177859664	1	1	NaN	5002336.6821933	NaN	5002337.6655904	5002338.18214028
74	18	0	0	90	36.1581920903955	36.241610738255	9	0.300021264106035	2	3	5	NaN	1	5	0.142757223351999	1	1	NaN	379	7	1	1	121	221	321	NaN	521	0.0103868748992682	1	1	NaN	5002357.0842056	NaN	5002358.0676109	5002358.58415493
74	18	0	0	90	36.1581920903955	36.241610738255	11	0.366692656129599	2	8	6	NaN	2	4	0.142757223351999	1	1	NaN	380	7	2	1	121	221	321	NaN	521	0.0104283168911934	2	1	NaN	5002359.4011059	NaN	5002360.3844965	5002360.90104248
74	18	0	0	90	36.1581920903955	36.241610738255	17	0.566706832200289	2	10	1	NaN	2	5	0.142757223351999	1	1	NaN	381	7	3	1	121	221	321	NaN	521	0.0103717744350433	2	1	NaN	5002361.7178647	NaN	5002362.7012952	5002363.21794923
74	18	0	0	90	36.1581920903955	36.241610738255	24	0.800056704282761	2	11	3	NaN	2	4	0.142757223351999	1	1	NaN	382	7	4	1	121	221	321	NaN	521	0.159690622240305	2	1	NaN	5002364.0515651	NaN	5002365.0349341	5002365.55150538
74	18	0	0	90	36.1581920903955	36.241610738255	6	0.20001417607069	2	5	6	NaN	1	5	0.142757223351999	1	1	NaN	383	7	5	1	121	221	321	NaN	521	0.0104086697101593	1	1	NaN	5002366.5184445	NaN	5002367.5018719	5002368.01842103
74	18	0	0	90	36.1581920903955	36.241610738255	20	0.666713920235634	2	11	2	NaN	2	5	0.142757223351999	1	1	NaN	384	7	6	1	121	221	321	NaN	521	1.14244882296771	2	1	NaN	5002368.8686968	NaN	5002369.8520866	5002370.36864258
74	18	0	0	90	36.1581920903955	36.241610738255	7	0.233349872082472	2	1	5	NaN	1	4	0.142757223351999	1	1	NaN	385	7	7	1	121	221	321	NaN	521	0.0103737749159336	1	1	NaN	5002372.3190192	NaN	5002373.3024446	5002373.81899132
74	18	0	0	90	36.1581920903955	36.241610738255	19	0.633378224223852	2	3	2	NaN	1	3	0.142757223351999	1	1	NaN	386	7	8	1	121	221	321	NaN	521	0.0104187177494168	1	1	NaN	5002374.6526111	NaN	5002375.6359891	5002376.15255598
74	18	0	0	90	36.1581920903955	36.241610738255	15	0.500035440176725	2	4	4	NaN	1	3	0.142757223351999	1	1	NaN	387	7	9	1	121	221	321	NaN	521	0.0102698421105742	1	1	NaN	5002376.9694168	NaN	5002377.9529012	5002378.46945406
74	18	0	0	90	36.1581920903955	36.241610738255	11	0.366692656129599	2	11	2	NaN	2	4	0.142757223351999	1	1	NaN	388	7	10	1	121	221	321	NaN	521	0.0104081695899367	2	1	NaN	5002379.286405	NaN	5002380.2697874	5002380.78635403
74	18	0	0	90	36.1581920903955	36.241610738255	0	0	1	12	1	NaN	2	5	0.142757223351999	1	1	NaN	389	7	11	1	111	211	311	NaN	511	0.0104096690192819	2	1	NaN	5002381.6032845	NaN	5002382.5866901	5002383.10323663
74	18	0	0	90	36.1581920903955	36.241610738255	6	0.20001417607069	2	12	5	NaN	2	3	0.142757223351999	1	1	NaN	390	7	12	1	121	221	321	NaN	521	0.0104680173099041	2	1	NaN	5002383.9368589	NaN	5002384.9202667	5002385.43680448
74	18	0	0	90	36.1581920903955	36.241610738255	21	0.700049616247416	2	10	5	NaN	2	4	0.142757223351999	1	1	NaN	391	7	13	1	121	221	321	NaN	521	0.0104070696979761	2	1	NaN	5002386.2536103	NaN	5002387.2371765	5002387.75369163
74	18	0	0	90	36.1581920903955	36.241610738255	9	0.300021264106035	2	7	5	NaN	2	4	0.142757223351999	1	1	NaN	392	7	14	1	121	221	321	NaN	521	0.0104222167283297	2	1	NaN	5002388.5706451	NaN	5002389.5540391	5002390.07058648
74	18	0	0	90	36.1581920903955	36.241610738255	7	0.233349872082472	2	4	6	NaN	1	3	0.142757223351999	1	1	NaN	393	7	15	1	121	221	321	NaN	521	0.179583369754255	2	0	NaN	5002390.8875285	NaN	5002391.8709362	5002392.38747633
74	18	0	0	90	36.1581920903955	36.241610738255	19	0.633378224223852	2	2	6	NaN	1	3	0.142757223351999	1	1	NaN	394	7	16	1	121	221	321	NaN	521	1.37643792200834	1	1	NaN	5002393.3711291	NaN	5002394.3544979	5002394.87105508
74	18	0	0	90	36.1581920903955	36.241610738255	22	0.733385312259197	2	8	2	NaN	2	4	0.142757223351999	1	1	NaN	395	7	17	1	121	221	321	NaN	521	0.0104342177510262	2	1	NaN	5002397.0548098	NaN	5002398.0381952	5002398.55475158
74	18	0	0	90	36.1581920903955	36.241610738255	21	0.700049616247416	2	1	6	NaN	1	5	0.142757223351999	1	1	NaN	396	7	18	1	121	221	321	NaN	521	0.0103903226554394	1	1	NaN	5002399.3717305	NaN	5002400.3550885	5002400.87165278
74	18	0	0	90	36.1581920903955	36.241610738255	25	0.833392400294542	2	11	3	NaN	2	4	0.142757223351999	1	1	NaN	397	7	19	1	121	221	321	NaN	521	0.642673569731414	1	0	NaN	5002401.6885945	NaN	5002402.6720013	5002403.18855463
74	18	0	0	90	36.1581920903955	36.241610738255	12	0.40002835214138	2	3	5	NaN	1	4	0.142757223351999	1	1	NaN	398	7	20	1	121	221	321	NaN	521	0.0104054696857929	1	1	NaN	5002404.6389036	NaN	5002405.6222821	5002406.13883213
74	18	0	0	90	36.1581920903955	36.241610738255	0	0	1	7	3	NaN	2	3	0.142757223351999	1	1	NaN	399	7	21	1	111	211	311	NaN	511	0.0104152699932456	2	1	NaN	5002406.9724605	NaN	5002407.9558511	5002408.47240833
74	18	0	0	90	36.1581920903955	36.241610738255	12	0.40002835214138	2	7	5	NaN	2	5	0.142757223351999	1	1	NaN	400	7	22	1	121	221	321	NaN	521	0.673190522938967	2	1	NaN	5002409.3058998	NaN	5002410.2894403	5002410.80597048
74	18	0	0	90	36.1581920903955	36.241610738255	8	0.266685568094254	2	4	2	NaN	1	4	0.142757223351999	1	1	NaN	401	7	23	1	121	221	321	NaN	521	0.010419269092381	1	1	NaN	5002412.289644	NaN	5002413.2730516	5002413.78959993
74	18	0	0	90	36.1581920903955	36.241610738255	9	0.300021264106035	2	2	5	NaN	1	5	0.142757223351999	1	1	NaN	402	7	24	1	121	221	321	NaN	521	0.0104272169992328	1	1	NaN	5002414.6064584	NaN	5002415.5899418	5002416.10648158
74	18	0	0	90	36.1581920903955	36.241610738255	20	0.666713920235634	2	5	4	NaN	1	3	0.142757223351999	1	1	NaN	403	7	25	1	121	221	321	NaN	521	0.0104075698181987	1	1	NaN	5002416.9233214	NaN	5002417.90682	5002418.42338703
74	18	0	0	90	36.1581920903955	36.241610738255	15	0.500035440176725	2	7	5	NaN	2	5	0.142757223351999	1	1	NaN	404	7	26	1	121	221	321	NaN	521	0.0103933224454522	2	1	NaN	5002419.2403286	NaN	5002420.2237538	5002420.74027858
74	18	0	0	90	36.1581920903955	36.241610738255	15	0.500035440176725	2	6	4	NaN	1	3	0.142757223351999	1	1	NaN	405	7	27	1	121	221	321	NaN	521	0.0104013700038195	1	1	NaN	5002421.5738844	NaN	5002422.5572902	5002423.07384413
74	18	0	0	90	36.1581920903955	36.241610738255	9	0.300021264106035	2	5	4	NaN	1	5	0.142757223351999	1	1	NaN	406	7	28	1	121	221	321	NaN	521	0.0104216169565916	1	1	NaN	5002423.890664	NaN	5002424.8742041	5002425.39072778
74	18	0	0	90	36.1581920903955	36.241610738255	24	0.800056704282761	2	10	3	NaN	2	4	0.142757223351999	1	1	NaN	407	7	29	1	121	221	321	NaN	521	0.0990548748522997	2	1	NaN	5002426.2243484	NaN	5002427.2077524	5002427.72430672
74	18	0	0	90	36.1581920903955	36.241610738255	0	0	1	5	4	NaN	1	5	0.142757223351999	1	1	NaN	408	7	30	1	111	211	311	NaN	511	0.0103098377585411	1	1	NaN	5002428.6412707	NaN	5002429.6246501	5002430.14120986
74	18	0	0	90	36.1581920903955	36.241610738255	9	0.300021264106035	2	7	4	NaN	2	3	0.142757223351999	1	1	NaN	409	7	31	1	121	221	321	NaN	521	0.565019617788494	2	1	NaN	5002430.9581484	NaN	5002431.9415508	5002432.45809978
74	18	0	0	90	36.1581920903955	36.241610738255	16	0.533371136188507	2	11	3	NaN	2	4	0.142757223351999	1	1	NaN	410	7	32	1	121	221	321	NaN	521	0.0104044228792191	2	1	NaN	5002433.8251253	NaN	5002434.8084865	5002435.32504428
74	18	0	0	90	36.1581920903955	36.241610738255	0	0	1	12	5	NaN	2	3	0.142757223351999	1	1	NaN	411	7	33	1	111	211	311	NaN	511	0.949321369640529	2	1	NaN	5002436.1420068	NaN	5002437.1253956	5002437.64194513
74	18	0	0	90	36.1581920903955	36.241610738255	13	0.433364048153162	2	8	2	NaN	2	3	0.142757223351999	1	1	NaN	412	7	34	1	121	221	321	NaN	521	0.0103947231546044	2	1	NaN	5002439.4089954	NaN	5002440.392387	5002440.90892668
74	18	0	0	90	36.1581920903955	36.241610738255	19	0.633378224223852	2	12	5	NaN	2	3	0.142757223351999	1	1	NaN	413	7	35	1	121	221	321	NaN	521	0.669756317511201	2	1	NaN	5002441.725873	NaN	5002442.709264	5002443.22582998
74	18	0	0	90	36.1581920903955	36.241610738255	15	0.500035440176725	2	1	6	NaN	1	3	0.142757223351999	1	1	NaN	414	7	36	1	121	221	321	NaN	521	0.0104019222781062	1	1	NaN	5002444.7095086	NaN	5002445.6928944	5002446.20945648
74	18	0	0	90	36.1581920903955	36.241610738255	8	0.266685568094254	2	2	3	NaN	1	4	0.142757223351999	1	1	NaN	415	7	37	1	121	221	321	NaN	521	0.0102704428136349	1	1	NaN	5002447.0262956	NaN	5002448.0097854	5002448.52635736
74	18	0	0	90	36.1581920903955	36.241610738255	10	0.333356960117817	2	3	4	NaN	1	5	0.142757223351999	1	1	NaN	416	7	38	1	121	221	321	NaN	521	0.0104096699506044	1	1	NaN	5002449.3599896	NaN	5002450.3433741	5002450.85991073
74	18	0	0	90	36.1581920903955	36.241610738255	6	0.20001417607069	2	11	6	NaN	2	3	0.142757223351999	1	1	NaN	417	7	39	1	121	221	321	NaN	521	0.0104093700647354	2	1	NaN	5002451.6768576	NaN	5002452.6602848	5002453.17680353
74	18	0	0	90	36.1581920903955	36.241610738255	15	0.500035440176725	2	10	3	NaN	2	4	0.142757223351999	1	1	NaN	418	7	40	1	121	221	321	NaN	521	0.0103984232991934	2	1	NaN	5002453.9936193	NaN	5002454.9771486	5002455.49370348
74	18	0	0	90	36.1581920903955	36.241610738255	7	0.233349872082472	2	9	6	NaN	2	3	0.142757223351999	1	1	NaN	419	7	41	1	121	221	321	NaN	521	0.0104263173416257	2	1	NaN	5002456.3106349	NaN	5002457.2940597	5002457.81059278
74	18	0	0	90	36.1581920903955	36.241610738255	7	0.233349872082472	2	3	1	NaN	1	5	0.142757223351999	1	1	NaN	420	7	42	1	121	221	321	NaN	521	0.0103910230100155	1	1	NaN	5002458.6275409	NaN	5002459.6109851	5002460.12749548
74	18	0	0	90	36.1581920903955	36.241610738255	12	0.40002835214138	2	12	5	NaN	2	3	0.142757223351999	1	1	NaN	421	7	43	1	121	221	321	NaN	521	0.0102733429521322	2	1	NaN	5002460.9444254	NaN	5002461.9278435	5002462.44439576
74	18	0	0	90	36.1581920903955	36.241610738255	24	0.800056704282761	2	8	3	NaN	2	5	0.142757223351999	1	1	NaN	422	7	44	1	121	221	321	NaN	521	0.0104078697040677	2	1	NaN	5002463.2612075	NaN	5002464.2447387	5002464.76128573
74	18	0	0	90	36.1581920903955	36.241610738255	23	0.766721008270979	2	11	6	NaN	2	3	0.142757223351999	1	1	NaN	423	7	45	1	121	221	321	NaN	521	0.0103790750727057	2	1	NaN	5002465.5949015	NaN	5002466.5782915	5002467.09484623
74	18	0	0	90	36.1581920903955	36.241610738255	16	0.533371136188507	2	7	4	NaN	2	3	0.142757223351999	1	1	NaN	424	7	46	1	121	221	321	NaN	521	0.0102804899215698	2	1	NaN	5002467.9118122	NaN	5002468.8952034	5002469.41174231
74	18	0	0	90	36.1581920903955	36.241610738255	0	0	1	5	4	NaN	1	3	0.142757223351999	1	1	NaN	425	7	47	1	111	211	311	NaN	511	0.0104380175471306	1	1	NaN	5002470.2453624	NaN	5002471.2287604	5002471.74530398
74	18	0	0	90	36.1581920903955	36.241610738255	25	0.833392400294542	2	7	4	NaN	2	4	0.142757223351999	1	1	NaN	426	7	48	1	121	221	321	NaN	521	0.0104163689538836	2	1	NaN	5002472.5622721	NaN	5002473.5456619	5002474.06219593
74	18	0	0	90	36.1581920903955	36.241610738255	24	0.800056704282761	2	6	5	NaN	1	4	0.142757223351999	1	1	NaN	427	7	49	1	121	221	321	NaN	521	0.0104068694636226	1	1	NaN	5002474.8790656	NaN	5002475.8625573	5002476.37909873
74	18	0	0	90	36.1581920903955	36.241610738255	12	0.40002835214138	2	3	6	NaN	1	5	0.142757223351999	1	1	NaN	428	7	50	1	121	221	321	NaN	521	0.010396322235465	1	1	NaN	5002477.1960454	NaN	5002478.1794478	5002478.69599078
74	18	0	0	90	36.1581920903955	36.241610738255	22	0.733385312259197	2	10	2	NaN	2	4	0.142757223351999	1	1	NaN	429	7	51	1	121	221	321	NaN	521	0.0104075698181987	2	1	NaN	5002479.5296095	NaN	5002480.5130027	5002481.02955343
74	18	0	0	90	36.1581920903955	36.241610738255	11	0.366692656129599	2	4	6	NaN	1	4	0.142757223351999	1	1	NaN	430	7	52	1	121	221	321	NaN	521	0.0104059223085642	1	1	NaN	5002481.8631868	NaN	5002482.8465422	5002483.36311118
74	18	0	0	90	36.1581920903955	36.241610738255	24	0.800056704282761	2	9	1	NaN	2	3	0.142757223351999	1	1	NaN	431	7	53	1	121	221	321	NaN	521	0.303275317884982	1	0	NaN	5002484.1800601	NaN	5002485.1634603	5002485.68001238
74	18	0	0	90	36.1581920903955	36.241610738255	14	0.466699744164944	2	8	6	NaN	2	5	0.142757223351999	1	1	NaN	432	7	54	1	121	221	321	NaN	521	0.010395422577858	2	1	NaN	5002486.7969925	NaN	5002487.7803832	5002488.29693118
74	18	0	0	90	36.1581920903955	36.241610738255	11	0.366692656129599	2	1	4	NaN	1	3	0.142757223351999	1	1	NaN	433	7	55	1	121	221	321	NaN	521	0.0103300847113132	1	1	NaN	5002489.1305411	NaN	5002490.1139376	5002490.63049942
74	18	0	0	90	36.1581920903955	36.241610738255	17	0.566706832200289	2	2	6	NaN	1	3	0.142757223351999	1	1	NaN	434	7	56	1	121	221	321	NaN	521	0.0104261171072721	1	1	NaN	5002491.4641209	NaN	5002492.4475186	5002492.96406478
74	18	0	0	90	36.1581920903955	36.241610738255	6	0.20001417607069	2	3	1	NaN	1	4	0.142757223351999	1	1	NaN	435	7	57	1	121	221	321	NaN	521	0.0103956228122115	1	1	NaN	5002493.7976861	NaN	5002494.7810795	5002495.29762738
74	18	0	0	90	36.1581920903955	36.241610738255	14	0.466699744164944	2	4	1	NaN	1	5	0.142757223351999	1	1	NaN	436	7	58	1	121	221	321	NaN	521	0.0102701429277658	2	0	NaN	5002496.1145983	NaN	5002497.0979746	5002497.61452986
74	18	0	0	90	36.1581920903955	36.241610738255	6	0.20001417607069	2	2	2	NaN	1	5	0.142757223351999	1	1	NaN	437	7	59	1	121	221	321	NaN	521	0.0104088699445128	1	1	NaN	5002498.4314514	NaN	5002499.4148673	5002499.93142903
74	18	0	0	90	36.1581920903955	36.241610738255	12	0.40002835214138	2	4	4	NaN	1	4	0.142757223351999	1	1	NaN	438	7	60	1	121	221	321	NaN	521	0.0104024233296514	1	1	NaN	5002500.7483613	NaN	5002501.7317649	5002502.24830658
74	18	0	0	90	36.1581920903955	36.241610738255	15	0.500035440176725	2	10	1	NaN	2	4	0.142757223351999	1	1	NaN	439	7	61	1	121	221	321	NaN	521	0.0104134697467089	2	1	NaN	5002503.0652551	NaN	5002504.0486531	5002504.56520953
74	18	0	0	90	36.1581920903955	36.241610738255	21	0.700049616247416	2	8	1	NaN	2	5	0.142757223351999	1	1	NaN	440	7	62	1	121	221	321	NaN	521	0.0103967217728496	2	1	NaN	5002505.3821632	NaN	5002506.3655567	5002506.88210528
74	18	0	0	90	36.1581920903955	36.241610738255	13	0.433364048153162	2	5	1	NaN	1	3	0.142757223351999	1	1	NaN	441	7	63	1	121	221	321	NaN	521	0.0104114692658186	1	1	NaN	5002507.6990473	NaN	5002508.6824477	5002509.19899853
74	18	0	0	90	36.1581920903955	36.241610738255	16	0.533371136188507	2	9	3	NaN	2	4	0.142757223351999	1	1	NaN	442	8	1	1	121	221	321	NaN	521	0.894011169672012	2	1	NaN	5002524.7174067	NaN	5002525.7007989	5002526.21733683
74	18	0	0	90	36.1581920903955	36.241610738255	18	0.60004252821207	2	2	5	NaN	1	3	0.142757223351999	1	1	NaN	443	8	2	1	121	221	321	NaN	521	0.261667522601783	1	1	NaN	5002527.9177043	NaN	5002528.9011088	5002529.41766148
74	18	0	0	90	36.1581920903955	36.241610738255	8	0.266685568094254	2	11	3	NaN	2	4	0.142757223351999	1	1	NaN	444	8	3	1	121	221	321	NaN	521	1.39446111768484	1	0	NaN	5002530.601181	NaN	5002531.5847078	5002532.10125188
74	18	0	0	90	36.1581920903955	36.241610738255	11	0.366692656129599	2	11	1	NaN	2	4	0.142757223351999	1	1	NaN	445	8	4	1	121	221	321	NaN	521	0.0103942230343819	2	1	NaN	5002534.3183424	NaN	5002535.3017428	5002535.81828878
74	18	0	0	90	36.1581920903955	36.241610738255	12	0.40002835214138	2	8	5	NaN	2	4	0.142757223351999	1	1	NaN	446	8	5	1	121	221	321	NaN	521	0.0103882225230336	2	1	NaN	5002536.6352408	NaN	5002537.6186367	5002538.13518138
74	18	0	0	90	36.1581920903955	36.241610738255	15	0.500035440176725	2	11	1	NaN	2	3	0.142757223351999	1	1	NaN	447	8	6	1	121	221	321	NaN	521	0.0104026701301336	2	1	NaN	5002538.9521466	NaN	5002539.935522	5002540.45207703
74	18	0	0	90	36.1581920903955	36.241610738255	18	0.60004252821207	2	10	2	NaN	2	3	0.142757223351999	1	1	NaN	448	8	7	1	121	221	321	NaN	521	0.0104197170585394	2	1	NaN	5002541.2856992	NaN	5002542.2690853	5002542.78563868
74	18	0	0	90	36.1581920903955	36.241610738255	8	0.266685568094254	2	1	6	NaN	1	3	0.142757223351999	1	1	NaN	449	8	8	1	121	221	321	NaN	521	0.0104069700464606	1	1	NaN	5002543.602591	NaN	5002544.5860022	5002545.10253953
74	18	0	0	90	36.1581920903955	36.241610738255	15	0.500035440176725	2	6	4	NaN	1	5	0.142757223351999	1	1	NaN	450	8	9	1	121	221	321	NaN	521	0.0104090692475438	1	1	NaN	5002545.919497	NaN	5002546.9028765	5002547.41943543
74	18	0	0	90	36.1581920903955	36.241610738255	7	0.233349872082472	2	9	1	NaN	2	3	0.142757223351999	1	1	NaN	451	8	10	1	121	221	321	NaN	521	0.0103412326425314	2	1	NaN	5002548.2363787	NaN	5002549.2197736	5002549.73631997
74	18	0	0	90	36.1581920903955	36.241610738255	12	0.40002835214138	2	11	3	NaN	2	5	0.142757223351999	1	1	NaN	452	8	11	1	121	221	321	NaN	521	0.762769269756973	1	0	NaN	5002550.5532679	NaN	5002551.5366748	5002552.05322573
74	18	0	0	90	36.1581920903955	36.241610738255	20	0.666713920235634	2	6	1	NaN	1	4	0.142757223351999	1	1	NaN	453	8	12	1	121	221	321	NaN	521	0.0103918220847845	1	1	NaN	5002553.620267	NaN	5002554.6036199	5002555.12019488
74	18	0	0	90	36.1581920903955	36.241610738255	0	0	1	9	4	NaN	2	4	0.142757223351999	1	1	NaN	454	8	13	1	111	211	311	NaN	511	0.0104117700830102	2	1	NaN	5002555.9370676	NaN	5002556.9205301	5002557.43708113
74	18	0	0	90	36.1581920903955	36.241610738255	17	0.566706832200289	2	8	5	NaN	2	4	0.142757223351999	1	1	NaN	455	8	14	1	121	221	321	NaN	521	0.0103892739862204	2	1	NaN	5002558.2540519	NaN	5002559.237442	5002559.75398273
74	18	0	0	90	36.1581920903955	36.241610738255	19	0.633378224223852	2	10	5	NaN	2	4	0.142757223351999	1	1	NaN	456	8	15	1	121	221	321	NaN	521	0.0104059688746929	2	1	NaN	5002560.5708716	NaN	5002561.5543129	5002562.07087213
74	18	0	0	90	36.1581920903955	36.241610738255	14	0.466699744164944	2	1	4	NaN	1	5	0.142757223351999	1	1	NaN	457	8	16	1	121	221	321	NaN	521	0.0104069691151381	1	1	NaN	5002562.8878201	NaN	5002563.8712329	5002564.38776193
74	18	0	0	90	36.1581920903955	36.241610738255	11	0.366692656129599	2	2	6	NaN	1	5	0.142757223351999	1	1	NaN	458	8	17	1	121	221	321	NaN	521	0.0104064224287868	1	1	NaN	5002565.2213884	NaN	5002566.2047853	5002566.72133698
