subjno	age	gender	isPractice	viewdist	CmToPixX	CmToPixY	SOA_frm	SOA_time	targNum	targID	targExample	targRace	targGender	firstTargPos	contrast	familiarity	curr_staircase	iStair	TrialNum	BlockNum	blktrl	sessionNum	TC_FIXATION	TC_RSVP_START	TC_RSVP_END	TC_BLANK	TC_RESPONSE_ONSET	RT2afc	resp_2afc	acc	RSVPOnsetVBL	RSVPOnsetTime	RSVPOffsetVBL	RSVPOffsetTime	startrt_2afc
8	22	0	0	90	36.1581920903955	36.241610738255	20	0.666712400130928	2	6	6	NaN	1	3	0.0380890645878151	1	1	NaN	1	1	1	1	121	221	321	NaN	521	0.0114744743332267	2	0	NaN	1554813.488696	NaN	1554814.4719719	1554815.00508733
8	22	0	0	90	36.1581920903955	36.241610738255	16	0.533369920104742	2	12	4	NaN	2	4	0.0380890645878151	1	1	NaN	2	1	2	1	121	221	321	NaN	521	0.084750727051869	2	1	NaN	1554816.1222571	NaN	1554817.105544	1554817.63867587
8	22	0	0	90	36.1581920903955	36.241610738255	0	0	1	3	3	NaN	1	3	0.0380890645878151	1	1	NaN	3	1	3	1	111	211	311	NaN	511	0.0104041744489223	1	1	NaN	1554818.7389512	NaN	1554819.7223606	1554820.25560603
8	22	0	0	90	36.1581920903955	36.241610738255	19	0.633376780124381	2	9	3	NaN	2	3	0.0380890645878151	1	1	NaN	4	1	4	1	121	221	321	NaN	521	0.0123446222860366	2	1	NaN	1554861.2432826	NaN	1554862.2265464	1554862.74310918
8	22	0	0	90	36.1581920903955	36.241610738255	25	0.833390500163659	2	5	4	NaN	1	5	0.0380890645878151	1	1	NaN	5	1	5	1	121	221	321	NaN	521	0.0104587220121175	2	0	NaN	1554863.5933812	NaN	1554864.5767816	1554865.09334648
8	22	0	0	90	36.1581920903955	36.241610738255	18	0.600041160117835	2	5	6	NaN	1	4	0.0380890645878151	1	1	NaN	6	1	6	1	121	221	321	NaN	521	0.0238045693840832	2	0	NaN	1554865.943652	NaN	1554866.9270334	1554867.44356603
8	22	0	0	90	36.1581920903955	36.241610738255	14	0.466698680091649	2	2	3	NaN	1	5	0.0380890645878151	1	1	NaN	7	1	7	1	121	221	321	NaN	521	0.0105231117922813	1	1	NaN	1554868.2937043	NaN	1554869.2772593	1554869.79379259
8	22	0	0	90	36.1581920903955	36.241610738255	21	0.700048020137474	2	3	6	NaN	1	4	0.0380890645878151	1	1	NaN	8	1	8	1	121	221	321	NaN	521	0.0103208846412599	2	0	NaN	1554870.6274579	NaN	1554871.6108149	1554872.12736252
8	22	0	0	90	36.1581920903955	36.241610738255	14	0.466698680091649	2	10	1	NaN	2	3	0.0380890645878151	1	1	NaN	9	1	9	1	121	221	321	NaN	521	0.110414616996422	2	1	NaN	1554872.9609645	NaN	1554873.9443803	1554874.46091988
8	22	0	0	90	36.1581920903955	36.241610738255	25	0.833390500163659	2	6	1	NaN	1	5	0.0380890645878151	1	1	NaN	10	1	10	1	121	221	321	NaN	521	0.0104529696982354	1	1	NaN	1554875.3945485	NaN	1554876.3778397	1554876.89449463
8	22	0	0	90	36.1581920903955	36.241610738255	11	0.36669182007201	2	7	4	NaN	2	5	0.0380890645878151	1	1	NaN	11	1	11	1	121	221	321	NaN	521	0.0104119693860412	1	0	NaN	1554877.728022	NaN	1554878.7115059	1554879.22805783
8	22	0	0	90	36.1581920903955	36.241610738255	20	0.666712400130928	2	1	5	NaN	1	5	0.0380890645878151	1	1	NaN	12	1	12	1	121	221	321	NaN	521	0.0104135745204985	2	0	NaN	1554880.0616059	NaN	1554881.0450776	1554881.56163163
8	22	0	0	90	36.1581920903955	36.241610738255	23	0.766719260150567	2	4	1	NaN	1	5	0.0380890645878151	1	1	NaN	13	1	13	1	121	221	321	NaN	521	0.0680712896864861	2	0	NaN	1554882.3952453	NaN	1554883.378656	1554883.89518721
8	22	0	0	90	36.1581920903955	36.241610738255	15	0.500034300098196	2	1	6	NaN	1	5	0.0380890645878151	1	1	NaN	14	1	14	1	121	221	321	NaN	521	0.0104913695249707	1	1	NaN	1554884.795581	NaN	1554885.7789046	1554886.29542823
8	22	0	0	90	36.1581920903955	36.241610738255	8	0.266684960052371	2	11	1	NaN	2	4	0.0380890645878151	1	1	NaN	15	1	15	1	121	221	321	NaN	521	0.0103894220665097	2	1	NaN	1554887.1290523	NaN	1554888.1124359	1554888.62898718
8	22	0	0	90	36.1581920903955	36.241610738255	9	0.300020580058917	2	7	1	NaN	2	3	0.0380890645878151	1	1	NaN	16	1	16	1	121	221	321	NaN	521	0.360861669294536	1	0	NaN	1554889.4625836	NaN	1554890.446027	1554890.96253993
8	22	0	0	90	36.1581920903955	36.241610738255	23	0.766719260150567	2	7	1	NaN	2	3	0.0380890645878151	1	1	NaN	17	1	17	1	121	221	321	NaN	521	0.0104259168729186	1	0	NaN	1554892.9462366	NaN	1554893.9296634	1554894.44622078
8	22	0	0	90	36.1581920903955	36.241610738255	20	0.666712400130928	2	10	3	NaN	2	3	0.0380890645878151	1	1	NaN	18	1	18	1	121	221	321	NaN	521	0.0104459745343775	1	0	NaN	1554895.2798207	NaN	1554896.2632444	1554896.77979313
8	22	0	0	90	36.1581920903955	36.241610738255	22	0.73338364014402	2	6	2	NaN	1	5	0.0380890645878151	1	1	NaN	19	1	19	1	121	221	321	NaN	521	0.034036279655993	2	0	NaN	1554897.6132939	NaN	1554898.5968119	1554899.11335842
8	22	0	0	90	36.1581920903955	36.241610738255	25	0.833390500163659	2	1	3	NaN	1	3	0.0380890645878151	1	1	NaN	20	1	20	1	121	221	321	NaN	521	0.571165322326124	2	0	NaN	1554899.9803	NaN	1554900.963672	1554901.48025008
8	22	0	0	90	36.1581920903955	36.241610738255	15	0.500034300098196	2	10	2	NaN	2	4	0.0380890645878151	1	1	NaN	21	1	21	1	121	221	321	NaN	521	0.0868039219640195	1	0	NaN	1554903.280604	NaN	1554904.2640596	1554904.78056968
8	22	0	0	90	36.1581920903955	36.241610738255	24	0.800054880157113	2	8	1	NaN	2	3	0.0380890645878151	1	1	NaN	22	1	22	1	121	221	321	NaN	521	0.0104260221123695	1	0	NaN	1554905.6975306	NaN	1554906.680928	1554907.19747338
8	22	0	0	90	36.1581920903955	36.241610738255	7	0.233349340045825	2	8	4	NaN	2	5	0.0380890645878151	1	1	NaN	23	1	23	1	121	221	321	NaN	521	0.0104056219570339	2	1	NaN	1554908.4143562	NaN	1554909.3978624	1554909.91441148
8	22	0	0	90	36.1581920903955	36.241610738255	19	0.633376780124381	2	12	6	NaN	2	3	0.0380890645878151	1	1	NaN	24	1	24	1	121	221	321	NaN	521	0.0915006271097809	2	1	NaN	1554910.748019	NaN	1554911.7314236	1554912.24797027
8	22	0	0	90	36.1581920903955	36.241610738255	21	0.700048020137474	2	4	4	NaN	1	3	0.0380890645878151	1	1	NaN	25	1	25	1	121	221	321	NaN	521	0.026517569553107	1	1	NaN	1554913.1649293	NaN	1554914.1483337	1554914.66487793
8	22	0	0	90	36.1581920903955	36.241610738255	21	0.700048020137474	2	9	6	NaN	2	3	0.0380890645878151	1	1	NaN	26	1	26	1	121	221	321	NaN	521	0.436304679838941	2	1	NaN	1554915.515165	NaN	1554916.4985657	1554917.01510582
8	22	0	0	90	36.1581920903955	36.241610738255	12	0.400027440078557	2	1	1	NaN	1	3	0.0380890645878151	1	1	NaN	27	1	27	1	121	221	321	NaN	521	0.311635016929358	2	0	NaN	1554918.6321444	NaN	1554919.615518	1554920.13207998
8	22	0	0	90	36.1581920903955	36.241610738255	22	0.73338364014402	2	8	3	NaN	2	5	0.0380890645878151	1	1	NaN	28	1	28	1	121	221	321	NaN	521	0.525039469590411	2	1	NaN	1554921.282386	NaN	1554922.26581	1554922.78234543
8	22	0	0	90	36.1581920903955	36.241610738255	9	0.300020580058917	2	6	3	NaN	1	5	0.0380890645878151	1	1	NaN	29	1	29	1	121	221	321	NaN	521	0.619032369460911	2	0	NaN	1554924.1326714	NaN	1554925.1161004	1554925.63261523
8	22	0	0	90	36.1581920903955	36.241610738255	20	0.666712400130928	2	12	3	NaN	2	5	0.0380890645878151	1	1	NaN	30	1	30	1	121	221	321	NaN	521	0.640866679837927	1	0	NaN	1554927.3828905	NaN	1554928.3662991	1554928.88293942
8	22	0	0	90	36.1581920903955	36.241610738255	10	0.333356200065464	2	9	4	NaN	2	4	0.0380890645878151	1	1	NaN	31	1	31	1	121	221	321	NaN	521	0.798086764523759	1	0	NaN	1554930.6333123	NaN	1554931.6167058	1554932.13325314
8	22	0	0	90	36.1581920903955	36.241610738255	23	0.766719260150567	2	11	4	NaN	2	3	0.0380890645878151	1	1	NaN	32	1	32	1	121	221	321	NaN	521	0.792455969378352	2	1	NaN	1554933.7669758	NaN	1554934.7503755	1554935.26688963
8	22	0	0	90	36.1581920903955	36.241610738255	8	0.266684960052371	2	12	5	NaN	2	3	0.0380890645878151	1	1	NaN	33	1	33	1	121	221	321	NaN	521	0.123922322178259	1	0	NaN	1554936.8839174	NaN	1554937.8673439	1554938.38386938
8	22	0	0	90	36.1581920903955	36.241610738255	0	0	1	11	3	NaN	2	5	0.0380890645878151	1	1	NaN	34	1	34	1	111	211	311	NaN	511	0.426313179777935	1	0	NaN	1554939.3175258	NaN	1554940.3008786	1554940.81744102
8	22	0	0	90	36.1581920903955	36.241610738255	22	0.73338364014402	2	9	4	NaN	2	3	0.0380890645878151	1	1	NaN	35	1	35	1	121	221	321	NaN	521	0.0277275221887976	2	1	NaN	1554942.0677454	NaN	1554943.0511712	1554943.56771278
8	22	0	0	90	36.1581920903955	36.241610738255	13	0.433363060085103	2	12	5	NaN	2	5	0.0380890645878151	1	1	NaN	36	1	36	1	121	221	321	NaN	521	0.509890574496239	2	1	NaN	1554944.4178757	NaN	1554945.4014207	1554945.91795903
8	22	0	0	90	36.1581920903955	36.241610738255	24	0.800054880157113	2	1	2	NaN	1	5	0.0380890645878151	1	1	NaN	37	1	37	1	121	221	321	NaN	521	0.44347382732667	1	1	NaN	1554947.2681479	NaN	1554948.2516874	1554948.76822717
8	22	0	0	90	36.1581920903955	36.241610738255	15	0.500034300098196	2	11	1	NaN	2	5	0.0380890645878151	1	1	NaN	38	1	38	1	121	221	321	NaN	521	0.0105115645565093	1	0	NaN	1554950.0352215	NaN	1554951.0186169	1554951.53516794
8	22	0	0	90	36.1581920903955	36.241610738255	6	0.200013720039278	2	12	6	NaN	2	4	0.0380890645878151	1	1	NaN	39	1	39	1	121	221	321	NaN	521	0.0104297169018537	1	0	NaN	1554952.3687931	NaN	1554953.3521602	1554953.86872128
8	22	0	0	90	36.1581920903955	36.241610738255	21	0.700048020137474	2	9	6	NaN	2	4	0.0380890645878151	1	1	NaN	40	1	40	1	121	221	321	NaN	521	1.05763056944124	2	1	NaN	1554954.7023373	NaN	1554955.6857396	1554956.20228103
8	22	0	0	90	36.1581920903955	36.241610738255	24	0.800054880157113	2	9	3	NaN	2	3	0.0380890645878151	1	1	NaN	41	1	41	1	121	221	321	NaN	521	0.208215822000057	1	0	NaN	1554958.1193636	NaN	1554959.1027604	1554959.61929118
8	22	0	0	90	36.1581920903955	36.241610738255	15	0.500034300098196	2	12	6	NaN	2	3	0.0380890645878151	1	1	NaN	42	1	42	1	121	221	321	NaN	521	0.0105141170788556	1	0	NaN	1554960.7196733	NaN	1554961.7030357	1554962.21954898
8	22	0	0	90	36.1581920903955	36.241610738255	16	0.533369920104742	2	11	2	NaN	2	3	0.0380890645878151	1	1	NaN	43	1	43	1	121	221	321	NaN	521	0.0104419167619199	1	0	NaN	1554963.0531523	NaN	1554964.0365931	1554964.55310418
8	22	0	0	90	36.1581920903955	36.241610738255	11	0.36669182007201	2	2	1	NaN	1	4	0.0380890645878151	1	1	NaN	44	1	44	1	121	221	321	NaN	521	0.0103945219889283	1	1	NaN	1554965.3866132	NaN	1554966.3701005	1554966.88667288
8	22	0	0	90	36.1581920903955	36.241610738255	13	0.433363060085103	2	1	1	NaN	1	5	0.0380890645878151	1	1	NaN	45	1	45	1	121	221	321	NaN	521	0.0552061221096665	1	1	NaN	1554967.7202563	NaN	1554968.7036938	1554969.22023098
8	22	0	0	90	36.1581920903955	36.241610738255	12	0.400027440078557	2	3	3	NaN	1	5	0.0380890645878151	1	1	NaN	46	1	46	1	121	221	321	NaN	521	0.0104893168900162	1	1	NaN	1554970.1038524	NaN	1554971.0872604	1554971.60380058
8	22	0	0	90	36.1581920903955	36.241610738255	14	0.466698680091649	2	7	6	NaN	2	5	0.0380890645878151	1	1	NaN	47	1	47	1	121	221	321	NaN	521	0.0104324168059975	2	1	NaN	1554972.4374229	NaN	1554973.4208488	1554973.93735328
8	22	0	0	90	36.1581920903955	36.241610738255	10	0.333356200065464	2	12	3	NaN	2	3	0.0380890645878151	1	1	NaN	48	1	48	1	121	221	321	NaN	521	0.652982464525849	2	1	NaN	1554974.7543917	NaN	1554975.7377404	1554976.25424964
8	22	0	0	90	36.1581920903955	36.241610738255	20	0.666712400130928	2	2	2	NaN	1	3	0.0380890645878151	1	1	NaN	49	1	49	1	121	221	321	NaN	521	0.01046372205019	1	1	NaN	1554977.7212558	NaN	1554978.7046733	1554979.22121988
8	22	0	0	90	36.1581920903955	36.241610738255	18	0.600041160117835	2	4	1	NaN	1	5	0.0380890645878151	1	1	NaN	50	1	50	1	121	221	321	NaN	521	0.624675269471481	2	0	NaN	1554980.054697	NaN	1554981.0382447	1554981.55476903
8	22	0	0	90	36.1581920903955	36.241610738255	15	0.500034300098196	2	3	5	NaN	1	5	0.0380890645878151	1	1	NaN	51	1	51	1	121	221	321	NaN	521	0.010276147397235	2	0	NaN	1554982.9884807	NaN	1554983.9718749	1554984.48840805
8	22	0	0	90	36.1581920903955	36.241610738255	18	0.600041160117835	2	1	4	NaN	1	4	0.0380890645878151	1	1	NaN	52	1	52	1	121	221	321	NaN	521	0.0103592374362051	1	1	NaN	1554985.3052561	NaN	1554986.2887666	1554986.80530306
8	22	0	0	90	36.1581920903955	36.241610738255	18	0.600041160117835	2	10	6	NaN	2	4	0.0380890645878151	1	1	NaN	53	1	53	1	121	221	321	NaN	521	0.0104299169033766	2	1	NaN	1554988.2056969	NaN	1554989.1890397	1554989.70557658
8	22	0	0	90	36.1581920903955	36.241610738255	21	0.700048020137474	2	1	1	NaN	1	4	0.0380890645878151	1	1	NaN	54	1	54	1	121	221	321	NaN	521	0.0104611746501178	2	0	NaN	1554990.5225097	NaN	1554991.5059452	1554992.02247743
8	22	0	0	90	36.1581920903955	36.241610738255	10	0.333356200065464	2	7	2	NaN	2	3	0.0380890645878151	1	1	NaN	55	1	55	1	121	221	321	NaN	521	0.823852221947163	1	0	NaN	1554992.8560932	NaN	1554993.8395174	1554994.35603768
8	22	0	0	90	36.1581920903955	36.241610738255	25	0.833390500163659	2	6	4	NaN	1	5	0.0380890645878151	1	1	NaN	56	1	56	1	121	221	321	NaN	521	0.569206769578159	2	0	NaN	1554996.0062784	NaN	1554996.9898053	1554997.50634563
8	22	0	0	90	36.1581920903955	36.241610738255	7	0.233349340045825	2	5	4	NaN	1	5	0.0380890645878151	1	1	NaN	57	1	57	1	121	221	321	NaN	521	0.0103962221182883	1	1	NaN	1554999.256601	NaN	1555000.2401136	1555000.75665938
8	22	0	0	90	36.1581920903955	36.241610738255	22	0.73338364014402	2	8	5	NaN	2	5	0.0380890645878151	1	1	NaN	58	1	58	1	121	221	321	NaN	521	0.785583932185546	2	1	NaN	1555001.990318	NaN	1555002.9737148	1555003.49026607
8	22	0	0	90	36.1581920903955	36.241610738255	16	0.533369920104742	2	7	5	NaN	2	4	0.0380890645878151	1	1	NaN	59	1	59	1	121	221	321	NaN	521	0.0382456167135388	1	0	NaN	1555005.4572944	NaN	1555006.4407268	1555006.95727698
8	22	0	0	90	36.1581920903955	36.241610738255	21	0.700048020137474	2	10	3	NaN	2	4	0.0380890645878151	1	1	NaN	60	1	60	1	121	221	321	NaN	521	0.480302969459444	1	0	NaN	1555007.807571	NaN	1555008.7909533	1555009.30750883
8	22	0	0	90	36.1581920903955	36.241610738255	13	0.433363060085103	2	4	1	NaN	1	3	0.0380890645878151	1	1	NaN	61	1	61	1	121	221	321	NaN	521	0.295593532035127	2	0	NaN	1555010.6078276	NaN	1555011.5912392	1555012.10777967
8	22	0	0	90	36.1581920903955	36.241610738255	13	0.433363060085103	2	5	2	NaN	1	3	0.0380890645878151	1	1	NaN	62	1	62	1	121	221	321	NaN	521	0.206891464535147	1	1	NaN	1555013.2247626	NaN	1555014.2081878	1555014.72470424
8	22	0	0	90	36.1581920903955	36.241610738255	9	0.300020580058917	2	8	1	NaN	2	5	0.0380890645878151	1	1	NaN	63	1	63	1	121	221	321	NaN	521	0.657647122163326	2	1	NaN	1555015.758335	NaN	1555016.7417495	1555017.25829708
8	22	0	0	90	36.1581920903955	36.241610738255	16	0.533369920104742	2	11	6	NaN	2	5	0.0380890645878151	1	1	NaN	64	2	1	1	121	221	321	NaN	521	0.36001886962913	1	0	NaN	1555025.5759286	NaN	1555026.5593728	1555027.07590963
8	22	0	0	90	36.1581920903955	36.241610738255	18	0.600041160117835	2	3	4	NaN	1	4	0.0380890645878151	1	1	NaN	65	2	2	1	121	221	321	NaN	521	0.283200969453901	2	0	NaN	1555028.6929118	NaN	1555029.6763345	1555030.19288383
8	22	0	0	90	36.1581920903955	36.241610738255	14	0.466698680091649	2	8	3	NaN	2	3	0.0380890645878151	1	1	NaN	66	2	3	1	121	221	321	NaN	521	0.354434621986002	1	0	NaN	1555031.2932023	NaN	1555032.276599	1555032.79314128
8	22	0	0	90	36.1581920903955	36.241610738255	7	0.233349340045825	2	12	1	NaN	2	4	0.0380890645878151	1	1	NaN	67	2	4	1	121	221	321	NaN	521	0.383595464518294	1	0	NaN	1555033.9599963	NaN	1555034.9435305	1555035.46005954
8	22	0	0	90	36.1581920903955	36.241610738255	25	0.833390500163659	2	10	5	NaN	2	4	0.0380890645878151	1	1	NaN	68	2	5	1	121	221	321	NaN	521	0.475248369621113	1	0	NaN	1555036.6603798	NaN	1555037.6437927	1555038.16033263
8	22	0	0	90	36.1581920903955	36.241610738255	24	0.800054880157113	2	5	1	NaN	1	5	0.0380890645878151	1	1	NaN	69	2	6	1	121	221	321	NaN	521	0.48332766443491	1	1	NaN	1555039.4606476	NaN	1555040.4440744	1555040.96060844
8	22	0	0	90	36.1581920903955	36.241610738255	20	0.666712400130928	2	8	2	NaN	2	4	0.0380890645878151	1	1	NaN	70	2	7	1	121	221	321	NaN	521	0.619115622248501	1	0	NaN	1555042.2608354	NaN	1555043.2443568	1555043.76088728
8	22	0	0	90	36.1581920903955	36.241610738255	7	0.233349340045825	2	5	5	NaN	1	3	0.0380890645878151	1	1	NaN	71	2	8	1	121	221	321	NaN	521	0.364956822013482	1	1	NaN	1555045.1945772	NaN	1555046.1779924	1555046.69454098
8	22	0	0	90	36.1581920903955	36.241610738255	0	0	1	6	5	NaN	1	3	0.0380890645878151	1	1	NaN	72	2	9	1	111	211	311	NaN	511	0.560924742370844	1	1	NaN	1555048.0947642	NaN	1555049.0782363	1555049.59479426
8	22	0	0	90	36.1581920903955	36.241610738255	19	0.633376780124381	2	5	5	NaN	1	3	0.0380890645878151	1	1	NaN	73	2	10	1	121	221	321	NaN	521	0.733520069392398	1	1	NaN	1555050.9784446	NaN	1555051.9619003	1555052.47840053
8	22	0	0	90	36.1581920903955	36.241610738255	9	0.300020580058917	2	5	2	NaN	1	4	0.0380890645878151	1	1	NaN	74	2	11	1	121	221	321	NaN	521	0.459270859137177	1	1	NaN	1555054.0287329	NaN	1555055.0121585	1555055.52871964
8	22	0	0	90	36.1581920903955	36.241610738255	15	0.500034300098196	2	11	6	NaN	2	5	0.0380890645878151	1	1	NaN	75	2	12	1	121	221	321	NaN	521	0.571623564464971	1	0	NaN	1555056.8122574	NaN	1555057.7957896	1555058.31231104
8	22	0	0	90	36.1581920903955	36.241610738255	24	0.800054880157113	2	10	4	NaN	2	4	0.0380890645878151	1	1	NaN	76	2	13	1	121	221	321	NaN	521	0.615429474506527	1	0	NaN	1555059.7126404	NaN	1555060.6960105	1555061.21259353
8	22	0	0	90	36.1581920903955	36.241610738255	11	0.36669182007201	2	7	2	NaN	2	5	0.0380890645878151	1	1	NaN	77	2	14	1	121	221	321	NaN	521	0.714900522027165	1	0	NaN	1555063.0128566	NaN	1555063.9963886	1555064.51292428
8	22	0	0	90	36.1581920903955	36.241610738255	0	0	1	10	4	NaN	2	4	0.0380890645878151	1	1	NaN	78	2	15	1	111	211	311	NaN	511	0.409493622137234	1	0	NaN	1555066.0466114	NaN	1555067.0300133	1555067.54654798
8	22	0	0	90	36.1581920903955	36.241610738255	16	0.533369920104742	2	8	3	NaN	2	3	0.0380890645878151	1	1	NaN	79	2	16	1	121	221	321	NaN	521	0.563473369460553	1	0	NaN	1555068.7802303	NaN	1555069.7635403	1555070.28014783
8	22	0	0	90	36.1581920903955	36.241610738255	12	0.400027440078557	2	11	2	NaN	2	3	0.0380890645878151	1	1	NaN	80	2	17	1	121	221	321	NaN	521	0.447985069593415	1	0	NaN	1555071.6639237	NaN	1555072.6472912	1555073.16377353
8	22	0	0	90	36.1581920903955	36.241610738255	12	0.400027440078557	2	10	6	NaN	2	4	0.0380890645878151	1	1	NaN	81	2	18	1	121	221	321	NaN	521	0.424817969556898	1	0	NaN	1555074.4307816	NaN	1555075.4141617	1555075.93070923
8	22	0	0	90	36.1581920903955	36.241610738255	9	0.300020580058917	2	2	6	NaN	1	4	0.0380890645878151	1	1	NaN	82	2	19	1	121	221	321	NaN	521	0.278931464534253	1	1	NaN	1555078.0811057	NaN	1555079.0644396	1555079.58106214
8	22	0	0	90	36.1581920903955	36.241610738255	0	0	1	9	5	NaN	2	4	0.0380890645878151	1	1	NaN	83	2	20	1	111	211	311	NaN	511	0.0104076694697142	1	0	NaN	1555080.9480597	NaN	1555081.9314866	1555082.44800813
8	22	0	0	90	36.1581920903955	36.241610738255	15	0.500034300098196	2	9	6	NaN	2	3	0.0380890645878151	1	1	NaN	84	2	21	1	121	221	321	NaN	521	0.446103216847405	1	0	NaN	1555083.2815041	NaN	1555084.2650655	1555084.78157958
8	22	0	0	90	36.1581920903955	36.241610738255	11	0.36669182007201	2	12	6	NaN	2	4	0.0380890645878151	1	1	NaN	85	2	22	1	121	221	321	NaN	521	0.423165069660172	1	0	NaN	1555086.0485727	NaN	1555087.0319805	1555087.54851123
8	22	0	0	90	36.1581920903955	36.241610738255	17	0.566705540111288	2	5	4	NaN	1	3	0.0380890645878151	1	1	NaN	86	2	23	1	121	221	321	NaN	521	0.38515896955505	1	1	NaN	1555088.798827	NaN	1555089.7822442	1555090.29879343
8	22	0	0	90	36.1581920903955	36.241610738255	14	0.466698680091649	2	3	4	NaN	1	5	0.0380890645878151	1	1	NaN	87	2	24	1	121	221	321	NaN	521	0.0104753696359694	1	1	NaN	1555092.2991691	NaN	1555093.2825792	1555093.79912383
8	22	0	0	90	36.1581920903955	36.241610738255	16	0.533369920104742	2	5	4	NaN	1	4	0.0380890645878151	1	1	NaN	88	2	25	1	121	221	321	NaN	521	0.519249522127211	2	0	NaN	1555094.6326199	NaN	1555095.6161271	1555096.13269118
8	22	0	0	90	36.1581920903955	36.241610738255	13	0.433363060085103	2	3	1	NaN	1	3	0.0380890645878151	1	1	NaN	89	2	26	1	121	221	321	NaN	521	0.38796426448971	2	0	NaN	1555098.0997196	NaN	1555099.0831474	1555099.59969074
8	22	0	0	90	36.1581920903955	36.241610738255	7	0.233349340045825	2	9	4	NaN	2	3	0.0380890645878151	1	1	NaN	90	2	27	1	121	221	321	NaN	521	0.477555569494143	1	0	NaN	1555101.0500249	NaN	1555102.0334485	1555102.54998983
8	22	0	0	90	36.1581920903955	36.241610738255	0	0	1	2	3	NaN	1	5	0.0380890645878151	1	1	NaN	91	2	28	1	111	211	311	NaN	511	0.301355369389057	2	0	NaN	1555103.8503678	NaN	1555104.8337204	1555105.35026423
8	22	0	0	90	36.1581920903955	36.241610738255	17	0.566705540111288	2	9	2	NaN	2	3	0.0380890645878151	1	1	NaN	92	2	29	1	121	221	321	NaN	521	0.7240780221764	1	0	NaN	1555106.4838996	NaN	1555107.4672922	1555107.98386098
8	22	0	0	90	36.1581920903955	36.241610738255	6	0.200013720039278	2	7	5	NaN	2	5	0.0380890645878151	1	1	NaN	93	2	30	1	121	221	321	NaN	521	0.273450822103769	1	0	NaN	1555109.5341921	NaN	1555110.5175959	1555111.03415748
8	22	0	0	90	36.1581920903955	36.241610738255	7	0.233349340045825	2	6	3	NaN	1	5	0.0380890645878151	1	1	NaN	94	2	31	1	121	221	321	NaN	521	0.345117694931105	2	0	NaN	1555112.1344715	NaN	1555113.1177719	1555113.63441771
8	22	0	0	90	36.1581920903955	36.241610738255	23	0.766719260150567	2	4	6	NaN	1	3	0.0380890645878151	1	1	NaN	95	2	32	1	121	221	321	NaN	521	0.286465622019023	1	1	NaN	1555114.8013926	NaN	1555115.7848031	1555116.30133978
8	22	0	0	90	36.1581920903955	36.241610738255	21	0.700048020137474	2	11	4	NaN	2	4	0.0380890645878151	1	1	NaN	96	2	33	1	121	221	321	NaN	521	0.303384594852105	1	0	NaN	1555117.7682268	NaN	1555118.7517419	1555119.26830601
8	22	0	0	90	36.1581920903955	36.241610738255	20	0.666712400130928	2	7	2	NaN	2	4	0.0380890645878151	1	1	NaN	97	2	34	1	121	221	321	NaN	521	0.303417516872287	1	0	NaN	1555120.7686193	NaN	1555121.7520413	1555122.26858418
8	22	0	0	90	36.1581920903955	36.241610738255	23	0.766719260150567	2	3	3	NaN	1	5	0.0380890645878151	1	1	NaN	98	2	35	1	121	221	321	NaN	521	0.0103911221958697	2	0	NaN	1555123.6855661	NaN	1555124.6690054	1555125.18554508
8	22	0	0	90	36.1581920903955	36.241610738255	11	0.36669182007201	2	4	2	NaN	1	5	0.0380890645878151	1	1	NaN	99	2	36	1	121	221	321	NaN	521	0.204638122115284	1	1	NaN	1555126.0190393	NaN	1555127.0025682	1555127.51910828
8	22	0	0	90	36.1581920903955	36.241610738255	22	0.73338364014402	2	7	1	NaN	2	5	0.0380890645878151	1	1	NaN	100	2	37	1	121	221	321	NaN	521	0.171689916867763	1	0	NaN	1555128.8360907	NaN	1555129.8195142	1555130.33605178
8	22	0	0	90	36.1581920903955	36.241610738255	10	0.333356200065464	2	7	2	NaN	2	5	0.0380890645878151	1	1	NaN	101	2	38	1	121	221	321	NaN	521	0.264430969487876	2	1	NaN	1555131.3196875	NaN	1555132.3030625	1555132.81962843
8	22	0	0	90	36.1581920903955	36.241610738255	8	0.266684960052371	2	11	4	NaN	2	5	0.0380890645878151	1	1	NaN	102	2	39	1	121	221	321	NaN	521	0.0645691745448858	1	0	NaN	1555133.9032772	NaN	1555134.8866781	1555135.40321503
8	22	0	0	90	36.1581920903955	36.241610738255	15	0.500034300098196	2	5	5	NaN	1	3	0.0380890645878151	1	1	NaN	103	2	40	1	121	221	321	NaN	521	0.0103722373023629	1	1	NaN	1555136.2868365	NaN	1555137.2702223	1555137.78678106
8	22	0	0	90	36.1581920903955	36.241610738255	21	0.700048020137474	2	8	1	NaN	2	5	0.0380890645878151	1	1	NaN	104	2	41	1	121	221	321	NaN	521	0.291283522034064	1	0	NaN	1555138.620493	NaN	1555139.6037842	1555140.12034448
8	22	0	0	90	36.1581920903955	36.241610738255	18	0.600041160117835	2	12	1	NaN	2	5	0.0380890645878151	1	1	NaN	105	2	42	1	121	221	321	NaN	521	0.419102616840973	1	0	NaN	1555141.2206594	NaN	1555142.2040403	1555142.72059618
8	22	0	0	90	36.1581920903955	36.241610738255	11	0.36669182007201	2	4	2	NaN	1	4	0.0380890645878151	1	1	NaN	106	2	43	1	121	221	321	NaN	521	0.0929417221341282	2	0	NaN	1555143.9707952	NaN	1555144.9543337	1555145.47087168
8	22	0	0	90	36.1581920903955	36.241610738255	13	0.433363060085103	2	6	3	NaN	1	3	0.0380890645878151	1	1	NaN	107	2	44	1	121	221	321	NaN	521	0.220057116821408	2	0	NaN	1555146.3878317	NaN	1555147.3712309	1555147.88777118
8	22	0	0	90	36.1581920903955	36.241610738255	16	0.533369920104742	2	4	1	NaN	1	4	0.0380890645878151	1	1	NaN	108	2	45	1	121	221	321	NaN	521	0.237757122144103	2	0	NaN	1555148.9380938	NaN	1555149.9214641	1555150.43801998
8	22	0	0	90	36.1581920903955	36.241610738255	23	0.766719260150567	2	3	4	NaN	1	5	0.0380890645878151	1	1	NaN	109	2	46	1	121	221	321	NaN	521	0.367716922191903	1	1	NaN	1555151.488337	NaN	1555152.4717079	1555152.98827438
8	22	0	0	90	36.1581920903955	36.241610738255	18	0.600041160117835	2	6	2	NaN	1	5	0.0380890645878151	1	1	NaN	110	2	47	1	121	221	321	NaN	521	0.395657222252339	2	0	NaN	1555154.1719079	NaN	1555155.1553416	1555155.67187408
8	22	0	0	90	36.1581920903955	36.241610738255	13	0.433363060085103	2	4	4	NaN	1	3	0.0380890645878151	1	1	NaN	111	2	48	1	121	221	321	NaN	521	0.31126621668227	2	0	NaN	1555156.8888632	NaN	1555157.8722685	1555158.38880328
8	22	0	0	90	36.1581920903955	36.241610738255	18	0.600041160117835	2	1	2	NaN	1	5	0.0380890645878151	1	1	NaN	112	2	49	1	121	221	321	NaN	521	0.245197117095813	2	0	NaN	1555159.5222718	NaN	1555160.5058568	1555161.02239708
8	22	0	0	90	36.1581920903955	36.241610738255	18	0.600041160117835	2	7	1	NaN	2	3	0.0380890645878151	1	1	NaN	113	2	50	1	121	221	321	NaN	521	0.318407389800996	1	0	NaN	1555162.0893795	NaN	1555163.0727775	1555163.58931671
8	22	0	0	90	36.1581920903955	36.241610738255	9	0.300020580058917	2	10	5	NaN	2	4	0.0380890645878151	1	1	NaN	114	2	51	1	121	221	321	NaN	521	0.417085169581696	2	1	NaN	1555165.8230816	NaN	1555166.8065177	1555167.32300883
8	22	0	0	90	36.1581920903955	36.241610738255	19	0.633376780124381	2	5	6	NaN	1	5	0.0380890645878151	1	1	NaN	115	2	52	1	121	221	321	NaN	521	0.354896969627589	1	1	NaN	1555168.5566066	NaN	1555169.5401216	1555170.05660593
8	22	0	0	90	36.1581920903955	36.241610738255	23	0.766719260150567	2	7	3	NaN	2	3	0.0380890645878151	1	1	NaN	116	2	53	1	121	221	321	NaN	521	0.309244769392535	1	0	NaN	1555171.5069221	NaN	1555172.4903719	1555173.00689853
8	22	0	0	90	36.1581920903955	36.241610738255	17	0.566705540111288	2	5	3	NaN	1	5	0.0380890645878151	1	1	NaN	117	2	54	1	121	221	321	NaN	521	0.34084956953302	1	1	NaN	1555174.507262	NaN	1555175.4906604	1555176.00721223
8	22	0	0	90	36.1581920903955	36.241610738255	6	0.200013720039278	2	4	3	NaN	1	3	0.0380890645878151	1	1	NaN	118	2	55	1	121	221	321	NaN	521	0.387664869427681	1	1	NaN	1555177.5242066	NaN	1555178.5076111	1555179.02415663
8	22	0	0	90	36.1581920903955	36.241610738255	0	0	1	8	2	NaN	2	3	0.0380890645878151	1	1	NaN	119	2	56	1	111	211	311	NaN	511	0.491053369594738	1	0	NaN	1555180.5411901	NaN	1555181.524675	1555182.04112863
8	22	0	0	90	36.1581920903955	36.241610738255	14	0.466698680091649	2	12	1	NaN	2	3	0.0380890645878151	1	1	NaN	120	2	57	1	121	221	321	NaN	521	0.377615522127599	2	1	NaN	1555183.3581217	NaN	1555184.3415396	1555184.85806908
8	22	0	0	90	36.1581920903955	36.241610738255	7	0.233349340045825	2	8	4	NaN	2	4	0.0380890645878151	1	1	NaN	121	2	58	1	121	221	321	NaN	521	0.0103937222156674	2	1	NaN	1555189.158678	NaN	1555190.1420848	1555190.65863788
8	22	0	0	90	36.1581920903955	36.241610738255	10	0.333356200065464	2	4	5	NaN	1	4	0.0380890645878151	1	1	NaN	122	2	59	1	121	221	321	NaN	521	0.0103733746800572	1	1	NaN	1555191.4922717	NaN	1555192.4756578	1555192.99220123
8	22	0	0	90	36.1581920903955	36.241610738255	10	0.333356200065464	2	9	3	NaN	2	3	0.0380890645878151	1	1	NaN	123	2	60	1	121	221	321	NaN	521	0.0104691593442112	1	0	NaN	1555194.0091393	NaN	1555194.992528	1555195.50911194
8	22	0	0	90	36.1581920903955	36.241610738255	12	0.400027440078557	2	12	3	NaN	2	4	0.0380890645878151	1	1	NaN	124	2	61	1	121	221	321	NaN	521	0.0103964221198112	1	0	NaN	1555196.6261009	NaN	1555197.6094859	1555198.12603598
8	22	0	0	90	36.1581920903955	36.241610738255	22	0.73338364014402	2	5	6	NaN	1	3	0.0380890645878151	1	1	NaN	125	2	62	1	121	221	321	NaN	521	0.820039169630036	1	1	NaN	1555199.2596502	NaN	1555200.2430933	1555200.75962443
8	22	0	0	90	36.1581920903955	36.241610738255	16	0.533369920104742	2	9	3	NaN	2	3	0.0380890645878151	1	1	NaN	126	2	63	1	121	221	321	NaN	521	0.357952021993697	1	0	NaN	1555202.4100022	NaN	1555203.3933985	1555203.90993098
8	22	0	0	90	36.1581920903955	36.241610738255	6	0.200013720039278	2	9	1	NaN	2	3	0.0380890645878151	1	1	NaN	127	3	1	1	121	221	321	NaN	521	0.392587222158909	1	0	NaN	1555211.927595	NaN	1555212.9109897	1555213.42753168
8	22	0	0	90	36.1581920903955	36.241610738255	25	0.833390500163659	2	3	2	NaN	1	3	0.0380890645878151	1	1	NaN	128	3	2	1	121	221	321	NaN	521	0.010459722019732	1	1	NaN	1555214.6445106	NaN	1555215.6280566	1555216.14448118
8	22	0	0	90	36.1581920903955	36.241610738255	15	0.500034300098196	2	4	2	NaN	1	5	0.0380890645878151	1	1	NaN	129	3	3	1	121	221	321	NaN	521	0.659982974408194	1	1	NaN	1555217.4281228	NaN	1555218.4115303	1555218.92808003
8	22	0	0	90	36.1581920903955	36.241610738255	10	0.333356200065464	2	3	2	NaN	1	3	0.0380890645878151	1	1	NaN	130	3	4	1	121	221	321	NaN	521	0.0104378645773977	2	0	NaN	1555220.4117582	NaN	1555221.3951886	1555221.91169564
8	22	0	0	90	36.1581920903955	36.241610738255	19	0.633376780124381	2	1	1	NaN	1	5	0.0380890645878151	1	1	NaN	131	3	5	1	121	221	321	NaN	521	0.471634916961193	1	1	NaN	1555222.7286669	NaN	1555223.7120645	1555224.22860258
8	22	0	0	90	36.1581920903955	36.241610738255	25	0.833390500163659	2	7	6	NaN	2	3	0.0380890645878151	1	1	NaN	132	3	6	1	121	221	321	NaN	521	0.145828579785302	1	0	NaN	1555225.862323	NaN	1555226.8457172	1555227.36224152
8	22	0	0	90	36.1581920903955	36.241610738255	0	0	1	4	5	NaN	1	4	0.0380890645878151	1	1	NaN	133	3	7	1	111	211	311	NaN	511	0.318252274533734	1	1	NaN	1555228.7458903	NaN	1555229.7291951	1555230.24589093
8	22	0	0	90	36.1581920903955	36.241610738255	10	0.333356200065464	2	6	4	NaN	1	5	0.0380890645878151	1	1	NaN	134	3	8	1	121	221	321	NaN	521	0.260521669406444	1	1	NaN	1555231.3795157	NaN	1555232.3629063	1555232.87944773
8	22	0	0	90	36.1581920903955	36.241610738255	13	0.433363060085103	2	8	6	NaN	2	4	0.0380890645878151	1	1	NaN	135	3	9	1	121	221	321	NaN	521	0.0104583222419024	1	0	NaN	1555233.9631016	NaN	1555234.946474	1555235.46303788
8	22	0	0	90	36.1581920903955	36.241610738255	0	0	1	2	1	NaN	1	4	0.0380890645878151	1	1	NaN	136	3	10	1	111	211	311	NaN	511	0.0104114694986492	1	1	NaN	1555236.296649	NaN	1555237.2800401	1555237.79659113
8	22	0	0	90	36.1581920903955	36.241610738255	18	0.600041160117835	2	9	2	NaN	2	5	0.0380890645878151	1	1	NaN	137	3	11	1	121	221	321	NaN	521	0.0104028221685439	1	0	NaN	1555238.6302034	NaN	1555239.6136222	1555240.13015818
8	22	0	0	90	36.1581920903955	36.241610738255	25	0.833390500163659	2	12	3	NaN	2	5	0.0380890645878151	1	1	NaN	138	3	12	1	121	221	321	NaN	521	0.104222869500518	1	0	NaN	1555241.4637897	NaN	1555242.4472491	1555242.96376993
8	22	0	0	90	36.1581920903955	36.241610738255	24	0.800054880157113	2	2	6	NaN	1	3	0.0380890645878151	1	1	NaN	139	3	13	1	121	221	321	NaN	521	0.311792022082955	1	1	NaN	1555244.2639824	NaN	1555245.2474941	1555245.76404608
8	22	0	0	90	36.1581920903955	36.241610738255	18	0.600041160117835	2	11	5	NaN	2	3	0.0380890645878151	1	1	NaN	140	3	14	1	121	221	321	NaN	521	0.0104572696145624	1	0	NaN	1555247.7477899	NaN	1555248.7311983	1555249.24771553
8	22	0	0	90	36.1581920903955	36.241610738255	20	0.666712400130928	2	5	1	NaN	1	5	0.0380890645878151	1	1	NaN	141	3	15	1	121	221	321	NaN	521	0.0245532796252519	1	1	NaN	1555250.4313698	NaN	1555251.4147864	1555251.93132722
8	22	0	0	90	36.1581920903955	36.241610738255	19	0.633376780124381	2	6	5	NaN	1	4	0.0380890645878151	1	1	NaN	142	3	16	1	121	221	321	NaN	521	0.275396916782483	1	1	NaN	1555253.148262	NaN	1555254.131717	1555254.64824408
8	22	0	0	90	36.1581920903955	36.241610738255	11	0.36669182007201	2	6	5	NaN	1	3	0.0380890645878151	1	1	NaN	143	3	17	1	121	221	321	NaN	521	0.316070616710931	1	1	NaN	1555255.7318854	NaN	1555256.7152907	1555257.23182958
8	22	0	0	90	36.1581920903955	36.241610738255	9	0.300020580058917	2	8	4	NaN	2	5	0.0380890645878151	1	1	NaN	144	3	18	1	121	221	321	NaN	521	0.241640922147781	1	0	NaN	1555258.3821551	NaN	1555259.3655662	1555259.88209238
8	22	0	0	90	36.1581920903955	36.241610738255	17	0.566705540111288	2	3	2	NaN	1	4	0.0380890645878151	1	1	NaN	145	3	19	1	121	221	321	NaN	521	0.0825459694024175	1	1	NaN	1555260.9489471	NaN	1555261.9324795	1555262.44901733
8	22	0	0	90	36.1581920903955	36.241610738255	11	0.36669182007201	2	10	5	NaN	2	4	0.0380890645878151	1	1	NaN	146	3	20	1	121	221	321	NaN	521	0.442946969531476	1	0	NaN	1555263.3493558	NaN	1555264.3327045	1555264.84924773
8	22	0	0	90	36.1581920903955	36.241610738255	25	0.833390500163659	2	12	4	NaN	2	3	0.0380890645878151	1	1	NaN	147	3	21	1	121	221	321	NaN	521	0.332073889905587	1	0	NaN	1555266.1161341	NaN	1555267.0996484	1555267.61620171
8	22	0	0	90	36.1581920903955	36.241610738255	20	0.666712400130928	2	6	1	NaN	1	5	0.0380890645878151	1	1	NaN	148	3	22	1	121	221	321	NaN	521	0.601824569515884	2	0	NaN	1555268.7665173	NaN	1555269.7498759	1555270.26647843
8	22	0	0	90	36.1581920903955	36.241610738255	20	0.666712400130928	2	5	2	NaN	1	5	0.0380890645878151	1	1	NaN	149	3	23	1	121	221	321	NaN	521	0.369463042356074	2	0	NaN	1555272.1668343	NaN	1555273.1502518	1555273.66679036
8	22	0	0	90	36.1581920903955	36.241610738255	8	0.266684960052371	2	7	6	NaN	2	3	0.0380890645878151	1	1	NaN	150	3	24	1	121	221	321	NaN	521	0.38194982195273	1	0	NaN	1555275.2504314	NaN	1555276.2338461	1555276.75042468
8	22	0	0	90	36.1581920903955	36.241610738255	22	0.73338364014402	2	9	2	NaN	2	4	0.0380890645878151	1	1	NaN	151	3	25	1	121	221	321	NaN	521	0.473641622113064	2	1	NaN	1555277.9507308	NaN	1555278.9341214	1555279.45067998
8	22	0	0	90	36.1581920903955	36.241610738255	14	0.466698680091649	2	5	4	NaN	1	5	0.0380890645878151	1	1	NaN	152	3	26	1	121	221	321	NaN	521	0.0104921169113368	1	1	NaN	1555280.7510098	NaN	1555281.7344224	1555282.25095768
8	22	0	0	90	36.1581920903955	36.241610738255	12	0.400027440078557	2	3	3	NaN	1	5	0.0380890645878151	1	1	NaN	153	3	27	1	121	221	321	NaN	521	0.379732722183689	2	0	NaN	1555283.0845678	NaN	1555284.0679833	1555284.58451728
8	22	0	0	90	36.1581920903955	36.241610738255	8	0.266684960052371	2	5	1	NaN	1	4	0.0380890645878151	1	1	NaN	154	3	28	1	121	221	321	NaN	521	0.263058569515124	2	0	NaN	1555285.7848411	NaN	1555286.7682549	1555287.28479753
8	22	0	0	90	36.1581920903955	36.241610738255	15	0.500034300098196	2	9	5	NaN	2	5	0.0380890645878151	1	1	NaN	155	3	29	1	121	221	321	NaN	521	0.375500211957842	2	1	NaN	1555288.3685467	NaN	1555289.3518627	1555289.86839329
8	22	0	0	90	36.1581920903955	36.241610738255	10	0.333356200065464	2	2	5	NaN	1	3	0.0380890645878151	1	1	NaN	156	3	30	1	121	221	321	NaN	521	0.459594122134149	2	0	NaN	1555291.0687431	NaN	1555292.0520918	1555292.56865918
8	22	0	0	90	36.1581920903955	36.241610738255	18	0.600041160117835	2	10	5	NaN	2	4	0.0380890645878151	1	1	NaN	157	3	31	1	121	221	321	NaN	521	0.48301022220403	1	0	NaN	1555293.8689654	NaN	1555294.8523804	1555295.36892228
8	22	0	0	90	36.1581920903955	36.241610738255	8	0.266684960052371	2	1	4	NaN	1	3	0.0380890645878151	1	1	NaN	158	3	32	1	121	221	321	NaN	521	0.451030474388972	1	1	NaN	1555296.6692493	NaN	1555297.6526428	1555298.16919153
8	22	0	0	90	36.1581920903955	36.241610738255	17	0.566705540111288	2	1	6	NaN	1	5	0.0380890645878151	1	1	NaN	159	3	33	1	121	221	321	NaN	521	0.2616339745	1	1	NaN	1555299.7861943	NaN	1555300.7696091	1555301.28618283
8	22	0	0	90	36.1581920903955	36.241610738255	23	0.766719260150567	2	5	6	NaN	1	5	0.0380890645878151	1	1	NaN	160	3	34	1	121	221	321	NaN	521	0.312427874421701	1	1	NaN	1555302.7197212	NaN	1555303.7032463	1555304.21978063
8	22	0	0	90	36.1581920903955	36.241610738255	8	0.266684960052371	2	3	3	NaN	1	4	0.0380890645878151	1	1	NaN	161	3	35	1	121	221	321	NaN	521	0.296877622138709	1	1	NaN	1555305.6867783	NaN	1555306.6702032	1555307.18674488
8	22	0	0	90	36.1581920903955	36.241610738255	24	0.800054880157113	2	4	5	NaN	1	4	0.0380890645878151	1	1	NaN	162	3	36	1	121	221	321	NaN	521	0.283305101562291	2	0	NaN	1555308.6370922	NaN	1555309.6204975	1555310.1370262
8	22	0	0	90	36.1581920903955	36.241610738255	7	0.233349340045825	2	6	4	NaN	1	5	0.0380890645878151	1	1	NaN	163	3	37	1	121	221	321	NaN	521	0.42283572209999	1	1	NaN	1555312.3374177	NaN	1555313.3208596	1555313.83740058
8	22	0	0	90	36.1581920903955	36.241610738255	11	0.36669182007201	2	1	2	NaN	1	5	0.0380890645878151	1	1	NaN	164	3	38	1	121	221	321	NaN	521	0.416228937217966	2	0	NaN	1555315.0877477	NaN	1555316.0711198	1555316.58767026
8	22	0	0	90	36.1581920903955	36.241610738255	13	0.433363060085103	2	9	4	NaN	2	3	0.0380890645878151	1	1	NaN	165	3	39	1	121	221	321	NaN	521	0.0420208845753223	1	0	NaN	1555317.8379883	NaN	1555318.8214788	1555319.33793342
8	22	0	0	90	36.1581920903955	36.241610738255	14	0.466698680091649	2	9	3	NaN	2	5	0.0380890645878151	1	1	NaN	166	3	40	1	121	221	321	NaN	521	0.427140774670988	1	0	NaN	1555320.2048939	NaN	1555321.1883057	1555321.70483663
8	22	0	0	90	36.1581920903955	36.241610738255	0	0	1	7	1	NaN	2	3	0.0380890645878151	1	1	NaN	167	3	41	1	111	211	311	NaN	511	0.0690121168736368	1	0	NaN	1555322.9551595	NaN	1555323.9385558	1555324.45511068
8	22	0	0	90	36.1581920903955	36.241610738255	0	0	1	6	1	NaN	1	5	0.0380890645878151	1	1	NaN	168	3	42	1	111	211	311	NaN	511	0.0103947222232819	2	0	NaN	1555325.3387509	NaN	1555326.3221231	1555326.83867158
8	22	0	0	90	36.1581920903955	36.241610738255	24	0.800054880157113	2	10	5	NaN	2	5	0.0380890645878151	1	1	NaN	169	3	43	1	121	221	321	NaN	521	0.20818756474182	1	0	NaN	1555327.6722784	NaN	1555328.6557009	1555329.17222454
8	22	0	0	90	36.1581920903955	36.241610738255	7	0.233349340045825	2	10	1	NaN	2	5	0.0380890645878151	1	1	NaN	170	3	44	1	121	221	321	NaN	521	0.711478016804904	2	1	NaN	1555330.4725302	NaN	1555331.4559717	1555331.97250698
8	22	0	0	90	36.1581920903955	36.241610738255	24	0.800054880157113	2	7	4	NaN	2	4	0.0380890645878151	1	1	NaN	171	3	45	1	121	221	321	NaN	521	0.0916216694749892	1	0	NaN	1555334.3563173	NaN	1555335.3396857	1555335.85622153
8	22	0	0	90	36.1581920903955	36.241610738255	12	0.400027440078557	2	7	6	NaN	2	4	0.0380890645878151	1	1	NaN	172	3	46	1	121	221	321	NaN	521	0.0414159896317869	1	0	NaN	1555337.8067708	NaN	1555338.7900123	1555339.30656051
8	22	0	0	90	36.1581920903955	36.241610738255	7	0.233349340045825	2	4	5	NaN	1	5	0.0380890645878151	1	1	NaN	173	3	47	1	121	221	321	NaN	521	0.130510322051123	2	0	NaN	1555340.1735078	NaN	1555341.1570048	1555341.67345978
8	22	0	0	90	36.1581920903955	36.241610738255	16	0.533369920104742	2	7	3	NaN	2	3	0.0380890645878151	1	1	NaN	174	3	48	1	121	221	321	NaN	521	0.280342174693942	1	0	NaN	1555342.6237472	NaN	1555343.6072011	1555344.12370133
8	22	0	0	90	36.1581920903955	36.241610738255	19	0.633376780124381	2	8	1	NaN	2	5	0.0380890645878151	1	1	NaN	175	3	49	1	121	221	321	NaN	521	0.264284316916019	1	0	NaN	1555345.2238754	NaN	1555346.207423	1555346.72395468
8	22	0	0	90	36.1581920903955	36.241610738255	11	0.36669182007201	2	12	4	NaN	2	5	0.0380890645878151	1	1	NaN	176	3	50	1	121	221	321	NaN	521	0.89963386952877	2	1	NaN	1555348.5243006	NaN	1555349.5077519	1555350.02427373
8	22	0	0	90	36.1581920903955	36.241610738255	7	0.233349340045825	2	10	3	NaN	2	3	0.0380890645878151	1	1	NaN	177	3	51	1	121	221	321	NaN	521	0.339735064655542	1	0	NaN	1555352.1246358	NaN	1555353.1080927	1555353.62462194
8	22	0	0	90	36.1581920903955	36.241610738255	17	0.566705540111288	2	4	1	NaN	1	4	0.0380890645878151	1	1	NaN	178	3	52	1	121	221	321	NaN	521	0.309403169434518	1	1	NaN	1555354.8749576	NaN	1555355.858344	1555356.37491883
8	22	0	0	90	36.1581920903955	36.241610738255	14	0.466698680091649	2	8	6	NaN	2	4	0.0380890645878151	1	1	NaN	179	3	53	1	121	221	321	NaN	521	0.222234716871753	1	0	NaN	1555357.8418791	NaN	1555358.8252918	1555359.34186108
8	22	0	0	90	36.1581920903955	36.241610738255	6	0.200013720039278	2	2	6	NaN	1	5	0.0380890645878151	1	1	NaN	180	3	54	1	121	221	321	NaN	521	0.0105305695906281	1	1	NaN	1555360.3922253	NaN	1555361.3756277	1555361.89212603
8	22	0	0	90	36.1581920903955	36.241610738255	14	0.466698680091649	2	10	2	NaN	2	4	0.0380890645878151	1	1	NaN	181	3	55	1	121	221	321	NaN	521	0.0104566118679941	1	0	NaN	1555362.725719	NaN	1555363.7091635	1555364.22566209
8	22	0	0	90	36.1581920903955	36.241610738255	12	0.400027440078557	2	2	5	NaN	1	5	0.0380890645878151	1	1	NaN	182	3	56	1	121	221	321	NaN	521	0.236738169332966	2	0	NaN	1555365.0591501	NaN	1555366.0426866	1555366.55923623
8	22	0	0	90	36.1581920903955	36.241610738255	8	0.266684960052371	2	8	2	NaN	2	3	0.0380890645878151	1	1	NaN	183	3	57	1	121	221	321	NaN	521	0.486360474489629	1	0	NaN	1555367.6095362	NaN	1555368.5929255	1555369.10950663
8	22	0	0	90	36.1581920903955	36.241610738255	22	0.73338364014402	2	2	2	NaN	1	3	0.0380890645878151	1	1	NaN	184	3	58	1	121	221	321	NaN	521	0.350126422243193	2	0	NaN	1555370.4098369	NaN	1555371.3932276	1555371.90976418
8	22	0	0	90	36.1581920903955	36.241610738255	9	0.300020580058917	2	2	2	NaN	1	4	0.0380890645878151	1	1	NaN	185	3	59	1	121	221	321	NaN	521	0.659059921978042	2	0	NaN	1555373.0934031	NaN	1555374.0768214	1555374.59336078
8	22	0	0	90	36.1581920903955	36.241610738255	25	0.833390500163659	2	7	2	NaN	2	3	0.0380890645878151	1	1	NaN	186	3	60	1	121	221	321	NaN	521	0.834077979670838	2	1	NaN	1555376.0936898	NaN	1555377.0771165	1555377.59365742
8	22	0	0	90	36.1581920903955	36.241610738255	22	0.73338364014402	2	11	5	NaN	2	5	0.0380890645878151	1	1	NaN	187	3	61	1	121	221	321	NaN	521	0.452513537369668	1	0	NaN	1555379.2440053	NaN	1555380.2274048	1555380.74396836
8	22	0	0	90	36.1581920903955	36.241610738255	23	0.766719260150567	2	6	6	NaN	1	5	0.0380890645878151	1	1	NaN	188	3	62	1	121	221	321	NaN	521	0.293194422265515	2	0	NaN	1555382.4109902	NaN	1555383.3944046	1555383.91093788
8	22	0	0	90	36.1581920903955	36.241610738255	25	0.833390500163659	2	11	1	NaN	2	4	0.0380890645878151	1	1	NaN	189	3	63	1	121	221	321	NaN	521	0.326684522209689	1	0	NaN	1555385.3612682	NaN	1555386.3446717	1555386.86122918
8	22	0	0	90	36.1581920903955	36.241610738255	25	0.833390500163659	2	9	2	NaN	2	3	0.0380890645878151	1	1	NaN	190	4	1	1	121	221	321	NaN	521	0.343103022081777	1	0	NaN	1555395.128888	NaN	1555396.1123258	1555396.62886258
8	22	0	0	90	36.1581920903955	36.241610738255	21	0.700048020137474	2	6	1	NaN	1	4	0.0380890645878151	1	1	NaN	191	4	2	1	121	221	321	NaN	521	0.0103750745765865	2	0	NaN	1555397.7958784	NaN	1555398.7792599	1555399.29578013
8	22	0	0	90	36.1581920903955	36.241610738255	19	0.633376780124381	2	7	5	NaN	2	4	0.0380890645878151	1	1	NaN	192	4	3	1	121	221	321	NaN	521	0.263179527129978	1	0	NaN	1555400.1292747	NaN	1555401.112802	1555401.62934187
8	22	0	0	90	36.1581920903955	36.241610738255	15	0.500034300098196	2	10	5	NaN	2	4	0.0380890645878151	1	1	NaN	193	4	4	1	121	221	321	NaN	521	0.415264064446092	1	0	NaN	1555402.7129651	NaN	1555403.6964127	1555404.21293524
8	22	0	0	90	36.1581920903955	36.241610738255	9	0.300020580058917	2	12	6	NaN	2	5	0.0380890645878151	1	1	NaN	194	4	5	1	121	221	321	NaN	521	0.369651422137395	1	0	NaN	1555405.4465844	NaN	1555406.4299799	1555406.94652668
8	22	0	0	90	36.1581920903955	36.241610738255	8	0.266684960052371	2	2	5	NaN	1	3	0.0380890645878151	1	1	NaN	195	4	6	1	121	221	321	NaN	521	0.261770822107792	2	0	NaN	1555408.1468614	NaN	1555409.1302769	1555409.64680388
8	22	0	0	90	36.1581920903955	36.241610738255	21	0.700048020137474	2	11	5	NaN	2	4	0.0380890645878151	1	1	NaN	196	4	7	1	121	221	321	NaN	521	0.261820321902633	1	0	NaN	1555410.7304357	NaN	1555411.7138317	1555412.23038258
8	22	0	0	90	36.1581920903955	36.241610738255	20	0.666712400130928	2	7	3	NaN	2	3	0.0380890645878151	1	1	NaN	197	4	8	1	121	221	321	NaN	521	0.264182711718604	1	0	NaN	1555413.6641151	NaN	1555414.6474601	1555415.16400789
8	22	0	0	90	36.1581920903955	36.241610738255	24	0.800054880157113	2	11	1	NaN	2	4	0.0380890645878151	1	1	NaN	198	4	9	1	121	221	321	NaN	521	0.336537322029471	1	0	NaN	1555416.247629	NaN	1555417.2310349	1555417.74758978
8	22	0	0	90	36.1581920903955	36.241610738255	13	0.433363060085103	2	2	6	NaN	1	5	0.0380890645878151	1	1	NaN	199	4	10	1	121	221	321	NaN	521	0.302134817000479	2	0	NaN	1555418.8979365	NaN	1555419.8813147	1555420.39784598
8	22	0	0	90	36.1581920903955	36.241610738255	10	0.333356200065464	2	11	5	NaN	2	3	0.0380890645878151	1	1	NaN	200	4	11	1	121	221	321	NaN	521	0.332101489882916	1	0	NaN	1555421.7480627	NaN	1555422.7315891	1555423.24813991
8	22	0	0	90	36.1581920903955	36.241610738255	19	0.633376780124381	2	10	2	NaN	2	5	0.0380890645878151	1	1	NaN	201	4	12	1	121	221	321	NaN	521	0.441730627091601	1	0	NaN	1555424.3984437	NaN	1555425.3818898	1555425.89838697
8	22	0	0	90	36.1581920903955	36.241610738255	13	0.433363060085103	2	12	2	NaN	2	5	0.0380890645878151	1	1	NaN	202	4	13	1	121	221	321	NaN	521	0.259079521987587	1	0	NaN	1555427.1653867	NaN	1555428.1487827	1555428.66532968
8	22	0	0	90	36.1581920903955	36.241610738255	15	0.500034300098196	2	6	4	NaN	1	4	0.0380890645878151	1	1	NaN	203	4	14	1	121	221	321	NaN	521	0.579069100087509	1	1	NaN	1555429.7489667	NaN	1555430.7323775	1555431.2489301
8	22	0	0	90	36.1581920903955	36.241610738255	17	0.566705540111288	2	6	5	NaN	1	5	0.0380890645878151	1	1	NaN	204	4	15	1	121	221	321	NaN	521	0.406946216709912	1	1	NaN	1555432.6492298	NaN	1555433.6326746	1555434.14919948
8	22	0	0	90	36.1581920903955	36.241610738255	18	0.600041160117835	2	11	6	NaN	2	3	0.0380890645878151	1	1	NaN	205	4	16	1	121	221	321	NaN	521	0.361307442188263	2	1	NaN	1555435.3828857	NaN	1555436.3662359	1555436.88280776
8	22	0	0	90	36.1581920903955	36.241610738255	11	0.36669182007201	2	3	2	NaN	1	5	0.0380890645878151	1	1	NaN	206	4	17	1	121	221	321	NaN	521	0.254117822274566	1	1	NaN	1555438.0664759	NaN	1555439.049869	1555439.56640098
8	22	0	0	90	36.1581920903955	36.241610738255	6	0.200013720039278	2	6	6	NaN	1	3	0.0380890645878151	1	1	NaN	207	4	18	1	121	221	321	NaN	521	0.306423669448122	2	0	NaN	1555440.9499436	NaN	1555441.9334687	1555442.45002253
8	22	0	0	90	36.1581920903955	36.241610738255	0	0	1	5	2	NaN	1	4	0.0380890645878151	1	1	NaN	208	4	19	1	111	211	311	NaN	511	0.318155416985974	1	1	NaN	1555443.6503044	NaN	1555444.6337762	1555445.15028028
8	22	0	0	90	36.1581920903955	36.241610738255	7	0.233349340045825	2	7	4	NaN	2	3	0.0380890645878151	1	1	NaN	209	4	20	1	121	221	321	NaN	521	0.492391669657081	1	0	NaN	1555446.2839109	NaN	1555447.2673315	1555447.78386283
8	22	0	0	90	36.1581920903955	36.241610738255	23	0.766719260150567	2	2	6	NaN	1	3	0.0380890645878151	1	1	NaN	210	4	21	1	121	221	321	NaN	521	0.387633822159842	1	1	NaN	1555449.1008661	NaN	1555450.0842788	1555450.60081568
8	22	0	0	90	36.1581920903955	36.241610738255	9	0.300020580058917	2	1	4	NaN	1	3	0.0380890645878151	1	1	NaN	211	4	22	1	121	221	321	NaN	521	0.368013969389722	1	1	NaN	1555451.9844617	NaN	1555452.9679052	1555453.48443353
8	22	0	0	90	36.1581920903955	36.241610738255	14	0.466698680091649	2	11	4	NaN	2	3	0.0380890645878151	1	1	NaN	212	4	23	1	121	221	321	NaN	521	0.356094584567472	1	0	NaN	1555454.6681022	NaN	1555455.6514457	1555456.16803592
8	22	0	0	90	36.1581920903955	36.241610738255	22	0.73338364014402	2	3	1	NaN	1	5	0.0380890645878151	1	1	NaN	213	4	24	1	121	221	321	NaN	521	0.304469037335366	2	0	NaN	1555457.351673	NaN	1555458.3351072	1555458.85163106
8	22	0	0	90	36.1581920903955	36.241610738255	10	0.333356200065464	2	2	2	NaN	1	4	0.0380890645878151	1	1	NaN	214	4	25	1	121	221	321	NaN	521	0.474168027285486	2	0	NaN	1555460.7019247	NaN	1555461.6854313	1555462.20195647
8	22	0	0	90	36.1581920903955	36.241610738255	22	0.73338364014402	2	4	6	NaN	1	3	0.0380890645878151	1	1	NaN	215	4	26	1	121	221	321	NaN	521	0.479181611910462	1	1	NaN	1555463.7690148	NaN	1555464.7523795	1555465.26892259
8	22	0	0	90	36.1581920903955	36.241610738255	13	0.433363060085103	2	11	5	NaN	2	5	0.0380890645878151	1	1	NaN	216	4	27	1	121	221	321	NaN	521	0.398881111992523	1	0	NaN	1555466.5691262	NaN	1555467.5526607	1555468.06918599
8	22	0	0	90	36.1581920903955	36.241610738255	14	0.466698680091649	2	4	3	NaN	1	4	0.0380890645878151	1	1	NaN	217	4	28	1	121	221	321	NaN	521	0.258112069452181	2	0	NaN	1555469.2861692	NaN	1555470.2696506	1555470.78611953
8	22	0	0	90	36.1581920903955	36.241610738255	8	0.266684960052371	2	1	5	NaN	1	4	0.0380890645878151	1	1	NaN	218	4	29	1	121	221	321	NaN	521	0.250602564541623	2	0	NaN	1555471.8696306	NaN	1555472.8531966	1555473.36970734
8	22	0	0	90	36.1581920903955	36.241610738255	7	0.233349340045825	2	1	3	NaN	1	3	0.0380890645878151	1	1	NaN	219	4	30	1	121	221	321	NaN	521	0.203572074417025	1	1	NaN	1555474.4367035	NaN	1555475.4201175	1555475.93664153
8	22	0	0	90	36.1581920903955	36.241610738255	19	0.633376780124381	2	4	4	NaN	1	5	0.0380890645878151	1	1	NaN	220	4	31	1	121	221	321	NaN	521	0.350306411972269	2	0	NaN	1555476.9702848	NaN	1555477.953664	1555478.47021319
8	22	0	0	90	36.1581920903955	36.241610738255	17	0.566705540111288	2	1	4	NaN	1	4	0.0380890645878151	1	1	NaN	221	4	32	1	121	221	321	NaN	521	0.475194769678637	1	1	NaN	1555479.637224	NaN	1555480.6205914	1555481.13713773
8	22	0	0	90	36.1581920903955	36.241610738255	6	0.200013720039278	2	1	2	NaN	1	5	0.0380890645878151	1	1	NaN	222	4	33	1	121	221	321	NaN	521	0.314835869474337	1	1	NaN	1555482.4374806	NaN	1555483.4208831	1555483.93741403
8	22	0	0	90	36.1581920903955	36.241610738255	15	0.500034300098196	2	7	2	NaN	2	5	0.0380890645878151	1	1	NaN	223	4	34	1	121	221	321	NaN	521	0.304402969544753	1	0	NaN	1555485.0877407	NaN	1555486.071118	1555486.58767973
8	22	0	0	90	36.1581920903955	36.241610738255	18	0.600041160117835	2	8	3	NaN	2	3	0.0380890645878151	1	1	NaN	224	4	35	1	121	221	321	NaN	521	0.319260137388483	2	1	NaN	1555487.7213473	NaN	1555488.7048099	1555489.22127116
8	22	0	0	90	36.1581920903955	36.241610738255	22	0.73338364014402	2	7	2	NaN	2	5	0.0380890645878151	1	1	NaN	225	4	36	1	121	221	321	NaN	521	0.35059016966261	1	0	NaN	1555490.7216082	NaN	1555491.7050123	1555492.22156913
8	22	0	0	90	36.1581920903955	36.241610738255	19	0.633376780124381	2	6	4	NaN	1	3	0.0380890645878151	1	1	NaN	226	4	37	1	121	221	321	NaN	521	0.170924469595775	1	1	NaN	1555494.0051303	NaN	1555494.9887032	1555495.50521703
8	22	0	0	90	36.1581920903955	36.241610738255	23	0.766719260150567	2	10	2	NaN	2	3	0.0380890645878151	1	1	NaN	227	4	38	1	121	221	321	NaN	521	0.238529022084549	1	0	NaN	1555496.5055017	NaN	1555497.4889212	1555498.00546848
8	22	0	0	90	36.1581920903955	36.241610738255	7	0.233349340045825	2	11	6	NaN	2	4	0.0380890645878151	1	1	NaN	228	4	39	1	121	221	321	NaN	521	0.274981522234157	1	0	NaN	1555499.4057842	NaN	1555500.3892257	1555500.90575058
8	22	0	0	90	36.1581920903955	36.241610738255	6	0.200013720039278	2	4	6	NaN	1	4	0.0380890645878151	1	1	NaN	229	4	40	1	121	221	321	NaN	521	0.343570769531652	2	0	NaN	1555502.2727216	NaN	1555503.2561808	1555503.77270613
8	22	0	0	90	36.1581920903955	36.241610738255	11	0.36669182007201	2	11	6	NaN	2	3	0.0380890645878151	1	1	NaN	230	4	41	1	121	221	321	NaN	521	0.244554669363424	1	0	NaN	1555504.9396873	NaN	1555505.9230917	1555506.43962853
8	22	0	0	90	36.1581920903955	36.241610738255	6	0.200013720039278	2	9	1	NaN	2	4	0.0380890645878151	1	1	NaN	231	4	42	1	121	221	321	NaN	521	0.302022116957232	1	0	NaN	1555507.506648	NaN	1555508.4900229	1555509.00654208
8	22	0	0	90	36.1581920903955	36.241610738255	19	0.633376780124381	2	11	4	NaN	2	3	0.0380890645878151	1	1	NaN	232	4	43	1	121	221	321	NaN	521	0.291031522210687	1	0	NaN	1555510.3735349	NaN	1555511.3569466	1555511.87348888
8	22	0	0	90	36.1581920903955	36.241610738255	20	0.666712400130928	2	4	4	NaN	1	5	0.0380890645878151	1	1	NaN	233	4	44	1	121	221	321	NaN	521	0.38650572206825	1	1	NaN	1555512.9736647	NaN	1555513.9572457	1555514.47375448
8	22	0	0	90	36.1581920903955	36.241610738255	14	0.466698680091649	2	12	2	NaN	2	5	0.0380890645878151	1	1	NaN	234	4	45	1	121	221	321	NaN	521	0.318585837492719	1	0	NaN	1555515.6740789	NaN	1555516.6574666	1555517.17402056
8	22	0	0	90	36.1581920903955	36.241610738255	24	0.800054880157113	2	4	4	NaN	1	5	0.0380890645878151	1	1	NaN	235	4	46	1	121	221	321	NaN	521	0.0103540897835046	1	1	NaN	1555518.8076865	NaN	1555519.791112	1555520.30766441
8	22	0	0	90	36.1581920903955	36.241610738255	19	0.633376780124381	2	4	5	NaN	1	4	0.0380890645878151	1	1	NaN	236	4	47	1	121	221	321	NaN	521	0.411088469438255	1	1	NaN	1555521.141228	NaN	1555522.1246697	1555522.64121553
8	22	0	0	90	36.1581920903955	36.241610738255	0	0	1	7	6	NaN	2	4	0.0380890645878151	1	1	NaN	237	4	48	1	111	211	311	NaN	511	0.0104077695868909	1	0	NaN	1555524.3748953	NaN	1555525.3583408	1555525.87486033
8	22	0	0	90	36.1581920903955	36.241610738255	18	0.600041160117835	2	3	4	NaN	1	3	0.0380890645878151	1	1	NaN	238	4	49	1	121	221	321	NaN	521	0.428209664532915	1	1	NaN	1555526.7084928	NaN	1555527.6918885	1555528.20842224
8	22	0	0	90	36.1581920903955	36.241610738255	14	0.466698680091649	2	7	4	NaN	2	4	0.0380890645878151	1	1	NaN	239	4	50	1	121	221	321	NaN	521	0.0376000220421702	1	0	NaN	1555529.4587586	NaN	1555530.4421474	1555530.95870548
8	22	0	0	90	36.1581920903955	36.241610738255	9	0.300020580058917	2	7	4	NaN	2	3	0.0380890645878151	1	1	NaN	240	4	51	1	121	221	321	NaN	521	0.0147699220106006	1	0	NaN	1555531.8256511	NaN	1555532.8090531	1555533.32560248
8	22	0	0	90	36.1581920903955	36.241610738255	9	0.300020580058917	2	9	4	NaN	2	3	0.0380890645878151	1	1	NaN	241	4	52	1	121	221	321	NaN	521	0.241110384929925	1	0	NaN	1555534.1592119	NaN	1555535.1426271	1555535.65917192
8	22	0	0	90	36.1581920903955	36.241610738255	20	0.666712400130928	2	11	2	NaN	2	4	0.0380890645878151	1	1	NaN	242	4	53	1	121	221	321	NaN	521	0.450420979876071	1	0	NaN	1555536.7260045	NaN	1555537.7095269	1555538.22608202
8	22	0	0	90	36.1581920903955	36.241610738255	15	0.500034300098196	2	7	1	NaN	2	5	0.0380890645878151	1	1	NaN	243	4	54	1	121	221	321	NaN	521	0.442431316943839	1	0	NaN	1555539.5097547	NaN	1555540.4931483	1555541.00968258
8	22	0	0	90	36.1581920903955	36.241610738255	19	0.633376780124381	2	3	3	NaN	1	5	0.0380890645878151	1	1	NaN	244	4	55	1	121	221	321	NaN	521	0.267759022070095	1	1	NaN	1555542.2767015	NaN	1555543.2600823	1555543.77662468
8	22	0	0	90	36.1581920903955	36.241610738255	17	0.566705540111288	2	11	5	NaN	2	5	0.0380890645878151	1	1	NaN	245	4	56	1	121	221	321	NaN	521	0.34177711699158	1	0	NaN	1555545.2268466	NaN	1555546.2103778	1555546.72690948
8	22	0	0	90	36.1581920903955	36.241610738255	11	0.36669182007201	2	5	3	NaN	1	4	0.0380890645878151	1	1	NaN	246	4	57	1	121	221	321	NaN	521	0.618905242299661	1	1	NaN	1555547.8939021	NaN	1555548.8772841	1555549.39385426
8	22	0	0	90	36.1581920903955	36.241610738255	24	0.800054880157113	2	9	6	NaN	2	5	0.0380890645878151	1	1	NaN	247	4	58	1	121	221	321	NaN	521	0.323872537352145	2	1	NaN	1555551.2608795	NaN	1555552.2442879	1555552.76084136
8	22	0	0	90	36.1581920903955	36.241610738255	11	0.36669182007201	2	8	6	NaN	2	5	0.0380890645878151	1	1	NaN	248	4	59	1	121	221	321	NaN	521	0.326791444094852	2	1	NaN	1555554.1778526	NaN	1555555.1612692	1555555.67778466
8	22	0	0	90	36.1581920903955	36.241610738255	8	0.266684960052371	2	6	5	NaN	1	3	0.0380890645878151	1	1	NaN	249	4	60	1	121	221	321	NaN	521	0.780107816914096	2	0	NaN	1555556.8280954	NaN	1555557.8115121	1555558.32805458
8	22	0	0	90	36.1581920903955	36.241610738255	21	0.700048020137474	2	4	5	NaN	1	4	0.0380890645878151	1	1	NaN	250	4	61	1	121	221	321	NaN	521	0.343927364563569	1	1	NaN	1555559.9284243	NaN	1555560.9118181	1555561.42834794
8	22	0	0	90	36.1581920903955	36.241610738255	19	0.633376780124381	2	8	2	NaN	2	4	0.0380890645878151	1	1	NaN	251	4	62	1	121	221	321	NaN	521	0.269415569491684	1	0	NaN	1555562.5953545	NaN	1555563.5787361	1555564.09528503
8	22	0	0	90	36.1581920903955	36.241610738255	16	0.533369920104742	2	10	4	NaN	2	4	0.0380890645878151	1	1	NaN	252	4	63	1	121	221	321	NaN	521	0.341571721946821	1	0	NaN	1555565.1788972	NaN	1555566.1623306	1555566.67887488
8	22	0	0	90	36.1581920903955	36.241610738255	13	0.433363060085103	2	10	3	NaN	2	4	0.0380890645878151	1	1	NaN	253	5	1	1	121	221	321	NaN	521	0.270734822144732	1	0	NaN	1555572.1294884	NaN	1555573.1131038	1555573.62954738
8	22	0	0	90	36.1581920903955	36.241610738255	23	0.766719260150567	2	2	5	NaN	1	4	0.0380890645878151	1	1	NaN	254	5	2	1	121	221	321	NaN	521	0.203538574511185	1	1	NaN	1555575.2131252	NaN	1555576.1966467	1555576.71319073
8	22	0	0	90	36.1581920903955	36.241610738255	15	0.500034300098196	2	3	2	NaN	1	4	0.0380890645878151	1	1	NaN	255	5	3	1	121	221	321	NaN	521	0.317547716898844	1	1	NaN	1555577.7468523	NaN	1555578.7301	1555579.24677328
8	22	0	0	90	36.1581920903955	36.241610738255	0	0	1	1	1	NaN	1	5	0.0380890645878151	1	1	NaN	256	5	4	1	111	211	311	NaN	511	0.275901116896421	2	0	NaN	1555580.3804091	NaN	1555581.363821	1555581.88037038
8	22	0	0	90	36.1581920903955	36.241610738255	14	0.466698680091649	2	1	4	NaN	1	3	0.0380890645878151	1	1	NaN	257	5	5	1	121	221	321	NaN	521	0.35506432200782	1	1	NaN	1555583.3973426	NaN	1555584.3807737	1555584.89733378
8	22	0	0	90	36.1581920903955	36.241610738255	10	0.333356200065464	2	10	6	NaN	2	5	0.0380890645878151	1	1	NaN	258	5	6	1	121	221	321	NaN	521	0.415793384658173	1	0	NaN	1555586.0810044	NaN	1555587.0643649	1555587.58092062
8	22	0	0	90	36.1581920903955	36.241610738255	9	0.300020580058917	2	4	4	NaN	1	4	0.0380890645878151	1	1	NaN	259	5	7	1	121	221	321	NaN	521	0.297571516828611	2	0	NaN	1555588.8144825	NaN	1555589.7979929	1555590.31452348
8	22	0	0	90	36.1581920903955	36.241610738255	10	0.333356200065464	2	6	1	NaN	1	3	0.0380890645878151	1	1	NaN	260	5	8	1	121	221	321	NaN	521	0.313174569513649	1	1	NaN	1555591.4315607	NaN	1555592.4149338	1555592.93145523
8	22	0	0	90	36.1581920903955	36.241610738255	17	0.566705540111288	2	4	3	NaN	1	4	0.0380890645878151	1	1	NaN	261	5	9	1	121	221	321	NaN	521	0.801260021980852	2	0	NaN	1555594.4150924	NaN	1555595.3985408	1555595.91506798
8	22	0	0	90	36.1581920903955	36.241610738255	10	0.333356200065464	2	11	2	NaN	2	4	0.0380890645878151	1	1	NaN	262	5	10	1	121	221	321	NaN	521	0.396606100024655	1	0	NaN	1555597.9321087	NaN	1555598.9155456	1555599.4320942
8	22	0	0	90	36.1581920903955	36.241610738255	9	0.300020580058917	2	11	4	NaN	2	3	0.0380890645878151	1	1	NaN	263	5	11	1	121	221	321	NaN	521	0.495381427230313	1	0	NaN	1555600.6491026	NaN	1555601.6324826	1555602.14901747
8	22	0	0	90	36.1581920903955	36.241610738255	12	0.400027440078557	2	2	3	NaN	1	5	0.0380890645878151	1	1	NaN	264	5	12	1	121	221	321	NaN	521	0.328803322277963	2	0	NaN	1555603.815922	NaN	1555604.7994535	1555605.31600058
8	22	0	0	90	36.1581920903955	36.241610738255	18	0.600041160117835	2	6	3	NaN	1	3	0.0380890645878151	1	1	NaN	265	5	13	1	121	221	321	NaN	521	0.311729917069897	1	1	NaN	1555606.833012	NaN	1555607.8164038	1555608.33295518
8	22	0	0	90	36.1581920903955	36.241610738255	19	0.633376780124381	2	2	4	NaN	1	5	0.0380890645878151	1	1	NaN	266	5	14	1	121	221	321	NaN	521	0.470101369312033	1	1	NaN	1555609.4665931	NaN	1555610.4500246	1555610.96654413
8	22	0	0	90	36.1581920903955	36.241610738255	20	0.666712400130928	2	8	3	NaN	2	3	0.0380890645878151	1	1	NaN	267	5	15	1	121	221	321	NaN	521	0.338488169480115	1	0	NaN	1555612.5502425	NaN	1555613.5336298	1555614.05018253
8	22	0	0	90	36.1581920903955	36.241610738255	22	0.73338364014402	2	1	1	NaN	1	3	0.0380890645878151	1	1	NaN	268	5	16	1	121	221	321	NaN	521	0.278957169502974	1	1	NaN	1555615.4338501	NaN	1555616.4172539	1555616.93380603
8	22	0	0	90	36.1581920903955	36.241610738255	11	0.36669182007201	2	10	1	NaN	2	3	0.0380890645878151	1	1	NaN	269	5	17	1	121	221	321	NaN	521	0.228678716812283	1	0	NaN	1555618.2841186	NaN	1555619.2675482	1555619.78407568
8	22	0	0	90	36.1581920903955	36.241610738255	6	0.200013720039278	2	6	2	NaN	1	4	0.0380890645878151	1	1	NaN	270	5	18	1	121	221	321	NaN	521	0.333816822152585	2	0	NaN	1555621.2343896	NaN	1555622.2178298	1555622.73437388
8	22	0	0	90	36.1581920903955	36.241610738255	7	0.233349340045825	2	4	6	NaN	1	5	0.0380890645878151	1	1	NaN	271	5	19	1	121	221	321	NaN	521	0.274977122200653	1	1	NaN	1555623.9013542	NaN	1555624.88476	1555625.40129988
8	22	0	0	90	36.1581920903955	36.241610738255	13	0.433363060085103	2	9	4	NaN	2	5	0.0380890645878151	1	1	NaN	272	5	20	1	121	221	321	NaN	521	0.0103954221121967	1	0	NaN	1555626.7849877	NaN	1555627.7683526	1555628.28492368
8	22	0	0	90	36.1581920903955	36.241610738255	13	0.433363060085103	2	3	6	NaN	1	3	0.0380890645878151	1	1	NaN	273	5	21	1	121	221	321	NaN	521	0.647123522125185	1	1	NaN	1555629.1851589	NaN	1555630.1685979	1555630.68515468
8	22	0	0	90	36.1581920903955	36.241610738255	13	0.433363060085103	2	7	5	NaN	2	5	0.0380890645878151	1	1	NaN	274	5	22	1	121	221	321	NaN	521	0.0254970798268914	2	1	NaN	1555632.9189272	NaN	1555633.902301	1555634.41885532
8	22	0	0	90	36.1581920903955	36.241610738255	23	0.766719260150567	2	6	6	NaN	1	5	0.0380890645878151	1	1	NaN	275	5	23	1	121	221	321	NaN	521	0.0104327169246972	1	1	NaN	1555635.269141	NaN	1555636.2525149	1555636.76907378
8	22	0	0	90	36.1581920903955	36.241610738255	23	0.766719260150567	2	11	3	NaN	2	3	0.0380890645878151	1	1	NaN	276	5	24	1	121	221	321	NaN	521	0.437726017087698	2	1	NaN	1555637.6026907	NaN	1555638.5861059	1555639.10265038
8	22	0	0	90	36.1581920903955	36.241610738255	25	0.833390500163659	2	9	1	NaN	2	4	0.0380890645878151	1	1	NaN	277	5	25	1	121	221	321	NaN	521	0.359057422261685	1	0	NaN	1555640.3696427	NaN	1555641.3530557	1555641.86958278
8	22	0	0	90	36.1581920903955	36.241610738255	6	0.200013720039278	2	10	2	NaN	2	4	0.0380890645878151	1	1	NaN	278	5	26	1	121	221	321	NaN	521	0.772818569326773	1	0	NaN	1555643.419928	NaN	1555644.4033557	1555644.91987993
8	22	0	0	90	36.1581920903955	36.241610738255	24	0.800054880157113	2	3	5	NaN	1	3	0.0380890645878151	1	1	NaN	279	5	27	1	121	221	321	NaN	521	0.474168964428827	1	1	NaN	1555646.8702519	NaN	1555647.8536895	1555648.37022304
8	22	0	0	90	36.1581920903955	36.241610738255	0	0	1	4	1	NaN	1	4	0.0380890645878151	1	1	NaN	280	5	28	1	111	211	311	NaN	511	0.249760069651529	2	0	NaN	1555649.6705565	NaN	1555650.6539557	1555651.17048863
8	22	0	0	90	36.1581920903955	36.241610738255	22	0.73338364014402	2	6	6	NaN	1	4	0.0380890645878151	1	1	NaN	281	5	29	1	121	221	321	NaN	521	0.411484022159129	2	0	NaN	1555652.2374966	NaN	1555653.2208761	1555653.73741548
8	22	0	0	90	36.1581920903955	36.241610738255	21	0.700048020137474	2	12	3	NaN	2	5	0.0380890645878151	1	1	NaN	282	5	30	1	121	221	321	NaN	521	0.261512322118506	1	0	NaN	1555654.9710632	NaN	1555655.9544715	1555656.47101798
8	22	0	0	90	36.1581920903955	36.241610738255	11	0.36669182007201	2	5	1	NaN	1	5	0.0380890645878151	1	1	NaN	283	5	31	1	121	221	321	NaN	521	0.320176269626245	2	0	NaN	1555657.9046638	NaN	1555658.888079	1555659.40463153
8	22	0	0	90	36.1581920903955	36.241610738255	24	0.800054880157113	2	3	4	NaN	1	3	0.0380890645878151	1	1	NaN	284	5	32	1	121	221	321	NaN	521	0.262475611874834	1	1	NaN	1555660.5382712	NaN	1555661.5216804	1555662.03822509
8	22	0	0	90	36.1581920903955	36.241610738255	23	0.766719260150567	2	8	5	NaN	2	5	0.0380890645878151	1	1	NaN	285	5	33	1	121	221	321	NaN	521	0.246545769507065	2	1	NaN	1555663.1219076	NaN	1555664.1052634	1555664.62181773
8	22	0	0	90	36.1581920903955	36.241610738255	10	0.333356200065464	2	5	2	NaN	1	3	0.0380890645878151	1	1	NaN	286	5	34	1	121	221	321	NaN	521	0.335595822194591	2	0	NaN	1555665.6888033	NaN	1555666.67222	1555667.18873888
8	22	0	0	90	36.1581920903955	36.241610738255	19	0.633376780124381	2	1	3	NaN	1	4	0.0380890645878151	1	1	NaN	287	5	35	1	121	221	321	NaN	521	0.308822200167924	1	1	NaN	1555668.3555407	NaN	1555669.3391599	1555669.8556761
8	22	0	0	90	36.1581920903955	36.241610738255	17	0.566705540111288	2	6	2	NaN	1	5	0.0380890645878151	1	1	NaN	288	5	36	1	121	221	321	NaN	521	0.331483900081366	1	1	NaN	1555670.989331	NaN	1555671.9727143	1555672.4892811
8	22	0	0	90	36.1581920903955	36.241610738255	11	0.36669182007201	2	1	5	NaN	1	4	0.0380890645878151	1	1	NaN	289	5	37	1	121	221	321	NaN	521	0.313062874367461	2	0	NaN	1555673.6395821	NaN	1555674.6229836	1555675.13951943
8	22	0	0	90	36.1581920903955	36.241610738255	19	0.633376780124381	2	12	5	NaN	2	3	0.0380890645878151	1	1	NaN	290	5	38	1	121	221	321	NaN	521	0.279599984874949	1	0	NaN	1555676.2731412	NaN	1555677.2565567	1555677.77310452
8	22	0	0	90	36.1581920903955	36.241610738255	17	0.566705540111288	2	10	1	NaN	2	3	0.0380890645878151	1	1	NaN	291	5	39	1	121	221	321	NaN	521	0.375108364503831	2	1	NaN	1555678.8733703	NaN	1555679.8568091	1555680.37335794
8	22	0	0	90	36.1581920903955	36.241610738255	13	0.433363060085103	2	11	6	NaN	2	5	0.0380890645878151	1	1	NaN	292	5	40	1	121	221	321	NaN	521	0.482972764410079	1	0	NaN	1555681.5735947	NaN	1555682.557083	1555683.07362184
8	22	0	0	90	36.1581920903955	36.241610738255	10	0.333356200065464	2	8	5	NaN	2	5	0.0380890645878151	1	1	NaN	293	5	41	1	121	221	321	NaN	521	0.393849116750062	1	0	NaN	1555684.3906162	NaN	1555685.3740337	1555685.89056988
8	22	0	0	90	36.1581920903955	36.241610738255	16	0.533369920104742	2	6	4	NaN	1	4	0.0380890645878151	1	1	NaN	294	5	42	1	121	221	321	NaN	521	0.351954122306779	2	0	NaN	1555687.4408681	NaN	1555688.4243497	1555688.94086268
8	22	0	0	90	36.1581920903955	36.241610738255	12	0.400027440078557	2	4	1	NaN	1	4	0.0380890645878151	1	1	NaN	295	5	43	1	121	221	321	NaN	521	0.380239622201771	1	1	NaN	1555690.1245471	NaN	1555691.107932	1555691.62446838
8	22	0	0	90	36.1581920903955	36.241610738255	18	0.600041160117835	2	8	6	NaN	2	4	0.0380890645878151	1	1	NaN	296	5	44	1	121	221	321	NaN	521	0.295705369673669	1	0	NaN	1555692.8247888	NaN	1555693.8082007	1555694.32473393
8	22	0	0	90	36.1581920903955	36.241610738255	16	0.533369920104742	2	6	4	NaN	1	5	0.0380890645878151	1	1	NaN	297	5	45	1	121	221	321	NaN	521	0.302865637466311	2	0	NaN	1555695.4416618	NaN	1555696.4251074	1555696.94166916
8	22	0	0	90	36.1581920903955	36.241610738255	15	0.500034300098196	2	5	5	NaN	1	5	0.0380890645878151	1	1	NaN	298	5	46	1	121	221	321	NaN	521	0.341591669479385	1	1	NaN	1555698.0753091	NaN	1555699.0586999	1555699.57524023
8	22	0	0	90	36.1581920903955	36.241610738255	9	0.300020580058917	2	6	2	NaN	1	3	0.0380890645878151	1	1	NaN	299	5	47	1	121	221	321	NaN	521	0.252899322193116	2	0	NaN	1555701.0755195	NaN	1555702.0590071	1555702.57553508
8	22	0	0	90	36.1581920903955	36.241610738255	17	0.566705540111288	2	7	6	NaN	2	4	0.0380890645878151	1	1	NaN	300	5	48	1	121	221	321	NaN	521	0.397734769620001	1	0	NaN	1555703.6591896	NaN	1555704.6426024	1555705.15913073
8	22	0	0	90	36.1581920903955	36.241610738255	18	0.600041160117835	2	2	2	NaN	1	4	0.0380890645878151	1	1	NaN	301	5	49	1	121	221	321	NaN	521	0.258479316951707	1	1	NaN	1555706.7261483	NaN	1555707.7095408	1555708.22609158
8	22	0	0	90	36.1581920903955	36.241610738255	23	0.766719260150567	2	12	2	NaN	2	3	0.0380890645878151	1	1	NaN	302	5	50	1	121	221	321	NaN	521	0.282743274467066	1	0	NaN	1555709.3097455	NaN	1555710.2931551	1555710.80967793
8	22	0	0	90	36.1581920903955	36.241610738255	22	0.73338364014402	2	4	3	NaN	1	4	0.0380890645878151	1	1	NaN	303	5	51	1	121	221	321	NaN	521	0.216906516812742	2	0	NaN	1555712.3600172	NaN	1555713.3434406	1555713.85998708
8	22	0	0	90	36.1581920903955	36.241610738255	13	0.433363060085103	2	7	5	NaN	2	5	0.0380890645878151	1	1	NaN	304	5	52	1	121	221	321	NaN	521	0.25094926962629	1	0	NaN	1555714.8936604	NaN	1555715.8770315	1555716.39356033
8	22	0	0	90	36.1581920903955	36.241610738255	20	0.666712400130928	2	3	6	NaN	1	3	0.0380890645878151	1	1	NaN	305	5	53	1	121	221	321	NaN	521	0.326283822301775	1	1	NaN	1555717.8104535	NaN	1555718.7939615	1555719.31051268
8	22	0	0	90	36.1581920903955	36.241610738255	16	0.533369920104742	2	1	4	NaN	1	4	0.0380890645878151	1	1	NaN	306	5	54	1	121	221	321	NaN	521	0.331167722120881	2	0	NaN	1555720.4774992	NaN	1555721.4608903	1555721.97744738
8	22	0	0	90	36.1581920903955	36.241610738255	25	0.833390500163659	2	3	6	NaN	1	3	0.0380890645878151	1	1	NaN	307	5	55	1	121	221	321	NaN	521	0.394430622225627	2	0	NaN	1555723.4943786	NaN	1555724.4778687	1555724.99440848
8	22	0	0	90	36.1581920903955	36.241610738255	0	0	1	9	6	NaN	2	4	0.0380890645878151	1	1	NaN	308	5	56	1	111	211	311	NaN	511	0.346771769458428	2	1	NaN	1555726.2780596	NaN	1555727.2614791	1555727.77801263
8	22	0	0	90	36.1581920903955	36.241610738255	24	0.800054880157113	2	12	4	NaN	2	5	0.0380890645878151	1	1	NaN	309	5	57	1	121	221	321	NaN	521	0.263699432136491	1	0	NaN	1555728.9449982	NaN	1555729.9283921	1555730.44494187
8	22	0	0	90	36.1581920903955	36.241610738255	21	0.700048020137474	2	5	6	NaN	1	5	0.0380890645878151	1	1	NaN	310	5	58	1	121	221	321	NaN	521	0.352178969420493	1	1	NaN	1555731.5285737	NaN	1555732.511973	1555733.02852703
8	22	0	0	90	36.1581920903955	36.241610738255	20	0.666712400130928	2	12	6	NaN	2	4	0.0380890645878151	1	1	NaN	311	5	59	1	121	221	321	NaN	521	0.269104722188786	2	1	NaN	1555734.1955322	NaN	1555735.1789243	1555735.69545418
8	22	0	0	90	36.1581920903955	36.241610738255	6	0.200013720039278	2	11	2	NaN	2	5	0.0380890645878151	1	1	NaN	312	5	60	1	121	221	321	NaN	521	0.413618316873908	1	0	NaN	1555736.7790517	NaN	1555737.762507	1555738.27903958
8	22	0	0	90	36.1581920903955	36.241610738255	21	0.700048020137474	2	7	1	NaN	2	3	0.0380890645878151	1	1	NaN	313	5	61	1	121	221	321	NaN	521	0.0104886696208268	1	0	NaN	1555739.5126884	NaN	1555740.4960834	1555741.01264133
8	22	0	0	90	36.1581920903955	36.241610738255	12	0.400027440078557	2	11	3	NaN	2	4	0.0380890645878151	1	1	NaN	314	5	62	1	121	221	321	NaN	521	0.447338169673458	1	0	NaN	1555742.3295246	NaN	1555743.3130022	1555743.82958483
8	22	0	0	90	36.1581920903955	36.241610738255	25	0.833390500163659	2	5	3	NaN	1	4	0.0380890645878151	1	1	NaN	315	5	63	1	121	221	321	NaN	521	0.304456022102386	1	1	NaN	1555745.0964653	NaN	1555746.0799731	1555746.59653008
8	22	0	0	90	36.1581920903955	36.241610738255	12	0.400027440078557	2	5	3	NaN	1	5	0.0380890645878151	1	1	NaN	316	6	1	1	121	221	321	NaN	521	0.185236322227865	1	1	NaN	1555754.4474805	NaN	1555755.4308923	1555755.94744768
8	22	0	0	90	36.1581920903955	36.241610738255	23	0.766719260150567	2	9	3	NaN	2	5	0.0380890645878151	1	1	NaN	317	6	2	1	121	221	321	NaN	521	0.652862269431353	2	1	NaN	1555756.9477471	NaN	1555757.9311424	1555758.44768863
8	22	0	0	90	36.1581920903955	36.241610738255	10	0.333356200065464	2	10	1	NaN	2	5	0.0380890645878151	1	1	NaN	318	6	3	1	121	221	321	NaN	521	0.239287274423987	1	0	NaN	1555760.281352	NaN	1555761.2648192	1555761.78134693
8	22	0	0	90	36.1581920903955	36.241610738255	23	0.766719260150567	2	1	5	NaN	1	5	0.0380890645878151	1	1	NaN	319	6	4	1	121	221	321	NaN	521	0.162984769558534	2	0	NaN	1555763.1816672	NaN	1555764.165054	1555764.68163473
8	22	0	0	90	36.1581920903955	36.241610738255	15	0.500034300098196	2	8	1	NaN	2	5	0.0380890645878151	1	1	NaN	320	6	5	1	121	221	321	NaN	521	0.18328672228381	1	0	NaN	1555765.6652786	NaN	1555766.6486745	1555767.16520868
8	22	0	0	90	36.1581920903955	36.241610738255	10	0.333356200065464	2	5	3	NaN	1	3	0.0380890645878151	1	1	NaN	321	6	6	1	121	221	321	NaN	521	0.219568542437628	2	0	NaN	1555768.1654012	NaN	1555769.1489211	1555769.66546126
8	22	0	0	90	36.1581920903955	36.241610738255	25	0.833390500163659	2	4	2	NaN	1	5	0.0380890645878151	1	1	NaN	322	6	7	1	121	221	321	NaN	521	0.0104800695553422	1	1	NaN	1555770.7157664	NaN	1555771.6991503	1555772.21571403
8	22	0	0	90	36.1581920903955	36.241610738255	16	0.533369920104742	2	5	5	NaN	1	5	0.0380890645878151	1	1	NaN	323	6	8	1	121	221	321	NaN	521	0.333747316850349	1	1	NaN	1555773.2993267	NaN	1555774.2827708	1555774.79929308
8	22	0	0	90	36.1581920903955	36.241610738255	10	0.333356200065464	2	1	6	NaN	1	5	0.0380890645878151	1	1	NaN	324	6	9	1	121	221	321	NaN	521	0.419206822058186	1	1	NaN	1555775.9496743	NaN	1555776.9330212	1555777.44956288
8	22	0	0	90	36.1581920903955	36.241610738255	13	0.433363060085103	2	10	4	NaN	2	3	0.0380890645878151	1	1	NaN	325	6	10	1	121	221	321	NaN	521	0.269166116835549	1	0	NaN	1555778.6998506	NaN	1555779.6832908	1555780.19983198
8	22	0	0	90	36.1581920903955	36.241610738255	8	0.266684960052371	2	5	6	NaN	1	4	0.0380890645878151	1	1	NaN	326	6	11	1	121	221	321	NaN	521	0.0104428271297365	2	0	NaN	1555781.2834581	NaN	1555782.2668762	1555782.78343687
8	22	0	0	90	36.1581920903955	36.241610738255	12	0.400027440078557	2	8	4	NaN	2	5	0.0380890645878151	1	1	NaN	327	6	12	1	121	221	321	NaN	521	0.215593969449401	1	0	NaN	1555783.6170399	NaN	1555784.6004352	1555785.11696963
8	22	0	0	90	36.1581920903955	36.241610738255	17	0.566705540111288	2	12	3	NaN	2	5	0.0380890645878151	1	1	NaN	328	6	13	1	121	221	321	NaN	521	0.0104878167621791	1	0	NaN	1555788.0674294	NaN	1555789.0509207	1555789.56741018
8	22	0	0	90	36.1581920903955	36.241610738255	12	0.400027440078557	2	9	5	NaN	2	3	0.0380890645878151	1	1	NaN	329	6	14	1	121	221	321	NaN	521	0.0103683897759765	1	0	NaN	1555790.4510214	NaN	1555791.4344445	1555791.95098741
8	22	0	0	90	36.1581920903955	36.241610738255	18	0.600041160117835	2	4	4	NaN	1	4	0.0380890645878151	1	1	NaN	330	6	15	1	121	221	321	NaN	521	0.0103943222202361	1	1	NaN	1555793.2179695	NaN	1555794.2013789	1555794.71791558
8	22	0	0	90	36.1581920903955	36.241610738255	17	0.566705540111288	2	2	4	NaN	1	5	0.0380890645878151	1	1	NaN	331	6	16	1	121	221	321	NaN	521	0.0104113693814725	1	1	NaN	1555795.5347446	NaN	1555796.5182776	1555797.03480143
8	22	0	0	90	36.1581920903955	36.241610738255	25	0.833390500163659	2	2	4	NaN	1	4	0.0380890645878151	1	1	NaN	332	6	17	1	121	221	321	NaN	521	0.0103908223100007	1	1	NaN	1555797.9017567	NaN	1555798.8851608	1555799.40170938
8	22	0	0	90	36.1581920903955	36.241610738255	12	0.400027440078557	2	9	5	NaN	2	4	0.0380890645878151	1	1	NaN	333	6	18	1	121	221	321	NaN	521	0.413765216944739	1	0	NaN	1555800.2353175	NaN	1555801.2187463	1555801.73526628
8	22	0	0	90	36.1581920903955	36.241610738255	17	0.566705540111288	2	9	6	NaN	2	4	0.0380890645878151	1	1	NaN	334	6	19	1	121	221	321	NaN	521	0.0104496644344181	1	0	NaN	1555802.9688219	NaN	1555803.9523471	1555804.46886544
8	22	0	0	90	36.1581920903955	36.241610738255	12	0.400027440078557	2	6	5	NaN	1	3	0.0380890645878151	1	1	NaN	335	6	20	1	121	221	321	NaN	521	0.098280827049166	1	1	NaN	1555805.3024787	NaN	1555806.2858911	1555806.80243437
8	22	0	0	90	36.1581920903955	36.241610738255	15	0.500034300098196	2	8	2	NaN	2	4	0.0380890645878151	1	1	NaN	336	6	21	1	121	221	321	NaN	521	0.249340922106057	1	0	NaN	1555807.7195325	NaN	1555808.7028074	1555809.21934348
8	22	0	0	90	36.1581920903955	36.241610738255	14	0.466698680091649	2	2	2	NaN	1	4	0.0380890645878151	1	1	NaN	337	6	22	1	121	221	321	NaN	521	0.266860669711605	1	1	NaN	1555810.2861919	NaN	1555811.269733	1555811.78625083
8	22	0	0	90	36.1581920903955	36.241610738255	17	0.566705540111288	2	11	1	NaN	2	4	0.0380890645878151	1	1	NaN	338	6	23	1	121	221	321	NaN	521	0.316857516765594	1	0	NaN	1555813.2199419	NaN	1555814.2033768	1555814.71986918
8	22	0	0	90	36.1581920903955	36.241610738255	16	0.533369920104742	2	9	1	NaN	2	5	0.0380890645878151	1	1	NaN	339	6	24	1	121	221	321	NaN	521	0.339589016744867	1	0	NaN	1555815.8534613	NaN	1555816.8369371	1555817.35346858
8	22	0	0	90	36.1581920903955	36.241610738255	6	0.200013720039278	2	10	6	NaN	2	5	0.0380890645878151	1	1	NaN	340	6	25	1	121	221	321	NaN	521	0.370175574440509	1	0	NaN	1555818.8704779	NaN	1555819.8539218	1555820.37044103
8	22	0	0	90	36.1581920903955	36.241610738255	22	0.73338364014402	2	10	6	NaN	2	3	0.0380890645878151	1	1	NaN	341	6	26	1	121	221	321	NaN	521	0.253879622090608	1	0	NaN	1555821.5707451	NaN	1555822.5541598	1555823.07069458
8	22	0	0	90	36.1581920903955	36.241610738255	10	0.333356200065464	2	4	6	NaN	1	3	0.0380890645878151	1	1	NaN	342	6	27	1	121	221	321	NaN	521	0.230811221990734	2	0	NaN	1555824.1542113	NaN	1555825.13774	1555825.65428408
8	22	0	0	90	36.1581920903955	36.241610738255	9	0.300020580058917	2	3	4	NaN	1	5	0.0380890645878151	1	1	NaN	343	6	28	1	121	221	321	NaN	521	0.184157222276554	2	0	NaN	1555826.7045852	NaN	1555827.6879695	1555828.20453688
8	22	0	0	90	36.1581920903955	36.241610738255	9	0.300020580058917	2	3	2	NaN	1	4	0.0380890645878151	1	1	NaN	344	6	29	1	121	221	321	NaN	521	0.30731282196939	2	0	NaN	1555829.2215125	NaN	1555830.2048883	1555830.72145198
8	22	0	0	90	36.1581920903955	36.241610738255	15	0.500034300098196	2	2	4	NaN	1	4	0.0380890645878151	1	1	NaN	345	6	30	1	121	221	321	NaN	521	0.281951121985912	2	0	NaN	1555831.8550762	NaN	1555832.8385059	1555833.35504438
8	22	0	0	90	36.1581920903955	36.241610738255	13	0.433363060085103	2	8	2	NaN	2	4	0.0380890645878151	1	1	NaN	346	6	31	1	121	221	321	NaN	521	0.401811616960913	1	0	NaN	1555834.4553313	NaN	1555835.4387462	1555835.95530158
8	22	0	0	90	36.1581920903955	36.241610738255	20	0.666712400130928	2	3	6	NaN	1	5	0.0380890645878151	1	1	NaN	347	6	32	1	121	221	321	NaN	521	0.208923222264275	1	1	NaN	1555837.2722537	NaN	1555838.2557182	1555838.77223308
8	22	0	0	90	36.1581920903955	36.241610738255	15	0.500034300098196	2	6	3	NaN	1	5	0.0380890645878151	1	1	NaN	348	6	33	1	121	221	321	NaN	521	0.234256122261286	2	0	NaN	1555840.2225647	NaN	1555841.2060398	1555841.72252958
8	22	0	0	90	36.1581920903955	36.241610738255	9	0.300020580058917	2	1	2	NaN	1	3	0.0380890645878151	1	1	NaN	349	6	34	1	121	221	321	NaN	521	0.251212869305164	1	1	NaN	1555842.7894887	NaN	1555843.7728958	1555844.28944013
8	22	0	0	90	36.1581920903955	36.241610738255	6	0.200013720039278	2	3	1	NaN	1	4	0.0380890645878151	1	1	NaN	350	6	35	1	121	221	321	NaN	521	0.348531916737556	2	0	NaN	1555845.3564133	NaN	1555846.3398212	1555846.85636088
8	22	0	0	90	36.1581920903955	36.241610738255	13	0.433363060085103	2	1	6	NaN	1	4	0.0380890645878151	1	1	NaN	351	6	36	1	121	221	321	NaN	521	0.24978782213293	2	0	NaN	1555848.0233496	NaN	1555849.0067604	1555849.52329998
8	22	0	0	90	36.1581920903955	36.241610738255	20	0.666712400130928	2	11	3	NaN	2	3	0.0380890645878151	1	1	NaN	352	6	37	1	121	221	321	NaN	521	0.332323422189802	1	0	NaN	1555852.3403994	NaN	1555853.3238353	1555853.84038678
8	22	0	0	90	36.1581920903955	36.241610738255	7	0.233349340045825	2	11	3	NaN	2	3	0.0380890645878151	1	1	NaN	353	6	38	1	121	221	321	NaN	521	0.354098169598728	1	0	NaN	1555854.9907179	NaN	1555855.9740921	1555856.49064633
8	22	0	0	90	36.1581920903955	36.241610738255	22	0.73338364014402	2	5	3	NaN	1	4	0.0380890645878151	1	1	NaN	354	6	39	1	121	221	321	NaN	521	0.430741922231391	1	1	NaN	1555857.6743069	NaN	1555858.6577047	1555859.17424838
8	22	0	0	90	36.1581920903955	36.241610738255	24	0.800054880157113	2	5	3	NaN	1	5	0.0380890645878151	1	1	NaN	355	6	40	1	121	221	321	NaN	521	0.308901822194457	1	1	NaN	1555860.7079038	NaN	1555861.6913402	1555862.20787548
8	22	0	0	90	36.1581920903955	36.241610738255	25	0.833390500163659	2	8	3	NaN	2	5	0.0380890645878151	1	1	NaN	356	6	41	1	121	221	321	NaN	521	0.595085369423032	1	0	NaN	1555863.3415095	NaN	1555864.3249302	1555864.84145783
8	22	0	0	90	36.1581920903955	36.241610738255	8	0.266684960052371	2	7	5	NaN	2	5	0.0380890645878151	1	1	NaN	357	6	42	1	121	221	321	NaN	521	1.47862512199208	1	0	NaN	1555866.2585006	NaN	1555867.2418823	1555867.75842118
8	22	0	0	90	36.1581920903955	36.241610738255	9	0.300020580058917	2	12	6	NaN	2	3	0.0380890645878151	1	1	NaN	358	6	43	1	121	221	321	NaN	521	0.419505422003567	1	0	NaN	1555870.9254688	NaN	1555871.9089686	1555872.42554898
8	22	0	0	90	36.1581920903955	36.241610738255	17	0.566705540111288	2	12	2	NaN	2	3	0.0380890645878151	1	1	NaN	359	6	44	1	121	221	321	NaN	521	0.771562074543908	1	0	NaN	1555874.109226	NaN	1555875.0926379	1555875.60919273
8	22	0	0	90	36.1581920903955	36.241610738255	18	0.600041160117835	2	5	1	NaN	1	5	0.0380890645878151	1	1	NaN	360	6	45	1	121	221	321	NaN	521	0.471878022188321	1	1	NaN	1555877.1928554	NaN	1555878.1762921	1555878.69281598
8	22	0	0	90	36.1581920903955	36.241610738255	6	0.200013720039278	2	8	5	NaN	2	4	0.0380890645878151	1	1	NaN	361	6	46	1	121	221	321	NaN	521	0.508880016859621	1	0	NaN	1555882.2600438	NaN	1555883.2433255	1555883.75999058
8	22	0	0	90	36.1581920903955	36.241610738255	14	0.466698680091649	2	1	1	NaN	1	5	0.0380890645878151	1	1	NaN	362	6	47	1	121	221	321	NaN	521	0.570453974651173	1	1	NaN	1555886.1103967	NaN	1555887.0938055	1555887.61036083
8	22	0	0	90	36.1581920903955	36.241610738255	21	0.700048020137474	2	2	5	NaN	1	4	0.0380890645878151	1	1	NaN	363	6	48	1	121	221	321	NaN	521	0.62982396944426	1	1	NaN	1555889.4274003	NaN	1555890.4108974	1555890.92734903
8	22	0	0	90	36.1581920903955	36.241610738255	19	0.633376780124381	2	3	6	NaN	1	5	0.0380890645878151	1	1	NaN	364	6	49	1	121	221	321	NaN	521	0.695160317001864	1	1	NaN	1555892.3777179	NaN	1555893.3611095	1555893.87764418
8	22	0	0	90	36.1581920903955	36.241610738255	24	0.800054880157113	2	11	2	NaN	2	3	0.0380890645878151	1	1	NaN	365	6	50	1	121	221	321	NaN	521	0.262505969498307	2	1	NaN	1555895.3947605	NaN	1555896.3780548	1555896.89460723
8	22	0	0	90	36.1581920903955	36.241610738255	6	0.200013720039278	2	2	2	NaN	1	4	0.0380890645878151	1	1	NaN	366	6	51	1	121	221	321	NaN	521	0.502586322138086	1	1	NaN	1555897.9782675	NaN	1555898.9616479	1555899.47818988
8	22	0	0	90	36.1581920903955	36.241610738255	0	0	1	12	5	NaN	2	4	0.0380890645878151	1	1	NaN	367	6	52	1	111	211	311	NaN	511	0.340966464485973	1	0	NaN	1555900.8118895	NaN	1555901.7952708	1555902.31180684
8	22	0	0	90	36.1581920903955	36.241610738255	16	0.533369920104742	2	2	6	NaN	1	5	0.0380890645878151	1	1	NaN	368	6	53	1	121	221	321	NaN	521	0.474437516881153	2	0	NaN	1555903.4788122	NaN	1555904.4622321	1555904.97873418
8	22	0	0	90	36.1581920903955	36.241610738255	25	0.833390500163659	2	2	3	NaN	1	4	0.0380890645878151	1	1	NaN	369	6	54	1	121	221	321	NaN	521	0.146904369583353	2	0	NaN	1555906.262402	NaN	1555907.2458028	1555907.76233373
8	22	0	0	90	36.1581920903955	36.241610738255	9	0.300020580058917	2	9	1	NaN	2	4	0.0380890645878151	1	1	NaN	370	6	55	1	121	221	321	NaN	521	0.399701016955078	1	0	NaN	1555908.729221	NaN	1555909.7127182	1555910.22925498
8	22	0	0	90	36.1581920903955	36.241610738255	14	0.466698680091649	2	3	3	NaN	1	5	0.0380890645878151	1	1	NaN	371	6	56	1	121	221	321	NaN	521	0.0104092694818974	1	1	NaN	1555911.662978	NaN	1555912.6462417	1555913.16286683
8	22	0	0	90	36.1581920903955	36.241610738255	12	0.400027440078557	2	7	4	NaN	2	3	0.0380890645878151	1	1	NaN	372	6	57	1	121	221	321	NaN	521	0.0104197221808136	1	0	NaN	1555914.0625097	NaN	1555915.0465744	1555915.56310188
8	22	0	0	90	36.1581920903955	36.241610738255	7	0.233349340045825	2	3	1	NaN	1	4	0.0380890645878151	1	1	NaN	373	6	58	1	121	221	321	NaN	521	0.010458369506523	1	1	NaN	1555916.3967223	NaN	1555917.3801258	1555917.89666123
8	22	0	0	90	36.1581920903955	36.241610738255	6	0.200013720039278	2	5	2	NaN	1	3	0.0380890645878151	1	1	NaN	374	6	59	1	121	221	321	NaN	521	0.010464922292158	2	0	NaN	1555918.7302848	NaN	1555919.7136953	1555920.23023658
8	22	0	0	90	36.1581920903955	36.241610738255	22	0.73338364014402	2	10	3	NaN	2	3	0.0380890645878151	1	1	NaN	375	6	60	1	121	221	321	NaN	521	0.680842816829681	1	0	NaN	1555921.0638322	NaN	1555922.0472741	1555922.56378868
8	22	0	0	90	36.1581920903955	36.241610738255	14	0.466698680091649	2	4	2	NaN	1	5	0.0380890645878151	1	1	NaN	376	6	61	1	121	221	321	NaN	521	0.0103932220954448	1	1	NaN	1555924.0807754	NaN	1555925.0641943	1555925.58075698
8	22	0	0	90	36.1581920903955	36.241610738255	14	0.466698680091649	2	5	1	NaN	1	4	0.0380890645878151	1	1	NaN	377	6	62	1	121	221	321	NaN	521	0.218838516855612	1	1	NaN	1555926.4143721	NaN	1555927.3977834	1555927.91431428
8	22	0	0	90	36.1581920903955	36.241610738255	11	0.36669182007201	2	8	4	NaN	2	3	0.0380890645878151	1	1	NaN	378	6	63	1	121	221	321	NaN	521	0.19672272214666	2	1	NaN	1555928.9480137	NaN	1555929.93138	1555930.44790478
8	22	0	0	90	36.1581920903955	36.241610738255	21	0.700048020137474	2	8	5	NaN	2	5	0.0380890645878151	1	1	NaN	379	7	1	1	121	221	321	NaN	521	0.325422222027555	1	0	NaN	1555941.3159725	NaN	1555942.2992313	1555942.81578018
8	22	0	0	90	36.1581920903955	36.241610738255	7	0.233349340045825	2	3	6	NaN	1	4	0.0380890645878151	1	1	NaN	380	7	2	1	121	221	321	NaN	521	0.330940769519657	2	0	NaN	1555943.9660841	NaN	1555944.9495272	1555945.46603343
8	22	0	0	90	36.1581920903955	36.241610738255	0	0	1	1	5	NaN	1	4	0.0380890645878151	1	1	NaN	381	7	3	1	111	211	311	NaN	511	0.272572421934456	1	1	NaN	1555946.6161961	NaN	1555947.5997897	1555948.11630968
8	22	0	0	90	36.1581920903955	36.241610738255	13	0.433363060085103	2	6	3	NaN	1	3	0.0380890645878151	1	1	NaN	382	7	4	1	121	221	321	NaN	521	0.28830376942642	1	1	NaN	1555949.2166004	NaN	1555950.2000162	1555950.71655123
8	22	0	0	90	36.1581920903955	36.241610738255	21	0.700048020137474	2	10	2	NaN	2	3	0.0380890645878151	1	1	NaN	383	7	5	1	121	221	321	NaN	521	0.010375774698332	2	1	NaN	1555951.8168721	NaN	1555952.8002556	1555953.31681323
8	22	0	0	90	36.1581920903955	36.241610738255	24	0.800054880157113	2	7	3	NaN	2	3	0.0380890645878151	1	1	NaN	384	7	6	1	121	221	321	NaN	521	0.362432922003791	1	0	NaN	1555954.1504954	NaN	1555955.1338478	1555955.65036668
8	22	0	0	90	36.1581920903955	36.241610738255	8	0.266684960052371	2	10	2	NaN	2	5	0.0380890645878151	1	1	NaN	385	7	7	1	121	221	321	NaN	521	0.0103923222050071	2	1	NaN	1555956.8340076	NaN	1555957.8174176	1555958.33397388
8	22	0	0	90	36.1581920903955	36.241610738255	24	0.800054880157113	2	1	2	NaN	1	4	0.0380890645878151	1	1	NaN	386	7	8	1	121	221	321	NaN	521	0.0104742222465575	2	0	NaN	1555959.1675908	NaN	1555960.1508889	1555960.66753388
8	22	0	0	90	36.1581920903955	36.241610738255	0	0	1	8	6	NaN	2	3	0.0380890645878151	1	1	NaN	387	7	9	1	111	211	311	NaN	511	0.339452842250466	2	1	NaN	1555961.5011164	NaN	1555962.4845442	1555963.00110716
8	22	0	0	90	36.1581920903955	36.241610738255	7	0.233349340045825	2	7	3	NaN	2	4	0.0380890645878151	1	1	NaN	388	7	10	1	121	221	321	NaN	521	0.256817489862442	1	0	NaN	1555964.1681065	NaN	1555965.1515017	1555965.66803711
8	22	0	0	90	36.1581920903955	36.241610738255	18	0.600041160117835	2	2	3	NaN	1	5	0.0380890645878151	1	1	NaN	389	7	11	1	121	221	321	NaN	521	0.0103940221015364	1	1	NaN	1555966.7516678	NaN	1555967.7350683	1555968.25161598
8	22	0	0	90	36.1581920903955	36.241610738255	22	0.73338364014402	2	12	2	NaN	2	4	0.0380890645878151	1	1	NaN	390	7	12	1	121	221	321	NaN	521	0.816464116796851	1	0	NaN	1555969.1684542	NaN	1555970.1519787	1555970.66850788
8	22	0	0	90	36.1581920903955	36.241610738255	22	0.73338364014402	2	11	6	NaN	2	5	0.0380890645878151	1	1	NaN	391	7	13	1	121	221	321	NaN	521	0.0907616221811622	1	0	NaN	1555972.3022037	NaN	1555973.2856255	1555973.80215468
8	22	0	0	90	36.1581920903955	36.241610738255	12	0.400027440078557	2	5	5	NaN	1	5	0.0380890645878151	1	1	NaN	392	7	14	1	121	221	321	NaN	521	0.507096716901287	1	1	NaN	1555974.7024401	NaN	1555975.6858394	1555976.20239648
8	22	0	0	90	36.1581920903955	36.241610738255	12	0.400027440078557	2	6	6	NaN	1	3	0.0380890645878151	1	1	NaN	393	7	15	1	121	221	321	NaN	521	0.0104076694697142	2	0	NaN	1555977.536177	NaN	1555978.5194737	1555979.03600473
8	22	0	0	90	36.1581920903955	36.241610738255	19	0.633376780124381	2	10	3	NaN	2	3	0.0380890645878151	1	1	NaN	394	7	16	1	121	221	321	NaN	521	0.227568322326988	1	0	NaN	1555979.869602	NaN	1555980.8530477	1555981.36957318
8	22	0	0	90	36.1581920903955	36.241610738255	23	0.766719260150567	2	12	5	NaN	2	5	0.0380890645878151	1	1	NaN	395	7	17	1	121	221	321	NaN	521	0.469242516905069	2	1	NaN	1555982.4197967	NaN	1555983.4032728	1555983.91981488
8	22	0	0	90	36.1581920903955	36.241610738255	25	0.833390500163659	2	1	6	NaN	1	5	0.0380890645878151	1	1	NaN	396	7	18	1	121	221	321	NaN	521	0.293233999982476	2	0	NaN	1555985.2201338	NaN	1555986.2035527	1555986.7200945
8	22	0	0	90	36.1581920903955	36.241610738255	7	0.233349340045825	2	1	3	NaN	1	5	0.0380890645878151	1	1	NaN	397	7	19	1	121	221	321	NaN	521	0.275977422017604	1	1	NaN	1555987.8371633	NaN	1555988.8204717	1555989.33701448
8	22	0	0	90	36.1581920903955	36.241610738255	25	0.833390500163659	2	10	6	NaN	2	4	0.0380890645878151	1	1	NaN	398	7	20	1	121	221	321	NaN	521	0.316952669527382	1	0	NaN	1555990.804015	NaN	1555991.7874283	1555992.30396363
8	22	0	0	90	36.1581920903955	36.241610738255	23	0.766719260150567	2	10	1	NaN	2	5	0.0380890645878151	1	1	NaN	399	7	21	1	121	221	321	NaN	521	0.315066521987319	2	1	NaN	1555993.4542885	NaN	1555994.4377043	1555994.95423578
8	22	0	0	90	36.1581920903955	36.241610738255	25	0.833390500163659	2	8	6	NaN	2	3	0.0380890645878151	1	1	NaN	400	7	22	1	121	221	321	NaN	521	0.17698793229647	2	1	NaN	1555996.087874	NaN	1555997.0712767	1555997.58783337
8	22	0	0	90	36.1581920903955	36.241610738255	11	0.36669182007201	2	11	3	NaN	2	4	0.0380890645878151	1	1	NaN	401	7	23	1	121	221	321	NaN	521	0.301793522201478	1	0	NaN	1555998.5714674	NaN	1555999.5548474	1556000.07140648
8	22	0	0	90	36.1581920903955	36.241610738255	24	0.800054880157113	2	6	2	NaN	1	3	0.0380890645878151	1	1	NaN	402	7	24	1	121	221	321	NaN	521	0.274935411754996	1	1	NaN	1556001.4383973	NaN	1556002.4218126	1556002.93834809
8	22	0	0	90	36.1581920903955	36.241610738255	6	0.200013720039278	2	12	5	NaN	2	3	0.0380890645878151	1	1	NaN	403	7	25	1	121	221	321	NaN	521	0.242311269510537	1	0	NaN	1556004.0386442	NaN	1556005.0220681	1556005.53862683
8	22	0	0	90	36.1581920903955	36.241610738255	10	0.333356200065464	2	1	6	NaN	1	3	0.0380890645878151	1	1	NaN	404	7	26	1	121	221	321	NaN	521	0.323735469486564	1	1	NaN	1556006.6055808	NaN	1556007.5889945	1556008.10551943
8	22	0	0	90	36.1581920903955	36.241610738255	17	0.566705540111288	2	3	1	NaN	1	5	0.0380890645878151	1	1	NaN	405	7	27	1	121	221	321	NaN	521	0.265595716889948	2	0	NaN	1556009.6559397	NaN	1556010.6392732	1556011.15582148
8	22	0	0	90	36.1581920903955	36.241610738255	21	0.700048020137474	2	6	2	NaN	1	3	0.0380890645878151	1	1	NaN	406	7	28	1	121	221	321	NaN	521	0.209310269448906	1	1	NaN	1556012.2394911	NaN	1556013.2228518	1556013.73941153
8	22	0	0	90	36.1581920903955	36.241610738255	16	0.533369920104742	2	12	1	NaN	2	3	0.0380890645878151	1	1	NaN	407	7	29	1	121	221	321	NaN	521	0.0439364796038717	1	0	NaN	1556014.7731726	NaN	1556015.7564414	1556016.27299172
8	22	0	0	90	36.1581920903955	36.241610738255	20	0.666712400130928	2	4	3	NaN	1	4	0.0380890645878151	1	1	NaN	408	7	30	1	121	221	321	NaN	521	0.294194189831614	1	1	NaN	1556017.5233223	NaN	1556018.5067116	1556019.02325631
8	22	0	0	90	36.1581920903955	36.241610738255	20	0.666712400130928	2	9	5	NaN	2	5	0.0380890645878151	1	1	NaN	409	7	31	1	121	221	321	NaN	521	0.151513822143897	1	0	NaN	1556020.2735475	NaN	1556021.2569986	1556021.77353428
8	22	0	0	90	36.1581920903955	36.241610738255	8	0.266684960052371	2	12	3	NaN	2	4	0.0380890645878151	1	1	NaN	410	7	32	1	121	221	321	NaN	521	0.243101469473913	2	1	NaN	1556023.1738115	NaN	1556024.1573417	1556024.67381463
8	22	0	0	90	36.1581920903955	36.241610738255	22	0.73338364014402	2	12	1	NaN	2	3	0.0380890645878151	1	1	NaN	411	7	33	1	121	221	321	NaN	521	0.210676921997219	1	0	NaN	1556025.7740077	NaN	1556026.7576158	1556027.27406678
8	22	0	0	90	36.1581920903955	36.241610738255	8	0.266684960052371	2	8	4	NaN	2	4	0.0380890645878151	1	1	NaN	412	7	34	1	121	221	321	NaN	521	0.365823569474742	1	0	NaN	1556028.2910354	NaN	1556029.2744101	1556029.79098053
8	22	0	0	90	36.1581920903955	36.241610738255	24	0.800054880157113	2	8	2	NaN	2	5	0.0380890645878151	1	1	NaN	413	7	35	1	121	221	321	NaN	521	0.378429022151977	1	0	NaN	1556030.9745116	NaN	1556031.958047	1556032.47457728
8	22	0	0	90	36.1581920903955	36.241610738255	15	0.500034300098196	2	2	5	NaN	1	3	0.0380890645878151	1	1	NaN	414	7	36	1	121	221	321	NaN	521	0.276093284832314	2	0	NaN	1556034.124934	NaN	1556035.1083694	1556035.62488522
8	22	0	0	90	36.1581920903955	36.241610738255	8	0.266684960052371	2	2	1	NaN	1	5	0.0380890645878151	1	1	NaN	415	7	37	1	121	221	321	NaN	521	0.228242022218183	1	1	NaN	1556036.7251989	NaN	1556037.7085857	1556038.22514868
8	22	0	0	90	36.1581920903955	36.241610738255	21	0.700048020137474	2	12	4	NaN	2	3	0.0380890645878151	1	1	NaN	416	7	38	1	121	221	321	NaN	521	0.333625969476998	2	1	NaN	1556039.275483	NaN	1556040.258854	1556040.77541243
8	22	0	0	90	36.1581920903955	36.241610738255	21	0.700048020137474	2	7	6	NaN	2	3	0.0380890645878151	1	1	NaN	417	7	39	1	121	221	321	NaN	521	0.427021821960807	1	0	NaN	1556041.942389	NaN	1556042.9257649	1556043.44232588
8	22	0	0	90	36.1581920903955	36.241610738255	10	0.333356200065464	2	3	4	NaN	1	5	0.0380890645878151	1	1	NaN	418	7	40	1	121	221	321	NaN	521	0.189814222045243	2	0	NaN	1556044.8593267	NaN	1556045.8427855	1556046.35928158
8	22	0	0	90	36.1581920903955	36.241610738255	16	0.533369920104742	2	10	6	NaN	2	5	0.0380890645878151	1	1	NaN	419	7	41	1	121	221	321	NaN	521	0.280950722051784	1	0	NaN	1556047.5762082	NaN	1556048.5596635	1556049.07620638
8	22	0	0	90	36.1581920903955	36.241610738255	11	0.36669182007201	2	9	1	NaN	2	5	0.0380890645878151	1	1	NaN	420	7	42	1	121	221	321	NaN	521	0.22462526941672	2	1	NaN	1556050.1765211	NaN	1556051.159995	1556051.67645983
8	22	0	0	90	36.1581920903955	36.241610738255	12	0.400027440078557	2	1	4	NaN	1	4	0.0380890645878151	1	1	NaN	421	7	43	1	121	221	321	NaN	521	0.226096864324063	1	1	NaN	1556053.1268047	NaN	1556054.1102239	1556054.62675174
8	22	0	0	90	36.1581920903955	36.241610738255	23	0.766719260150567	2	8	5	NaN	2	3	0.0380890645878151	1	1	NaN	422	7	44	1	121	221	321	NaN	521	0.262633374426514	1	0	NaN	1556056.0104157	NaN	1556056.9938553	1556057.51037643
8	22	0	0	90	36.1581920903955	36.241610738255	18	0.600041160117835	2	9	5	NaN	2	4	0.0380890645878151	1	1	NaN	423	7	45	1	121	221	321	NaN	521	0.271148737287149	1	0	NaN	1556058.5939077	NaN	1556059.5774228	1556060.09396046
8	22	0	0	90	36.1581920903955	36.241610738255	9	0.300020580058917	2	5	4	NaN	1	3	0.0380890645878151	1	1	NaN	424	7	46	1	121	221	321	NaN	521	0.231417669449002	2	0	NaN	1556061.1775953	NaN	1556062.1609895	1556062.67754283
8	22	0	0	90	36.1581920903955	36.241610738255	13	0.433363060085103	2	5	4	NaN	1	3	0.0380890645878151	1	1	NaN	425	7	47	1	121	221	321	NaN	521	0.265308679779992	1	1	NaN	1556063.7278454	NaN	1556064.7112656	1556065.22779642
8	22	0	0	90	36.1581920903955	36.241610738255	0	0	1	12	4	NaN	2	5	0.0380890645878151	1	1	NaN	426	7	48	1	111	211	311	NaN	511	0.697868769522756	1	0	NaN	1556066.3114437	NaN	1556067.2948437	1556067.81137283
8	22	0	0	90	36.1581920903955	36.241610738255	23	0.766719260150567	2	5	2	NaN	1	3	0.0380890645878151	1	1	NaN	427	7	49	1	121	221	321	NaN	521	0.464616969460621	2	0	NaN	1556069.3284015	NaN	1556070.311819	1556070.82834433
8	22	0	0	90	36.1581920903955	36.241610738255	7	0.233349340045825	2	12	1	NaN	2	4	0.0380890645878151	1	1	NaN	428	7	50	1	121	221	321	NaN	521	0.49749582214281	1	0	NaN	1556072.1119407	NaN	1556073.0953955	1556073.61195278
8	22	0	0	90	36.1581920903955	36.241610738255	0	0	1	3	5	NaN	1	4	0.0380890645878151	1	1	NaN	429	7	51	1	111	211	311	NaN	511	0.976580622140318	1	1	NaN	1556074.9289361	NaN	1556075.9123567	1556076.42889288
8	22	0	0	90	36.1581920903955	36.241610738255	8	0.266684960052371	2	9	2	NaN	2	4	0.0380890645878151	1	1	NaN	430	7	52	1	121	221	321	NaN	521	0.873779269400984	1	0	NaN	1556078.6792851	NaN	1556079.6626932	1556080.17926873
8	22	0	0	90	36.1581920903955	36.241610738255	12	0.400027440078557	2	4	6	NaN	1	5	0.0380890645878151	1	1	NaN	431	7	53	1	121	221	321	NaN	521	1.24931702204049	1	1	NaN	1556081.8795771	NaN	1556082.86301	1556083.37958348
8	22	0	0	90	36.1581920903955	36.241610738255	19	0.633376780124381	2	9	2	NaN	2	4	0.0380890645878151	1	1	NaN	432	7	54	1	121	221	321	NaN	521	0.594303369522095	1	0	NaN	1556085.4466056	NaN	1556086.4300489	1556086.94658623
8	22	0	0	90	36.1581920903955	36.241610738255	11	0.36669182007201	2	6	3	NaN	1	5	0.0380890645878151	1	1	NaN	433	7	55	1	121	221	321	NaN	521	0.573812622111291	1	1	NaN	1556088.3636017	NaN	1556089.3470099	1556089.86354198
8	22	0	0	90	36.1581920903955	36.241610738255	17	0.566705540111288	2	8	5	NaN	2	5	0.0380890645878151	1	1	NaN	434	7	56	1	121	221	321	NaN	521	0.297287221997976	1	0	NaN	1556091.6639147	NaN	1556092.6473607	1556093.16388328
8	22	0	0	90	36.1581920903955	36.241610738255	15	0.500034300098196	2	1	2	NaN	1	5	0.0380890645878151	1	1	NaN	435	7	57	1	121	221	321	NaN	521	0.33769112220034	1	1	NaN	1556094.6474982	NaN	1556095.6309715	1556096.14750078
8	22	0	0	90	36.1581920903955	36.241610738255	11	0.36669182007201	2	2	3	NaN	1	5	0.0380890645878151	1	1	NaN	436	7	58	1	121	221	321	NaN	521	0.269534516846761	1	1	NaN	1556097.7478465	NaN	1556098.7312629	1556099.24779378
8	22	0	0	90	36.1581920903955	36.241610738255	8	0.266684960052371	2	4	3	NaN	1	5	0.0380890645878151	1	1	NaN	437	7	59	1	121	221	321	NaN	521	0.294041116721928	2	0	NaN	1556100.3315414	NaN	1556101.3148425	1556101.83138978
8	22	0	0	90	36.1581920903955	36.241610738255	6	0.200013720039278	2	7	5	NaN	2	5	0.0380890645878151	1	1	NaN	438	7	60	1	121	221	321	NaN	521	0.010351879755035	1	0	NaN	1556102.9483551	NaN	1556103.9317792	1556104.44830492
8	22	0	0	90	36.1581920903955	36.241610738255	17	0.566705540111288	2	7	4	NaN	2	5	0.0380890645878151	1	1	NaN	439	7	61	1	121	221	321	NaN	521	0.703086422057822	2	1	NaN	1556105.2818734	NaN	1556106.2653246	1556106.78187078
8	22	0	0	90	36.1581920903955	36.241610738255	7	0.233349340045825	2	9	3	NaN	2	4	0.0380890645878151	1	1	NaN	440	7	62	1	121	221	321	NaN	521	0.574435664573684	1	0	NaN	1556108.2988984	NaN	1556109.2822922	1556109.79883144
8	22	0	0	90	36.1581920903955	36.241610738255	17	0.566705540111288	2	2	1	NaN	1	4	0.0380890645878151	1	1	NaN	441	7	63	1	121	221	321	NaN	521	1.13009342225268	1	1	NaN	1556111.1991767	NaN	1556112.1825808	1556112.69911578
8	22	0	0	90	36.1581920903955	36.241610738255	18	0.600041160117835	2	7	3	NaN	2	5	0.0380890645878151	1	1	NaN	442	8	1	1	121	221	321	NaN	521	0.299597716890275	2	1	NaN	1556118.7498745	NaN	1556119.7333868	1556120.24993118
8	22	0	0	90	36.1581920903955	36.241610738255	24	0.800054880157113	2	12	2	NaN	2	4	0.0380890645878151	1	1	NaN	443	8	2	1	121	221	321	NaN	521	0.282530769472942	2	1	NaN	1556121.3668327	NaN	1556122.3502605	1556122.86678543
8	22	0	0	90	36.1581920903955	36.241610738255	25	0.833390500163659	2	4	2	NaN	1	3	0.0380890645878151	1	1	NaN	444	8	3	1	121	221	321	NaN	521	0.394083022139966	1	1	NaN	1556123.9671048	NaN	1556124.9504976	1556125.46704328
8	22	0	0	90	36.1581920903955	36.241610738255	8	0.266684960052371	2	6	5	NaN	1	3	0.0380890645878151	1	1	NaN	445	8	4	1	121	221	321	NaN	521	1.01350116962567	2	0	NaN	1556127.0840517	NaN	1556128.0674534	1556128.58400213
8	22	0	0	90	36.1581920903955	36.241610738255	6	0.200013720039278	2	5	1	NaN	1	4	0.0380890645878151	1	1	NaN	446	8	5	1	121	221	321	NaN	521	0.192525264574215	2	0	NaN	1556130.8010779	NaN	1556131.784508	1556132.30103504
8	22	0	0	90	36.1581920903955	36.241610738255	11	0.36669182007201	2	9	2	NaN	2	5	0.0380890645878151	1	1	NaN	447	8	6	1	121	221	321	NaN	521	0.386933569563553	1	0	NaN	1556133.3180024	NaN	1556134.3014228	1556134.81795683
8	22	0	0	90	36.1581920903955	36.241610738255	8	0.266684960052371	2	10	5	NaN	2	4	0.0380890645878151	1	1	NaN	448	8	7	1	121	221	321	NaN	521	0.270224599866197	2	1	NaN	1556136.0349446	NaN	1556137.0183392	1556137.5348936
8	22	0	0	90	36.1581920903955	36.241610738255	19	0.633376780124381	2	11	3	NaN	2	4	0.0380890645878151	1	1	NaN	449	8	8	1	121	221	321	NaN	521	0.36175300157629	1	0	NaN	1556138.9352129	NaN	1556139.9186283	1556140.4351683
8	22	0	0	90	36.1581920903955	36.241610738255	20	0.666712400130928	2	9	4	NaN	2	4	0.0380890645878151	1	1	NaN	450	8	9	1	121	221	321	NaN	521	0.326794522115961	2	1	NaN	1556141.6188327	NaN	1556142.602237	1556143.11877588
8	22	0	0	90	36.1581920903955	36.241610738255	16	0.533369920104742	2	2	3	NaN	1	5	0.0380890645878151	1	1	NaN	451	8	10	1	121	221	321	NaN	521	0.331987916957587	1	1	NaN	1556144.2690917	NaN	1556145.2524831	1556145.76902938
8	22	0	0	90	36.1581920903955	36.241610738255	8	0.266684960052371	2	9	6	NaN	2	4	0.0380890645878151	1	1	NaN	452	8	11	1	121	221	321	NaN	521	0.200085974531248	1	0	NaN	1556147.3693875	NaN	1556148.3527912	1556148.86933913
8	22	0	0	90	36.1581920903955	36.241610738255	16	0.533369920104742	2	4	3	NaN	1	4	0.0380890645878151	1	1	NaN	453	8	12	1	121	221	321	NaN	521	0.21891851676628	1	1	NaN	1556150.2863284	NaN	1556151.2697561	1556151.78628538
8	22	0	0	90	36.1581920903955	36.241610738255	21	0.700048020137474	2	5	6	NaN	1	3	0.0380890645878151	1	1	NaN	454	8	13	1	121	221	321	NaN	521	0.324870216893032	1	1	NaN	1556152.8365852	NaN	1556153.8199963	1556154.33653978
8	22	0	0	90	36.1581920903955	36.241610738255	19	0.633376780124381	2	2	1	NaN	1	5	0.0380890645878151	1	1	NaN	455	8	14	1	121	221	321	NaN	521	0.28322024224326	1	1	NaN	1556155.4701862	NaN	1556156.453593	1556156.97013896
8	22	0	0	90	36.1581920903955	36.241610738255	8	0.266684960052371	2	3	2	NaN	1	4	0.0380890645878151	1	1	NaN	456	8	15	1	121	221	321	NaN	521	0.322700422024354	1	1	NaN	1556158.0702964	NaN	1556159.0538352	1556159.57038408
8	22	0	0	90	36.1581920903955	36.241610738255	25	0.833390500163659	2	11	1	NaN	2	5	0.0380890645878151	1	1	NaN	457	8	16	1	121	221	321	NaN	521	0.304592669475824	1	0	NaN	1556160.7207117	NaN	1556161.7041108	1556162.22064163
8	22	0	0	90	36.1581920903955	36.241610738255	17	0.566705540111288	2	8	4	NaN	2	3	0.0380890645878151	1	1	NaN	458	8	17	1	121	221	321	NaN	521	0.222940622130409	1	0	NaN	1556163.3542824	NaN	1556164.3376985	1556164.85424048
8	22	0	0	90	36.1581920903955	36.241610738255	9	0.300020580058917	2	11	5	NaN	2	4	0.0380890645878151	1	1	NaN	459	8	18	1	121	221	321	NaN	521	0.12893251189962	1	0	NaN	1556165.9045346	NaN	1556166.8879429	1556167.40449249
