subjno	age	gender	isPractice	viewdist	CmToPixX	CmToPixY	SOA_frm	SOA_time	targNum	targID	targExample	targRace	targGender	firstTargPos	contrast	familiarity	curr_staircase	iStair	TrialNum	BlockNum	blktrl	sessionNum	TC_FIXATION	TC_RSVP_START	TC_RSVP_END	TC_BLANK	TC_RESPONSE_ONSET	RT2afc	resp_2afc	acc	RSVPOnsetVBL	RSVPOnsetTime	RSVPOffsetVBL	RSVPOffsetTime	startrt_2afc
79	20	0	0	90	36.1581920903955	36.241610738255	12	0.400055808126926	2	6	3	NaN	1	4	0.0351553496624043	1	1	NaN	1	1	1	2	121	221	321	NaN	521	1.23087548511103	1	1	NaN	3290581.6926206	NaN	3290582.6758572	3290583.20898891
79	20	0	0	90	36.1581920903955	36.241610738255	9	0.300041856095195	2	10	1	NaN	2	3	0.0351553496624043	1	1	NaN	2	1	2	2	121	221	321	NaN	521	1.07684493716806	2	1	NaN	3290585.3262555	NaN	3290586.309587	3290586.84269446
79	20	0	0	90	36.1581920903955	36.241610738255	11	0.366717824116349	2	7	2	NaN	2	5	0.0351553496624043	1	1	NaN	3	1	3	2	121	221	321	NaN	521	0.947982585523278	2	1	NaN	3290588.7430763	NaN	3290589.7265266	3290590.25968321
79	20	0	0	90	36.1581920903955	36.241610738255	12	0.400055808126926	2	10	4	NaN	2	3	0.0351553496624043	1	1	NaN	4	1	4	2	121	221	321	NaN	521	0.345097688492388	2	1	NaN	3290592.0267146	NaN	3290593.0101293	3290593.52668251
79	20	0	0	90	36.1581920903955	36.241610738255	12	0.400055808126926	2	8	4	NaN	2	3	0.0351553496624043	1	1	NaN	5	1	5	2	121	221	321	NaN	521	1.87790613435209	2	1	NaN	3290594.6936533	NaN	3290595.6770415	3290596.19360707
79	20	0	0	90	36.1581920903955	36.241610738255	22	0.733435648232698	2	9	1	NaN	2	4	0.0351553496624043	1	1	NaN	6	1	6	2	121	221	321	NaN	521	1.30168688250706	2	1	NaN	3290598.8940619	NaN	3290599.8774653	3290600.39401302
79	20	0	0	90	36.1581920903955	36.241610738255	17	0.566745728179812	2	3	5	NaN	1	5	0.0351553496624043	1	1	NaN	7	1	7	2	121	221	321	NaN	521	0.812432534527034	1	1	NaN	3290602.5110952	NaN	3290603.4944704	3290604.01104177
79	20	0	0	90	36.1581920903955	36.241610738255	11	0.366717824116349	2	8	1	NaN	2	3	0.0351553496624043	1	1	NaN	8	1	8	2	121	221	321	NaN	521	0.367185631301254	2	1	NaN	3290605.6447182	NaN	3290606.6281388	3290607.14467647
79	20	0	0	90	36.1581920903955	36.241610738255	11	0.366717824116349	2	3	3	NaN	1	5	0.0351553496624043	1	1	NaN	9	1	9	2	121	221	321	NaN	521	1.23532503424212	1	1	NaN	3290608.3283354	NaN	3290609.3117393	3290609.82828037
79	20	0	0	90	36.1581920903955	36.241610738255	17	0.566745728179812	2	10	6	NaN	2	4	0.0351553496624043	1	1	NaN	10	1	10	2	121	221	321	NaN	521	1.33301253430545	1	0	NaN	3290611.8786925	NaN	3290612.8620908	3290613.37863627
79	20	0	0	90	36.1581920903955	36.241610738255	14	0.466731776148081	2	6	3	NaN	1	5	0.0351553496624043	1	1	NaN	11	1	11	2	121	221	321	NaN	521	0.402493634261191	1	1	NaN	3290615.5290522	NaN	3290616.5124397	3290617.02899067
79	20	0	0	90	36.1581920903955	36.241610738255	12	0.400055808126926	2	10	2	NaN	2	4	0.0351553496624043	1	1	NaN	12	1	12	2	121	221	321	NaN	521	0.382056633941829	2	1	NaN	3290618.2459789	NaN	3290619.2294056	3290619.74593057
79	20	0	0	90	36.1581920903955	36.241610738255	24	0.800111616253853	2	5	4	NaN	1	4	0.0351553496624043	1	1	NaN	13	1	13	2	121	221	321	NaN	521	1.64946893416345	2	0	NaN	3290620.9461041	NaN	3290621.9296471	3290622.44618947
79	20	0	0	90	36.1581920903955	36.241610738255	10	0.333379840105772	2	7	6	NaN	2	5	0.0351553496624043	1	1	NaN	14	1	14	2	121	221	321	NaN	521	1.27641948265955	1	0	NaN	3290625.2632249	NaN	3290626.2467451	3290626.76327302
79	20	0	0	90	36.1581920903955	36.241610738255	16	0.533407744169235	2	4	4	NaN	1	4	0.0351553496624043	1	1	NaN	15	1	15	2	121	221	321	NaN	521	0.555961485486478	2	0	NaN	3290628.863687	NaN	3290629.8471015	3290630.36363631
79	20	0	0	90	36.1581920903955	36.241610738255	8	0.266703872084618	2	12	6	NaN	2	3	0.0351553496624043	1	1	NaN	16	1	16	2	121	221	321	NaN	521	1.45741508249193	2	1	NaN	3290631.7305096	NaN	3290632.714046	3290633.23057782
79	20	0	0	90	36.1581920903955	36.241610738255	19	0.633421696200967	2	6	3	NaN	1	4	0.0351553496624043	1	1	NaN	17	1	17	2	121	221	321	NaN	521	0.257327334024012	1	1	NaN	3290635.5143468	NaN	3290636.4977126	3290637.01429107
79	20	0	0	90	36.1581920903955	36.241610738255	16	0.533407744169235	2	10	3	NaN	2	5	0.0351553496624043	1	1	NaN	18	1	18	2	121	221	321	NaN	521	0.977828331291676	2	1	NaN	3290638.0978985	NaN	3290639.0813304	3290639.59786847
79	20	0	0	90	36.1581920903955	36.241610738255	24	0.800111616253853	2	12	2	NaN	2	5	0.0351553496624043	1	1	NaN	19	1	19	2	121	221	321	NaN	521	0.541456745937467	2	1	NaN	3290641.3982664	NaN	3290642.3816287	3290642.89820975
79	20	0	0	90	36.1581920903955	36.241610738255	18	0.60008371219039	2	2	2	NaN	1	3	0.0351553496624043	1	1	NaN	20	1	20	2	121	221	321	NaN	521	1.12296258285642	2	0	NaN	3290644.2652582	NaN	3290645.2486006	3290645.76515052
79	20	0	0	90	36.1581920903955	36.241610738255	12	0.400055808126926	2	9	5	NaN	2	4	0.0351553496624043	1	1	NaN	21	1	21	2	121	221	321	NaN	521	1.60019328258932	2	1	NaN	3290647.7154142	NaN	3290648.698946	3290649.21548562
79	20	0	0	90	36.1581920903955	36.241610738255	24	0.800111616253853	2	6	6	NaN	1	3	0.0351553496624043	1	1	NaN	22	1	22	2	121	221	321	NaN	521	0.0103925340808928	1	1	NaN	3290651.6325851	NaN	3290652.616001	3290653.13254897
79	20	0	0	90	36.1581920903955	36.241610738255	9	0.300041856095195	2	11	5	NaN	2	3	0.0351553496624043	1	1	NaN	23	1	23	2	121	221	321	NaN	521	0.573607185389847	2	1	NaN	3290653.9661622	NaN	3290654.9496367	3290655.46609891
79	20	0	0	90	36.1581920903955	36.241610738255	24	0.800111616253853	2	4	2	NaN	1	4	0.0351553496624043	1	1	NaN	24	1	24	2	121	221	321	NaN	521	1.19411673443392	1	1	NaN	3290656.8497694	NaN	3290657.8331721	3290658.34972747
79	20	0	0	90	36.1581920903955	36.241610738255	15	0.500069760158658	2	5	4	NaN	1	4	0.0351553496624043	1	1	NaN	25	1	25	2	121	221	321	NaN	521	3.49289618292823	2	0	NaN	3290660.3667959	NaN	3290661.3501985	3290661.86672972
79	20	0	0	90	36.1581920903955	36.241610738255	16	0.533407744169235	2	7	2	NaN	2	5	0.0351553496624043	1	1	NaN	26	1	26	2	121	221	321	NaN	521	0.308094434440136	2	1	NaN	3290666.1840455	NaN	3290667.1674354	3290667.68396887
79	20	0	0	90	36.1581920903955	36.241610738255	7	0.23336588807404	2	2	5	NaN	1	3	0.0351553496624043	1	1	NaN	27	1	27	2	121	221	321	NaN	521	1.2980700340122	2	0	NaN	3290668.8176182	NaN	3290669.8009951	3290670.31756717
79	20	0	0	90	36.1581920903955	36.241610738255	16	0.533407744169235	2	5	5	NaN	1	4	0.0351553496624043	1	1	NaN	28	1	28	2	121	221	321	NaN	521	0.217448482755572	2	0	NaN	3290672.4346524	NaN	3290673.4180438	3290673.93459362
79	20	0	0	90	36.1581920903955	36.241610738255	14	0.466731776148081	2	8	4	NaN	2	3	0.0351553496624043	1	1	NaN	29	1	29	2	121	221	321	NaN	521	1.0917476345785	1	0	NaN	3290674.9682273	NaN	3290675.9516126	3290676.46817257
79	20	0	0	90	36.1581920903955	36.241610738255	7	0.23336588807404	2	10	2	NaN	2	4	0.0351553496624043	1	1	NaN	30	1	30	2	121	221	321	NaN	521	0.491464982740581	2	1	NaN	3290678.3685288	NaN	3290679.35196	3290679.86850192
79	20	0	0	90	36.1581920903955	36.241610738255	13	0.433393792137504	2	3	6	NaN	1	5	0.0351553496624043	1	1	NaN	31	1	31	2	121	221	321	NaN	521	0.0103773856535554	1	1	NaN	3290681.1855303	NaN	3290682.1688732	3290682.68544951
79	20	0	0	90	36.1581920903955	36.241610738255	21	0.700097664222121	2	5	1	NaN	1	5	0.0351553496624043	1	1	NaN	32	1	32	2	121	221	321	NaN	521	0.644530382473022	1	1	NaN	3290683.5190906	NaN	3290684.5025039	3290685.01901412
79	20	0	0	90	36.1581920903955	36.241610738255	22	0.733435648232698	2	4	6	NaN	1	3	0.0351553496624043	1	1	NaN	33	1	33	2	121	221	321	NaN	521	0.237848834134638	1	1	NaN	3290686.48591	NaN	3290687.4694641	3290687.98597907
79	20	0	0	90	36.1581920903955	36.241610738255	17	0.566745728179812	2	2	6	NaN	1	5	0.0351553496624043	1	1	NaN	34	1	34	2	121	221	321	NaN	521	0.231556082610041	1	1	NaN	3290689.036316	NaN	3290690.0196643	3290690.53621742
79	20	0	0	90	36.1581920903955	36.241610738255	10	0.333379840105772	2	3	5	NaN	1	4	0.0351553496624043	1	1	NaN	35	1	35	2	121	221	321	NaN	521	0.713084434624761	1	1	NaN	3290691.5865267	NaN	3290692.5699588	3290693.08647357
79	20	0	0	90	36.1581920903955	36.241610738255	10	0.333379840105772	2	4	2	NaN	1	3	0.0351553496624043	1	1	NaN	36	1	36	2	121	221	321	NaN	521	0.0104413824155927	2	0	NaN	3290694.620148	NaN	3290695.603554	3290696.12010742
79	20	0	0	90	36.1581920903955	36.241610738255	10	0.333379840105772	2	1	5	NaN	1	5	0.0351553496624043	1	1	NaN	37	1	37	2	121	221	321	NaN	521	0.257790334057063	2	0	NaN	3290696.9537272	NaN	3290697.9371106	3290698.45366957
79	20	0	0	90	36.1581920903955	36.241610738255	19	0.633421696200967	2	1	2	NaN	1	4	0.0351553496624043	1	1	NaN	38	1	38	2	121	221	321	NaN	521	0.859241682570428	2	0	NaN	3290699.520615	NaN	3290700.5040366	3290701.02058092
79	20	0	0	90	36.1581920903955	36.241610738255	8	0.266703872084618	2	11	6	NaN	2	3	0.0351553496624043	1	1	NaN	39	1	39	2	121	221	321	NaN	521	0.27611473435536	2	1	NaN	3290702.6876111	NaN	3290703.6710089	3290704.18756557
79	20	0	0	90	36.1581920903955	36.241610738255	8	0.266703872084618	2	8	5	NaN	2	3	0.0351553496624043	1	1	NaN	40	1	40	2	121	221	321	NaN	521	3.74896818259731	2	1	NaN	3290705.2711383	NaN	3290706.2546353	3290706.77114822
79	20	0	0	90	36.1581920903955	36.241610738255	16	0.533407744169235	2	2	6	NaN	1	3	0.0351553496624043	1	1	NaN	41	1	41	2	121	221	321	NaN	521	1.07315738219768	2	0	NaN	3290711.3384706	NaN	3290712.3218837	3290712.83841402
79	20	0	0	90	36.1581920903955	36.241610738255	18	0.60008371219039	2	5	3	NaN	1	3	0.0351553496624043	1	1	NaN	42	1	42	2	121	221	321	NaN	521	0.953595482744277	2	0	NaN	3290714.7219935	NaN	3290715.7055578	3290716.22207962
79	20	0	0	90	36.1581920903955	36.241610738255	17	0.566745728179812	2	11	6	NaN	2	3	0.0351553496624043	1	1	NaN	43	1	43	2	121	221	321	NaN	521	0.566201434470713	2	1	NaN	3290718.0057919	NaN	3290718.9891873	3290719.50573777
79	20	0	0	90	36.1581920903955	36.241610738255	23	0.766773632243276	2	3	4	NaN	1	4	0.0351553496624043	1	1	NaN	44	1	44	2	121	221	321	NaN	521	1.2187147825025	2	0	NaN	3290720.8893972	NaN	3290721.8727895	3290722.38934932
79	20	0	0	90	36.1581920903955	36.241610738255	10	0.333379840105772	2	9	1	NaN	2	3	0.0351553496624043	1	1	NaN	45	1	45	2	121	221	321	NaN	521	0.0103427884168923	2	1	NaN	3290724.4230353	NaN	3290725.4065309	3290725.92303811
79	20	0	0	90	36.1581920903955	36.241610738255	21	0.700097664222121	2	6	1	NaN	1	4	0.0351553496624043	1	1	NaN	46	1	46	2	121	221	321	NaN	521	1.25567848235369	2	0	NaN	3290726.7399855	NaN	3290727.7233846	3290728.23992612
79	20	0	0	90	36.1581920903955	36.241610738255	8	0.266703872084618	2	9	1	NaN	2	3	0.0351553496624043	1	1	NaN	47	1	47	2	121	221	321	NaN	521	0.010390433948487	2	1	NaN	3290730.3070943	NaN	3290731.2904448	3290731.80695137
79	20	0	0	90	36.1581920903955	36.241610738255	12	0.400055808126926	2	3	2	NaN	1	4	0.0351553496624043	1	1	NaN	48	1	48	2	121	221	321	NaN	521	0.755874482449144	2	0	NaN	3290732.6239095	NaN	3290733.6073097	3290734.12384252
79	20	0	0	90	36.1581920903955	36.241610738255	7	0.23336588807404	2	3	6	NaN	1	3	0.0351553496624043	1	1	NaN	49	1	49	2	121	221	321	NaN	521	0.265045085456222	1	1	NaN	3290735.6908623	NaN	3290736.6742287	3290737.19081091
79	20	0	0	90	36.1581920903955	36.241610738255	23	0.766773632243276	2	6	3	NaN	1	5	0.0351553496624043	1	1	NaN	50	1	50	2	121	221	321	NaN	521	0.713385282550007	1	1	NaN	3290738.274321	NaN	3290739.2578562	3290739.77440462
79	20	0	0	90	36.1581920903955	36.241610738255	14	0.466731776148081	2	11	6	NaN	2	3	0.0351553496624043	1	1	NaN	51	1	51	2	121	221	321	NaN	521	0.256120485719293	2	1	NaN	3290741.3080882	NaN	3290742.291475	3290742.80803871
79	20	0	0	90	36.1581920903955	36.241610738255	10	0.333379840105772	2	2	3	NaN	1	3	0.0351553496624043	1	1	NaN	52	1	52	2	121	221	321	NaN	521	0.672868582420051	1	1	NaN	3290743.8748716	NaN	3290744.858397	3290745.37494552
79	20	0	0	90	36.1581920903955	36.241610738255	18	0.60008371219039	2	3	2	NaN	1	4	0.0351553496624043	1	1	NaN	53	1	53	2	121	221	321	NaN	521	0.897538834251463	1	1	NaN	3290746.8586262	NaN	3290747.8420188	3290748.35857917
79	20	0	0	90	36.1581920903955	36.241610738255	23	0.766773632243276	2	8	1	NaN	2	5	0.0351553496624043	1	1	NaN	54	1	54	2	121	221	321	NaN	521	0.424649082589895	2	1	NaN	3290750.0755898	NaN	3290751.0590359	3290751.57555872
79	20	0	0	90	36.1581920903955	36.241610738255	13	0.433393792137504	2	2	4	NaN	1	3	0.0351553496624043	1	1	NaN	55	1	55	2	121	221	321	NaN	521	0.627093482296914	1	1	NaN	3290752.809179	NaN	3290753.7925956	3290754.30915852
79	20	0	0	90	36.1581920903955	36.241610738255	20	0.666759680211544	2	5	2	NaN	1	5	0.0351553496624043	1	1	NaN	56	1	56	2	121	221	321	NaN	521	0.301032482646406	2	0	NaN	3290755.742837	NaN	3290756.7262457	3290757.24278602
79	20	0	0	90	36.1581920903955	36.241610738255	21	0.700097664222121	2	3	1	NaN	1	5	0.0351553496624043	1	1	NaN	57	1	57	2	121	221	321	NaN	521	0.820130485109985	1	1	NaN	3290758.3596235	NaN	3290759.3431788	3290759.85971781
79	20	0	0	90	36.1581920903955	36.241610738255	9	0.300041856095195	2	8	2	NaN	2	5	0.0351553496624043	1	1	NaN	58	1	58	2	121	221	321	NaN	521	0.246726085431874	2	1	NaN	3290761.4934019	NaN	3290762.4767908	3290762.99335441
79	20	0	0	90	36.1581920903955	36.241610738255	8	0.266703872084618	2	7	4	NaN	2	5	0.0351553496624043	1	1	NaN	59	1	59	2	121	221	321	NaN	521	0.103907134383917	1	0	NaN	3290764.0436587	NaN	3290765.0270525	3290765.54360437
79	20	0	0	90	36.1581920903955	36.241610738255	17	0.566745728179812	2	10	2	NaN	2	3	0.0351553496624043	1	1	NaN	60	1	60	2	121	221	321	NaN	521	1.03940928261727	2	1	NaN	3290766.4605171	NaN	3290767.4439549	3290767.96050622
79	20	0	0	90	36.1581920903955	36.241610738255	19	0.633421696200967	2	3	2	NaN	1	3	0.0351553496624043	1	1	NaN	61	1	61	2	121	221	321	NaN	521	0.585300985723734	1	1	NaN	3290769.8108877	NaN	3290770.794308	3290771.31084011
79	20	0	0	90	36.1581920903955	36.241610738255	12	0.400055808126926	2	4	1	NaN	1	5	0.0351553496624043	1	1	NaN	62	1	62	2	121	221	321	NaN	521	0.500595883000642	1	1	NaN	3290772.7111149	NaN	3290773.6945732	3290774.21112032
79	20	0	0	90	36.1581920903955	36.241610738255	17	0.566745728179812	2	12	6	NaN	2	5	0.0351553496624043	1	1	NaN	63	1	63	2	121	221	321	NaN	521	0.260221685748547	1	0	NaN	3290775.5279951	NaN	3290776.5114902	3290777.02806801
79	20	0	0	90	36.1581920903955	36.241610738255	25	0.83344960026443	2	12	5	NaN	2	5	0.0351553496624043	1	1	NaN	64	2	1	2	121	221	321	NaN	521	0.0104220854118466	1	0	NaN	3290782.6120098	NaN	3290783.5955585	3290784.11210451
79	20	0	0	90	36.1581920903955	36.241610738255	23	0.766773632243276	2	1	5	NaN	1	4	0.0351553496624043	1	1	NaN	65	2	2	2	121	221	321	NaN	521	0.754610082600266	1	1	NaN	3290784.94569	NaN	3290785.9291116	3290786.44566162
79	20	0	0	90	36.1581920903955	36.241610738255	13	0.433393792137504	2	2	1	NaN	1	3	0.0351553496624043	1	1	NaN	66	2	3	2	121	221	321	NaN	521	2.70366528537124	2	0	NaN	3290788.0125495	NaN	3290788.9960897	3290789.51264931
79	20	0	0	90	36.1581920903955	36.241610738255	17	0.566745728179812	2	3	5	NaN	1	3	0.0351553496624043	1	1	NaN	67	2	4	2	121	221	321	NaN	521	1.58992878254503	1	1	NaN	3290793.0298407	NaN	3290794.0132338	3290794.52978512
79	20	0	0	90	36.1581920903955	36.241610738255	8	0.266703872084618	2	10	6	NaN	2	3	0.0351553496624043	1	1	NaN	68	2	5	2	121	221	321	NaN	521	0.425683997105807	2	1	NaN	3290796.9302245	NaN	3290797.9136886	3290798.4301739
79	20	0	0	90	36.1581920903955	36.241610738255	22	0.733435648232698	2	8	4	NaN	2	4	0.0351553496624043	1	1	NaN	69	2	6	2	121	221	321	NaN	521	2.20241808239371	2	1	NaN	3290800.0970696	NaN	3290801.0806061	3290801.59717822
79	20	0	0	90	36.1581920903955	36.241610738255	13	0.433393792137504	2	10	1	NaN	2	3	0.0351553496624043	1	1	NaN	70	2	7	2	121	221	321	NaN	521	0.997670334298164	1	0	NaN	3290804.6142083	NaN	3290805.5977057	3290806.11426317
79	20	0	0	90	36.1581920903955	36.241610738255	18	0.60008371219039	2	6	3	NaN	1	4	0.0351553496624043	1	1	NaN	71	2	8	2	121	221	321	NaN	521	0.312827276997268	1	1	NaN	3290807.931172	NaN	3290808.9146852	3290809.43124872
79	20	0	0	90	36.1581920903955	36.241610738255	24	0.800111616253853	2	3	1	NaN	1	5	0.0351553496624043	1	1	NaN	72	2	9	2	121	221	321	NaN	521	0.010393834207207	1	1	NaN	3290810.5649093	NaN	3290811.5482972	3290812.06484827
79	20	0	0	90	36.1581920903955	36.241610738255	11	0.366717824116349	2	6	1	NaN	1	3	0.0351553496624043	1	1	NaN	73	2	10	2	121	221	321	NaN	521	0.985522528644651	1	1	NaN	3290812.8984476	NaN	3290813.8818643	3290814.39841267
79	20	0	0	90	36.1581920903955	36.241610738255	21	0.700097664222121	2	11	1	NaN	2	4	0.0351553496624043	1	1	NaN	74	2	11	2	121	221	321	NaN	521	1.04554433422163	2	1	NaN	3290816.1987894	NaN	3290817.1821999	3290817.69873637
79	20	0	0	90	36.1581920903955	36.241610738255	24	0.800111616253853	2	2	1	NaN	1	5	0.0351553496624043	1	1	NaN	75	2	12	2	121	221	321	NaN	521	0.334632634185255	2	0	NaN	3290819.5657822	NaN	3290820.5491841	3290821.06573577
79	20	0	0	90	36.1581920903955	36.241610738255	0	0	1	4	4	NaN	1	5	0.0351553496624043	1	1	NaN	76	2	13	2	111	211	311	NaN	511	0.619721685536206	2	0	NaN	3290822.2160539	NaN	3290823.199492	3290823.71600041
79	20	0	0	90	36.1581920903955	36.241610738255	21	0.700097664222121	2	9	5	NaN	2	4	0.0351553496624043	1	1	NaN	77	2	14	2	121	221	321	NaN	521	0.0143079338595271	2	1	NaN	3290825.1496619	NaN	3290826.1330591	3290826.64963997
79	20	0	0	90	36.1581920903955	36.241610738255	9	0.300041856095195	2	3	3	NaN	1	4	0.0351553496624043	1	1	NaN	78	2	15	2	121	221	321	NaN	521	1.2895521344617	1	1	NaN	3290827.4665484	NaN	3290828.4499546	3290828.96650627
79	20	0	0	90	36.1581920903955	36.241610738255	24	0.800111616253853	2	6	2	NaN	1	4	0.0351553496624043	1	1	NaN	79	2	16	2	121	221	321	NaN	521	0.328814731445163	1	1	NaN	3290831.0669189	NaN	3290832.0503144	3290832.56686967
79	20	0	0	90	36.1581920903955	36.241610738255	11	0.366717824116349	2	1	4	NaN	1	4	0.0351553496624043	1	1	NaN	80	2	17	2	121	221	321	NaN	521	0.503802733961493	1	1	NaN	3290833.7003838	NaN	3290834.6839234	3290835.20045667
79	20	0	0	90	36.1581920903955	36.241610738255	8	0.266703872084618	2	3	3	NaN	1	3	0.0351553496624043	1	1	NaN	81	2	18	2	121	221	321	NaN	521	0.366975831333548	1	1	NaN	3290836.5174229	NaN	3290837.5008527	3290838.01739397
79	20	0	0	90	36.1581920903955	36.241610738255	17	0.566745728179812	2	9	2	NaN	2	5	0.0351553496624043	1	1	NaN	82	2	19	2	121	221	321	NaN	521	0.603597933892161	1	0	NaN	3290839.1843875	NaN	3290840.1677687	3290840.68432947
79	20	0	0	90	36.1581920903955	36.241610738255	10	0.333379840105772	2	6	6	NaN	1	5	0.0351553496624043	1	1	NaN	83	2	20	2	121	221	321	NaN	521	0.406569534447044	1	1	NaN	3290842.1013198	NaN	3290843.0847327	3290843.60128747
79	20	0	0	90	36.1581920903955	36.241610738255	6	0.200027904063463	2	9	4	NaN	2	4	0.0351553496624043	1	1	NaN	84	2	21	2	121	221	321	NaN	521	0.569752785377204	2	1	NaN	3290844.8181678	NaN	3290845.8017049	3290846.31822151
79	20	0	0	90	36.1581920903955	36.241610738255	9	0.300041856095195	2	9	5	NaN	2	4	0.0351553496624043	1	1	NaN	85	2	22	2	121	221	321	NaN	521	0.59046883136034	1	0	NaN	3290847.7018719	NaN	3290848.6852732	3290849.20183737
79	20	0	0	90	36.1581920903955	36.241610738255	11	0.366717824116349	2	11	3	NaN	2	4	0.0351553496624043	1	1	NaN	86	2	23	2	121	221	321	NaN	521	0.55371323460713	2	1	NaN	3290850.6021691	NaN	3290851.5855603	3290852.10211927
79	20	0	0	90	36.1581920903955	36.241610738255	9	0.300041856095195	2	1	3	NaN	1	5	0.0351553496624043	1	1	NaN	87	2	24	2	121	221	321	NaN	521	0.55888708261773	1	1	NaN	3290853.4691057	NaN	3290854.4525162	3290854.96907112
79	20	0	0	90	36.1581920903955	36.241610738255	19	0.633421696200967	2	6	2	NaN	1	4	0.0351553496624043	1	1	NaN	88	2	25	2	121	221	321	NaN	521	0.988145428709686	1	1	NaN	3290856.3360675	NaN	3290857.3194664	3290857.83601647
79	20	0	0	90	36.1581920903955	36.241610738255	19	0.633421696200967	2	7	4	NaN	2	5	0.0351553496624043	1	1	NaN	89	2	26	2	121	221	321	NaN	521	1.56005368288606	2	1	NaN	3290859.6362373	NaN	3290860.6197892	3290861.13634422
79	20	0	0	90	36.1581920903955	36.241610738255	7	0.23336588807404	2	5	6	NaN	1	5	0.0351553496624043	1	1	NaN	90	2	27	2	121	221	321	NaN	521	0.0126343853771687	1	1	NaN	3290863.5034859	NaN	3290864.486866	3290865.00338281
79	20	0	0	90	36.1581920903955	36.241610738255	17	0.566745728179812	2	7	2	NaN	2	5	0.0351553496624043	1	1	NaN	91	2	28	2	121	221	321	NaN	521	0.655787182506174	1	0	NaN	3290865.8204248	NaN	3290866.8037357	3290867.32028012
79	20	0	0	90	36.1581920903955	36.241610738255	16	0.533407744169235	2	12	1	NaN	2	5	0.0351553496624043	1	1	NaN	92	2	29	2	121	221	321	NaN	521	0.448274634312838	2	1	NaN	3290868.8039783	NaN	3290869.7873512	3290870.30390727
79	20	0	0	90	36.1581920903955	36.241610738255	25	0.83344960026443	2	3	5	NaN	1	5	0.0351553496624043	1	1	NaN	93	2	30	2	121	221	321	NaN	521	0.496832434553653	2	0	NaN	3290871.5708647	NaN	3290872.5542857	3290873.07085137
79	20	0	0	90	36.1581920903955	36.241610738255	20	0.666759680211544	2	1	4	NaN	1	4	0.0351553496624043	1	1	NaN	94	2	31	2	121	221	321	NaN	521	0.664540682919323	1	1	NaN	3290874.3878485	NaN	3290875.3712273	3290875.88779122
79	20	0	0	90	36.1581920903955	36.241610738255	23	0.766773632243276	2	5	4	NaN	1	4	0.0351553496624043	1	1	NaN	95	2	32	2	121	221	321	NaN	521	0.264481534250081	1	1	NaN	3290877.3714605	NaN	3290878.3548505	3290878.87142357
79	20	0	0	90	36.1581920903955	36.241610738255	8	0.266703872084618	2	12	3	NaN	2	4	0.0351553496624043	1	1	NaN	96	2	33	2	121	221	321	NaN	521	0.0103911343030632	2	1	NaN	3290879.9550605	NaN	3290880.938461	3290881.45500407
79	20	0	0	90	36.1581920903955	36.241610738255	14	0.466731776148081	2	1	3	NaN	1	3	0.0351553496624043	1	1	NaN	97	2	34	2	121	221	321	NaN	521	0.835497582796961	1	1	NaN	3290882.2886135	NaN	3290883.2720273	3290883.78856512
79	20	0	0	90	36.1581920903955	36.241610738255	7	0.23336588807404	2	3	4	NaN	1	4	0.0351553496624043	1	1	NaN	98	2	35	2	121	221	321	NaN	521	1.08505473425612	1	1	NaN	3290885.4389324	NaN	3290886.4223323	3290886.93888157
79	20	0	0	90	36.1581920903955	36.241610738255	13	0.433393792137504	2	8	1	NaN	2	4	0.0351553496624043	1	1	NaN	99	2	36	2	121	221	321	NaN	521	0.66873638285324	2	1	NaN	3290888.8392923	NaN	3290889.82265	3290890.33921222
79	20	0	0	90	36.1581920903955	36.241610738255	6	0.200027904063463	2	12	5	NaN	2	5	0.0351553496624043	1	1	NaN	100	2	37	2	121	221	321	NaN	521	0.797077782452106	2	1	NaN	3290891.8227466	NaN	3290892.8062845	3290893.32283392
79	20	0	0	90	36.1581920903955	36.241610738255	19	0.633421696200967	2	10	2	NaN	2	3	0.0351553496624043	1	1	NaN	101	2	38	2	121	221	321	NaN	521	0.40117258252576	2	1	NaN	3290894.923062	NaN	3290895.9065976	3290896.42315052
79	20	0	0	90	36.1581920903955	36.241610738255	7	0.23336588807404	2	11	4	NaN	2	3	0.0351553496624043	1	1	NaN	102	2	39	2	121	221	321	NaN	521	2.40387443453074	2	1	NaN	3290897.6401289	NaN	3290898.6235285	3290899.14007577
79	20	0	0	90	36.1581920903955	36.241610738255	17	0.566745728179812	2	2	1	NaN	1	4	0.0351553496624043	1	1	NaN	103	2	40	2	121	221	321	NaN	521	0.798680582549423	1	1	NaN	3290902.3572291	NaN	3290903.340662	3290903.85720552
79	20	0	0	90	36.1581920903955	36.241610738255	16	0.533407744169235	2	11	2	NaN	2	4	0.0351553496624043	1	1	NaN	104	2	41	2	121	221	321	NaN	521	0.8826446342282	1	0	NaN	3290905.4575673	NaN	3290906.4409572	3290906.95752257
79	20	0	0	90	36.1581920903955	36.241610738255	11	0.366717824116349	2	12	1	NaN	2	3	0.0351553496624043	1	1	NaN	105	2	42	2	121	221	321	NaN	521	0.266571882646531	2	1	NaN	3290908.6577641	NaN	3290909.6412938	3290910.15783052
79	20	0	0	90	36.1581920903955	36.241610738255	20	0.666759680211544	2	2	3	NaN	1	3	0.0351553496624043	1	1	NaN	106	2	43	2	121	221	321	NaN	521	0.730492182541639	2	0	NaN	3290911.2413494	NaN	3290912.2249038	3290912.74141042
79	20	0	0	90	36.1581920903955	36.241610738255	25	0.83344960026443	2	7	2	NaN	2	5	0.0351553496624043	1	1	NaN	107	2	44	2	121	221	321	NaN	521	0.0103743853978813	1	0	NaN	3290914.2917763	NaN	3290915.2751678	3290915.79172041
79	20	0	0	90	36.1581920903955	36.241610738255	9	0.300041856095195	2	6	2	NaN	1	4	0.0351553496624043	1	1	NaN	108	2	45	2	121	221	321	NaN	521	0.890611982438713	2	0	NaN	3290916.6253587	NaN	3290917.6087324	3290918.12527312
79	20	0	0	90	36.1581920903955	36.241610738255	11	0.366717824116349	2	2	4	NaN	1	4	0.0351553496624043	1	1	NaN	109	2	46	2	121	221	321	NaN	521	0.922496334183961	1	1	NaN	3290919.8255024	NaN	3290920.8090488	3290921.32561547
79	20	0	0	90	36.1581920903955	36.241610738255	23	0.766773632243276	2	9	4	NaN	2	5	0.0351553496624043	1	1	NaN	110	2	47	2	121	221	321	NaN	521	0.010342787951231	2	1	NaN	3290923.0592989	NaN	3290924.0426728	3290924.55925581
79	20	0	0	90	36.1581920903955	36.241610738255	10	0.333379840105772	2	12	1	NaN	2	3	0.0351553496624043	1	1	NaN	111	2	48	2	121	221	321	NaN	521	0.988192934077233	2	1	NaN	3290925.3760604	NaN	3290926.359611	3290926.87614447
79	20	0	0	90	36.1581920903955	36.241610738255	16	0.533407744169235	2	7	5	NaN	2	4	0.0351553496624043	1	1	NaN	112	2	49	2	121	221	321	NaN	521	0.751498382538557	2	1	NaN	3290928.6763854	NaN	3290929.6599207	3290930.17646072
79	20	0	0	90	36.1581920903955	36.241610738255	7	0.23336588807404	2	8	3	NaN	2	4	0.0351553496624043	1	1	NaN	113	2	50	2	121	221	321	NaN	521	0.364639982581139	2	1	NaN	3290931.7434887	NaN	3290932.726887	3290933.24343262
79	20	0	0	90	36.1581920903955	36.241610738255	7	0.23336588807404	2	11	6	NaN	2	5	0.0351553496624043	1	1	NaN	114	2	51	2	121	221	321	NaN	521	2.05708679417148	2	1	NaN	3290934.6271023	NaN	3290935.6104944	3290936.12705081
79	20	0	0	90	36.1581920903955	36.241610738255	23	0.766773632243276	2	7	6	NaN	2	3	0.0351553496624043	1	1	NaN	115	2	52	2	121	221	321	NaN	521	0.769949182868004	2	1	NaN	3290938.9942537	NaN	3290939.9776287	3290940.49415152
79	20	0	0	90	36.1581920903955	36.241610738255	13	0.433393792137504	2	7	6	NaN	2	3	0.0351553496624043	1	1	NaN	116	2	53	2	121	221	321	NaN	521	0.758756934199482	2	1	NaN	3290942.077831	NaN	3290943.0612322	3290943.57778497
79	20	0	0	90	36.1581920903955	36.241610738255	18	0.60008371219039	2	2	5	NaN	1	4	0.0351553496624043	1	1	NaN	117	2	54	2	121	221	321	NaN	521	0.563813182525337	2	0	NaN	3290945.1448234	NaN	3290946.1282057	3290946.64475592
79	20	0	0	90	36.1581920903955	36.241610738255	13	0.433393792137504	2	5	3	NaN	1	5	0.0351553496624043	1	1	NaN	118	2	55	2	121	221	321	NaN	521	1.90340353408828	1	1	NaN	3290948.0284252	NaN	3290949.0118231	3290949.52836977
79	20	0	0	90	36.1581920903955	36.241610738255	19	0.633421696200967	2	8	6	NaN	2	5	0.0351553496624043	1	1	NaN	119	2	56	2	121	221	321	NaN	521	0.566495234146714	1	0	NaN	3290952.2454973	NaN	3290953.2289008	3290953.74545817
79	20	0	0	90	36.1581920903955	36.241610738255	21	0.700097664222121	2	5	5	NaN	1	4	0.0351553496624043	1	1	NaN	120	2	57	2	121	221	321	NaN	521	1.03617843426764	2	0	NaN	3290955.2956795	NaN	3290956.2792014	3290956.79575267
79	20	0	0	90	36.1581920903955	36.241610738255	18	0.60008371219039	2	10	4	NaN	2	4	0.0351553496624043	1	1	NaN	121	2	58	2	121	221	321	NaN	521	1.16597688244656	2	1	NaN	3290958.6461399	NaN	3290959.6295266	3290960.14607362
79	20	0	0	90	36.1581920903955	36.241610738255	12	0.400055808126926	2	5	1	NaN	1	5	0.0351553496624043	1	1	NaN	122	2	59	2	121	221	321	NaN	521	0.746523245703429	2	0	NaN	3290962.1298093	NaN	3290963.1132039	3290963.62976515
79	20	0	0	90	36.1581920903955	36.241610738255	18	0.60008371219039	2	4	6	NaN	1	4	0.0351553496624043	1	1	NaN	123	2	60	2	121	221	321	NaN	521	0.735256534535438	2	0	NaN	3290965.1967886	NaN	3290966.1801751	3290966.69672257
79	20	0	0	90	36.1581920903955	36.241610738255	8	0.266703872084618	2	4	2	NaN	1	4	0.0351553496624043	1	1	NaN	124	2	61	2	121	221	321	NaN	521	0.55707498267293	1	1	NaN	3290968.2470786	NaN	3290969.23056	3290969.74701752
79	20	0	0	90	36.1581920903955	36.241610738255	7	0.23336588807404	2	1	2	NaN	1	5	0.0351553496624043	1	1	NaN	125	2	62	2	121	221	321	NaN	521	0.226087382528931	1	1	NaN	3290971.113894	NaN	3290972.0973937	3290972.61396922
79	20	0	0	90	36.1581920903955	36.241610738255	18	0.60008371219039	2	7	3	NaN	2	3	0.0351553496624043	1	1	NaN	126	2	63	2	121	221	321	NaN	521	1.3484903825447	2	1	NaN	3290973.6476145	NaN	3290974.6310102	3290975.14755892
79	20	0	0	90	36.1581920903955	36.241610738255	21	0.700097664222121	2	10	5	NaN	2	3	0.0351553496624043	1	1	NaN	127	3	1	2	121	221	321	NaN	521	0.322058934252709	2	1	NaN	3290992.8661358	NaN	3290993.8495548	3290994.36611737
79	20	0	0	90	36.1581920903955	36.241610738255	13	0.433393792137504	2	6	6	NaN	1	3	0.0351553496624043	1	1	NaN	128	3	2	2	121	221	321	NaN	521	1.32163897389546	2	0	NaN	3290995.6664209	NaN	3290996.6498402	3290997.16637903
79	20	0	0	90	36.1581920903955	36.241610738255	9	0.300041856095195	2	6	2	NaN	1	4	0.0351553496624043	1	1	NaN	129	3	3	2	121	221	321	NaN	521	0.448487634304911	1	1	NaN	3290999.300154	NaN	3291000.2835238	3291000.80007447
79	20	0	0	90	36.1581920903955	36.241610738255	13	0.433393792137504	2	3	4	NaN	1	3	0.0351553496624043	1	1	NaN	130	3	4	2	121	221	321	NaN	521	0.385081082582474	1	1	NaN	3291002.0670703	NaN	3291003.0504807	3291003.56701742
79	20	0	0	90	36.1581920903955	36.241610738255	18	0.60008371219039	2	12	4	NaN	2	5	0.0351553496624043	1	1	NaN	131	3	5	2	121	221	321	NaN	521	0.684658334124833	2	1	NaN	3291004.7673381	NaN	3291005.7507794	3291006.26727797
79	20	0	0	90	36.1581920903955	36.241610738255	18	0.60008371219039	2	12	3	NaN	2	3	0.0351553496624043	1	1	NaN	132	3	6	2	121	221	321	NaN	521	0.508648682385683	1	0	NaN	3291007.7676303	NaN	3291008.751044	3291009.26758122
79	20	0	0	90	36.1581920903955	36.241610738255	14	0.466731776148081	2	4	3	NaN	1	3	0.0351553496624043	1	1	NaN	133	3	7	2	121	221	321	NaN	521	0.475048485677689	1	1	NaN	3291010.6012396	NaN	3291011.5846453	3291012.10119601
79	20	0	0	90	36.1581920903955	36.241610738255	11	0.366717824116349	2	5	5	NaN	1	3	0.0351553496624043	1	1	NaN	134	3	8	2	121	221	321	NaN	521	0.763280582614243	1	1	NaN	3291013.3848545	NaN	3291014.3682533	3291014.88479782
79	20	0	0	90	36.1581920903955	36.241610738255	14	0.466731776148081	2	5	5	NaN	1	4	0.0351553496624043	1	1	NaN	135	3	9	2	121	221	321	NaN	521	0.58361943392083	2	0	NaN	3291016.468486	NaN	3291017.4519034	3291017.96843597
79	20	0	0	90	36.1581920903955	36.241610738255	15	0.500069760158658	2	12	2	NaN	2	3	0.0351553496624043	1	1	NaN	136	3	10	2	121	221	321	NaN	521	1.37162379687652	2	1	NaN	3291019.3687901	NaN	3291020.3521769	3291020.8687304
79	20	0	0	90	36.1581920903955	36.241610738255	0	0	1	4	1	NaN	1	3	0.0351553496624043	1	1	NaN	137	3	11	2	111	211	311	NaN	511	0.0558102885261178	1	1	NaN	3291023.0524658	NaN	3291024.0358774	3291024.55241701
79	20	0	0	90	36.1581920903955	36.241610738255	10	0.333379840105772	2	2	6	NaN	1	4	0.0351553496624043	1	1	NaN	138	3	12	2	121	221	321	NaN	521	1.26398548251018	1	1	NaN	3291025.8360421	NaN	3291026.8194762	3291027.33602782
79	20	0	0	90	36.1581920903955	36.241610738255	10	0.333379840105772	2	5	1	NaN	1	4	0.0351553496624043	1	1	NaN	139	3	13	2	121	221	321	NaN	521	0.416436933912337	1	1	NaN	3291029.4196316	NaN	3291030.403155	3291030.91970947
79	20	0	0	90	36.1581920903955	36.241610738255	14	0.466731776148081	2	5	1	NaN	1	3	0.0351553496624043	1	1	NaN	140	3	14	2	121	221	321	NaN	521	0.547229282557964	1	1	NaN	3291032.1533772	NaN	3291033.1367648	3291033.65330422
79	20	0	0	90	36.1581920903955	36.241610738255	16	0.533407744169235	2	6	1	NaN	1	4	0.0351553496624043	1	1	NaN	141	3	15	2	121	221	321	NaN	521	0.648139782715589	1	1	NaN	3291035.0203088	NaN	3291036.0037055	3291036.52026132
79	20	0	0	90	36.1581920903955	36.241610738255	10	0.333379840105772	2	1	5	NaN	1	5	0.0351553496624043	1	1	NaN	142	3	16	2	121	221	321	NaN	521	0.753038382623345	1	1	NaN	3291037.9872563	NaN	3291038.9706704	3291039.48721892
79	20	0	0	90	36.1581920903955	36.241610738255	19	0.633421696200967	2	11	1	NaN	2	5	0.0351553496624043	1	1	NaN	143	3	17	2	121	221	321	NaN	521	0.414107185322791	2	1	NaN	3291041.054259	NaN	3291042.0376295	3291042.55421051
79	20	0	0	90	36.1581920903955	36.241610738255	13	0.433393792137504	2	1	4	NaN	1	3	0.0351553496624043	1	1	NaN	144	3	18	2	121	221	321	NaN	521	0.449136982671916	1	1	NaN	3291043.7711551	NaN	3291044.7545883	3291045.27111452
79	20	0	0	90	36.1581920903955	36.241610738255	11	0.366717824116349	2	5	6	NaN	1	5	0.0351553496624043	1	1	NaN	145	3	19	2	121	221	321	NaN	521	0.7146015339531	1	1	NaN	3291046.5381099	NaN	3291047.5214944	3291048.03805977
79	20	0	0	90	36.1581920903955	36.241610738255	19	0.633421696200967	2	12	6	NaN	2	3	0.0351553496624043	1	1	NaN	146	3	20	2	121	221	321	NaN	521	0.456683879718184	2	1	NaN	3291049.5717485	NaN	3291050.5551382	3291051.07168692
79	20	0	0	90	36.1581920903955	36.241610738255	17	0.566745728179812	2	6	4	NaN	1	5	0.0351553496624043	1	1	NaN	147	3	21	2	121	221	321	NaN	521	0.713540285360068	1	1	NaN	3291052.3386691	NaN	3291053.3220773	3291053.83863201
79	20	0	0	90	36.1581920903955	36.241610738255	12	0.400055808126926	2	7	5	NaN	2	3	0.0351553496624043	1	1	NaN	148	3	22	2	121	221	321	NaN	521	0.288611446041614	2	1	NaN	3291055.3555188	NaN	3291056.3390483	3291056.85559575
79	20	0	0	90	36.1581920903955	36.241610738255	12	0.400055808126926	2	12	1	NaN	2	4	0.0351553496624043	1	1	NaN	149	3	23	2	121	221	321	NaN	521	0.608441882766783	2	1	NaN	3291057.9559208	NaN	3291058.9392869	3291059.45585322
79	20	0	0	90	36.1581920903955	36.241610738255	6	0.200027904063463	2	12	4	NaN	2	5	0.0351553496624043	1	1	NaN	150	3	24	2	121	221	321	NaN	521	0.731457782443613	2	1	NaN	3291060.8727217	NaN	3291061.8562619	3291062.37280062
79	20	0	0	90	36.1581920903955	36.241610738255	18	0.60008371219039	2	10	4	NaN	2	3	0.0351553496624043	1	1	NaN	151	3	25	2	121	221	321	NaN	521	0.272993233986199	2	1	NaN	3291063.9231514	NaN	3291064.9065559	3291065.42310447
79	20	0	0	90	36.1581920903955	36.241610738255	16	0.533407744169235	2	4	2	NaN	1	5	0.0351553496624043	1	1	NaN	152	3	26	2	121	221	321	NaN	521	0.929513031151146	2	0	NaN	3291066.5066047	NaN	3291067.4901424	3291068.00668887
79	20	0	0	90	36.1581920903955	36.241610738255	0	0	1	12	2	NaN	2	5	0.0351553496624043	1	1	NaN	153	3	27	2	111	211	311	NaN	511	0.703193734399974	2	1	NaN	3291069.7569442	NaN	3291070.7404666	3291071.25701147
79	20	0	0	90	36.1581920903955	36.241610738255	25	0.83344960026443	2	5	3	NaN	1	4	0.0351553496624043	1	1	NaN	154	3	28	2	121	221	321	NaN	521	0.294672782532871	1	1	NaN	3291072.7740293	NaN	3291073.7574215	3291074.27397462
79	20	0	0	90	36.1581920903955	36.241610738255	15	0.500069760158658	2	4	5	NaN	1	3	0.0351553496624043	1	1	NaN	155	3	29	2	121	221	321	NaN	521	0.565791334025562	1	1	NaN	3291075.3743104	NaN	3291076.3576689	3291076.87423087
79	20	0	0	90	36.1581920903955	36.241610738255	9	0.300041856095195	2	2	2	NaN	1	5	0.0351553496624043	1	1	NaN	156	3	30	2	121	221	321	NaN	521	0.290769834071398	1	1	NaN	3291078.2578797	NaN	3291079.2413315	3291079.75785257
79	20	0	0	90	36.1581920903955	36.241610738255	12	0.400055808126926	2	5	1	NaN	1	3	0.0351553496624043	1	1	NaN	157	3	31	2	121	221	321	NaN	521	0.610654233954847	1	1	NaN	3291080.8581566	NaN	3291081.841585	3291082.35810317
79	20	0	0	90	36.1581920903955	36.241610738255	6	0.200027904063463	2	5	4	NaN	1	4	0.0351553496624043	1	1	NaN	158	3	32	2	121	221	321	NaN	521	0.429237633943558	2	0	NaN	3291083.7750962	NaN	3291084.7584916	3291085.27506197
79	20	0	0	90	36.1581920903955	36.241610738255	22	0.733435648232698	2	7	4	NaN	2	5	0.0351553496624043	1	1	NaN	159	3	33	2	121	221	321	NaN	521	0.718932433985174	2	1	NaN	3291086.5252576	NaN	3291087.5087945	3291088.02531987
79	20	0	0	90	36.1581920903955	36.241610738255	24	0.800111616253853	2	3	1	NaN	1	5	0.0351553496624043	1	1	NaN	160	3	34	2	121	221	321	NaN	521	0.365211082622409	1	1	NaN	3291089.559034	NaN	3291090.5424127	3291091.05895372
79	20	0	0	90	36.1581920903955	36.241610738255	22	0.733435648232698	2	5	3	NaN	1	3	0.0351553496624043	1	1	NaN	161	3	35	2	121	221	321	NaN	521	0.737766734324396	1	1	NaN	3291092.242603	NaN	3291093.2259922	3291093.74255707
79	20	0	0	90	36.1581920903955	36.241610738255	20	0.666759680211544	2	5	2	NaN	1	4	0.0351553496624043	1	1	NaN	162	3	36	2	121	221	321	NaN	521	0.255841440055519	1	1	NaN	3291095.2929158	NaN	3291096.2763095	3291096.79285956
79	20	0	0	90	36.1581920903955	36.241610738255	21	0.700097664222121	2	7	1	NaN	2	3	0.0351553496624043	1	1	NaN	163	3	37	2	121	221	321	NaN	521	1.27275228220969	2	1	NaN	3291097.8597025	NaN	3291098.8431109	3291099.35977552
79	20	0	0	90	36.1581920903955	36.241610738255	7	0.23336588807404	2	9	6	NaN	2	4	0.0351553496624043	1	1	NaN	164	3	38	2	121	221	321	NaN	521	0.272945346310735	2	1	NaN	3291101.4433847	NaN	3291102.426946	3291102.94346215
79	20	0	0	90	36.1581920903955	36.241610738255	9	0.300041856095195	2	4	4	NaN	1	3	0.0351553496624043	1	1	NaN	165	3	39	2	121	221	321	NaN	521	0.297218282707036	2	0	NaN	3291104.0271002	NaN	3291105.0104935	3291105.52706752
79	20	0	0	90	36.1581920903955	36.241610738255	20	0.666759680211544	2	2	1	NaN	1	3	0.0351553496624043	1	1	NaN	166	3	40	2	121	221	321	NaN	521	0.575017082504928	2	0	NaN	3291106.677227	NaN	3291107.6607658	3291108.17730202
79	20	0	0	90	36.1581920903955	36.241610738255	22	0.733435648232698	2	6	1	NaN	1	4	0.0351553496624043	1	1	NaN	167	3	41	2	121	221	321	NaN	521	0.267456334549934	1	1	NaN	3291109.5609787	NaN	3291110.5444197	3291111.06092637
79	20	0	0	90	36.1581920903955	36.241610738255	17	0.566745728179812	2	1	4	NaN	1	3	0.0351553496624043	1	1	NaN	168	3	42	2	121	221	321	NaN	521	0.0838248827494681	2	0	NaN	3291112.1444305	NaN	3291113.1279438	3291113.64451322
79	20	0	0	90	36.1581920903955	36.241610738255	18	0.60008371219039	2	3	5	NaN	1	4	0.0351553496624043	1	1	NaN	169	3	43	2	121	221	321	NaN	521	0.0102982427924871	2	0	NaN	3291114.5447945	NaN	3291115.528173	3291116.04474776
79	20	0	0	90	36.1581920903955	36.241610738255	17	0.566745728179812	2	4	3	NaN	1	4	0.0351553496624043	1	1	NaN	170	3	44	2	121	221	321	NaN	521	0.0228485823608935	1	1	NaN	3291116.8615567	NaN	3291117.8450958	3291118.36164092
79	20	0	0	90	36.1581920903955	36.241610738255	6	0.200027904063463	2	2	2	NaN	1	5	0.0351553496624043	1	1	NaN	171	3	45	2	121	221	321	NaN	521	1.24105688510463	1	1	NaN	3291119.1952532	NaN	3291120.1786549	3291120.69520741
79	20	0	0	90	36.1581920903955	36.241610738255	15	0.500069760158658	2	10	1	NaN	2	4	0.0351553496624043	1	1	NaN	172	3	46	2	121	221	321	NaN	521	0.242588743101805	2	1	NaN	3291122.7455679	NaN	3291123.7290117	3291124.24555566
79	20	0	0	90	36.1581920903955	36.241610738255	7	0.23336588807404	2	10	4	NaN	2	3	0.0351553496624043	1	1	NaN	173	3	47	2	121	221	321	NaN	521	1.80494573432952	2	1	NaN	3291125.2958325	NaN	3291126.2792651	3291126.79580737
79	20	0	0	90	36.1581920903955	36.241610738255	12	0.400055808126926	2	2	5	NaN	1	5	0.0351553496624043	1	1	NaN	174	3	48	2	121	221	321	NaN	521	0.407844134606421	1	1	NaN	3291129.4129552	NaN	3291130.3963324	3291130.91287787
79	20	0	0	90	36.1581920903955	36.241610738255	14	0.466731776148081	2	2	1	NaN	1	4	0.0351553496624043	1	1	NaN	175	3	49	2	121	221	321	NaN	521	1.48254814883694	2	0	NaN	3291132.1298596	NaN	3291133.1132785	3291133.62981985
79	20	0	0	90	36.1581920903955	36.241610738255	24	0.800111616253853	2	9	3	NaN	2	5	0.0351553496624043	1	1	NaN	176	3	50	2	121	221	321	NaN	521	0.370242131408304	2	1	NaN	3291135.9301117	NaN	3291136.913641	3291137.43018277
79	20	0	0	90	36.1581920903955	36.241610738255	13	0.433393792137504	2	11	5	NaN	2	4	0.0351553496624043	1	1	NaN	177	3	51	2	121	221	321	NaN	521	1.17460333416238	2	1	NaN	3291138.6138324	NaN	3291139.5972544	3291140.11378317
79	20	0	0	90	36.1581920903955	36.241610738255	0	0	1	1	3	NaN	1	5	0.0351553496624043	1	1	NaN	178	3	52	2	111	211	311	NaN	511	0.563099182676524	1	1	NaN	3291142.0974015	NaN	3291143.0809095	3291143.59745422
79	20	0	0	90	36.1581920903955	36.241610738255	7	0.23336588807404	2	6	4	NaN	1	4	0.0351553496624043	1	1	NaN	179	3	53	2	121	221	321	NaN	521	0.295378882437944	1	1	NaN	3291144.9811198	NaN	3291145.9645508	3291146.48107042
79	20	0	0	90	36.1581920903955	36.241610738255	25	0.83344960026443	2	11	1	NaN	2	5	0.0351553496624043	1	1	NaN	180	3	54	2	121	221	321	NaN	521	2.44637153157964	2	1	NaN	3291147.598043	NaN	3291148.5814463	3291149.09799947
79	20	0	0	90	36.1581920903955	36.241610738255	21	0.700097664222121	2	1	6	NaN	1	5	0.0351553496624043	1	1	NaN	181	3	55	2	121	221	321	NaN	521	1.23149478295818	2	0	NaN	3291152.3651935	NaN	3291153.3485571	3291153.86513732
79	20	0	0	90	36.1581920903955	36.241610738255	7	0.23336588807404	2	1	2	NaN	1	3	0.0351553496624043	1	1	NaN	182	3	56	2	121	221	321	NaN	521	0.760870131198317	2	0	NaN	3291155.9155406	NaN	3291156.8989268	3291157.41547797
79	20	0	0	90	36.1581920903955	36.241610738255	8	0.266703872084618	2	6	5	NaN	1	3	0.0351553496624043	1	1	NaN	183	3	57	2	121	221	321	NaN	521	1.75724978232756	2	0	NaN	3291158.9991768	NaN	3291159.9826023	3291160.49912752
79	20	0	0	90	36.1581920903955	36.241610738255	19	0.633421696200967	2	5	1	NaN	1	4	0.0351553496624043	1	1	NaN	184	3	58	2	121	221	321	NaN	521	2.10626618284732	1	1	NaN	3291163.0662526	NaN	3291164.0497129	3291164.56618562
79	20	0	0	90	36.1581920903955	36.241610738255	11	0.366717824116349	2	7	4	NaN	2	3	0.0351553496624043	1	1	NaN	185	3	59	2	121	221	321	NaN	521	0.641037033870816	1	0	NaN	3291167.4833384	NaN	3291168.4667328	3291168.98329117
79	20	0	0	90	36.1581920903955	36.241610738255	13	0.433393792137504	2	10	6	NaN	2	5	0.0351553496624043	1	1	NaN	186	3	60	2	121	221	321	NaN	521	0.522822130937129	2	1	NaN	3291170.4336546	NaN	3291171.4170345	3291171.93358047
79	20	0	0	90	36.1581920903955	36.241610738255	13	0.433393792137504	2	4	4	NaN	1	5	0.0351553496624043	1	1	NaN	187	3	61	2	121	221	321	NaN	521	0.785346534103155	2	0	NaN	3291173.2672453	NaN	3291174.2506318	3291174.76719297
79	20	0	0	90	36.1581920903955	36.241610738255	24	0.800111616253853	2	2	6	NaN	1	4	0.0351553496624043	1	1	NaN	188	3	62	2	121	221	321	NaN	521	3.85323173459619	2	0	NaN	3291176.3675393	NaN	3291177.3509442	3291177.86750027
79	20	0	0	90	36.1581920903955	36.241610738255	14	0.466731776148081	2	9	6	NaN	2	3	0.0351553496624043	1	1	NaN	189	3	63	2	121	221	321	NaN	521	0.511973034124821	1	0	NaN	3291182.8847573	NaN	3291183.8682467	3291184.38480807
79	20	0	0	90	36.1581920903955	36.241610738255	8	0.266703872084618	2	2	5	NaN	1	4	0.0351553496624043	1	1	NaN	190	4	1	2	121	221	321	NaN	521	0.625755185261369	2	0	NaN	3291195.002687	NaN	3291195.9861085	3291196.50266761
79	20	0	0	90	36.1581920903955	36.241610738255	19	0.633421696200967	2	12	3	NaN	2	4	0.0351553496624043	1	1	NaN	191	4	2	2	121	221	321	NaN	521	0.98061148263514	2	1	NaN	3291197.936444	NaN	3291198.919736	3291199.43628442
79	20	0	0	90	36.1581920903955	36.241610738255	19	0.633421696200967	2	9	5	NaN	2	5	0.0351553496624043	1	1	NaN	192	4	3	2	121	221	321	NaN	521	1.09569373400882	2	1	NaN	3291201.2366594	NaN	3291202.220058	3291202.73660617
79	20	0	0	90	36.1581920903955	36.241610738255	17	0.566745728179812	2	4	2	NaN	1	5	0.0351553496624043	1	1	NaN	193	4	4	2	121	221	321	NaN	521	0.319589882623404	2	0	NaN	3291204.6368857	NaN	3291205.6204366	3291206.13694312
79	20	0	0	90	36.1581920903955	36.241610738255	23	0.766773632243276	2	6	4	NaN	1	3	0.0351553496624043	1	1	NaN	194	4	5	2	121	221	321	NaN	521	1.59029478533193	2	0	NaN	3291207.2705822	NaN	3291208.2539796	3291208.77053691
79	20	0	0	90	36.1581920903955	36.241610738255	25	0.83344960026443	2	6	1	NaN	1	3	0.0351553496624043	1	1	NaN	195	4	6	2	121	221	321	NaN	521	0.321232694201171	1	1	NaN	3291211.170972	NaN	3291212.1544032	3291212.67094461
79	20	0	0	90	36.1581920903955	36.241610738255	0	0	1	8	6	NaN	2	3	0.0351553496624043	1	1	NaN	196	4	7	2	111	211	311	NaN	511	0.193374734371901	2	1	NaN	3291213.9712487	NaN	3291214.9546316	3291215.47119897
79	20	0	0	90	36.1581920903955	36.241610738255	6	0.200027904063463	2	5	1	NaN	1	5	0.0351553496624043	1	1	NaN	197	4	8	2	121	221	321	NaN	521	0.212850882671773	2	0	NaN	3291216.4715844	NaN	3291217.4548922	3291217.97144222
79	20	0	0	90	36.1581920903955	36.241610738255	23	0.766773632243276	2	7	5	NaN	2	4	0.0351553496624043	1	1	NaN	198	4	9	2	121	221	321	NaN	521	0.730405634269118	2	1	NaN	3291219.3383762	NaN	3291220.3217838	3291220.83839167
79	20	0	0	90	36.1581920903955	36.241610738255	6	0.200027904063463	2	7	2	NaN	2	3	0.0351553496624043	1	1	NaN	199	4	10	2	121	221	321	NaN	521	0.576734382659197	2	1	NaN	3291222.3720755	NaN	3291223.3554706	3291223.87201892
79	20	0	0	90	36.1581920903955	36.241610738255	13	0.433393792137504	2	11	6	NaN	2	4	0.0351553496624043	1	1	NaN	200	4	11	2	121	221	321	NaN	521	0.277177382726222	2	1	NaN	3291225.2555641	NaN	3291226.2390748	3291226.75564132
79	20	0	0	90	36.1581920903955	36.241610738255	15	0.500069760158658	2	11	4	NaN	2	3	0.0351553496624043	1	1	NaN	201	4	12	2	121	221	321	NaN	521	0.509136182256043	1	0	NaN	3291227.8391753	NaN	3291228.8226787	3291229.33922632
79	20	0	0	90	36.1581920903955	36.241610738255	25	0.83344960026443	2	11	3	NaN	2	5	0.0351553496624043	1	1	NaN	202	4	13	2	121	221	321	NaN	521	0.43670303421095	1	0	NaN	3291230.6562304	NaN	3291231.6396046	3291232.15617167
79	20	0	0	90	36.1581920903955	36.241610738255	14	0.466731776148081	2	9	1	NaN	2	4	0.0351553496624043	1	1	NaN	203	4	14	2	121	221	321	NaN	521	0.710393982473761	2	1	NaN	3291233.4065329	NaN	3291234.3898879	3291234.90643832
79	20	0	0	90	36.1581920903955	36.241610738255	10	0.333379840105772	2	9	1	NaN	2	5	0.0351553496624043	1	1	NaN	204	4	15	2	121	221	321	NaN	521	0.0684734340757132	1	0	NaN	3291236.4401272	NaN	3291237.4235026	3291237.94007367
79	20	0	0	90	36.1581920903955	36.241610738255	20	0.666759680211544	2	8	2	NaN	2	5	0.0351553496624043	1	1	NaN	205	4	16	2	121	221	321	NaN	521	0.836866982281208	1	0	NaN	3291238.8237123	NaN	3291239.8070936	3291240.32363822
79	20	0	0	90	36.1581920903955	36.241610738255	12	0.400055808126926	2	1	3	NaN	1	3	0.0351553496624043	1	1	NaN	206	4	17	2	121	221	321	NaN	521	0.0103903342969716	2	0	NaN	3291241.9740023	NaN	3291242.9574077	3291243.47395107
79	20	0	0	90	36.1581920903955	36.241610738255	22	0.733435648232698	2	12	2	NaN	2	3	0.0351553496624043	1	1	NaN	207	4	18	2	121	221	321	NaN	521	1.28964753402397	2	1	NaN	3291244.2908853	NaN	3291245.2742947	3291245.79084817
79	20	0	0	90	36.1581920903955	36.241610738255	16	0.533407744169235	2	9	1	NaN	2	3	0.0351553496624043	1	1	NaN	208	4	19	2	121	221	321	NaN	521	0.241192433983088	2	1	NaN	3291247.8912545	NaN	3291248.8746472	3291249.39120107
79	20	0	0	90	36.1581920903955	36.241610738255	6	0.200027904063463	2	6	2	NaN	1	3	0.0351553496624043	1	1	NaN	209	4	20	2	121	221	321	NaN	521	0.410984542686492	2	0	NaN	3291250.4413832	NaN	3291251.4249347	3291251.94144816
79	20	0	0	90	36.1581920903955	36.241610738255	9	0.300041856095195	2	4	3	NaN	1	5	0.0351553496624043	1	1	NaN	210	4	21	2	121	221	321	NaN	521	0.54959303420037	1	1	NaN	3291253.1751293	NaN	3291254.1585727	3291254.67504867
79	20	0	0	90	36.1581920903955	36.241610738255	16	0.533407744169235	2	12	4	NaN	2	5	0.0351553496624043	1	1	NaN	211	4	22	2	121	221	321	NaN	521	0.0104066822677851	2	1	NaN	3291256.0419346	NaN	3291257.0254545	3291257.54199322
79	20	0	0	90	36.1581920903955	36.241610738255	10	0.333379840105772	2	8	3	NaN	2	5	0.0351553496624043	1	1	NaN	212	4	23	2	121	221	321	NaN	521	0.837112734094262	2	1	NaN	3291258.375627	NaN	3291259.3590101	3291259.87556607
79	20	0	0	90	36.1581920903955	36.241610738255	19	0.633421696200967	2	4	3	NaN	1	3	0.0351553496624043	1	1	NaN	213	4	24	2	121	221	321	NaN	521	0.24657514039427	1	1	NaN	3291261.52592	NaN	3291262.5093229	3291263.02588016
79	20	0	0	90	36.1581920903955	36.241610738255	18	0.60008371219039	2	5	6	NaN	1	5	0.0351553496624043	1	1	NaN	214	4	25	2	121	221	321	NaN	521	0.512523634359241	1	1	NaN	3291264.0761818	NaN	3291265.0595756	3291265.57612567
79	20	0	0	90	36.1581920903955	36.241610738255	20	0.666759680211544	2	10	6	NaN	2	5	0.0351553496624043	1	1	NaN	215	4	26	2	121	221	321	NaN	521	0.631489931605756	2	1	NaN	3291266.8931224	NaN	3291267.8765175	3291268.39306717
79	20	0	0	90	36.1581920903955	36.241610738255	10	0.333379840105772	2	11	1	NaN	2	4	0.0351553496624043	1	1	NaN	216	4	27	2	121	221	321	NaN	521	0.281127485446632	2	1	NaN	3291269.8433961	NaN	3291270.8268215	3291271.34336301
79	20	0	0	90	36.1581920903955	36.241610738255	0	0	1	1	1	NaN	1	4	0.0351553496624043	1	1	NaN	217	4	28	2	111	211	311	NaN	511	1.13772128242999	2	0	NaN	3291272.4269889	NaN	3291273.4103967	3291273.92694332
79	20	0	0	90	36.1581920903955	36.241610738255	14	0.466731776148081	2	6	5	NaN	1	4	0.0351553496624043	1	1	NaN	218	4	29	2	121	221	321	NaN	521	0.514698334038258	2	0	NaN	3291275.9940115	NaN	3291276.9774206	3291277.49396407
79	20	0	0	90	36.1581920903955	36.241610738255	18	0.60008371219039	2	4	5	NaN	1	4	0.0351553496624043	1	1	NaN	219	4	30	2	121	221	321	NaN	521	0.880789134185761	1	1	NaN	3291278.8275064	NaN	3291279.8110484	3291280.32757097
79	20	0	0	90	36.1581920903955	36.241610738255	0	0	1	11	2	NaN	2	4	0.0351553496624043	1	1	NaN	220	4	31	2	111	211	311	NaN	511	1.47329378547147	2	1	NaN	3291282.0112809	NaN	3291282.9946659	3291283.51121791
79	20	0	0	90	36.1581920903955	36.241610738255	21	0.700097664222121	2	6	5	NaN	1	5	0.0351553496624043	1	1	NaN	221	4	32	2	121	221	321	NaN	521	0.0104086822830141	1	1	NaN	3291285.7949844	NaN	3291286.7783715	3291287.29493202
79	20	0	0	90	36.1581920903955	36.241610738255	7	0.23336588807404	2	6	1	NaN	1	4	0.0351553496624043	1	1	NaN	222	4	33	2	121	221	321	NaN	521	0.309157682582736	1	1	NaN	3291288.1118733	NaN	3291289.0952677	3291289.61181442
79	20	0	0	90	36.1581920903955	36.241610738255	25	0.83344960026443	2	5	4	NaN	1	3	0.0351553496624043	1	1	NaN	223	4	34	2	121	221	321	NaN	521	0.443938231095672	2	0	NaN	3291290.7286958	NaN	3291291.7121754	3291292.22874467
79	20	0	0	90	36.1581920903955	36.241610738255	23	0.766773632243276	2	3	6	NaN	1	5	0.0351553496624043	1	1	NaN	224	4	35	2	121	221	321	NaN	521	0.48485223390162	1	1	NaN	3291293.4957391	NaN	3291294.4791275	3291294.99570397
79	20	0	0	90	36.1581920903955	36.241610738255	14	0.466731776148081	2	7	6	NaN	2	5	0.0351553496624043	1	1	NaN	225	4	36	2	121	221	321	NaN	521	0.0686673824675381	2	1	NaN	3291296.2960175	NaN	3291297.2794168	3291297.79595252
79	20	0	0	90	36.1581920903955	36.241610738255	6	0.200027904063463	2	1	1	NaN	1	5	0.0351553496624043	1	1	NaN	226	4	37	2	121	221	321	NaN	521	0.0103788855485618	2	0	NaN	3291298.6795792	NaN	3291299.6629895	3291300.17952701
79	20	0	0	90	36.1581920903955	36.241610738255	12	0.400055808126926	2	4	5	NaN	1	4	0.0351553496624043	1	1	NaN	227	4	38	2	121	221	321	NaN	521	1.56826973427087	1	1	NaN	3291300.9964787	NaN	3291301.9798748	3291302.49642847
79	20	0	0	90	36.1581920903955	36.241610738255	25	0.83344960026443	2	9	3	NaN	2	5	0.0351553496624043	1	1	NaN	228	4	39	2	121	221	321	NaN	521	0.772332282736897	2	1	NaN	3291304.8801926	NaN	3291305.8635983	3291306.38013092
79	20	0	0	90	36.1581920903955	36.241610738255	6	0.200027904063463	2	2	4	NaN	1	3	0.0351553496624043	1	1	NaN	229	4	40	2	121	221	321	NaN	521	1.10477718245238	1	1	NaN	3291307.9638328	NaN	3291308.9472303	3291309.46377362
79	20	0	0	90	36.1581920903955	36.241610738255	17	0.566745728179812	2	7	1	NaN	2	4	0.0351553496624043	1	1	NaN	230	4	41	2	121	221	321	NaN	521	1.01576443109661	2	1	NaN	3291311.380836	NaN	3291312.3642204	3291312.88077657
79	20	0	0	90	36.1581920903955	36.241610738255	10	0.333379840105772	2	7	3	NaN	2	5	0.0351553496624043	1	1	NaN	231	4	42	2	121	221	321	NaN	521	0.289965946227312	2	1	NaN	3291314.7143366	NaN	3291315.6978816	3291316.21444855
79	20	0	0	90	36.1581920903955	36.241610738255	18	0.60008371219039	2	9	3	NaN	2	5	0.0351553496624043	1	1	NaN	232	4	43	2	121	221	321	NaN	521	1.98237563436851	1	0	NaN	3291317.5981297	NaN	3291318.5815195	3291319.09805037
79	20	0	0	90	36.1581920903955	36.241610738255	9	0.300041856095195	2	9	2	NaN	2	4	0.0351553496624043	1	1	NaN	233	4	44	2	121	221	321	NaN	521	0.0104116825386882	2	1	NaN	3291321.8985174	NaN	3291322.8819347	3291323.39848452
79	20	0	0	90	36.1581920903955	36.241610738255	21	0.700097664222121	2	2	2	NaN	1	4	0.0351553496624043	1	1	NaN	234	4	45	2	121	221	321	NaN	521	1.42125888541341	2	0	NaN	3291324.2154216	NaN	3291325.1988267	3291325.71536931
79	20	0	0	90	36.1581920903955	36.241610738255	12	0.400055808126926	2	11	5	NaN	2	5	0.0351553496624043	1	1	NaN	235	4	46	2	121	221	321	NaN	521	0.551614082884043	2	1	NaN	3291327.9491334	NaN	3291328.932522	3291329.44906722
79	20	0	0	90	36.1581920903955	36.241610738255	21	0.700097664222121	2	11	3	NaN	2	5	0.0351553496624043	1	1	NaN	236	4	47	2	121	221	321	NaN	521	0.356669433880597	1	0	NaN	3291330.8160765	NaN	3291331.7994844	3291332.31602327
79	20	0	0	90	36.1581920903955	36.241610738255	10	0.333379840105772	2	11	4	NaN	2	3	0.0351553496624043	1	1	NaN	237	4	48	2	121	221	321	NaN	521	2.20987093402073	1	0	NaN	3291333.4830007	NaN	3291334.4664246	3291334.98294577
79	20	0	0	90	36.1581920903955	36.241610738255	10	0.333379840105772	2	4	6	NaN	1	4	0.0351553496624043	1	1	NaN	238	4	49	2	121	221	321	NaN	521	0.260370533913374	1	1	NaN	3291338.000002	NaN	3291338.9834911	3291339.50006267
79	20	0	0	90	36.1581920903955	36.241610738255	10	0.333379840105772	2	10	6	NaN	2	3	0.0351553496624043	1	1	NaN	239	4	50	2	121	221	321	NaN	521	0.62965048244223	2	1	NaN	3291340.5670365	NaN	3291341.5504294	3291342.06698022
79	20	0	0	90	36.1581920903955	36.241610738255	20	0.666759680211544	2	9	5	NaN	2	4	0.0351553496624043	1	1	NaN	240	4	51	2	121	221	321	NaN	521	0.608153134584427	2	1	NaN	3291343.5006403	NaN	3291344.4840685	3291345.00060287
79	20	0	0	90	36.1581920903955	36.241610738255	24	0.800111616253853	2	11	4	NaN	2	5	0.0351553496624043	1	1	NaN	241	4	52	2	121	221	321	NaN	521	1.23539778264239	2	1	NaN	3291346.4177145	NaN	3291347.4009204	3291347.91755052
79	20	0	0	90	36.1581920903955	36.241610738255	13	0.433393792137504	2	12	3	NaN	2	3	0.0351553496624043	1	1	NaN	242	4	53	2	121	221	321	NaN	521	0.51674343412742	2	1	NaN	3291349.9678378	NaN	3291350.951342	3291351.46791277
79	20	0	0	90	36.1581920903955	36.241610738255	25	0.83344960026443	2	9	6	NaN	2	3	0.0351553496624043	1	1	NaN	243	4	54	2	121	221	321	NaN	521	1.7563788825646	1	0	NaN	3291353.1682439	NaN	3291354.1516771	3291354.66822492
79	20	0	0	90	36.1581920903955	36.241610738255	19	0.633421696200967	2	5	3	NaN	1	4	0.0351553496624043	1	1	NaN	244	4	55	2	121	221	321	NaN	521	0.417422882746905	1	1	NaN	3291357.2352073	NaN	3291358.2187387	3291358.73530302
79	20	0	0	90	36.1581920903955	36.241610738255	0	0	1	5	5	NaN	1	3	0.0351553496624043	1	1	NaN	245	4	56	2	111	211	311	NaN	511	0.371856782585382	2	0	NaN	3291359.9689367	NaN	3291360.9523455	3291361.46888962
79	20	0	0	90	36.1581920903955	36.241610738255	19	0.633421696200967	2	10	4	NaN	2	3	0.0351553496624043	1	1	NaN	246	4	57	2	121	221	321	NaN	521	0.992213334422559	2	1	NaN	3291362.6525414	NaN	3291363.63591	3291364.15248717
79	20	0	0	90	36.1581920903955	36.241610738255	15	0.500069760158658	2	1	5	NaN	1	3	0.0351553496624043	1	1	NaN	247	4	58	2	121	221	321	NaN	521	2.01987748267129	2	0	NaN	3291365.9528529	NaN	3291366.9362627	3291367.45281312
79	20	0	0	90	36.1581920903955	36.241610738255	15	0.500069760158658	2	7	1	NaN	2	3	0.0351553496624043	1	1	NaN	248	4	59	2	121	221	321	NaN	521	1.78214268246666	2	1	NaN	3291370.2866395	NaN	3291371.2700169	3291371.78656732
79	20	0	0	90	36.1581920903955	36.241610738255	24	0.800111616253853	2	1	1	NaN	1	4	0.0351553496624043	1	1	NaN	249	4	60	2	121	221	321	NaN	521	0.593734133988619	2	0	NaN	3291374.387039	NaN	3291375.3704346	3291375.88698157
79	20	0	0	90	36.1581920903955	36.241610738255	6	0.200027904063463	2	3	1	NaN	1	5	0.0351553496624043	1	1	NaN	250	4	61	2	121	221	321	NaN	521	0.0104064824990928	1	1	NaN	3291377.7039837	NaN	3291378.6874221	3291379.20396452
79	20	0	0	90	36.1581920903955	36.241610738255	19	0.633421696200967	2	9	4	NaN	2	4	0.0351553496624043	1	1	NaN	251	4	62	2	121	221	321	NaN	521	0.535054934211075	2	1	NaN	3291380.0375731	NaN	3291381.0209764	3291381.53755287
79	20	0	0	90	36.1581920903955	36.241610738255	24	0.800111616253853	2	11	6	NaN	2	5	0.0351553496624043	1	1	NaN	252	4	63	2	121	221	321	NaN	521	0.477222834248096	2	1	NaN	3291382.8878641	NaN	3291383.8712565	3291384.38781207
79	20	0	0	90	36.1581920903955	36.241610738255	10	0.333379840105772	2	12	3	NaN	2	4	0.0351553496624043	1	1	NaN	253	5	1	2	121	221	321	NaN	521	1.62750639719889	2	1	NaN	3291404.0732592	NaN	3291405.0566796	3291405.5732303
79	20	0	0	90	36.1581920903955	36.241610738255	20	0.666759680211544	2	4	3	NaN	1	4	0.0351553496624043	1	1	NaN	254	5	2	2	121	221	321	NaN	521	0.309551682788879	1	1	NaN	3291408.0237574	NaN	3291409.0070655	3291409.52360892
79	20	0	0	90	36.1581920903955	36.241610738255	21	0.700097664222121	2	4	1	NaN	1	5	0.0351553496624043	1	1	NaN	255	5	3	2	121	221	321	NaN	521	0.252176682464778	2	0	NaN	3291410.6406008	NaN	3291411.6239782	3291412.14054442
79	20	0	0	90	36.1581920903955	36.241610738255	13	0.433393792137504	2	12	2	NaN	2	5	0.0351553496624043	1	1	NaN	256	5	4	2	121	221	321	NaN	521	0.949333382770419	1	0	NaN	3291413.2075079	NaN	3291414.1908994	3291414.70745322
79	20	0	0	90	36.1581920903955	36.241610738255	25	0.83344960026443	2	12	1	NaN	2	4	0.0351553496624043	1	1	NaN	257	5	5	2	121	221	321	NaN	521	0.698478645645082	1	0	NaN	3291416.4745003	NaN	3291417.4578811	3291417.97445445
79	20	0	0	90	36.1581920903955	36.241610738255	8	0.266703872084618	2	7	6	NaN	2	3	0.0351553496624043	1	1	NaN	258	5	6	2	121	221	321	NaN	521	0.641307082492858	2	1	NaN	3291419.4914634	NaN	3291420.4748649	3291420.99141412
79	20	0	0	90	36.1581920903955	36.241610738255	8	0.266703872084618	2	4	2	NaN	1	5	0.0351553496624043	1	1	NaN	259	5	7	2	121	221	321	NaN	521	0.45071508269757	1	1	NaN	3291422.4584238	NaN	3291423.4418019	3291423.95836302
79	20	0	0	90	36.1581920903955	36.241610738255	12	0.400055808126926	2	3	4	NaN	1	4	0.0351553496624043	1	1	NaN	260	5	8	2	121	221	321	NaN	521	0.26751863444224	2	0	NaN	3291425.225348	NaN	3291426.2087578	3291426.72531387
79	20	0	0	90	36.1581920903955	36.241610738255	6	0.200027904063463	2	8	3	NaN	2	3	0.0351553496624043	1	1	NaN	261	5	9	2	121	221	321	NaN	521	0.323976185172796	2	1	NaN	3291427.8089515	NaN	3291428.7923282	3291429.30889581
79	20	0	0	90	36.1581920903955	36.241610738255	9	0.300041856095195	2	7	2	NaN	2	4	0.0351553496624043	1	1	NaN	262	5	10	2	121	221	321	NaN	521	0.333600837271661	2	1	NaN	3291430.5592161	NaN	3291431.5426382	3291432.05916536
79	20	0	0	90	36.1581920903955	36.241610738255	14	0.466731776148081	2	12	1	NaN	2	5	0.0351553496624043	1	1	NaN	263	5	11	2	121	221	321	NaN	521	1.27558023435995	2	1	NaN	3291433.2094789	NaN	3291434.1929305	3291434.70942657
79	20	0	0	90	36.1581920903955	36.241610738255	23	0.766773632243276	2	8	6	NaN	2	4	0.0351553496624043	1	1	NaN	264	5	12	2	121	221	321	NaN	521	0.38801763439551	2	1	NaN	3291436.7931376	NaN	3291437.7766107	3291438.29311377
79	20	0	0	90	36.1581920903955	36.241610738255	14	0.466731776148081	2	7	2	NaN	2	4	0.0351553496624043	1	1	NaN	265	5	13	2	121	221	321	NaN	521	0.615467482246459	2	1	NaN	3291439.4934313	NaN	3291440.4768336	3291440.99337092
79	20	0	0	90	36.1581920903955	36.241610738255	16	0.533407744169235	2	8	6	NaN	2	4	0.0351553496624043	1	1	NaN	266	5	14	2	121	221	321	NaN	521	0.577780982479453	2	1	NaN	3291442.4270533	NaN	3291443.4104903	3291443.92699742
79	20	0	0	90	36.1581920903955	36.241610738255	20	0.666759680211544	2	6	2	NaN	1	3	0.0351553496624043	1	1	NaN	267	5	15	2	121	221	321	NaN	521	0.702546834480017	1	1	NaN	3291445.3106684	NaN	3291446.2940748	3291446.81061407
79	20	0	0	90	36.1581920903955	36.241610738255	11	0.366717824116349	2	1	2	NaN	1	4	0.0351553496624043	1	1	NaN	268	5	16	2	121	221	321	NaN	521	0.661313582677394	1	1	NaN	3291448.327614	NaN	3291449.3110317	3291449.82757902
79	20	0	0	90	36.1581920903955	36.241610738255	20	0.666759680211544	2	1	3	NaN	1	5	0.0351553496624043	1	1	NaN	269	5	17	2	121	221	321	NaN	521	0.509598299860954	1	1	NaN	3291451.3112576	NaN	3291452.2946637	3291452.811234
79	20	0	0	90	36.1581920903955	36.241610738255	6	0.200027904063463	2	3	5	NaN	1	4	0.0351553496624043	1	1	NaN	270	5	18	2	121	221	321	NaN	521	0.427926682401448	1	1	NaN	3291454.1448681	NaN	3291455.1282717	3291455.64482182
79	20	0	0	90	36.1581920903955	36.241610738255	8	0.266703872084618	2	1	4	NaN	1	4	0.0351553496624043	1	1	NaN	271	5	19	2	121	221	321	NaN	521	0.19850313430652	1	1	NaN	3291456.8784809	NaN	3291457.8618633	3291458.37842267
79	20	0	0	90	36.1581920903955	36.241610738255	13	0.433393792137504	2	4	4	NaN	1	4	0.0351553496624043	1	1	NaN	272	5	20	2	121	221	321	NaN	521	0.41728198248893	1	1	NaN	3291459.3954003	NaN	3291460.3787913	3291460.89533062
79	20	0	0	90	36.1581920903955	36.241610738255	13	0.433393792137504	2	8	4	NaN	2	3	0.0351553496624043	1	1	NaN	273	5	21	2	121	221	321	NaN	521	0.348168582655489	1	0	NaN	3291462.1289847	NaN	3291463.112387	3291463.62893452
79	20	0	0	90	36.1581920903955	36.241610738255	24	0.800111616253853	2	10	5	NaN	2	3	0.0351553496624043	1	1	NaN	274	5	22	2	121	221	321	NaN	521	0.305470834020525	2	1	NaN	3291464.7792535	NaN	3291465.7626469	3291466.27919817
79	20	0	0	90	36.1581920903955	36.241610738255	18	0.60008371219039	2	1	6	NaN	1	5	0.0351553496624043	1	1	NaN	275	5	23	2	121	221	321	NaN	521	0.305212582461536	1	1	NaN	3291467.3960598	NaN	3291468.3795614	3291468.89611812
79	20	0	0	90	36.1581920903955	36.241610738255	13	0.433393792137504	2	7	6	NaN	2	3	0.0351553496624043	1	1	NaN	276	5	24	2	121	221	321	NaN	521	0.639666682574898	2	1	NaN	3291470.0130885	NaN	3291470.9965038	3291471.51304342
79	20	0	0	90	36.1581920903955	36.241610738255	7	0.23336588807404	2	7	3	NaN	2	4	0.0351553496624043	1	1	NaN	277	5	25	2	121	221	321	NaN	521	0.010392134077847	1	0	NaN	3291472.9633904	NaN	3291473.9468028	3291474.46334357
79	20	0	0	90	36.1581920903955	36.241610738255	13	0.433393792137504	2	9	3	NaN	2	4	0.0351553496624043	1	1	NaN	278	5	26	2	121	221	321	NaN	521	0.283987234346569	1	0	NaN	3291475.2969522	NaN	3291476.2803538	3291476.79690527
79	20	0	0	90	36.1581920903955	36.241610738255	25	0.83344960026443	2	2	4	NaN	1	4	0.0351553496624043	1	1	NaN	279	5	27	2	121	221	321	NaN	521	0.276067934464663	1	1	NaN	3291477.8971954	NaN	3291478.8806145	3291479.39714807
79	20	0	0	90	36.1581920903955	36.241610738255	16	0.533407744169235	2	2	5	NaN	1	5	0.0351553496624043	1	1	NaN	280	5	28	2	121	221	321	NaN	521	1.54011088283733	1	1	NaN	3291480.480795	NaN	3291481.4642317	3291481.98073882
79	20	0	0	90	36.1581920903955	36.241610738255	0	0	1	9	4	NaN	2	4	0.0351553496624043	1	1	NaN	281	5	29	2	111	211	311	NaN	511	0.193553282413632	2	1	NaN	3291484.3311729	NaN	3291485.314573	3291485.83111922
79	20	0	0	90	36.1581920903955	36.241610738255	0	0	1	9	3	NaN	2	5	0.0351553496624043	1	1	NaN	282	5	30	2	111	211	311	NaN	511	0.477799934335053	2	1	NaN	3291486.8314208	NaN	3291487.8148221	3291488.33137337
79	20	0	0	90	36.1581920903955	36.241610738255	13	0.433393792137504	2	9	5	NaN	2	5	0.0351553496624043	1	1	NaN	283	5	31	2	121	221	321	NaN	521	0.493184942752123	2	1	NaN	3291489.6316925	NaN	3291490.6151026	3291491.13165206
79	20	0	0	90	36.1581920903955	36.241610738255	0	0	1	6	4	NaN	1	4	0.0351553496624043	1	1	NaN	284	5	32	2	111	211	311	NaN	511	0.210290282499045	1	1	NaN	3291492.4985228	NaN	3291493.4820462	3291493.99859072
79	20	0	0	90	36.1581920903955	36.241610738255	0	0	1	11	2	NaN	2	4	0.0351553496624043	1	1	NaN	285	5	33	2	111	211	311	NaN	511	0.500818482600152	1	0	NaN	3291495.0322311	NaN	3291496.0156451	3291496.53217312
79	20	0	0	90	36.1581920903955	36.241610738255	18	0.60008371219039	2	7	5	NaN	2	4	0.0351553496624043	1	1	NaN	286	5	34	2	121	221	321	NaN	521	0.379432140383869	2	1	NaN	3291497.8491995	NaN	3291498.8325679	3291499.34912306
79	20	0	0	90	36.1581920903955	36.241610738255	24	0.800111616253853	2	8	2	NaN	2	3	0.0351553496624043	1	1	NaN	287	5	35	2	121	221	321	NaN	521	0.615400834474713	1	0	NaN	3291500.5494838	NaN	3291501.5328331	3291502.04938387
79	20	0	0	90	36.1581920903955	36.241610738255	19	0.633421696200967	2	8	3	NaN	2	4	0.0351553496624043	1	1	NaN	288	5	36	2	121	221	321	NaN	521	0.514617382548749	1	0	NaN	3291503.4664003	NaN	3291504.4497896	3291504.96633862
79	20	0	0	90	36.1581920903955	36.241610738255	22	0.733435648232698	2	10	5	NaN	2	3	0.0351553496624043	1	1	NaN	289	5	37	2	121	221	321	NaN	521	0.265339334495366	2	1	NaN	3291506.2999972	NaN	3291507.2834168	3291507.79995097
79	20	0	0	90	36.1581920903955	36.241610738255	24	0.800111616253853	2	1	6	NaN	1	3	0.0351553496624043	1	1	NaN	290	5	38	2	121	221	321	NaN	521	0.363612545654178	1	1	NaN	3291509.2336074	NaN	3291510.2170246	3291510.73357695
79	20	0	0	90	36.1581920903955	36.241610738255	20	0.666759680211544	2	7	1	NaN	2	5	0.0351553496624043	1	1	NaN	291	5	39	2	121	221	321	NaN	521	0.655576934572309	2	1	NaN	3291511.9172209	NaN	3291512.900604	3291513.41717057
79	20	0	0	90	36.1581920903955	36.241610738255	23	0.766773632243276	2	2	4	NaN	1	3	0.0351553496624043	1	1	NaN	292	5	40	2	121	221	321	NaN	521	0.010407482739538	1	1	NaN	3291514.8842082	NaN	3291515.8675844	3291516.38412092
79	20	0	0	90	36.1581920903955	36.241610738255	15	0.500069760158658	2	2	3	NaN	1	4	0.0351553496624043	1	1	NaN	293	5	41	2	121	221	321	NaN	521	0.747598534449935	1	1	NaN	3291517.2176233	NaN	3291518.2011756	3291518.71768857
79	20	0	0	90	36.1581920903955	36.241610738255	23	0.766773632243276	2	12	2	NaN	2	3	0.0351553496624043	1	1	NaN	294	5	42	2	121	221	321	NaN	521	0.840592582710087	2	1	NaN	3291520.2847258	NaN	3291521.2681104	3291521.78465072
79	20	0	0	90	36.1581920903955	36.241610738255	22	0.733435648232698	2	3	2	NaN	1	3	0.0351553496624043	1	1	NaN	295	5	43	2	121	221	321	NaN	521	0.650370434392244	2	0	NaN	3291523.4350174	NaN	3291524.4184109	3291524.93496267
79	20	0	0	90	36.1581920903955	36.241610738255	7	0.23336588807404	2	5	6	NaN	1	3	0.0351553496624043	1	1	NaN	296	5	44	2	121	221	321	NaN	521	0.754877682309598	1	1	NaN	3291526.401978	NaN	3291527.3853811	3291527.90194212
79	20	0	0	90	36.1581920903955	36.241610738255	22	0.733435648232698	2	8	3	NaN	2	4	0.0351553496624043	1	1	NaN	297	5	45	2	121	221	321	NaN	521	1.32043693447486	2	1	NaN	3291529.4689547	NaN	3291530.4522398	3291530.96889477
79	20	0	0	90	36.1581920903955	36.241610738255	25	0.83344960026443	2	1	4	NaN	1	3	0.0351553496624043	1	1	NaN	298	5	46	2	121	221	321	NaN	521	1.52228497993201	2	0	NaN	3291533.202688	NaN	3291534.1860486	3291534.70259622
79	20	0	0	90	36.1581920903955	36.241610738255	0	0	1	10	3	NaN	2	3	0.0351553496624043	1	1	NaN	299	5	47	2	111	211	311	NaN	511	0.609020834323019	1	0	NaN	3291537.0363591	NaN	3291538.0197505	3291538.53630467
79	20	0	0	90	36.1581920903955	36.241610738255	22	0.733435648232698	2	1	5	NaN	1	4	0.0351553496624043	1	1	NaN	300	5	48	2	121	221	321	NaN	521	1.23488948261365	1	1	NaN	3291539.9699585	NaN	3291540.9533805	3291541.46993772
79	20	0	0	90	36.1581920903955	36.241610738255	14	0.466731776148081	2	12	4	NaN	2	5	0.0351553496624043	1	1	NaN	301	5	49	2	121	221	321	NaN	521	0.452716431580484	1	0	NaN	3291543.520263	NaN	3291544.5037126	3291545.02028197
79	20	0	0	90	36.1581920903955	36.241610738255	25	0.83344960026443	2	10	5	NaN	2	5	0.0351553496624043	1	1	NaN	302	5	50	2	121	221	321	NaN	521	0.550016734283417	2	1	NaN	3291546.2872617	NaN	3291547.2706668	3291547.78721907
79	20	0	0	90	36.1581920903955	36.241610738255	18	0.60008371219039	2	8	2	NaN	2	3	0.0351553496624043	1	1	NaN	303	5	51	2	121	221	321	NaN	521	0.242901534307748	2	1	NaN	3291549.1542014	NaN	3291550.1376044	3291550.65416547
79	20	0	0	90	36.1581920903955	36.241610738255	16	0.533407744169235	2	10	1	NaN	2	5	0.0351553496624043	1	1	NaN	304	5	52	2	121	221	321	NaN	521	0.572979682125151	2	1	NaN	3291551.7043327	NaN	3291552.687872	3291553.20441812
79	20	0	0	90	36.1581920903955	36.241610738255	6	0.200027904063463	2	9	2	NaN	2	3	0.0351553496624043	1	1	NaN	305	5	53	2	121	221	321	NaN	521	0.777359682135284	2	1	NaN	3291554.5880744	NaN	3291555.5714636	3291556.08802702
79	20	0	0	90	36.1581920903955	36.241610738255	23	0.766773632243276	2	10	3	NaN	2	4	0.0351553496624043	1	1	NaN	306	5	54	2	121	221	321	NaN	521	0.941303631290793	2	1	NaN	3291557.6717208	NaN	3291558.6551226	3291559.17166107
79	20	0	0	90	36.1581920903955	36.241610738255	25	0.83344960026443	2	3	6	NaN	1	5	0.0351553496624043	1	1	NaN	307	5	55	2	121	221	321	NaN	521	0.275364833883941	1	1	NaN	3291560.9220383	NaN	3291561.9054346	3291562.42198817
79	20	0	0	90	36.1581920903955	36.241610738255	11	0.366717824116349	2	3	1	NaN	1	5	0.0351553496624043	1	1	NaN	308	5	56	2	121	221	321	NaN	521	0.899449085816741	1	1	NaN	3291563.505603	NaN	3291564.4890568	3291565.00557391
79	20	0	0	90	36.1581920903955	36.241610738255	25	0.83344960026443	2	7	1	NaN	2	4	0.0351553496624043	1	1	NaN	309	5	57	2	121	221	321	NaN	521	0.298523385077715	2	1	NaN	3291566.7226122	NaN	3291567.7059959	3291568.22256331
79	20	0	0	90	36.1581920903955	36.241610738255	14	0.466731776148081	2	10	3	NaN	2	5	0.0351553496624043	1	1	NaN	310	5	58	2	121	221	321	NaN	521	0.369867482688278	1	0	NaN	3291569.3395581	NaN	3291570.3229288	3291570.83947462
79	20	0	0	90	36.1581920903955	36.241610738255	9	0.300041856095195	2	11	4	NaN	2	3	0.0351553496624043	1	1	NaN	311	5	59	2	121	221	321	NaN	521	0.57372043421492	2	1	NaN	3291572.0229823	NaN	3291573.0065193	3291573.52307957
79	20	0	0	90	36.1581920903955	36.241610738255	9	0.300041856095195	2	5	2	NaN	1	5	0.0351553496624043	1	1	NaN	312	5	60	2	121	221	321	NaN	521	0.730258782859892	2	0	NaN	3291574.9067654	NaN	3291575.8901521	3291576.40669152
79	20	0	0	90	36.1581920903955	36.241610738255	24	0.800111616253853	2	12	4	NaN	2	5	0.0351553496624043	1	1	NaN	313	5	61	2	121	221	321	NaN	521	0.345109982881695	2	1	NaN	3291577.9403804	NaN	3291578.9237893	3291579.44032802
79	20	0	0	90	36.1581920903955	36.241610738255	11	0.366717824116349	2	4	5	NaN	1	3	0.0351553496624043	1	1	NaN	314	5	62	2	121	221	321	NaN	521	0.909693882334977	1	1	NaN	3291580.6073192	NaN	3291581.5906957	3291582.10725602
79	20	0	0	90	36.1581920903955	36.241610738255	20	0.666759680211544	2	8	4	NaN	2	3	0.0351553496624043	1	1	NaN	315	5	63	2	121	221	321	NaN	521	0.0104068825021386	2	1	NaN	3291583.8409473	NaN	3291584.8243488	3291585.34090792
79	20	0	0	90	36.1581920903955	36.241610738255	23	0.766773632243276	2	9	4	NaN	2	3	0.0351553496624043	1	1	NaN	316	6	1	2	121	221	321	NaN	521	0.22350253444165	2	1	NaN	3291595.7253378	NaN	3291596.7088387	3291597.22541677
79	20	0	0	90	36.1581920903955	36.241610738255	10	0.333379840105772	2	8	6	NaN	2	3	0.0351553496624043	1	1	NaN	317	6	2	2	121	221	321	NaN	521	0.0104113826528192	2	1	NaN	3291598.2590288	NaN	3291599.2424714	3291599.75898782
79	20	0	0	90	36.1581920903955	36.241610738255	6	0.200027904063463	2	4	3	NaN	1	4	0.0351553496624043	1	1	NaN	318	6	3	2	121	221	321	NaN	521	0.709249733947217	2	0	NaN	3291600.5758246	NaN	3291601.5593664	3291602.07588867
79	20	0	0	90	36.1581920903955	36.241610738255	15	0.500069760158658	2	6	5	NaN	1	4	0.0351553496624043	1	1	NaN	319	6	4	2	121	221	321	NaN	521	0.299301634076983	1	1	NaN	3291603.6095641	NaN	3291604.5929531	3291605.10951937
79	20	0	0	90	36.1581920903955	36.241610738255	0	0	1	3	6	NaN	1	5	0.0351553496624043	1	1	NaN	320	6	5	2	111	211	311	NaN	511	0.514917734079063	2	0	NaN	3291606.226493	NaN	3291607.2098919	3291607.72644467
79	20	0	0	90	36.1581920903955	36.241610738255	25	0.83344960026443	2	6	6	NaN	1	4	0.0351553496624043	1	1	NaN	321	6	6	2	121	221	321	NaN	521	0.385412582661957	1	1	NaN	3291609.0601105	NaN	3291610.0433992	3291610.56005252
79	20	0	0	90	36.1581920903955	36.241610738255	20	0.666759680211544	2	4	6	NaN	1	4	0.0351553496624043	1	1	NaN	322	6	7	2	121	221	321	NaN	521	0.0288313343189657	1	1	NaN	3291611.7603767	NaN	3291612.7437662	3291613.26032307
79	20	0	0	90	36.1581920903955	36.241610738255	19	0.633421696200967	2	1	4	NaN	1	3	0.0351553496624043	1	1	NaN	323	6	8	2	121	221	321	NaN	521	0.518842282705009	1	1	NaN	3291614.1105923	NaN	3291615.0940102	3291615.61055222
79	20	0	0	90	36.1581920903955	36.241610738255	21	0.700097664222121	2	8	3	NaN	2	3	0.0351553496624043	1	1	NaN	324	6	9	2	121	221	321	NaN	521	0.484576782211661	1	0	NaN	3291616.9442117	NaN	3291617.9276016	3291618.44416472
79	20	0	0	90	36.1581920903955	36.241610738255	11	0.366717824116349	2	6	3	NaN	1	5	0.0351553496624043	1	1	NaN	325	6	10	2	121	221	321	NaN	521	0.517002733889967	1	1	NaN	3291619.7444947	NaN	3291620.7278921	3291621.24444267
79	20	0	0	90	36.1581920903955	36.241610738255	8	0.266703872084618	2	1	5	NaN	1	5	0.0351553496624043	1	1	NaN	326	6	11	2	121	221	321	NaN	521	0.466993182897568	1	1	NaN	3291622.5781294	NaN	3291623.5614848	3291624.07804522
79	20	0	0	90	36.1581920903955	36.241610738255	11	0.366717824116349	2	10	4	NaN	2	5	0.0351553496624043	1	1	NaN	327	6	12	2	121	221	321	NaN	521	0.0753494794480503	2	1	NaN	3291625.3617308	NaN	3291626.3451081	3291626.86165372
79	20	0	0	90	36.1581920903955	36.241610738255	23	0.766773632243276	2	2	3	NaN	1	3	0.0351553496624043	1	1	NaN	328	6	13	2	121	221	321	NaN	521	0.203374234493822	1	1	NaN	3291627.7619467	NaN	3291628.745338	3291629.26191377
79	20	0	0	90	36.1581920903955	36.241610738255	24	0.800111616253853	2	7	1	NaN	2	3	0.0351553496624043	1	1	NaN	329	6	14	2	121	221	321	NaN	521	0.510137882549316	2	1	NaN	3291630.2788651	NaN	3291631.2622457	3291631.77880212
79	20	0	0	90	36.1581920903955	36.241610738255	14	0.466731776148081	2	2	6	NaN	1	4	0.0351553496624043	1	1	NaN	330	6	15	2	121	221	321	NaN	521	0.181318182498217	1	1	NaN	3291633.0958286	NaN	3291634.079201	3291634.59574682
79	20	0	0	90	36.1581920903955	36.241610738255	7	0.23336588807404	2	8	4	NaN	2	3	0.0351553496624043	1	1	NaN	331	6	16	2	121	221	321	NaN	521	0.641085282433778	2	1	NaN	3291635.596055	NaN	3291636.5794395	3291637.09599252
79	20	0	0	90	36.1581920903955	36.241610738255	16	0.533407744169235	2	1	1	NaN	1	3	0.0351553496624043	1	1	NaN	332	6	17	2	121	221	321	NaN	521	0.802842385601252	1	1	NaN	3291638.5463864	NaN	3291639.5297703	3291640.04629011
79	20	0	0	90	36.1581920903955	36.241610738255	22	0.733435648232698	2	1	1	NaN	1	3	0.0351553496624043	1	1	NaN	333	6	18	2	121	221	321	NaN	521	0.253821682184935	1	1	NaN	3291641.6633084	NaN	3291642.6467094	3291643.16326172
79	20	0	0	90	36.1581920903955	36.241610738255	21	0.700097664222121	2	1	1	NaN	1	5	0.0351553496624043	1	1	NaN	334	6	19	2	121	221	321	NaN	521	0.54293579980731	2	0	NaN	3291644.2302623	NaN	3291645.2136292	3291645.7301929
79	20	0	0	90	36.1581920903955	36.241610738255	8	0.266703872084618	2	5	4	NaN	1	4	0.0351553496624043	1	1	NaN	335	6	20	2	121	221	321	NaN	521	0.0291796824894845	2	0	NaN	3291647.0804933	NaN	3291648.0639173	3291648.58046172
79	20	0	0	90	36.1581920903955	36.241610738255	15	0.500069760158658	2	12	1	NaN	2	3	0.0351553496624043	1	1	NaN	336	6	21	2	121	221	321	NaN	521	0.558744034264237	2	1	NaN	3291649.4307107	NaN	3291650.4141262	3291650.93069307
79	20	0	0	90	36.1581920903955	36.241610738255	8	0.266703872084618	2	8	5	NaN	2	3	0.0351553496624043	1	1	NaN	337	6	22	2	121	221	321	NaN	521	0.595830982550979	1	0	NaN	3291652.2976931	NaN	3291653.2810946	3291653.79763442
79	20	0	0	90	36.1581920903955	36.241610738255	12	0.400055808126926	2	1	6	NaN	1	4	0.0351553496624043	1	1	NaN	338	6	23	2	121	221	321	NaN	521	0.630870885681361	1	1	NaN	3291655.2146456	NaN	3291656.198035	3291656.71459991
79	20	0	0	90	36.1581920903955	36.241610738255	20	0.666759680211544	2	6	6	NaN	1	3	0.0351553496624043	1	1	NaN	339	6	24	2	121	221	321	NaN	521	0.448198682628572	1	1	NaN	3291658.1649392	NaN	3291659.1483391	3291659.66488672
79	20	0	0	90	36.1581920903955	36.241610738255	17	0.566745728179812	2	11	3	NaN	2	4	0.0351553496624043	1	1	NaN	340	6	25	2	121	221	321	NaN	521	0.225326234474778	2	1	NaN	3291660.9318801	NaN	3291661.9152873	3291662.43182667
79	20	0	0	90	36.1581920903955	36.241610738255	6	0.200027904063463	2	10	2	NaN	2	3	0.0351553496624043	1	1	NaN	341	6	26	2	121	221	321	NaN	521	0.411547679919749	2	1	NaN	3291663.4654513	NaN	3291664.4488539	3291664.96540162
79	20	0	0	90	36.1581920903955	36.241610738255	22	0.733435648232698	2	11	2	NaN	2	3	0.0351553496624043	1	1	NaN	342	6	27	2	121	221	321	NaN	521	0.494172885082662	2	1	NaN	3291666.1990618	NaN	3291667.1824929	3291667.69900821
79	20	0	0	90	36.1581920903955	36.241610738255	13	0.433393792137504	2	5	3	NaN	1	3	0.0351553496624043	1	1	NaN	343	6	28	2	121	221	321	NaN	521	0.229837934020907	1	1	NaN	3291668.99936	NaN	3291669.9827335	3291670.49928887
79	20	0	0	90	36.1581920903955	36.241610738255	9	0.300041856095195	2	2	1	NaN	1	5	0.0351553496624043	1	1	NaN	344	6	29	2	121	221	321	NaN	521	1.65662713441998	1	1	NaN	3291671.5329212	NaN	3291672.5162999	3291673.03286067
79	20	0	0	90	36.1581920903955	36.241610738255	12	0.400055808126926	2	9	4	NaN	2	5	0.0351553496624043	1	1	NaN	345	6	30	2	121	221	321	NaN	521	0.664995685219765	2	1	NaN	3291675.4999756	NaN	3291676.4833671	3291676.99992741
79	20	0	0	90	36.1581920903955	36.241610738255	15	0.500069760158658	2	10	3	NaN	2	3	0.0351553496624043	1	1	NaN	346	6	31	2	121	221	321	NaN	521	0.329758734442294	2	1	NaN	3291678.4836018	NaN	3291679.4669977	3291679.98355007
79	20	0	0	90	36.1581920903955	36.241610738255	21	0.700097664222121	2	9	1	NaN	2	5	0.0351553496624043	1	1	NaN	347	6	32	2	121	221	321	NaN	521	0.319927034433931	2	1	NaN	3291681.1170695	NaN	3291682.1005999	3291682.61714777
79	20	0	0	90	36.1581920903955	36.241610738255	9	0.300041856095195	2	8	3	NaN	2	3	0.0351553496624043	1	1	NaN	348	6	33	2	121	221	321	NaN	521	0.550363934598863	2	1	NaN	3291683.7507894	NaN	3291684.7341716	3291685.25073557
79	20	0	0	90	36.1581920903955	36.241610738255	19	0.633421696200967	2	11	5	NaN	2	5	0.0351553496624043	1	1	NaN	349	6	34	2	121	221	321	NaN	521	1.37133588269353	2	1	NaN	3291686.6177242	NaN	3291687.6011376	3291688.11768442
79	20	0	0	90	36.1581920903955	36.241610738255	11	0.366717824116349	2	8	5	NaN	2	4	0.0351553496624043	1	1	NaN	350	6	35	2	121	221	321	NaN	521	0.0104061826132238	1	0	NaN	3291690.3014337	NaN	3291691.284818	3291691.80137222
79	20	0	0	90	36.1581920903955	36.241610738255	10	0.333379840105772	2	5	6	NaN	1	3	0.0351553496624043	1	1	NaN	351	6	36	2	121	221	321	NaN	521	0.33091968530789	2	0	NaN	3291692.6183296	NaN	3291693.6017271	3291694.11828021
79	20	0	0	90	36.1581920903955	36.241610738255	17	0.566745728179812	2	1	3	NaN	1	3	0.0351553496624043	1	1	NaN	352	6	37	2	121	221	321	NaN	521	1.67256729118526	2	0	NaN	3291695.2685942	NaN	3291696.2519699	3291696.76854331
79	20	0	0	90	36.1581920903955	36.241610738255	14	0.466731776148081	2	1	6	NaN	1	5	0.0351553496624043	1	1	NaN	353	6	38	2	121	221	321	NaN	521	0.745306085795164	2	0	NaN	3291699.2523079	NaN	3291700.2357316	3291700.75226121
79	20	0	0	90	36.1581920903955	36.241610738255	19	0.633421696200967	2	2	4	NaN	1	3	0.0351553496624043	1	1	NaN	354	6	39	2	121	221	321	NaN	521	1.20694663422182	2	0	NaN	3291702.3026328	NaN	3291703.2860182	3291703.80256107
79	20	0	0	90	36.1581920903955	36.241610738255	7	0.23336588807404	2	9	2	NaN	2	5	0.0351553496624043	1	1	NaN	355	6	40	2	121	221	321	NaN	521	0.937639937270433	2	1	NaN	3291705.8194829	NaN	3291706.8030467	3291707.31957966
79	20	0	0	90	36.1581920903955	36.241610738255	21	0.700097664222121	2	8	2	NaN	2	3	0.0351553496624043	1	1	NaN	356	6	41	2	121	221	321	NaN	521	0.279327685479075	2	1	NaN	3291709.0699722	NaN	3291710.0533756	3291710.56989161
79	20	0	0	90	36.1581920903955	36.241610738255	23	0.766773632243276	2	11	3	NaN	2	4	0.0351553496624043	1	1	NaN	357	6	42	2	121	221	321	NaN	521	0.879694694187492	2	1	NaN	3291711.6534823	NaN	3291712.6369302	3291713.15348401
79	20	0	0	90	36.1581920903955	36.241610738255	8	0.266703872084618	2	6	4	NaN	1	4	0.0351553496624043	1	1	NaN	358	6	43	2	121	221	321	NaN	521	0.711423734202981	1	1	NaN	3291714.8538485	NaN	3291715.8372542	3291716.35378837
79	20	0	0	90	36.1581920903955	36.241610738255	22	0.733435648232698	2	2	5	NaN	1	5	0.0351553496624043	1	1	NaN	359	6	44	2	121	221	321	NaN	521	0.349869679659605	1	1	NaN	3291717.8874875	NaN	3291718.8709067	3291719.38741802
79	20	0	0	90	36.1581920903955	36.241610738255	23	0.766773632243276	2	4	6	NaN	1	4	0.0351553496624043	1	1	NaN	360	6	45	2	121	221	321	NaN	521	0.626793139614165	2	0	NaN	3291720.5544811	NaN	3291721.5378138	3291722.05436216
79	20	0	0	90	36.1581920903955	36.241610738255	24	0.800111616253853	2	7	5	NaN	2	5	0.0351553496624043	1	1	NaN	361	6	46	2	121	221	321	NaN	521	0.420562582556158	2	1	NaN	3291723.5047072	NaN	3291724.4880959	3291725.00464762
79	20	0	0	90	36.1581920903955	36.241610738255	22	0.733435648232698	2	6	2	NaN	1	3	0.0351553496624043	1	1	NaN	362	6	47	2	121	221	321	NaN	521	0.471376733854413	1	1	NaN	3291726.2383389	NaN	3291727.2217078	3291727.73824757
79	20	0	0	90	36.1581920903955	36.241610738255	9	0.300041856095195	2	12	6	NaN	2	5	0.0351553496624043	1	1	NaN	363	6	48	2	121	221	321	NaN	521	0.551302894484252	2	1	NaN	3291729.0219117	NaN	3291730.0053044	3291730.52186231
79	20	0	0	90	36.1581920903955	36.241610738255	6	0.200027904063463	2	8	5	NaN	2	5	0.0351553496624043	1	1	NaN	364	6	49	2	121	221	321	NaN	521	1.54017748543993	2	1	NaN	3291731.8887852	NaN	3291732.8722513	3291733.38881121
79	20	0	0	90	36.1581920903955	36.241610738255	18	0.60008371219039	2	8	1	NaN	2	4	0.0351553496624043	1	1	NaN	365	6	50	2	121	221	321	NaN	521	0.394001479726285	2	1	NaN	3291735.7392325	NaN	3291736.7226238	3291737.23917522
79	20	0	0	90	36.1581920903955	36.241610738255	12	0.400055808126926	2	11	1	NaN	2	3	0.0351553496624043	1	1	NaN	366	6	51	2	121	221	321	NaN	521	0.380890134256333	2	1	NaN	3291738.4561645	NaN	3291739.4395424	3291739.95611657
79	20	0	0	90	36.1581920903955	36.241610738255	22	0.733435648232698	2	9	2	NaN	2	4	0.0351553496624043	1	1	NaN	367	6	52	2	121	221	321	NaN	521	0.417289282660931	1	0	NaN	3291741.156337	NaN	3291742.1398131	3291742.65638422
79	20	0	0	90	36.1581920903955	36.241610738255	8	0.266703872084618	2	2	3	NaN	1	5	0.0351553496624043	1	1	NaN	368	6	53	2	121	221	321	NaN	521	0.443618834484369	2	0	NaN	3291743.8900278	NaN	3291744.8734367	3291745.38997737
79	20	0	0	90	36.1581920903955	36.241610738255	15	0.500069760158658	2	5	6	NaN	1	4	0.0351553496624043	1	1	NaN	369	6	54	2	121	221	321	NaN	521	0.645296082366258	1	1	NaN	3291746.6403069	NaN	3291747.6237358	3291748.14025382
79	20	0	0	90	36.1581920903955	36.241610738255	20	0.666759680211544	2	11	2	NaN	2	3	0.0351553496624043	1	1	NaN	370	6	55	2	121	221	321	NaN	521	0.430521934293211	2	1	NaN	3291749.5905983	NaN	3291750.5740071	3291751.09054347
79	20	0	0	90	36.1581920903955	36.241610738255	0	0	1	5	2	NaN	1	5	0.0351553496624043	1	1	NaN	371	6	56	2	111	211	311	NaN	511	0.528734882362187	2	0	NaN	3291752.3408754	NaN	3291753.3242634	3291753.84081232
79	20	0	0	90	36.1581920903955	36.241610738255	10	0.333379840105772	2	10	4	NaN	2	3	0.0351553496624043	1	1	NaN	372	6	57	2	121	221	321	NaN	521	0.0788061344064772	2	1	NaN	3291755.1743576	NaN	3291756.1579059	3291756.67442747
79	20	0	0	90	36.1581920903955	36.241610738255	20	0.666759680211544	2	3	3	NaN	1	3	0.0351553496624043	1	1	NaN	373	6	58	2	121	221	321	NaN	521	0.591328785289079	1	1	NaN	3291757.5580516	NaN	3291758.5414652	3291759.05799691
79	20	0	0	90	36.1581920903955	36.241610738255	15	0.500069760158658	2	1	6	NaN	1	5	0.0351553496624043	1	1	NaN	374	6	59	2	121	221	321	NaN	521	0.699139334261417	1	1	NaN	3291760.4582224	NaN	3291761.4417266	3291761.95827717
79	20	0	0	90	36.1581920903955	36.241610738255	21	0.700097664222121	2	4	3	NaN	1	3	0.0351553496624043	1	1	NaN	375	6	60	2	121	221	321	NaN	521	0.659031379502267	1	1	NaN	3291763.458605	NaN	3291764.4420272	3291764.95857382
79	20	0	0	90	36.1581920903955	36.241610738255	22	0.733435648232698	2	5	6	NaN	1	3	0.0351553496624043	1	1	NaN	376	6	61	2	121	221	321	NaN	521	0.510544934310019	1	1	NaN	3291766.5587933	NaN	3291767.5423323	3291768.05888047
79	20	0	0	90	36.1581920903955	36.241610738255	23	0.766773632243276	2	5	3	NaN	1	4	0.0351553496624043	1	1	NaN	377	6	62	2	121	221	321	NaN	521	0.581278934609145	1	1	NaN	3291769.3758642	NaN	3291770.3592692	3291770.87583097
79	20	0	0	90	36.1581920903955	36.241610738255	16	0.533407744169235	2	3	5	NaN	1	5	0.0351553496624043	1	1	NaN	378	6	63	2	121	221	321	NaN	521	0.345538997091353	1	1	NaN	3291772.2761885	NaN	3291773.2595814	3291773.7761103
79	20	0	0	90	36.1581920903955	36.241610738255	25	0.83344960026443	2	8	1	NaN	2	4	0.0351553496624043	1	1	NaN	379	7	1	2	121	221	321	NaN	521	0.277602934278548	2	1	NaN	3291781.543752	NaN	3291782.5271856	3291783.04368217
79	20	0	0	90	36.1581920903955	36.241610738255	11	0.366717824116349	2	4	4	NaN	1	4	0.0351553496624043	1	1	NaN	380	7	2	2	121	221	321	NaN	521	0.221999682486057	2	0	NaN	3291784.1271908	NaN	3291785.1107415	3291785.62727182
79	20	0	0	90	36.1581920903955	36.241610738255	6	0.200027904063463	2	11	5	NaN	2	5	0.0351553496624043	1	1	NaN	381	7	3	2	121	221	321	NaN	521	1.00069998251274	2	1	NaN	3291786.6609124	NaN	3291787.6443073	3291788.16085712
79	20	0	0	90	36.1581920903955	36.241610738255	14	0.466731776148081	2	3	4	NaN	1	3	0.0351553496624043	1	1	NaN	382	7	4	2	121	221	321	NaN	521	0.227423385251313	1	1	NaN	3291789.9778614	NaN	3291790.9613033	3291791.47785501
79	20	0	0	90	36.1581920903955	36.241610738255	19	0.633421696200967	2	4	5	NaN	1	4	0.0351553496624043	1	1	NaN	383	7	5	2	121	221	321	NaN	521	0.45395088288933	1	1	NaN	3291792.5114918	NaN	3291793.4949002	3291794.01143052
79	20	0	0	90	36.1581920903955	36.241610738255	12	0.400055808126926	2	8	5	NaN	2	3	0.0351553496624043	1	1	NaN	384	7	6	2	121	221	321	NaN	521	0.59891558252275	2	1	NaN	3291795.2784599	NaN	3291796.2618348	3291796.77837282
79	20	0	0	90	36.1581920903955	36.241610738255	0	0	1	12	6	NaN	2	5	0.0351553496624043	1	1	NaN	385	7	7	2	111	211	311	NaN	511	0.321828385815024	2	1	NaN	3291798.195376	NaN	3291799.1787822	3291799.69532711
79	20	0	0	90	36.1581920903955	36.241610738255	18	0.60008371219039	2	9	6	NaN	2	5	0.0351553496624043	1	1	NaN	386	7	8	2	121	221	321	NaN	521	1.83240178273991	1	0	NaN	3291800.8289928	NaN	3291801.8123719	3291802.32892042
79	20	0	0	90	36.1581920903955	36.241610738255	16	0.533407744169235	2	8	2	NaN	2	4	0.0351553496624043	1	1	NaN	387	7	9	2	121	221	321	NaN	521	0.322263634297997	2	1	NaN	3291804.9793842	NaN	3291805.9627917	3291806.47932607
79	20	0	0	90	36.1581920903955	36.241610738255	6	0.200027904063463	2	4	5	NaN	1	5	0.0351553496624043	1	1	NaN	388	7	10	2	121	221	321	NaN	521	0.800350234378129	2	0	NaN	3291807.6129632	NaN	3291808.5963692	3291809.11292237
79	20	0	0	90	36.1581920903955	36.241610738255	17	0.566745728179812	2	6	5	NaN	1	4	0.0351553496624043	1	1	NaN	389	7	11	2	121	221	321	NaN	521	0.339844885282218	2	0	NaN	3291810.7299501	NaN	3291811.7133301	3291812.22988371
79	20	0	0	90	36.1581920903955	36.241610738255	17	0.566745728179812	2	8	4	NaN	2	3	0.0351553496624043	1	1	NaN	390	7	12	2	121	221	321	NaN	521	0.29745753435418	1	0	NaN	3291813.3801685	NaN	3291814.363597	3291814.88014737
79	20	0	0	90	36.1581920903955	36.241610738255	21	0.700097664222121	2	12	4	NaN	2	3	0.0351553496624043	1	1	NaN	391	7	13	2	121	221	321	NaN	521	0.992142682429403	2	1	NaN	3291815.9971269	NaN	3291816.980543	3291817.49707902
79	20	0	0	90	36.1581920903955	36.241610738255	8	0.266703872084618	2	11	5	NaN	2	3	0.0351553496624043	1	1	NaN	392	7	14	2	121	221	321	NaN	521	0.163938082754612	2	1	NaN	3291819.2974403	NaN	3291820.2808476	3291820.79740602
79	20	0	0	90	36.1581920903955	36.241610738255	11	0.366717824116349	2	10	6	NaN	2	3	0.0351553496624043	1	1	NaN	393	7	15	2	121	221	321	NaN	521	0.465080582536757	2	1	NaN	3291821.7643635	NaN	3291822.7477283	3291823.26430792
79	20	0	0	90	36.1581920903955	36.241610738255	11	0.366717824116349	2	11	1	NaN	2	4	0.0351553496624043	1	1	NaN	394	7	16	2	121	221	321	NaN	521	2.0337025821209	1	0	NaN	3291824.5479645	NaN	3291825.5313628	3291826.04791022
79	20	0	0	90	36.1581920903955	36.241610738255	22	0.733435648232698	2	3	3	NaN	1	4	0.0351553496624043	1	1	NaN	395	7	17	2	121	221	321	NaN	521	0.234816882759333	1	1	NaN	3291828.8982958	NaN	3291829.8818324	3291830.39834062
79	20	0	0	90	36.1581920903955	36.241610738255	11	0.366717824116349	2	2	1	NaN	1	3	0.0351553496624043	1	1	NaN	396	7	18	2	121	221	321	NaN	521	0.54876088257879	1	1	NaN	3291831.44867	NaN	3291832.4320712	3291832.94859212
79	20	0	0	90	36.1581920903955	36.241610738255	14	0.466731776148081	2	8	6	NaN	2	3	0.0351553496624043	1	1	NaN	397	7	19	2	121	221	321	NaN	521	0.257742334157228	2	1	NaN	3291834.315598	NaN	3291835.2989886	3291835.81554357
79	20	0	0	90	36.1581920903955	36.241610738255	0	0	1	2	3	NaN	1	3	0.0351553496624043	1	1	NaN	398	7	20	2	111	211	311	NaN	511	0.46726763388142	1	1	NaN	3291836.8825425	NaN	3291837.8659438	3291838.38245877
79	20	0	0	90	36.1581920903955	36.241610738255	8	0.266703872084618	2	9	5	NaN	2	3	0.0351553496624043	1	1	NaN	399	7	21	2	121	221	321	NaN	521	0.595600534230471	1	0	NaN	3291839.6661295	NaN	3291840.6494404	3291841.16607017
79	20	0	0	90	36.1581920903955	36.241610738255	24	0.800111616253853	2	4	2	NaN	1	5	0.0351553496624043	1	1	NaN	400	7	22	2	121	221	321	NaN	521	0.558947443030775	1	1	NaN	3291842.5663782	NaN	3291843.5498182	3291844.06635436
79	20	0	0	90	36.1581920903955	36.241610738255	0	0	1	10	3	NaN	2	4	0.0351553496624043	1	1	NaN	401	7	23	2	111	211	311	NaN	511	0.364105134271085	2	1	NaN	3291845.4332217	NaN	3291846.4167649	3291846.93329977
79	20	0	0	90	36.1581920903955	36.241610738255	11	0.366717824116349	2	9	2	NaN	2	3	0.0351553496624043	1	1	NaN	402	7	24	2	121	221	321	NaN	521	0.472483434248716	2	1	NaN	3291848.116927	NaN	3291849.1003465	3291849.61690707
79	20	0	0	90	36.1581920903955	36.241610738255	22	0.733435648232698	2	10	2	NaN	2	5	0.0351553496624043	1	1	NaN	403	7	25	2	121	221	321	NaN	521	0.320910034701228	2	1	NaN	3291850.9005659	NaN	3291851.8839547	3291852.40051507
79	20	0	0	90	36.1581920903955	36.241610738255	11	0.366717824116349	2	12	3	NaN	2	4	0.0351553496624043	1	1	NaN	404	7	26	2	121	221	321	NaN	521	0.583624334540218	2	1	NaN	3291853.5341708	NaN	3291854.5175523	3291855.03409897
79	20	0	0	90	36.1581920903955	36.241610738255	22	0.733435648232698	2	2	2	NaN	1	5	0.0351553496624043	1	1	NaN	405	7	27	2	121	221	321	NaN	521	0.16295983735472	2	0	NaN	3291856.4344602	NaN	3291857.4178464	3291857.93438596
79	20	0	0	90	36.1581920903955	36.241610738255	23	0.766773632243276	2	12	5	NaN	2	5	0.0351553496624043	1	1	NaN	406	7	28	2	121	221	321	NaN	521	0.445858482271433	2	1	NaN	3291859.3513791	NaN	3291860.3348365	3291860.85133112
79	20	0	0	90	36.1581920903955	36.241610738255	18	0.60008371219039	2	1	3	NaN	1	3	0.0351553496624043	1	1	NaN	407	7	29	2	121	221	321	NaN	521	0.359479334205389	1	1	NaN	3291862.118319	NaN	3291863.1017201	3291863.61827657
79	20	0	0	90	36.1581920903955	36.241610738255	24	0.800111616253853	2	10	6	NaN	2	5	0.0351553496624043	1	1	NaN	408	7	30	2	121	221	321	NaN	521	0.0104320794343948	1	0	NaN	3291864.8019248	NaN	3291865.785326	3291866.30187142
79	20	0	0	90	36.1581920903955	36.241610738255	14	0.466731776148081	2	10	1	NaN	2	4	0.0351553496624043	1	1	NaN	409	7	31	2	121	221	321	NaN	521	0.0104029825888574	2	1	NaN	3291867.118823	NaN	3291868.1022186	3291868.61876622
79	20	0	0	90	36.1581920903955	36.241610738255	23	0.766773632243276	2	10	5	NaN	2	5	0.0351553496624043	1	1	NaN	410	7	32	2	121	221	321	NaN	521	0.673751285299659	2	1	NaN	3291869.4357128	NaN	3291870.4191109	3291870.93566781
79	20	0	0	90	36.1581920903955	36.241610738255	23	0.766773632243276	2	4	4	NaN	1	4	0.0351553496624043	1	1	NaN	411	7	33	2	121	221	321	NaN	521	0.890416382811964	2	0	NaN	3291872.4193401	NaN	3291873.4027607	3291873.91928292
79	20	0	0	90	36.1581920903955	36.241610738255	13	0.433393792137504	2	6	3	NaN	1	5	0.0351553496624043	1	1	NaN	412	7	34	2	121	221	321	NaN	521	0.697938482277095	1	1	NaN	3291875.6196475	NaN	3291876.6030567	3291877.11960642
79	20	0	0	90	36.1581920903955	36.241610738255	21	0.700097664222121	2	10	1	NaN	2	3	0.0351553496624043	1	1	NaN	413	7	35	2	121	221	321	NaN	521	0.0104290312156081	2	1	NaN	3291878.636624	NaN	3291879.6200639	3291880.13656667
79	20	0	0	90	36.1581920903955	36.241610738255	16	0.533407744169235	2	11	4	NaN	2	5	0.0351553496624043	1	1	NaN	414	7	36	2	121	221	321	NaN	521	0.491942431312054	2	1	NaN	3291880.9533861	NaN	3291881.9369096	3291882.45346297
79	20	0	0	90	36.1581920903955	36.241610738255	25	0.83344960026443	2	4	6	NaN	1	4	0.0351553496624043	1	1	NaN	415	7	37	2	121	221	321	NaN	521	0.0104202311486006	2	0	NaN	3291883.753671	NaN	3291884.7372004	3291885.25373477
79	20	0	0	90	36.1581920903955	36.241610738255	8	0.266703872084618	2	10	2	NaN	2	5	0.0351553496624043	1	1	NaN	416	7	38	2	121	221	321	NaN	521	0.438482393976301	2	1	NaN	3291886.0873494	NaN	3291887.0707904	3291887.58730571
79	20	0	0	90	36.1581920903955	36.241610738255	24	0.800111616253853	2	5	2	NaN	1	4	0.0351553496624043	1	1	NaN	417	7	39	2	121	221	321	NaN	521	0.160021934192628	2	0	NaN	3291888.8375244	NaN	3291889.8210427	3291890.33757137
79	20	0	0	90	36.1581920903955	36.241610738255	15	0.500069760158658	2	8	1	NaN	2	4	0.0351553496624043	1	1	NaN	418	7	40	2	121	221	321	NaN	521	0.493020737078041	1	0	NaN	3291891.3046087	NaN	3291892.2879301	3291892.80448046
79	20	0	0	90	36.1581920903955	36.241610738255	15	0.500069760158658	2	9	3	NaN	2	4	0.0351553496624043	1	1	NaN	419	7	41	2	121	221	321	NaN	521	1.04407233465463	2	1	NaN	3291894.1213493	NaN	3291895.1048814	3291895.62142497
79	20	0	0	90	36.1581920903955	36.241610738255	0	0	1	3	4	NaN	1	4	0.0351553496624043	1	1	NaN	420	7	42	2	111	211	311	NaN	511	0.509441634174436	1	1	NaN	3291897.4885138	NaN	3291898.4718712	3291898.98842037
79	20	0	0	90	36.1581920903955	36.241610738255	20	0.666759680211544	2	9	3	NaN	2	4	0.0351553496624043	1	1	NaN	421	7	43	2	121	221	321	NaN	521	0.780293885618448	2	1	NaN	3291900.3054193	NaN	3291901.2888069	3291901.80536871
79	20	0	0	90	36.1581920903955	36.241610738255	9	0.300041856095195	2	7	5	NaN	2	3	0.0351553496624043	1	1	NaN	422	7	44	2	121	221	321	NaN	521	0.791112385690212	2	1	NaN	3291903.8224046	NaN	3291904.8058302	3291905.32238691
79	20	0	0	90	36.1581920903955	36.241610738255	7	0.23336588807404	2	12	5	NaN	2	3	0.0351553496624043	1	1	NaN	423	7	45	2	121	221	321	NaN	521	0.234782934188843	2	1	NaN	3291906.9227149	NaN	3291907.9061495	3291908.42268317
79	20	0	0	90	36.1581920903955	36.241610738255	23	0.766773632243276	2	1	2	NaN	1	4	0.0351553496624043	1	1	NaN	424	7	46	2	121	221	321	NaN	521	0.732881734147668	2	0	NaN	3291909.4729992	NaN	3291910.4563691	3291910.97293657
79	20	0	0	90	36.1581920903955	36.241610738255	22	0.733435648232698	2	11	3	NaN	2	3	0.0351553496624043	1	1	NaN	425	7	47	2	121	221	321	NaN	521	0.450574634131044	1	0	NaN	3291912.5232542	NaN	3291913.5066875	3291914.02323477
79	20	0	0	90	36.1581920903955	36.241610738255	0	0	1	8	6	NaN	2	5	0.0351553496624043	1	1	NaN	426	7	48	2	111	211	311	NaN	511	1.05911063123494	1	0	NaN	3291915.2902411	NaN	3291916.2736202	3291916.79017317
79	20	0	0	90	36.1581920903955	36.241610738255	0	0	1	7	4	NaN	2	3	0.0351553496624043	1	1	NaN	427	7	49	2	111	211	311	NaN	511	0.858891134150326	1	0	NaN	3291918.6905606	NaN	3291919.6739617	3291920.19050687
79	20	0	0	90	36.1581920903955	36.241610738255	25	0.83344960026443	2	2	4	NaN	1	4	0.0351553496624043	1	1	NaN	428	7	50	2	121	221	321	NaN	521	0.683242682833225	1	1	NaN	3291921.8742115	NaN	3291922.8575954	3291923.37414562
79	20	0	0	90	36.1581920903955	36.241610738255	7	0.23336588807404	2	4	5	NaN	1	4	0.0351553496624043	1	1	NaN	429	7	51	2	121	221	321	NaN	521	0.39528028247878	1	1	NaN	3291924.8744997	NaN	3291925.8578922	3291926.37444272
79	20	0	0	90	36.1581920903955	36.241610738255	12	0.400055808126926	2	6	5	NaN	1	5	0.0351553496624043	1	1	NaN	430	7	52	2	121	221	321	NaN	521	0.702200082596391	2	0	NaN	3291927.5914401	NaN	3291928.574847	3291929.09137702
79	20	0	0	90	36.1581920903955	36.241610738255	7	0.23336588807404	2	7	3	NaN	2	4	0.0351553496624043	1	1	NaN	431	7	53	2	121	221	321	NaN	521	0.405073682777584	2	1	NaN	3291930.6083991	NaN	3291931.5917985	3291932.10833992
79	20	0	0	90	36.1581920903955	36.241610738255	6	0.200027904063463	2	1	6	NaN	1	5	0.0351553496624043	1	1	NaN	432	7	54	2	121	221	321	NaN	521	0.536009634379297	2	0	NaN	3291933.3253179	NaN	3291934.3087247	3291934.82528487
79	20	0	0	90	36.1581920903955	36.241610738255	0	0	1	2	6	NaN	1	3	0.0351553496624043	1	1	NaN	433	7	55	2	111	211	311	NaN	511	0.01038953429088	2	0	NaN	3291936.1756113	NaN	3291937.1589842	3291937.67556017
79	20	0	0	90	36.1581920903955	36.241610738255	10	0.333379840105772	2	6	5	NaN	1	5	0.0351553496624043	1	1	NaN	434	7	56	2	121	221	321	NaN	521	0.536962982732803	1	1	NaN	3291938.4925109	NaN	3291939.4758865	3291939.99244842
79	20	0	0	90	36.1581920903955	36.241610738255	6	0.200027904063463	2	10	5	NaN	2	4	0.0351553496624043	1	1	NaN	435	7	57	2	121	221	321	NaN	521	0.295195634011179	2	1	NaN	3291941.3427499	NaN	3291942.3261783	3291942.84273617
79	20	0	0	90	36.1581920903955	36.241610738255	15	0.500069760158658	2	3	2	NaN	1	3	0.0351553496624043	1	1	NaN	436	7	58	2	121	221	321	NaN	521	0.0104050827212632	1	1	NaN	3291943.9597074	NaN	3291944.9431907	3291945.45966192
79	20	0	0	90	36.1581920903955	36.241610738255	19	0.633421696200967	2	7	4	NaN	2	5	0.0351553496624043	1	1	NaN	437	7	59	2	121	221	321	NaN	521	0.497012585401535	2	1	NaN	3291946.2765003	NaN	3291947.2599959	3291947.77655211
79	20	0	0	90	36.1581920903955	36.241610738255	21	0.700097664222121	2	12	5	NaN	2	4	0.0351553496624043	1	1	NaN	438	7	60	2	121	221	321	NaN	521	0.320393434260041	2	1	NaN	3291949.0935402	NaN	3291950.0769515	3291950.59349137
79	20	0	0	90	36.1581920903955	36.241610738255	20	0.666759680211544	2	12	4	NaN	2	4	0.0351553496624043	1	1	NaN	439	7	61	2	121	221	321	NaN	521	1.08642923412845	2	1	NaN	3291951.7270351	NaN	3291952.710555	3291953.22708137
79	20	0	0	90	36.1581920903955	36.241610738255	7	0.23336588807404	2	4	6	NaN	1	3	0.0351553496624043	1	1	NaN	440	7	62	2	121	221	321	NaN	521	0.534503079485148	1	1	NaN	3291955.127351	NaN	3291956.1109234	3291956.62742002
79	20	0	0	90	36.1581920903955	36.241610738255	16	0.533407744169235	2	9	6	NaN	2	3	0.0351553496624043	1	1	NaN	441	7	63	2	121	221	321	NaN	521	0.467849385458976	1	0	NaN	3291957.9777476	NaN	3291958.9611356	3291959.47770291
79	20	0	0	90	36.1581920903955	36.241610738255	24	0.800111616253853	2	9	4	NaN	2	3	0.0351553496624043	1	1	NaN	442	8	1	2	121	221	321	NaN	521	0.359852734021842	2	1	NaN	3291964.861763	NaN	3291965.8451596	3291966.36171197
79	20	0	0	90	36.1581920903955	36.241610738255	14	0.466731776148081	2	4	1	NaN	1	4	0.0351553496624043	1	1	NaN	443	8	2	2	121	221	321	NaN	521	0.32487643416971	1	1	NaN	3291967.5287107	NaN	3291968.5120833	3291969.02864467
79	20	0	0	90	36.1581920903955	36.241610738255	18	0.60008371219039	2	6	4	NaN	1	5	0.0351553496624043	1	1	NaN	444	8	3	2	121	221	321	NaN	521	0.475361788645387	1	1	NaN	3291970.1622864	NaN	3291971.1456801	3291971.66223201
79	20	0	0	90	36.1581920903955	36.241610738255	17	0.566745728179812	2	9	6	NaN	2	5	0.0351553496624043	1	1	NaN	445	8	4	2	121	221	321	NaN	521	0.387528685387224	1	0	NaN	3291972.9458827	NaN	3291973.929255	3291974.44584571
79	20	0	0	90	36.1581920903955	36.241610738255	14	0.466731776148081	2	3	3	NaN	1	3	0.0351553496624043	1	1	NaN	446	8	5	2	121	221	321	NaN	521	0.527540334500372	1	1	NaN	3291975.6461596	NaN	3291976.6295539	3291977.14610767
79	20	0	0	90	36.1581920903955	36.241610738255	18	0.60008371219039	2	11	3	NaN	2	4	0.0351553496624043	1	1	NaN	447	8	6	2	121	221	321	NaN	521	0.269650534261018	2	1	NaN	3291978.4797276	NaN	3291979.4631539	3291979.97972257
79	20	0	0	90	36.1581920903955	36.241610738255	9	0.300041856095195	2	12	6	NaN	2	3	0.0351553496624043	1	1	NaN	448	8	7	2	121	221	321	NaN	521	0.0104092825204134	2	1	NaN	3291981.0633638	NaN	3291982.0467568	3291982.56330122
79	20	0	0	90	36.1581920903955	36.241610738255	16	0.533407744169235	2	3	6	NaN	1	5	0.0351553496624043	1	1	NaN	449	8	8	2	121	221	321	NaN	521	0.368988794274628	1	1	NaN	3291983.3969155	NaN	3291984.3803185	3291984.89686751
79	20	0	0	90	36.1581920903955	36.241610738255	19	0.633421696200967	2	3	6	NaN	1	4	0.0351553496624043	1	1	NaN	450	8	9	2	121	221	321	NaN	521	0.38099353434518	1	1	NaN	3291986.0805213	NaN	3291987.0639174	3291987.58046737
79	20	0	0	90	36.1581920903955	36.241610738255	15	0.500069760158658	2	11	4	NaN	2	5	0.0351553496624043	1	1	NaN	451	8	10	2	121	221	321	NaN	521	0.624800982419401	2	1	NaN	3291988.780779	NaN	3291989.7641817	3291990.28072652
79	20	0	0	90	36.1581920903955	36.241610738255	22	0.733435648232698	2	12	3	NaN	2	3	0.0351553496624043	1	1	NaN	452	8	11	2	121	221	321	NaN	521	0.491245185490698	2	1	NaN	3291991.7143995	NaN	3291992.6978221	3291993.21435931
79	20	0	0	90	36.1581920903955	36.241610738255	22	0.733435648232698	2	4	1	NaN	1	3	0.0351553496624043	1	1	NaN	453	8	12	2	121	221	321	NaN	521	0.730955634266138	2	0	NaN	3291994.5146391	NaN	3291995.4980963	3291996.01463007
79	20	0	0	90	36.1581920903955	36.241610738255	25	0.83344960026443	2	4	1	NaN	1	5	0.0351553496624043	1	1	NaN	454	8	13	2	121	221	321	NaN	521	1.03297773469239	2	0	NaN	3291997.5649745	NaN	3291998.5483539	3291999.06493007
79	20	0	0	90	36.1581920903955	36.241610738255	15	0.500069760158658	2	8	5	NaN	2	4	0.0351553496624043	1	1	NaN	455	8	14	2	121	221	321	NaN	521	0.0104070827364922	2	1	NaN	3292000.915233	NaN	3292001.8987187	3292002.41525002
79	20	0	0	90	36.1581920903955	36.241610738255	6	0.200027904063463	2	6	6	NaN	1	3	0.0351553496624043	1	1	NaN	456	8	15	2	121	221	321	NaN	521	0.532753034029156	1	1	NaN	3292003.2488787	NaN	3292004.2322583	3292004.74882197
79	20	0	0	90	36.1581920903955	36.241610738255	21	0.700097664222121	2	2	6	NaN	1	5	0.0351553496624043	1	1	NaN	457	8	16	2	121	221	321	NaN	521	0.291131882462651	2	0	NaN	3292006.4824894	NaN	3292007.4659292	3292007.98246492
79	20	0	0	90	36.1581920903955	36.241610738255	24	0.800111616253853	2	8	1	NaN	2	5	0.0351553496624043	1	1	NaN	458	8	17	2	121	221	321	NaN	521	0.122872034087777	2	1	NaN	3292009.0827803	NaN	3292010.0661919	3292010.58273027
