subjno	age	gender	isPractice	viewdist	CmToPixX	CmToPixY	SOA_frm	SOA_time	targNum	targID	targExample	targRace	targGender	firstTargPos	contrast	familiarity	curr_staircase	iStair	TrialNum	BlockNum	blktrl	sessionNum	TC_FIXATION	TC_RSVP_START	TC_RSVP_END	TC_BLANK	TC_RESPONSE_ONSET	RT2afc	resp_2afc	acc	RSVPOnsetVBL	RSVPOnsetTime	RSVPOffsetVBL	RSVPOffsetTime	startrt_2afc
36	19	0	0	90	36.1581920903955	36.241610738255	7	0.233355836030096	2	4	6	NaN	1	4	0.0498166688863308	0	1	NaN	1	1	1	2	120	220	320	NaN	520	0.508784578880295	1	1	NaN	1974935.8841828	NaN	1974936.8674199	1974937.40053092
36	19	0	0	90	36.1581920903955	36.241610738255	19	0.633394412081689	2	9	1	NaN	2	4	0.0498166688863308	0	1	NaN	2	1	2	2	120	220	320	NaN	520	0.0112395312171429	2	1	NaN	1974938.7677529	NaN	1974939.7510235	1974940.28415957
36	19	0	0	90	36.1581920903955	36.241610738255	19	0.633394412081689	2	10	2	NaN	2	4	0.0498166688863308	0	1	NaN	3	1	3	2	120	220	320	NaN	520	0.339608891634271	2	1	NaN	1974941.1176261	NaN	1974942.101218	1974942.61772431
36	19	0	0	90	36.1581920903955	36.241610738255	8	0.266692384034395	2	4	3	NaN	1	3	0.0498166688863308	0	1	NaN	4	1	4	2	120	220	320	NaN	520	0.416800826787949	1	1	NaN	1974943.7846984	NaN	1974944.768087	1974945.28463997
36	19	0	0	90	36.1581920903955	36.241610738255	12	0.400038576051593	2	3	6	NaN	1	3	0.0498166688863308	0	1	NaN	5	1	5	2	120	220	320	NaN	520	0.0592001746408641	1	1	NaN	1974946.5182969	NaN	1974947.5017039	1974948.01823903
36	19	0	0	90	36.1581920903955	36.241610738255	9	0.300028932038695	2	7	6	NaN	2	4	0.0498166688863308	0	1	NaN	6	1	6	2	120	220	320	NaN	520	0.228033926803619	2	1	NaN	1974948.9018575	NaN	1974949.8852554	1974950.40181417
36	19	0	0	90	36.1581920903955	36.241610738255	18	0.600057864077389	2	9	3	NaN	2	3	0.0498166688863308	0	1	NaN	7	1	7	2	120	220	320	NaN	520	0.0134591269306839	2	1	NaN	1974951.4521183	NaN	1974952.4355163	1974952.95205527
36	19	0	0	90	36.1581920903955	36.241610738255	22	0.733404056094587	2	9	3	NaN	2	5	0.0498166688863308	0	1	NaN	8	1	8	2	120	220	320	NaN	520	0.423753574723378	2	1	NaN	1974953.7856919	NaN	1974954.7691111	1974955.28561683
36	19	0	0	90	36.1581920903955	36.241610738255	21	0.700067508090287	2	2	1	NaN	1	5	0.0498166688863308	0	1	NaN	9	1	9	2	120	220	320	NaN	520	0.258107974659652	1	1	NaN	1974956.5192807	NaN	1974957.5026928	1974958.01922023
36	19	0	0	90	36.1581920903955	36.241610738255	14	0.466711672060192	2	1	4	NaN	1	5	0.0498166688863308	0	1	NaN	10	1	10	2	120	220	320	NaN	520	0.210470478981733	1	1	NaN	1974959.1028553	NaN	1974960.0862999	1974960.60281492
36	19	0	0	90	36.1581920903955	36.241610738255	24	0.800077152103186	2	3	4	NaN	1	3	0.0498166688863308	0	1	NaN	11	1	11	2	120	220	320	NaN	520	0.453383274609223	2	0	NaN	1974961.6364276	NaN	1974962.6198435	1974963.13639493
36	19	0	0	90	36.1581920903955	36.241610738255	23	0.766740604098886	2	7	4	NaN	2	5	0.0498166688863308	0	1	NaN	12	1	12	2	120	220	320	NaN	520	0.254420526791364	2	1	NaN	1974964.4033993	NaN	1974965.3867863	1974965.90333677
36	19	0	0	90	36.1581920903955	36.241610738255	7	0.233355836030096	2	9	6	NaN	2	4	0.0498166688863308	0	1	NaN	13	1	13	2	120	220	320	NaN	520	0.0104077747091651	2	1	NaN	1974966.970176	NaN	1974967.9536963	1974968.47024403
36	19	0	0	90	36.1581920903955	36.241610738255	14	0.466711672060192	2	1	4	NaN	1	3	0.0498166688863308	0	1	NaN	14	1	14	2	120	220	320	NaN	520	0.041432426776737	1	1	NaN	1974969.303876	NaN	1974970.2872666	1974970.80381717
36	19	0	0	90	36.1581920903955	36.241610738255	25	0.833413700107485	2	11	2	NaN	2	5	0.0498166688863308	0	1	NaN	15	1	15	2	120	220	320	NaN	520	0.482693670550361	2	1	NaN	1974971.6707606	NaN	1974972.6541627	1974973.17070253
36	19	0	0	90	36.1581920903955	36.241610738255	12	0.400038576051593	2	10	4	NaN	2	3	0.0498166688863308	0	1	NaN	16	1	16	2	120	220	320	NaN	520	0.010265443706885	2	1	NaN	1974974.4710467	NaN	1974975.4544458	1974975.97099496
36	19	0	0	90	36.1581920903955	36.241610738255	15	0.500048220064491	2	5	5	NaN	1	5	0.0498166688863308	0	1	NaN	17	1	17	2	120	220	320	NaN	520	0.357187274610624	1	1	NaN	1974976.8045901	NaN	1974977.7880055	1974978.30454293
36	19	0	0	90	36.1581920903955	36.241610738255	14	0.466711672060192	2	11	4	NaN	2	3	0.0498166688863308	0	1	NaN	18	1	18	2	120	220	320	NaN	520	0.010394626762718	2	1	NaN	1974979.4715401	NaN	1974980.4549324	1974980.97148117
36	19	0	0	90	36.1581920903955	36.241610738255	0	0	1	7	3	NaN	2	4	0.0498166688863308	0	1	NaN	19	1	19	2	110	210	310	NaN	510	0.0849295267835259	1	0	NaN	1974981.788404	NaN	1974982.7718291	1974983.28836407
36	19	0	0	90	36.1581920903955	36.241610738255	25	0.833413700107485	2	10	4	NaN	2	4	0.0498166688863308	0	1	NaN	20	1	20	2	120	220	320	NaN	520	0.157130626728758	2	1	NaN	1974984.1886694	NaN	1974985.1720641	1974985.68861037
36	19	0	0	90	36.1581920903955	36.241610738255	17	0.56672131607309	2	3	3	NaN	1	4	0.0498166688863308	0	1	NaN	21	1	21	2	120	220	320	NaN	520	0.0972763267345726	1	1	NaN	1974986.6722343	NaN	1974987.6556202	1974988.17218687
36	19	0	0	90	36.1581920903955	36.241610738255	25	0.833413700107485	2	3	3	NaN	1	4	0.0498166688863308	0	1	NaN	22	1	22	2	120	220	320	NaN	520	0.144680274650455	1	1	NaN	1974989.0891642	NaN	1974990.0725702	1974990.58907733
36	19	0	0	90	36.1581920903955	36.241610738255	21	0.700067508090287	2	10	6	NaN	2	5	0.0498166688863308	0	1	NaN	23	1	23	2	120	220	320	NaN	520	0.0374037746805698	2	1	NaN	1974991.5560152	NaN	1974992.5394838	1974993.05598773
36	19	0	0	90	36.1581920903955	36.241610738255	13	0.433375124055892	2	3	1	NaN	1	3	0.0498166688863308	0	1	NaN	24	1	24	2	120	220	320	NaN	520	0.263266226742417	2	0	NaN	1974993.9062602	NaN	1974994.8896721	1974995.40621957
36	19	0	0	90	36.1581920903955	36.241610738255	15	0.500048220064491	2	3	3	NaN	1	5	0.0498166688863308	0	1	NaN	25	1	25	2	120	220	320	NaN	520	0.735598874744028	1	1	NaN	1974996.489855	NaN	1974997.4732831	1974997.98980923
36	19	0	0	90	36.1581920903955	36.241610738255	11	0.366702028047293	2	9	4	NaN	2	3	0.0498166688863308	0	1	NaN	26	1	26	2	120	220	320	NaN	520	0.0125217747408897	2	1	NaN	1974999.5568324	NaN	1975000.5402613	1975001.05677523
36	19	0	0	90	36.1581920903955	36.241610738255	23	0.766740604098886	2	9	1	NaN	2	3	0.0498166688863308	0	1	NaN	27	1	27	2	120	220	320	NaN	520	0.127105822321028	2	1	NaN	1975001.8902997	NaN	1975002.8737922	1975003.39034178
36	19	0	0	90	36.1581920903955	36.241610738255	8	0.266692384034395	2	4	5	NaN	1	5	0.0498166688863308	0	1	NaN	28	1	28	2	120	220	320	NaN	520	1.27715162700042	1	1	NaN	1975004.3406362	NaN	1975005.3240257	1975005.84058497
36	19	0	0	90	36.1581920903955	36.241610738255	13	0.433375124055892	2	8	5	NaN	2	3	0.0498166688863308	0	1	NaN	29	1	29	2	120	220	320	NaN	520	0.164347274694592	2	1	NaN	1975007.9409864	NaN	1975008.9243921	1975009.44092503
36	19	0	0	90	36.1581920903955	36.241610738255	21	0.700067508090287	2	2	1	NaN	1	3	0.0498166688863308	0	1	NaN	30	1	30	2	120	220	320	NaN	520	0.0249934268649668	1	1	NaN	1975010.4245576	NaN	1975011.4079645	1975011.92451467
36	19	0	0	90	36.1581920903955	36.241610738255	23	0.766740604098886	2	6	6	NaN	1	3	0.0498166688863308	0	1	NaN	31	1	31	2	120	220	320	NaN	520	0.586602374678478	1	1	NaN	1975012.7747948	NaN	1975013.7582793	1975014.27474493
36	19	0	0	90	36.1581920903955	36.241610738255	23	0.766740604098886	2	8	1	NaN	2	4	0.0498166688863308	0	1	NaN	32	1	32	2	120	220	320	NaN	520	0.150345026981086	2	1	NaN	1975015.6751281	NaN	1975016.6584744	1975017.17502767
36	19	0	0	90	36.1581920903955	36.241610738255	23	0.766740604098886	2	11	2	NaN	2	5	0.0498166688863308	0	1	NaN	33	1	33	2	120	220	320	NaN	520	0.283505074679852	2	1	NaN	1975018.1419907	NaN	1975019.1253804	1975019.64192883
36	19	0	0	90	36.1581920903955	36.241610738255	11	0.366702028047293	2	8	1	NaN	2	5	0.0498166688863308	0	1	NaN	34	1	34	2	120	220	320	NaN	520	0.411340231075883	2	1	NaN	1975020.7422592	NaN	1975021.7256398	1975022.24219627
36	19	0	0	90	36.1581920903955	36.241610738255	12	0.400038576051593	2	1	6	NaN	1	3	0.0498166688863308	0	1	NaN	35	1	35	2	120	220	320	NaN	520	0.486099526751786	2	0	NaN	1975023.4758262	NaN	1975024.4592703	1975024.97578707
36	19	0	0	90	36.1581920903955	36.241610738255	18	0.600057864077389	2	4	2	NaN	1	4	0.0498166688863308	0	1	NaN	36	1	36	2	120	220	320	NaN	520	0.0104439747519791	1	1	NaN	1975026.2761274	NaN	1975027.2594267	1975027.77605693
36	19	0	0	90	36.1581920903955	36.241610738255	11	0.366702028047293	2	7	2	NaN	2	4	0.0498166688863308	0	1	NaN	37	1	37	2	120	220	320	NaN	520	0.255808174610138	2	1	NaN	1975028.6096783	NaN	1975029.5930768	1975030.10962313
36	19	0	0	90	36.1581920903955	36.241610738255	7	0.233355836030096	2	5	6	NaN	1	3	0.0498166688863308	0	1	NaN	38	1	38	2	120	220	320	NaN	520	0.192861826624721	2	0	NaN	1975031.1765953	NaN	1975032.1600022	1975032.67654927
36	19	0	0	90	36.1581920903955	36.241610738255	9	0.300028932038695	2	5	3	NaN	1	3	0.0498166688863308	0	1	NaN	39	1	39	2	120	220	320	NaN	520	0.0103910267353058	2	0	NaN	1975033.676846	NaN	1975034.6602319	1975035.17679367
36	19	0	0	90	36.1581920903955	36.241610738255	25	0.833413700107485	2	4	6	NaN	1	5	0.0498166688863308	0	1	NaN	40	1	40	2	120	220	320	NaN	520	0.0104060745798051	2	0	NaN	1975036.0104273	NaN	1975036.9938082	1975037.51034773
36	19	0	0	90	36.1581920903955	36.241610738255	0	0	1	10	1	NaN	2	5	0.0498166688863308	0	1	NaN	41	1	41	2	110	210	310	NaN	510	0.529991026734933	2	1	NaN	1975038.327286	NaN	1975039.3107071	1975039.82724367
36	19	0	0	90	36.1581920903955	36.241610738255	11	0.366702028047293	2	10	1	NaN	2	5	0.0498166688863308	0	1	NaN	42	1	42	2	120	220	320	NaN	520	0.320028826827183	2	1	NaN	1975041.1775915	NaN	1975042.1609833	1975042.67752427
36	19	0	0	90	36.1581920903955	36.241610738255	9	0.300028932038695	2	3	1	NaN	1	5	0.0498166688863308	0	1	NaN	43	1	43	2	120	220	320	NaN	520	0.0103910267353058	2	0	NaN	1975043.8111658	NaN	1975044.7945683	1975045.31111517
36	19	0	0	90	36.1581920903955	36.241610738255	18	0.600057864077389	2	3	5	NaN	1	5	0.0498166688863308	0	1	NaN	44	1	44	2	120	220	320	NaN	520	1.05673202662729	1	1	NaN	1975046.1447256	NaN	1975047.1281331	1975047.64468347
36	19	0	0	90	36.1581920903955	36.241610738255	10	0.333365480042994	2	2	3	NaN	1	3	0.0498166688863308	0	1	NaN	45	1	45	2	120	220	320	NaN	520	0.0659108266700059	1	1	NaN	1975049.5117351	NaN	1975050.4951294	1975051.01167267
36	19	0	0	90	36.1581920903955	36.241610738255	10	0.333365480042994	2	6	3	NaN	1	3	0.0498166688863308	0	1	NaN	46	1	46	2	120	220	320	NaN	520	0.210165874566883	1	1	NaN	1975051.8952994	NaN	1975052.8786752	1975053.39523963
36	19	0	0	90	36.1581920903955	36.241610738255	14	0.466711672060192	2	10	1	NaN	2	4	0.0498166688863308	0	1	NaN	47	1	47	2	120	220	320	NaN	520	0.644509674515575	2	1	NaN	1975054.4288783	NaN	1975055.4122994	1975055.92881923
36	19	0	0	90	36.1581920903955	36.241610738255	9	0.300028932038695	2	12	3	NaN	2	3	0.0498166688863308	0	1	NaN	48	1	48	2	120	220	320	NaN	520	0.230774378869683	2	1	NaN	1975057.3790222	NaN	1975058.3625544	1975058.87912082
36	19	0	0	90	36.1581920903955	36.241610738255	7	0.233355836030096	2	1	2	NaN	1	4	0.0498166688863308	0	1	NaN	49	1	49	2	120	220	320	NaN	520	0.0104192744474858	1	1	NaN	1975059.9127465	NaN	1975060.8961553	1975061.41269593
36	19	0	0	90	36.1581920903955	36.241610738255	24	0.800077152103186	2	1	3	NaN	1	3	0.0498166688863308	0	1	NaN	50	1	50	2	120	220	320	NaN	520	0.0103968267794698	2	0	NaN	1975062.246416	NaN	1975063.2297028	1975063.74625827
36	19	0	0	90	36.1581920903955	36.241610738255	25	0.833413700107485	2	12	5	NaN	2	4	0.0498166688863308	0	1	NaN	51	1	51	2	120	220	320	NaN	520	0.0864066395442933	2	1	NaN	1975064.563077	NaN	1975065.5466028	1975066.06315876
36	19	0	0	90	36.1581920903955	36.241610738255	11	0.366702028047293	2	10	3	NaN	2	3	0.0498166688863308	0	1	NaN	52	1	52	2	120	220	320	NaN	520	0.0104021788574755	2	1	NaN	1975066.9634522	NaN	1975067.9468373	1975068.46339482
36	19	0	0	90	36.1581920903955	36.241610738255	12	0.400038576051593	2	6	6	NaN	1	5	0.0498166688863308	0	1	NaN	53	1	53	2	120	220	320	NaN	520	0.849262374686077	1	1	NaN	1975069.280427	NaN	1975070.2637249	1975070.78027683
36	19	0	0	90	36.1581920903955	36.241610738255	21	0.700067508090287	2	10	6	NaN	2	5	0.0498166688863308	0	1	NaN	54	1	54	2	120	220	320	NaN	520	0.0103960267733783	2	1	NaN	1975072.4306413	NaN	1975073.4140428	1975073.93059507
36	19	0	0	90	36.1581920903955	36.241610738255	19	0.633394412081689	2	6	6	NaN	1	5	0.0498166688863308	0	1	NaN	55	1	55	2	120	220	320	NaN	520	0.0701057435944676	1	1	NaN	1975074.7475281	NaN	1975075.7309861	1975076.24749206
36	19	0	0	90	36.1581920903955	36.241610738255	8	0.266692384034395	2	1	1	NaN	1	4	0.0498166688863308	0	1	NaN	56	1	56	2	120	220	320	NaN	520	0.278423826675862	1	1	NaN	1975077.1311121	NaN	1975078.1144943	1975078.63105697
36	19	0	0	90	36.1581920903955	36.241610738255	18	0.600057864077389	2	8	3	NaN	2	5	0.0498166688863308	0	1	NaN	57	1	57	2	120	220	320	NaN	520	1.52651607897133	1	0	NaN	1975079.7313589	NaN	1975080.7147566	1975081.23131292
36	19	0	0	90	36.1581920903955	36.241610738255	25	0.833413700107485	2	8	1	NaN	2	3	0.0498166688863308	0	1	NaN	58	1	58	2	120	220	320	NaN	520	0.619680874515325	1	0	NaN	1975083.5817343	NaN	1975084.5651345	1975085.08167883
36	19	0	0	90	36.1581920903955	36.241610738255	23	0.766740604098886	2	1	4	NaN	1	5	0.0498166688863308	0	1	NaN	59	1	59	2	120	220	320	NaN	520	0.0104250747244805	1	1	NaN	1975086.5153374	NaN	1975087.4987566	1975088.01530053
36	19	0	0	90	36.1581920903955	36.241610738255	24	0.800077152103186	2	9	1	NaN	2	3	0.0498166688863308	0	1	NaN	60	1	60	2	120	220	320	NaN	520	0.113196074729785	2	1	NaN	1975088.8322321	NaN	1975089.8156409	1975090.33219263
36	19	0	0	90	36.1581920903955	36.241610738255	18	0.600057864077389	2	1	2	NaN	1	5	0.0498166688863308	0	1	NaN	61	1	61	2	120	220	320	NaN	520	1.37671802681871	1	1	NaN	1975091.2490851	NaN	1975092.2325537	1975092.74910567
36	19	0	0	90	36.1581920903955	36.241610738255	7	0.233355836030096	2	3	1	NaN	1	4	0.0498166688863308	0	1	NaN	62	1	62	2	120	220	320	NaN	520	0.363949726801366	2	0	NaN	1975094.9495464	NaN	1975095.9329172	1975096.44946487
36	19	0	0	90	36.1581920903955	36.241610738255	19	0.633394412081689	2	2	1	NaN	1	5	0.0498166688863308	0	1	NaN	63	1	63	2	120	220	320	NaN	520	0.0104075267445296	2	0	NaN	1975097.6331161	NaN	1975098.6165325	1975099.13306837
36	19	0	0	90	36.1581920903955	36.241610738255	0	0	1	2	5	NaN	1	3	0.0498166688863308	0	1	NaN	64	2	1	2	110	210	310	NaN	510	0.0104546269867569	2	0	NaN	1975104.6504787	NaN	1975105.6338783	1975106.15042477
36	19	0	0	90	36.1581920903955	36.241610738255	17	0.56672131607309	2	8	3	NaN	2	5	0.0498166688863308	0	1	NaN	65	2	2	2	120	220	320	NaN	520	0.0103782787919044	2	1	NaN	1975106.9673072	NaN	1975107.950762	1975108.46730642
36	19	0	0	90	36.1581920903955	36.241610738255	11	0.366702028047293	2	6	4	NaN	1	5	0.0498166688863308	0	1	NaN	66	2	3	2	120	220	320	NaN	520	1.24545962689444	1	1	NaN	1975109.2841295	NaN	1975110.267654	1975110.78420957
36	19	0	0	90	36.1581920903955	36.241610738255	24	0.800077152103186	2	5	1	NaN	1	4	0.0498166688863308	0	1	NaN	67	2	4	2	120	220	320	NaN	520	0.0624203267507255	1	1	NaN	1975112.8511521	NaN	1975113.8346724	1975114.35121967
36	19	0	0	90	36.1581920903955	36.241610738255	21	0.700067508090287	2	6	4	NaN	1	5	0.0498166688863308	0	1	NaN	68	2	5	2	120	220	320	NaN	520	0.0102862915955484	1	1	NaN	1975115.2181048	NaN	1975116.2015712	1975116.71813211
36	19	0	0	90	36.1581920903955	36.241610738255	25	0.833413700107485	2	6	2	NaN	1	5	0.0498166688863308	0	1	NaN	69	2	6	2	120	220	320	NaN	520	0.0103770790155977	2	0	NaN	1975117.5350762	NaN	1975118.5184652	1975119.03502062
36	19	0	0	90	36.1581920903955	36.241610738255	23	0.766740604098886	2	3	3	NaN	1	4	0.0498166688863308	0	1	NaN	70	2	7	2	120	220	320	NaN	520	1.95006907451898	1	1	NaN	1975119.8519167	NaN	1975120.8352552	1975121.35192043
36	19	0	0	90	36.1581920903955	36.241610738255	8	0.266692384034395	2	9	5	NaN	2	5	0.0498166688863308	0	1	NaN	71	2	8	2	120	220	320	NaN	520	1.25127939158119	2	1	NaN	1975124.1023698	NaN	1975125.08582	1975125.60232491
36	19	0	0	90	36.1581920903955	36.241610738255	18	0.600057864077389	2	11	1	NaN	2	3	0.0498166688863308	0	1	NaN	72	2	9	2	120	220	320	NaN	520	0.948269026819617	2	1	NaN	1975127.6693963	NaN	1975128.6527943	1975129.16933617
36	19	0	0	90	36.1581920903955	36.241610738255	22	0.733404056094587	2	1	6	NaN	1	5	0.0498166688863308	0	1	NaN	73	2	10	2	120	220	320	NaN	520	0.737981126876548	2	0	NaN	1975130.9195666	NaN	1975131.9031348	1975132.41965997
36	19	0	0	90	36.1581920903955	36.241610738255	9	0.300028932038695	2	1	1	NaN	1	4	0.0498166688863308	0	1	NaN	74	2	11	2	120	220	320	NaN	520	0.0877793706022203	1	1	NaN	1975133.9700105	NaN	1975134.9534134	1975135.46995623
36	19	0	0	90	36.1581920903955	36.241610738255	0	0	1	5	6	NaN	1	5	0.0498166688863308	0	1	NaN	75	2	12	2	110	210	310	NaN	510	0.0712895789183676	1	1	NaN	1975136.3702655	NaN	1975137.3536397	1975137.87020112
36	19	0	0	90	36.1581920903955	36.241610738255	0	0	1	1	1	NaN	1	5	0.0498166688863308	0	1	NaN	76	2	13	2	110	210	310	NaN	510	0.0104183745570481	2	0	NaN	1975138.7538252	NaN	1975139.7372131	1975140.25375723
36	19	0	0	90	36.1581920903955	36.241610738255	13	0.433375124055892	2	1	4	NaN	1	4	0.0498166688863308	0	1	NaN	77	2	14	2	120	220	320	NaN	520	0.0103973268996924	2	0	NaN	1975141.0705809	NaN	1975142.0541175	1975142.57065977
36	19	0	0	90	36.1581920903955	36.241610738255	13	0.433375124055892	2	6	3	NaN	1	5	0.0498166688863308	0	1	NaN	78	2	15	2	120	220	320	NaN	520	0.726425526896492	1	1	NaN	1975143.3875947	NaN	1975144.3710651	1975144.88755577
36	19	0	0	90	36.1581920903955	36.241610738255	10	0.333365480042994	2	11	1	NaN	2	5	0.0498166688863308	0	1	NaN	79	2	16	2	120	220	320	NaN	520	0.0103305873926729	2	1	NaN	1975146.4212022	NaN	1975147.4046334	1975147.92118891
36	19	0	0	90	36.1581920903955	36.241610738255	14	0.466711672060192	2	4	1	NaN	1	5	0.0498166688863308	0	1	NaN	80	2	17	2	120	220	320	NaN	520	0.799445274751633	1	1	NaN	1975148.7381191	NaN	1975149.7215105	1975150.23807143
36	19	0	0	90	36.1581920903955	36.241610738255	14	0.466711672060192	2	8	6	NaN	2	3	0.0498166688863308	0	1	NaN	81	2	18	2	120	220	320	NaN	520	0.154677978949621	1	0	NaN	1975151.8550903	NaN	1975152.8384765	1975153.35505392
36	19	0	0	90	36.1581920903955	36.241610738255	15	0.500048220064491	2	11	2	NaN	2	4	0.0498166688863308	0	1	NaN	82	2	19	2	120	220	320	NaN	520	0.0104105747304857	1	0	NaN	1975154.3219328	NaN	1975155.305397	1975155.82194783
36	19	0	0	90	36.1581920903955	36.241610738255	25	0.833413700107485	2	11	5	NaN	2	4	0.0498166688863308	0	1	NaN	83	2	20	2	120	220	320	NaN	520	0.0103953268844634	2	1	NaN	1975156.6555573	NaN	1975157.6389488	1975158.15551487
36	19	0	0	90	36.1581920903955	36.241610738255	23	0.766740604098886	2	2	1	NaN	1	4	0.0498166688863308	0	1	NaN	84	2	21	2	120	220	320	NaN	520	0.0104098746087402	1	1	NaN	1975158.97248	NaN	1975159.9558916	1975160.47240613
36	19	0	0	90	36.1581920903955	36.241610738255	20	0.666730960085988	2	4	3	NaN	1	3	0.0498166688863308	0	1	NaN	85	2	22	2	120	220	320	NaN	520	0.671633226796985	1	1	NaN	1975161.3060374	NaN	1975162.2894213	1975162.80597447
36	19	0	0	90	36.1581920903955	36.241610738255	13	0.433375124055892	2	8	6	NaN	2	3	0.0498166688863308	0	1	NaN	86	2	23	2	120	220	320	NaN	520	0.0102528955321759	2	1	NaN	1975164.289623	NaN	1975165.2730464	1975165.7896115
36	19	0	0	90	36.1581920903955	36.241610738255	24	0.800077152103186	2	7	1	NaN	2	4	0.0498166688863308	0	1	NaN	87	2	24	2	120	220	320	NaN	520	0.995289474492893	1	0	NaN	1975166.606553	NaN	1975167.5899405	1975168.10648733
36	19	0	0	90	36.1581920903955	36.241610738255	11	0.366702028047293	2	4	4	NaN	1	4	0.0498166688863308	0	1	NaN	88	2	25	2	120	220	320	NaN	520	0.0313573745079339	2	0	NaN	1975170.0901904	NaN	1975171.0736225	1975171.59016473
36	19	0	0	90	36.1581920903955	36.241610738255	25	0.833413700107485	2	7	1	NaN	2	3	0.0498166688863308	0	1	NaN	89	2	26	2	120	220	320	NaN	520	0.521055978955701	2	1	NaN	1975172.4404466	NaN	1975173.4238489	1975173.94040452
36	19	0	0	90	36.1581920903955	36.241610738255	16	0.53338476806879	2	12	5	NaN	2	5	0.0498166688863308	0	1	NaN	90	2	27	2	120	220	320	NaN	520	0.0104333225172013	2	1	NaN	1975175.2740174	NaN	1975176.257464	1975176.77401008
36	19	0	0	90	36.1581920903955	36.241610738255	20	0.666730960085988	2	8	4	NaN	2	3	0.0498166688863308	0	1	NaN	91	2	28	2	120	220	320	NaN	520	0.595072126714513	2	1	NaN	1975177.5909288	NaN	1975178.5743665	1975179.09090337
36	19	0	0	90	36.1581920903955	36.241610738255	15	0.500048220064491	2	6	4	NaN	1	4	0.0498166688863308	0	1	NaN	92	2	29	2	120	220	320	NaN	520	0.0104065267369151	1	1	NaN	1975180.4911167	NaN	1975181.4745339	1975181.99119257
36	19	0	0	90	36.1581920903955	36.241610738255	7	0.233355836030096	2	6	4	NaN	1	5	0.0498166688863308	0	1	NaN	93	2	30	2	120	220	320	NaN	520	0.0254623745568097	1	1	NaN	1975182.8081591	NaN	1975183.7915337	1975184.30807663
36	19	0	0	90	36.1581920903955	36.241610738255	20	0.666730960085988	2	9	4	NaN	2	3	0.0498166688863308	0	1	NaN	94	2	31	2	120	220	320	NaN	520	0.64439637446776	1	0	NaN	1975185.1417872	NaN	1975186.1250811	1975186.64164143
36	19	0	0	90	36.1581920903955	36.241610738255	10	0.333365480042994	2	7	6	NaN	2	3	0.0498166688863308	0	1	NaN	95	2	32	2	120	220	320	NaN	520	0.189718574751168	1	0	NaN	1975188.0920086	NaN	1975189.0753655	1975189.59193803
36	19	0	0	90	36.1581920903955	36.241610738255	19	0.633394412081689	2	7	1	NaN	2	4	0.0498166688863308	0	1	NaN	96	2	33	2	120	220	320	NaN	520	0.681495722383261	1	0	NaN	1975190.5922554	NaN	1975191.5756298	1975192.09217778
36	19	0	0	90	36.1581920903955	36.241610738255	23	0.766740604098886	2	2	2	NaN	1	3	0.0498166688863308	0	1	NaN	97	2	34	2	120	220	320	NaN	520	0.0103939268738031	1	1	NaN	1975193.5925159	NaN	1975194.5759377	1975195.09247027
36	19	0	0	90	36.1581920903955	36.241610738255	12	0.400038576051593	2	2	5	NaN	1	4	0.0498166688863308	0	1	NaN	98	2	35	2	120	220	320	NaN	520	0.0203146745916456	1	1	NaN	1975195.909437	NaN	1975196.8928011	1975197.40936303
36	19	0	0	90	36.1581920903955	36.241610738255	25	0.833413700107485	2	10	4	NaN	2	3	0.0498166688863308	0	1	NaN	99	2	36	2	120	220	320	NaN	520	0.0103919268585742	2	1	NaN	1975198.2428453	NaN	1975199.2263811	1975199.74292957
36	19	0	0	90	36.1581920903955	36.241610738255	11	0.366702028047293	2	2	5	NaN	1	4	0.0498166688863308	0	1	NaN	100	2	37	2	120	220	320	NaN	520	0.0104097747243941	1	1	NaN	1975200.5597586	NaN	1975201.5432727	1975202.05981873
36	19	0	0	90	36.1581920903955	36.241610738255	21	0.700067508090287	2	1	5	NaN	1	4	0.0498166688863308	0	1	NaN	101	2	38	2	120	220	320	NaN	520	0.108901074621826	2	0	NaN	1975202.8767739	NaN	1975203.8601719	1975204.37671393
36	19	0	0	90	36.1581920903955	36.241610738255	14	0.466711672060192	2	11	2	NaN	2	3	0.0498166688863308	0	1	NaN	102	2	39	2	120	220	320	NaN	520	0.0278034745715559	2	1	NaN	1975205.2935283	NaN	1975206.2770735	1975206.79361633
36	19	0	0	90	36.1581920903955	36.241610738255	15	0.500048220064491	2	4	4	NaN	1	3	0.0498166688863308	0	1	NaN	103	2	40	2	120	220	320	NaN	520	0.622926226817071	2	0	NaN	1975207.6272497	NaN	1975208.6106438	1975209.12718687
36	19	0	0	90	36.1581920903955	36.241610738255	7	0.233355836030096	2	12	5	NaN	2	4	0.0498166688863308	0	1	NaN	104	2	41	2	120	220	320	NaN	520	0.792811770457774	1	0	NaN	1975210.5608572	NaN	1975211.5442522	1975212.06079713
36	19	0	0	90	36.1581920903955	36.241610738255	13	0.433375124055892	2	10	2	NaN	2	4	0.0498166688863308	0	1	NaN	105	2	42	2	120	220	320	NaN	520	1.0423367745243	2	1	NaN	1975213.7278038	NaN	1975214.7112382	1975215.22778283
36	19	0	0	90	36.1581920903955	36.241610738255	9	0.300028932038695	2	6	3	NaN	1	3	0.0498166688863308	0	1	NaN	106	2	43	2	120	220	320	NaN	520	0.755613122368231	1	1	NaN	1975217.0780419	NaN	1975218.0616195	1975218.57810128
36	19	0	0	90	36.1581920903955	36.241610738255	12	0.400038576051593	2	9	5	NaN	2	4	0.0498166688863308	0	1	NaN	107	2	44	2	120	220	320	NaN	520	1.11233957461081	2	1	NaN	1975220.145126	NaN	1975221.1285279	1975221.64507173
36	19	0	0	90	36.1581920903955	36.241610738255	6	0.200019288025796	2	10	5	NaN	2	3	0.0498166688863308	0	1	NaN	108	2	45	2	120	220	320	NaN	520	0.782868826994672	1	0	NaN	1975223.578789	NaN	1975224.5622033	1975225.07875337
36	19	0	0	90	36.1581920903955	36.241610738255	25	0.833413700107485	2	5	4	NaN	1	5	0.0498166688863308	0	1	NaN	109	2	46	2	120	220	320	NaN	520	0.138691031141207	1	1	NaN	1975226.6791986	NaN	1975227.6625071	1975228.17904757
36	19	0	0	90	36.1581920903955	36.241610738255	7	0.233355836030096	2	11	1	NaN	2	4	0.0498166688863308	0	1	NaN	110	2	47	2	120	220	320	NaN	520	0.128378922352567	2	1	NaN	1975229.1293427	NaN	1975230.1127235	1975230.62929328
36	19	0	0	90	36.1581920903955	36.241610738255	23	0.766740604098886	2	12	6	NaN	2	4	0.0498166688863308	0	1	NaN	111	2	48	2	120	220	320	NaN	520	0.135234370594844	2	1	NaN	1975231.5628715	NaN	1975232.5463188	1975233.06285853
36	19	0	0	90	36.1581920903955	36.241610738255	12	0.400038576051593	2	1	3	NaN	1	4	0.0498166688863308	0	1	NaN	112	2	49	2	120	220	320	NaN	520	0.0104067747015506	2	0	NaN	1975234.0131773	NaN	1975234.996595	1975235.51310173
36	19	0	0	90	36.1581920903955	36.241610738255	17	0.56672131607309	2	6	2	NaN	1	5	0.0498166688863308	0	1	NaN	113	2	50	2	120	220	320	NaN	520	1.65507462667301	1	1	NaN	1975236.3466587	NaN	1975237.3301165	1975237.84666597
36	19	0	0	90	36.1581920903955	36.241610738255	24	0.800077152103186	2	8	5	NaN	2	3	0.0498166688863308	0	1	NaN	114	2	51	2	120	220	320	NaN	520	2.03200567467138	1	0	NaN	1975240.3137807	NaN	1975241.2971675	1975241.81371653
36	19	0	0	90	36.1581920903955	36.241610738255	16	0.53338476806879	2	7	6	NaN	2	4	0.0498166688863308	0	1	NaN	115	2	52	2	120	220	320	NaN	520	0.289626274490729	1	0	NaN	1975244.6641954	NaN	1975245.6476064	1975246.16414363
36	19	0	0	90	36.1581920903955	36.241610738255	25	0.833413700107485	2	9	5	NaN	2	4	0.0498166688863308	0	1	NaN	116	2	53	2	120	220	320	NaN	520	0.288012526696548	1	0	NaN	1975247.2977596	NaN	1975248.2812073	1975248.79773797
36	19	0	0	90	36.1581920903955	36.241610738255	8	0.266692384034395	2	8	3	NaN	2	4	0.0498166688863308	0	1	NaN	117	2	54	2	120	220	320	NaN	520	0.951707043685019	2	1	NaN	1975249.8979112	NaN	1975250.881451	1975251.39800296
36	19	0	0	90	36.1581920903955	36.241610738255	0	0	1	1	2	NaN	1	5	0.0498166688863308	0	1	NaN	118	2	55	2	110	210	310	NaN	510	0.0104576747398823	1	1	NaN	1975253.1650423	NaN	1975254.1484417	1975254.66498383
36	19	0	0	90	36.1581920903955	36.241610738255	8	0.266692384034395	2	7	5	NaN	2	5	0.0498166688863308	0	1	NaN	119	2	56	2	120	220	320	NaN	520	0.296245626872405	2	1	NaN	1975255.4819302	NaN	1975256.4653192	1975256.98187187
36	19	0	0	90	36.1581920903955	36.241610738255	8	0.266692384034395	2	10	1	NaN	2	3	0.0498166688863308	0	1	NaN	120	2	57	2	120	220	320	NaN	520	0.855483143823221	2	1	NaN	1975258.082188	NaN	1975259.0655864	1975259.58213336
36	19	0	0	90	36.1581920903955	36.241610738255	0	0	1	10	5	NaN	2	3	0.0498166688863308	0	1	NaN	121	2	58	2	110	210	310	NaN	510	0.0104126746300608	2	1	NaN	1975261.2491438	NaN	1975262.2325584	1975262.74910993
36	19	0	0	90	36.1581920903955	36.241610738255	19	0.633394412081689	2	5	1	NaN	1	5	0.0498166688863308	0	1	NaN	122	2	59	2	120	220	320	NaN	520	0.475911374669522	2	0	NaN	1975263.565974	NaN	1975264.5495006	1975265.06599923
36	19	0	0	90	36.1581920903955	36.241610738255	6	0.200019288025796	2	2	6	NaN	1	4	0.0498166688863308	0	1	NaN	123	2	60	2	120	220	320	NaN	520	0.0103936267551035	2	0	NaN	1975266.366326	NaN	1975267.349751	1975267.86627917
36	19	0	0	90	36.1581920903955	36.241610738255	21	0.700067508090287	2	11	3	NaN	2	4	0.0498166688863308	0	1	NaN	124	2	61	2	120	220	320	NaN	520	0.0103938267566264	2	1	NaN	1975268.6830912	NaN	1975269.6666425	1975270.18317127
36	19	0	0	90	36.1581920903955	36.241610738255	24	0.800077152103186	2	6	1	NaN	1	4	0.0498166688863308	0	1	NaN	125	2	62	2	120	220	320	NaN	520	0.234136926708743	1	1	NaN	1975270.9999975	NaN	1975271.983508	1975272.50006477
36	19	0	0	90	36.1581920903955	36.241610738255	16	0.53338476806879	2	11	6	NaN	2	3	0.0498166688863308	0	1	NaN	126	2	63	2	120	220	320	NaN	520	0.427331574494019	2	1	NaN	1975273.5503684	NaN	1975274.5337646	1975275.05031303
36	19	0	0	90	36.1581920903955	36.241610738255	10	0.333365480042994	2	3	2	NaN	1	4	0.0498166688863308	0	1	NaN	127	3	1	2	120	220	320	NaN	520	0.778033826733008	1	1	NaN	1975288.7518306	NaN	1975289.7353457	1975290.25180877
36	19	0	0	90	36.1581920903955	36.241610738255	16	0.53338476806879	2	9	1	NaN	2	4	0.0498166688863308	0	1	NaN	128	3	2	2	120	220	320	NaN	520	0.72611592663452	1	0	NaN	1975292.0520742	NaN	1975293.0355725	1975293.55212587
36	19	0	0	90	36.1581920903955	36.241610738255	0	0	1	4	2	NaN	1	4	0.0498166688863308	0	1	NaN	129	3	3	2	110	210	310	NaN	510	0.595964822452515	1	1	NaN	1975295.0858247	NaN	1975296.0692232	1975296.58575738
36	19	0	0	90	36.1581920903955	36.241610738255	6	0.200019288025796	2	10	2	NaN	2	4	0.0498166688863308	0	1	NaN	130	3	4	2	120	220	320	NaN	520	0.010414726799354	2	1	NaN	1975298.3354556	NaN	1975299.319555	1975299.83608267
36	19	0	0	90	36.1581920903955	36.241610738255	16	0.53338476806879	2	1	1	NaN	1	5	0.0498166688863308	0	1	NaN	131	3	5	2	120	220	320	NaN	520	0.900095474673435	2	0	NaN	1975300.6696969	NaN	1975301.6531059	1975302.16964573
36	19	0	0	90	36.1581920903955	36.241610738255	22	0.733404056094587	2	12	3	NaN	2	3	0.0498166688863308	0	1	NaN	132	3	6	2	120	220	320	NaN	520	0.483227426651865	2	1	NaN	1975303.8866381	NaN	1975304.870075	1975305.38662857
36	19	0	0	90	36.1581920903955	36.241610738255	25	0.833413700107485	2	1	3	NaN	1	5	0.0498166688863308	0	1	NaN	133	3	7	2	120	220	320	NaN	520	0.0104033746756613	2	0	NaN	1975306.6702813	NaN	1975307.6536931	1975308.17022903
36	19	0	0	90	36.1581920903955	36.241610738255	11	0.366702028047293	2	12	4	NaN	2	5	0.0498166688863308	0	1	NaN	134	3	8	2	120	220	320	NaN	520	0.11080407910049	2	1	NaN	1975308.9871844	NaN	1975309.9705743	1975310.48712822
36	19	0	0	90	36.1581920903955	36.241610738255	6	0.200019288025796	2	8	6	NaN	2	5	0.0498166688863308	0	1	NaN	135	3	9	2	120	220	320	NaN	520	0.246264326851815	2	1	NaN	1975311.4040013	NaN	1975312.3874796	1975312.90402787
36	19	0	0	90	36.1581920903955	36.241610738255	16	0.53338476806879	2	6	4	NaN	1	4	0.0498166688863308	0	1	NaN	136	3	10	2	120	220	320	NaN	520	0.470848826924339	1	1	NaN	1975313.9710162	NaN	1975314.9543923	1975315.47093937
36	19	0	0	90	36.1581920903955	36.241610738255	15	0.500048220064491	2	11	5	NaN	2	4	0.0498166688863308	0	1	NaN	137	3	11	2	120	220	320	NaN	520	0.487681274767965	2	1	NaN	1975316.7546098	NaN	1975317.7380075	1975318.25455083
36	19	0	0	90	36.1581920903955	36.241610738255	18	0.600057864077389	2	4	5	NaN	1	4	0.0498166688863308	0	1	NaN	138	3	12	2	120	220	320	NaN	520	0.295466326875612	1	1	NaN	1975319.5548896	NaN	1975320.5382954	1975321.05482497
36	19	0	0	90	36.1581920903955	36.241610738255	7	0.233355836030096	2	4	1	NaN	1	3	0.0498166688863308	0	1	NaN	139	3	13	2	120	220	320	NaN	520	0.0104069744702429	1	1	NaN	1975322.1718075	NaN	1975323.155209	1975323.67174753
36	19	0	0	90	36.1581920903955	36.241610738255	9	0.300028932038695	2	8	4	NaN	2	4	0.0498166688863308	0	1	NaN	140	3	14	2	120	220	320	NaN	520	0.393201126717031	2	1	NaN	1975324.4886119	NaN	1975325.4720943	1975325.98864007
36	19	0	0	90	36.1581920903955	36.241610738255	12	0.400038576051593	2	7	4	NaN	2	3	0.0498166688863308	0	1	NaN	141	3	15	2	120	220	320	NaN	520	0.0104140746407211	2	1	NaN	1975327.2056327	NaN	1975328.1890243	1975328.70557213
36	19	0	0	90	36.1581920903955	36.241610738255	20	0.666730960085988	2	1	4	NaN	1	4	0.0498166688863308	0	1	NaN	142	3	16	2	120	220	320	NaN	520	1.34382412675768	1	1	NaN	1975329.5225307	NaN	1975330.5059363	1975331.02247537
36	19	0	0	90	36.1581920903955	36.241610738255	22	0.733404056094587	2	6	5	NaN	1	5	0.0498166688863308	0	1	NaN	143	3	17	2	120	220	320	NaN	520	0.204772926867008	1	1	NaN	1975333.1895496	NaN	1975334.1729399	1975334.68950127
36	19	0	0	90	36.1581920903955	36.241610738255	18	0.600057864077389	2	8	6	NaN	2	3	0.0498166688863308	0	1	NaN	144	3	18	2	120	220	320	NaN	520	0.343415726907551	2	1	NaN	1975335.7064732	NaN	1975336.6898646	1975337.20641357
36	19	0	0	90	36.1581920903955	36.241610738255	25	0.833413700107485	2	3	6	NaN	1	4	0.0498166688863308	0	1	NaN	145	3	19	2	120	220	320	NaN	520	1.02846117480658	1	1	NaN	1975338.3733953	NaN	1975339.3567943	1975339.87333443
36	19	0	0	90	36.1581920903955	36.241610738255	17	0.56672131607309	2	7	3	NaN	2	5	0.0498166688863308	0	1	NaN	146	3	20	2	120	220	320	NaN	520	0.134725926676765	1	0	NaN	1975341.7070602	NaN	1975342.6904533	1975343.20700287
36	19	0	0	90	36.1581920903955	36.241610738255	25	0.833413700107485	2	1	3	NaN	1	4	0.0498166688863308	0	1	NaN	147	3	21	2	120	220	320	NaN	520	1.4685766226612	1	1	NaN	1975344.1572925	NaN	1975345.1407042	1975345.65724508
36	19	0	0	90	36.1581920903955	36.241610738255	12	0.400038576051593	2	4	4	NaN	1	4	0.0498166688863308	0	1	NaN	148	3	22	2	120	220	320	NaN	520	0.108761543873698	1	1	NaN	1975347.9410168	NaN	1975348.924394	1975349.44094696
36	19	0	0	90	36.1581920903955	36.241610738255	11	0.366702028047293	2	1	6	NaN	1	5	0.0498166688863308	0	1	NaN	149	3	23	2	120	220	320	NaN	520	0.499854374444112	1	1	NaN	1975350.3578993	NaN	1975351.3413076	1975351.85784393
36	19	0	0	90	36.1581920903955	36.241610738255	15	0.500048220064491	2	8	3	NaN	2	5	0.0498166688863308	0	1	NaN	150	3	24	2	120	220	320	NaN	520	0.0431060269474983	2	1	NaN	1975353.1748532	NaN	1975354.1582363	1975354.67479657
36	19	0	0	90	36.1581920903955	36.241610738255	15	0.500048220064491	2	12	2	NaN	2	3	0.0498166688863308	0	1	NaN	151	3	25	2	120	220	320	NaN	520	0.0103948267642409	2	1	NaN	1975355.5417479	NaN	1975356.5251422	1975357.04169687
36	19	0	0	90	36.1581920903955	36.241610738255	0	0	1	3	4	NaN	1	4	0.0498166688863308	0	1	NaN	152	3	26	2	110	210	310	NaN	510	0.0103979266714305	2	0	NaN	1975357.8586174	NaN	1975358.8420255	1975359.35858897
36	19	0	0	90	36.1581920903955	36.241610738255	9	0.300028932038695	2	1	5	NaN	1	3	0.0498166688863308	0	1	NaN	153	3	27	2	120	220	320	NaN	520	0.0104129747487605	1	1	NaN	1975360.1754064	NaN	1975361.1589215	1975361.67547283
36	19	0	0	90	36.1581920903955	36.241610738255	14	0.466711672060192	2	12	2	NaN	2	5	0.0498166688863308	0	1	NaN	154	3	28	2	120	220	320	NaN	520	0.010392626747489	2	1	NaN	1975362.4922982	NaN	1975363.4758398	1975363.99236747
36	19	0	0	90	36.1581920903955	36.241610738255	16	0.53338476806879	2	4	1	NaN	1	4	0.0498166688863308	0	1	NaN	155	3	29	2	120	220	320	NaN	520	0.0486688269302249	1	1	NaN	1975364.8092034	NaN	1975365.7927204	1975366.30926887
36	19	0	0	90	36.1581920903955	36.241610738255	6	0.200019288025796	2	9	6	NaN	2	4	0.0498166688863308	0	1	NaN	156	3	30	2	120	220	320	NaN	520	0.0103919268585742	2	1	NaN	1975367.1762367	NaN	1975368.1596591	1975368.67616807
36	19	0	0	90	36.1581920903955	36.241610738255	20	0.666730960085988	2	9	2	NaN	2	5	0.0498166688863308	0	1	NaN	157	3	31	2	120	220	320	NaN	520	0.0688534744549543	2	1	NaN	1975369.4931158	NaN	1975370.4765156	1975370.99305253
36	19	0	0	90	36.1581920903955	36.241610738255	9	0.300028932038695	2	2	2	NaN	1	3	0.0498166688863308	0	1	NaN	158	3	32	2	120	220	320	NaN	520	0.821238226722926	2	0	NaN	1975371.8766764	NaN	1975372.860076	1975373.37662417
36	19	0	0	90	36.1581920903955	36.241610738255	18	0.600057864077389	2	10	6	NaN	2	5	0.0498166688863308	0	1	NaN	159	3	33	2	120	220	320	NaN	520	0.471621674718335	2	1	NaN	1975375.0103213	NaN	1975375.993728	1975376.51026043
36	19	0	0	90	36.1581920903955	36.241610738255	19	0.633394412081689	2	1	4	NaN	1	3	0.0498166688863308	0	1	NaN	160	3	34	2	120	220	320	NaN	520	0.160061026923358	1	1	NaN	1975377.793929	NaN	1975378.7773308	1975379.29387097
36	19	0	0	90	36.1581920903955	36.241610738255	21	0.700067508090287	2	8	2	NaN	2	3	0.0498166688863308	0	1	NaN	161	3	35	2	120	220	320	NaN	520	0.949220626847818	2	1	NaN	1975380.2607115	NaN	1975381.24424	1975381.76078557
36	19	0	0	90	36.1581920903955	36.241610738255	20	0.666730960085988	2	7	4	NaN	2	4	0.0498166688863308	0	1	NaN	162	3	36	2	120	220	320	NaN	520	1.34622617904097	1	0	NaN	1975383.5279227	NaN	1975384.5112281	1975385.02777602
36	19	0	0	90	36.1581920903955	36.241610738255	18	0.600057864077389	2	2	4	NaN	1	5	0.0498166688863308	0	1	NaN	163	3	37	2	120	220	320	NaN	520	0.0104237224441022	1	1	NaN	1975387.1948429	NaN	1975388.1782503	1975388.69479828
36	19	0	0	90	36.1581920903955	36.241610738255	22	0.733404056094587	2	9	3	NaN	2	5	0.0498166688863308	0	1	NaN	164	3	38	2	120	220	320	NaN	520	0.538171426625922	2	1	NaN	1975389.5117366	NaN	1975390.4951421	1975391.01168837
36	19	0	0	90	36.1581920903955	36.241610738255	17	0.56672131607309	2	4	6	NaN	1	3	0.0498166688863308	0	1	NaN	165	3	39	2	120	220	320	NaN	520	0.511979722417891	1	1	NaN	1975392.3620257	NaN	1975393.3454208	1975393.86196968
36	19	0	0	90	36.1581920903955	36.241610738255	11	0.366702028047293	2	6	6	NaN	1	4	0.0498166688863308	0	1	NaN	166	3	40	2	120	220	320	NaN	520	0.2867920268327	1	1	NaN	1975395.1956406	NaN	1975396.1790369	1975396.69558387
36	19	0	0	90	36.1581920903955	36.241610738255	23	0.766740604098886	2	10	3	NaN	2	4	0.0498166688863308	0	1	NaN	167	3	41	2	120	220	320	NaN	520	0.0104374224320054	1	0	NaN	1975397.7958919	NaN	1975398.7792997	1975399.29583428
36	19	0	0	90	36.1581920903955	36.241610738255	15	0.500048220064491	2	7	3	NaN	2	4	0.0498166688863308	0	1	NaN	168	3	42	2	120	220	320	NaN	520	1.36960372678004	2	1	NaN	1975400.1127909	NaN	1975401.0961807	1975401.61273007
36	19	0	0	90	36.1581920903955	36.241610738255	9	0.300028932038695	2	9	3	NaN	2	4	0.0498166688863308	0	1	NaN	169	3	43	2	120	220	320	NaN	520	0.0103979266714305	2	1	NaN	1975403.7964845	NaN	1975404.7798683	1975405.29642657
36	19	0	0	90	36.1581920903955	36.241610738255	10	0.333365480042994	2	9	1	NaN	2	4	0.0498166688863308	0	1	NaN	170	3	44	2	120	220	320	NaN	520	0.280432526953518	2	1	NaN	1975406.1133725	NaN	1975407.0966625	1975407.61331887
36	19	0	0	90	36.1581920903955	36.241610738255	6	0.200019288025796	2	7	1	NaN	2	3	0.0498166688863308	0	1	NaN	171	3	45	2	120	220	320	NaN	520	0.0103935266379267	2	1	NaN	1975408.8802817	NaN	1975409.8637177	1975410.38026257
36	19	0	0	90	36.1581920903955	36.241610738255	17	0.56672131607309	2	4	6	NaN	1	4	0.0498166688863308	0	1	NaN	172	3	46	2	120	220	320	NaN	520	0.0206618746742606	2	0	NaN	1975411.1970838	NaN	1975412.1805931	1975412.69714683
36	19	0	0	90	36.1581920903955	36.241610738255	23	0.766740604098886	2	11	4	NaN	2	3	0.0498166688863308	0	1	NaN	173	3	47	2	120	220	320	NaN	520	0.343287374591455	2	1	NaN	1975413.5307638	NaN	1975414.5141702	1975415.03071153
36	19	0	0	90	36.1581920903955	36.241610738255	11	0.366702028047293	2	9	3	NaN	2	4	0.0498166688863308	0	1	NaN	174	3	48	2	120	220	320	NaN	520	0.7093978789635	2	1	NaN	1975416.1810169	NaN	1975417.1643876	1975417.68096652
36	19	0	0	90	36.1581920903955	36.241610738255	17	0.56672131607309	2	6	3	NaN	1	5	0.0498166688863308	0	1	NaN	175	3	49	2	120	220	320	NaN	520	0.259573278948665	1	1	NaN	1975419.2146423	NaN	1975420.1980505	1975420.71460882
36	19	0	0	90	36.1581920903955	36.241610738255	21	0.700067508090287	2	9	6	NaN	2	4	0.0498166688863308	0	1	NaN	176	3	50	2	120	220	320	NaN	520	0.57243852247484	2	1	NaN	1975421.7815351	NaN	1975422.7649686	1975423.28152098
36	19	0	0	90	36.1581920903955	36.241610738255	20	0.666730960085988	2	2	6	NaN	1	3	0.0498166688863308	0	1	NaN	177	3	51	2	120	220	320	NaN	520	0.0569707746617496	2	0	NaN	1975424.6651921	NaN	1975425.6486154	1975426.16513203
36	19	0	0	90	36.1581920903955	36.241610738255	18	0.600057864077389	2	7	3	NaN	2	4	0.0498166688863308	0	1	NaN	178	3	52	2	120	220	320	NaN	520	0.569973426871002	2	1	NaN	1975427.0319915	NaN	1975428.0154924	1975428.53203017
36	19	0	0	90	36.1581920903955	36.241610738255	9	0.300028932038695	2	11	6	NaN	2	5	0.0498166688863308	0	1	NaN	179	3	53	2	120	220	320	NaN	520	0.734270743792877	2	1	NaN	1975429.9157017	NaN	1975430.8991125	1975431.41564896
36	19	0	0	90	36.1581920903955	36.241610738255	14	0.466711672060192	2	6	5	NaN	1	4	0.0498166688863308	0	1	NaN	180	3	54	2	120	220	320	NaN	520	0.0103931266348809	1	1	NaN	1975432.9660183	NaN	1975433.9493969	1975434.46594317
36	19	0	0	90	36.1581920903955	36.241610738255	20	0.666730960085988	2	12	1	NaN	2	4	0.0498166688863308	0	1	NaN	181	3	55	2	120	220	320	NaN	520	1.14313787478022	1	0	NaN	1975435.2829416	NaN	1975436.2663456	1975436.78284553
36	19	0	0	90	36.1581920903955	36.241610738255	14	0.466711672060192	2	3	3	NaN	1	3	0.0498166688863308	0	1	NaN	182	3	56	2	120	220	320	NaN	520	0.0104485226329416	2	0	NaN	1975438.7498949	NaN	1975439.7332964	1975440.24984538
36	19	0	0	90	36.1581920903955	36.241610738255	15	0.500048220064491	2	6	4	NaN	1	3	0.0498166688863308	0	1	NaN	183	3	57	2	120	220	320	NaN	520	0.3269520746544	1	1	NaN	1975441.4833506	NaN	1975442.4669031	1975442.98344673
36	19	0	0	90	36.1581920903955	36.241610738255	9	0.300028932038695	2	3	1	NaN	1	3	0.0498166688863308	0	1	NaN	184	3	58	2	120	220	320	NaN	520	0.436619826825336	1	1	NaN	1975444.1337749	NaN	1975445.1171601	1975445.63370657
36	19	0	0	90	36.1581920903955	36.241610738255	9	0.300028932038695	2	5	5	NaN	1	5	0.0498166688863308	0	1	NaN	185	3	59	2	120	220	320	NaN	520	1.41446437477134	1	1	NaN	1975446.8840417	NaN	1975447.8674395	1975448.38397663
36	19	0	0	90	36.1581920903955	36.241610738255	9	0.300028932038695	2	10	3	NaN	2	3	0.0498166688863308	0	1	NaN	186	3	60	2	120	220	320	NaN	520	0.0102659438271075	2	1	NaN	1975450.601074	NaN	1975451.5844567	1975452.10101846
36	19	0	0	90	36.1581920903955	36.241610738255	8	0.266692384034395	2	9	2	NaN	2	3	0.0498166688863308	0	1	NaN	187	3	61	2	120	220	320	NaN	520	0.187416226835921	1	0	NaN	1975452.9346325	NaN	1975453.9180111	1975454.43458937
36	19	0	0	90	36.1581920903955	36.241610738255	20	0.666730960085988	2	4	3	NaN	1	5	0.0498166688863308	0	1	NaN	188	3	62	2	120	220	320	NaN	520	0.0103878267109394	1	1	NaN	1975455.4347519	NaN	1975456.4182669	1975456.93481477
36	19	0	0	90	36.1581920903955	36.241610738255	6	0.200019288025796	2	11	3	NaN	2	3	0.0498166688863308	0	1	NaN	189	3	63	2	120	220	320	NaN	520	0.304916674504057	1	0	NaN	1975457.7851108	NaN	1975458.7685067	1975459.28504823
36	19	0	0	90	36.1581920903955	36.241610738255	8	0.266692384034395	2	3	4	NaN	1	3	0.0498166688863308	0	1	NaN	190	4	1	2	120	220	320	NaN	520	0.0173693269025534	1	1	NaN	1975481.32062	NaN	1975482.3041383	1975482.82068937
36	19	0	0	90	36.1581920903955	36.241610738255	15	0.500048220064491	2	12	2	NaN	2	5	0.0498166688863308	0	1	NaN	191	4	2	2	120	220	320	NaN	520	0.171995283104479	2	1	NaN	1975483.6543012	NaN	1975484.6376839	1975485.15425442
36	19	0	0	90	36.1581920903955	36.241610738255	10	0.333365480042994	2	12	3	NaN	2	5	0.0498166688863308	0	1	NaN	192	4	3	2	120	220	320	NaN	520	0.010408274596557	2	1	NaN	1975486.1379077	NaN	1975487.1212689	1975487.63782793
36	19	0	0	90	36.1581920903955	36.241610738255	19	0.633394412081689	2	11	6	NaN	2	4	0.0498166688863308	0	1	NaN	193	4	4	2	120	220	320	NaN	520	0.955272974679247	2	1	NaN	1975488.454774	NaN	1975489.4381758	1975489.95472513
36	19	0	0	90	36.1581920903955	36.241610738255	14	0.466711672060192	2	7	3	NaN	2	5	0.0498166688863308	0	1	NaN	194	4	5	2	120	220	320	NaN	520	0.312759674619883	2	1	NaN	1975491.7217706	NaN	1975492.705173	1975493.22170903
36	19	0	0	90	36.1581920903955	36.241610738255	22	0.733404056094587	2	3	6	NaN	1	3	0.0498166688863308	0	1	NaN	195	4	6	2	120	220	320	NaN	520	0.0104007269255817	1	1	NaN	1975494.3553682	NaN	1975495.3387378	1975495.85530317
36	19	0	0	90	36.1581920903955	36.241610738255	11	0.366702028047293	2	4	4	NaN	1	4	0.0498166688863308	0	1	NaN	196	4	7	2	120	220	320	NaN	520	0.0339236268773675	1	1	NaN	1975496.6722496	NaN	1975497.6556485	1975498.17220157
36	19	0	0	90	36.1581920903955	36.241610738255	20	0.666730960085988	2	5	2	NaN	1	4	0.0498166688863308	0	1	NaN	197	4	8	2	120	220	320	NaN	520	0.0517337266355753	1	1	NaN	1975499.0224744	NaN	1975500.0058813	1975500.52243227
36	19	0	0	90	36.1581920903955	36.241610738255	16	0.53338476806879	2	5	5	NaN	1	4	0.0498166688863308	0	1	NaN	198	4	9	2	120	220	320	NaN	520	0.30892602680251	1	1	NaN	1975501.3893404	NaN	1975502.3727814	1975502.88933397
36	19	0	0	90	36.1581920903955	36.241610738255	17	0.56672131607309	2	1	3	NaN	1	5	0.0498166688863308	0	1	NaN	199	4	10	2	120	220	320	NaN	520	0.0104116746224463	2	0	NaN	1975504.0063198	NaN	1975504.9896949	1975505.50624563
36	19	0	0	90	36.1581920903955	36.241610738255	14	0.466711672060192	2	4	1	NaN	1	3	0.0498166688863308	0	1	NaN	200	4	11	2	120	220	320	NaN	520	1.19108977448195	1	1	NaN	1975506.3231338	NaN	1975507.3065786	1975507.82314663
36	19	0	0	90	36.1581920903955	36.241610738255	8	0.266692384034395	2	8	4	NaN	2	3	0.0498166688863308	0	1	NaN	201	4	12	2	120	220	320	NaN	520	1.17061877902597	2	1	NaN	1975509.8235549	NaN	1975510.8069625	1975511.32349532
36	19	0	0	90	36.1581920903955	36.241610738255	10	0.333365480042994	2	10	1	NaN	2	4	0.0498166688863308	0	1	NaN	202	4	13	2	120	220	320	NaN	520	0.0104204746894538	2	1	NaN	1975513.3072179	NaN	1975514.2906143	1975514.80716343
36	19	0	0	90	36.1581920903955	36.241610738255	24	0.800077152103186	2	6	2	NaN	1	5	0.0498166688863308	0	1	NaN	203	4	14	2	120	220	320	NaN	520	0.250439826864749	1	1	NaN	1975515.6241065	NaN	1975516.6075077	1975517.12406267
36	19	0	0	90	36.1581920903955	36.241610738255	15	0.500048220064491	2	9	6	NaN	2	5	0.0498166688863308	0	1	NaN	204	4	15	2	120	220	320	NaN	520	0.495890474645421	2	1	NaN	1975518.2743743	NaN	1975519.2577756	1975519.77431133
36	19	0	0	90	36.1581920903955	36.241610738255	16	0.53338476806879	2	8	1	NaN	2	3	0.0498166688863308	0	1	NaN	205	4	16	2	120	220	320	NaN	520	0.839489274658263	2	1	NaN	1975521.0746363	NaN	1975522.0580391	1975522.57458433
36	19	0	0	90	36.1581920903955	36.241610738255	18	0.600057864077389	2	7	2	NaN	2	4	0.0498166688863308	0	1	NaN	206	4	17	2	120	220	320	NaN	520	1.37714582681656	2	1	NaN	1975524.2249358	NaN	1975525.2083503	1975525.72490017
36	19	0	0	90	36.1581920903955	36.241610738255	23	0.766740604098886	2	4	4	NaN	1	3	0.0498166688863308	0	1	NaN	207	4	18	2	120	220	320	NaN	520	0.821481526596472	2	0	NaN	1975527.9087195	NaN	1975528.892059	1975529.40860227
36	19	0	0	90	36.1581920903955	36.241610738255	22	0.733404056094587	2	11	1	NaN	2	5	0.0498166688863308	0	1	NaN	208	4	19	2	120	220	320	NaN	520	0.0104204744566232	2	1	NaN	1975531.0422915	NaN	1975532.0257874	1975532.54223403
36	19	0	0	90	36.1581920903955	36.241610738255	13	0.433375124055892	2	12	1	NaN	2	3	0.0498166688863308	0	1	NaN	209	4	20	2	120	220	320	NaN	520	0.0669412268325686	2	1	NaN	1975533.3590706	NaN	1975534.3425879	1975534.85913187
36	19	0	0	90	36.1581920903955	36.241610738255	8	0.266692384034395	2	2	4	NaN	1	4	0.0498166688863308	0	1	NaN	210	4	21	2	120	220	320	NaN	520	0.0104055746924132	2	0	NaN	1975535.7426398	NaN	1975536.7261453	1975537.24269383
36	19	0	0	90	36.1581920903955	36.241610738255	13	0.433375124055892	2	3	1	NaN	1	3	0.0498166688863308	0	1	NaN	211	4	22	2	120	220	320	NaN	520	0.126114495797083	2	0	NaN	1975538.0763205	NaN	1975539.0597075	1975539.5762694
36	19	0	0	90	36.1581920903955	36.241610738255	15	0.500048220064491	2	1	5	NaN	1	4	0.0498166688863308	0	1	NaN	212	4	23	2	120	220	320	NaN	520	0.540432091569528	1	1	NaN	1975540.5098741	NaN	1975541.4932878	1975542.00984231
36	19	0	0	90	36.1581920903955	36.241610738255	22	0.733404056094587	2	8	5	NaN	2	5	0.0498166688863308	0	1	NaN	213	4	24	2	120	220	320	NaN	520	0.426408274564892	2	1	NaN	1975543.3601578	NaN	1975544.343545	1975544.86010663
36	19	0	0	90	36.1581920903955	36.241610738255	22	0.733404056094587	2	3	5	NaN	1	4	0.0498166688863308	0	1	NaN	214	4	25	2	120	220	320	NaN	520	0.404428974725306	1	1	NaN	1975546.0937424	NaN	1975547.0771724	1975547.59370823
36	19	0	0	90	36.1581920903955	36.241610738255	0	0	1	7	6	NaN	2	5	0.0498166688863308	0	1	NaN	215	4	26	2	110	210	310	NaN	510	0.759594626957551	2	1	NaN	1975548.8105688	NaN	1975549.7940955	1975550.31065137
36	19	0	0	90	36.1581920903955	36.241610738255	12	0.400038576051593	2	12	4	NaN	2	4	0.0498166688863308	0	1	NaN	216	4	27	2	120	220	320	NaN	520	0.660923726856709	2	1	NaN	1975551.8776813	NaN	1975552.8610745	1975553.37762017
36	19	0	0	90	36.1581920903955	36.241610738255	24	0.800077152103186	2	4	3	NaN	1	3	0.0498166688863308	0	1	NaN	217	4	28	2	120	220	320	NaN	520	0.549030382884666	1	1	NaN	1975554.8612945	NaN	1975555.844692	1975556.36124062
36	19	0	0	90	36.1581920903955	36.241610738255	19	0.633394412081689	2	10	5	NaN	2	3	0.0498166688863308	0	1	NaN	218	4	29	2	120	220	320	NaN	520	0.0103424831759185	1	0	NaN	1975557.728248	NaN	1975558.7116448	1975559.22818442
36	19	0	0	90	36.1581920903955	36.241610738255	0	0	1	6	4	NaN	1	3	0.0498166688863308	0	1	NaN	219	4	30	2	110	210	310	NaN	510	0.0103841789532453	1	1	NaN	1975560.0618044	NaN	1975561.0451237	1975561.56175552
36	19	0	0	90	36.1581920903955	36.241610738255	22	0.733404056094587	2	2	1	NaN	1	3	0.0498166688863308	0	1	NaN	220	4	31	2	120	220	320	NaN	520	0.102870574686676	2	0	NaN	1975562.3953613	NaN	1975563.3787678	1975563.89530993
36	19	0	0	90	36.1581920903955	36.241610738255	13	0.433375124055892	2	12	3	NaN	2	3	0.0498166688863308	0	1	NaN	221	4	32	2	120	220	320	NaN	520	0.349978374550119	2	1	NaN	1975564.812264	NaN	1975565.7956684	1975566.31221953
36	19	0	0	90	36.1581920903955	36.241610738255	23	0.766740604098886	2	5	3	NaN	1	3	0.0498166688863308	0	1	NaN	222	4	33	2	120	220	320	NaN	520	0.107105574570596	2	0	NaN	1975567.4792082	NaN	1975568.4626355	1975568.97913833
36	19	0	0	90	36.1581920903955	36.241610738255	0	0	1	12	1	NaN	2	4	0.0498166688863308	0	1	NaN	223	4	34	2	110	210	310	NaN	510	0.770158026600257	2	1	NaN	1975569.8960857	NaN	1975570.879508	1975571.39604697
36	19	0	0	90	36.1581920903955	36.241610738255	16	0.53338476806879	2	6	5	NaN	1	5	0.0498166688863308	0	1	NaN	224	4	35	2	120	220	320	NaN	520	0.16641837451607	2	0	NaN	1975572.9797243	NaN	1975573.96314	1975574.47967803
36	19	0	0	90	36.1581920903955	36.241610738255	9	0.300028932038695	2	4	6	NaN	1	3	0.0498166688863308	0	1	NaN	225	4	36	2	120	220	320	NaN	520	0.0102839439641684	1	1	NaN	1975575.4633354	NaN	1975576.4467036	1975576.96326636
36	19	0	0	90	36.1581920903955	36.241610738255	18	0.600057864077389	2	1	6	NaN	1	3	0.0498166688863308	0	1	NaN	226	4	37	2	120	220	320	NaN	520	0.0104097269941121	2	0	NaN	1975577.7802029	NaN	1975578.7636091	1975579.28014887
36	19	0	0	90	36.1581920903955	36.241610738255	14	0.466711672060192	2	5	4	NaN	1	5	0.0498166688863308	0	1	NaN	227	4	38	2	120	220	320	NaN	520	0.760452626971528	1	1	NaN	1975580.113794	NaN	1975581.0971493	1975581.61371707
36	19	0	0	90	36.1581920903955	36.241610738255	6	0.200019288025796	2	7	2	NaN	2	5	0.0498166688863308	0	1	NaN	228	4	39	2	120	220	320	NaN	520	0.493485822342336	2	1	NaN	1975583.1807238	NaN	1975584.1641307	1975584.68068988
36	19	0	0	90	36.1581920903955	36.241610738255	17	0.56672131607309	2	2	3	NaN	1	5	0.0498166688863308	0	1	NaN	229	4	40	2	120	220	320	NaN	520	0.556923026917502	1	1	NaN	1975585.9976702	NaN	1975586.9810777	1975587.49762567
36	19	0	0	90	36.1581920903955	36.241610738255	12	0.400038576051593	2	8	1	NaN	2	3	0.0498166688863308	0	1	NaN	230	4	41	2	120	220	320	NaN	520	1.47380717471242	2	1	NaN	1975588.8645225	NaN	1975589.8480297	1975590.36457043
36	19	0	0	90	36.1581920903955	36.241610738255	10	0.333365480042994	2	8	3	NaN	2	4	0.0498166688863308	0	1	NaN	231	4	42	2	120	220	320	NaN	520	0.321767026791349	1	0	NaN	1975592.6483194	NaN	1975593.6317311	1975594.14828027
36	19	0	0	90	36.1581920903955	36.241610738255	21	0.700067508090287	2	8	5	NaN	2	3	0.0498166688863308	0	1	NaN	232	4	43	2	120	220	320	NaN	520	0.0723078746814281	2	1	NaN	1975595.2817928	NaN	1975596.2653148	1975596.78186873
36	19	0	0	90	36.1581920903955	36.241610738255	19	0.633394412081689	2	4	5	NaN	1	3	0.0498166688863308	0	1	NaN	233	4	44	2	120	220	320	NaN	520	0.9128434790764	1	1	NaN	1975597.6654816	NaN	1975598.6488935	1975599.16543082
36	19	0	0	90	36.1581920903955	36.241610738255	22	0.733404056094587	2	4	6	NaN	1	5	0.0498166688863308	0	1	NaN	234	4	45	2	120	220	320	NaN	520	0.0104001266881824	2	0	NaN	1975600.8990355	NaN	1975601.8825523	1975602.39909437
36	19	0	0	90	36.1581920903955	36.241610738255	12	0.400038576051593	2	5	1	NaN	1	3	0.0498166688863308	0	1	NaN	235	4	46	2	120	220	320	NaN	520	0.911596426973119	1	1	NaN	1975603.6827221	NaN	1975604.6661497	1975605.18268857
36	19	0	0	90	36.1581920903955	36.241610738255	20	0.666730960085988	2	12	1	NaN	2	4	0.0498166688863308	0	1	NaN	236	4	47	2	120	220	320	NaN	520	0.0103918267413974	1	0	NaN	1975606.8997346	NaN	1975607.8831332	1975608.39966887
36	19	0	0	90	36.1581920903955	36.241610738255	8	0.266692384034395	2	1	1	NaN	1	3	0.0498166688863308	0	1	NaN	237	4	48	2	120	220	320	NaN	520	0.545745922485366	1	1	NaN	1975609.2166039	NaN	1975610.2000832	1975610.71656228
36	19	0	0	90	36.1581920903955	36.241610738255	13	0.433375124055892	2	11	4	NaN	2	3	0.0498166688863308	0	1	NaN	238	4	49	2	120	220	320	NaN	520	0.0103979269042611	2	1	NaN	1975612.1834607	NaN	1975613.1669792	1975613.68352807
36	19	0	0	90	36.1581920903955	36.241610738255	10	0.333365480042994	2	7	3	NaN	2	5	0.0498166688863308	0	1	NaN	239	4	50	2	120	220	320	NaN	520	0.557939579011872	1	0	NaN	1975614.5003435	NaN	1975615.4838631	1975616.00042802
36	19	0	0	90	36.1581920903955	36.241610738255	15	0.500048220064491	2	2	3	NaN	1	4	0.0498166688863308	0	1	NaN	240	4	51	2	120	220	320	NaN	520	0.010404274566099	1	1	NaN	1975617.4174426	NaN	1975618.400869	1975618.91737643
36	19	0	0	90	36.1581920903955	36.241610738255	21	0.700067508090287	2	4	3	NaN	1	3	0.0498166688863308	0	1	NaN	241	4	52	2	120	220	320	NaN	520	0.0103988267946988	1	1	NaN	1975619.7343215	NaN	1975620.7177032	1975621.23426117
36	19	0	0	90	36.1581920903955	36.241610738255	15	0.500048220064491	2	3	5	NaN	1	5	0.0498166688863308	0	1	NaN	242	4	53	2	120	220	320	NaN	520	0.462355474475771	1	1	NaN	1975622.0678738	NaN	1975623.0512792	1975623.56783103
36	19	0	0	90	36.1581920903955	36.241610738255	12	0.400038576051593	2	9	5	NaN	2	4	0.0498166688863308	0	1	NaN	243	4	54	2	120	220	320	NaN	520	0.711847426602617	2	1	NaN	1975624.8348253	NaN	1975625.8182163	1975626.33477277
36	19	0	0	90	36.1581920903955	36.241610738255	12	0.400038576051593	2	12	2	NaN	2	4	0.0498166688863308	0	1	NaN	244	4	55	2	120	220	320	NaN	520	0.0103875268250704	2	1	NaN	1975627.851786	NaN	1975628.8351626	1975629.35172937
36	19	0	0	90	36.1581920903955	36.241610738255	14	0.466711672060192	2	2	5	NaN	1	3	0.0498166688863308	0	1	NaN	245	4	56	2	120	220	320	NaN	520	0.257716226857156	1	1	NaN	1975630.1686853	NaN	1975631.1520646	1975631.66863077
36	19	0	0	90	36.1581920903955	36.241610738255	6	0.200019288025796	2	2	2	NaN	1	5	0.0498166688863308	0	1	NaN	246	4	57	2	120	220	320	NaN	520	0.562712674494833	1	1	NaN	1975632.7355851	NaN	1975633.7190101	1975634.23554563
36	19	0	0	90	36.1581920903955	36.241610738255	11	0.366702028047293	2	3	6	NaN	1	3	0.0498166688863308	0	1	NaN	247	4	58	2	120	220	320	NaN	520	0.366971326759085	2	0	NaN	1975635.6192177	NaN	1975636.6026117	1975637.11915817
36	19	0	0	90	36.1581920903955	36.241610738255	20	0.666730960085988	2	6	6	NaN	1	5	0.0498166688863308	0	1	NaN	248	4	59	2	120	220	320	NaN	520	0.636292474577203	1	1	NaN	1975638.2861562	NaN	1975639.2695453	1975639.78608163
36	19	0	0	90	36.1581920903955	36.241610738255	16	0.53338476806879	2	8	6	NaN	2	3	0.0498166688863308	0	1	NaN	249	4	60	2	120	220	320	NaN	520	0.0104047746863216	1	0	NaN	1975641.2364362	NaN	1975642.2198289	1975642.73638193
36	19	0	0	90	36.1581920903955	36.241610738255	21	0.700067508090287	2	11	1	NaN	2	3	0.0498166688863308	0	1	NaN	250	4	61	2	120	220	320	NaN	520	0.0104135747533292	1	0	NaN	1975643.5698796	NaN	1975644.5533936	1975645.06993153
36	19	0	0	90	36.1581920903955	36.241610738255	19	0.633394412081689	2	6	1	NaN	1	5	0.0498166688863308	0	1	NaN	251	4	62	2	120	220	320	NaN	520	0.563408174552023	1	1	NaN	1975645.8867617	NaN	1975646.8702075	1975647.38683623
36	19	0	0	90	36.1581920903955	36.241610738255	10	0.333365480042994	2	3	1	NaN	1	5	0.0498166688863308	0	1	NaN	252	4	63	2	120	220	320	NaN	520	0.010388626717031	2	0	NaN	1975648.7703721	NaN	1975649.7539927	1975650.27044167
36	19	0	0	90	36.1581920903955	36.241610738255	10	0.333365480042994	2	5	4	NaN	1	5	0.0498166688863308	0	1	NaN	253	5	1	2	120	220	320	NaN	520	0.0103948267642409	1	1	NaN	1975668.2224065	NaN	1975669.2058107	1975669.72236017
36	19	0	0	90	36.1581920903955	36.241610738255	10	0.333365480042994	2	2	6	NaN	1	4	0.0498166688863308	0	1	NaN	254	5	2	2	120	220	320	NaN	520	0.0104446746408939	2	0	NaN	1975670.539317	NaN	1975671.522702	1975672.03925403
36	19	0	0	90	36.1581920903955	36.241610738255	6	0.200019288025796	2	3	4	NaN	1	4	0.0498166688863308	0	1	NaN	255	5	3	2	120	220	320	NaN	520	0.0104358703829348	2	0	NaN	1975672.8728599	NaN	1975673.8562704	1975674.37280853
36	19	0	0	90	36.1581920903955	36.241610738255	25	0.833413700107485	2	2	2	NaN	1	4	0.0498166688863308	0	1	NaN	256	5	4	2	120	220	320	NaN	520	0.613151626894251	1	1	NaN	1975675.189754	NaN	1975676.1731559	1975676.68970987
36	19	0	0	90	36.1581920903955	36.241610738255	24	0.800077152103186	2	8	3	NaN	2	3	0.0498166688863308	0	1	NaN	257	5	5	2	120	220	320	NaN	520	0.0388897438533604	1	0	NaN	1975678.1233854	NaN	1975679.1066808	1975679.62333746
36	19	0	0	90	36.1581920903955	36.241610738255	7	0.233355836030096	2	6	3	NaN	1	5	0.0498166688863308	0	1	NaN	258	5	6	2	120	220	320	NaN	520	0.272890526801348	1	1	NaN	1975680.4735973	NaN	1975681.4570052	1975681.97356387
36	19	0	0	90	36.1581920903955	36.241610738255	23	0.766740604098886	2	6	3	NaN	1	5	0.0498166688863308	0	1	NaN	259	5	7	2	120	220	320	NaN	520	0.177140274783596	1	1	NaN	1975683.0571991	NaN	1975684.0405772	1975684.55714103
36	19	0	0	90	36.1581920903955	36.241610738255	24	0.800077152103186	2	12	6	NaN	2	5	0.0498166688863308	0	1	NaN	260	5	8	2	120	220	320	NaN	520	2.66196522675455	2	1	NaN	1975685.5407734	NaN	1975686.5241695	1975687.04072197
36	19	0	0	90	36.1581920903955	36.241610738255	24	0.800077152103186	2	1	2	NaN	1	4	0.0498166688863308	0	1	NaN	261	5	9	2	120	220	320	NaN	520	0.0104199745692313	2	0	NaN	1975690.5412668	NaN	1975691.5245433	1975692.04121683
36	19	0	0	90	36.1581920903955	36.241610738255	12	0.400038576051593	2	6	2	NaN	1	5	0.0498166688863308	0	1	NaN	262	5	10	2	120	220	320	NaN	520	1.25557957449928	1	1	NaN	1975692.8748361	NaN	1975693.8582176	1975694.37477493
36	19	0	0	90	36.1581920903955	36.241610738255	21	0.700067508090287	2	12	2	NaN	2	4	0.0498166688863308	0	1	NaN	263	5	11	2	120	220	320	NaN	520	0.0104445705655962	1	0	NaN	1975696.4418396	NaN	1975697.4252453	1975697.94178813
36	19	0	0	90	36.1581920903955	36.241610738255	9	0.300028932038695	2	2	2	NaN	1	4	0.0498166688863308	0	1	NaN	264	5	12	2	120	220	320	NaN	520	0.010362631175667	2	0	NaN	1975698.7755045	NaN	1975699.7587109	1975700.27536097
36	19	0	0	90	36.1581920903955	36.241610738255	7	0.233355836030096	2	3	6	NaN	1	5	0.0498166688863308	0	1	NaN	265	5	13	2	120	220	320	NaN	520	0.0104056745767593	2	0	NaN	1975701.0922194	NaN	1975702.0756958	1975702.59224823
36	19	0	0	90	36.1581920903955	36.241610738255	21	0.700067508090287	2	4	4	NaN	1	5	0.0498166688863308	0	1	NaN	266	5	14	2	120	220	320	NaN	520	0.0103599831927568	1	1	NaN	1975703.4091887	NaN	1975704.3925711	1975704.90913842
36	19	0	0	90	36.1581920903955	36.241610738255	10	0.333365480042994	2	4	3	NaN	1	4	0.0498166688863308	0	1	NaN	267	5	15	2	120	220	320	NaN	520	1.11568807042204	1	1	NaN	1975705.9427667	NaN	1975706.9261617	1975707.44273293
36	19	0	0	90	36.1581920903955	36.241610738255	19	0.633394412081689	2	3	2	NaN	1	4	0.0498166688863308	0	1	NaN	268	5	16	2	120	220	320	NaN	520	0.0980052745435387	1	1	NaN	1975709.3764459	NaN	1975710.359833	1975710.87638883
36	19	0	0	90	36.1581920903955	36.241610738255	12	0.400038576051593	2	3	6	NaN	1	3	0.0498166688863308	0	1	NaN	269	5	17	2	120	220	320	NaN	520	0.145177726866677	1	1	NaN	1975711.7933392	NaN	1975712.7767449	1975713.29330167
36	19	0	0	90	36.1581920903955	36.241610738255	9	0.300028932038695	2	8	2	NaN	2	5	0.0498166688863308	0	1	NaN	270	5	18	2	120	220	320	NaN	520	0.606226074509323	2	1	NaN	1975714.2602619	NaN	1975715.2436563	1975715.76019873
36	19	0	0	90	36.1581920903955	36.241610738255	6	0.200019288025796	2	12	5	NaN	2	5	0.0498166688863308	0	1	NaN	271	5	19	2	120	220	320	NaN	520	0.105185170657933	1	0	NaN	1975717.177226	NaN	1975718.1606114	1975718.67715213
36	19	0	0	90	36.1581920903955	36.241610738255	17	0.56672131607309	2	3	2	NaN	1	5	0.0498166688863308	0	1	NaN	272	5	20	2	120	220	320	NaN	520	0.315616626990959	1	1	NaN	1975719.9107997	NaN	1975720.8941968	1975721.41075997
36	19	0	0	90	36.1581920903955	36.241610738255	20	0.666730960085988	2	5	1	NaN	1	3	0.0498166688863308	0	1	NaN	273	5	21	2	120	220	320	NaN	520	0.539052774664015	1	1	NaN	1975722.5277193	NaN	1975723.5111378	1975724.02767883
36	19	0	0	90	36.1581920903955	36.241610738255	14	0.466711672060192	2	3	5	NaN	1	3	0.0498166688863308	0	1	NaN	274	5	22	2	120	220	320	NaN	520	0.120251874672249	1	1	NaN	1975725.3780213	NaN	1975726.3614298	1975726.87797163
36	19	0	0	90	36.1581920903955	36.241610738255	22	0.733404056094587	2	7	2	NaN	2	5	0.0498166688863308	0	1	NaN	275	5	23	2	120	220	320	NaN	520	0.0104078748263419	2	1	NaN	1975728.1114827	NaN	1975729.0950333	1975729.61156083
36	19	0	0	90	36.1581920903955	36.241610738255	7	0.233355836030096	2	8	4	NaN	2	4	0.0498166688863308	0	1	NaN	276	5	24	2	120	220	320	NaN	520	0.0103900267276913	2	1	NaN	1975730.4285158	NaN	1975731.4119174	1975731.92846927
36	19	0	0	90	36.1581920903955	36.241610738255	20	0.666730960085988	2	1	3	NaN	1	4	0.0498166688863308	0	1	NaN	277	5	25	2	120	220	320	NaN	520	0.688580474583432	2	0	NaN	1975732.7620789	NaN	1975733.745515	1975734.26201153
36	19	0	0	90	36.1581920903955	36.241610738255	7	0.233355836030096	2	10	6	NaN	2	4	0.0498166688863308	0	1	NaN	278	5	26	2	120	220	320	NaN	520	0.0104243268724531	2	1	NaN	1975735.7623614	NaN	1975736.745764	1975737.26232017
36	19	0	0	90	36.1581920903955	36.241610738255	9	0.300028932038695	2	7	5	NaN	2	3	0.0498166688863308	0	1	NaN	279	5	27	2	120	220	320	NaN	520	0.658930174773559	2	1	NaN	1975738.0791339	NaN	1975739.0626613	1975739.57921263
36	19	0	0	90	36.1581920903955	36.241610738255	24	0.800077152103186	2	10	2	NaN	2	4	0.0498166688863308	0	1	NaN	280	5	28	2	120	220	320	NaN	520	0.40354522690177	2	1	NaN	1975741.0628949	NaN	1975742.0462777	1975742.56283547
36	19	0	0	90	36.1581920903955	36.241610738255	18	0.600057864077389	2	5	3	NaN	1	3	0.0498166688863308	0	1	NaN	281	5	29	2	120	220	320	NaN	520	0.519102626712993	2	0	NaN	1975743.7798215	NaN	1975744.7631983	1975745.27976947
36	19	0	0	90	36.1581920903955	36.241610738255	14	0.466711672060192	2	6	5	NaN	1	4	0.0498166688863308	0	1	NaN	282	5	30	2	120	220	320	NaN	520	0.573485591448843	1	1	NaN	1975746.6134449	NaN	1975747.5968066	1975748.11337871
36	19	0	0	90	36.1581920903955	36.241610738255	13	0.433375124055892	2	2	4	NaN	1	4	0.0498166688863308	0	1	NaN	283	5	31	2	120	220	320	NaN	520	0.0655155787244439	2	0	NaN	1975749.4969908	NaN	1975750.4804574	1975750.99700042
36	19	0	0	90	36.1581920903955	36.241610738255	24	0.800077152103186	2	12	6	NaN	2	5	0.0498166688863308	0	1	NaN	284	5	32	2	120	220	320	NaN	520	0.0104287224821746	1	0	NaN	1975751.8806225	NaN	1975752.8640331	1975753.38055278
36	19	0	0	90	36.1581920903955	36.241610738255	0	0	1	5	2	NaN	1	5	0.0498166688863308	0	1	NaN	285	5	33	2	110	210	310	NaN	510	1.87023417046294	2	0	NaN	1975754.5642089	NaN	1975755.5476044	1975756.06414883
36	19	0	0	90	36.1581920903955	36.241610738255	7	0.233355836030096	2	12	6	NaN	2	3	0.0498166688863308	0	1	NaN	286	5	34	2	120	220	320	NaN	520	0.0103873268235475	1	0	NaN	1975758.7479725	NaN	1975759.7313338	1975760.24790377
36	19	0	0	90	36.1581920903955	36.241610738255	19	0.633394412081689	2	5	6	NaN	1	5	0.0498166688863308	0	1	NaN	287	5	35	2	120	220	320	NaN	520	0.713497426593676	2	0	NaN	1975761.0647332	NaN	1975762.0482483	1975762.56479067
36	19	0	0	90	36.1581920903955	36.241610738255	11	0.366702028047293	2	11	3	NaN	2	5	0.0498166688863308	0	1	NaN	288	5	36	2	120	220	320	NaN	520	0.010409974725917	2	1	NaN	1975764.0983936	NaN	1975765.081875	1975765.59841803
36	19	0	0	90	36.1581920903955	36.241610738255	11	0.366702028047293	2	7	4	NaN	2	3	0.0498166688863308	0	1	NaN	289	5	37	2	120	220	320	NaN	520	0.0104247224517167	2	1	NaN	1975766.4152472	NaN	1975767.3987808	1975767.91532328
36	19	0	0	90	36.1581920903955	36.241610738255	22	0.733404056094587	2	5	4	NaN	1	4	0.0498166688863308	0	1	NaN	290	5	38	2	120	220	320	NaN	520	0.1919064396061	1	1	NaN	1975769.0989351	NaN	1975770.0823702	1975770.59891326
36	19	0	0	90	36.1581920903955	36.241610738255	16	0.53338476806879	2	3	4	NaN	1	4	0.0498166688863308	0	1	NaN	291	5	39	2	120	220	320	NaN	520	0.195333926938474	1	1	NaN	1975771.5992103	NaN	1975772.5826221	1975773.09916607
36	19	0	0	90	36.1581920903955	36.241610738255	6	0.200019288025796	2	5	2	NaN	1	4	0.0498166688863308	0	1	NaN	292	5	40	2	120	220	320	NaN	520	0.646743226796389	1	1	NaN	1975774.1161222	NaN	1975775.0995597	1975775.61607707
36	19	0	0	90	36.1581920903955	36.241610738255	17	0.56672131607309	2	10	1	NaN	2	4	0.0498166688863308	0	1	NaN	293	5	41	2	120	220	320	NaN	520	0.0715406269300729	2	1	NaN	1975777.0830777	NaN	1975778.0664809	1975778.58303257
36	19	0	0	90	36.1581920903955	36.241610738255	7	0.233355836030096	2	10	4	NaN	2	3	0.0498166688863308	0	1	NaN	294	5	42	2	120	220	320	NaN	520	0.0103969268966466	2	1	NaN	1975779.9166659	NaN	1975780.9000994	1975781.41664847
36	19	0	0	90	36.1581920903955	36.241610738255	17	0.56672131607309	2	12	4	NaN	2	5	0.0498166688863308	0	1	NaN	295	5	43	2	120	220	320	NaN	520	0.946930426638573	2	1	NaN	1975782.5835965	NaN	1975783.567025	1975784.08357477
36	19	0	0	90	36.1581920903955	36.241610738255	16	0.53338476806879	2	12	2	NaN	2	3	0.0498166688863308	0	1	NaN	296	5	44	2	120	220	320	NaN	520	1.89579582680017	2	1	NaN	1975785.8506173	NaN	1975786.8340111	1975787.35056577
36	19	0	0	90	36.1581920903955	36.241610738255	11	0.366702028047293	2	1	5	NaN	1	4	0.0498166688863308	0	1	NaN	297	5	45	2	120	220	320	NaN	520	0.0103599829599261	2	0	NaN	1975790.0676955	NaN	1975791.0511029	1975791.56764102
36	19	0	0	90	36.1581920903955	36.241610738255	19	0.633394412081689	2	7	5	NaN	2	5	0.0498166688863308	0	1	NaN	298	5	46	2	120	220	320	NaN	520	0.42613602662459	2	1	NaN	1975792.3846117	NaN	1975793.3679833	1975793.88453767
36	19	0	0	90	36.1581920903955	36.241610738255	16	0.53338476806879	2	11	3	NaN	2	5	0.0498166688863308	0	1	NaN	299	5	47	2	120	220	320	NaN	520	0.0103948267642409	2	1	NaN	1975795.1180679	NaN	1975796.1015916	1975796.61813487
36	19	0	0	90	36.1581920903955	36.241610738255	25	0.833413700107485	2	7	1	NaN	2	4	0.0498166688863308	0	1	NaN	300	5	48	2	120	220	320	NaN	520	0.0715092746540904	2	1	NaN	1975797.4350909	NaN	1975798.4184751	1975798.93502983
36	19	0	0	90	36.1581920903955	36.241610738255	6	0.200019288025796	2	1	6	NaN	1	4	0.0498166688863308	0	1	NaN	301	5	49	2	120	220	320	NaN	520	1.23231407464482	1	1	NaN	1975799.8185009	NaN	1975800.8020527	1975801.31859593
36	19	0	0	90	36.1581920903955	36.241610738255	8	0.266692384034395	2	12	5	NaN	2	3	0.0498166688863308	0	1	NaN	302	5	50	2	120	220	320	NaN	520	0.0104116746224463	1	0	NaN	1975803.3688775	NaN	1975804.3524029	1975804.86893983
36	19	0	0	90	36.1581920903955	36.241610738255	18	0.600057864077389	2	3	2	NaN	1	4	0.0498166688863308	0	1	NaN	303	5	51	2	120	220	320	NaN	520	0.489781874697655	1	1	NaN	1975805.9692225	NaN	1975806.9526552	1975807.46919543
36	19	0	0	90	36.1581920903955	36.241610738255	21	0.700067508090287	2	3	5	NaN	1	5	0.0498166688863308	0	1	NaN	304	5	52	2	120	220	320	NaN	520	0.656838378868997	1	1	NaN	1975808.7693962	NaN	1975809.7529136	1975810.26947912
36	19	0	0	90	36.1581920903955	36.241610738255	19	0.633394412081689	2	1	1	NaN	1	5	0.0498166688863308	0	1	NaN	305	5	53	2	120	220	320	NaN	520	0.0104090746026486	2	0	NaN	1975811.7363487	NaN	1975812.7198915	1975813.23642633
36	19	0	0	90	36.1581920903955	36.241610738255	11	0.366702028047293	2	11	6	NaN	2	5	0.0498166688863308	0	1	NaN	306	5	54	2	120	220	320	NaN	520	0.0104092746041715	2	1	NaN	1975814.0532798	NaN	1975815.0367782	1975815.55332253
36	19	0	0	90	36.1581920903955	36.241610738255	12	0.400038576051593	2	7	4	NaN	2	5	0.0498166688863308	0	1	NaN	307	5	55	2	120	220	320	NaN	520	0.304348626872525	1	0	NaN	1975816.3702688	NaN	1975817.3536738	1975817.87022277
36	19	0	0	90	36.1581920903955	36.241610738255	13	0.433375124055892	2	4	2	NaN	1	3	0.0498166688863308	0	1	NaN	308	5	56	2	120	220	320	NaN	520	0.423496626783162	1	1	NaN	1975818.9872175	NaN	1975819.9705889	1975820.48713927
36	19	0	0	90	36.1581920903955	36.241610738255	6	0.200019288025796	2	4	6	NaN	1	5	0.0498166688863308	0	1	NaN	309	5	57	2	120	220	320	NaN	520	0.3138853746932	1	1	NaN	1975821.7207863	NaN	1975822.7041885	1975823.22074003
36	19	0	0	90	36.1581920903955	36.241610738255	11	0.366702028047293	2	2	4	NaN	1	3	0.0498166688863308	0	1	NaN	310	5	58	2	120	220	320	NaN	520	0.312258426798508	1	1	NaN	1975824.3544936	NaN	1975825.3377872	1975825.85433567
36	19	0	0	90	36.1581920903955	36.241610738255	21	0.700067508090287	2	7	6	NaN	2	3	0.0498166688863308	0	1	NaN	311	5	59	2	120	220	320	NaN	520	1.36760417465121	1	0	NaN	1975826.9711783	NaN	1975827.9547476	1975828.47125213
36	19	0	0	90	36.1581920903955	36.241610738255	15	0.500048220064491	2	10	2	NaN	2	4	0.0498166688863308	0	1	NaN	312	5	60	2	120	220	320	NaN	520	1.03596052667126	2	1	NaN	1975830.655014	NaN	1975831.6383891	1975832.15494967
36	19	0	0	90	36.1581920903955	36.241610738255	8	0.266692384034395	2	11	4	NaN	2	5	0.0498166688863308	0	1	NaN	313	5	61	2	120	220	320	NaN	520	0.597352578770369	2	1	NaN	1975834.0052134	NaN	1975834.9887326	1975835.50528382
36	19	0	0	90	36.1581920903955	36.241610738255	20	0.666730960085988	2	3	2	NaN	1	5	0.0498166688863308	0	1	NaN	314	5	62	2	120	220	320	NaN	520	1.31297562667169	1	1	NaN	1975836.905638	NaN	1975837.8890168	1975838.40556527
36	19	0	0	90	36.1581920903955	36.241610738255	10	0.333365480042994	2	12	4	NaN	2	5	0.0498166688863308	0	1	NaN	315	5	63	2	120	220	320	NaN	520	0.0713056267704815	1	0	NaN	1975840.539299	NaN	1975841.5227373	1975842.03925407
36	19	0	0	90	36.1581920903955	36.241610738255	7	0.233355836030096	2	2	4	NaN	1	3	0.0498166688863308	0	1	NaN	316	6	1	2	120	220	320	NaN	520	0.0103973266668618	2	0	NaN	1975877.4929055	NaN	1975878.476336	1975878.99288197
36	19	0	0	90	36.1581920903955	36.241610738255	17	0.56672131607309	2	11	4	NaN	2	3	0.0498166688863308	0	1	NaN	317	6	2	2	120	220	320	NaN	520	0.0103924267459661	1	0	NaN	1975879.8264922	NaN	1975880.809865	1975881.32645687
36	19	0	0	90	36.1581920903955	36.241610738255	8	0.266692384034395	2	12	3	NaN	2	5	0.0498166688863308	0	1	NaN	318	6	3	2	120	220	320	NaN	520	1.26669822237454	2	1	NaN	1975882.159934	NaN	1975883.1434527	1975883.66000818
36	19	0	0	90	36.1581920903955	36.241610738255	18	0.600057864077389	2	9	3	NaN	2	3	0.0498166688863308	0	1	NaN	319	6	4	2	120	220	320	NaN	520	0.523043426917866	2	1	NaN	1975885.743758	NaN	1975886.7271349	1975887.24368797
36	19	0	0	90	36.1581920903955	36.241610738255	8	0.266692384034395	2	11	5	NaN	2	3	0.0498166688863308	0	1	NaN	320	6	5	2	120	220	320	NaN	520	0.840637422632426	2	1	NaN	1975888.5940335	NaN	1975889.5774254	1975890.09396778
36	19	0	0	90	36.1581920903955	36.241610738255	17	0.56672131607309	2	10	3	NaN	2	3	0.0498166688863308	0	1	NaN	321	6	6	2	120	220	320	NaN	520	0.834546239580959	2	1	NaN	1975891.7443186	NaN	1975892.7277182	1975893.24428296
36	19	0	0	90	36.1581920903955	36.241610738255	19	0.633394412081689	2	12	3	NaN	2	4	0.0498166688863308	0	1	NaN	322	6	7	2	120	220	320	NaN	520	1.43633937463164	2	1	NaN	1975894.8945407	NaN	1975895.8780193	1975896.39458393
36	19	0	0	90	36.1581920903955	36.241610738255	23	0.766740604098886	2	9	6	NaN	2	5	0.0498166688863308	0	1	NaN	323	6	8	2	120	220	320	NaN	520	0.4698234309908	2	1	NaN	1975898.6450324	NaN	1975899.6283823	1975900.14495717
36	19	0	0	90	36.1581920903955	36.241610738255	19	0.633394412081689	2	12	2	NaN	2	4	0.0498166688863308	0	1	NaN	324	6	9	2	120	220	320	NaN	520	0.0103583831805736	2	1	NaN	1975901.4286086	NaN	1975902.412008	1975902.92856062
36	19	0	0	90	36.1581920903955	36.241610738255	19	0.633394412081689	2	11	5	NaN	2	5	0.0498166688863308	0	1	NaN	325	6	10	2	120	220	320	NaN	520	0.577135826693848	2	1	NaN	1975903.7454996	NaN	1975904.7289015	1975905.24544977
36	19	0	0	90	36.1581920903955	36.241610738255	9	0.300028932038695	2	9	5	NaN	2	5	0.0498166688863308	0	1	NaN	326	6	11	2	120	220	320	NaN	520	0.257730326615274	1	0	NaN	1975906.7290966	NaN	1975907.7125287	1975908.22908227
36	19	0	0	90	36.1581920903955	36.241610738255	20	0.666730960085988	2	3	3	NaN	1	4	0.0498166688863308	0	1	NaN	327	6	12	2	120	220	320	NaN	520	0.306925374548882	1	1	NaN	1975909.2960437	NaN	1975910.2794546	1975910.79601533
36	19	0	0	90	36.1581920903955	36.241610738255	11	0.366702028047293	2	5	6	NaN	1	4	0.0498166688863308	0	1	NaN	328	6	13	2	120	220	320	NaN	520	0.0105130225419998	1	1	NaN	1975911.9128959	NaN	1975912.8963718	1975913.41293168
36	19	0	0	90	36.1581920903955	36.241610738255	23	0.766740604098886	2	3	5	NaN	1	3	0.0498166688863308	0	1	NaN	329	6	14	2	120	220	320	NaN	520	0.740742274560034	2	0	NaN	1975914.2298709	NaN	1975915.2132876	1975915.72981073
36	19	0	0	90	36.1581920903955	36.241610738255	18	0.600057864077389	2	6	6	NaN	1	5	0.0498166688863308	0	1	NaN	330	6	15	2	120	220	320	NaN	520	0.41850192239508	1	1	NaN	1975917.2802013	NaN	1975918.2635764	1975918.78011298
36	19	0	0	90	36.1581920903955	36.241610738255	10	0.333365480042994	2	1	6	NaN	1	3	0.0498166688863308	0	1	NaN	331	6	16	2	120	220	320	NaN	520	0.0104103267658502	2	0	NaN	1975920.0136444	NaN	1975920.9971752	1975921.51371957
36	19	0	0	90	36.1581920903955	36.241610738255	22	0.733404056094587	2	2	4	NaN	1	5	0.0498166688863308	0	1	NaN	332	6	17	2	120	220	320	NaN	520	0.552031574770808	1	1	NaN	1975922.3306478	NaN	1975923.3140889	1975923.83061863
36	19	0	0	90	36.1581920903955	36.241610738255	0	0	1	8	2	NaN	2	3	0.0498166688863308	0	1	NaN	333	6	18	2	110	210	310	NaN	510	0.772921974770725	2	1	NaN	1975925.2141927	NaN	1975926.1977646	1975926.71422493
36	19	0	0	90	36.1581920903955	36.241610738255	18	0.600057864077389	2	10	6	NaN	2	5	0.0498166688863308	0	1	NaN	334	6	19	2	120	220	320	NaN	520	0.0104437705595046	2	1	NaN	1975928.2979345	NaN	1975929.2813202	1975929.79785303
36	19	0	0	90	36.1581920903955	36.241610738255	13	0.433375124055892	2	10	5	NaN	2	4	0.0498166688863308	0	1	NaN	335	6	20	2	120	220	320	NaN	520	0.0104266267735511	2	1	NaN	1975930.6148213	NaN	1975931.5981997	1975932.11475437
36	19	0	0	90	36.1581920903955	36.241610738255	11	0.366702028047293	2	12	4	NaN	2	3	0.0498166688863308	0	1	NaN	336	6	21	2	120	220	320	NaN	520	0.71907087485306	1	0	NaN	1975932.9317128	NaN	1975933.9150961	1975934.43165833
36	19	0	0	90	36.1581920903955	36.241610738255	9	0.300028932038695	2	6	2	NaN	1	3	0.0498166688863308	0	1	NaN	337	6	22	2	120	220	320	NaN	520	0.0102244999725372	1	1	NaN	1975935.9653493	NaN	1975936.9487518	1975937.4652773
36	19	0	0	90	36.1581920903955	36.241610738255	19	0.633394412081689	2	3	3	NaN	1	4	0.0498166688863308	0	1	NaN	338	6	23	2	120	220	320	NaN	520	0.864928582916036	1	1	NaN	1975938.2821528	NaN	1975939.2656324	1975939.78217102
36	19	0	0	90	36.1581920903955	36.241610738255	21	0.700067508090287	2	12	5	NaN	2	3	0.0498166688863308	0	1	NaN	339	6	24	2	120	220	320	NaN	520	0.337331026792526	1	0	NaN	1975941.4658699	NaN	1975942.4492753	1975942.96581307
36	19	0	0	90	36.1581920903955	36.241610738255	10	0.333365480042994	2	8	5	NaN	2	4	0.0498166688863308	0	1	NaN	340	6	25	2	120	220	320	NaN	520	0.519029174698517	1	0	NaN	1975944.1161313	NaN	1975945.0995262	1975945.61607273
36	19	0	0	90	36.1581920903955	36.241610738255	24	0.800077152103186	2	10	3	NaN	2	4	0.0498166688863308	0	1	NaN	341	6	26	2	120	220	320	NaN	520	0.0103730789851397	2	1	NaN	1975946.9497529	NaN	1975947.9331385	1975948.44969652
36	19	0	0	90	36.1581920903955	36.241610738255	16	0.53338476806879	2	9	1	NaN	2	4	0.0498166688863308	0	1	NaN	342	6	27	2	120	220	320	NaN	520	0.104118374641985	2	1	NaN	1975949.2666344	NaN	1975950.2500373	1975950.76657783
36	19	0	0	90	36.1581920903955	36.241610738255	21	0.700067508090287	2	9	4	NaN	2	5	0.0498166688863308	0	1	NaN	343	6	28	2	120	220	320	NaN	520	1.43915877887048	2	1	NaN	1975951.6835454	NaN	1975952.6669316	1975953.18348242
36	19	0	0	90	36.1581920903955	36.241610738255	19	0.633394412081689	2	8	1	NaN	2	3	0.0498166688863308	0	1	NaN	344	6	29	2	120	220	320	NaN	520	0.280860174680129	2	1	NaN	1975955.4339166	NaN	1975956.4173025	1975956.93385233
36	19	0	0	90	36.1581920903955	36.241610738255	21	0.700067508090287	2	1	3	NaN	1	3	0.0498166688863308	0	1	NaN	345	6	30	2	120	220	320	NaN	520	0.232728626811877	2	0	NaN	1975958.0341577	NaN	1975959.017497	1975959.53410887
36	19	0	0	90	36.1581920903955	36.241610738255	14	0.466711672060192	2	9	2	NaN	2	4	0.0498166688863308	0	1	NaN	346	6	31	2	120	220	320	NaN	520	0.290806122357026	2	1	NaN	1975960.584272	NaN	1975961.5678146	1975962.08435898
36	19	0	0	90	36.1581920903955	36.241610738255	24	0.800077152103186	2	9	5	NaN	2	3	0.0498166688863308	0	1	NaN	347	6	32	2	120	220	320	NaN	520	0.234033135231584	2	1	NaN	1975963.1847012	NaN	1975964.1680746	1975964.68462316
36	19	0	0	90	36.1581920903955	36.241610738255	11	0.366702028047293	2	3	4	NaN	1	4	0.0498166688863308	0	1	NaN	348	6	33	2	120	220	320	NaN	520	0.212128874612972	2	0	NaN	1975965.7349194	NaN	1975966.718314	1975967.23487933
36	19	0	0	90	36.1581920903955	36.241610738255	9	0.300028932038695	2	10	5	NaN	2	5	0.0498166688863308	0	1	NaN	349	6	34	2	120	220	320	NaN	520	1.18264632695355	2	1	NaN	1975968.2685035	NaN	1975969.2519058	1975969.76844167
36	19	0	0	90	36.1581920903955	36.241610738255	20	0.666730960085988	2	6	1	NaN	1	3	0.0498166688863308	0	1	NaN	350	6	35	2	120	220	320	NaN	520	0.146276926621795	2	0	NaN	1975971.7688363	NaN	1975972.7521401	1975973.26879687
36	19	0	0	90	36.1581920903955	36.241610738255	24	0.800077152103186	2	5	6	NaN	1	4	0.0498166688863308	0	1	NaN	351	6	36	2	120	220	320	NaN	520	0.774979847948998	1	1	NaN	1975974.2357423	NaN	1975975.2192044	1975975.73571105
36	19	0	0	90	36.1581920903955	36.241610738255	6	0.200019288025796	2	11	5	NaN	2	3	0.0498166688863308	0	1	NaN	352	6	37	2	120	220	320	NaN	520	0.0113576224539429	2	1	NaN	1975977.3193925	NaN	1975978.302789	1975978.81933198
36	19	0	0	90	36.1581920903955	36.241610738255	8	0.266692384034395	2	2	6	NaN	1	5	0.0498166688863308	0	1	NaN	353	6	38	2	120	220	320	NaN	520	0.702556479023769	1	1	NaN	1975979.6362003	NaN	1975980.6196756	1975981.13623222
36	19	0	0	90	36.1581920903955	36.241610738255	23	0.766740604098886	2	12	3	NaN	2	3	0.0498166688863308	0	1	NaN	354	6	39	2	120	220	320	NaN	520	0.0104104746133089	2	1	NaN	1975982.6532477	NaN	1975983.6366439	1975984.15318593
36	19	0	0	90	36.1581920903955	36.241610738255	0	0	1	3	1	NaN	1	5	0.0498166688863308	0	1	NaN	355	6	40	2	110	210	310	NaN	510	0.696461226791143	1	1	NaN	1975984.9868181	NaN	1975985.9702135	1975986.48675247
36	19	0	0	90	36.1581920903955	36.241610738255	18	0.600057864077389	2	2	6	NaN	1	3	0.0498166688863308	0	1	NaN	356	6	41	2	120	220	320	NaN	520	0.502904526889324	1	1	NaN	1975988.003783	NaN	1975988.9871733	1975989.50371837
36	19	0	0	90	36.1581920903955	36.241610738255	8	0.266692384034395	2	7	6	NaN	2	3	0.0498166688863308	0	1	NaN	357	6	42	2	120	220	320	NaN	520	1.24596272665076	2	1	NaN	1975990.8207054	NaN	1975991.8041284	1975992.32065687
36	19	0	0	90	36.1581920903955	36.241610738255	7	0.233355836030096	2	11	3	NaN	2	5	0.0498166688863308	0	1	NaN	358	6	43	2	120	220	320	NaN	520	1.0631759269163	1	0	NaN	1975994.387734	NaN	1975995.3711343	1975995.88766867
36	19	0	0	90	36.1581920903955	36.241610738255	22	0.733404056094587	2	12	1	NaN	2	5	0.0498166688863308	0	1	NaN	359	6	44	2	120	220	320	NaN	520	0.527509426930919	2	1	NaN	1975997.7713859	NaN	1975998.7548015	1975999.27134427
36	19	0	0	90	36.1581920903955	36.241610738255	13	0.433375124055892	2	11	4	NaN	2	5	0.0498166688863308	0	1	NaN	360	6	45	2	120	220	320	NaN	520	0.173596474574879	1	0	NaN	1976000.6050104	NaN	1976001.5884212	1976002.10495183
36	19	0	0	90	36.1581920903955	36.241610738255	8	0.266692384034395	2	5	3	NaN	1	3	0.0498166688863308	0	1	NaN	361	6	46	2	120	220	320	NaN	520	0.570187226869166	1	1	NaN	1976003.4885	NaN	1976004.472058	1976004.98856527
36	19	0	0	90	36.1581920903955	36.241610738255	8	0.266692384034395	2	5	5	NaN	1	5	0.0498166688863308	0	1	NaN	362	6	47	2	120	220	320	NaN	520	0.231051574461162	1	1	NaN	1976006.3721555	NaN	1976007.3556295	1976007.87217993
36	19	0	0	90	36.1581920903955	36.241610738255	9	0.300028932038695	2	4	4	NaN	1	3	0.0498166688863308	0	1	NaN	363	6	48	2	120	220	320	NaN	520	0.0104018268175423	2	0	NaN	1976008.9224715	NaN	1976009.9058874	1976010.42243137
36	19	0	0	90	36.1581920903955	36.241610738255	16	0.53338476806879	2	7	4	NaN	2	3	0.0498166688863308	0	1	NaN	364	6	49	2	120	220	320	NaN	520	0.158142426749691	2	1	NaN	1976011.3725906	NaN	1976012.3561278	1976012.87266707
36	19	0	0	90	36.1581920903955	36.241610738255	21	0.700067508090287	2	7	1	NaN	2	5	0.0498166688863308	0	1	NaN	365	6	50	2	120	220	320	NaN	520	0.85111977905035	2	1	NaN	1976013.8395135	NaN	1976014.8230292	1976015.33958852
36	19	0	0	90	36.1581920903955	36.241610738255	0	0	1	8	4	NaN	2	5	0.0498166688863308	0	1	NaN	366	6	51	2	110	210	310	NaN	510	0.0908644266892225	1	0	NaN	1976017.2399444	NaN	1976018.2233708	1976018.73991597
36	19	0	0	90	36.1581920903955	36.241610738255	13	0.433375124055892	2	9	1	NaN	2	5	0.0498166688863308	0	1	NaN	367	6	52	2	120	220	320	NaN	520	1.88266377453692	2	1	NaN	1976019.6400547	NaN	1976020.6236055	1976021.14015353
36	19	0	0	90	36.1581920903955	36.241610738255	25	0.833413700107485	2	6	5	NaN	1	4	0.0498166688863308	0	1	NaN	368	6	53	2	120	220	320	NaN	520	0.698374722385779	1	1	NaN	1976023.8406548	NaN	1976024.8240202	1976025.34056158
36	19	0	0	90	36.1581920903955	36.241610738255	23	0.766740604098886	2	4	5	NaN	1	5	0.0498166688863308	0	1	NaN	369	6	54	2	120	220	320	NaN	520	0.0104019267018884	1	1	NaN	1976026.8575897	NaN	1976027.8409786	1976028.35752177
36	19	0	0	90	36.1581920903955	36.241610738255	6	0.200019288025796	2	9	2	NaN	2	3	0.0498166688863308	0	1	NaN	370	6	55	2	120	220	320	NaN	520	0.0844489268492907	2	1	NaN	1976029.1743455	NaN	1976030.1578652	1976030.67442227
36	19	0	0	90	36.1581920903955	36.241610738255	15	0.500048220064491	2	7	5	NaN	2	4	0.0498166688863308	0	1	NaN	371	6	56	2	120	220	320	NaN	520	0.324357226723805	1	0	NaN	1976031.5747144	NaN	1976032.5580998	1976033.07465707
36	19	0	0	90	36.1581920903955	36.241610738255	22	0.733404056094587	2	8	5	NaN	2	4	0.0498166688863308	0	1	NaN	372	6	57	2	120	220	320	NaN	520	0.154657526640221	2	1	NaN	1976034.2082952	NaN	1976035.1917021	1976035.70825387
36	19	0	0	90	36.1581920903955	36.241610738255	22	0.733404056094587	2	10	4	NaN	2	3	0.0498166688863308	0	1	NaN	373	6	58	2	120	220	320	NaN	520	0.303669826826081	2	1	NaN	1976036.6752028	NaN	1976037.6586119	1976038.17514877
36	19	0	0	90	36.1581920903955	36.241610738255	13	0.433375124055892	2	4	2	NaN	1	5	0.0498166688863308	0	1	NaN	374	6	59	2	120	220	320	NaN	520	0.486734274541959	1	1	NaN	1976039.29213	NaN	1976040.2755423	1976040.79207543
36	19	0	0	90	36.1581920903955	36.241610738255	21	0.700067508090287	2	5	3	NaN	1	3	0.0498166688863308	0	1	NaN	375	6	60	2	120	220	320	NaN	520	0.350913826841861	1	1	NaN	1976042.0924096	NaN	1976043.0758062	1976043.59235807
36	19	0	0	90	36.1581920903955	36.241610738255	21	0.700067508090287	2	5	3	NaN	1	5	0.0498166688863308	0	1	NaN	376	6	61	2	120	220	320	NaN	520	0.0104061746969819	1	1	NaN	1976044.9593625	NaN	1976045.9427569	1976046.45929483
36	19	0	0	90	36.1581920903955	36.241610738255	22	0.733404056094587	2	10	6	NaN	2	5	0.0498166688863308	0	1	NaN	377	6	62	2	120	220	320	NaN	520	0.0103854790795594	2	1	NaN	1976047.2927955	NaN	1976048.2763517	1976048.79287042
36	19	0	0	90	36.1581920903955	36.241610738255	0	0	1	12	4	NaN	2	4	0.0498166688863308	0	1	NaN	378	6	63	2	110	210	310	NaN	510	0.633175574475899	2	1	NaN	1976049.6098147	NaN	1976050.5932421	1976051.10975403
36	19	0	0	90	36.1581920903955	36.241610738255	17	0.56672131607309	2	2	3	NaN	1	4	0.0498166688863308	0	1	NaN	379	7	1	2	120	220	320	NaN	520	0.0103941266424954	2	0	NaN	1976065.6607039	NaN	1976066.6447773	1976067.16133717
36	19	0	0	90	36.1581920903955	36.241610738255	17	0.56672131607309	2	11	6	NaN	2	3	0.0498166688863308	0	1	NaN	380	7	2	2	120	220	320	NaN	520	1.23265112680383	2	1	NaN	1976067.9781501	NaN	1976068.9616774	1976069.47823167
36	19	0	0	90	36.1581920903955	36.241610738255	19	0.633394412081689	2	4	2	NaN	1	4	0.0498166688863308	0	1	NaN	381	7	3	2	120	220	320	NaN	520	1.242262926884	1	1	NaN	1976071.5286893	NaN	1976072.512025	1976073.02856867
36	19	0	0	90	36.1581920903955	36.241610738255	0	0	1	6	5	NaN	1	3	0.0498166688863308	0	1	NaN	382	7	4	2	110	210	310	NaN	510	0.451947174733505	2	0	NaN	1976075.0788552	NaN	1976076.0623982	1976076.57891603
36	19	0	0	90	36.1581920903955	36.241610738255	7	0.233355836030096	2	8	2	NaN	2	3	0.0498166688863308	0	1	NaN	383	7	5	2	120	220	320	NaN	520	0.0104088746011257	2	1	NaN	1976077.8458876	NaN	1976078.8293057	1976079.34585453
36	19	0	0	90	36.1581920903955	36.241610738255	22	0.733404056094587	2	4	5	NaN	1	5	0.0498166688863308	0	1	NaN	384	7	6	2	120	220	320	NaN	520	1.15919742686674	2	0	NaN	1976080.1795266	NaN	1976081.1628729	1976081.67944217
36	19	0	0	90	36.1581920903955	36.241610738255	22	0.733404056094587	2	7	2	NaN	2	4	0.0498166688863308	0	1	NaN	385	7	7	2	120	220	320	NaN	520	1.30848102667369	1	0	NaN	1976083.6464709	NaN	1976084.6298934	1976085.14643107
36	19	0	0	90	36.1581920903955	36.241610738255	23	0.766740604098886	2	1	4	NaN	1	5	0.0498166688863308	0	1	NaN	386	7	8	2	120	220	320	NaN	520	0.427923426963389	1	1	NaN	1976087.2633828	NaN	1976088.2469188	1976088.76345467
36	19	0	0	90	36.1581920903955	36.241610738255	12	0.400038576051593	2	10	4	NaN	2	5	0.0498166688863308	0	1	NaN	387	7	9	2	120	220	320	NaN	520	0.230247174622491	2	1	NaN	1976089.9969782	NaN	1976090.9805029	1976091.49704683
36	19	0	0	90	36.1581920903955	36.241610738255	0	0	1	2	3	NaN	1	5	0.0498166688863308	0	1	NaN	388	7	10	2	110	210	310	NaN	510	0.344305226812139	2	0	NaN	1976092.9306978	NaN	1976093.9141173	1976094.43067437
36	19	0	0	90	36.1581920903955	36.241610738255	15	0.500048220064491	2	2	5	NaN	1	3	0.0498166688863308	0	1	NaN	389	7	11	2	120	220	320	NaN	520	0.1263178139925	1	1	NaN	1976095.580859	NaN	1976096.5643878	1976097.08093529
36	19	0	0	90	36.1581920903955	36.241610738255	21	0.700067508090287	2	3	2	NaN	1	3	0.0498166688863308	0	1	NaN	390	7	12	2	120	220	320	NaN	520	1.20478112669662	1	1	NaN	1976098.0145285	NaN	1976098.9979927	1976099.51450597
36	19	0	0	90	36.1581920903955	36.241610738255	9	0.300028932038695	2	11	2	NaN	2	5	0.0498166688863308	0	1	NaN	391	7	13	2	120	220	320	NaN	520	0.01042182254605	2	1	NaN	1976101.5314282	NaN	1976102.5149699	1976103.03150988
36	19	0	0	90	36.1581920903955	36.241610738255	17	0.56672131607309	2	5	5	NaN	1	4	0.0498166688863308	0	1	NaN	392	7	14	2	120	220	320	NaN	520	0.0104108746163547	1	1	NaN	1976103.8651294	NaN	1976104.8485274	1976105.36507013
36	19	0	0	90	36.1581920903955	36.241610738255	6	0.200019288025796	2	8	2	NaN	2	4	0.0498166688863308	0	1	NaN	393	7	15	2	120	220	320	NaN	520	0.765294574433938	2	1	NaN	1976106.1820955	NaN	1976107.1654708	1976107.68196313
36	19	0	0	90	36.1581920903955	36.241610738255	17	0.56672131607309	2	8	6	NaN	2	5	0.0498166688863308	0	1	NaN	394	7	16	2	120	220	320	NaN	520	0.137433174764737	2	1	NaN	1976109.2656616	NaN	1976110.2490654	1976110.76559933
36	19	0	0	90	36.1581920903955	36.241610738255	8	0.266692384034395	2	6	6	NaN	1	4	0.0498166688863308	0	1	NaN	395	7	17	2	120	220	320	NaN	520	0.0790423268917948	1	1	NaN	1976111.7159974	NaN	1976112.699306	1976113.21585667
36	19	0	0	90	36.1581920903955	36.241610738255	16	0.53338476806879	2	3	5	NaN	1	3	0.0498166688863308	0	1	NaN	396	7	18	2	120	220	320	NaN	520	0.726853726897389	1	1	NaN	1976114.1160075	NaN	1976115.0995282	1976115.61608287
36	19	0	0	90	36.1581920903955	36.241610738255	6	0.200019288025796	2	6	1	NaN	1	4	0.0498166688863308	0	1	NaN	397	7	19	2	120	220	320	NaN	520	0.661168574588373	1	1	NaN	1976117.1496736	NaN	1976118.1331437	1976118.64970803
36	19	0	0	90	36.1581920903955	36.241610738255	20	0.666730960085988	2	7	4	NaN	2	5	0.0498166688863308	0	1	NaN	398	7	20	2	120	220	320	NaN	520	1.12535062688403	2	1	NaN	1976120.1333976	NaN	1976121.1167804	1976121.63334317
36	19	0	0	90	36.1581920903955	36.241610738255	12	0.400038576051593	2	2	2	NaN	1	3	0.0498166688863308	0	1	NaN	399	7	21	2	120	220	320	NaN	520	0.740037774667144	1	1	NaN	1976123.5669453	NaN	1976124.5504886	1976125.06700953
36	19	0	0	90	36.1581920903955	36.241610738255	24	0.800077152103186	2	11	5	NaN	2	3	0.0498166688863308	0	1	NaN	400	7	22	2	120	220	320	NaN	520	0.822844879003242	2	1	NaN	1976126.6838986	NaN	1976127.667428	1976128.18398712
36	19	0	0	90	36.1581920903955	36.241610738255	8	0.266692384034395	2	10	2	NaN	2	4	0.0498166688863308	0	1	NaN	401	7	23	2	120	220	320	NaN	520	0.010411974741146	2	1	NaN	1976129.8176739	NaN	1976130.801061	1976131.31762283
36	19	0	0	90	36.1581920903955	36.241610738255	16	0.53338476806879	2	2	3	NaN	1	4	0.0498166688863308	0	1	NaN	402	7	24	2	120	220	320	NaN	520	0.964456326793879	2	0	NaN	1976132.1345753	NaN	1976133.11797	1976133.63451747
36	19	0	0	90	36.1581920903955	36.241610738255	6	0.200019288025796	2	3	2	NaN	1	3	0.0498166688863308	0	1	NaN	403	7	25	2	120	220	320	NaN	520	0.945007026661187	1	1	NaN	1976135.4182312	NaN	1976136.4016604	1976136.91816647
36	19	0	0	90	36.1581920903955	36.241610738255	7	0.233355836030096	2	5	6	NaN	1	5	0.0498166688863308	0	1	NaN	404	7	26	2	120	220	320	NaN	520	0.718812026781961	1	1	NaN	1976138.6685548	NaN	1976139.6519454	1976140.16849157
36	19	0	0	90	36.1581920903955	36.241610738255	20	0.666730960085988	2	11	5	NaN	2	5	0.0498166688863308	0	1	NaN	405	7	27	2	120	220	320	NaN	520	0.357247174484655	2	1	NaN	1976141.7020731	NaN	1976142.6855869	1976143.20212103
36	19	0	0	90	36.1581920903955	36.241610738255	23	0.766740604098886	2	7	5	NaN	2	4	0.0498166688863308	0	1	NaN	406	7	28	2	120	220	320	NaN	520	1.08237052662298	2	1	NaN	1976144.369114	NaN	1976145.3524982	1976145.86904717
36	19	0	0	90	36.1581920903955	36.241610738255	11	0.366702028047293	2	5	4	NaN	1	5	0.0498166688863308	0	1	NaN	407	7	29	2	120	220	320	NaN	520	0.818248474737629	1	1	NaN	1976148.1528264	NaN	1976149.1362117	1976149.65274983
36	19	0	0	90	36.1581920903955	36.241610738255	18	0.600057864077389	2	12	1	NaN	2	4	0.0498166688863308	0	1	NaN	408	7	30	2	120	220	320	NaN	520	0.484612026717514	2	1	NaN	1976151.2864332	NaN	1976152.2698319	1976152.78639157
36	19	0	0	90	36.1581920903955	36.241610738255	7	0.233355836030096	2	7	2	NaN	2	5	0.0498166688863308	0	1	NaN	409	7	31	2	120	220	320	NaN	520	0.0103940267581493	2	1	NaN	1976154.0867221	NaN	1976155.0701465	1976155.58667427
36	19	0	0	90	36.1581920903955	36.241610738255	15	0.500048220064491	2	5	3	NaN	1	4	0.0498166688863308	0	1	NaN	410	7	32	2	120	220	320	NaN	520	0.010440626880154	1	1	NaN	1976156.4036204	NaN	1976157.3870062	1976157.90355917
36	19	0	0	90	36.1581920903955	36.241610738255	23	0.766740604098886	2	5	5	NaN	1	4	0.0498166688863308	0	1	NaN	411	7	33	2	120	220	320	NaN	520	0.0103292351122946	1	1	NaN	1976158.7203897	NaN	1976159.703922	1976160.22045646
36	19	0	0	90	36.1581920903955	36.241610738255	17	0.56672131607309	2	7	5	NaN	2	4	0.0498166688863308	0	1	NaN	412	7	34	2	120	220	320	NaN	520	1.21300357882865	2	1	NaN	1976161.0540896	NaN	1976162.0374587	1976162.55402482
36	19	0	0	90	36.1581920903955	36.241610738255	18	0.600057864077389	2	12	6	NaN	2	5	0.0498166688863308	0	1	NaN	413	7	35	2	120	220	320	NaN	520	0.0104249224532396	2	1	NaN	1976164.5876559	NaN	1976165.571147	1976166.08769238
36	19	0	0	90	36.1581920903955	36.241610738255	14	0.466711672060192	2	8	5	NaN	2	3	0.0498166688863308	0	1	NaN	414	7	36	2	120	220	320	NaN	520	0.0103017394430935	2	1	NaN	1976166.9213019	NaN	1976167.9047433	1976168.42126166
36	19	0	0	90	36.1581920903955	36.241610738255	25	0.833413700107485	2	5	2	NaN	1	4	0.0498166688863308	0	1	NaN	415	7	37	2	120	220	320	NaN	520	0.716988074593246	1	1	NaN	1976169.2380629	NaN	1976170.2215891	1976170.73815663
36	19	0	0	90	36.1581920903955	36.241610738255	13	0.433375124055892	2	5	4	NaN	1	5	0.0498166688863308	0	1	NaN	416	7	38	2	120	220	320	NaN	520	0.0104074745904654	1	1	NaN	1976172.2718615	NaN	1976173.2552358	1976173.77177853
36	19	0	0	90	36.1581920903955	36.241610738255	0	0	1	11	3	NaN	2	3	0.0498166688863308	0	1	NaN	417	7	39	2	110	210	310	NaN	510	0.0104198746848851	2	1	NaN	1976174.5887338	NaN	1976175.5721287	1976176.08867473
36	19	0	0	90	36.1581920903955	36.241610738255	25	0.833413700107485	2	9	4	NaN	2	4	0.0498166688863308	0	1	NaN	418	7	40	2	120	220	320	NaN	520	0.849793926812708	2	1	NaN	1976176.905595	NaN	1976177.8890211	1976178.40557797
36	19	0	0	90	36.1581920903955	36.241610738255	13	0.433375124055892	2	2	3	NaN	1	4	0.0498166688863308	0	1	NaN	419	7	41	2	120	220	320	NaN	520	0.426913291681558	2	0	NaN	1976180.0725949	NaN	1976181.0559917	1976181.57254941
36	19	0	0	90	36.1581920903955	36.241610738255	18	0.600057864077389	2	11	1	NaN	2	4	0.0498166688863308	0	1	NaN	420	7	42	2	120	220	320	NaN	520	0.420806678943336	2	1	NaN	1976182.8062381	NaN	1976183.7896125	1976184.30615842
36	19	0	0	90	36.1581920903955	36.241610738255	0	0	1	4	1	NaN	1	4	0.0498166688863308	0	1	NaN	421	7	43	2	110	210	310	NaN	510	0.96728902682662	2	0	NaN	1976185.5398356	NaN	1976186.5231027	1976187.03974917
36	19	0	0	90	36.1581920903955	36.241610738255	6	0.200019288025796	2	12	1	NaN	2	3	0.0498166688863308	0	1	NaN	422	7	44	2	120	220	320	NaN	520	0.083630079170689	2	1	NaN	1976188.8234784	NaN	1976189.8068455	1976190.32341482
36	19	0	0	90	36.1581920903955	36.241610738255	17	0.56672131607309	2	9	3	NaN	2	3	0.0498166688863308	0	1	NaN	423	7	45	2	120	220	320	NaN	520	0.0354140745475888	2	1	NaN	1976191.2236961	NaN	1976192.2071085	1976192.72364023
36	19	0	0	90	36.1581920903955	36.241610738255	16	0.53338476806879	2	1	1	NaN	1	3	0.0498166688863308	0	1	NaN	424	7	46	2	120	220	320	NaN	520	0.240186226787046	2	0	NaN	1976193.9072618	NaN	1976194.8906947	1976195.40724447
36	19	0	0	90	36.1581920903955	36.241610738255	12	0.400038576051593	2	11	6	NaN	2	3	0.0498166688863308	0	1	NaN	425	7	47	2	120	220	320	NaN	520	0.0104041746817529	2	1	NaN	1976196.4576458	NaN	1976197.4409525	1976197.95748433
36	19	0	0	90	36.1581920903955	36.241610738255	25	0.833413700107485	2	4	1	NaN	1	5	0.0498166688863308	0	1	NaN	426	7	48	2	120	220	320	NaN	520	1.90878052660264	1	1	NaN	1976198.77442	NaN	1976199.7578321	1976200.27437917
36	19	0	0	90	36.1581920903955	36.241610738255	23	0.766740604098886	2	10	4	NaN	2	3	0.0498166688863308	0	1	NaN	427	7	49	2	120	220	320	NaN	520	0.916040426818654	2	1	NaN	1976202.9915069	NaN	1976203.9749023	1976204.49146037
36	19	0	0	90	36.1581920903955	36.241610738255	24	0.800077152103186	2	3	4	NaN	1	3	0.0498166688863308	0	1	NaN	428	7	50	2	120	220	320	NaN	520	0.258384987479076	2	0	NaN	1976206.2251738	NaN	1976207.2085521	1976207.72511621
36	19	0	0	90	36.1581920903955	36.241610738255	25	0.833413700107485	2	12	6	NaN	2	3	0.0498166688863308	0	1	NaN	429	7	51	2	120	220	320	NaN	520	0.010426122462377	2	1	NaN	1976208.7920845	NaN	1976209.775484	1976210.29203688
36	19	0	0	90	36.1581920903955	36.241610738255	15	0.500048220064491	2	9	5	NaN	2	3	0.0498166688863308	0	1	NaN	430	7	52	2	120	220	320	NaN	520	0.0775833744555712	1	0	NaN	1976211.125534	NaN	1976212.1090448	1976212.62558963
36	19	0	0	90	36.1581920903955	36.241610738255	15	0.500048220064491	2	10	3	NaN	2	3	0.0498166688863308	0	1	NaN	431	7	53	2	120	220	320	NaN	520	0.501934674801305	2	1	NaN	1976213.5092127	NaN	1976214.4926168	1976215.00915823
36	19	0	0	90	36.1581920903955	36.241610738255	8	0.266692384034395	2	6	5	NaN	1	4	0.0498166688863308	0	1	NaN	432	7	54	2	120	220	320	NaN	520	0.0103956267703325	2	0	NaN	1976216.3261673	NaN	1976217.3095706	1976217.82610097
36	19	0	0	90	36.1581920903955	36.241610738255	7	0.233355836030096	2	2	5	NaN	1	5	0.0498166688863308	0	1	NaN	433	7	55	2	120	220	320	NaN	520	0.0104416746180505	2	0	NaN	1976218.6597223	NaN	1976219.6431102	1976220.15966583
36	19	0	0	90	36.1581920903955	36.241610738255	9	0.300028932038695	2	12	5	NaN	2	3	0.0498166688863308	0	1	NaN	434	7	56	2	120	220	320	NaN	520	0.0865236746612936	1	0	NaN	1976221.4766794	NaN	1976222.4600521	1976222.97660303
36	19	0	0	90	36.1581920903955	36.241610738255	16	0.53338476806879	2	4	1	NaN	1	4	0.0498166688863308	0	1	NaN	435	7	57	2	120	220	320	NaN	520	0.0623797266744077	1	1	NaN	1976223.876913	NaN	1976224.8602965	1976225.37685287
36	19	0	0	90	36.1581920903955	36.241610738255	19	0.633394412081689	2	9	2	NaN	2	5	0.0498166688863308	0	1	NaN	436	7	58	2	120	220	320	NaN	520	0.815315026789904	2	1	NaN	1976226.2438079	NaN	1976227.2271727	1976227.74374277
36	19	0	0	90	36.1581920903955	36.241610738255	10	0.333365480042994	2	6	2	NaN	1	5	0.0498166688863308	0	1	NaN	437	7	59	2	120	220	320	NaN	520	0.0416780395898968	1	1	NaN	1976229.3773016	NaN	1976230.3608368	1976230.87739376
36	19	0	0	90	36.1581920903955	36.241610738255	20	0.666730960085988	2	2	1	NaN	1	4	0.0498166688863308	0	1	NaN	438	7	60	2	120	220	320	NaN	520	0.0103965268936008	2	0	NaN	1976231.7276533	NaN	1976232.7110752	1976233.22761377
36	19	0	0	90	36.1581920903955	36.241610738255	20	0.666730960085988	2	10	6	NaN	2	4	0.0498166688863308	0	1	NaN	439	7	61	2	120	220	320	NaN	520	0.582045126939192	2	1	NaN	1976234.0612509	NaN	1976235.0446301	1976235.56117797
36	19	0	0	90	36.1581920903955	36.241610738255	13	0.433375124055892	2	9	4	NaN	2	5	0.0498166688863308	0	1	NaN	440	7	62	2	120	220	320	NaN	520	0.010409974725917	2	1	NaN	1976236.9613842	NaN	1976237.9449233	1976238.46146483
36	19	0	0	90	36.1581920903955	36.241610738255	17	0.56672131607309	2	5	1	NaN	1	5	0.0498166688863308	0	1	NaN	441	7	63	2	120	220	320	NaN	520	0.0103921268600971	2	0	NaN	1976239.2782877	NaN	1976240.2618029	1976240.77835367
36	19	0	0	90	36.1581920903955	36.241610738255	20	0.666730960085988	2	11	6	NaN	2	3	0.0498166688863308	0	1	NaN	442	8	1	2	120	220	320	NaN	520	0.905180426780134	2	1	NaN	1976246.3624129	NaN	1976247.3458374	1976247.86238167
36	19	0	0	90	36.1581920903955	36.241610738255	10	0.333365480042994	2	5	5	NaN	1	3	0.0498166688863308	0	1	NaN	443	8	2	2	120	220	320	NaN	520	0.263872226700187	1	1	NaN	1976249.5793605	NaN	1976250.5627995	1976251.07937147
36	19	0	0	90	36.1581920903955	36.241610738255	17	0.56672131607309	2	1	2	NaN	1	4	0.0498166688863308	0	1	NaN	444	8	3	2	120	220	320	NaN	520	0.970105626853183	1	1	NaN	1976252.5130148	NaN	1976253.4964362	1976254.01299297
36	19	0	0	90	36.1581920903955	36.241610738255	23	0.766740604098886	2	8	2	NaN	2	4	0.0498166688863308	0	1	NaN	445	8	4	2	120	220	320	NaN	520	1.35851172683761	2	1	NaN	1976255.7965643	NaN	1976256.7800998	1976257.29664737
36	19	0	0	90	36.1581920903955	36.241610738255	24	0.800077152103186	2	4	2	NaN	1	4	0.0498166688863308	0	1	NaN	446	8	5	2	120	220	320	NaN	520	1.17151787457988	2	0	NaN	1976259.4635861	NaN	1976260.4471273	1976260.96366433
36	19	0	0	90	36.1581920903955	36.241610738255	12	0.400038576051593	2	8	2	NaN	2	5	0.0498166688863308	0	1	NaN	447	8	6	2	120	220	320	NaN	520	0.192211526678875	2	1	NaN	1976262.9473558	NaN	1976263.9307857	1976264.44733807
36	19	0	0	90	36.1581920903955	36.241610738255	17	0.56672131607309	2	9	6	NaN	2	4	0.0498166688863308	0	1	NaN	448	8	7	2	120	220	320	NaN	520	0.0102935915347189	2	1	NaN	1976265.4476523	NaN	1976266.4310278	1976266.94759081
36	19	0	0	90	36.1581920903955	36.241610738255	24	0.800077152103186	2	7	3	NaN	2	5	0.0498166688863308	0	1	NaN	449	8	8	2	120	220	320	NaN	520	0.807017326820642	2	1	NaN	1976267.76453	NaN	1976268.7479455	1976269.26447997
36	19	0	0	90	36.1581920903955	36.241610738255	10	0.333365480042994	2	1	6	NaN	1	3	0.0498166688863308	0	1	NaN	450	8	9	2	120	220	320	NaN	520	0.073750474723056	2	0	NaN	1976270.8813808	NaN	1976271.8649104	1976272.38145123
36	19	0	0	90	36.1581920903955	36.241610738255	12	0.400038576051593	2	11	4	NaN	2	5	0.0498166688863308	0	1	NaN	451	8	10	2	120	220	320	NaN	520	0.138306026812643	1	0	NaN	1976273.2649343	NaN	1976274.24848	1976274.76502177
36	19	0	0	90	36.1581920903955	36.241610738255	14	0.466711672060192	2	12	4	NaN	2	4	0.0498166688863308	0	1	NaN	452	8	11	2	120	220	320	NaN	520	1.77581052249297	1	0	NaN	1976275.7153162	NaN	1976276.698711	1976277.21525868
36	19	0	0	90	36.1581920903955	36.241610738255	13	0.433375124055892	2	5	6	NaN	1	4	0.0498166688863308	0	1	NaN	453	8	12	2	120	220	320	NaN	520	0.452178126899526	1	1	NaN	1976279.7990528	NaN	1976280.7824405	1976281.29899917
36	19	0	0	90	36.1581920903955	36.241610738255	14	0.466711672060192	2	10	3	NaN	2	3	0.0498166688863308	0	1	NaN	454	8	13	2	120	220	320	NaN	520	0.0104060745798051	2	1	NaN	1976282.5659253	NaN	1976283.5493955	1976284.06593953
36	19	0	0	90	36.1581920903955	36.241610738255	20	0.666730960085988	2	10	2	NaN	2	3	0.0498166688863308	0	1	NaN	455	8	14	2	120	220	320	NaN	520	0.175629926845431	2	1	NaN	1976284.8995707	NaN	1976285.8829362	1976286.39950067
36	19	0	0	90	36.1581920903955	36.241610738255	13	0.433375124055892	2	6	3	NaN	1	4	0.0498166688863308	0	1	NaN	456	8	15	2	120	220	320	NaN	520	0.148281274596229	1	1	NaN	1976287.3830061	NaN	1976288.3665263	1976288.88306793
36	19	0	0	90	36.1581920903955	36.241610738255	10	0.333365480042994	2	4	2	NaN	1	5	0.0498166688863308	0	1	NaN	457	8	16	2	120	220	320	NaN	520	0.506570078898221	1	1	NaN	1976290.0165902	NaN	1976291.0001165	1976291.51666182
