subjno	age	gender	isPractice	viewdist	CmToPixX	CmToPixY	SOA_frm	SOA_time	targNum	targID	targExample	targRace	targGender	firstTargPos	contrast	familiarity	curr_staircase	iStair	TrialNum	BlockNum	blktrl	sessionNum	TC_FIXATION	TC_RSVP_START	TC_RSVP_END	TC_BLANK	TC_RESPONSE_ONSET	RT2afc	resp_2afc	acc	RSVPOnsetVBL	RSVPOnsetTime	RSVPOffsetVBL	RSVPOffsetTime	startrt_2afc
42	99	99	1	90	36.1581920903955	36.241610738255	0	0	1	7	1	NaN	2	4	0.1	1	1	1	1	1	1	1	111	211	311	NaN	511	2.25271307490766	2	1	NaN	4828029.3588435	NaN	4828030.3420892	4828030.87514863
42	99	99	1	90	36.1581920903955	36.241610738255	0	0	1	7	1	NaN	2	4	0.398107170553497	1	1	2	2	1	2	1	111	211	311	NaN	511	0.670862800441682	2	1	NaN	4828034.1091469	NaN	4828035.0925679	4828035.6084725
42	99	99	1	90	36.1581920903955	36.241610738255	0	0	1	6	1	NaN	1	4	0.0251188643150958	1	1	3	3	1	3	1	111	211	311	NaN	511	2.73739963211119	2	0	NaN	4828037.2260056	NaN	4828038.2093991	4828038.72593557
42	99	99	1	90	36.1581920903955	36.241610738255	0	0	1	9	1	NaN	2	3	0.0398107170553497	1	1	4	4	1	4	1	111	211	311	NaN	511	1.38632114231586	2	1	NaN	4828042.3931763	NaN	4828043.3765732	4828043.89311006
42	99	99	1	90	36.1581920903955	36.241610738255	0	0	1	1	1	NaN	1	3	0.630957344480193	1	1	5	5	1	5	1	111	211	311	NaN	511	0.537300264462829	1	1	NaN	4828046.2102293	NaN	4828047.1936253	4828047.71014524
42	99	99	1	90	36.1581920903955	36.241610738255	0	0	1	1	1	NaN	1	3	0.158489319246111	1	1	6	6	1	6	1	111	211	311	NaN	511	0.529229794628918	1	1	NaN	4828049.1938381	NaN	4828050.1772548	4828050.69379451
42	99	99	1	90	36.1581920903955	36.241610738255	0	0	1	10	1	NaN	2	5	0.0630957344480193	1	1	7	7	1	7	1	111	211	311	NaN	511	0.475403964519501	2	1	NaN	4828052.1441308	NaN	4828053.1275523	4828053.64405664
42	99	99	1	90	36.1581920903955	36.241610738255	0	0	1	6	1	NaN	1	3	0.0158489319246111	1	1	8	8	1	8	1	111	211	311	NaN	511	0.331544215790927	2	0	NaN	4828055.1276532	NaN	4828056.1111902	4828056.62769878
42	99	99	1	90	36.1581920903955	36.241610738255	0	0	1	5	1	NaN	1	4	0.0630957344480193	1	1	9	9	1	9	1	111	211	311	NaN	511	0.381230664439499	1	1	NaN	4828057.8780305	NaN	4828058.8614382	4828059.37796234
42	99	99	1	90	36.1581920903955	36.241610738255	0	0	1	11	1	NaN	2	5	0.398107170553497	1	1	10	10	1	10	1	111	211	311	NaN	511	0.365401189774275	2	1	NaN	4828060.6781771	NaN	4828061.6617151	4828062.17823891
42	99	99	1	90	36.1581920903955	36.241610738255	0	0	1	3	1	NaN	1	4	0.251188643150958	1	1	11	11	1	11	1	111	211	311	NaN	511	0.469303369522095	1	1	NaN	4828063.4619185	NaN	4828064.4453207	4828064.96184693
42	99	99	1	90	36.1581920903955	36.241610738255	0	0	1	11	1	NaN	2	4	0.1	1	1	12	12	1	12	1	111	211	311	NaN	511	0.341672764159739	2	1	NaN	4828067.4455452	NaN	4828068.429067	4828068.94556294
42	99	99	1	90	36.1581920903955	36.241610738255	0	0	1	12	1	NaN	2	3	0.0398107170553497	1	1	13	13	1	13	1	111	211	311	NaN	511	0.510854422114789	1	0	NaN	4828070.2126433	NaN	4828071.1959814	4828071.71250688
42	99	99	1	90	36.1581920903955	36.241610738255	0	0	1	8	1	NaN	2	5	0.0251188643150958	1	1	14	14	1	14	1	111	211	311	NaN	511	0.425536070019007	2	1	NaN	4828073.1461977	NaN	4828074.1296546	4828074.64613153
42	99	99	1	90	36.1581920903955	36.241610738255	0	0	1	11	1	NaN	2	4	0.0158489319246111	1	1	15	15	1	15	1	111	211	311	NaN	511	0.54096401669085	1	0	NaN	4828076.0463079	NaN	4828077.029893	4828077.54641558
42	99	99	1	90	36.1581920903955	36.241610738255	0	0	1	10	1	NaN	2	3	0.630957344480193	1	1	16	16	1	16	1	111	211	311	NaN	511	0.406214969232678	1	0	NaN	4828079.0134613	NaN	4828079.9968823	4828080.51338103
42	99	99	1	90	36.1581920903955	36.241610738255	0	0	1	3	1	NaN	1	5	0.158489319246111	1	1	17	17	1	17	1	111	211	311	NaN	511	0.448937769979239	1	1	NaN	4828081.9304163	NaN	4828082.913821	4828083.43032083
42	99	99	1	90	36.1581920903955	36.241610738255	0	0	1	8	1	NaN	2	3	0.1	1	1	18	18	1	18	1	111	211	311	NaN	511	0.582020970061421	1	0	NaN	4828084.7973598	NaN	4828085.7807407	4828086.29728033
42	99	99	1	90	36.1581920903955	36.241610738255	0	0	1	2	1	NaN	1	3	0.248761616068403	1	1	19	19	1	19	1	111	211	311	NaN	511	0.389737316407263	1	1	NaN	4828087.7976375	NaN	4828088.7810352	4828089.29757858
42	99	99	1	90	36.1581920903955	36.241610738255	0	0	1	3	1	NaN	1	3	0.192683397381409	1	1	20	20	1	20	1	111	211	311	NaN	511	0.357085289433599	1	1	NaN	4828090.6145863	NaN	4828091.5980058	4828092.11452761
42	99	99	1	90	36.1581920903955	36.241610738255	0	0	1	5	1	NaN	1	5	0.14637480754819	1	1	21	21	1	21	1	111	211	311	NaN	511	0.2931505786255	1	1	NaN	4828093.3982036	NaN	4828094.3815567	4828094.89812512
42	99	99	1	90	36.1581920903955	36.241610738255	0	0	1	8	1	NaN	2	4	0.112057050667152	1	1	22	22	1	22	1	111	211	311	NaN	511	0.368533563800156	1	0	NaN	4828096.1151324	NaN	4828097.0985784	4828097.61505024
42	99	99	1	90	36.1581920903955	36.241610738255	0	0	1	4	1	NaN	1	3	0.196346109454295	1	1	23	23	1	23	1	111	211	311	NaN	511	0.2969607161358	1	1	NaN	4828098.8987412	NaN	4828099.8821532	4828100.39866368
42	99	99	1	90	36.1581920903955	36.241610738255	0	0	1	10	1	NaN	2	3	0.154441600349145	1	1	24	24	1	24	1	111	211	311	NaN	511	0.0103651899844408	1	0	NaN	4828101.6156658	NaN	4828102.5990603	4828103.11560801
42	99	99	1	90	36.1581920903955	36.241610738255	0	0	1	9	1	NaN	2	5	0.257995165366084	1	1	25	25	1	25	1	111	211	311	NaN	511	0.129522983916104	1	0	NaN	4828104.2658078	NaN	4828105.2493483	4828105.76588912
42	99	99	1	90	36.1581920903955	36.241610738255	0	0	1	2	1	NaN	1	3	0.385288380812596	1	1	26	26	1	26	1	111	211	311	NaN	511	0.0371943172067404	1	1	NaN	4828106.9661711	NaN	4828107.9495988	4828108.46612828
42	99	99	1	90	36.1581920903955	36.241610738255	0	0	1	10	1	NaN	2	3	0.344145378794655	1	1	27	27	1	27	1	111	211	311	NaN	511	0.29015299025923	2	1	NaN	4828109.433101	NaN	4828110.4165009	4828110.93303431
42	99	99	1	90	36.1581920903955	36.241610738255	0	0	1	6	1	NaN	1	5	0.304547848323932	1	1	28	28	1	28	1	111	211	311	NaN	511	0.010493315756321	1	1	NaN	4828112.1500478	NaN	4828113.1334726	4828113.64998118
42	99	99	1	90	36.1581920903955	36.241610738255	0	0	1	4	1	NaN	1	4	0.267491574436521	1	1	29	29	1	29	1	111	211	311	NaN	511	0.252132542431355	1	1	NaN	4828114.5835999	NaN	4828115.5670248	4828116.08354506
42	99	99	1	90	36.1581920903955	36.241610738255	0	0	1	2	1	NaN	1	4	0.233881826120716	1	1	30	30	1	30	1	111	211	311	NaN	511	0.360779269598424	1	1	NaN	4828117.2505452	NaN	4828118.2339351	4828118.75046943
42	99	99	1	90	36.1581920903955	36.241610738255	0	0	1	1	1	NaN	1	4	0.204402505767155	1	1	31	31	1	31	1	111	211	311	NaN	511	0.47770091611892	1	1	NaN	4828120.134155	NaN	4828121.1175717	4828121.63409078
42	99	99	1	90	36.1581920903955	36.241610738255	0	0	1	8	1	NaN	2	5	0.179363073075542	1	1	32	32	1	32	1	111	211	311	NaN	511	0.7450035167858	2	1	NaN	4828123.034477	NaN	4828124.0178606	4828124.53439148
42	99	99	1	90	36.1581920903955	36.241610738255	0	0	1	7	1	NaN	2	4	0.15863491931196	1	1	33	33	1	33	1	111	211	311	NaN	511	0.401936169713736	2	1	NaN	4828126.201419	NaN	4828127.1848073	4828127.70135483
42	99	99	1	90	36.1581920903955	36.241610738255	0	0	1	11	1	NaN	2	5	0.141741649889722	1	1	34	34	1	34	1	111	211	311	NaN	511	0.512968321330845	2	1	NaN	4828129.0183688	NaN	4828130.0017699	4828130.51829488
42	99	99	1	90	36.1581920903955	36.241610738255	0	0	1	2	1	NaN	1	3	0.128039611147516	1	1	35	35	1	35	1	111	211	311	NaN	511	0.37143147457391	1	1	NaN	4828131.9519715	NaN	4828132.9353961	4828133.45192603
42	99	99	1	90	36.1581920903955	36.241610738255	0	0	1	3	1	NaN	1	5	0.116878972948804	1	1	36	36	1	36	1	111	211	311	NaN	511	0.313300075009465	1	1	NaN	4828134.8022571	NaN	4828135.7856742	4828136.30219362
42	99	99	1	90	36.1581920903955	36.241610738255	0	0	1	12	1	NaN	2	5	0.107693026569972	1	1	37	37	1	37	1	111	211	311	NaN	511	0.387669669464231	2	1	NaN	4828137.5358613	NaN	4828138.5192635	4828139.03582443
42	99	99	1	90	36.1581920903955	36.241610738255	0	0	1	1	1	NaN	1	4	0.100025286437265	1	1	38	38	1	38	1	111	211	311	NaN	511	0.346655511297286	1	1	NaN	4828140.3527159	NaN	4828141.3362535	4828141.85273459
42	99	99	1	90	36.1581920903955	36.241610738255	0	0	1	11	1	NaN	2	5	0.0935229906281552	1	1	39	39	1	39	1	111	211	311	NaN	511	0.499541516415775	2	1	NaN	4828143.1197557	NaN	4828144.1031515	4828144.61968458
42	99	99	1	90	36.1581920903955	36.241610738255	0	0	1	2	1	NaN	1	4	0.0879186615228742	1	1	40	40	1	40	1	111	211	311	NaN	511	0.310771374963224	1	1	NaN	4828146.0367128	NaN	4828147.0201165	4828147.53664292
42	99	99	1	90	36.1581920903955	36.241610738255	0	0	1	5	1	NaN	1	5	0.0830106080099429	1	1	41	41	1	41	1	111	211	311	NaN	511	0.305946364998817	1	1	NaN	4828148.7536284	NaN	4828149.7370338	4828150.25356384
42	99	99	1	90	36.1581920903955	36.241610738255	0	0	1	5	1	NaN	1	5	0.0786463167553529	1	1	42	42	1	42	1	111	211	311	NaN	511	0.0104930168017745	1	1	NaN	4828151.4872552	NaN	4828152.4706682	4828152.98716468
42	99	99	1	90	36.1581920903955	36.241610738255	0	0	1	1	1	NaN	1	3	0.0747094505200874	1	1	43	43	1	43	1	111	211	311	NaN	511	0.266671068966389	1	1	NaN	4828153.9208521	NaN	4828154.9042127	4828155.42073863
42	99	99	1	90	36.1581920903955	36.241610738255	0	0	1	11	1	NaN	2	3	0.0711100075240914	1	1	44	44	1	44	1	111	211	311	NaN	511	0.0104832695797086	2	1	NaN	4828156.5877557	NaN	4828157.5711392	4828158.08768103
42	99	99	1	90	36.1581920903955	36.241610738255	0	0	1	8	1	NaN	2	3	0.0677769382640651	1	1	45	45	1	45	1	111	211	311	NaN	511	0.0289002694189548	2	1	NaN	4828159.4546667	NaN	4828160.4380809	4828160.95463883
42	99	99	1	90	36.1581920903955	36.241610738255	0	0	1	7	1	NaN	2	4	0.0646525878419612	1	1	46	46	1	46	1	111	211	311	NaN	511	0.0425366368144751	2	1	NaN	4828161.9049338	NaN	4828162.8884138	4828163.40486316
42	99	99	1	90	36.1581920903955	36.241610738255	0	0	1	8	1	NaN	2	5	0.0616884945921791	1	1	47	47	1	47	1	111	211	311	NaN	511	0.0104997167363763	1	0	NaN	4828164.3718467	NaN	4828165.3552391	4828165.87177748
42	99	99	1	90	36.1581920903955	36.241610738255	0	0	1	4	1	NaN	1	3	0.0666544992788825	1	1	48	48	1	48	1	111	211	311	NaN	511	1.69490046426654	1	1	NaN	4828166.7887671	NaN	4828167.7721381	4828168.28867834
42	99	99	1	90	36.1581920903955	36.241610738255	0	0	1	9	1	NaN	2	3	0.0638671082546592	1	1	49	49	1	49	1	111	211	311	NaN	511	0.0104815224185586	2	1	NaN	4828170.9058269	NaN	4828171.8892367	4828172.40575388
42	99	99	1	90	36.1581920903955	36.241610738255	0	0	1	1	1	NaN	1	3	0.0612525779418197	1	1	50	50	1	50	1	111	211	311	NaN	511	0.432178221642971	1	1	NaN	4828173.339393	NaN	4828174.3227929	4828174.83931778
42	99	99	1	90	36.1581920903955	36.241610738255	0	0	1	6	1	NaN	1	3	0.0587828940601879	1	1	51	51	1	51	1	111	211	311	NaN	511	0.413618478924036	1	1	NaN	4828176.2063426	NaN	4828177.1897388	4828177.70626792
42	99	99	1	90	36.1581920903955	36.241610738255	0	0	1	12	1	NaN	2	5	0.0564345576612317	1	1	52	52	1	52	1	111	211	311	NaN	511	0.964578569866717	2	1	NaN	4828179.0232675	NaN	4828180.0066858	4828180.52323833
42	99	99	1	90	36.1581920903955	36.241610738255	0	0	1	3	1	NaN	1	3	0.0541872945582004	1	1	53	53	1	53	1	111	211	311	NaN	511	0.116683978587389	1	1	NaN	4828182.4069504	NaN	4828183.390346	4828183.90689072
42	99	99	1	90	36.1581920903955	36.241610738255	0	0	1	9	1	NaN	2	4	0.0520231424022773	1	1	54	54	1	54	1	111	211	311	NaN	511	0.0103196483105421	2	1	NaN	4828184.9405287	NaN	4828185.923926	4828186.44047615
42	99	99	1	90	36.1581920903955	36.241610738255	0	0	1	6	1	NaN	1	4	0.0499258659672419	1	1	55	55	1	55	1	111	211	311	NaN	511	0.83784192148596	1	1	NaN	4828187.3740919	NaN	4828188.3574991	4828188.87402848
42	99	99	1	90	36.1581920903955	36.241610738255	0	0	1	10	1	NaN	2	3	0.0478806768434428	1	1	56	56	1	56	1	111	211	311	NaN	511	0.0105129648000002	2	1	NaN	4828190.6243209	NaN	4828191.6078239	4828192.12435084
42	99	99	1	90	36.1581920903955	36.241610738255	0	0	1	3	1	NaN	1	4	0.0458742506321145	1	1	57	57	1	57	1	111	211	311	NaN	511	0.584698737598956	1	1	NaN	4828193.4745944	NaN	4828194.4581003	4828194.97464426
42	99	99	1	90	36.1581920903955	36.241610738255	0	0	1	9	1	NaN	2	4	0.0438950393447876	1	1	58	58	1	58	1	111	211	311	NaN	511	0.0651391167193651	2	1	NaN	4828196.4583246	NaN	4828197.4416265	4828197.95825498
42	99	99	1	90	36.1581920903955	36.241610738255	0	0	1	5	1	NaN	1	5	0.0419338624525106	1	1	59	59	1	59	1	111	211	311	NaN	511	0.765695616602898	1	1	NaN	4828198.9419025	NaN	4828199.9252921	4828200.44183638
42	99	99	1	90	36.1581920903955	36.241610738255	0	0	1	4	1	NaN	1	4	0.0399847194546083	1	1	60	60	1	60	1	111	211	311	NaN	511	0.428645089268684	1	1	NaN	4828202.1588679	NaN	4828203.1422886	4828203.65882841
42	99	99	1	90	36.1581920903955	36.241610738255	0	0	1	12	1	NaN	2	3	0.0380456971788197	1	1	61	61	1	61	1	111	211	311	NaN	511	0.0104812690988183	1	0	NaN	4828205.0091685	NaN	4828205.9926327	4828206.50910843
42	99	99	1	90	36.1581920903955	36.241610738255	0	0	1	9	1	NaN	2	3	0.0414417306785735	1	1	62	62	1	62	1	111	211	311	NaN	511	0.488668437115848	1	0	NaN	4828207.8427746	NaN	4828208.8261626	4828209.34274356
42	99	99	1	90	36.1581920903955	36.241610738255	0	0	1	10	1	NaN	2	3	0.0444830084841863	1	1	63	63	1	63	1	111	211	311	NaN	511	0.0104213794693351	1	0	NaN	4828210.7430588	NaN	4828211.7264673	4828212.24300682
42	99	99	1	90	36.1581920903955	36.241610738255	0	0	1	2	1	NaN	1	3	0.0473333014346155	1	1	64	64	1	64	1	111	211	311	NaN	511	0.0189143167808652	2	0	NaN	4828213.1766523	NaN	4828214.1600431	4828214.67658728
42	99	99	1	90	36.1581920903955	36.241610738255	0	0	1	12	1	NaN	2	5	0.0501130915705165	1	1	65	65	1	65	1	111	211	311	NaN	511	0.473353526555002	1	0	NaN	4828215.6102151	NaN	4828216.5936351	4828217.11014757
42	99	99	1	90	36.1581920903955	36.241610738255	0	0	1	7	1	NaN	2	3	0.0529066450829013	1	1	66	66	1	66	1	111	211	311	NaN	511	0.493358516134322	2	1	NaN	4828218.5104901	NaN	4828219.4939192	4828220.01042518
42	99	99	1	90	36.1581920903955	36.241610738255	0	0	1	5	1	NaN	1	3	0.0511896982748568	1	1	67	67	1	67	1	111	211	311	NaN	511	0.0104922698810697	1	1	NaN	4828221.4274569	NaN	4828222.4108575	4828222.92738283
42	99	99	1	90	36.1581920903955	36.241610738255	0	0	1	7	1	NaN	2	3	0.0495589169068424	1	1	68	68	1	68	1	111	211	311	NaN	511	0.51871532201767	2	1	NaN	4828223.8610243	NaN	4828224.8444307	4828225.36095728
42	99	99	1	90	36.1581920903955	36.241610738255	0	0	1	4	1	NaN	1	5	0.0480067093749441	1	1	69	69	1	69	1	111	211	311	NaN	511	0.505668226629496	1	1	NaN	4828226.7779683	NaN	4828227.7613579	4828228.27790697
42	99	99	1	90	36.1581920903955	36.241610738255	0	0	1	12	1	NaN	2	3	0.046526360526024	1	1	70	70	1	70	1	111	211	311	NaN	511	0.660613269545138	2	1	NaN	4828229.6949315	NaN	4828230.678345	4828231.19486253
42	99	99	1	90	36.1581920903955	36.241610738255	0	0	1	4	1	NaN	1	4	0.0451119007334405	1	1	71	71	1	71	1	111	211	311	NaN	511	0.0104699209332466	1	1	NaN	4828232.7617883	NaN	4828233.7452967	4828234.26183268
42	99	99	1	90	36.1581920903955	36.241610738255	0	0	1	6	1	NaN	1	4	0.0437580180656975	1	1	72	72	1	72	1	111	211	311	NaN	511	0.440691869705915	1	1	NaN	4828235.1788043	NaN	4828236.1621702	4828236.67874453
