subjno	age	gender	isPractice	viewdist	CmToPixX	CmToPixY	SOA_frm	SOA_time	targNum	targID	targExample	targRace	targGender	firstTargPos	contrast	familiarity	curr_staircase	iStair	TrialNum	BlockNum	blktrl	sessionNum	TC_FIXATION	TC_RSVP_START	TC_RSVP_END	TC_BLANK	TC_RESPONSE_ONSET	RT2afc	resp_2afc	acc	RSVPOnsetVBL	RSVPOnsetTime	RSVPOffsetVBL	RSVPOffsetTime	startrt_2afc
26	18	1	0	90	36.1581920903955	36.241610738255	9	0.300028751995415	2	1	2	NaN	1	3	0.0885331980424789	0	1	NaN	1	1	1	2	120	220	320	NaN	520	0.489630978787318	1	1	NaN	1720276.3966501	NaN	1720277.3799806	1720277.91304902
26	18	1	0	90	36.1581920903955	36.241610738255	14	0.466711391992867	2	3	4	NaN	1	4	0.0885331980424789	0	1	NaN	2	1	2	2	120	220	320	NaN	520	0.58220267877914	1	1	NaN	1720279.2635251	NaN	1720280.2468578	1720280.78000322
26	18	1	0	90	36.1581920903955	36.241610738255	16	0.533384447991848	2	4	1	NaN	1	5	0.0885331980424789	0	1	NaN	3	1	3	2	120	220	320	NaN	520	0.0104352748021483	1	1	NaN	1720282.180237	NaN	1720283.1637265	1720283.69695093
26	18	1	0	90	36.1581920903955	36.241610738255	11	0.366701807994396	2	11	2	NaN	2	5	0.0885331980424789	0	1	NaN	4	1	4	2	120	220	320	NaN	520	0.107741122599691	2	1	NaN	1720284.5305699	NaN	1720285.5139639	1720286.03051228
26	18	1	0	90	36.1581920903955	36.241610738255	10	0.333365279994905	2	10	1	NaN	2	5	0.0885331980424789	0	1	NaN	5	1	5	2	120	220	320	NaN	520	1.36246697464958	2	1	NaN	1720286.9641693	NaN	1720287.9475408	1720288.46408653
26	18	1	0	90	36.1581920903955	36.241610738255	15	0.500047919992358	2	8	6	NaN	2	4	0.0885331980424789	0	1	NaN	6	1	6	2	120	220	320	NaN	520	1.04658862249926	2	1	NaN	1720290.6476983	NaN	1720291.6312297	1720292.14778138
26	18	1	0	90	36.1581920903955	36.241610738255	18	0.600057503990829	2	10	1	NaN	2	3	0.0885331980424789	0	1	NaN	7	1	7	2	120	220	320	NaN	520	0.167439922457561	2	1	NaN	1720294.0148399	NaN	1720294.9982301	1720295.51478168
26	18	1	0	90	36.1581920903955	36.241610738255	13	0.433374863993377	2	3	4	NaN	1	3	0.0885331980424789	0	1	NaN	8	1	8	2	120	220	320	NaN	520	0.131930026691407	1	1	NaN	1720296.4984062	NaN	1720297.4817948	1720297.99835817
26	18	1	0	90	36.1581920903955	36.241610738255	15	0.500047919992358	2	5	6	NaN	1	5	0.0885331980424789	0	1	NaN	9	1	9	2	120	220	320	NaN	520	1.73750822246075	1	1	NaN	1720298.9485356	NaN	1720299.9320451	1720300.44859228
26	18	1	0	90	36.1581920903955	36.241610738255	20	0.66673055998981	2	8	1	NaN	2	5	0.0885331980424789	0	1	NaN	10	1	10	2	120	220	320	NaN	520	0.0952949787024409	2	1	NaN	1720302.9990497	NaN	1720303.982438	1720304.49899402
26	18	1	0	90	36.1581920903955	36.241610738255	6	0.200019167996943	2	3	3	NaN	1	3	0.0885331980424789	0	1	NaN	11	1	11	2	120	220	320	NaN	520	0.0104055746924132	1	1	NaN	1720305.4159421	NaN	1720306.3993338	1720306.91589353
26	18	1	0	90	36.1581920903955	36.241610738255	14	0.466711391992867	2	5	2	NaN	1	5	0.0885331980424789	0	1	NaN	12	1	12	2	120	220	320	NaN	520	0.256701678736135	1	1	NaN	1720307.7495097	NaN	1720308.7329098	1720309.24946282
26	18	1	0	90	36.1581920903955	36.241610738255	15	0.500047919992358	2	9	6	NaN	2	5	0.0885331980424789	0	1	NaN	13	1	13	2	120	220	320	NaN	520	0.265607974492013	2	1	NaN	1720310.3162941	NaN	1720311.2998319	1720311.81637473
26	18	1	0	90	36.1581920903955	36.241610738255	11	0.366701807994396	2	2	6	NaN	1	4	0.0885331980424789	0	1	NaN	14	1	14	2	120	220	320	NaN	520	0.690230774693191	1	1	NaN	1720312.900082	NaN	1720313.8834149	1720314.39995913
26	18	1	0	90	36.1581920903955	36.241610738255	22	0.733403615988791	2	7	6	NaN	2	5	0.0885331980424789	0	1	NaN	15	1	15	2	120	220	320	NaN	520	0.225135074695572	2	1	NaN	1720315.9169755	NaN	1720316.9003913	1720317.41692633
26	18	1	0	90	36.1581920903955	36.241610738255	9	0.300028751995415	2	12	4	NaN	2	3	0.0885331980424789	0	1	NaN	16	1	16	2	120	220	320	NaN	520	0.371157174697146	2	1	NaN	1720318.4672789	NaN	1720319.4506173	1720319.96717173
26	18	1	0	90	36.1581920903955	36.241610738255	12	0.400038335993886	2	2	5	NaN	1	4	0.0885331980424789	0	1	NaN	17	1	17	2	120	220	320	NaN	520	0.0104022745508701	2	0	NaN	1720321.1675027	NaN	1720322.1508993	1720322.66744143
26	18	1	0	90	36.1581920903955	36.241610738255	13	0.433374863993377	2	10	5	NaN	2	4	0.0885331980424789	0	1	NaN	18	1	18	2	120	220	320	NaN	520	0.257145274663344	1	0	NaN	1720323.5010124	NaN	1720324.4844523	1720325.00100773
26	18	1	0	90	36.1581920903955	36.241610738255	10	0.333365279994905	2	11	6	NaN	2	3	0.0885331980424789	0	1	NaN	19	1	19	2	120	220	320	NaN	520	0.377653274685144	2	1	NaN	1720326.0846345	NaN	1720327.0680472	1720327.58458333
26	18	1	0	90	36.1581920903955	36.241610738255	6	0.200019167996943	2	12	4	NaN	2	4	0.0885331980424789	0	1	NaN	20	1	20	2	120	220	320	NaN	520	0.0612959139980376	1	0	NaN	1720328.7849217	NaN	1720329.768355	1720330.28485349
26	18	1	0	90	36.1581920903955	36.241610738255	11	0.366701807994396	2	4	5	NaN	1	3	0.0885331980424789	0	1	NaN	21	1	21	2	120	220	320	NaN	520	0.949732474749908	1	1	NaN	1720331.1684774	NaN	1720332.1518891	1720332.66842193
26	18	1	0	90	36.1581920903955	36.241610738255	23	0.766740143988281	2	8	6	NaN	2	3	0.0885331980424789	0	1	NaN	22	1	22	2	120	220	320	NaN	520	0.274799126666039	2	1	NaN	1720334.4354723	NaN	1720335.4188648	1720335.93541527
26	18	1	0	90	36.1581920903955	36.241610738255	23	0.766740143988281	2	11	4	NaN	2	4	0.0885331980424789	0	1	NaN	23	1	23	2	120	220	320	NaN	520	0.250725974561647	2	1	NaN	1720337.0357186	NaN	1720338.0191275	1720338.53566553
26	18	1	0	90	36.1581920903955	36.241610738255	10	0.333365279994905	2	1	5	NaN	1	5	0.0885331980424789	0	1	NaN	24	1	24	2	120	220	320	NaN	520	0.0517112747766078	1	1	NaN	1720339.6026424	NaN	1720340.5860504	1720341.10258853
26	18	1	0	90	36.1581920903955	36.241610738255	22	0.733403615988791	2	4	5	NaN	1	3	0.0885331980424789	0	1	NaN	25	1	25	2	120	220	320	NaN	520	3.10870058322325	1	1	NaN	1720341.9694028	NaN	1720342.9529472	1720343.46948292
26	18	1	0	90	36.1581920903955	36.241610738255	23	0.766740143988281	2	4	3	NaN	1	5	0.0885331980424789	0	1	NaN	26	1	26	2	120	220	320	NaN	520	0.282927274703979	1	1	NaN	1720347.4034246	NaN	1720348.3868094	1720348.90334243
26	18	1	0	90	36.1581920903955	36.241610738255	21	0.700067087989301	2	11	5	NaN	2	5	0.0885331980424789	0	1	NaN	27	1	27	2	120	220	320	NaN	520	0.226960274623707	2	1	NaN	1720350.0035181	NaN	1720350.9870571	1720351.50360743
26	18	1	0	90	36.1581920903955	36.241610738255	11	0.366701807994396	2	11	3	NaN	2	3	0.0885331980424789	0	1	NaN	28	1	28	2	120	220	320	NaN	520	0.796671526972204	2	1	NaN	1720352.5538025	NaN	1720353.5373071	1720354.05386097
26	18	1	0	90	36.1581920903955	36.241610738255	17	0.566720975991339	2	1	1	NaN	1	3	0.0885331980424789	0	1	NaN	29	1	29	2	120	220	320	NaN	520	0.0104140746407211	1	1	NaN	1720355.6708801	NaN	1720356.6542628	1720357.17082743
26	18	1	0	90	36.1581920903955	36.241610738255	15	0.500047919992358	2	5	1	NaN	1	3	0.0885331980424789	0	1	NaN	30	1	30	2	120	220	320	NaN	520	0.30589889572002	1	1	NaN	1720358.00432	NaN	1720358.9878863	1720359.504393
26	18	1	0	90	36.1581920903955	36.241610738255	23	0.766740143988281	2	12	5	NaN	2	3	0.0885331980424789	0	1	NaN	31	1	31	2	120	220	320	NaN	520	0.312316983006895	1	0	NaN	1720360.6380297	NaN	1720361.6214383	1720362.13798092
26	18	1	0	90	36.1581920903955	36.241610738255	15	0.500047919992358	2	7	3	NaN	2	3	0.0885331980424789	0	1	NaN	32	1	32	2	120	220	320	NaN	520	2.23101562680677	2	1	NaN	1720363.2716383	NaN	1720364.2550295	1720364.77157767
26	18	1	0	90	36.1581920903955	36.241610738255	17	0.566720975991339	2	3	6	NaN	1	5	0.0885331980424789	0	1	NaN	33	1	33	2	120	220	320	NaN	520	0.525183822494	1	1	NaN	1720368.1052958	NaN	1720369.0888433	1720369.60537598
26	18	1	0	90	36.1581920903955	36.241610738255	9	0.300028751995415	2	7	2	NaN	2	3	0.0885331980424789	0	1	NaN	34	1	34	2	120	220	320	NaN	520	0.594620091607794	2	1	NaN	1720370.9557287	NaN	1720371.9391092	1720372.45566461
26	18	1	0	90	36.1581920903955	36.241610738255	15	0.500047919992358	2	8	6	NaN	2	4	0.0885331980424789	0	1	NaN	35	1	35	2	120	220	320	NaN	520	0.0104246223345399	2	1	NaN	1720373.8726514	NaN	1720374.8560712	1720375.37260598
26	18	1	0	90	36.1581920903955	36.241610738255	20	0.66673055998981	2	7	1	NaN	2	4	0.0885331980424789	0	1	NaN	36	1	36	2	120	220	320	NaN	520	0.776434143539518	2	1	NaN	1720376.2062392	NaN	1720377.1896287	1720377.70619556
26	18	1	0	90	36.1581920903955	36.241610738255	15	0.500047919992358	2	10	4	NaN	2	5	0.0885331980424789	0	1	NaN	37	1	37	2	120	220	320	NaN	520	1.17995217465796	2	1	NaN	1720379.3065278	NaN	1720380.2899333	1720380.80648383
26	18	1	0	90	36.1581920903955	36.241610738255	7	0.233355695996434	2	9	2	NaN	2	3	0.0885331980424789	0	1	NaN	38	1	38	2	120	220	320	NaN	520	0.104103674646467	2	1	NaN	1720382.7902272	NaN	1720383.7736066	1720384.29015403
26	18	1	0	90	36.1581920903955	36.241610738255	18	0.600057503990829	2	2	6	NaN	1	5	0.0885331980424789	0	1	NaN	39	1	39	2	120	220	320	NaN	520	0.319564022356644	2	0	NaN	1720385.2071089	NaN	1720386.1905172	1720386.70706038
26	18	1	0	90	36.1581920903955	36.241610738255	25	0.833413199987263	2	3	6	NaN	1	4	0.0885331980424789	0	1	NaN	40	1	40	2	120	220	320	NaN	520	1.34965272247791	2	0	NaN	1720387.8406948	NaN	1720388.8241037	1720389.34064918
26	18	1	0	90	36.1581920903955	36.241610738255	9	0.300028751995415	2	4	2	NaN	1	4	0.0885331980424789	0	1	NaN	41	1	41	2	120	220	320	NaN	520	0.0104125747457147	1	1	NaN	1720391.5075832	NaN	1720392.4911335	1720393.00767123
26	18	1	0	90	36.1581920903955	36.241610738255	12	0.400038335993886	2	12	3	NaN	2	5	0.0885331980424789	0	1	NaN	42	1	42	2	120	220	320	NaN	520	0.0103603873867542	2	1	NaN	1720393.8244809	NaN	1720394.808028	1720395.32458161
26	18	1	0	90	36.1581920903955	36.241610738255	25	0.833413199987263	2	12	5	NaN	2	4	0.0885331980424789	0	1	NaN	43	1	43	2	120	220	320	NaN	520	0.391999043524265	1	0	NaN	1720396.158179	NaN	1720397.1415905	1720397.65814556
26	18	1	0	90	36.1581920903955	36.241610738255	20	0.66673055998981	2	1	5	NaN	1	4	0.0885331980424789	0	1	NaN	44	1	44	2	120	220	320	NaN	520	0.259937826776877	2	0	NaN	1720398.8584513	NaN	1720399.8418549	1720400.35840367
26	18	1	0	90	36.1581920903955	36.241610738255	11	0.366701807994396	2	8	4	NaN	2	3	0.0885331980424789	0	1	NaN	45	1	45	2	120	220	320	NaN	520	0.0104070745874196	2	1	NaN	1720401.4253718	NaN	1720402.4087776	1720402.92531913
26	18	1	0	90	36.1581920903955	36.241610738255	15	0.500047919992358	2	12	3	NaN	2	5	0.0885331980424789	0	1	NaN	46	1	46	2	120	220	320	NaN	520	0.11944147455506	2	1	NaN	1720403.7589209	NaN	1720404.7423393	1720405.25887853
26	18	1	0	90	36.1581920903955	36.241610738255	15	0.500047919992358	2	6	4	NaN	1	3	0.0885331980424789	0	1	NaN	47	1	47	2	120	220	320	NaN	520	0.109958822373301	1	1	NaN	1720406.1925052	NaN	1720407.1759313	1720407.69244518
26	18	1	0	90	36.1581920903955	36.241610738255	25	0.833413199987263	2	2	4	NaN	1	4	0.0885331980424789	0	1	NaN	48	1	48	2	120	220	320	NaN	520	0.0104018745478243	1	1	NaN	1720408.6092685	NaN	1720409.5928086	1720410.10935693
26	18	1	0	90	36.1581920903955	36.241610738255	11	0.366701807994396	2	2	2	NaN	1	5	0.0885331980424789	0	1	NaN	49	1	49	2	120	220	320	NaN	520	0.0104139745235443	1	1	NaN	1720410.9263133	NaN	1720411.9097029	1720412.42625263
26	18	1	0	90	36.1581920903955	36.241610738255	11	0.366701807994396	2	8	5	NaN	2	5	0.0885331980424789	0	1	NaN	50	1	50	2	120	220	320	NaN	520	0.315009622368962	2	1	NaN	1720413.2431987	NaN	1720414.2266088	1720414.74314298
26	18	1	0	90	36.1581920903955	36.241610738255	22	0.733403615988791	2	8	1	NaN	2	5	0.0885331980424789	0	1	NaN	51	1	51	2	120	220	320	NaN	520	0.209743874613196	2	1	NaN	1720415.8767915	NaN	1720416.8601814	1720417.37673843
26	18	1	0	90	36.1581920903955	36.241610738255	9	0.300028751995415	2	9	5	NaN	2	3	0.0885331980424789	0	1	NaN	52	1	52	2	120	220	320	NaN	520	0.340828626649454	2	1	NaN	1720418.3937363	NaN	1720419.3771088	1720419.89365777
26	18	1	0	90	36.1581920903955	36.241610738255	13	0.433374863993377	2	4	6	NaN	1	3	0.0885331980424789	0	1	NaN	53	1	53	2	120	220	320	NaN	520	0.0903563224710524	1	1	NaN	1720421.0439682	NaN	1720422.0273683	1720422.54390938
26	18	1	0	90	36.1581920903955	36.241610738255	24	0.800076671987772	2	11	4	NaN	2	3	0.0885331980424789	0	1	NaN	54	1	54	2	120	220	320	NaN	520	1.44221642240882	2	1	NaN	1720423.4441999	NaN	1720424.4275953	1720424.94414438
26	18	1	0	90	36.1581920903955	36.241610738255	16	0.533384447991848	2	7	2	NaN	2	5	0.0885331980424789	0	1	NaN	55	1	55	2	120	220	320	NaN	520	0.0104167747776955	2	1	NaN	1720427.1944386	NaN	1720428.1779688	1720428.69451563
26	18	1	0	90	36.1581920903955	36.241610738255	11	0.366701807994396	2	7	2	NaN	2	4	0.0885331980424789	0	1	NaN	56	1	56	2	120	220	320	NaN	520	1.51907182252035	2	1	NaN	1720429.5114826	NaN	1720430.4948592	1720431.01140778
26	18	1	0	90	36.1581920903955	36.241610738255	19	0.63339403199032	2	2	1	NaN	1	4	0.0885331980424789	0	1	NaN	57	1	57	2	120	220	320	NaN	520	0.317281287396327	1	1	NaN	1720433.3451838	NaN	1720434.3285594	1720434.84512171
26	18	1	0	90	36.1581920903955	36.241610738255	16	0.533384447991848	2	10	3	NaN	2	5	0.0885331980424789	0	1	NaN	58	1	58	2	120	220	320	NaN	520	0.335728030884638	2	1	NaN	1720436.0787839	NaN	1720437.0621698	1720437.57871597
26	18	1	0	90	36.1581920903955	36.241610738255	7	0.233355695996434	2	1	1	NaN	1	3	0.0885331980424789	0	1	NaN	59	1	59	2	120	220	320	NaN	520	0.24543462251313	1	1	NaN	1720438.7290324	NaN	1720439.7124346	1720440.22898058
26	18	1	0	90	36.1581920903955	36.241610738255	15	0.500047919992358	2	3	3	NaN	1	5	0.0885331980424789	0	1	NaN	60	1	60	2	120	220	320	NaN	520	1.8070118308533	1	1	NaN	1720441.2791571	NaN	1720442.2628025	1720442.77923067
26	18	1	0	90	36.1581920903955	36.241610738255	20	0.66673055998981	2	7	4	NaN	2	5	0.0885331980424789	0	1	NaN	61	1	61	2	120	220	320	NaN	520	0.217666122596711	2	1	NaN	1720445.4130241	NaN	1720446.3964228	1720446.91296528
26	18	1	0	90	36.1581920903955	36.241610738255	24	0.800076671987772	2	5	1	NaN	1	5	0.0885331980424789	0	1	NaN	62	1	62	2	120	220	320	NaN	520	3.03573002689518	1	1	NaN	1720447.9466207	NaN	1720448.930026	1720449.44655947
26	18	1	0	90	36.1581920903955	36.241610738255	13	0.433374863993377	2	1	3	NaN	1	5	0.0885331980424789	0	1	NaN	63	1	63	2	120	220	320	NaN	520	1.6526980267372	1	1	NaN	1720453.3137973	NaN	1720454.2972097	1720454.81375007
26	18	1	0	90	36.1581920903955	36.241610738255	9	0.300028751995415	2	5	1	NaN	1	3	0.0885331980424789	0	1	NaN	64	2	1	2	120	220	320	NaN	520	1.14543977472931	1	1	NaN	1720464.3647626	NaN	1720465.3482917	1720465.86483783
26	18	1	0	90	36.1581920903955	36.241610738255	15	0.500047919992358	2	6	4	NaN	1	5	0.0885331980424789	0	1	NaN	65	2	2	2	120	220	320	NaN	520	0.78287237463519	1	1	NaN	1720467.8318973	NaN	1720468.8152912	1720469.33182983
26	18	1	0	90	36.1581920903955	36.241610738255	18	0.600057503990829	2	10	1	NaN	2	3	0.0885331980424789	0	1	NaN	66	2	3	2	120	220	320	NaN	520	0.0422962745651603	2	1	NaN	1720470.9322029	NaN	1720471.9155893	1720472.43214123
26	18	1	0	90	36.1581920903955	36.241610738255	11	0.366701807994396	2	4	3	NaN	1	3	0.0885331980424789	0	1	NaN	67	2	4	2	120	220	320	NaN	520	0.47604922670871	1	1	NaN	1720473.2824311	NaN	1720474.2658084	1720474.78237937
26	18	1	0	90	36.1581920903955	36.241610738255	10	0.333365279994905	2	12	3	NaN	2	3	0.0885331980424789	0	1	NaN	68	2	5	2	120	220	320	NaN	520	0.300447626737878	2	1	NaN	1720476.0659085	NaN	1720477.0494382	1720477.56598517
26	18	1	0	90	36.1581920903955	36.241610738255	22	0.733403615988791	2	7	3	NaN	2	4	0.0885331980424789	0	1	NaN	69	2	6	2	120	220	320	NaN	520	0.427796626929194	1	0	NaN	1720478.6829513	NaN	1720479.6663526	1720480.18290777
26	18	1	0	90	36.1581920903955	36.241610738255	13	0.433374863993377	2	11	3	NaN	2	3	0.0885331980424789	0	1	NaN	70	2	7	2	120	220	320	NaN	520	0.0104050745721906	2	1	NaN	1720481.4165464	NaN	1720482.3999675	1720482.91650123
26	18	1	0	90	36.1581920903955	36.241610738255	21	0.700067087989301	2	2	1	NaN	1	3	0.0885331980424789	0	1	NaN	71	2	8	2	120	220	320	NaN	520	0.0103878267109394	2	0	NaN	1720483.7334579	NaN	1720484.7168503	1720485.23340157
26	18	1	0	90	36.1581920903955	36.241610738255	13	0.433374863993377	2	5	5	NaN	1	4	0.0885331980424789	0	1	NaN	72	2	9	2	120	220	320	NaN	520	0.0104031746741384	1	1	NaN	1720486.0503385	NaN	1720487.0337457	1720487.55028563
26	18	1	0	90	36.1581920903955	36.241610738255	17	0.566720975991339	2	2	1	NaN	1	3	0.0885331980424789	0	1	NaN	73	2	10	2	120	220	320	NaN	520	0.222628726856783	2	0	NaN	1720488.3839144	NaN	1720489.3673047	1720489.88385587
26	18	1	0	90	36.1581920903955	36.241610738255	0	0	1	8	4	NaN	2	5	0.0885331980424789	0	1	NaN	74	2	11	2	110	210	310	NaN	510	0.0104091744869947	2	1	NaN	1720490.9175377	NaN	1720491.9008895	1720492.41743933
26	18	1	0	90	36.1581920903955	36.241610738255	6	0.200019167996943	2	8	3	NaN	2	3	0.0885331980424789	0	1	NaN	75	2	12	2	120	220	320	NaN	520	1.30793748307042	2	1	NaN	1720493.2343942	NaN	1720494.2176735	1720494.73433602
26	18	1	0	90	36.1581920903955	36.241610738255	18	0.600057503990829	2	4	3	NaN	1	5	0.0885331980424789	0	1	NaN	76	2	13	2	120	220	320	NaN	520	0.370472174603492	1	1	NaN	1720496.8680707	NaN	1720497.85148	1720498.36802453
26	18	1	0	90	36.1581920903955	36.241610738255	7	0.233355695996434	2	2	3	NaN	1	5	0.0885331980424789	0	1	NaN	77	2	14	2	120	220	320	NaN	520	0.598658926784992	1	1	NaN	1720499.551667	NaN	1720500.5350694	1720501.05161997
26	18	1	0	90	36.1581920903955	36.241610738255	12	0.400038335993886	2	5	5	NaN	1	3	0.0885331980424789	0	1	NaN	78	2	15	2	120	220	320	NaN	520	0.393700439482927	1	1	NaN	1720502.4685371	NaN	1720503.4520169	1720503.96856916
26	18	1	0	90	36.1581920903955	36.241610738255	7	0.233355695996434	2	2	1	NaN	1	3	0.0885331980424789	0	1	NaN	79	2	16	2	120	220	320	NaN	520	0.541079878574237	2	0	NaN	1720505.1855672	NaN	1720506.1689531	1720506.68550882
26	18	1	0	90	36.1581920903955	36.241610738255	17	0.566720975991339	2	10	2	NaN	2	5	0.0885331980424789	0	1	NaN	80	2	17	2	120	220	320	NaN	520	0.0587619268335402	2	1	NaN	1720508.0358386	NaN	1720509.0192304	1720509.53578527
26	18	1	0	90	36.1581920903955	36.241610738255	17	0.566720975991339	2	4	5	NaN	1	5	0.0885331980424789	0	1	NaN	81	2	18	2	120	220	320	NaN	520	0.0198498747777194	1	1	NaN	1720510.4027365	NaN	1720511.386136	1720511.90268013
26	18	1	0	90	36.1581920903955	36.241610738255	18	0.600057503990829	2	12	3	NaN	2	4	0.0885331980424789	0	1	NaN	82	2	19	2	120	220	320	NaN	520	0.0103884267155081	2	1	NaN	1720512.7362908	NaN	1720513.7196749	1720514.23624677
26	18	1	0	90	36.1581920903955	36.241610738255	25	0.833413199987263	2	8	1	NaN	2	3	0.0885331980424789	0	1	NaN	83	2	20	2	120	220	320	NaN	520	0.0103130396455526	2	1	NaN	1720515.0698694	NaN	1720516.0532673	1720516.56980736
26	18	1	0	90	36.1581920903955	36.241610738255	12	0.400038335993886	2	5	6	NaN	1	4	0.0885331980424789	0	1	NaN	84	2	21	2	120	220	320	NaN	520	1.73154487460852	1	1	NaN	1720517.3867606	NaN	1720518.3701584	1720518.88670103
26	18	1	0	90	36.1581920903955	36.241610738255	25	0.833413199987263	2	7	4	NaN	2	5	0.0885331980424789	0	1	NaN	85	2	22	2	120	220	320	NaN	520	0.169183526886627	1	0	NaN	1720521.4371563	NaN	1720522.420551	1720522.93710267
26	18	1	0	90	36.1581920903955	36.241610738255	19	0.63339403199032	2	5	6	NaN	1	5	0.0885331980424789	0	1	NaN	86	2	23	2	120	220	320	NaN	520	0.0104089747183025	1	1	NaN	1720523.9207385	NaN	1720524.904129	1720525.42067863
26	18	1	0	90	36.1581920903955	36.241610738255	18	0.600057503990829	2	3	6	NaN	1	4	0.0885331980424789	0	1	NaN	87	2	24	2	120	220	320	NaN	520	0.0103894269559532	1	1	NaN	1720526.2542911	NaN	1720527.237686	1720527.75423837
26	18	1	0	90	36.1581920903955	36.241610738255	17	0.566720975991339	2	5	1	NaN	1	3	0.0885331980424789	0	1	NaN	88	2	25	2	120	220	320	NaN	520	0.995419922517613	2	0	NaN	1720528.5711376	NaN	1720529.5545878	1720530.07112618
26	18	1	0	90	36.1581920903955	36.241610738255	9	0.300028751995415	2	2	2	NaN	1	5	0.0885331980424789	0	1	NaN	89	2	26	2	120	220	320	NaN	520	0.0784397746901959	1	1	NaN	1720531.8882519	NaN	1720532.8714722	1720533.38812173
26	18	1	0	90	36.1581920903955	36.241610738255	21	0.700067087989301	2	7	6	NaN	2	3	0.0885331980424789	0	1	NaN	90	2	27	2	120	220	320	NaN	520	0.0104995619039983	1	0	NaN	1720534.288422	NaN	1720535.2718188	1720535.78836414
26	18	1	0	90	36.1581920903955	36.241610738255	23	0.766740143988281	2	1	3	NaN	1	3	0.0885331980424789	0	1	NaN	91	2	28	2	120	220	320	NaN	520	0.240723874652758	1	1	NaN	1720536.6220048	NaN	1720537.6053897	1720538.12192233
26	18	1	0	90	36.1581920903955	36.241610738255	11	0.366701807994396	2	12	2	NaN	2	5	0.0885331980424789	0	1	NaN	92	2	29	2	120	220	320	NaN	520	0.0584769744891673	2	1	NaN	1720539.1722262	NaN	1720540.1556349	1720540.67217693
26	18	1	0	90	36.1581920903955	36.241610738255	16	0.533384447991848	2	3	4	NaN	1	5	0.0885331980424789	0	1	NaN	93	2	30	2	120	220	320	NaN	520	0.0104031746741384	1	1	NaN	1720541.5391402	NaN	1720542.5224686	1720543.03907683
26	18	1	0	90	36.1581920903955	36.241610738255	20	0.66673055998981	2	2	2	NaN	1	5	0.0885331980424789	0	1	NaN	94	2	31	2	120	220	320	NaN	520	1.3105214224197	1	1	NaN	1720543.8558884	NaN	1720544.8394264	1720545.35596498
26	18	1	0	90	36.1581920903955	36.241610738255	25	0.833413199987263	2	4	3	NaN	1	5	0.0885331980424789	0	1	NaN	95	2	32	2	120	220	320	NaN	520	0.0104211224243045	1	1	NaN	1720547.4730056	NaN	1720548.456441	1720548.97298218
26	18	1	0	90	36.1581920903955	36.241610738255	0	0	1	10	2	NaN	2	3	0.0885331980424789	0	1	NaN	96	2	33	2	110	210	310	NaN	510	0.0104318226221949	1	0	NaN	1720549.7898953	NaN	1720550.773338	1720551.28987538
26	18	1	0	90	36.1581920903955	36.241610738255	14	0.466711391992867	2	12	6	NaN	2	4	0.0885331980424789	0	1	NaN	97	2	34	2	120	220	320	NaN	520	0.0103722787462175	2	1	NaN	1720552.1067122	NaN	1720553.0902305	1720553.60678252
26	18	1	0	90	36.1581920903955	36.241610738255	12	0.400038335993886	2	3	2	NaN	1	4	0.0885331980424789	0	1	NaN	98	2	35	2	120	220	320	NaN	520	0.0104243226815015	1	1	NaN	1720554.4237191	NaN	1720555.4071242	1720555.92367758
26	18	1	0	90	36.1581920903955	36.241610738255	14	0.466711391992867	2	11	5	NaN	2	5	0.0885331980424789	0	1	NaN	99	2	36	2	120	220	320	NaN	520	1.25723082665354	2	1	NaN	1720556.7573	NaN	1720557.7406825	1720558.25723867
26	18	1	0	90	36.1581920903955	36.241610738255	13	0.433374863993377	2	2	4	NaN	1	4	0.0885331980424789	0	1	NaN	100	2	37	2	120	220	320	NaN	520	0.0824475747067481	1	1	NaN	1720560.3242949	NaN	1720561.307712	1720561.82425313
26	18	1	0	90	36.1581920903955	36.241610738255	17	0.566720975991339	2	10	5	NaN	2	4	0.0885331980424789	0	1	NaN	101	2	38	2	120	220	320	NaN	520	0.0104054745752364	1	0	NaN	1720562.7245498	NaN	1720563.707941	1720564.22448083
26	18	1	0	90	36.1581920903955	36.241610738255	21	0.700067087989301	2	2	6	NaN	1	5	0.0885331980424789	0	1	NaN	102	2	39	2	120	220	320	NaN	520	0.204762222478166	2	0	NaN	1720565.0580071	NaN	1720566.0415038	1720566.55804538
26	18	1	0	90	36.1581920903955	36.241610738255	21	0.700067087989301	2	4	5	NaN	1	4	0.0885331980424789	0	1	NaN	103	2	40	2	120	220	320	NaN	520	1.03171247476712	1	1	NaN	1720567.5750175	NaN	1720568.5584162	1720569.07496903
26	18	1	0	90	36.1581920903955	36.241610738255	22	0.733403615988791	2	3	1	NaN	1	5	0.0885331980424789	0	1	NaN	104	2	41	2	120	220	320	NaN	520	0.0104220744688064	2	0	NaN	1720570.9253422	NaN	1720571.908745	1720572.42529033
26	18	1	0	90	36.1581920903955	36.241610738255	6	0.200019167996943	2	8	2	NaN	2	5	0.0885331980424789	0	1	NaN	105	2	42	2	120	220	320	NaN	520	0.203754139598459	1	0	NaN	1720573.2589196	NaN	1720574.2423041	1720574.75885566
26	18	1	0	90	36.1581920903955	36.241610738255	7	0.233355695996434	2	4	4	NaN	1	5	0.0885331980424789	0	1	NaN	106	2	43	2	120	220	320	NaN	520	1.93492787471041	2	0	NaN	1720575.7758268	NaN	1720576.7591896	1720577.27578333
26	18	1	0	90	36.1581920903955	36.241610738255	16	0.533384447991848	2	9	3	NaN	2	4	0.0885331980424789	0	1	NaN	107	2	44	2	120	220	320	NaN	520	0.896846874849871	2	1	NaN	1720580.7095137	NaN	1720581.6930337	1720582.20959023
26	18	1	0	90	36.1581920903955	36.241610738255	25	0.833413199987263	2	9	1	NaN	2	3	0.0885331980424789	0	1	NaN	108	2	45	2	120	220	320	NaN	520	0.0104246225673705	2	1	NaN	1720583.9266286	NaN	1720584.9100255	1720585.42656708
26	18	1	0	90	36.1581920903955	36.241610738255	24	0.800076671987772	2	7	4	NaN	2	4	0.0885331980424789	0	1	NaN	109	2	46	2	120	220	320	NaN	520	0.0105092618614435	1	0	NaN	1720586.2601944	NaN	1720587.2435717	1720587.76013134
26	18	1	0	90	36.1581920903955	36.241610738255	16	0.533384447991848	2	6	4	NaN	1	4	0.0885331980424789	0	1	NaN	110	2	47	2	120	220	320	NaN	520	0.0104228223208338	1	1	NaN	1720588.5769565	NaN	1720589.5605059	1720590.07702078
26	18	1	0	90	36.1581920903955	36.241610738255	15	0.500047919992358	2	7	1	NaN	2	5	0.0885331980424789	0	1	NaN	111	2	48	2	120	220	320	NaN	520	0.0104096746072173	2	1	NaN	1720590.8938395	NaN	1720591.877363	1720592.39392433
26	18	1	0	90	36.1581920903955	36.241610738255	0	0	1	5	2	NaN	1	5	0.0885331980424789	0	1	NaN	112	2	49	2	110	210	310	NaN	510	0.0517897747922689	1	1	NaN	1720593.210735	NaN	1720594.1941964	1720594.71081963
26	18	1	0	90	36.1581920903955	36.241610738255	20	0.66673055998981	2	6	2	NaN	1	4	0.0885331980424789	0	1	NaN	113	2	50	2	120	220	320	NaN	520	0.149156674509868	1	1	NaN	1720595.5777598	NaN	1720596.5611753	1720597.07771253
26	18	1	0	90	36.1581920903955	36.241610738255	18	0.600057503990829	2	4	6	NaN	1	4	0.0885331980424789	0	1	NaN	114	2	51	2	120	220	320	NaN	520	0.23405297473073	1	1	NaN	1720598.0446842	NaN	1720599.0280819	1720599.54462233
26	18	1	0	90	36.1581920903955	36.241610738255	18	0.600057503990829	2	2	3	NaN	1	5	0.0885331980424789	0	1	NaN	115	2	52	2	120	220	320	NaN	520	1.13981307880022	1	1	NaN	1720600.5949467	NaN	1720601.5783427	1720602.09487812
26	18	1	0	90	36.1581920903955	36.241610738255	24	0.800076671987772	2	10	3	NaN	2	5	0.0885331980424789	0	1	NaN	116	2	53	2	120	220	320	NaN	520	0.145265822531655	1	0	NaN	1720604.0452727	NaN	1720605.0286778	1720605.54520878
26	18	1	0	90	36.1581920903955	36.241610738255	11	0.366701807994396	2	1	2	NaN	1	3	0.0885331980424789	0	1	NaN	117	2	54	2	120	220	320	NaN	520	2.13439262681641	1	1	NaN	1720606.5121882	NaN	1720607.4955969	1720608.01212187
26	18	1	0	90	36.1581920903955	36.241610738255	7	0.233355695996434	2	6	4	NaN	1	3	0.0885331980424789	0	1	NaN	118	2	55	2	120	220	320	NaN	520	0.852038874523714	1	1	NaN	1720610.9626209	NaN	1720611.9460074	1720612.46255223
26	18	1	0	90	36.1581920903955	36.241610738255	7	0.233355695996434	2	3	1	NaN	1	3	0.0885331980424789	0	1	NaN	119	2	56	2	120	220	320	NaN	520	0.0104144746437669	2	0	NaN	1720614.1295308	NaN	1720615.1129818	1720615.62952703
26	18	1	0	90	36.1581920903955	36.241610738255	19	0.63339403199032	2	4	3	NaN	1	3	0.0885331980424789	0	1	NaN	120	2	57	2	120	220	320	NaN	520	0.271492426749319	2	0	NaN	1720616.4631494	NaN	1720617.4465531	1720617.96309907
26	18	1	0	90	36.1581920903955	36.241610738255	6	0.200019167996943	2	11	5	NaN	2	5	0.0885331980424789	0	1	NaN	121	2	58	2	120	220	320	NaN	520	1.56001197453588	2	1	NaN	1720619.0465974	NaN	1720620.0301329	1720620.54668493
26	18	1	0	90	36.1581920903955	36.241610738255	20	0.66673055998981	2	5	4	NaN	1	5	0.0885331980424789	0	1	NaN	122	2	59	2	120	220	320	NaN	520	0.0103937268722802	1	1	NaN	1720622.9137938	NaN	1720623.8971887	1720624.41373457
26	18	1	0	90	36.1581920903955	36.241610738255	17	0.566720975991339	2	12	5	NaN	2	4	0.0885331980424789	0	1	NaN	123	2	60	2	120	220	320	NaN	520	0.215302122524008	2	1	NaN	1720625.2473547	NaN	1720626.2307373	1720626.74729158
26	18	1	0	90	36.1581920903955	36.241610738255	9	0.300028751995415	2	2	6	NaN	1	3	0.0885331980424789	0	1	NaN	124	2	61	2	120	220	320	NaN	520	0.369751926744357	2	0	NaN	1720627.7809229	NaN	1720628.7643283	1720629.28087277
26	18	1	0	90	36.1581920903955	36.241610738255	16	0.533384447991848	2	2	2	NaN	1	3	0.0885331980424789	0	1	NaN	125	2	62	2	120	220	320	NaN	520	0.318298122612759	2	0	NaN	1720630.4644	NaN	1720631.4479312	1720631.96446188
26	18	1	0	90	36.1581920903955	36.241610738255	23	0.766740143988281	2	1	2	NaN	1	5	0.0885331980424789	0	1	NaN	126	2	63	2	120	220	320	NaN	520	0.116637826897204	1	1	NaN	1720633.0981136	NaN	1720634.0815061	1720634.59806247
26	18	1	0	90	36.1581920903955	36.241610738255	16	0.533384447991848	2	11	3	NaN	2	5	0.0885331980424789	0	1	NaN	127	3	1	2	120	220	320	NaN	520	0.45800537453033	2	1	NaN	1720639.7487064	NaN	1720640.7321698	1720641.24871283
26	18	1	0	90	36.1581920903955	36.241610738255	23	0.766740143988281	2	10	3	NaN	2	3	0.0885331980424789	0	1	NaN	128	3	2	2	120	220	320	NaN	520	0.0518411747179925	2	1	NaN	1720642.8989445	NaN	1720643.8824762	1720644.39902823
26	18	1	0	90	36.1581920903955	36.241610738255	22	0.733403615988791	2	5	6	NaN	1	4	0.0885331980424789	0	1	NaN	129	3	3	2	120	220	320	NaN	520	1.30906117451377	1	1	NaN	1720645.2659722	NaN	1720646.2493825	1720646.76592333
26	18	1	0	90	36.1581920903955	36.241610738255	25	0.833413199987263	2	5	1	NaN	1	3	0.0885331980424789	0	1	NaN	130	3	4	2	120	220	320	NaN	520	0.0277972747571766	1	1	NaN	1720648.8829775	NaN	1720649.8663983	1720650.38294283
26	18	1	0	90	36.1581920903955	36.241610738255	9	0.300028751995415	2	12	1	NaN	2	4	0.0885331980424789	0	1	NaN	131	3	5	2	120	220	320	NaN	520	0.534187343670055	2	1	NaN	1720651.2165557	NaN	1720652.1999535	1720652.71651496
26	18	1	0	90	36.1581920903955	36.241610738255	16	0.533384447991848	2	9	4	NaN	2	3	0.0885331980424789	0	1	NaN	132	3	6	2	120	220	320	NaN	520	0.0103938267566264	2	1	NaN	1720654.0667095	NaN	1720655.0502368	1720655.56679187
26	18	1	0	90	36.1581920903955	36.241610738255	14	0.466711391992867	2	8	2	NaN	2	4	0.0885331980424789	0	1	NaN	133	3	7	2	120	220	320	NaN	520	0.798638326814398	1	0	NaN	1720656.4003961	NaN	1720657.3837946	1720657.90035537
26	18	1	0	90	36.1581920903955	36.241610738255	9	0.300028751995415	2	3	4	NaN	1	5	0.0885331980424789	0	1	NaN	134	3	8	2	120	220	320	NaN	520	0.585255574667826	1	1	NaN	1720659.5173919	NaN	1720660.5007798	1720661.01732123
26	18	1	0	90	36.1581920903955	36.241610738255	18	0.600057503990829	2	7	3	NaN	2	4	0.0885331980424789	0	1	NaN	135	3	9	2	120	220	320	NaN	520	0.0104003746528178	1	0	NaN	1720662.8676803	NaN	1720663.8511089	1720664.36765713
26	18	1	0	90	36.1581920903955	36.241610738255	24	0.800076671987772	2	4	2	NaN	1	5	0.0885331980424789	0	1	NaN	136	3	10	2	120	220	320	NaN	520	0.245364570291713	1	1	NaN	1720665.2012602	NaN	1720666.1846599	1720666.70120493
26	18	1	0	90	36.1581920903955	36.241610738255	19	0.63339403199032	2	9	1	NaN	2	5	0.0885331980424789	0	1	NaN	137	3	11	2	120	220	320	NaN	520	0.326403174549341	2	1	NaN	1720667.7681808	NaN	1720668.7515968	1720669.26812753
26	18	1	0	90	36.1581920903955	36.241610738255	24	0.800076671987772	2	5	5	NaN	1	5	0.0885331980424789	0	1	NaN	138	3	12	2	120	220	320	NaN	520	0.0104051746893674	1	1	NaN	1720670.40179	NaN	1720671.3851752	1720671.90172863
26	18	1	0	90	36.1581920903955	36.241610738255	20	0.66673055998981	2	3	5	NaN	1	4	0.0885331980424789	0	1	NaN	139	3	13	2	120	220	320	NaN	520	0.703371726674959	1	1	NaN	1720672.7353499	NaN	1720673.7187395	1720674.23529057
26	18	1	0	90	36.1581920903955	36.241610738255	7	0.233355695996434	2	4	6	NaN	1	5	0.0885331980424789	0	1	NaN	140	3	14	2	120	220	320	NaN	520	1.05433827452362	1	1	NaN	1720675.7523175	NaN	1720676.7357057	1720677.25226063
26	18	1	0	90	36.1581920903955	36.241610738255	0	0	1	12	2	NaN	2	4	0.0885331980424789	0	1	NaN	141	3	15	2	110	210	310	NaN	510	3.27148067462258	1	0	NaN	1720679.119293	NaN	1720680.1027003	1720680.61923913
26	18	1	0	90	36.1581920903955	36.241610738255	13	0.433374863993377	2	12	1	NaN	2	4	0.0885331980424789	0	1	NaN	142	3	16	2	120	220	320	NaN	520	0.336412622360513	1	0	NaN	1720685.88661	NaN	1720686.8700298	1720687.38657498
26	18	1	0	90	36.1581920903955	36.241610738255	10	0.333365279994905	2	4	6	NaN	1	3	0.0885331980424789	0	1	NaN	143	3	17	2	120	220	320	NaN	520	0.109628378646448	1	1	NaN	1720688.5368886	NaN	1720689.5202827	1720690.03685512
26	18	1	0	90	36.1581920903955	36.241610738255	8	0.266692223995924	2	4	1	NaN	1	5	0.0885331980424789	0	1	NaN	144	3	18	2	120	220	320	NaN	520	0.260277026798576	1	1	NaN	1720690.9704699	NaN	1720691.9538619	1720692.47041467
26	18	1	0	90	36.1581920903955	36.241610738255	6	0.200019167996943	2	3	6	NaN	1	5	0.0885331980424789	0	1	NaN	145	3	19	2	120	220	320	NaN	520	0.0104054268449545	1	1	NaN	1720693.5540592	NaN	1720694.5374502	1720695.05400137
26	18	1	0	90	36.1581920903955	36.241610738255	18	0.600057503990829	2	7	1	NaN	2	4	0.0885331980424789	0	1	NaN	146	3	20	2	120	220	320	NaN	520	0.0317779225297272	2	1	NaN	1720695.8708185	NaN	1720696.8543576	1720697.37089088
26	18	1	0	90	36.1581920903955	36.241610738255	0	0	1	10	6	NaN	2	4	0.0885331980424789	0	1	NaN	147	3	21	2	110	210	310	NaN	510	0.0417050267569721	2	1	NaN	1720698.2211756	NaN	1720699.2045773	1720699.72111567
26	18	1	0	90	36.1581920903955	36.241610738255	13	0.433374863993377	2	6	1	NaN	1	4	0.0885331980424789	0	1	NaN	148	3	22	2	120	220	320	NaN	520	0.203416822478175	1	1	NaN	1720700.5713197	NaN	1720701.5548	1720702.07134418
26	18	1	0	90	36.1581920903955	36.241610738255	21	0.700067087989301	2	9	2	NaN	2	4	0.0885331980424789	0	1	NaN	149	3	23	2	120	220	320	NaN	520	0.0305924268905073	2	1	NaN	1720703.08819	NaN	1720704.0717323	1720704.58828927
26	18	1	0	90	36.1581920903955	36.241610738255	18	0.600057503990829	2	3	6	NaN	1	4	0.0885331980424789	0	1	NaN	150	3	24	2	120	220	320	NaN	520	0.200637074653059	2	0	NaN	1720705.4385615	NaN	1720706.4219513	1720706.93850133
26	18	1	0	90	36.1581920903955	36.241610738255	23	0.766740143988281	2	3	3	NaN	1	3	0.0885331980424789	0	1	NaN	151	3	25	2	120	220	320	NaN	520	0.0353824226185679	1	1	NaN	1720707.9554733	NaN	1720708.9389037	1720709.45540788
26	18	1	0	90	36.1581920903955	36.241610738255	13	0.433374863993377	2	9	3	NaN	2	5	0.0885331980424789	0	1	NaN	152	3	26	2	120	220	320	NaN	520	0.0103921268600971	2	1	NaN	1720710.3057773	NaN	1720711.28913	1720711.80564577
26	18	1	0	90	36.1581920903955	36.241610738255	7	0.233355695996434	2	3	5	NaN	1	3	0.0885331980424789	0	1	NaN	153	3	27	2	120	220	320	NaN	520	0.0475328266620636	1	1	NaN	1720712.639251	NaN	1720713.6226603	1720714.13920967
26	18	1	0	90	36.1581920903955	36.241610738255	11	0.366701807994396	2	5	2	NaN	1	3	0.0885331980424789	0	1	NaN	154	3	28	2	120	220	320	NaN	520	2.53645992674865	1	1	NaN	1720715.0061646	NaN	1720715.98955	1720716.50610937
26	18	1	0	90	36.1581920903955	36.241610738255	19	0.63339403199032	2	5	1	NaN	1	3	0.0885331980424789	0	1	NaN	155	3	29	2	120	220	320	NaN	520	0.01041777478531	2	0	NaN	1720719.8566305	NaN	1720720.8400326	1720721.35657683
26	18	1	0	90	36.1581920903955	36.241610738255	9	0.300028751995415	2	3	2	NaN	1	3	0.0885331980424789	0	1	NaN	156	3	30	2	120	220	320	NaN	520	1.98523107473738	1	1	NaN	1720722.1733834	NaN	1720723.1569232	1720723.67347793
26	18	1	0	90	36.1581920903955	36.241610738255	13	0.433374863993377	2	7	6	NaN	2	4	0.0885331980424789	0	1	NaN	157	3	31	2	120	220	320	NaN	520	0.428956574760377	2	1	NaN	1720726.4739461	NaN	1720727.4573516	1720727.97389153
26	18	1	0	90	36.1581920903955	36.241610738255	24	0.800076671987772	2	8	2	NaN	2	3	0.0885331980424789	0	1	NaN	158	3	32	2	120	220	320	NaN	520	1.03907117457129	2	1	NaN	1720729.2075485	NaN	1720730.1909425	1720730.70749223
26	18	1	0	90	36.1581920903955	36.241610738255	20	0.66673055998981	2	8	5	NaN	2	5	0.0885331980424789	0	1	NaN	159	3	33	2	120	220	320	NaN	520	0.0104065747000277	2	1	NaN	1720732.5578731	NaN	1720733.5412715	1720734.05781823
26	18	1	0	90	36.1581920903955	36.241610738255	13	0.433374863993377	2	4	5	NaN	1	5	0.0885331980424789	0	1	NaN	160	3	34	2	120	220	320	NaN	520	0.0672527223359793	1	1	NaN	1720734.8914499	NaN	1720735.8748418	1720736.39139668
26	18	1	0	90	36.1581920903955	36.241610738255	10	0.333365279994905	2	3	3	NaN	1	4	0.0885331980424789	0	1	NaN	161	3	35	2	120	220	320	NaN	520	0.419842074625194	1	1	NaN	1720737.2750181	NaN	1720738.2584111	1720738.77495953
26	18	1	0	90	36.1581920903955	36.241610738255	19	0.63339403199032	2	12	6	NaN	2	3	0.0885331980424789	0	1	NaN	162	3	36	2	120	220	320	NaN	520	0.510350574739277	2	1	NaN	1720740.008481	NaN	1720740.992006	1720741.50855463
26	18	1	0	90	36.1581920903955	36.241610738255	0	0	1	4	5	NaN	1	4	0.0885331980424789	0	1	NaN	163	3	37	2	110	210	310	NaN	510	1.1095438785851	1	1	NaN	1720742.8256361	NaN	1720743.8089571	1720744.32550672
26	18	1	0	90	36.1581920903955	36.241610738255	14	0.466711391992867	2	9	2	NaN	2	5	0.0885331980424789	0	1	NaN	164	3	38	2	120	220	320	NaN	520	0.260659074643627	2	1	NaN	1720746.242433	NaN	1720747.2259496	1720747.74249603
26	18	1	0	90	36.1581920903955	36.241610738255	10	0.333365279994905	2	5	1	NaN	1	5	0.0885331980424789	0	1	NaN	165	3	39	2	120	220	320	NaN	520	0.0105113226454705	1	1	NaN	1720748.8261457	NaN	1720749.809546	1720750.32610938
26	18	1	0	90	36.1581920903955	36.241610738255	21	0.700067087989301	2	9	4	NaN	2	5	0.0885331980424789	0	1	NaN	166	3	40	2	120	220	320	NaN	520	1.28730242676102	1	0	NaN	1720751.159714	NaN	1720752.142995	1720752.65965667
26	18	1	0	90	36.1581920903955	36.241610738255	17	0.566720975991339	2	9	5	NaN	2	4	0.0885331980424789	0	1	NaN	167	3	41	2	120	220	320	NaN	520	0.274999543325976	2	1	NaN	1720755.0601133	NaN	1720756.0434851	1720756.56003776
26	18	1	0	90	36.1581920903955	36.241610738255	21	0.700067087989301	2	1	2	NaN	1	5	0.0885331980424789	0	1	NaN	168	3	42	2	120	220	320	NaN	520	0.0989425748120993	1	1	NaN	1720757.6436523	NaN	1720758.6270849	1720759.14362033
26	18	1	0	90	36.1581920903955	36.241610738255	23	0.766740143988281	2	9	4	NaN	2	5	0.0885331980424789	0	1	NaN	169	3	43	2	120	220	320	NaN	520	2.81037207460031	2	1	NaN	1720760.0605868	NaN	1720761.0439778	1720761.56051893
26	18	1	0	90	36.1581920903955	36.241610738255	25	0.833413199987263	2	9	6	NaN	2	5	0.0885331980424789	0	1	NaN	170	3	44	2	120	220	320	NaN	520	0.333122274605557	2	1	NaN	1720765.1776246	NaN	1720766.1611456	1720766.67768933
26	18	1	0	90	36.1581920903955	36.241610738255	16	0.533384447991848	2	5	2	NaN	1	5	0.0885331980424789	0	1	NaN	171	3	45	2	120	220	320	NaN	520	0.0104080745950341	1	1	NaN	1720767.82801	NaN	1720768.8114117	1720769.32795893
26	18	1	0	90	36.1581920903955	36.241610738255	18	0.600057503990829	2	8	5	NaN	2	5	0.0885331980424789	0	1	NaN	172	3	46	2	120	220	320	NaN	520	0.0104061744641513	2	1	NaN	1720770.1615759	NaN	1720771.1449634	1720771.66152043
26	18	1	0	90	36.1581920903955	36.241610738255	16	0.533384447991848	2	3	2	NaN	1	4	0.0885331980424789	0	1	NaN	173	3	47	2	120	220	320	NaN	520	0.0103871268220246	1	1	NaN	1720772.495141	NaN	1720773.4785222	1720773.99508437
26	18	1	0	90	36.1581920903955	36.241610738255	19	0.63339403199032	2	8	3	NaN	2	3	0.0885331980424789	0	1	NaN	174	3	48	2	120	220	320	NaN	520	1.19443267467432	2	1	NaN	1720774.8287006	NaN	1720775.8120982	1720776.32864593
26	18	1	0	90	36.1581920903955	36.241610738255	25	0.833413199987263	2	10	1	NaN	2	5	0.0885331980424789	0	1	NaN	175	3	49	2	120	220	320	NaN	520	0.0291953748092055	2	1	NaN	1720778.34572	NaN	1720779.3291112	1720779.84564733
26	18	1	0	90	36.1581920903955	36.241610738255	21	0.700067087989301	2	1	4	NaN	1	5	0.0885331980424789	0	1	NaN	176	3	50	2	120	220	320	NaN	520	0.830781974829733	2	0	NaN	1720780.6959294	NaN	1720781.6793472	1720782.19587673
26	18	1	0	90	36.1581920903955	36.241610738255	7	0.233355695996434	2	7	5	NaN	2	3	0.0885331980424789	0	1	NaN	177	3	51	2	120	220	320	NaN	520	1.69687002687715	2	1	NaN	1720783.8462581	NaN	1720784.8296898	1720785.34619777
26	18	1	0	90	36.1581920903955	36.241610738255	6	0.200019167996943	2	5	2	NaN	1	3	0.0885331980424789	0	1	NaN	178	3	52	2	120	220	320	NaN	520	0.0104086745996028	1	1	NaN	1720787.8633028	NaN	1720788.8467021	1720789.36325033
26	18	1	0	90	36.1581920903955	36.241610738255	24	0.800076671987772	2	1	4	NaN	1	3	0.0885331980424789	0	1	NaN	179	3	53	2	120	220	320	NaN	520	0.358375443611294	1	1	NaN	1720790.2967347	NaN	1720791.2802854	1720791.79683556
26	18	1	0	90	36.1581920903955	36.241610738255	6	0.200019167996943	2	6	5	NaN	1	4	0.0885331980424789	0	1	NaN	180	3	54	2	120	220	320	NaN	520	0.322997374692932	1	1	NaN	1720792.9636845	NaN	1720793.9472289	1720794.46375143
26	18	1	0	90	36.1581920903955	36.241610738255	18	0.600057503990829	2	11	2	NaN	2	4	0.0885331980424789	0	1	NaN	181	3	55	2	120	220	320	NaN	520	0.0104375225491822	2	1	NaN	1720795.5972782	NaN	1720796.5808075	1720797.09734058
26	18	1	0	90	36.1581920903955	36.241610738255	0	0	1	11	2	NaN	2	3	0.0885331980424789	0	1	NaN	182	3	56	2	110	210	310	NaN	510	0.0104060745798051	2	1	NaN	1720797.9141899	NaN	1720798.8976893	1720799.41423853
26	18	1	0	90	36.1581920903955	36.241610738255	15	0.500047919992358	2	1	2	NaN	1	5	0.0885331980424789	0	1	NaN	183	3	57	2	120	220	320	NaN	520	0.010394926648587	1	1	NaN	1720800.2478573	NaN	1720801.2312886	1720801.74780677
26	18	1	0	90	36.1581920903955	36.241610738255	18	0.600057503990829	2	1	5	NaN	1	4	0.0885331980424789	0	1	NaN	184	3	58	2	120	220	320	NaN	520	0.105496126925573	1	1	NaN	1720802.5812748	NaN	1720803.5648383	1720804.08137147
26	18	1	0	90	36.1581920903955	36.241610738255	14	0.466711391992867	2	11	4	NaN	2	3	0.0885331980424789	0	1	NaN	185	3	59	2	120	220	320	NaN	520	0.0104566747322679	2	1	NaN	1720804.998221	NaN	1720805.9817258	1720806.49826893
26	18	1	0	90	36.1581920903955	36.241610738255	8	0.266692223995924	2	11	4	NaN	2	4	0.0885331980424789	0	1	NaN	186	3	60	2	120	220	320	NaN	520	0.0104186746757478	2	1	NaN	1720807.3152265	NaN	1720808.2986145	1720808.81515843
26	18	1	0	90	36.1581920903955	36.241610738255	9	0.300028751995415	2	7	5	NaN	2	4	0.0885331980424789	0	1	NaN	187	3	61	2	120	220	320	NaN	520	1.27093962673098	2	1	NaN	1720809.6321089	NaN	1720810.6155097	1720811.13206377
26	18	1	0	90	36.1581920903955	36.241610738255	21	0.700067087989301	2	12	3	NaN	2	4	0.0885331980424789	0	1	NaN	188	3	62	2	120	220	320	NaN	520	1.71119687869214	2	1	NaN	1720813.2158102	NaN	1720814.1992018	1720814.71574742
26	18	1	0	90	36.1581920903955	36.241610738255	22	0.733403615988791	2	3	1	NaN	1	5	0.0885331980424789	0	1	NaN	189	3	63	2	120	220	320	NaN	520	0.0104176746681333	2	0	NaN	1720817.2328518	NaN	1720818.2162266	1720818.73279883
26	18	1	0	90	36.1581920903955	36.241610738255	16	0.533384447991848	2	11	3	NaN	2	3	0.0885331980424789	0	1	NaN	190	4	1	2	120	220	320	NaN	520	0.0104207745753229	2	1	NaN	1720846.1356658	NaN	1720847.1191006	1720847.63564063
26	18	1	0	90	36.1581920903955	36.241610738255	24	0.800076671987772	2	6	6	NaN	1	5	0.0885331980424789	0	1	NaN	191	4	2	2	120	220	320	NaN	520	0.810650595696643	1	1	NaN	1720848.4525977	NaN	1720849.4359906	1720849.9525462
26	18	1	0	90	36.1581920903955	36.241610738255	22	0.733403615988791	2	6	2	NaN	1	4	0.0885331980424789	0	1	NaN	192	4	3	2	120	220	320	NaN	520	1.56552717462182	1	1	NaN	1720851.5695591	NaN	1720852.5530005	1720853.06950323
26	18	1	0	90	36.1581920903955	36.241610738255	8	0.266692223995924	2	12	4	NaN	2	4	0.0885331980424789	0	1	NaN	193	4	4	2	120	220	320	NaN	520	0.530040074605495	2	1	NaN	1720855.4532796	NaN	1720856.4366677	1720856.95321863
26	18	1	0	90	36.1581920903955	36.241610738255	19	0.63339403199032	2	11	3	NaN	2	4	0.0885331980424789	0	1	NaN	194	4	5	2	120	220	320	NaN	520	0.0104162225034088	2	1	NaN	1720858.3034483	NaN	1720859.2869596	1720859.80349748
26	18	1	0	90	36.1581920903955	36.241610738255	19	0.63339403199032	2	10	4	NaN	2	3	0.0885331980424789	0	1	NaN	195	4	6	2	120	220	320	NaN	520	0.0906546746846288	2	1	NaN	1720860.620437	NaN	1720861.6038434	1720862.12039333
26	18	1	0	90	36.1581920903955	36.241610738255	8	0.266692223995924	2	7	5	NaN	2	4	0.0885331980424789	0	1	NaN	196	4	7	2	120	220	320	NaN	520	1.12219607457519	2	1	NaN	1720863.0206792	NaN	1720864.004082	1720864.52062973
26	18	1	0	90	36.1581920903955	36.241610738255	20	0.66673055998981	2	2	4	NaN	1	5	0.0885331980424789	0	1	NaN	197	4	8	2	120	220	320	NaN	520	0.0486611747182906	1	1	NaN	1720866.4543436	NaN	1720867.4377417	1720867.95430843
26	18	1	0	90	36.1581920903955	36.241610738255	10	0.333365279994905	2	6	2	NaN	1	3	0.0885331980424789	0	1	NaN	198	4	9	2	120	220	320	NaN	520	0.0104092748370022	1	1	NaN	1720868.8212608	NaN	1720869.8046516	1720870.32119883
26	18	1	0	90	36.1581920903955	36.241610738255	23	0.766740143988281	2	6	6	NaN	1	3	0.0885331980424789	0	1	NaN	199	4	10	2	120	220	320	NaN	520	0.0103887268342078	1	1	NaN	1720871.3048174	NaN	1720872.2882996	1720872.80477947
26	18	1	0	90	36.1581920903955	36.241610738255	12	0.400038335993886	2	8	1	NaN	2	4	0.0885331980424789	0	1	NaN	200	4	11	2	120	220	320	NaN	520	0.0103835267946124	1	0	NaN	1720873.6217263	NaN	1720874.6051332	1720875.12167567
26	18	1	0	90	36.1581920903955	36.241610738255	23	0.766740143988281	2	10	1	NaN	2	3	0.0885331980424789	0	1	NaN	201	4	12	2	120	220	320	NaN	520	0.236719674663618	2	1	NaN	1720875.9386307	NaN	1720876.9220064	1720877.43856313
26	18	1	0	90	36.1581920903955	36.241610738255	7	0.233355695996434	2	1	4	NaN	1	4	0.0885331980424789	0	1	NaN	202	4	13	2	120	220	320	NaN	520	0.0104013746604323	1	1	NaN	1720878.4888735	NaN	1720879.4722682	1720879.98881363
26	18	1	0	90	36.1581920903955	36.241610738255	6	0.200019167996943	2	1	1	NaN	1	4	0.0885331980424789	0	1	NaN	203	4	14	2	120	220	320	NaN	520	0.0104212746955454	1	1	NaN	1720880.8057594	NaN	1720881.7891594	1720882.30571423
26	18	1	0	90	36.1581920903955	36.241610738255	14	0.466711391992867	2	2	4	NaN	1	5	0.0885331980424789	0	1	NaN	204	4	15	2	120	220	320	NaN	520	0.0104032747913152	2	0	NaN	1720883.1392166	NaN	1720884.1227131	1720884.63926503
26	18	1	0	90	36.1581920903955	36.241610738255	8	0.266692223995924	2	2	2	NaN	1	4	0.0885331980424789	0	1	NaN	205	4	16	2	120	220	320	NaN	520	1.31027167453431	1	1	NaN	1720885.4728963	NaN	1720886.4562934	1720886.97283073
26	18	1	0	90	36.1581920903955	36.241610738255	12	0.400038335993886	2	11	6	NaN	2	5	0.0885331980424789	0	1	NaN	206	4	17	2	120	220	320	NaN	520	0.532724626827985	2	1	NaN	1720889.1065737	NaN	1720890.0899842	1720890.60653157
26	18	1	0	90	36.1581920903955	36.241610738255	25	0.833413199987263	2	4	4	NaN	1	5	0.0885331980424789	0	1	NaN	207	4	18	2	120	220	320	NaN	520	0.0104073747061193	1	1	NaN	1720891.9568529	NaN	1720892.9402595	1720893.45679913
26	18	1	0	90	36.1581920903955	36.241610738255	17	0.566720975991339	2	4	4	NaN	1	4	0.0885331980424789	0	1	NaN	208	4	19	2	120	220	320	NaN	520	0.397560374578461	2	0	NaN	1720894.2737596	NaN	1720895.2571526	1720895.77369313
26	18	1	0	90	36.1581920903955	36.241610738255	19	0.63339403199032	2	9	4	NaN	2	4	0.0885331980424789	0	1	NaN	209	4	20	2	120	220	320	NaN	520	0.656685826834291	2	1	NaN	1720896.9905621	NaN	1720897.9740959	1720898.49062887
26	18	1	0	90	36.1581920903955	36.241610738255	16	0.533384447991848	2	10	6	NaN	2	4	0.0885331980424789	0	1	NaN	210	4	21	2	120	220	320	NaN	520	1.84769552247599	2	1	NaN	1720900.4076568	NaN	1720901.3911314	1720901.90762588
26	18	1	0	90	36.1581920903955	36.241610738255	17	0.566720975991339	2	11	6	NaN	2	3	0.0885331980424789	0	1	NaN	211	4	22	2	120	220	320	NaN	520	0.0103855268098414	2	1	NaN	1720904.5580931	NaN	1720905.5414883	1720906.05804447
26	18	1	0	90	36.1581920903955	36.241610738255	12	0.400038335993886	2	7	2	NaN	2	5	0.0885331980424789	0	1	NaN	212	4	23	2	120	220	320	NaN	520	0.0103922269772738	2	1	NaN	1720906.874855	NaN	1720907.8584128	1720908.37493987
26	18	1	0	90	36.1581920903955	36.241610738255	13	0.433374863993377	2	8	3	NaN	2	3	0.0885331980424789	0	1	NaN	213	4	24	2	120	220	320	NaN	520	0.0104143747594208	1	0	NaN	1720909.2085498	NaN	1720910.1919546	1720910.70849383
26	18	1	0	90	36.1581920903955	36.241610738255	7	0.233355695996434	2	11	5	NaN	2	3	0.0885331980424789	0	1	NaN	214	4	25	2	120	220	320	NaN	520	1.46587542677298	2	1	NaN	1720911.5254503	NaN	1720912.5088428	1720913.02538837
26	18	1	0	90	36.1581920903955	36.241610738255	21	0.700067087989301	2	5	3	NaN	1	3	0.0885331980424789	0	1	NaN	215	4	26	2	120	220	320	NaN	520	0.650235374690965	1	1	NaN	1720915.3091596	NaN	1720916.2925492	1720916.80909573
26	18	1	0	90	36.1581920903955	36.241610738255	14	0.466711391992867	2	7	6	NaN	2	4	0.0885331980424789	0	1	NaN	216	4	27	2	120	220	320	NaN	520	0.0104149747639894	2	1	NaN	1720918.276118	NaN	1720919.2595133	1720919.77605353
26	18	1	0	90	36.1581920903955	36.241610738255	12	0.400038335993886	2	10	4	NaN	2	5	0.0885331980424789	0	1	NaN	217	4	28	2	120	220	320	NaN	520	0.0104053746908903	2	1	NaN	1720920.5930097	NaN	1720921.5764168	1720922.09294343
26	18	1	0	90	36.1581920903955	36.241610738255	17	0.566720975991339	2	2	2	NaN	1	5	0.0885331980424789	0	1	NaN	218	4	29	2	120	220	320	NaN	520	0.0104360226541758	1	1	NaN	1720922.9265648	NaN	1720923.9099604	1720924.42650748
26	18	1	0	90	36.1581920903955	36.241610738255	22	0.733403615988791	2	11	2	NaN	2	4	0.0885331980424789	0	1	NaN	219	4	30	2	120	220	320	NaN	520	0.0998834746424109	2	1	NaN	1720925.2434466	NaN	1720926.2268632	1720926.74339893
26	18	1	0	90	36.1581920903955	36.241610738255	10	0.333365279994905	2	5	6	NaN	1	5	0.0885331980424789	0	1	NaN	220	4	31	2	120	220	320	NaN	520	0.0104012747760862	1	1	NaN	1720927.6602329	NaN	1720928.6437683	1720929.16031043
26	18	1	0	90	36.1581920903955	36.241610738255	18	0.600057503990829	2	8	3	NaN	2	4	0.0885331980424789	0	1	NaN	221	4	32	2	120	220	320	NaN	520	0.333157426677644	2	1	NaN	1720929.9939389	NaN	1720930.9773302	1720931.49387887
26	18	1	0	90	36.1581920903955	36.241610738255	15	0.500047919992358	2	2	3	NaN	1	3	0.0885331980424789	0	1	NaN	222	4	33	2	120	220	320	NaN	520	0.0102925393730402	2	0	NaN	1720932.6275276	NaN	1720933.610917	1720934.12746436
26	18	1	0	90	36.1581920903955	36.241610738255	18	0.600057503990829	2	5	3	NaN	1	4	0.0885331980424789	0	1	NaN	223	4	34	2	120	220	320	NaN	520	0.0104080745950341	1	1	NaN	1720934.9610882	NaN	1720935.9444801	1720936.46102413
26	18	1	0	90	36.1581920903955	36.241610738255	25	0.833413199987263	2	6	2	NaN	1	4	0.0885331980424789	0	1	NaN	224	4	35	2	120	220	320	NaN	520	0.0812381745781749	1	1	NaN	1720937.2778426	NaN	1720938.2613741	1720938.77791493
26	18	1	0	90	36.1581920903955	36.241610738255	14	0.466711391992867	2	7	4	NaN	2	4	0.0885331980424789	0	1	NaN	225	4	36	2	120	220	320	NaN	520	0.010386926587671	2	1	NaN	1720939.6782122	NaN	1720940.661618	1720941.17815657
26	18	1	0	90	36.1581920903955	36.241610738255	24	0.800076671987772	2	9	6	NaN	2	4	0.0885331980424789	0	1	NaN	226	4	37	2	120	220	320	NaN	520	0.243490374647081	2	1	NaN	1720942.0117735	NaN	1720942.9951691	1720943.51171133
26	18	1	0	90	36.1581920903955	36.241610738255	0	0	1	2	4	NaN	1	5	0.0885331980424789	0	1	NaN	227	4	38	2	110	210	310	NaN	510	1.13637117459439	1	1	NaN	1720944.8787497	NaN	1720945.8621231	1720946.37866273
26	18	1	0	90	36.1581920903955	36.241610738255	8	0.266692223995924	2	8	6	NaN	2	5	0.0885331980424789	0	1	NaN	228	4	39	2	120	220	320	NaN	520	0.0104016268160194	2	1	NaN	1720948.3290586	NaN	1720949.3124556	1720949.82901147
26	18	1	0	90	36.1581920903955	36.241610738255	25	0.833413199987263	2	8	4	NaN	2	5	0.0885331980424789	0	1	NaN	229	4	40	2	120	220	320	NaN	520	0.193170174723491	2	1	NaN	1720950.6459466	NaN	1720951.6293522	1720952.14589313
26	18	1	0	90	36.1581920903955	36.241610738255	7	0.233355695996434	2	11	5	NaN	2	3	0.0885331980424789	0	1	NaN	230	4	41	2	120	220	320	NaN	520	0.0103894267231226	2	1	NaN	1720953.1628556	NaN	1720954.1462668	1720954.66281837
26	18	1	0	90	36.1581920903955	36.241610738255	10	0.333365279994905	2	9	1	NaN	2	5	0.0885331980424789	0	1	NaN	231	4	42	2	120	220	320	NaN	520	0.0103718787431717	2	1	NaN	1720955.4797837	NaN	1720956.4631702	1720956.97971182
26	18	1	0	90	36.1581920903955	36.241610738255	9	0.300028751995415	2	5	5	NaN	1	4	0.0885331980424789	0	1	NaN	232	4	43	2	120	220	320	NaN	520	0.0177125267218798	1	1	NaN	1720957.8133177	NaN	1720958.7967189	1720959.31327217
26	18	1	0	90	36.1581920903955	36.241610738255	16	0.533384447991848	2	7	6	NaN	2	3	0.0885331980424789	0	1	NaN	233	4	44	2	120	220	320	NaN	520	0.0104183745570481	1	0	NaN	1720960.1468901	NaN	1720961.130286	1720961.64682693
26	18	1	0	90	36.1581920903955	36.241610738255	8	0.266692223995924	2	4	5	NaN	1	4	0.0885331980424789	0	1	NaN	234	4	45	2	120	220	320	NaN	520	0.0103939268738031	1	1	NaN	1720962.4803188	NaN	1720963.4638784	1720963.98039997
26	18	1	0	90	36.1581920903955	36.241610738255	6	0.200019167996943	2	5	4	NaN	1	4	0.0885331980424789	0	1	NaN	235	4	46	2	120	220	320	NaN	520	0.0104071747045964	1	1	NaN	1720964.8139041	NaN	1720965.7974047	1720966.31395253
26	18	1	0	90	36.1581920903955	36.241610738255	20	0.66673055998981	2	10	6	NaN	2	5	0.0885331980424789	0	1	NaN	236	4	47	2	120	220	320	NaN	520	0.0441881746519357	2	1	NaN	1720967.1308988	NaN	1720968.1142922	1720968.63084483
26	18	1	0	90	36.1581920903955	36.241610738255	11	0.366701807994396	2	5	3	NaN	1	3	0.0885331980424789	0	1	NaN	237	4	48	2	120	220	320	NaN	520	0.14974059141241	1	1	NaN	1720969.4977893	NaN	1720970.4812015	1720970.99774921
26	18	1	0	90	36.1581920903955	36.241610738255	24	0.800076671987772	2	9	6	NaN	2	5	0.0885331980424789	0	1	NaN	238	4	49	2	120	220	320	NaN	520	0.0103461830876768	2	1	NaN	1720971.9647139	NaN	1720972.9481163	1720973.46465712
26	18	1	0	90	36.1581920903955	36.241610738255	24	0.800076671987772	2	10	6	NaN	2	3	0.0885331980424789	0	1	NaN	239	4	50	2	120	220	320	NaN	520	1.35784059157595	2	1	NaN	1720974.2815813	NaN	1720975.265003	1720975.78154971
26	18	1	0	90	36.1581920903955	36.241610738255	14	0.466711391992867	2	6	4	NaN	1	3	0.0885331980424789	0	1	NaN	240	4	51	2	120	220	320	NaN	520	1.1617654224392	1	1	NaN	1720977.9652931	NaN	1720978.9487056	1720979.46525138
26	18	1	0	90	36.1581920903955	36.241610738255	23	0.766740143988281	2	5	4	NaN	1	5	0.0885331980424789	0	1	NaN	241	4	52	2	120	220	320	NaN	520	0.142221478745341	1	1	NaN	1720981.4489711	NaN	1720982.432393	1720982.94891862
26	18	1	0	90	36.1581920903955	36.241610738255	11	0.366701807994396	2	3	3	NaN	1	4	0.0885331980424789	0	1	NaN	242	4	53	2	120	220	320	NaN	520	0.0103768785484135	1	1	NaN	1720983.8992138	NaN	1720984.8826174	1720985.39916232
26	18	1	0	90	36.1581920903955	36.241610738255	7	0.233355695996434	2	12	4	NaN	2	4	0.0885331980424789	0	1	NaN	243	4	54	2	120	220	320	NaN	520	0.0104068745858967	2	1	NaN	1720986.2160015	NaN	1720987.199501	1720987.71605363
26	18	1	0	90	36.1581920903955	36.241610738255	20	0.66673055998981	2	12	5	NaN	2	5	0.0885331980424789	0	1	NaN	244	4	55	2	120	220	320	NaN	520	0.11404177476652	2	1	NaN	1720988.5329957	NaN	1720989.5163961	1720990.03294293
26	18	1	0	90	36.1581920903955	36.241610738255	25	0.833413199987263	2	7	1	NaN	2	5	0.0885331980424789	0	1	NaN	245	4	56	2	120	220	320	NaN	520	0.152903074631467	2	1	NaN	1720990.9665606	NaN	1720991.9499993	1720992.46651733
26	18	1	0	90	36.1581920903955	36.241610738255	19	0.63339403199032	2	7	5	NaN	2	5	0.0885331980424789	0	1	NaN	246	4	57	2	120	220	320	NaN	520	0.917555274674669	2	1	NaN	1720993.4334975	NaN	1720994.4169291	1720994.93342723
26	18	1	0	90	36.1581920903955	36.241610738255	20	0.66673055998981	2	4	4	NaN	1	4	0.0885331980424789	0	1	NaN	247	4	58	2	120	220	320	NaN	520	0.515862826723605	2	0	NaN	1720996.6671299	NaN	1720997.6505371	1720998.16708287
26	18	1	0	90	36.1581920903955	36.241610738255	14	0.466711391992867	2	1	5	NaN	1	5	0.0885331980424789	0	1	NaN	248	4	59	2	120	220	320	NaN	520	0.402507874649018	2	0	NaN	1720999.5007504	NaN	1721000.4841456	1721001.00069353
26	18	1	0	90	36.1581920903955	36.241610738255	12	0.400038335993886	2	8	6	NaN	2	4	0.0885331980424789	0	1	NaN	249	4	60	2	120	220	320	NaN	520	0.0104252267628908	2	1	NaN	1721002.2176686	NaN	1721003.2010765	1721003.71762957
26	18	1	0	90	36.1581920903955	36.241610738255	6	0.200019167996943	2	9	6	NaN	2	5	0.0885331980424789	0	1	NaN	250	4	61	2	120	220	320	NaN	520	0.0104035267140716	2	1	NaN	1721004.5345636	NaN	1721005.517974	1721006.03451567
26	18	1	0	90	36.1581920903955	36.241610738255	12	0.400038335993886	2	7	2	NaN	2	5	0.0885331980424789	0	1	NaN	251	4	62	2	120	220	320	NaN	520	0.0104094746056944	2	1	NaN	1721006.8514986	NaN	1721007.8348631	1721008.35141293
26	18	1	0	90	36.1581920903955	36.241610738255	7	0.233355695996434	2	10	5	NaN	2	4	0.0885331980424789	0	1	NaN	252	4	63	2	120	220	320	NaN	520	0.0461137746460736	2	1	NaN	1721009.1850295	NaN	1721010.1684317	1721010.68497613
26	18	1	0	90	36.1581920903955	36.241610738255	11	0.366701807994396	2	10	4	NaN	2	3	0.0885331980424789	0	1	NaN	253	5	1	2	120	220	320	NaN	520	0.0103929268661886	2	1	NaN	1721027.0033139	NaN	1721027.9868432	1721028.50339697
26	18	1	0	90	36.1581920903955	36.241610738255	25	0.833413199987263	2	3	4	NaN	1	5	0.0885331980424789	0	1	NaN	254	5	2	2	120	220	320	NaN	520	0.679231974529102	1	1	NaN	1721029.320355	NaN	1721030.3037401	1721030.82028573
26	18	1	0	90	36.1581920903955	36.241610738255	24	0.800076671987772	2	1	3	NaN	1	3	0.0885331980424789	0	1	NaN	255	5	3	2	120	220	320	NaN	520	0.198406974552199	1	1	NaN	1721032.3206294	NaN	1721033.3040265	1721033.82058243
26	18	1	0	90	36.1581920903955	36.241610738255	13	0.433374863993377	2	7	6	NaN	2	3	0.0885331980424789	0	1	NaN	256	5	4	2	120	220	320	NaN	520	0.0104164746589959	2	1	NaN	1721034.8375642	NaN	1721035.8208379	1721036.33748873
26	18	1	0	90	36.1581920903955	36.241610738255	15	0.500047919992358	2	3	1	NaN	1	4	0.0885331980424789	0	1	NaN	257	5	5	2	120	220	320	NaN	520	0.0104121745098382	2	0	NaN	1721037.1544374	NaN	1721038.1378419	1721038.65439003
26	18	1	0	90	36.1581920903955	36.241610738255	20	0.66673055998981	2	9	3	NaN	2	5	0.0885331980424789	0	1	NaN	258	5	6	2	120	220	320	NaN	520	1.18377557466738	2	1	NaN	1721039.471368	NaN	1721040.4547836	1721040.97128003
26	18	1	0	90	36.1581920903955	36.241610738255	10	0.333365279994905	2	11	5	NaN	2	4	0.0885331980424789	0	1	NaN	259	5	7	2	120	220	320	NaN	520	1.94762797467411	2	1	NaN	1721042.9716814	NaN	1721043.9550821	1721044.47163083
26	18	1	0	90	36.1581920903955	36.241610738255	6	0.200019167996943	2	11	1	NaN	2	3	0.0885331980424789	0	1	NaN	260	5	8	2	120	220	320	NaN	520	0.360985026694834	2	1	NaN	1721047.2219712	NaN	1721048.2054887	1721048.72204857
26	18	1	0	90	36.1581920903955	36.241610738255	11	0.366701807994396	2	3	3	NaN	1	3	0.0885331980424789	0	1	NaN	261	5	9	2	120	220	320	NaN	520	0.0104049746878445	1	1	NaN	1721049.905566	NaN	1721050.8891197	1721051.40564443
26	18	1	0	90	36.1581920903955	36.241610738255	24	0.800076671987772	2	3	1	NaN	1	4	0.0885331980424789	0	1	NaN	262	5	10	2	120	220	320	NaN	520	0.920962474774569	2	0	NaN	1721052.2225843	NaN	1721053.2060241	1721053.72253163
26	18	1	0	90	36.1581920903955	36.241610738255	25	0.833413199987263	2	12	5	NaN	2	5	0.0885331980424789	0	1	NaN	263	5	11	2	120	220	320	NaN	520	0.166381174698472	2	1	NaN	1721055.4729025	NaN	1721056.4562985	1721056.97285413
26	18	1	0	90	36.1581920903955	36.241610738255	22	0.733403615988791	2	2	3	NaN	1	4	0.0885331980424789	0	1	NaN	264	5	12	2	120	220	320	NaN	520	0.602913774549961	1	1	NaN	1721057.9565732	NaN	1721058.9399238	1721059.45643003
26	18	1	0	90	36.1581920903955	36.241610738255	22	0.733403615988791	2	1	4	NaN	1	4	0.0885331980424789	0	1	NaN	265	5	13	2	120	220	320	NaN	520	0.0104208225384355	1	1	NaN	1721060.8734398	NaN	1721061.8568449	1721062.37337728
26	18	1	0	90	36.1581920903955	36.241610738255	25	0.833413199987263	2	10	5	NaN	2	4	0.0885331980424789	0	1	NaN	266	5	14	2	120	220	320	NaN	520	0.0103987269103527	1	0	NaN	1721063.1904195	NaN	1721064.1737274	1721064.69027437
26	18	1	0	90	36.1581920903955	36.241610738255	17	0.566720975991339	2	7	2	NaN	2	3	0.0885331980424789	0	1	NaN	267	5	15	2	120	220	320	NaN	520	0.0360568747855723	2	1	NaN	1721065.507219	NaN	1721066.4906548	1721067.00717363
26	18	1	0	90	36.1581920903955	36.241610738255	13	0.433374863993377	2	6	3	NaN	1	4	0.0885331980424789	0	1	NaN	268	5	16	2	120	220	320	NaN	520	0.0103912267368287	1	1	NaN	1721067.8574492	NaN	1721068.8408454	1721069.35740927
26	18	1	0	90	36.1581920903955	36.241610738255	7	0.233355695996434	2	5	4	NaN	1	5	0.0885331980424789	0	1	NaN	269	5	17	2	120	220	320	NaN	520	0.0103867268189788	1	1	NaN	1721070.1742205	NaN	1721071.1577531	1721071.67429527
26	18	1	0	90	36.1581920903955	36.241610738255	8	0.266692223995924	2	3	4	NaN	1	5	0.0885331980424789	0	1	NaN	270	5	18	2	120	220	320	NaN	520	0.36427847458981	1	1	NaN	1721072.4912613	NaN	1721073.4745649	1721073.99118273
26	18	1	0	90	36.1581920903955	36.241610738255	12	0.400038335993886	2	1	4	NaN	1	4	0.0885331980424789	0	1	NaN	271	5	19	2	120	220	320	NaN	520	0.0104242225643247	1	1	NaN	1721075.1581801	NaN	1721076.1415691	1721076.65811388
26	18	1	0	90	36.1581920903955	36.241610738255	11	0.366701807994396	2	6	2	NaN	1	4	0.0885331980424789	0	1	NaN	272	5	20	2	120	220	320	NaN	520	1.0200940745417	1	1	NaN	1721077.4750694	NaN	1721078.4584616	1721078.97500933
26	18	1	0	90	36.1581920903955	36.241610738255	6	0.200019167996943	2	4	1	NaN	1	3	0.0885331980424789	0	1	NaN	273	5	21	2	120	220	320	NaN	520	0.182650422444567	1	1	NaN	1721080.8087249	NaN	1721081.792127	1721082.30866768
26	18	1	0	90	36.1581920903955	36.241610738255	7	0.233355695996434	2	8	5	NaN	2	5	0.0885331980424789	0	1	NaN	274	5	22	2	120	220	320	NaN	520	5.23440337460488	2	1	NaN	1721083.3089595	NaN	1721084.2923749	1721084.80891123
26	18	1	0	90	36.1581920903955	36.241610738255	10	0.333365279994905	2	2	6	NaN	1	3	0.0885331980424789	0	1	NaN	275	5	23	2	120	220	320	NaN	520	1.42779677477665	2	0	NaN	1721090.8597189	NaN	1721091.8431141	1721092.35966623
26	18	1	0	90	36.1581920903955	36.241610738255	12	0.400038335993886	2	10	3	NaN	2	3	0.0885331980424789	0	1	NaN	276	5	24	2	120	220	320	NaN	520	0.0104079744778574	1	0	NaN	1721094.593421	NaN	1721095.5768135	1721096.09336543
26	18	1	0	90	36.1581920903955	36.241610738255	23	0.766740143988281	2	11	1	NaN	2	3	0.0885331980424789	0	1	NaN	277	5	25	2	120	220	320	NaN	520	0.0104084748309106	2	1	NaN	1721096.9269782	NaN	1721097.9103744	1721098.42692313
26	18	1	0	90	36.1581920903955	36.241610738255	23	0.766740143988281	2	5	5	NaN	1	3	0.0885331980424789	0	1	NaN	278	5	26	2	120	220	320	NaN	520	0.010420074686408	1	1	NaN	1721099.2605525	NaN	1721100.2439439	1721100.76048063
26	18	1	0	90	36.1581920903955	36.241610738255	16	0.533384447991848	2	4	2	NaN	1	4	0.0885331980424789	0	1	NaN	279	5	27	2	120	220	320	NaN	520	0.589708674699068	1	1	NaN	1721101.5774277	NaN	1721102.5608345	1721103.07737953
26	18	1	0	90	36.1581920903955	36.241610738255	25	0.833413199987263	2	2	5	NaN	1	4	0.0885331980424789	0	1	NaN	280	5	28	2	120	220	320	NaN	520	0.953988774679601	1	1	NaN	1721104.4777109	NaN	1721105.4611288	1721105.97765933
26	18	1	0	90	36.1581920903955	36.241610738255	11	0.366701807994396	2	6	6	NaN	1	5	0.0885331980424789	0	1	NaN	281	5	29	2	120	220	320	NaN	520	0.750519674737006	2	0	NaN	1721107.7447035	NaN	1721108.7281111	1721109.24465173
26	18	1	0	90	36.1581920903955	36.241610738255	19	0.63339403199032	2	4	1	NaN	1	4	0.0885331980424789	0	1	NaN	282	5	30	2	120	220	320	NaN	520	0.0104088746011257	1	1	NaN	1721110.8116791	NaN	1721111.7950684	1721112.31161673
26	18	1	0	90	36.1581920903955	36.241610738255	22	0.733403615988791	2	9	1	NaN	2	4	0.0885331980424789	0	1	NaN	283	5	31	2	120	220	320	NaN	520	0.0104010745417327	1	0	NaN	1721113.1286164	NaN	1721114.1119712	1721114.62851743
26	18	1	0	90	36.1581920903955	36.241610738255	11	0.366701807994396	2	9	4	NaN	2	4	0.0885331980424789	0	1	NaN	284	5	32	2	120	220	320	NaN	520	0.0104063746985048	1	0	NaN	1721115.4621276	NaN	1721116.4455254	1721116.96206863
26	18	1	0	90	36.1581920903955	36.241610738255	8	0.266692223995924	2	9	2	NaN	2	4	0.0885331980424789	0	1	NaN	285	5	33	2	120	220	320	NaN	520	0.0104191747959703	2	1	NaN	1721117.7955663	NaN	1721118.7790862	1721119.29563803
26	18	1	0	90	36.1581920903955	36.241610738255	0	0	1	6	1	NaN	1	5	0.0885331980424789	0	1	NaN	286	5	34	2	110	210	310	NaN	510	0.0104233224410564	1	1	NaN	1721120.1125856	NaN	1721121.0959878	1721121.61252888
26	18	1	0	90	36.1581920903955	36.241610738255	19	0.63339403199032	2	3	5	NaN	1	4	0.0885331980424789	0	1	NaN	287	5	35	2	120	220	320	NaN	520	0.129453274654225	1	1	NaN	1721122.4461455	NaN	1721123.4295388	1721123.94610243
26	18	1	0	90	36.1581920903955	36.241610738255	24	0.800076671987772	2	11	1	NaN	2	5	0.0885331980424789	0	1	NaN	288	5	36	2	120	220	320	NaN	520	0.658227374777198	2	1	NaN	1721125.0130725	NaN	1721125.9964602	1721126.51301043
26	18	1	0	90	36.1581920903955	36.241610738255	18	0.600057503990829	2	11	1	NaN	2	3	0.0885331980424789	0	1	NaN	289	5	37	2	120	220	320	NaN	520	3.00365092675202	2	1	NaN	1721127.9799182	NaN	1721128.9634257	1721129.47997587
26	18	1	0	90	36.1581920903955	36.241610738255	20	0.66673055998981	2	3	2	NaN	1	5	0.0885331980424789	0	1	NaN	290	5	38	2	120	220	320	NaN	520	0.0104051744565368	1	1	NaN	1721133.613778	NaN	1721134.5972899	1721135.11385203
26	18	1	0	90	36.1581920903955	36.241610738255	11	0.366701807994396	2	1	3	NaN	1	3	0.0885331980424789	0	1	NaN	291	5	39	2	120	220	320	NaN	520	0.228665243368596	2	0	NaN	1721135.9308011	NaN	1721136.914215	1721137.43075516
26	18	1	0	90	36.1581920903955	36.241610738255	18	0.600057503990829	2	6	3	NaN	1	3	0.0885331980424789	0	1	NaN	292	5	40	2	120	220	320	NaN	520	0.342943774536252	2	0	NaN	1721138.4643952	NaN	1721139.4477827	1721139.96433693
26	18	1	0	90	36.1581920903955	36.241610738255	8	0.266692223995924	2	6	5	NaN	1	5	0.0885331980424789	0	1	NaN	293	5	41	2	120	220	320	NaN	520	0.0102693436201662	1	1	NaN	1721141.1146411	NaN	1721142.0979434	1721142.61460466
26	18	1	0	90	36.1581920903955	36.241610738255	21	0.700067087989301	2	8	1	NaN	2	5	0.0885331980424789	0	1	NaN	294	5	42	2	120	220	320	NaN	520	0.815242174547166	1	0	NaN	1721143.4482133	NaN	1721144.4316084	1721144.94815233
26	18	1	0	90	36.1581920903955	36.241610738255	8	0.266692223995924	2	2	5	NaN	1	4	0.0885331980424789	0	1	NaN	295	5	43	2	120	220	320	NaN	520	0.010369278723374	2	0	NaN	1721146.581737	NaN	1721147.5652501	1721148.08179232
26	18	1	0	90	36.1581920903955	36.241610738255	21	0.700067087989301	2	10	6	NaN	2	5	0.0885331980424789	0	1	NaN	296	5	44	2	120	220	320	NaN	520	0.74108777474612	2	1	NaN	1721148.898765	NaN	1721149.8821442	1721150.39868663
26	18	1	0	90	36.1581920903955	36.241610738255	11	0.366701807994396	2	9	2	NaN	2	4	0.0885331980424789	0	1	NaN	297	5	45	2	120	220	320	NaN	520	0.0103951266501099	2	1	NaN	1721151.9657119	NaN	1721152.9491246	1721153.46565867
26	18	1	0	90	36.1581920903955	36.241610738255	10	0.333365279994905	2	2	6	NaN	1	3	0.0885331980424789	0	1	NaN	298	5	46	2	120	220	320	NaN	520	0.468288674717769	1	1	NaN	1721154.2992808	NaN	1721155.2826656	1721155.79921903
26	18	1	0	90	36.1581920903955	36.241610738255	24	0.800076671987772	2	6	3	NaN	1	3	0.0885331980424789	0	1	NaN	299	5	47	2	120	220	320	NaN	520	0.0104104746133089	1	1	NaN	1721157.0828777	NaN	1721158.066286	1721158.58282643
26	18	1	0	90	36.1581920903955	36.241610738255	21	0.700067087989301	2	10	3	NaN	2	5	0.0885331980424789	0	1	NaN	300	5	48	2	120	220	320	NaN	520	1.84747737459838	2	1	NaN	1721159.3997744	NaN	1721160.3831708	1721160.89971713
26	18	1	0	90	36.1581920903955	36.241610738255	9	0.300028751995415	2	8	4	NaN	2	4	0.0885331980424789	0	1	NaN	301	5	49	2	120	220	320	NaN	520	1.14062512665987	1	0	NaN	1721163.8668864	NaN	1721164.8503037	1721165.36683247
26	18	1	0	90	36.1581920903955	36.241610738255	0	0	1	7	5	NaN	2	5	0.0885331980424789	0	1	NaN	302	5	50	2	110	210	310	NaN	510	0.314615626819432	1	0	NaN	1721167.31721	NaN	1721168.3006192	1721168.81715727
26	18	1	0	90	36.1581920903955	36.241610738255	22	0.733403615988791	2	8	2	NaN	2	3	0.0885331980424789	0	1	NaN	303	5	51	2	120	220	320	NaN	520	1.49645062256604	2	1	NaN	1721169.9508027	NaN	1721170.9342104	1721171.45074878
26	18	1	0	90	36.1581920903955	36.241610738255	23	0.766740143988281	2	12	2	NaN	2	5	0.0885331980424789	0	1	NaN	304	5	52	2	120	220	320	NaN	520	0.647590935230255	2	1	NaN	1721173.7679294	NaN	1721174.751243	1721175.26779886
26	18	1	0	90	36.1581920903955	36.241610738255	18	0.600057503990829	2	9	1	NaN	2	3	0.0885331980424789	0	1	NaN	305	5	53	2	120	220	320	NaN	520	0.0104090746026486	2	1	NaN	1721176.7348202	NaN	1721177.7182079	1721178.23475733
26	18	1	0	90	36.1581920903955	36.241610738255	22	0.733403615988791	2	12	1	NaN	2	3	0.0885331980424789	0	1	NaN	306	5	54	2	120	220	320	NaN	520	0.131917374674231	2	1	NaN	1721179.0517107	NaN	1721180.0350989	1721180.55165063
26	18	1	0	90	36.1581920903955	36.241610738255	24	0.800076671987772	2	8	6	NaN	2	3	0.0885331980424789	0	1	NaN	307	5	55	2	120	220	320	NaN	520	0.0103742787614465	2	1	NaN	1721181.5018144	NaN	1721182.4853485	1721183.00189032
26	18	1	0	90	36.1581920903955	36.241610738255	21	0.700067087989301	2	7	4	NaN	2	3	0.0885331980424789	0	1	NaN	308	5	56	2	120	220	320	NaN	520	0.828509639482945	2	1	NaN	1721183.8188287	NaN	1721184.8022372	1721185.31878916
26	18	1	0	90	36.1581920903955	36.241610738255	14	0.466711391992867	2	8	5	NaN	2	5	0.0885331980424789	0	1	NaN	309	5	57	2	120	220	320	NaN	520	0.462408422492445	1	0	NaN	1721186.969144	NaN	1721187.9525488	1721188.46909488
26	18	1	0	90	36.1581920903955	36.241610738255	0	0	1	6	2	NaN	1	4	0.0885331980424789	0	1	NaN	310	5	58	2	110	210	310	NaN	510	0.0103884267155081	1	1	NaN	1721189.7360863	NaN	1721190.7194795	1721191.23603477
26	18	1	0	90	36.1581920903955	36.241610738255	19	0.63339403199032	2	1	1	NaN	1	5	0.0885331980424789	0	1	NaN	311	5	59	2	120	220	320	NaN	520	0.0103867268189788	1	1	NaN	1721192.0529644	NaN	1721193.0363802	1721193.55292537
26	18	1	0	90	36.1581920903955	36.241610738255	6	0.200019167996943	2	2	1	NaN	1	5	0.0885331980424789	0	1	NaN	312	5	60	2	120	220	320	NaN	520	0.0103735306765884	1	1	NaN	1721194.3865106	NaN	1721195.3699433	1721195.88649517
26	18	1	0	90	36.1581920903955	36.241610738255	20	0.66673055998981	2	4	3	NaN	1	4	0.0885331980424789	0	1	NaN	313	5	61	2	120	220	320	NaN	520	1.09565937472507	1	1	NaN	1721196.7201289	NaN	1721197.703511	1721198.22004693
26	18	1	0	90	36.1581920903955	36.241610738255	18	0.600057503990829	2	12	2	NaN	2	4	0.0885331980424789	0	1	NaN	314	5	62	2	120	220	320	NaN	520	0.0943097746931016	2	1	NaN	1721200.1371083	NaN	1721201.1205073	1721201.63704523
26	18	1	0	90	36.1581920903955	36.241610738255	19	0.63339403199032	2	1	6	NaN	1	3	0.0885331980424789	0	1	NaN	315	5	63	2	120	220	320	NaN	520	0.141381626715884	2	0	NaN	1721202.5540085	NaN	1721203.5374135	1721204.05396187
26	18	1	0	90	36.1581920903955	36.241610738255	23	0.766740143988281	2	6	4	NaN	1	5	0.0885331980424789	0	1	NaN	316	6	1	2	120	220	320	NaN	520	1.24594292673282	1	1	NaN	1721212.1216076	NaN	1721213.1050108	1721213.62155727
26	18	1	0	90	36.1581920903955	36.241610738255	10	0.333365279994905	2	12	6	NaN	2	5	0.0885331980424789	0	1	NaN	317	6	2	2	120	220	320	NaN	520	1.02271542674862	2	1	NaN	1721215.6886603	NaN	1721216.6720291	1721217.18858227
26	18	1	0	90	36.1581920903955	36.241610738255	22	0.733403615988791	2	12	1	NaN	2	3	0.0885331980424789	0	1	NaN	318	6	3	2	120	220	320	NaN	520	1.56152913509868	2	1	NaN	1721219.0222845	NaN	1721220.005681	1721220.52223916
26	18	1	0	90	36.1581920903955	36.241610738255	8	0.266692223995924	2	10	1	NaN	2	3	0.0885331980424789	0	1	NaN	319	6	4	2	120	220	320	NaN	520	0.0102674434892833	2	1	NaN	1721222.9226542	NaN	1721223.9060726	1721224.42263026
26	18	1	0	90	36.1581920903955	36.241610738255	9	0.300028751995415	2	9	1	NaN	2	4	0.0885331980424789	0	1	NaN	320	6	5	2	120	220	320	NaN	520	0.23227672255598	2	1	NaN	1721225.2395692	NaN	1721226.2229734	1721226.73951998
26	18	1	0	90	36.1581920903955	36.241610738255	0	0	1	3	2	NaN	1	4	0.0885331980424789	0	1	NaN	321	6	6	2	110	210	310	NaN	510	0.0103962270077318	1	1	NaN	1721227.7731829	NaN	1721228.7565498	1721229.27310017
26	18	1	0	90	36.1581920903955	36.241610738255	9	0.300028751995415	2	11	4	NaN	2	5	0.0885331980424789	0	1	NaN	322	6	7	2	120	220	320	NaN	520	0.0104049746878445	2	1	NaN	1721230.0900439	NaN	1721231.0734445	1721231.58999713
26	18	1	0	90	36.1581920903955	36.241610738255	6	0.200019167996943	2	4	3	NaN	1	3	0.0885331980424789	0	1	NaN	323	6	8	2	120	220	320	NaN	520	0.0104005269240588	1	1	NaN	1721232.4069649	NaN	1721233.3903373	1721233.90689067
26	18	1	0	90	36.1581920903955	36.241610738255	21	0.700067087989301	2	3	1	NaN	1	5	0.0885331980424789	0	1	NaN	324	6	9	2	120	220	320	NaN	520	1.52361097466201	1	1	NaN	1721234.7238375	NaN	1721235.7072229	1721236.22378353
26	18	1	0	90	36.1581920903955	36.241610738255	12	0.400038335993886	2	9	3	NaN	2	4	0.0885331980424789	0	1	NaN	325	6	10	2	120	220	320	NaN	520	2.1538187705446	2	1	NaN	1721238.5575376	NaN	1721239.540933	1721240.05749853
26	18	1	0	90	36.1581920903955	36.241610738255	24	0.800076671987772	2	12	6	NaN	2	3	0.0885331980424789	0	1	NaN	326	6	11	2	120	220	320	NaN	520	0.0104111745022237	2	1	NaN	1721243.0246401	NaN	1721244.0080486	1721244.52458743
26	18	1	0	90	36.1581920903955	36.241610738255	24	0.800076671987772	2	12	6	NaN	2	4	0.0885331980424789	0	1	NaN	327	6	12	2	120	220	320	NaN	520	0.0105322746094316	2	1	NaN	1721245.34155	NaN	1721246.3249297	1721246.84151143
26	18	1	0	90	36.1581920903955	36.241610738255	7	0.233355695996434	2	8	5	NaN	2	4	0.0885331980424789	0	1	NaN	328	6	13	2	120	220	320	NaN	520	0.554539470467716	2	1	NaN	1721248.1251466	NaN	1721249.1086159	1721249.62509083
26	18	1	0	90	36.1581920903955	36.241610738255	13	0.433374863993377	2	1	4	NaN	1	4	0.0885331980424789	0	1	NaN	329	6	14	2	120	220	320	NaN	520	0.343576726736501	1	1	NaN	1721250.9920864	NaN	1721251.9754987	1721252.49204417
26	18	1	0	90	36.1581920903955	36.241610738255	21	0.700067087989301	2	12	3	NaN	2	3	0.0885331980424789	0	1	NaN	330	6	15	2	120	220	320	NaN	520	0.285216426942497	2	1	NaN	1721253.642355	NaN	1721254.6257808	1721255.14231047
26	18	1	0	90	36.1581920903955	36.241610738255	22	0.733403615988791	2	5	4	NaN	1	3	0.0885331980424789	0	1	NaN	331	6	16	2	120	220	320	NaN	520	0.0104086748324335	1	1	NaN	1721256.2426264	NaN	1721257.2260045	1721257.74255483
26	18	1	0	90	36.1581920903955	36.241610738255	10	0.333365279994905	2	9	3	NaN	2	4	0.0885331980424789	0	1	NaN	332	6	17	2	120	220	320	NaN	520	1.03965614363551	2	1	NaN	1721258.5761856	NaN	1721259.5595743	1721260.07613136
26	18	1	0	90	36.1581920903955	36.241610738255	17	0.566720975991339	2	8	3	NaN	2	5	0.0885331980424789	0	1	NaN	333	6	18	2	120	220	320	NaN	520	0.28128782263957	1	0	NaN	1721261.9265049	NaN	1721262.9098946	1721263.42644508
26	18	1	0	90	36.1581920903955	36.241610738255	22	0.733403615988791	2	9	4	NaN	2	4	0.0885331980424789	0	1	NaN	334	6	19	2	120	220	320	NaN	520	1.01687798299827	2	1	NaN	1721264.526759	NaN	1721265.5101612	1721266.02670012
26	18	1	0	90	36.1581920903955	36.241610738255	10	0.333365279994905	2	7	1	NaN	2	3	0.0885331980424789	0	1	NaN	335	6	20	2	120	220	320	NaN	520	0.347296474501491	1	0	NaN	1721267.8604226	NaN	1721268.8438037	1721269.36036223
26	18	1	0	90	36.1581920903955	36.241610738255	8	0.266692223995924	2	12	3	NaN	2	3	0.0885331980424789	0	1	NaN	336	6	21	2	120	220	320	NaN	520	0.161229474470019	2	1	NaN	1721270.5106956	NaN	1721271.4940776	1721272.01063173
26	18	1	0	90	36.1581920903955	36.241610738255	19	0.63339403199032	2	6	1	NaN	1	3	0.0885331980424789	0	1	NaN	337	6	22	2	120	220	320	NaN	520	0.0103857787325978	1	1	NaN	1721272.9775773	NaN	1721273.9609832	1721274.47753322
26	18	1	0	90	36.1581920903955	36.241610738255	12	0.400038335993886	2	2	5	NaN	1	4	0.0885331980424789	0	1	NaN	338	6	23	2	120	220	320	NaN	520	0.273129574721679	2	0	NaN	1721275.2945056	NaN	1721276.2778801	1721276.79443453
26	18	1	0	90	36.1581920903955	36.241610738255	8	0.266692223995924	2	5	5	NaN	1	5	0.0885331980424789	0	1	NaN	339	6	24	2	120	220	320	NaN	520	0.010417822515592	1	1	NaN	1721277.8780716	NaN	1721278.8614676	1721279.37801088
26	18	1	0	90	36.1581920903955	36.241610738255	23	0.766740143988281	2	3	6	NaN	1	3	0.0885331980424789	0	1	NaN	340	6	25	2	120	220	320	NaN	520	0.0104067747015506	1	1	NaN	1721280.2116404	NaN	1721281.1950361	1721281.71157633
26	18	1	0	90	36.1581920903955	36.241610738255	14	0.466711391992867	2	1	2	NaN	1	5	0.0885331980424789	0	1	NaN	341	6	26	2	120	220	320	NaN	520	0.183379774680361	1	1	NaN	1721282.5286238	NaN	1721283.5119306	1721284.02846913
26	18	1	0	90	36.1581920903955	36.241610738255	12	0.400038335993886	2	3	2	NaN	1	3	0.0885331980424789	0	1	NaN	342	6	27	2	120	220	320	NaN	520	0.47494672681205	1	1	NaN	1721285.0286331	NaN	1721286.0122693	1721286.52872147
26	18	1	0	90	36.1581920903955	36.241610738255	6	0.200019167996943	2	12	2	NaN	2	5	0.0885331980424789	0	1	NaN	343	6	28	2	120	220	320	NaN	520	0.851231526816264	2	1	NaN	1721287.8123823	NaN	1721288.7957711	1721289.31232667
26	18	1	0	90	36.1581920903955	36.241610738255	19	0.63339403199032	2	6	3	NaN	1	5	0.0885331980424789	0	1	NaN	344	6	29	2	120	220	320	NaN	520	0.90022772247903	1	1	NaN	1721290.9793568	NaN	1721291.9626477	1721292.47929528
26	18	1	0	90	36.1581920903955	36.241610738255	10	0.333365279994905	2	1	3	NaN	1	3	0.0885331980424789	0	1	NaN	345	6	30	2	120	220	320	NaN	520	0.251354474574327	1	1	NaN	1721294.196325	NaN	1721295.1797787	1721295.69628523
26	18	1	0	90	36.1581920903955	36.241610738255	12	0.400038335993886	2	11	1	NaN	2	4	0.0885331980424789	0	1	NaN	346	6	31	2	120	220	320	NaN	520	0.212682926794514	2	1	NaN	1721296.7632571	NaN	1721297.7466573	1721298.26320597
26	18	1	0	90	36.1581920903955	36.241610738255	21	0.700067087989301	2	11	2	NaN	2	3	0.0885331980424789	0	1	NaN	347	6	32	2	120	220	320	NaN	520	0.0388162788003683	2	1	NaN	1721299.2968484	NaN	1721300.2802517	1721300.79678182
26	18	1	0	90	36.1581920903955	36.241610738255	16	0.533384447991848	2	8	2	NaN	2	3	0.0885331980424789	0	1	NaN	348	6	33	2	120	220	320	NaN	520	0.0565476745832711	2	1	NaN	1721301.6470521	NaN	1721302.6304683	1721303.14701803
26	18	1	0	90	36.1581920903955	36.241610738255	18	0.600057503990829	2	9	3	NaN	2	4	0.0885331980424789	0	1	NaN	349	6	34	2	120	220	320	NaN	520	0.0104087747167796	2	1	NaN	1721304.0139573	NaN	1721304.9973692	1721305.51391083
26	18	1	0	90	36.1581920903955	36.241610738255	23	0.766740143988281	2	8	3	NaN	2	3	0.0885331980424789	0	1	NaN	350	6	35	2	120	220	320	NaN	520	0.444797726580873	1	0	NaN	1721306.3308701	NaN	1721307.3142608	1721307.83081347
26	18	1	0	90	36.1581920903955	36.241610738255	7	0.233355695996434	2	6	5	NaN	1	3	0.0885331980424789	0	1	NaN	351	6	36	2	120	220	320	NaN	520	0.0104072745889425	1	1	NaN	1721309.0811398	NaN	1721310.0645315	1721310.58107003
26	18	1	0	90	36.1581920903955	36.241610738255	13	0.433374863993377	2	3	5	NaN	1	3	0.0885331980424789	0	1	NaN	352	6	37	2	120	220	320	NaN	520	0.121809674659744	2	0	NaN	1721311.3979866	NaN	1721312.3814268	1721312.89797773
26	18	1	0	90	36.1581920903955	36.241610738255	22	0.733403615988791	2	2	5	NaN	1	4	0.0885331980424789	0	1	NaN	353	6	38	2	120	220	320	NaN	520	0.0104028747882694	1	1	NaN	1721313.831605	NaN	1721314.8150306	1721315.33154103
26	18	1	0	90	36.1581920903955	36.241610738255	0	0	1	4	2	NaN	1	3	0.0885331980424789	0	1	NaN	354	6	39	2	110	210	310	NaN	510	0.0104008268099278	1	1	NaN	1721316.165051	NaN	1721317.1485596	1721317.66511047
26	18	1	0	90	36.1581920903955	36.241610738255	16	0.533384447991848	2	1	1	NaN	1	5	0.0885331980424789	0	1	NaN	355	6	40	2	120	220	320	NaN	520	0.0103885265998542	1	1	NaN	1721318.4819949	NaN	1721319.4654487	1721319.98200297
26	18	1	0	90	36.1581920903955	36.241610738255	13	0.433374863993377	2	10	3	NaN	2	4	0.0885331980424789	0	1	NaN	356	6	41	2	120	220	320	NaN	520	0.0480327224358916	2	1	NaN	1721320.8156224	NaN	1721321.7990186	1721322.31555828
26	18	1	0	90	36.1581920903955	36.241610738255	0	0	1	8	1	NaN	2	5	0.0885331980424789	0	1	NaN	357	6	42	2	110	210	310	NaN	510	1.08116942690685	2	1	NaN	1721323.1825143	NaN	1721324.1658969	1721324.68246467
26	18	1	0	90	36.1581920903955	36.241610738255	15	0.500047919992358	2	12	1	NaN	2	5	0.0885331980424789	0	1	NaN	358	6	43	2	120	220	320	NaN	520	0.0104203226510435	2	1	NaN	1721326.582807	NaN	1721327.5662466	1721328.08279008
26	18	1	0	90	36.1581920903955	36.241610738255	23	0.766740143988281	2	2	4	NaN	1	4	0.0885331980424789	0	1	NaN	359	6	44	2	120	220	320	NaN	520	0.0104107747320086	1	1	NaN	1721328.8997452	NaN	1721329.88314	1721330.39968713
26	18	1	0	90	36.1581920903955	36.241610738255	23	0.766740143988281	2	2	1	NaN	1	4	0.0885331980424789	0	1	NaN	360	6	45	2	120	220	320	NaN	520	0.526881395839155	1	1	NaN	1721331.2333043	NaN	1721332.2167033	1721332.7332597
26	18	1	0	90	36.1581920903955	36.241610738255	6	0.200019167996943	2	7	1	NaN	2	5	0.0885331980424789	0	1	NaN	361	6	46	2	120	220	320	NaN	520	0.732750974595547	2	1	NaN	1721334.0669665	NaN	1721335.0503131	1721335.56686553
26	18	1	0	90	36.1581920903955	36.241610738255	20	0.66673055998981	2	10	5	NaN	2	5	0.0885331980424789	0	1	NaN	362	6	47	2	120	220	320	NaN	520	0.138524974696338	1	0	NaN	1721337.1172242	NaN	1721338.1005058	1721338.61715733
26	18	1	0	90	36.1581920903955	36.241610738255	15	0.500047919992358	2	10	3	NaN	2	4	0.0885331980424789	0	1	NaN	363	6	48	2	120	220	320	NaN	520	0.136255574645475	2	1	NaN	1721339.5674607	NaN	1721340.5508562	1721341.06739763
26	18	1	0	90	36.1581920903955	36.241610738255	15	0.500047919992358	2	4	1	NaN	1	4	0.0885331980424789	0	1	NaN	364	6	49	2	120	220	320	NaN	520	0.0102783916518092	1	1	NaN	1721342.0176913	NaN	1721343.0010798	1721343.51764451
26	18	1	0	90	36.1581920903955	36.241610738255	9	0.300028751995415	2	11	6	NaN	2	3	0.0885331980424789	0	1	NaN	365	6	50	2	120	220	320	NaN	520	0.0103471830952913	2	1	NaN	1721344.3345997	NaN	1721345.3179995	1721345.83453402
26	18	1	0	90	36.1581920903955	36.241610738255	19	0.63339403199032	2	7	5	NaN	2	3	0.0885331980424789	0	1	NaN	366	6	51	2	120	220	320	NaN	520	0.0104239745996892	2	1	NaN	1721346.6681604	NaN	1721347.6515517	1721348.16810093
26	18	1	0	90	36.1581920903955	36.241610738255	22	0.733403615988791	2	10	6	NaN	2	5	0.0885331980424789	0	1	NaN	367	6	52	2	120	220	320	NaN	520	0.158036574721336	2	1	NaN	1721349.0017024	NaN	1721349.9851356	1721350.50166013
26	18	1	0	90	36.1581920903955	36.241610738255	13	0.433374863993377	2	8	2	NaN	2	5	0.0885331980424789	0	1	NaN	368	6	53	2	120	220	320	NaN	520	0.0103905266150832	2	1	NaN	1721351.4685329	NaN	1721352.4520226	1721352.96857677
26	18	1	0	90	36.1581920903955	36.241610738255	8	0.266692223995924	2	1	6	NaN	1	4	0.0885331980424789	0	1	NaN	369	6	54	2	120	220	320	NaN	520	0.0941615747287869	1	1	NaN	1721353.7853857	NaN	1721354.7689242	1721355.28545743
26	18	1	0	90	36.1581920903955	36.241610738255	13	0.433374863993377	2	11	1	NaN	2	5	0.0885331980424789	0	1	NaN	370	6	55	2	120	220	320	NaN	520	2.44602517480962	2	1	NaN	1721356.1856389	NaN	1721357.169162	1721357.68569653
26	18	1	0	90	36.1581920903955	36.241610738255	23	0.766740143988281	2	7	1	NaN	2	5	0.0885331980424789	0	1	NaN	371	6	56	2	120	220	320	NaN	520	1.4266993268393	2	1	NaN	1721361.2528961	NaN	1721362.2363184	1721362.75287077
26	18	1	0	90	36.1581920903955	36.241610738255	21	0.700067087989301	2	8	4	NaN	2	4	0.0885331980424789	0	1	NaN	372	6	57	2	120	220	320	NaN	520	0.0104312223847955	2	1	NaN	1721365.0032002	NaN	1721365.9867325	1721366.50322438
26	18	1	0	90	36.1581920903955	36.241610738255	14	0.466711391992867	2	6	6	NaN	1	3	0.0885331980424789	0	1	NaN	373	6	58	2	120	220	320	NaN	520	0.0103916269727051	1	1	NaN	1721367.3202059	NaN	1721368.3035792	1721368.82013297
26	18	1	0	90	36.1581920903955	36.241610738255	12	0.400038335993886	2	4	1	NaN	1	4	0.0885331980424789	0	1	NaN	374	6	59	2	120	220	320	NaN	520	0.0103943268768489	1	1	NaN	1721369.6370633	NaN	1721370.6204129	1721371.13702607
26	18	1	0	90	36.1581920903955	36.241610738255	0	0	1	11	3	NaN	2	5	0.0885331980424789	0	1	NaN	375	6	60	2	110	210	310	NaN	510	2.65403587464243	2	1	NaN	1721371.9539619	NaN	1721372.9373765	1721373.45391593
26	18	1	0	90	36.1581920903955	36.241610738255	25	0.833413199987263	2	1	5	NaN	1	5	0.0885331980424789	0	1	NaN	376	6	61	2	120	220	320	NaN	520	0.186166922561824	1	1	NaN	1721377.2377988	NaN	1721378.2212221	1721378.73777238
26	18	1	0	90	36.1581920903955	36.241610738255	12	0.400038335993886	2	9	5	NaN	2	5	0.0885331980424789	0	1	NaN	377	6	62	2	120	220	320	NaN	520	0.0103909268509597	2	1	NaN	1721379.738057	NaN	1721380.7214605	1721381.23800977
26	18	1	0	90	36.1581920903955	36.241610738255	20	0.66673055998981	2	12	4	NaN	2	4	0.0885331980424789	0	1	NaN	378	6	63	2	120	220	320	NaN	520	0.584714074619114	2	1	NaN	1721382.054954	NaN	1721383.038358	1721383.55490473
26	18	1	0	90	36.1581920903955	36.241610738255	9	0.300028751995415	2	8	5	NaN	2	3	0.0885331980424789	0	1	NaN	379	7	1	2	120	220	320	NaN	520	0.877796022687107	2	1	NaN	1721402.6903125	NaN	1721403.6737072	1721404.19026608
26	18	1	0	90	36.1581920903955	36.241610738255	12	0.400038335993886	2	6	6	NaN	1	4	0.0885331980424789	0	1	NaN	380	7	2	2	120	220	320	NaN	520	0.0104084745980799	2	0	NaN	1721405.8739678	NaN	1721406.8573493	1721407.37391553
26	18	1	0	90	36.1581920903955	36.241610738255	0	0	1	1	1	NaN	1	5	0.0885331980424789	0	1	NaN	381	7	3	2	110	210	310	NaN	510	0.616084274603054	1	1	NaN	1721408.2073941	NaN	1721409.1909255	1721409.70747213
26	18	1	0	90	36.1581920903955	36.241610738255	6	0.200019167996943	2	10	2	NaN	2	4	0.0885331980424789	0	1	NaN	382	7	4	2	120	220	320	NaN	520	0.709841922624037	2	1	NaN	1721411.6578582	NaN	1721412.6412668	1721413.15780938
26	18	1	0	90	36.1581920903955	36.241610738255	8	0.266692223995924	2	5	4	NaN	1	3	0.0885331980424789	0	1	NaN	383	7	5	2	120	220	320	NaN	520	0.0104034745600075	1	1	NaN	1721414.6747064	NaN	1721415.6582188	1721416.17477943
26	18	1	0	90	36.1581920903955	36.241610738255	24	0.800076671987772	2	2	1	NaN	1	4	0.0885331980424789	0	1	NaN	384	7	6	2	120	220	320	NaN	520	0.0104097747243941	2	0	NaN	1721416.9917387	NaN	1721417.9751223	1721418.49166253
26	18	1	0	90	36.1581920903955	36.241610738255	21	0.700067087989301	2	3	3	NaN	1	5	0.0885331980424789	0	1	NaN	385	7	7	2	120	220	320	NaN	520	0.0104000747669488	1	1	NaN	1721419.4753097	NaN	1721420.4587027	1721420.97523873
26	18	1	0	90	36.1581920903955	36.241610738255	6	0.200019167996943	2	6	6	NaN	1	3	0.0885331980424789	0	1	NaN	386	7	8	2	120	220	320	NaN	520	0.0102903917431831	1	1	NaN	1721421.7921963	NaN	1721422.7755836	1721423.29213751
26	18	1	0	90	36.1581920903955	36.241610738255	19	0.63339403199032	2	2	5	NaN	1	4	0.0885331980424789	0	1	NaN	387	7	9	2	120	220	320	NaN	520	1.02674447465688	2	0	NaN	1721424.1090778	NaN	1721425.0924892	1721425.60904373
26	18	1	0	90	36.1581920903955	36.241610738255	0	0	1	12	1	NaN	2	4	0.0885331980424789	0	1	NaN	388	7	10	2	110	210	310	NaN	510	0.429071374470368	2	1	NaN	1721427.4427666	NaN	1721428.4260431	1721428.94268933
26	18	1	0	90	36.1581920903955	36.241610738255	10	0.333365279994905	2	3	5	NaN	1	3	0.0885331980424789	0	1	NaN	389	7	11	2	120	220	320	NaN	520	0.0104217745829374	1	1	NaN	1721430.1762844	NaN	1721431.1597486	1721431.67628793
26	18	1	0	90	36.1581920903955	36.241610738255	21	0.700067087989301	2	4	6	NaN	1	4	0.0885331980424789	0	1	NaN	390	7	12	2	120	220	320	NaN	520	0.0104068745858967	1	1	NaN	1721432.4932568	NaN	1721433.4766366	1721433.99318833
26	18	1	0	90	36.1581920903955	36.241610738255	22	0.733403615988791	2	10	5	NaN	2	3	0.0885331980424789	0	1	NaN	391	7	13	2	120	220	320	NaN	520	0.0104191747959703	1	0	NaN	1721435.2100671	NaN	1721436.1935757	1721436.71011523
26	18	1	0	90	36.1581920903955	36.241610738255	20	0.66673055998981	2	11	6	NaN	2	4	0.0885331980424789	0	1	NaN	392	7	14	2	120	220	320	NaN	520	0.0104042747989297	2	1	NaN	1721437.5437443	NaN	1721438.5271201	1721439.04367903
26	18	1	0	90	36.1581920903955	36.241610738255	13	0.433374863993377	2	9	2	NaN	2	3	0.0885331980424789	0	1	NaN	393	7	15	2	120	220	320	NaN	520	0.37081912253052	2	1	NaN	1721439.8773141	NaN	1721440.8606982	1721441.37724568
26	18	1	0	90	36.1581920903955	36.241610738255	6	0.200019167996943	2	1	3	NaN	1	4	0.0885331980424789	0	1	NaN	394	7	16	2	120	220	320	NaN	520	0.0103921268600971	1	1	NaN	1721442.5609236	NaN	1721443.5442973	1721444.06084417
26	18	1	0	90	36.1581920903955	36.241610738255	18	0.600057503990829	2	5	3	NaN	1	5	0.0885331980424789	0	1	NaN	395	7	17	2	120	220	320	NaN	520	0.0104013746604323	1	1	NaN	1721444.8777945	NaN	1721445.8611904	1721446.37773703
26	18	1	0	90	36.1581920903955	36.241610738255	24	0.800076671987772	2	2	3	NaN	1	4	0.0885331980424789	0	1	NaN	396	7	18	2	120	220	320	NaN	520	0.0124461746308953	2	0	NaN	1721447.2113494	NaN	1721448.1947615	1721448.71129913
26	18	1	0	90	36.1581920903955	36.241610738255	17	0.566720975991339	2	9	1	NaN	2	4	0.0885331980424789	0	1	NaN	397	7	19	2	120	220	320	NaN	520	0.010382326785475	2	1	NaN	1721449.5282317	NaN	1721450.511646	1721451.02819887
26	18	1	0	90	36.1581920903955	36.241610738255	17	0.566720975991339	2	12	1	NaN	2	4	0.0885331980424789	0	1	NaN	398	7	20	2	120	220	320	NaN	520	0.227034074719995	1	0	NaN	1721451.8451381	NaN	1721452.8285588	1721453.34509083
26	18	1	0	90	36.1581920903955	36.241610738255	19	0.63339403199032	2	11	3	NaN	2	3	0.0885331980424789	0	1	NaN	399	7	21	2	120	220	320	NaN	520	0.956566339358687	2	1	NaN	1721455.1954434	NaN	1721456.1788801	1721456.69542346
26	18	1	0	90	36.1581920903955	36.241610738255	17	0.566720975991339	2	7	4	NaN	2	4	0.0885331980424789	0	1	NaN	400	7	22	2	120	220	320	NaN	520	0.94531462690793	2	1	NaN	1721458.4624711	NaN	1721459.445856	1721459.96240917
26	18	1	0	90	36.1581920903955	36.241610738255	11	0.366701807994396	2	12	5	NaN	2	3	0.0885331980424789	0	1	NaN	401	7	23	2	120	220	320	NaN	520	0.0104342268314213	2	1	NaN	1721461.7295295	NaN	1721462.7128446	1721463.22939717
26	18	1	0	90	36.1581920903955	36.241610738255	23	0.766740143988281	2	7	6	NaN	2	4	0.0885331980424789	0	1	NaN	402	7	24	2	120	220	320	NaN	520	0.161171643529087	2	1	NaN	1721464.0630587	NaN	1721465.0464083	1721465.56295896
26	18	1	0	90	36.1581920903955	36.241610738255	10	0.333365279994905	2	4	4	NaN	1	4	0.0885331980424789	0	1	NaN	403	7	25	2	120	220	320	NaN	520	0.294234574772418	1	1	NaN	1721466.5299061	NaN	1721467.5133149	1721468.02985723
26	18	1	0	90	36.1581920903955	36.241610738255	13	0.433374863993377	2	5	4	NaN	1	3	0.0885331980424789	0	1	NaN	404	7	26	2	120	220	320	NaN	520	0.549945926759392	1	1	NaN	1721469.1302102	NaN	1721470.1135671	1721470.63011397
26	18	1	0	90	36.1581920903955	36.241610738255	22	0.733403615988791	2	1	5	NaN	1	5	0.0885331980424789	0	1	NaN	405	7	27	2	120	220	320	NaN	520	0.130828074645251	1	1	NaN	1721471.9969977	NaN	1721472.9805255	1721473.49707013
26	18	1	0	90	36.1581920903955	36.241610738255	20	0.66673055998981	2	1	6	NaN	1	3	0.0885331980424789	0	1	NaN	406	7	28	2	120	220	320	NaN	520	0.0104073744732887	2	0	NaN	1721474.4473754	NaN	1721475.4307552	1721475.94732023
26	18	1	0	90	36.1581920903955	36.241610738255	0	0	1	3	4	NaN	1	5	0.0885331980424789	0	1	NaN	407	7	29	2	110	210	310	NaN	510	1.26789627457038	2	0	NaN	1721476.764255	NaN	1721477.7476585	1721478.26419723
26	18	1	0	90	36.1581920903955	36.241610738255	14	0.466711391992867	2	10	4	NaN	2	4	0.0885331980424789	0	1	NaN	408	7	30	2	120	220	320	NaN	520	0.691733874613419	2	1	NaN	1721480.3479401	NaN	1721481.3313511	1721481.84789113
26	18	1	0	90	36.1581920903955	36.241610738255	14	0.466711391992867	2	4	2	NaN	1	4	0.0885331980424789	0	1	NaN	409	7	31	2	120	220	320	NaN	520	0.0104136746376753	1	1	NaN	1721483.3481583	NaN	1721484.3316343	1721484.84817493
26	18	1	0	90	36.1581920903955	36.241610738255	6	0.200019167996943	2	10	6	NaN	2	4	0.0885331980424789	0	1	NaN	410	7	32	2	120	220	320	NaN	520	0.350619070231915	2	1	NaN	1721485.6651186	NaN	1721486.6485072	1721487.16506823
26	18	1	0	90	36.1581920903955	36.241610738255	8	0.266692223995924	2	7	3	NaN	2	4	0.0885331980424789	0	1	NaN	411	7	33	2	120	220	320	NaN	520	0.787703822366893	1	0	NaN	1721488.3319197	NaN	1721489.3154594	1721489.83200398
26	18	1	0	90	36.1581920903955	36.241610738255	9	0.300028751995415	2	10	4	NaN	2	4	0.0885331980424789	0	1	NaN	412	7	34	2	120	220	320	NaN	520	0.215858043404296	2	1	NaN	1721491.4323615	NaN	1721492.415753	1721492.93231576
26	18	1	0	90	36.1581920903955	36.241610738255	14	0.466711391992867	2	9	2	NaN	2	3	0.0885331980424789	0	1	NaN	413	7	35	2	120	220	320	NaN	520	0.122054526815191	1	0	NaN	1721493.9658271	NaN	1721494.9493887	1721495.46589167
26	18	1	0	90	36.1581920903955	36.241610738255	13	0.433374863993377	2	2	2	NaN	1	3	0.0885331980424789	0	1	NaN	414	7	36	2	120	220	320	NaN	520	0.0484898267313838	1	1	NaN	1721496.3996267	NaN	1721497.3829094	1721497.89946437
26	18	1	0	90	36.1581920903955	36.241610738255	11	0.366701807994396	2	7	3	NaN	2	4	0.0885331980424789	0	1	NaN	415	7	37	2	120	220	320	NaN	520	0.0735039955470711	2	1	NaN	1721498.7664051	NaN	1721499.7498022	1721500.2663725
26	18	1	0	90	36.1581920903955	36.241610738255	14	0.466711391992867	2	12	4	NaN	2	3	0.0885331980424789	0	1	NaN	416	7	38	2	120	220	320	NaN	520	0.0104015746619552	1	0	NaN	1721501.150002	NaN	1721502.1333858	1721502.64992483
26	18	1	0	90	36.1581920903955	36.241610738255	17	0.566720975991339	2	1	6	NaN	1	4	0.0885331980424789	0	1	NaN	417	7	39	2	120	220	320	NaN	520	1.8769902267959	1	1	NaN	1721503.4668695	NaN	1721504.4502813	1721504.96681977
26	18	1	0	90	36.1581920903955	36.241610738255	20	0.66673055998981	2	9	3	NaN	2	5	0.0885331980424789	0	1	NaN	418	7	40	2	120	220	320	NaN	520	0.0103485831059515	2	1	NaN	1721508.6006906	NaN	1721509.5841123	1721510.10065902
26	18	1	0	90	36.1581920903955	36.241610738255	0	0	1	1	1	NaN	1	4	0.0885331980424789	0	1	NaN	419	7	41	2	110	210	310	NaN	510	0.0104060745798051	2	0	NaN	1721510.9175301	NaN	1721511.9010049	1721512.41754653
26	18	1	0	90	36.1581920903955	36.241610738255	25	0.833413199987263	2	6	5	NaN	1	3	0.0885331980424789	0	1	NaN	420	7	42	2	120	220	320	NaN	520	1.27706957468763	1	1	NaN	1721513.2511509	NaN	1721514.234603	1721514.75111273
26	18	1	0	90	36.1581920903955	36.241610738255	12	0.400038335993886	2	6	2	NaN	1	5	0.0885331980424789	0	1	NaN	421	7	43	2	120	220	320	NaN	520	0.0104137745220214	1	1	NaN	1721516.8348564	NaN	1721517.818253	1721518.33480343
26	18	1	0	90	36.1581920903955	36.241610738255	22	0.733403615988791	2	11	6	NaN	2	4	0.0885331980424789	0	1	NaN	422	7	44	2	120	220	320	NaN	520	0.0104010745417327	2	1	NaN	1721519.1517512	NaN	1721520.1351583	1721520.65169073
26	18	1	0	90	36.1581920903955	36.241610738255	9	0.300028751995415	2	1	3	NaN	1	3	0.0885331980424789	0	1	NaN	423	7	45	2	120	220	320	NaN	520	0.0103905268479139	1	1	NaN	1721521.4685348	NaN	1721522.4520527	1721522.96859607
26	18	1	0	90	36.1581920903955	36.241610738255	10	0.333365279994905	2	8	4	NaN	2	3	0.0885331980424789	0	1	NaN	424	7	46	2	120	220	320	NaN	520	0.0104171745479107	2	1	NaN	1721523.8022198	NaN	1721524.7856075	1721525.30214673
26	18	1	0	90	36.1581920903955	36.241610738255	6	0.200019167996943	2	9	6	NaN	2	4	0.0885331980424789	0	1	NaN	425	7	47	2	120	220	320	NaN	520	0.384179274784401	2	1	NaN	1721526.13577	NaN	1721527.1191678	1721527.63570673
26	18	1	0	90	36.1581920903955	36.241610738255	25	0.833413199987263	2	11	4	NaN	2	5	0.0885331980424789	0	1	NaN	426	7	48	2	120	220	320	NaN	520	0.0105151098687202	2	1	NaN	1721528.8360325	NaN	1721529.8194268	1721530.33596859
26	18	1	0	90	36.1581920903955	36.241610738255	17	0.566720975991339	2	11	4	NaN	2	4	0.0885331980424789	0	1	NaN	427	7	49	2	120	220	320	NaN	520	0.710702074691653	2	1	NaN	1721531.1694627	NaN	1721532.1530021	1721532.66953693
26	18	1	0	90	36.1581920903955	36.241610738255	12	0.400038335993886	2	4	4	NaN	1	5	0.0885331980424789	0	1	NaN	428	7	50	2	120	220	320	NaN	520	0.0104044745676219	1	1	NaN	1721534.2031039	NaN	1721535.1866153	1721535.70316873
26	18	1	0	90	36.1581920903955	36.241610738255	10	0.333365279994905	2	6	1	NaN	1	3	0.0885331980424789	0	1	NaN	429	7	51	2	120	220	320	NaN	520	0.168237374862656	1	1	NaN	1721536.5199817	NaN	1721537.5035185	1721538.02007223
26	18	1	0	90	36.1581920903955	36.241610738255	0	0	1	9	4	NaN	2	5	0.0885331980424789	0	1	NaN	430	7	52	2	110	210	310	NaN	510	0.516217622673139	1	0	NaN	1721539.0037955	NaN	1721539.9870937	1721540.50363878
26	18	1	0	90	36.1581920903955	36.241610738255	12	0.400038335993886	2	12	6	NaN	2	5	0.0885331980424789	0	1	NaN	431	7	53	2	120	220	320	NaN	520	0.0104329225141555	2	1	NaN	1721541.8373003	NaN	1721542.8207078	1721543.33725428
26	18	1	0	90	36.1581920903955	36.241610738255	18	0.600057503990829	2	6	1	NaN	1	3	0.0885331980424789	0	1	NaN	432	7	54	2	120	220	320	NaN	520	0.0104058745782822	1	1	NaN	1721544.1708814	NaN	1721545.1542724	1721545.67081503
26	18	1	0	90	36.1581920903955	36.241610738255	17	0.566720975991339	2	6	5	NaN	1	5	0.0885331980424789	0	1	NaN	433	7	55	2	120	220	320	NaN	520	0.0103770785499364	1	1	NaN	1721546.4877688	NaN	1721547.4711631	1721547.98771412
26	18	1	0	90	36.1581920903955	36.241610738255	24	0.800076671987772	2	3	5	NaN	1	3	0.0885331980424789	0	1	NaN	434	7	56	2	120	220	320	NaN	520	0.363635174464434	1	1	NaN	1721548.8045241	NaN	1721549.787987	1721550.30460853
26	18	1	0	90	36.1581920903955	36.241610738255	17	0.566720975991339	2	5	2	NaN	1	3	0.0885331980424789	0	1	NaN	435	7	57	2	120	220	320	NaN	520	3.04771742667072	2	0	NaN	1721551.4882625	NaN	1721552.4716542	1721552.98820357
26	18	1	0	90	36.1581920903955	36.241610738255	20	0.66673055998981	2	11	2	NaN	2	5	0.0885331980424789	0	1	NaN	436	7	58	2	120	220	320	NaN	520	0.0104071744717658	2	1	NaN	1721557.1387857	NaN	1721558.1222079	1721558.63875053
26	18	1	0	90	36.1581920903955	36.241610738255	16	0.533384447991848	2	5	2	NaN	1	3	0.0885331980424789	0	1	NaN	437	7	59	2	120	220	320	NaN	520	0.196387074654922	1	1	NaN	1721559.9557385	NaN	1721560.9391423	1721561.45571153
26	18	1	0	90	36.1581920903955	36.241610738255	14	0.466711391992867	2	2	6	NaN	1	5	0.0885331980424789	0	1	NaN	438	7	60	2	120	220	320	NaN	520	0.0103939268738031	1	1	NaN	1721562.4558658	NaN	1721563.4394087	1721563.95593997
26	18	1	0	90	36.1581920903955	36.241610738255	21	0.700067087989301	2	6	3	NaN	1	5	0.0885331980424789	0	1	NaN	439	7	61	2	120	220	320	NaN	520	0.0104078745935112	2	0	NaN	1721564.7895665	NaN	1721565.7729536	1721566.28950353
26	18	1	0	90	36.1581920903955	36.241610738255	19	0.63339403199032	2	3	1	NaN	1	3	0.0885331980424789	0	1	NaN	440	7	62	2	120	220	320	NaN	520	0.0104060745798051	2	0	NaN	1721567.1063503	NaN	1721568.0898674	1721568.60639983
26	18	1	0	90	36.1581920903955	36.241610738255	15	0.500047919992358	2	1	6	NaN	1	4	0.0885331980424789	0	1	NaN	441	7	63	2	120	220	320	NaN	520	0.960195174673572	2	0	NaN	1721569.4400243	NaN	1721570.4234169	1721570.93995833
26	18	1	0	90	36.1581920903955	36.241610738255	21	0.700067087989301	2	5	6	NaN	1	5	0.0885331980424789	0	1	NaN	442	8	1	2	120	220	320	NaN	520	0.0103868786245584	2	0	NaN	1721703.6864055	NaN	1721704.6699245	1721705.18647282
26	18	1	0	90	36.1581920903955	36.241610738255	11	0.366701807994396	2	10	2	NaN	2	4	0.0885331980424789	0	1	NaN	443	8	2	2	120	220	320	NaN	520	0.804689374519512	2	1	NaN	1721706.0032922	NaN	1721706.9868086	1721707.50336133
26	18	1	0	90	36.1581920903955	36.241610738255	22	0.733403615988791	2	6	5	NaN	1	3	0.0885331980424789	0	1	NaN	444	8	3	2	120	220	320	NaN	520	0.010283091571182	1	1	NaN	1721709.1203842	NaN	1721710.1038268	1721710.62034701
26	18	1	0	90	36.1581920903955	36.241610738255	0	0	1	5	5	NaN	1	3	0.0885331980424789	0	1	NaN	445	8	4	2	110	210	310	NaN	510	1.15423007472418	1	1	NaN	1721711.4539638	NaN	1721712.4373585	1721712.95390623
26	18	1	0	90	36.1581920903955	36.241610738255	7	0.233355695996434	2	7	3	NaN	2	4	0.0885331980424789	0	1	NaN	446	8	5	2	120	220	320	NaN	520	1.1272627748549	2	1	NaN	1721714.9209448	NaN	1721715.904343	1721716.42091143
26	18	1	0	90	36.1581920903955	36.241610738255	10	0.333365279994905	2	10	5	NaN	2	5	0.0885331980424789	0	1	NaN	447	8	6	2	120	220	320	NaN	520	3.20548542658798	1	0	NaN	1721718.3546418	NaN	1721719.3380265	1721719.85458517
26	18	1	0	90	36.1581920903955	36.241610738255	15	0.500047919992358	2	4	2	NaN	1	5	0.0885331980424789	0	1	NaN	448	8	7	2	120	220	320	NaN	520	0.0104154746513814	1	1	NaN	1721723.8719508	NaN	1721724.8552226	1721725.37179263
26	18	1	0	90	36.1581920903955	36.241610738255	19	0.63339403199032	2	10	4	NaN	2	3	0.0885331980424789	0	1	NaN	449	8	8	2	120	220	320	NaN	520	0.0103912267368287	2	1	NaN	1721726.1887043	NaN	1721727.1721267	1721727.68868407
26	18	1	0	90	36.1581920903955	36.241610738255	8	0.266692223995924	2	11	6	NaN	2	4	0.0885331980424789	0	1	NaN	450	8	9	2	120	220	320	NaN	520	0.0705556746106595	2	1	NaN	1721728.5057146	NaN	1721729.4891107	1721730.00557063
26	18	1	0	90	36.1581920903955	36.241610738255	15	0.500047919992358	2	11	5	NaN	2	5	0.0885331980424789	0	1	NaN	451	8	10	2	120	220	320	NaN	520	0.0950674745254219	2	1	NaN	1721730.8892087	NaN	1721731.8725805	1721732.38914003
26	18	1	0	90	36.1581920903955	36.241610738255	7	0.233355695996434	2	9	5	NaN	2	5	0.0885331980424789	0	1	NaN	452	8	11	2	120	220	320	NaN	520	0.742447362048551	2	1	NaN	1721733.3060883	NaN	1721734.2894976	1721734.80604254
26	18	1	0	90	36.1581920903955	36.241610738255	16	0.533384447991848	2	1	2	NaN	1	4	0.0885331980424789	0	1	NaN	453	8	12	2	120	220	320	NaN	520	0.0103836266789585	2	0	NaN	1721736.3563951	NaN	1721737.3397979	1721737.85635037
26	18	1	0	90	36.1581920903955	36.241610738255	9	0.300028751995415	2	4	4	NaN	1	5	0.0885331980424789	0	1	NaN	454	8	13	2	120	220	320	NaN	520	0.0103928267490119	2	0	NaN	1721738.673311	NaN	1721739.6566888	1721740.17324387
26	18	1	0	90	36.1581920903955	36.241610738255	17	0.566720975991339	2	3	2	NaN	1	3	0.0885331980424789	0	1	NaN	455	8	14	2	120	220	320	NaN	520	0.0104016745463014	1	1	NaN	1721740.9900221	NaN	1721741.9735798	1721742.49013433
26	18	1	0	90	36.1581920903955	36.241610738255	12	0.400038335993886	2	1	4	NaN	1	5	0.0885331980424789	0	1	NaN	456	8	15	2	120	220	320	NaN	520	1.5730233269278	1	1	NaN	1721743.5070114	NaN	1721744.4905026	1721745.00705037
26	18	1	0	90	36.1581920903955	36.241610738255	8	0.266692223995924	2	3	6	NaN	1	3	0.0885331980424789	0	1	NaN	457	8	16	2	120	220	320	NaN	520	0.497329026693478	1	1	NaN	1721747.3907318	NaN	1721748.374229	1721748.89076067
