subjno	age	gender	isPractice	viewdist	CmToPixX	CmToPixY	SOA_frm	SOA_time	targNum	targID	targExample	targRace	targGender	firstTargPos	contrast	familiarity	curr_staircase	iStair	TrialNum	BlockNum	blktrl	sessionNum	TC_FIXATION	TC_RSVP_START	TC_RSVP_END	TC_BLANK	TC_RESPONSE_ONSET	RT2afc	resp_2afc	acc	RSVPOnsetVBL	RSVPOnsetTime	RSVPOffsetVBL	RSVPOffsetTime	startrt_2afc
104	19	1	0	90	36.1581920903955	36.241610738255	19	0.633375032022595	2	7	2	NaN	2	3	0.105262013047592	1	1	NaN	1	1	1	1	121	221	321	NaN	521	0.549035768024623	2	1	NaN	4390902.9348159	NaN	4390903.9181047	4390904.45123233
104	19	1	0	90	36.1581920903955	36.241610738255	12	0.400026336014271	2	1	3	NaN	1	4	0.105262013047592	1	1	NaN	2	1	2	1	121	221	321	NaN	521	9.8163132276386	1	1	NaN	4390905.8517991	NaN	4390906.8350419	4390907.36818787
104	19	1	0	90	36.1581920903955	36.241610738255	24	0.800052672028542	2	12	5	NaN	2	3	0.105262013047592	1	1	NaN	3	1	3	1	121	221	321	NaN	521	0.360517273657024	2	1	NaN	4390918.0027685	NaN	4390918.9861812	4390919.51937483
104	19	1	0	90	36.1581920903955	36.241610738255	20	0.666710560023785	2	6	4	NaN	1	3	0.105262013047592	1	1	NaN	4	1	4	1	121	221	321	NaN	521	0.429657142609358	2	0	NaN	4390920.7028978	NaN	4390921.6864123	4390922.20297776
104	19	1	0	90	36.1581920903955	36.241610738255	7	0.233348696008325	2	5	5	NaN	1	3	0.105262013047592	1	1	NaN	5	1	5	1	121	221	321	NaN	521	1.17502482142299	1	1	NaN	4390923.4531672	NaN	4390924.4366871	4390924.95324508
104	19	1	0	90	36.1581920903955	36.241610738255	10	0.333355280011892	2	11	4	NaN	2	3	0.105262013047592	1	1	NaN	6	1	6	1	121	221	321	NaN	521	0.88270521722734	2	1	NaN	4390926.9536482	NaN	4390927.9370327	4390928.45358468
104	19	1	0	90	36.1581920903955	36.241610738255	18	0.600039504021406	2	4	5	NaN	1	5	0.105262013047592	1	1	NaN	7	1	7	1	121	221	321	NaN	521	3.42639472149312	2	0	NaN	4390930.1539614	NaN	4390931.1373494	4390931.65390528
104	19	1	0	90	36.1581920903955	36.241610738255	16	0.533368448019028	2	9	2	NaN	2	3	0.105262013047592	1	1	NaN	8	1	8	1	121	221	321	NaN	521	0.28356221690774	2	1	NaN	4390935.9045853	NaN	4390936.8879003	4390937.40445638
104	19	1	0	90	36.1581920903955	36.241610738255	8	0.266684224009514	2	9	4	NaN	2	5	0.105262013047592	1	1	NaN	9	1	9	1	121	221	321	NaN	521	0.339798968285322	2	1	NaN	4390938.5047594	NaN	4390939.4881947	4390940.00472213
104	19	1	0	90	36.1581920903955	36.241610738255	8	0.266684224009514	2	7	3	NaN	2	4	0.105262013047592	1	1	NaN	10	1	10	1	121	221	321	NaN	521	0.280850016511977	1	0	NaN	4390941.1717147	NaN	4390942.1550896	4390942.67164018
104	19	1	0	90	36.1581920903955	36.241610738255	25	0.833388200029731	2	11	1	NaN	2	4	0.105262013047592	1	1	NaN	11	1	11	1	121	221	321	NaN	521	0.448629922233522	2	1	NaN	4390943.7719505	NaN	4390944.755352	4390945.27190578
104	19	1	0	90	36.1581920903955	36.241610738255	8	0.266684224009514	2	1	6	NaN	1	5	0.105262013047592	1	1	NaN	12	1	12	1	121	221	321	NaN	521	0.273629668168724	2	0	NaN	4390946.5389054	NaN	4390947.5223034	4390948.03884653
104	19	1	0	90	36.1581920903955	36.241610738255	11	0.366690808013082	2	2	6	NaN	1	5	0.105262013047592	1	1	NaN	13	1	13	1	121	221	321	NaN	521	1.42556096892804	2	0	NaN	4390949.122489	NaN	4390950.1058798	4390950.62243943
104	19	1	0	90	36.1581920903955	36.241610738255	17	0.566703976020217	2	12	6	NaN	2	4	0.105262013047592	1	1	NaN	14	1	14	1	121	221	321	NaN	521	0.283330316655338	2	1	NaN	4390952.8727189	NaN	4390953.8562451	4390954.37279478
104	19	1	0	90	36.1581920903955	36.241610738255	8	0.266684224009514	2	6	6	NaN	1	4	0.105262013047592	1	1	NaN	15	1	15	1	121	221	321	NaN	521	0.259149368852377	1	1	NaN	4390955.4730917	NaN	4390956.4565005	4390956.97304913
104	19	1	0	90	36.1581920903955	36.241610738255	16	0.533368448019028	2	2	4	NaN	1	5	0.105262013047592	1	1	NaN	16	1	16	1	121	221	321	NaN	521	0.499468274414539	2	0	NaN	4390958.0566825	NaN	4390959.0400809	4390959.55663423
104	19	1	0	90	36.1581920903955	36.241610738255	24	0.800052672028542	2	2	3	NaN	1	5	0.105262013047592	1	1	NaN	17	1	17	1	121	221	321	NaN	521	1.52252206858248	1	1	NaN	4390960.8735842	NaN	4390961.8570443	4390962.37358643
104	19	1	0	90	36.1581920903955	36.241610738255	0	0	1	12	2	NaN	2	5	0.105262013047592	1	1	NaN	18	1	18	1	111	211	311	NaN	511	0.352511242032051	2	1	NaN	4390964.7240099	NaN	4390965.7074087	4390966.22395986
104	19	1	0	90	36.1581920903955	36.241610738255	16	0.533368448019028	2	11	4	NaN	2	5	0.105262013047592	1	1	NaN	19	1	19	1	121	221	321	NaN	521	0.525482716038823	2	1	NaN	4390967.3909306	NaN	4390968.3742475	4390968.89088088
104	19	1	0	90	36.1581920903955	36.241610738255	13	0.43336186401546	2	12	5	NaN	2	5	0.105262013047592	1	1	NaN	20	1	20	1	121	221	321	NaN	521	0.339370116591454	2	1	NaN	4390970.2412074	NaN	4390971.2246235	4390971.74116838
104	19	1	0	90	36.1581920903955	36.241610738255	10	0.333355280011892	2	8	2	NaN	2	3	0.105262013047592	1	1	NaN	21	1	21	1	121	221	321	NaN	521	2.72900012135506	2	1	NaN	4390972.8914883	NaN	4390973.8748945	4390974.39143478
104	19	1	0	90	36.1581920903955	36.241610738255	22	0.733381616026163	2	8	1	NaN	2	4	0.105262013047592	1	1	NaN	22	1	22	1	121	221	321	NaN	521	0.566694621928036	2	1	NaN	4390977.9419752	NaN	4390978.925372	4390979.44193028
104	19	1	0	90	36.1581920903955	36.241610738255	17	0.566703976020217	2	8	5	NaN	2	5	0.105262013047592	1	1	NaN	23	1	23	1	121	221	321	NaN	521	2.186538268812	2	1	NaN	4390980.8255891	NaN	4390981.808983	4390982.32554263
104	19	1	0	90	36.1581920903955	36.241610738255	25	0.833388200029731	2	3	3	NaN	1	4	0.105262013047592	1	1	NaN	24	1	24	1	121	221	321	NaN	521	0.430078568868339	1	1	NaN	4390985.325958	NaN	4390986.3094433	4390986.82598153
104	19	1	0	90	36.1581920903955	36.241610738255	17	0.566703976020217	2	7	1	NaN	2	4	0.105262013047592	1	1	NaN	25	1	25	1	121	221	321	NaN	521	0.488279621116817	2	1	NaN	4390988.0763099	NaN	4390989.0597079	4390989.57625768
104	19	1	0	90	36.1581920903955	36.241610738255	18	0.600039504021406	2	9	6	NaN	2	4	0.105262013047592	1	1	NaN	26	1	26	1	121	221	321	NaN	521	0.575031816959381	2	1	NaN	4390990.8932533	NaN	4390991.8766529	4390992.39318788
104	19	1	0	90	36.1581920903955	36.241610738255	7	0.233348696008325	2	12	5	NaN	2	5	0.105262013047592	1	1	NaN	27	1	27	1	121	221	321	NaN	521	0.274591764435172	2	1	NaN	4390993.7935638	NaN	4390994.7769603	4390995.29347264
104	19	1	0	90	36.1581920903955	36.241610738255	13	0.43336186401546	2	3	4	NaN	1	5	0.105262013047592	1	1	NaN	28	1	28	1	121	221	321	NaN	521	0.274632068350911	1	1	NaN	4390996.3938024	NaN	4390997.3771862	4390997.89373753
104	19	1	0	90	36.1581920903955	36.241610738255	20	0.666710560023785	2	12	3	NaN	2	4	0.105262013047592	1	1	NaN	29	1	29	1	121	221	321	NaN	521	0.346237821504474	2	1	NaN	4390998.994047	NaN	4390999.977437	4391000.49399618
104	19	1	0	90	36.1581920903955	36.241610738255	21	0.700046088024974	2	9	4	NaN	2	3	0.105262013047592	1	1	NaN	30	1	30	1	121	221	321	NaN	521	0.279097315855324	2	1	NaN	4391001.6608443	NaN	4391002.6443758	4391003.16091388
104	19	1	0	90	36.1581920903955	36.241610738255	6	0.200013168007135	2	9	1	NaN	2	3	0.105262013047592	1	1	NaN	31	1	31	1	121	221	321	NaN	521	0.999015469104052	2	1	NaN	4391004.2611024	NaN	4391005.2446176	4391005.76117473
104	19	1	0	90	36.1581920903955	36.241610738255	15	0.500032920017839	2	11	3	NaN	2	5	0.105262013047592	1	1	NaN	32	1	32	1	121	221	321	NaN	521	1.60186581593007	2	1	NaN	4391007.5782055	NaN	4391008.5616487	4391009.07815908
104	19	1	0	90	36.1581920903955	36.241610738255	8	0.266684224009514	2	4	5	NaN	1	3	0.105262013047592	1	1	NaN	33	1	33	1	121	221	321	NaN	521	0.301079268567264	1	1	NaN	4391011.4952753	NaN	4391012.4786677	4391012.99522013
104	19	1	0	90	36.1581920903955	36.241610738255	19	0.633375032022595	2	5	1	NaN	1	3	0.105262013047592	1	1	NaN	34	1	34	1	121	221	321	NaN	521	0.364196267910302	1	1	NaN	4391014.1121964	NaN	4391015.0955906	4391015.61214663
104	19	1	0	90	36.1581920903955	36.241610738255	10	0.333355280011892	2	4	4	NaN	1	3	0.105262013047592	1	1	NaN	35	1	35	1	121	221	321	NaN	521	1.39285182207823	1	1	NaN	4391016.7957882	NaN	4391017.7791846	4391018.29574418
104	19	1	0	90	36.1581920903955	36.241610738255	7	0.233348696008325	2	7	5	NaN	2	3	0.105262013047592	1	1	NaN	36	1	36	1	121	221	321	NaN	521	0.795838668942451	2	1	NaN	4391020.5128386	NaN	4391021.4962176	4391022.01278453
104	19	1	0	90	36.1581920903955	36.241610738255	7	0.233348696008325	2	8	5	NaN	2	3	0.105262013047592	1	1	NaN	37	1	37	1	121	221	321	NaN	521	0.35842312220484	2	1	NaN	4391023.6297864	NaN	4391024.6131996	4391025.12975098
104	19	1	0	90	36.1581920903955	36.241610738255	17	0.566703976020217	2	12	5	NaN	2	4	0.105262013047592	1	1	NaN	38	1	38	1	121	221	321	NaN	521	0.323370768688619	2	1	NaN	4391026.2967208	NaN	4391027.2800967	4391027.79667733
104	19	1	0	90	36.1581920903955	36.241610738255	20	0.666710560023785	2	2	4	NaN	1	5	0.105262013047592	1	1	NaN	39	1	39	1	121	221	321	NaN	521	0.313900168053806	1	1	NaN	4391028.9303213	NaN	4391029.9137126	4391030.43026133
104	19	1	0	90	36.1581920903955	36.241610738255	0	0	1	7	2	NaN	2	3	0.105262013047592	1	1	NaN	40	1	40	1	111	211	311	NaN	511	0.312238368205726	2	1	NaN	4391031.5639174	NaN	4391032.5473316	4391033.06385903
104	19	1	0	90	36.1581920903955	36.241610738255	11	0.366690808013082	2	5	3	NaN	1	3	0.105262013047592	1	1	NaN	41	1	41	1	121	221	321	NaN	521	1.06279852241278	1	1	NaN	4391034.1974981	NaN	4391035.1808888	4391035.69745228
104	19	1	0	90	36.1581920903955	36.241610738255	6	0.200013168007135	2	7	6	NaN	2	4	0.105262013047592	1	1	NaN	42	1	42	1	121	221	321	NaN	521	0.552129868417978	2	1	NaN	4391037.5644897	NaN	4391038.5478882	4391039.06444643
104	19	1	0	90	36.1581920903955	36.241610738255	12	0.400026336014271	2	8	2	NaN	2	4	0.105262013047592	1	1	NaN	43	1	43	1	121	221	321	NaN	521	0.396719821728766	2	1	NaN	4391040.4314498	NaN	4391041.4148478	4391041.93139428
104	19	1	0	90	36.1581920903955	36.241610738255	16	0.533368448019028	2	10	2	NaN	2	3	0.105262013047592	1	1	NaN	44	1	44	1	121	221	321	NaN	521	0.360238968394697	2	1	NaN	4391043.1483725	NaN	4391044.1317619	4391044.64833093
104	19	1	0	90	36.1581920903955	36.241610738255	16	0.533368448019028	2	11	3	NaN	2	4	0.105262013047592	1	1	NaN	45	1	45	1	121	221	321	NaN	521	0.277052721939981	2	1	NaN	4391045.8153101	NaN	4391046.7987219	4391047.31525548
104	19	1	0	90	36.1581920903955	36.241610738255	23	0.766717144027352	2	7	6	NaN	2	5	0.105262013047592	1	1	NaN	46	1	46	1	121	221	321	NaN	521	0.277688068337739	2	1	NaN	4391048.3989815	NaN	4391049.3822933	4391049.89884723
104	19	1	0	90	36.1581920903955	36.241610738255	9	0.300019752010703	2	9	3	NaN	2	3	0.105262013047592	1	1	NaN	47	1	47	1	121	221	321	NaN	521	0.26991212181747	2	1	NaN	4391050.9824804	NaN	4391051.9658787	4391052.48243268
104	19	1	0	90	36.1581920903955	36.241610738255	7	0.233348696008325	2	2	4	NaN	1	4	0.105262013047592	1	1	NaN	48	1	48	1	121	221	321	NaN	521	0.366470816545188	1	1	NaN	4391053.566064	NaN	4391054.5494421	4391055.06601528
104	19	1	0	90	36.1581920903955	36.241610738255	10	0.333355280011892	2	5	2	NaN	1	3	0.105262013047592	1	1	NaN	49	1	49	1	121	221	321	NaN	521	0.258960422128439	1	1	NaN	4391056.2496513	NaN	4391057.2330597	4391057.74961878
104	19	1	0	90	36.1581920903955	36.241610738255	0	0	1	11	5	NaN	2	3	0.105262013047592	1	1	NaN	50	1	50	1	111	211	311	NaN	511	0.235945868305862	1	0	NaN	4391058.8164798	NaN	4391059.7999834	4391060.31653373
104	19	1	0	90	36.1581920903955	36.241610738255	6	0.200013168007135	2	5	6	NaN	1	3	0.105262013047592	1	1	NaN	51	1	51	1	121	221	321	NaN	521	1.57344236876816	1	1	NaN	4391061.3668393	NaN	4391062.3502302	4391062.86677893
104	19	1	0	90	36.1581920903955	36.241610738255	22	0.733381616026163	2	6	4	NaN	1	5	0.105262013047592	1	1	NaN	52	1	52	1	121	221	321	NaN	521	0.305853117257357	1	1	NaN	4391065.2505498	NaN	4391066.2339457	4391066.75049388
104	19	1	0	90	36.1581920903955	36.241610738255	13	0.43336186401546	2	5	2	NaN	1	5	0.105262013047592	1	1	NaN	53	1	53	1	121	221	321	NaN	521	1.08107132092118	2	0	NaN	4391067.8674222	NaN	4391068.8508658	4391069.36742608
104	19	1	0	90	36.1581920903955	36.241610738255	17	0.566703976020217	2	8	4	NaN	2	3	0.105262013047592	1	1	NaN	54	1	54	1	121	221	321	NaN	521	0.368904164992273	2	1	NaN	4391071.2678898	NaN	4391072.2510989	4391072.76775714
104	19	1	0	90	36.1581920903955	36.241610738255	18	0.600039504021406	2	12	1	NaN	2	3	0.105262013047592	1	1	NaN	55	1	55	1	121	221	321	NaN	521	0.620792868547142	2	1	NaN	4391073.9513988	NaN	4391074.9348018	4391075.45135073
104	19	1	0	90	36.1581920903955	36.241610738255	17	0.566703976020217	2	1	1	NaN	1	3	0.105262013047592	1	1	NaN	56	1	56	1	121	221	321	NaN	521	0.383431316353381	1	1	NaN	4391076.8849877	NaN	4391077.868466	4391078.38496338
104	19	1	0	90	36.1581920903955	36.241610738255	25	0.833388200029731	2	5	5	NaN	1	5	0.105262013047592	1	1	NaN	57	1	57	1	121	221	321	NaN	521	0.683005368337035	1	1	NaN	4391079.585306	NaN	4391080.568708	4391081.08523313
104	19	1	0	90	36.1581920903955	36.241610738255	20	0.666710560023785	2	1	3	NaN	1	5	0.105262013047592	1	1	NaN	58	1	58	1	121	221	321	NaN	521	0.658687368966639	1	1	NaN	4391082.585605	NaN	4391083.5689806	4391084.08553703
104	19	1	0	90	36.1581920903955	36.241610738255	13	0.43336186401546	2	2	6	NaN	1	5	0.105262013047592	1	1	NaN	59	1	59	1	121	221	321	NaN	521	0.627807221375406	2	0	NaN	4391085.5525501	NaN	4391086.5359428	4391087.05249438
104	19	1	0	90	36.1581920903955	36.241610738255	19	0.633375032022595	2	1	1	NaN	1	5	0.105262013047592	1	1	NaN	60	1	60	1	121	221	321	NaN	521	0.294272416271269	1	1	NaN	4391088.4861734	NaN	4391089.4695343	4391089.98610228
104	19	1	0	90	36.1581920903955	36.241610738255	16	0.533368448019028	2	9	5	NaN	2	5	0.105262013047592	1	1	NaN	61	1	61	1	121	221	321	NaN	521	3.03487792238593	2	1	NaN	4391091.3696476	NaN	4391092.3531748	4391092.86973108
104	19	1	0	90	36.1581920903955	36.241610738255	24	0.800052672028542	2	2	4	NaN	1	3	0.105262013047592	1	1	NaN	62	1	62	1	121	221	321	NaN	521	0.372128179296851	1	1	NaN	4391096.7203003	NaN	4391097.7037486	4391098.22024842
104	19	1	0	90	36.1581920903955	36.241610738255	19	0.633375032022595	2	1	2	NaN	1	3	0.105262013047592	1	1	NaN	63	1	63	1	121	221	321	NaN	521	0.272764468565583	1	1	NaN	4391099.4039055	NaN	4391100.3873097	4391100.90384233
104	19	1	0	90	36.1581920903955	36.241610738255	13	0.43336186401546	2	6	3	NaN	1	3	0.105262013047592	1	1	NaN	64	2	1	1	121	221	321	NaN	521	0.320342042483389	1	1	NaN	4391119.9559089	NaN	4391120.9393223	4391121.45586746
104	19	1	0	90	36.1581920903955	36.241610738255	9	0.300019752010703	2	1	4	NaN	1	3	0.105262013047592	1	1	NaN	65	2	2	1	121	221	321	NaN	521	0.294802988879383	1	1	NaN	4391122.5895174	NaN	4391123.5729026	4391124.08946741
104	19	1	0	90	36.1581920903955	36.241610738255	8	0.266684224009514	2	1	3	NaN	1	4	0.105262013047592	1	1	NaN	66	2	3	1	121	221	321	NaN	521	0.738308968022466	1	1	NaN	4391125.5063131	NaN	4391126.4898566	4391127.00641833
104	19	1	0	90	36.1581920903955	36.241610738255	9	0.300019752010703	2	12	5	NaN	2	4	0.105262013047592	1	1	NaN	67	2	4	1	121	221	321	NaN	521	0.30382351577282	2	1	NaN	4391128.5568597	NaN	4391129.5401563	4391130.05670478
104	19	1	0	90	36.1581920903955	36.241610738255	20	0.666710560023785	2	3	1	NaN	1	3	0.105262013047592	1	1	NaN	68	2	5	1	121	221	321	NaN	521	0.319388168863952	1	1	NaN	4391131.1570271	NaN	4391132.1404288	4391132.65696053
104	19	1	0	90	36.1581920903955	36.241610738255	24	0.800052672028542	2	12	3	NaN	2	3	0.105262013047592	1	1	NaN	69	2	6	1	121	221	321	NaN	521	0.494212968274951	2	1	NaN	4391133.7906257	NaN	4391134.7739825	4391135.29055883
104	19	1	0	90	36.1581920903955	36.241610738255	13	0.43336186401546	2	11	6	NaN	2	5	0.105262013047592	1	1	NaN	70	2	7	1	121	221	321	NaN	521	0.357199368998408	2	1	NaN	4391136.6075988	NaN	4391137.5909745	4391138.10749563
104	19	1	0	90	36.1581920903955	36.241610738255	24	0.800052672028542	2	7	3	NaN	2	5	0.105262013047592	1	1	NaN	71	2	8	1	121	221	321	NaN	521	0.241991568356752	2	1	NaN	4391139.2744825	NaN	4391140.2578734	4391140.77444243
104	19	1	0	90	36.1581920903955	36.241610738255	22	0.733381616026163	2	4	1	NaN	1	5	0.105262013047592	1	1	NaN	72	2	9	1	121	221	321	NaN	521	0.819949989207089	1	1	NaN	4391141.8245823	NaN	4391142.8081285	4391143.32469101
104	19	1	0	90	36.1581920903955	36.241610738255	11	0.366690808013082	2	5	6	NaN	1	3	0.105262013047592	1	1	NaN	73	2	10	1	121	221	321	NaN	521	0.261440068483353	1	1	NaN	4391144.9750479	NaN	4391145.9584811	4391146.47498653
104	19	1	0	90	36.1581920903955	36.241610738255	18	0.600039504021406	2	5	2	NaN	1	4	0.105262013047592	1	1	NaN	74	2	11	1	121	221	321	NaN	521	0.286414168775082	1	1	NaN	4391147.5419503	NaN	4391148.5253621	4391149.04190223
104	19	1	0	90	36.1581920903955	36.241610738255	13	0.43336186401546	2	7	1	NaN	2	4	0.105262013047592	1	1	NaN	75	2	12	1	121	221	321	NaN	521	0.270346868783236	2	1	NaN	4391150.1422149	NaN	4391151.1256137	4391151.64216153
104	19	1	0	90	36.1581920903955	36.241610738255	11	0.366690808013082	2	1	3	NaN	1	3	0.105262013047592	1	1	NaN	76	2	13	1	121	221	321	NaN	521	0.238908621482551	1	1	NaN	4391152.7258265	NaN	4391153.7091967	4391154.22575308
104	19	1	0	90	36.1581920903955	36.241610738255	7	0.233348696008325	2	6	2	NaN	1	3	0.105262013047592	1	1	NaN	77	2	14	1	121	221	321	NaN	521	0.216513268649578	1	1	NaN	4391155.2760418	NaN	4391156.2594384	4391156.77599883
104	19	1	0	90	36.1581920903955	36.241610738255	15	0.500032920017839	2	8	1	NaN	2	4	0.105262013047592	1	1	NaN	78	2	15	1	121	221	321	NaN	521	0.242868522182107	2	1	NaN	4391157.8096321	NaN	4391158.7930316	4391159.30958948
104	19	1	0	90	36.1581920903955	36.241610738255	19	0.633375032022595	2	4	1	NaN	1	3	0.105262013047592	1	1	NaN	79	2	16	1	121	221	321	NaN	521	1.81247343216091	1	1	NaN	4391160.3597441	NaN	4391161.3432816	4391161.85983617
104	19	1	0	90	36.1581920903955	36.241610738255	14	0.466697392016649	2	11	1	NaN	2	3	0.105262013047592	1	1	NaN	80	2	17	1	121	221	321	NaN	521	0.742859868332744	2	1	NaN	4391164.4936423	NaN	4391165.4770418	4391165.99357293
104	19	1	0	90	36.1581920903955	36.241610738255	8	0.266684224009514	2	4	1	NaN	1	5	0.105262013047592	1	1	NaN	81	2	18	1	121	221	321	NaN	521	0.252655716612935	1	1	NaN	4391167.5439285	NaN	4391168.527295	4391169.04386868
104	19	1	0	90	36.1581920903955	36.241610738255	0	0	1	4	4	NaN	1	5	0.105262013047592	1	1	NaN	82	2	19	1	111	211	311	NaN	511	0.285765016451478	2	0	NaN	4391170.1108263	NaN	4391171.0942384	4391171.61078208
104	19	1	0	90	36.1581920903955	36.241610738255	15	0.500032920017839	2	12	4	NaN	2	4	0.105262013047592	1	1	NaN	83	2	20	1	121	221	321	NaN	521	0.221721868962049	2	1	NaN	4391172.711089	NaN	4391173.694513	4391174.21105183
104	19	1	0	90	36.1581920903955	36.241610738255	18	0.600039504021406	2	6	5	NaN	1	3	0.105262013047592	1	1	NaN	84	2	21	1	121	221	321	NaN	521	0.288189321756363	1	1	NaN	4391175.2447042	NaN	4391176.228074	4391176.74463348
104	19	1	0	90	36.1581920903955	36.241610738255	7	0.233348696008325	2	12	2	NaN	2	5	0.105262013047592	1	1	NaN	85	2	22	1	121	221	321	NaN	521	2.08799786865711	2	1	NaN	4391177.8449315	NaN	4391178.8283134	4391179.34488343
104	19	1	0	90	36.1581920903955	36.241610738255	9	0.300019752010703	2	7	2	NaN	2	5	0.105262013047592	1	1	NaN	86	2	23	1	121	221	321	NaN	521	0.247278468683362	2	1	NaN	4391182.245241	NaN	4391183.2287915	4391183.74531173
104	19	1	0	90	36.1581920903955	36.241610738255	12	0.400026336014271	2	11	5	NaN	2	5	0.105262013047592	1	1	NaN	87	2	24	1	121	221	321	NaN	521	0.280825468711555	2	1	NaN	4391184.795625	NaN	4391185.7790538	4391186.29556343
104	19	1	0	90	36.1581920903955	36.241610738255	22	0.733381616026163	2	1	1	NaN	1	4	0.105262013047592	1	1	NaN	88	2	25	1	121	221	321	NaN	521	0.280692321248353	1	1	NaN	4391187.3958619	NaN	4391188.3792727	4391188.89582518
104	19	1	0	90	36.1581920903955	36.241610738255	13	0.43336186401546	2	6	4	NaN	1	5	0.105262013047592	1	1	NaN	89	2	26	1	121	221	321	NaN	521	0.23224606923759	1	1	NaN	4391189.996111	NaN	4391190.9795312	4391191.49607913
104	19	1	0	90	36.1581920903955	36.241610738255	6	0.200013168007135	2	8	3	NaN	2	4	0.105262013047592	1	1	NaN	90	2	27	1	121	221	321	NaN	521	0.442051468417048	2	1	NaN	4391192.5463796	NaN	4391193.5297834	4391194.04631833
104	19	1	0	90	36.1581920903955	36.241610738255	18	0.600039504021406	2	8	5	NaN	2	3	0.105262013047592	1	1	NaN	91	2	28	1	121	221	321	NaN	521	0.220293615944684	2	1	NaN	4391195.2965982	NaN	4391196.2800485	4391196.79659178
104	19	1	0	90	36.1581920903955	36.241610738255	14	0.466697392016649	2	2	6	NaN	1	3	0.105262013047592	1	1	NaN	92	2	29	1	121	221	321	NaN	521	0.366176022216678	2	0	NaN	4391197.8302381	NaN	4391198.8136401	4391199.33017818
104	19	1	0	90	36.1581920903955	36.241610738255	17	0.566703976020217	2	2	5	NaN	1	4	0.105262013047592	1	1	NaN	93	2	30	1	121	221	321	NaN	521	0.347080715931952	1	1	NaN	4391200.5138314	NaN	4391201.4972039	4391202.01377438
104	19	1	0	90	36.1581920903955	36.241610738255	11	0.366690808013082	2	1	4	NaN	1	4	0.105262013047592	1	1	NaN	94	2	31	1	121	221	321	NaN	521	0.35170696862042	1	1	NaN	4391203.1807605	NaN	4391204.1641691	4391204.68069943
104	19	1	0	90	36.1581920903955	36.241610738255	6	0.200013168007135	2	6	5	NaN	1	4	0.105262013047592	1	1	NaN	95	2	32	1	121	221	321	NaN	521	0.229193869046867	1	1	NaN	4391205.8476798	NaN	4391206.8310817	4391207.34763753
104	19	1	0	90	36.1581920903955	36.241610738255	25	0.833388200029731	2	8	6	NaN	2	5	0.105262013047592	1	1	NaN	96	2	33	1	121	221	321	NaN	521	0.254560968838632	2	1	NaN	4391208.3979439	NaN	4391209.3813373	4391209.89788363
104	19	1	0	90	36.1581920903955	36.241610738255	11	0.366690808013082	2	8	6	NaN	2	4	0.105262013047592	1	1	NaN	97	2	34	1	121	221	321	NaN	521	0.248000968247652	2	1	NaN	4391210.964859	NaN	4391211.948269	4391212.46480603
104	19	1	0	90	36.1581920903955	36.241610738255	0	0	1	2	5	NaN	1	3	0.105262013047592	1	1	NaN	98	2	35	1	111	211	311	NaN	511	0.617456221021712	2	0	NaN	4391213.5151086	NaN	4391214.4985057	4391215.01505388
104	19	1	0	90	36.1581920903955	36.241610738255	12	0.400026336014271	2	9	5	NaN	2	5	0.105262013047592	1	1	NaN	99	2	36	1	121	221	321	NaN	521	0.755629668943584	1	0	NaN	4391216.4487196	NaN	4391217.4321385	4391217.94867383
104	19	1	0	90	36.1581920903955	36.241610738255	25	0.833388200029731	2	10	3	NaN	2	3	0.105262013047592	1	1	NaN	100	2	37	1	121	221	321	NaN	521	0.896698221564293	2	1	NaN	4391219.5157023	NaN	4391220.4990987	4391221.01564028
104	19	1	0	90	36.1581920903955	36.241610738255	11	0.366690808013082	2	11	3	NaN	2	3	0.105262013047592	1	1	NaN	101	2	38	1	121	221	321	NaN	521	3.11995676811785	2	1	NaN	4391222.7326721	NaN	4391223.7160765	4391224.23262453
104	19	1	0	90	36.1581920903955	36.241610738255	16	0.533368448019028	2	5	4	NaN	1	5	0.105262013047592	1	1	NaN	102	2	39	1	121	221	321	NaN	521	0.229937422089279	1	1	NaN	4391228.1665368	NaN	4391229.1499356	4391229.66649508
104	19	1	0	90	36.1581920903955	36.241610738255	20	0.666710560023785	2	11	2	NaN	2	4	0.105262013047592	1	1	NaN	103	2	40	1	121	221	321	NaN	521	0.311742968857288	2	1	NaN	4391230.7167893	NaN	4391231.7001813	4391232.21673353
104	19	1	0	90	36.1581920903955	36.241610738255	21	0.700046088024974	2	1	5	NaN	1	3	0.105262013047592	1	1	NaN	104	2	41	1	121	221	321	NaN	521	0.286405642516911	1	1	NaN	4391233.3503912	NaN	4391234.33379	4391234.85033186
104	19	1	0	90	36.1581920903955	36.241610738255	19	0.633375032022595	2	8	6	NaN	2	3	0.105262013047592	1	1	NaN	105	2	42	1	121	221	321	NaN	521	0.198393768630922	2	1	NaN	4391235.9506398	NaN	4391236.9340351	4391237.45058583
104	19	1	0	90	36.1581920903955	36.241610738255	12	0.400026336014271	2	3	5	NaN	1	3	0.105262013047592	1	1	NaN	106	2	43	1	121	221	321	NaN	521	0.193159616552293	1	1	NaN	4391238.4675648	NaN	4391239.4509523	4391239.96749358
104	19	1	0	90	36.1581920903955	36.241610738255	9	0.300019752010703	2	8	6	NaN	2	5	0.105262013047592	1	1	NaN	107	2	44	1	121	221	321	NaN	521	0.285163668915629	2	1	NaN	4391240.9678018	NaN	4391241.9511968	4391242.46774443
104	19	1	0	90	36.1581920903955	36.241610738255	7	0.233348696008325	2	10	3	NaN	2	5	0.105262013047592	1	1	NaN	108	2	45	1	121	221	321	NaN	521	5.71668696869165	2	1	NaN	4391243.5679394	NaN	4391244.5514587	4391245.06799413
104	19	1	0	90	36.1581920903955	36.241610738255	14	0.466697392016649	2	12	3	NaN	2	5	0.105262013047592	1	1	NaN	109	2	46	1	121	221	321	NaN	521	0.355080316774547	2	1	NaN	4391251.585505	NaN	4391252.5689007	4391253.08545218
104	19	1	0	90	36.1581920903955	36.241610738255	20	0.666710560023785	2	1	5	NaN	1	3	0.105262013047592	1	1	NaN	110	2	47	1	121	221	321	NaN	521	0.240119468420744	1	1	NaN	4391254.2524361	NaN	4391255.2358434	4391255.75237753
104	19	1	0	90	36.1581920903955	36.241610738255	16	0.533368448019028	2	1	6	NaN	1	5	0.105262013047592	1	1	NaN	111	2	48	1	121	221	321	NaN	521	0.2418218171224	1	1	NaN	4391256.8026802	NaN	4391257.7860858	4391258.30263418
104	19	1	0	90	36.1581920903955	36.241610738255	6	0.200013168007135	2	5	6	NaN	1	5	0.105262013047592	1	1	NaN	112	2	49	1	121	221	321	NaN	521	0.243528394959867	1	1	NaN	4391259.3529665	NaN	4391260.3363435	4391260.85290391
104	19	1	0	90	36.1581920903955	36.241610738255	18	0.600039504021406	2	2	1	NaN	1	3	0.105262013047592	1	1	NaN	113	2	50	1	121	221	321	NaN	521	1.65386726800352	1	1	NaN	4391261.903188	NaN	4391262.8865815	4391263.40313363
104	19	1	0	90	36.1581920903955	36.241610738255	7	0.233348696008325	2	1	6	NaN	1	3	0.105262013047592	1	1	NaN	114	2	51	1	121	221	321	NaN	521	0.233253221958876	1	1	NaN	4391266.203485	NaN	4391267.1870395	4391267.70356388
104	19	1	0	90	36.1581920903955	36.241610738255	21	0.700046088024974	2	11	1	NaN	2	4	0.105262013047592	1	1	NaN	115	2	52	1	121	221	321	NaN	521	1.11455466877669	2	1	NaN	4391268.7538596	NaN	4391269.7372531	4391270.25380473
104	19	1	0	90	36.1581920903955	36.241610738255	22	0.733381616026163	2	3	4	NaN	1	5	0.105262013047592	1	1	NaN	116	2	53	1	121	221	321	NaN	521	0.409111468121409	1	1	NaN	4391272.187551	NaN	4391273.1709239	4391273.68747653
104	19	1	0	90	36.1581920903955	36.241610738255	8	0.266684224009514	2	11	1	NaN	2	3	0.105262013047592	1	1	NaN	117	2	54	1	121	221	321	NaN	521	0.28405776899308	2	1	NaN	4391274.904455	NaN	4391275.8878458	4391276.40440473
104	19	1	0	90	36.1581920903955	36.241610738255	23	0.766717144027352	2	12	2	NaN	2	4	0.105262013047592	1	1	NaN	118	2	55	1	121	221	321	NaN	521	0.283870068378747	2	1	NaN	4391277.5047277	NaN	4391278.4881233	4391279.00465873
104	19	1	0	90	36.1581920903955	36.241610738255	15	0.500032920017839	2	1	6	NaN	1	4	0.105262013047592	1	1	NaN	119	2	56	1	121	221	321	NaN	521	0.235818068496883	1	1	NaN	4391280.1049669	NaN	4391281.0883924	4391281.60491893
104	19	1	0	90	36.1581920903955	36.241610738255	23	0.766717144027352	2	4	1	NaN	1	5	0.105262013047592	1	1	NaN	120	2	57	1	121	221	321	NaN	521	0.253751868382096	2	0	NaN	4391282.6552331	NaN	4391283.6386355	4391284.15516613
104	19	1	0	90	36.1581920903955	36.241610738255	21	0.700046088024974	2	5	1	NaN	1	4	0.105262013047592	1	1	NaN	121	2	58	1	121	221	321	NaN	521	0.830387416295707	1	1	NaN	4391285.2221345	NaN	4391286.2055761	4391286.72208348
104	19	1	0	90	36.1581920903955	36.241610738255	22	0.733381616026163	2	2	4	NaN	1	4	0.105262013047592	1	1	NaN	122	2	59	1	121	221	321	NaN	521	0.52860086876899	1	1	NaN	4391288.3724575	NaN	4391289.3558505	4391289.87240343
104	19	1	0	90	36.1581920903955	36.241610738255	10	0.333355280011892	2	10	2	NaN	2	4	0.105262013047592	1	1	NaN	123	2	60	1	121	221	321	NaN	521	0.470554068684578	2	1	NaN	4391291.2060629	NaN	4391292.1894542	4391292.70600703
104	19	1	0	90	36.1581920903955	36.241610738255	14	0.466697392016649	2	9	5	NaN	2	5	0.105262013047592	1	1	NaN	124	2	61	1	121	221	321	NaN	521	0.262688521295786	2	1	NaN	4391293.9896652	NaN	4391294.9730669	4391295.48962318
104	19	1	0	90	36.1581920903955	36.241610738255	19	0.633375032022595	2	12	3	NaN	2	4	0.105262013047592	1	1	NaN	125	2	62	1	121	221	321	NaN	521	0.631637068465352	2	1	NaN	4391296.5732143	NaN	4391297.5566519	4391298.07320093
104	19	1	0	90	36.1581920903955	36.241610738255	6	0.200013168007135	2	2	3	NaN	1	4	0.105262013047592	1	1	NaN	126	2	63	1	121	221	321	NaN	521	0.29759222175926	1	1	NaN	4391299.523544	NaN	4391300.5069415	4391301.02349658
104	19	1	0	90	36.1581920903955	36.241610738255	24	0.800052672028542	2	5	1	NaN	1	4	0.105262013047592	1	1	NaN	127	3	1	1	121	221	321	NaN	521	0.740043321624398	1	1	NaN	4391330.9766451	NaN	4391331.9599323	4391332.47657798
104	19	1	0	90	36.1581920903955	36.241610738255	11	0.366690808013082	2	7	5	NaN	2	5	0.105262013047592	1	1	NaN	128	3	2	1	121	221	321	NaN	521	0.514113068580627	2	1	NaN	4391334.026937	NaN	4391335.0103617	4391335.52688463
104	19	1	0	90	36.1581920903955	36.241610738255	18	0.600039504021406	2	1	4	NaN	1	3	0.105262013047592	1	1	NaN	129	3	3	1	121	221	321	NaN	521	0.232223115861416	1	1	NaN	4391336.8605467	NaN	4391337.8439537	4391338.36048768
104	19	1	0	90	36.1581920903955	36.241610738255	11	0.366690808013082	2	8	6	NaN	2	5	0.105262013047592	1	1	NaN	130	3	4	1	121	221	321	NaN	521	0.801800968125463	2	1	NaN	4391339.4106588	NaN	4391340.3941984	4391340.91073713
104	19	1	0	90	36.1581920903955	36.241610738255	17	0.566703976020217	2	3	1	NaN	1	5	0.105262013047592	1	1	NaN	131	3	5	1	121	221	321	NaN	521	0.236913368105888	1	1	NaN	4391342.5277703	NaN	4391343.5111538	4391344.02770843
104	19	1	0	90	36.1581920903955	36.241610738255	22	0.733381616026163	2	10	6	NaN	2	3	0.105262013047592	1	1	NaN	132	3	6	1	121	221	321	NaN	521	0.622690616175532	2	1	NaN	4391345.0780125	NaN	4391346.0614059	4391346.57795948
104	19	1	0	90	36.1581920903955	36.241610738255	18	0.600039504021406	2	9	6	NaN	2	4	0.105262013047592	1	1	NaN	133	3	7	1	121	221	321	NaN	521	0.433136968873441	2	1	NaN	4391348.0116618	NaN	4391348.9950339	4391349.51158003
104	19	1	0	90	36.1581920903955	36.241610738255	23	0.766717144027352	2	6	6	NaN	1	3	0.105262013047592	1	1	NaN	134	3	8	1	121	221	321	NaN	521	0.266961268149316	1	1	NaN	4391350.7618832	NaN	4391351.7453581	4391352.26185553
104	19	1	0	90	36.1581920903955	36.241610738255	25	0.833388200029731	2	1	2	NaN	1	3	0.105262013047592	1	1	NaN	135	3	9	1	121	221	321	NaN	521	0.251958121545613	1	1	NaN	4391353.3288586	NaN	4391354.3122427	4391354.82877548
104	19	1	0	90	36.1581920903955	36.241610738255	8	0.266684224009514	2	2	1	NaN	1	4	0.105262013047592	1	1	NaN	136	3	10	1	121	221	321	NaN	521	0.221083369106054	1	1	NaN	4391355.8957626	NaN	4391356.8791292	4391357.39569893
104	19	1	0	90	36.1581920903955	36.241610738255	9	0.300019752010703	2	3	3	NaN	1	5	0.105262013047592	1	1	NaN	137	3	11	1	121	221	321	NaN	521	0.223478722386062	1	1	NaN	4391358.4293526	NaN	4391359.4127495	4391359.92928248
104	19	1	0	90	36.1581920903955	36.241610738255	7	0.233348696008325	2	2	5	NaN	1	5	0.105262013047592	1	1	NaN	138	3	12	1	121	221	321	NaN	521	0.433598068542778	1	1	NaN	4391360.9629241	NaN	4391361.9462877	4391362.46285393
104	19	1	0	90	36.1581920903955	36.241610738255	23	0.766717144027352	2	9	1	NaN	2	3	0.105262013047592	1	1	NaN	139	3	13	1	121	221	321	NaN	521	2.11545957438648	2	1	NaN	4391363.7131893	NaN	4391364.6965799	4391365.21312903
104	19	1	0	90	36.1581920903955	36.241610738255	11	0.366690808013082	2	3	4	NaN	1	3	0.105262013047592	1	1	NaN	140	3	14	1	121	221	321	NaN	521	0.370178626850247	1	1	NaN	4391368.1469448	NaN	4391369.130387	4391369.64690007
104	19	1	0	90	36.1581920903955	36.241610738255	7	0.233348696008325	2	5	4	NaN	1	4	0.105262013047592	1	1	NaN	141	3	15	1	121	221	321	NaN	521	0.254347421228886	1	1	NaN	4391370.830542	NaN	4391371.8139386	4391372.33049288
104	19	1	0	90	36.1581920903955	36.241610738255	19	0.633375032022595	2	4	4	NaN	1	5	0.105262013047592	1	1	NaN	142	3	16	1	121	221	321	NaN	521	4.071413368918	2	0	NaN	4391373.3974607	NaN	4391374.3808557	4391374.89741723
104	19	1	0	90	36.1581920903955	36.241610738255	20	0.666710560023785	2	10	1	NaN	2	4	0.105262013047592	1	1	NaN	143	3	17	1	121	221	321	NaN	521	0.287416221573949	2	1	NaN	4391379.7814333	NaN	4391380.7648273	4391381.28136738
104	19	1	0	90	36.1581920903955	36.241610738255	23	0.766717144027352	2	3	5	NaN	1	5	0.105262013047592	1	1	NaN	144	3	18	1	121	221	321	NaN	521	0.383109268732369	1	1	NaN	4391382.3816826	NaN	4391383.36508	4391383.88162253
104	19	1	0	90	36.1581920903955	36.241610738255	12	0.400026336014271	2	2	2	NaN	1	4	0.105262013047592	1	1	NaN	145	3	19	1	121	221	321	NaN	521	2.14730356819928	1	1	NaN	4391385.0818268	NaN	4391386.0653439	4391386.58189063
104	19	1	0	90	36.1581920903955	36.241610738255	11	0.366690808013082	2	4	2	NaN	1	4	0.105262013047592	1	1	NaN	146	3	20	1	121	221	321	NaN	521	0.487852368503809	2	0	NaN	4391389.5490476	NaN	4391390.5324486	4391391.04899213
104	19	1	0	90	36.1581920903955	36.241610738255	19	0.633375032022595	2	3	3	NaN	1	5	0.105262013047592	1	1	NaN	147	3	21	1	121	221	321	NaN	521	0.247499422170222	1	1	NaN	4391392.3493157	NaN	4391393.332719	4391393.84926958
104	19	1	0	90	36.1581920903955	36.241610738255	16	0.533368448019028	2	8	5	NaN	2	4	0.105262013047592	1	1	NaN	148	3	22	1	121	221	321	NaN	521	0.304626422002912	2	1	NaN	4391394.9162381	NaN	4391395.8996411	4391396.41619148
104	19	1	0	90	36.1581920903955	36.241610738255	18	0.600039504021406	2	7	2	NaN	2	4	0.105262013047592	1	1	NaN	149	3	23	1	121	221	321	NaN	521	0.263764621689916	2	1	NaN	4391397.5331701	NaN	4391398.5165694	4391399.03311348
104	19	1	0	90	36.1581920903955	36.241610738255	8	0.266684224009514	2	12	3	NaN	2	5	0.105262013047592	1	1	NaN	150	3	24	1	121	221	321	NaN	521	0.879992769099772	2	1	NaN	4391400.1166083	NaN	4391401.1001385	4391401.61669623
104	19	1	0	90	36.1581920903955	36.241610738255	19	0.633375032022595	2	12	6	NaN	2	3	0.105262013047592	1	1	NaN	151	3	25	1	121	221	321	NaN	521	0.223702516406775	2	1	NaN	4391403.317096	NaN	4391404.3004715	4391404.81701368
104	19	1	0	90	36.1581920903955	36.241610738255	14	0.466697392016649	2	9	1	NaN	2	5	0.105262013047592	1	1	NaN	152	3	26	1	121	221	321	NaN	521	0.522202326916158	2	1	NaN	4391405.8505467	NaN	4391406.8340728	4391407.35059837
104	19	1	0	90	36.1581920903955	36.241610738255	17	0.566703976020217	2	11	1	NaN	2	5	0.105262013047592	1	1	NaN	153	3	27	1	121	221	321	NaN	521	1.1126425685361	2	1	NaN	4391408.6841246	NaN	4391409.6676461	4391410.18420483
104	19	1	0	90	36.1581920903955	36.241610738255	15	0.500032920017839	2	9	4	NaN	2	3	0.105262013047592	1	1	NaN	154	3	28	1	121	221	321	NaN	521	0.182963800616562	2	1	NaN	4391412.1179289	NaN	4391413.101388	4391413.6178687
104	19	1	0	90	36.1581920903955	36.241610738255	12	0.400026336014271	2	8	4	NaN	2	3	0.105262013047592	1	1	NaN	155	3	29	1	121	221	321	NaN	521	0.242817021906376	2	1	NaN	4391414.6181872	NaN	4391415.6015717	4391416.11813168
104	19	1	0	90	36.1581920903955	36.241610738255	8	0.266684224009514	2	11	4	NaN	2	4	0.105262013047592	1	1	NaN	156	3	30	1	121	221	321	NaN	521	0.340419868007302	2	1	NaN	4391417.1684493	NaN	4391418.1518218	4391418.66837223
104	19	1	0	90	36.1581920903955	36.241610738255	10	0.333355280011892	2	4	4	NaN	1	5	0.105262013047592	1	1	NaN	157	3	31	1	121	221	321	NaN	521	0.641500764526427	1	1	NaN	4391419.8353738	NaN	4391420.818757	4391421.33529714
104	19	1	0	90	36.1581920903955	36.241610738255	16	0.533368448019028	2	12	1	NaN	2	4	0.105262013047592	1	1	NaN	158	3	32	1	121	221	321	NaN	521	0.259211064316332	2	1	NaN	4391422.7856378	NaN	4391423.7690455	4391424.28558714
104	19	1	0	90	36.1581920903955	36.241610738255	13	0.43336186401546	2	9	3	NaN	2	3	0.105262013047592	1	1	NaN	159	3	33	1	121	221	321	NaN	521	0.236606420949101	2	1	NaN	4391425.3524914	NaN	4391426.3358455	4391426.85251118
104	19	1	0	90	36.1581920903955	36.241610738255	0	0	1	6	2	NaN	1	3	0.105262013047592	1	1	NaN	160	3	34	1	111	211	311	NaN	511	0.774348464794457	2	0	NaN	4391427.902839	NaN	4391428.8862059	4391429.40275304
104	19	1	0	90	36.1581920903955	36.241610738255	22	0.733381616026163	2	5	6	NaN	1	3	0.105262013047592	1	1	NaN	161	3	35	1	121	221	321	NaN	521	1.21075032185763	2	0	NaN	4391430.9864615	NaN	4391431.969841	4391432.48640168
104	19	1	0	90	36.1581920903955	36.241610738255	25	0.833388200029731	2	12	2	NaN	2	5	0.105262013047592	1	1	NaN	162	3	36	1	121	221	321	NaN	521	0.789707868359983	2	1	NaN	4391434.5034688	NaN	4391435.4868546	4391436.00341443
104	19	1	0	90	36.1581920903955	36.241610738255	13	0.43336186401546	2	7	3	NaN	2	3	0.105262013047592	1	1	NaN	163	3	37	1	121	221	321	NaN	521	1.65749512240291	2	1	NaN	4391437.6037869	NaN	4391438.5871925	4391439.10370678
104	19	1	0	90	36.1581920903955	36.241610738255	0	0	1	9	5	NaN	2	4	0.105262013047592	1	1	NaN	164	3	38	1	111	211	311	NaN	511	0.418469422496855	1	0	NaN	4391441.5708101	NaN	4391442.5542755	4391443.07077768
104	19	1	0	90	36.1581920903955	36.241610738255	24	0.800052672028542	2	9	4	NaN	2	5	0.105262013047592	1	1	NaN	165	3	39	1	121	221	321	NaN	521	0.228495479561388	2	1	NaN	4391444.3043022	NaN	4391445.2878262	4391445.80439352
104	19	1	0	90	36.1581920903955	36.241610738255	10	0.333355280011892	2	1	1	NaN	1	4	0.105262013047592	1	1	NaN	166	3	40	1	121	221	321	NaN	521	0.70227106846869	2	0	NaN	4391446.8547672	NaN	4391447.8380718	4391448.35461843
104	19	1	0	90	36.1581920903955	36.241610738255	25	0.833388200029731	2	10	3	NaN	2	4	0.105262013047592	1	1	NaN	167	3	41	1	121	221	321	NaN	521	0.317606468684971	2	1	NaN	4391449.8716445	NaN	4391450.8550354	4391451.37157773
104	19	1	0	90	36.1581920903955	36.241610738255	21	0.700046088024974	2	6	1	NaN	1	4	0.105262013047592	1	1	NaN	168	3	42	1	121	221	321	NaN	521	0.259689316153526	1	1	NaN	4391452.5052433	NaN	4391453.4886107	4391454.00516878
104	19	1	0	90	36.1581920903955	36.241610738255	0	0	1	1	1	NaN	1	5	0.105262013047592	1	1	NaN	169	3	43	1	111	211	311	NaN	511	0.421141821891069	2	0	NaN	4391455.0721494	NaN	4391456.0555524	4391456.57209698
104	19	1	0	90	36.1581920903955	36.241610738255	25	0.833388200029731	2	3	5	NaN	1	3	0.105262013047592	1	1	NaN	170	3	44	1	121	221	321	NaN	521	0.375104916281998	1	1	NaN	4391457.8057632	NaN	4391458.789159	4391459.30569648
104	19	1	0	90	36.1581920903955	36.241610738255	17	0.566703976020217	2	5	4	NaN	1	5	0.105262013047592	1	1	NaN	171	3	45	1	121	221	321	NaN	521	1.29136848915368	1	1	NaN	4391460.4893492	NaN	4391461.4727761	4391461.98929441
104	19	1	0	90	36.1581920903955	36.241610738255	9	0.300019752010703	2	4	3	NaN	1	3	0.105262013047592	1	1	NaN	172	3	46	1	121	221	321	NaN	521	1.34723171591759	1	1	NaN	4391464.0897133	NaN	4391465.0730776	4391465.58963978
104	19	1	0	90	36.1581920903955	36.241610738255	23	0.766717144027352	2	11	3	NaN	2	3	0.105262013047592	1	1	NaN	173	3	47	1	121	221	321	NaN	521	0.296031322330236	2	1	NaN	4391467.7567412	NaN	4391468.7401216	4391469.25667788
104	19	1	0	90	36.1581920903955	36.241610738255	9	0.300019752010703	2	8	3	NaN	2	4	0.105262013047592	1	1	NaN	174	3	48	1	121	221	321	NaN	521	0.239262737333775	2	1	NaN	4391470.3736586	NaN	4391471.3570562	4391471.87359926
104	19	1	0	90	36.1581920903955	36.241610738255	10	0.333355280011892	2	7	5	NaN	2	3	0.105262013047592	1	1	NaN	175	3	49	1	121	221	321	NaN	521	2.02485882118344	2	1	NaN	4391472.9237668	NaN	4391473.907308	4391474.42385448
104	19	1	0	90	36.1581920903955	36.241610738255	20	0.666710560023785	2	4	5	NaN	1	5	0.105262013047592	1	1	NaN	176	3	50	1	121	221	321	NaN	521	2.85958376806229	2	0	NaN	4391477.2576635	NaN	4391478.2410446	4391478.75760143
104	19	1	0	90	36.1581920903955	36.241610738255	16	0.533368448019028	2	7	6	NaN	2	4	0.105262013047592	1	1	NaN	177	3	51	1	121	221	321	NaN	521	3.31636092159897	2	1	NaN	4391482.4248372	NaN	4391483.4082267	4391483.92478688
104	19	1	0	90	36.1581920903955	36.241610738255	16	0.533368448019028	2	10	4	NaN	2	4	0.105262013047592	1	1	NaN	178	3	52	1	121	221	321	NaN	521	0.370538816787302	1	0	NaN	4391488.0587347	NaN	4391489.0421013	4391489.55865908
104	19	1	0	90	36.1581920903955	36.241610738255	18	0.600039504021406	2	11	3	NaN	2	5	0.105262013047592	1	1	NaN	179	3	53	1	121	221	321	NaN	521	0.598561322316527	2	1	NaN	4391490.7422841	NaN	4391491.7257151	4391492.24226918
104	19	1	0	90	36.1581920903955	36.241610738255	7	0.233348696008325	2	11	5	NaN	2	5	0.105262013047592	1	1	NaN	180	3	54	1	121	221	321	NaN	521	0.321788468398154	2	1	NaN	4391493.6592632	NaN	4391494.642673	4391495.15922243
104	19	1	0	90	36.1581920903955	36.241610738255	23	0.766717144027352	2	10	5	NaN	2	5	0.105262013047592	1	1	NaN	181	3	55	1	121	221	321	NaN	521	0.232078968547285	2	1	NaN	4391496.2929059	NaN	4391497.2762536	4391497.79280143
104	19	1	0	90	36.1581920903955	36.241610738255	21	0.700046088024974	2	4	1	NaN	1	3	0.105262013047592	1	1	NaN	182	3	56	1	121	221	321	NaN	521	0.249822868034244	1	1	NaN	4391498.8431154	NaN	4391499.8265154	4391500.34306403
104	19	1	0	90	36.1581920903955	36.241610738255	0	0	1	3	3	NaN	1	3	0.105262013047592	1	1	NaN	183	3	57	1	111	211	311	NaN	511	0.298969822004437	1	1	NaN	4391501.4100226	NaN	4391502.3934236	4391502.90998178
104	19	1	0	90	36.1581920903955	36.241610738255	18	0.600039504021406	2	10	1	NaN	2	5	0.105262013047592	1	1	NaN	184	3	58	1	121	221	321	NaN	521	0.225889769382775	2	1	NaN	4391504.0269514	NaN	4391505.0103606	4391505.52690073
104	19	1	0	90	36.1581920903955	36.241610738255	6	0.200013168007135	2	3	1	NaN	1	4	0.105262013047592	1	1	NaN	185	3	59	1	121	221	321	NaN	521	0.292525668628514	1	1	NaN	4391506.5605979	NaN	4391507.5439312	4391508.06047513
104	19	1	0	90	36.1581920903955	36.241610738255	13	0.43336186401546	2	10	5	NaN	2	4	0.105262013047592	1	1	NaN	186	3	60	1	121	221	321	NaN	521	0.3319999165833	2	1	NaN	4391509.1608063	NaN	4391510.1441752	4391510.66073308
104	19	1	0	90	36.1581920903955	36.241610738255	0	0	1	1	2	NaN	1	4	0.105262013047592	1	1	NaN	187	3	61	1	111	211	311	NaN	511	0.258331121876836	1	1	NaN	4391511.8110419	NaN	4391512.7944522	4391513.31100508
104	19	1	0	90	36.1581920903955	36.241610738255	22	0.733381616026163	2	1	5	NaN	1	5	0.105262013047592	1	1	NaN	188	3	62	1	121	221	321	NaN	521	0.267004068940878	1	1	NaN	4391514.3779754	NaN	4391515.361351	4391515.87791553
104	19	1	0	90	36.1581920903955	36.241610738255	8	0.266684224009514	2	10	6	NaN	2	5	0.105262013047592	1	1	NaN	189	3	63	1	121	221	321	NaN	521	0.227306921966374	2	1	NaN	4391516.9615621	NaN	4391517.9450631	4391518.46150788
104	19	1	0	90	36.1581920903955	36.241610738255	0	0	1	5	4	NaN	1	4	0.105262013047592	1	1	NaN	190	4	1	1	111	211	311	NaN	511	0.248843221925199	2	0	NaN	4391551.1481057	NaN	4391552.1316416	4391552.64819468
104	19	1	0	90	36.1581920903955	36.241610738255	23	0.766717144027352	2	8	2	NaN	2	5	0.105262013047592	1	1	NaN	191	4	2	1	121	221	321	NaN	521	0.354241267777979	2	1	NaN	4391553.7151625	NaN	4391554.6985346	4391555.21510873
104	19	1	0	90	36.1581920903955	36.241610738255	14	0.466697392016649	2	3	6	NaN	1	5	0.105262013047592	1	1	NaN	192	4	3	1	121	221	321	NaN	521	0.271229421719909	1	1	NaN	4391556.3821006	NaN	4391557.3654808	4391557.88204348
104	19	1	0	90	36.1581920903955	36.241610738255	21	0.700046088024974	2	7	5	NaN	2	3	0.105262013047592	1	1	NaN	193	4	4	1	121	221	321	NaN	521	0.279262368567288	2	1	NaN	4391558.9656955	NaN	4391559.9490771	4391560.46562383
104	19	1	0	90	36.1581920903955	36.241610738255	15	0.500032920017839	2	5	5	NaN	1	4	0.105262013047592	1	1	NaN	194	4	5	1	121	221	321	NaN	521	0.320190369151533	1	1	NaN	4391561.5492352	NaN	4391562.5326658	4391563.04921013
104	19	1	0	90	36.1581920903955	36.241610738255	12	0.400026336014271	2	6	2	NaN	1	4	0.105262013047592	1	1	NaN	195	4	6	1	121	221	321	NaN	521	0.150200268253684	1	1	NaN	4391564.1827325	NaN	4391565.1662325	4391565.68281173
104	19	1	0	90	36.1581920903955	36.241610738255	15	0.500032920017839	2	2	4	NaN	1	4	0.105262013047592	1	1	NaN	196	4	7	1	121	221	321	NaN	521	0.699318122118711	1	1	NaN	4391566.6497751	NaN	4391567.6330428	4391568.14972098
104	19	1	0	90	36.1581920903955	36.241610738255	13	0.43336186401546	2	12	4	NaN	2	5	0.105262013047592	1	1	NaN	197	4	8	1	121	221	321	NaN	521	0.234689569100738	2	1	NaN	4391569.6667397	NaN	4391570.6501579	4391571.16668063
104	19	1	0	90	36.1581920903955	36.241610738255	15	0.500032920017839	2	7	1	NaN	2	3	0.105262013047592	1	1	NaN	198	4	9	1	121	221	321	NaN	521	0.276046168990433	2	1	NaN	4391572.2169871	NaN	4391573.2004285	4391573.71692613
104	19	1	0	90	36.1581920903955	36.241610738255	18	0.600039504021406	2	12	2	NaN	2	5	0.105262013047592	1	1	NaN	199	4	10	1	121	221	321	NaN	521	0.980615269392729	2	1	NaN	4391574.8005643	NaN	4391575.7839676	4391576.30052023
104	19	1	0	90	36.1581920903955	36.241610738255	14	0.466697392016649	2	7	3	NaN	2	4	0.105262013047592	1	1	NaN	200	4	11	1	121	221	321	NaN	521	0.312860384583473	2	1	NaN	4391578.0842291	NaN	4391579.0676153	4391579.58417752
104	19	1	0	90	36.1581920903955	36.241610738255	7	0.233348696008325	2	9	2	NaN	2	3	0.105262013047592	1	1	NaN	201	4	12	1	121	221	321	NaN	521	0.183013068512082	2	1	NaN	4391580.7178283	NaN	4391581.7012076	4391582.21775613
104	19	1	0	90	36.1581920903955	36.241610738255	22	0.733381616026163	2	11	4	NaN	2	3	0.105262013047592	1	1	NaN	202	4	13	1	121	221	321	NaN	521	0.147035721689463	2	1	NaN	4391583.2180749	NaN	4391584.2014573	4391584.71801488
104	19	1	0	90	36.1581920903955	36.241610738255	10	0.333355280011892	2	11	5	NaN	2	5	0.105262013047592	1	1	NaN	203	4	14	1	121	221	321	NaN	521	0.192099767737091	2	1	NaN	4391585.6849576	NaN	4391586.6683662	4391587.18491273
104	19	1	0	90	36.1581920903955	36.241610738255	20	0.666710560023785	2	6	5	NaN	1	4	0.105262013047592	1	1	NaN	204	4	15	1	121	221	321	NaN	521	0.275865168310702	1	1	NaN	4391588.1852235	NaN	4391589.1686024	4391589.68515433
104	19	1	0	90	36.1581920903955	36.241610738255	25	0.833388200029731	2	2	1	NaN	1	3	0.105262013047592	1	1	NaN	205	4	16	1	121	221	321	NaN	521	0.300204517319798	1	1	NaN	4391590.7686701	NaN	4391591.7521692	4391592.26874568
104	19	1	0	90	36.1581920903955	36.241610738255	24	0.800052672028542	2	11	4	NaN	2	5	0.105262013047592	1	1	NaN	206	4	17	1	121	221	321	NaN	521	0.443287822417915	2	1	NaN	4391593.3857325	NaN	4391594.3691266	4391594.88567198
104	19	1	0	90	36.1581920903955	36.241610738255	11	0.366690808013082	2	10	2	NaN	2	3	0.105262013047592	1	1	NaN	207	4	18	1	121	221	321	NaN	521	0.181138616986573	2	1	NaN	4391596.1359869	NaN	4391597.1193891	4391597.63593928
104	19	1	0	90	36.1581920903955	36.241610738255	14	0.466697392016649	2	6	6	NaN	1	4	0.105262013047592	1	1	NaN	208	4	19	1	121	221	321	NaN	521	0.177540421485901	1	1	NaN	4391598.6195555	NaN	4391599.6030049	4391600.11952568
104	19	1	0	90	36.1581920903955	36.241610738255	23	0.766717144027352	2	8	4	NaN	2	5	0.105262013047592	1	1	NaN	209	4	20	1	121	221	321	NaN	521	3.55004916433245	2	1	NaN	4391601.1031406	NaN	4391602.086547	4391602.60309894
104	19	1	0	90	36.1581920903955	36.241610738255	9	0.300019752010703	2	11	2	NaN	2	5	0.105262013047592	1	1	NaN	210	4	21	1	121	221	321	NaN	521	3.45101782213897	2	1	NaN	4391606.9704083	NaN	4391607.9538358	4391608.47034158
104	19	1	0	90	36.1581920903955	36.241610738255	17	0.566703976020217	2	11	6	NaN	2	3	0.105262013047592	1	1	NaN	211	4	22	1	121	221	321	NaN	521	3.45994782168418	2	1	NaN	4391612.7376307	NaN	4391613.7210289	4391614.23757228
104	19	1	0	90	36.1581920903955	36.241610738255	11	0.366690808013082	2	4	3	NaN	1	3	0.105262013047592	1	1	NaN	212	4	23	1	121	221	321	NaN	521	0.788340768776834	2	0	NaN	4391618.5048616	NaN	4391619.4882674	4391620.00479913
104	19	1	0	90	36.1581920903955	36.241610738255	18	0.600039504021406	2	1	2	NaN	1	3	0.105262013047592	1	1	NaN	213	4	24	1	121	221	321	NaN	521	0.28000176884234	1	1	NaN	4391621.6051663	NaN	4391622.5885662	4391623.10511553
104	19	1	0	90	36.1581920903955	36.241610738255	0	0	1	5	3	NaN	1	3	0.105262013047592	1	1	NaN	214	4	25	1	111	211	311	NaN	511	0.0104128690436482	1	1	NaN	4391624.2054065	NaN	4391625.1888221	4391625.70536443
104	19	1	0	90	36.1581920903955	36.241610738255	20	0.666710560023785	2	5	6	NaN	1	4	0.105262013047592	1	1	NaN	215	4	26	1	121	221	321	NaN	521	0.25881361681968	1	1	NaN	4391626.5222924	NaN	4391627.5057351	4391628.02225028
104	19	1	0	90	36.1581920903955	36.241610738255	15	0.500032920017839	2	7	4	NaN	2	4	0.105262013047592	1	1	NaN	216	4	27	1	121	221	321	NaN	521	1.45165042113513	2	1	NaN	4391629.089096	NaN	4391630.0726355	4391630.58918378
104	19	1	0	90	36.1581920903955	36.241610738255	14	0.466697392016649	2	1	6	NaN	1	4	0.105262013047592	1	1	NaN	217	4	28	1	121	221	321	NaN	521	1.02935066912323	1	1	NaN	4391632.8562849	NaN	4391633.8397646	4391634.35620803
104	19	1	0	90	36.1581920903955	36.241610738255	12	0.400026336014271	2	7	1	NaN	2	5	0.105262013047592	1	1	NaN	218	4	29	1	121	221	321	NaN	521	0.255502021871507	2	1	NaN	4391636.1897982	NaN	4391637.1733221	4391637.68987988
104	19	1	0	90	36.1581920903955	36.241610738255	19	0.633375032022595	2	5	2	NaN	1	3	0.105262013047592	1	1	NaN	219	4	30	1	121	221	321	NaN	521	3.20065646804869	2	0	NaN	4391638.7567147	NaN	4391639.7402287	4391640.25678953
104	19	1	0	90	36.1581920903955	36.241610738255	14	0.466697392016649	2	4	2	NaN	1	3	0.105262013047592	1	1	NaN	220	4	31	1	121	221	321	NaN	521	0.411265221424401	1	1	NaN	4391644.2740591	NaN	4391645.2574518	4391645.77400678
104	19	1	0	90	36.1581920903955	36.241610738255	15	0.500032920017839	2	11	2	NaN	2	4	0.105262013047592	1	1	NaN	221	4	32	1	121	221	321	NaN	521	0.238451216369867	2	1	NaN	4391646.9909913	NaN	4391647.9743829	4391648.49093308
104	19	1	0	90	36.1581920903955	36.241610738255	10	0.333355280011892	2	2	3	NaN	1	4	0.105262013047592	1	1	NaN	222	4	33	1	121	221	321	NaN	521	0.647723521105945	2	0	NaN	4391649.5412412	NaN	4391650.5246359	4391651.04119088
104	19	1	0	90	36.1581920903955	36.241610738255	17	0.566703976020217	2	7	3	NaN	2	5	0.105262013047592	1	1	NaN	223	4	34	1	121	221	321	NaN	521	0.450025016441941	2	1	NaN	4391652.4915314	NaN	4391653.4749259	4391653.99146678
104	19	1	0	90	36.1581920903955	36.241610738255	21	0.700046088024974	2	10	2	NaN	2	5	0.105262013047592	1	1	NaN	224	4	35	1	121	221	321	NaN	521	0.330826821736991	2	1	NaN	4391655.258337	NaN	4391656.2418761	4391656.75841438
104	19	1	0	90	36.1581920903955	36.241610738255	25	0.833388200029731	2	4	3	NaN	1	4	0.105262013047592	1	1	NaN	225	4	36	1	121	221	321	NaN	521	0.265425668098032	1	1	NaN	4391657.8920565	NaN	4391658.875441	4391659.39200693
104	19	1	0	90	36.1581920903955	36.241610738255	22	0.733381616026163	2	12	6	NaN	2	3	0.105262013047592	1	1	NaN	226	4	37	1	121	221	321	NaN	521	0.177524921484292	2	1	NaN	4391660.4756749	NaN	4391661.4590449	4391661.97559738
104	19	1	0	90	36.1581920903955	36.241610738255	20	0.666710560023785	2	4	6	NaN	1	4	0.105262013047592	1	1	NaN	227	4	38	1	121	221	321	NaN	521	0.157979468815029	1	1	NaN	4391662.959221	NaN	4391663.9426098	4391664.45917013
104	19	1	0	90	36.1581920903955	36.241610738255	25	0.833388200029731	2	2	6	NaN	1	4	0.105262013047592	1	1	NaN	228	4	39	1	121	221	321	NaN	521	0.395088368095458	2	0	NaN	4391665.4261366	NaN	4391666.4095603	4391666.92607293
104	19	1	0	90	36.1581920903955	36.241610738255	24	0.800052672028542	2	5	1	NaN	1	5	0.105262013047592	1	1	NaN	229	4	40	1	121	221	321	NaN	521	0.286204468458891	1	1	NaN	4391668.1431154	NaN	4391669.1264597	4391669.64301413
104	19	1	0	90	36.1581920903955	36.241610738255	25	0.833388200029731	2	7	4	NaN	2	5	0.105262013047592	1	1	NaN	230	4	41	1	121	221	321	NaN	521	0.182223921641707	2	1	NaN	4391670.7433099	NaN	4391671.7267145	4391672.24327238
104	19	1	0	90	36.1581920903955	36.241610738255	23	0.766717144027352	2	4	4	NaN	1	3	0.105262013047592	1	1	NaN	231	4	42	1	121	221	321	NaN	521	0.297594369389117	2	0	NaN	4391673.243582	NaN	4391674.2269618	4391674.74351033
104	19	1	0	90	36.1581920903955	36.241610738255	15	0.500032920017839	2	1	5	NaN	1	5	0.105262013047592	1	1	NaN	232	4	43	1	121	221	321	NaN	521	0.336836822330952	2	0	NaN	4391675.860494	NaN	4391676.8439039	4391677.36043958
104	19	1	0	90	36.1581920903955	36.241610738255	15	0.500032920017839	2	4	2	NaN	1	5	0.105262013047592	1	1	NaN	233	4	44	1	121	221	321	NaN	521	0.246459469199181	2	0	NaN	4391678.510747	NaN	4391679.4940391	4391680.01069093
104	19	1	0	90	36.1581920903955	36.241610738255	6	0.200013168007135	2	2	1	NaN	1	4	0.105262013047592	1	1	NaN	234	4	45	1	121	221	321	NaN	521	0.551337568089366	1	1	NaN	4391681.0776956	NaN	4391682.0610593	4391682.57761913
104	19	1	0	90	36.1581920903955	36.241610738255	13	0.43336186401546	2	8	1	NaN	2	3	0.105262013047592	1	1	NaN	235	4	46	1	121	221	321	NaN	521	0.308514316566288	2	1	NaN	4391683.9444714	NaN	4391684.9280049	4391685.44455508
104	19	1	0	90	36.1581920903955	36.241610738255	9	0.300019752010703	2	11	6	NaN	2	4	0.105262013047592	1	1	NaN	236	4	47	1	121	221	321	NaN	521	0.267692268826067	2	1	NaN	4391686.561556	NaN	4391687.5449386	4391688.06147773
104	19	1	0	90	36.1581920903955	36.241610738255	25	0.833388200029731	2	8	1	NaN	2	4	0.105262013047592	1	1	NaN	237	4	48	1	121	221	321	NaN	521	0.260551637969911	2	1	NaN	4391689.1451203	NaN	4391690.1285213	4391690.64506866
104	19	1	0	90	36.1581920903955	36.241610738255	14	0.466697392016649	2	10	1	NaN	2	3	0.105262013047592	1	1	NaN	238	4	49	1	121	221	321	NaN	521	0.317353768274188	2	1	NaN	4391691.7120324	NaN	4391692.695439	4391693.21199003
104	19	1	0	90	36.1581920903955	36.241610738255	10	0.333355280011892	2	9	6	NaN	2	4	0.105262013047592	1	1	NaN	239	4	50	1	121	221	321	NaN	521	0.227592673152685	1	0	NaN	4391694.3456304	NaN	4391695.3290353	4391695.84557763
104	19	1	0	90	36.1581920903955	36.241610738255	19	0.633375032022595	2	10	6	NaN	2	4	0.105262013047592	1	1	NaN	240	4	51	1	121	221	321	NaN	521	0.421286321245134	1	0	NaN	4391696.8958888	NaN	4391697.8792867	4391698.39583928
104	19	1	0	90	36.1581920903955	36.241610738255	6	0.200013168007135	2	3	4	NaN	1	3	0.105262013047592	1	1	NaN	241	4	52	1	121	221	321	NaN	521	0.288167188875377	1	1	NaN	4391699.6294808	NaN	4391700.6128854	4391701.12943351
104	19	1	0	90	36.1581920903955	36.241610738255	11	0.366690808013082	2	7	5	NaN	2	3	0.105262013047592	1	1	NaN	242	4	53	1	121	221	321	NaN	521	2.24793346878141	2	1	NaN	4391702.2297542	NaN	4391703.2131347	4391703.72968573
104	19	1	0	90	36.1581920903955	36.241610738255	16	0.533368448019028	2	5	4	NaN	1	4	0.105262013047592	1	1	NaN	243	4	54	1	121	221	321	NaN	521	0.641781868413091	1	1	NaN	4391706.9635502	NaN	4391707.9469363	4391708.46349363
104	19	1	0	90	36.1581920903955	36.241610738255	0	0	1	9	5	NaN	2	4	0.105262013047592	1	1	NaN	244	4	55	1	111	211	311	NaN	511	0.755238321609795	2	1	NaN	4391709.9138275	NaN	4391710.8972306	4391711.41377688
104	19	1	0	90	36.1581920903955	36.241610738255	20	0.666710560023785	2	8	2	NaN	2	3	0.105262013047592	1	1	NaN	245	4	56	1	121	221	321	NaN	521	0.256473095156252	2	1	NaN	4391712.9808634	NaN	4391713.9641994	4391714.48075341
104	19	1	0	90	36.1581920903955	36.241610738255	10	0.333355280011892	2	12	4	NaN	2	4	0.105262013047592	1	1	NaN	246	4	57	1	121	221	321	NaN	521	2.96156262140721	1	0	NaN	4391715.5477205	NaN	4391716.531116	4391717.04766788
104	19	1	0	90	36.1581920903955	36.241610738255	25	0.833388200029731	2	11	6	NaN	2	5	0.105262013047592	1	1	NaN	247	4	58	1	121	221	321	NaN	521	0.334587167948484	2	1	NaN	4391720.8149372	NaN	4391721.7982995	4391722.31484783
104	19	1	0	90	36.1581920903955	36.241610738255	24	0.800052672028542	2	9	5	NaN	2	3	0.105262013047592	1	1	NaN	248	4	59	1	121	221	321	NaN	521	0.748071016743779	2	1	NaN	4391723.465164	NaN	4391724.4485497	4391724.96510898
104	19	1	0	90	36.1581920903955	36.241610738255	10	0.333355280011892	2	7	4	NaN	2	5	0.105262013047592	1	1	NaN	249	4	60	1	121	221	321	NaN	521	0.249396468512714	1	0	NaN	4391726.5321318	NaN	4391727.515516	4391728.03207313
104	19	1	0	90	36.1581920903955	36.241610738255	8	0.266684224009514	2	3	1	NaN	1	4	0.105262013047592	1	1	NaN	250	4	61	1	121	221	321	NaN	521	0.266295521520078	1	1	NaN	4391729.0990534	NaN	4391730.0824403	4391730.59899398
104	19	1	0	90	36.1581920903955	36.241610738255	13	0.43336186401546	2	4	6	NaN	1	4	0.105262013047592	1	1	NaN	251	4	62	1	121	221	321	NaN	521	0.675117468461394	2	0	NaN	4391731.6826378	NaN	4391732.6660317	4391733.18257383
104	19	1	0	90	36.1581920903955	36.241610738255	13	0.43336186401546	2	4	4	NaN	1	3	0.105262013047592	1	1	NaN	252	4	63	1	121	221	321	NaN	521	0.202866569161415	1	1	NaN	4391734.6661405	NaN	4391735.6496779	4391736.16620253
104	19	1	0	90	36.1581920903955	36.241610738255	21	0.700046088024974	2	9	4	NaN	2	3	0.105262013047592	1	1	NaN	253	5	1	1	121	221	321	NaN	521	0.368667721748352	2	1	NaN	4391788.8048834	NaN	4391789.788297	4391790.30485328
104	19	1	0	90	36.1581920903955	36.241610738255	24	0.800052672028542	2	10	6	NaN	2	5	0.105262013047592	1	1	NaN	254	5	2	1	121	221	321	NaN	521	0.276909316889942	2	1	NaN	4391791.4885009	NaN	4391792.4718961	4391792.98845018
104	19	1	0	90	36.1581920903955	36.241610738255	11	0.366690808013082	2	3	3	NaN	1	5	0.105262013047592	1	1	NaN	255	5	3	1	121	221	321	NaN	521	0.37335266917944	1	1	NaN	4391794.0721102	NaN	4391795.0555195	4391795.57202873
104	19	1	0	90	36.1581920903955	36.241610738255	15	0.500032920017839	2	8	4	NaN	2	5	0.105262013047592	1	1	NaN	256	5	4	1	121	221	321	NaN	521	0.361996968276799	2	1	NaN	4391796.7556834	NaN	4391797.7390738	4391798.25563263
104	19	1	0	90	36.1581920903955	36.241610738255	21	0.700046088024974	2	10	1	NaN	2	3	0.105262013047592	1	1	NaN	257	5	5	1	121	221	321	NaN	521	1.66271712165326	2	1	NaN	4391799.4226241	NaN	4391800.4060368	4391800.92255728
104	19	1	0	90	36.1581920903955	36.241610738255	6	0.200013168007135	2	7	3	NaN	2	4	0.105262013047592	1	1	NaN	258	5	6	1	121	221	321	NaN	521	0.455750027671456	2	1	NaN	4391803.3896642	NaN	4391804.3730634	4391804.88961537
104	19	1	0	90	36.1581920903955	36.241610738255	17	0.566703976020217	2	4	5	NaN	1	3	0.105262013047592	1	1	NaN	259	5	7	1	121	221	321	NaN	521	2.44877222087234	1	1	NaN	4391806.3566148	NaN	4391807.3400248	4391807.85657578
104	19	1	0	90	36.1581920903955	36.241610738255	12	0.400026336014271	2	4	4	NaN	1	5	0.105262013047592	1	1	NaN	260	5	8	1	121	221	321	NaN	521	0.530732068233192	2	0	NaN	4391811.1070891	NaN	4391812.0904905	4391812.60704443
104	19	1	0	90	36.1581920903955	36.241610738255	6	0.200013168007135	2	4	2	NaN	1	4	0.105262013047592	1	1	NaN	261	5	9	1	121	221	321	NaN	521	0.112113568931818	1	1	NaN	4391813.9573767	NaN	4391814.9407706	4391815.45731593
104	19	1	0	90	36.1581920903955	36.241610738255	8	0.266684224009514	2	7	4	NaN	2	3	0.105262013047592	1	1	NaN	262	5	10	1	121	221	321	NaN	521	0.206667168997228	2	1	NaN	4391816.3909481	NaN	4391817.3743394	4391817.89089503
104	19	1	0	90	36.1581920903955	36.241610738255	7	0.233348696008325	2	8	4	NaN	2	3	0.105262013047592	1	1	NaN	263	5	11	1	121	221	321	NaN	521	0.201523321680725	2	1	NaN	4391818.9078595	NaN	4391819.8912629	4391820.40781488
104	19	1	0	90	36.1581920903955	36.241610738255	18	0.600039504021406	2	7	2	NaN	2	3	0.105262013047592	1	1	NaN	264	5	12	1	121	221	321	NaN	521	0.172646668739617	2	1	NaN	4391821.4247731	NaN	4391822.4081836	4391822.92472673
104	19	1	0	90	36.1581920903955	36.241610738255	8	0.266684224009514	2	2	2	NaN	1	5	0.105262013047592	1	1	NaN	265	5	13	1	121	221	321	NaN	521	0.645672021433711	1	1	NaN	4391823.9916956	NaN	4391824.9750683	4391825.49163458
104	19	1	0	90	36.1581920903955	36.241610738255	9	0.300019752010703	2	10	4	NaN	2	4	0.105262013047592	1	1	NaN	266	5	14	1	121	221	321	NaN	521	1.01554636843503	2	1	NaN	4391826.9419755	NaN	4391827.9253697	4391828.44193343
104	19	1	0	90	36.1581920903955	36.241610738255	7	0.233348696008325	2	7	3	NaN	2	3	0.105262013047592	1	1	NaN	267	5	15	1	121	221	321	NaN	521	1.30613692104816	2	1	NaN	4391830.2756424	NaN	4391831.2590469	4391831.77558398
104	19	1	0	90	36.1581920903955	36.241610738255	23	0.766717144027352	2	12	2	NaN	2	4	0.105262013047592	1	1	NaN	268	5	16	1	121	221	321	NaN	521	0.456694321706891	2	1	NaN	4391833.8926599	NaN	4391834.8760373	4391835.39260928
104	19	1	0	90	36.1581920903955	36.241610738255	18	0.600039504021406	2	2	5	NaN	1	3	0.105262013047592	1	1	NaN	269	5	17	1	121	221	321	NaN	521	0.506155894137919	1	1	NaN	4391836.6596203	NaN	4391837.6429928	4391838.15955881
104	19	1	0	90	36.1581920903955	36.241610738255	18	0.600039504021406	2	8	3	NaN	2	3	0.105262013047592	1	1	NaN	270	5	18	1	121	221	321	NaN	521	0.353289294987917	2	1	NaN	4391839.4764225	NaN	4391840.4599311	4391840.9765015
104	19	1	0	90	36.1581920903955	36.241610738255	11	0.366690808013082	2	11	5	NaN	2	4	0.105262013047592	1	1	NaN	271	5	19	1	121	221	321	NaN	521	0.278058568015695	2	1	NaN	4391842.1434766	NaN	4391843.126853	4391843.64341373
104	19	1	0	90	36.1581920903955	36.241610738255	23	0.766717144027352	2	1	1	NaN	1	5	0.105262013047592	1	1	NaN	272	5	20	1	121	221	321	NaN	521	0.21380212623626	1	1	NaN	4391844.7437323	NaN	4391845.7271166	4391846.24368097
104	19	1	0	90	36.1581920903955	36.241610738255	11	0.366690808013082	2	12	6	NaN	2	4	0.105262013047592	1	1	NaN	273	5	21	1	121	221	321	NaN	521	0.224272369407117	2	1	NaN	4391847.2773045	NaN	4391848.2607319	4391848.77725483
104	19	1	0	90	36.1581920903955	36.241610738255	7	0.233348696008325	2	4	6	NaN	1	5	0.105262013047592	1	1	NaN	274	5	22	1	121	221	321	NaN	521	0.130581968463957	1	1	NaN	4391849.8109008	NaN	4391850.7942987	4391851.31083773
104	19	1	0	90	36.1581920903955	36.241610738255	12	0.400026336014271	2	1	2	NaN	1	3	0.105262013047592	1	1	NaN	275	5	23	1	121	221	321	NaN	521	0.0244731679558754	1	1	NaN	4391852.2611306	NaN	4391853.2445347	4391853.76108203
104	19	1	0	90	36.1581920903955	36.241610738255	11	0.366690808013082	2	10	3	NaN	2	5	0.105262013047592	1	1	NaN	276	5	24	1	121	221	321	NaN	521	0.210781421512365	2	1	NaN	4391854.594603	NaN	4391855.5780792	4391856.09465138
104	19	1	0	90	36.1581920903955	36.241610738255	23	0.766717144027352	2	5	5	NaN	1	3	0.105262013047592	1	1	NaN	277	5	25	1	121	221	321	NaN	521	0.294161521829665	1	1	NaN	4391857.1116002	NaN	4391858.0950148	4391858.61155938
104	19	1	0	90	36.1581920903955	36.241610738255	0	0	1	7	6	NaN	2	4	0.105262013047592	1	1	NaN	278	5	26	1	111	211	311	NaN	511	0.268850790336728	2	1	NaN	4391859.7285299	NaN	4391860.7119205	4391861.22848141
104	19	1	0	90	36.1581920903955	36.241610738255	20	0.666710560023785	2	9	1	NaN	2	4	0.105262013047592	1	1	NaN	279	5	27	1	121	221	321	NaN	521	1.3178004687652	1	0	NaN	4391862.3121182	NaN	4391863.2955142	4391863.81205993
104	19	1	0	90	36.1581920903955	36.241610738255	16	0.533368448019028	2	2	2	NaN	1	4	0.105262013047592	1	1	NaN	280	5	28	1	121	221	321	NaN	521	0.308052715845406	1	1	NaN	4391865.9458028	NaN	4391866.9291996	4391867.44575218
104	19	1	0	90	36.1581920903955	36.241610738255	17	0.566703976020217	2	6	6	NaN	1	5	0.105262013047592	1	1	NaN	281	5	29	1	121	221	321	NaN	521	0.482571568340063	1	1	NaN	4391868.5627419	NaN	4391869.5461349	4391870.06268253
104	19	1	0	90	36.1581920903955	36.241610738255	6	0.200013168007135	2	8	2	NaN	2	5	0.105262013047592	1	1	NaN	282	5	30	1	121	221	321	NaN	521	0.178481069393456	2	1	NaN	4391871.3630073	NaN	4391872.3464108	4391872.86295823
104	19	1	0	90	36.1581920903955	36.241610738255	21	0.700046088024974	2	6	1	NaN	1	5	0.105262013047592	1	1	NaN	283	5	31	1	121	221	321	NaN	521	0.254909569397569	1	1	NaN	4391873.8465887	NaN	4391874.8299364	4391875.34653203
104	19	1	0	90	36.1581920903955	36.241610738255	6	0.200013168007135	2	4	2	NaN	1	4	0.105262013047592	1	1	NaN	284	5	32	1	121	221	321	NaN	521	0.296338369138539	1	1	NaN	4391876.4135237	NaN	4391877.3968838	4391877.91345173
104	19	1	0	90	36.1581920903955	36.241610738255	22	0.733381616026163	2	8	2	NaN	2	4	0.105262013047592	1	1	NaN	285	5	33	1	121	221	321	NaN	521	0.952036168426275	1	0	NaN	4391879.0137644	NaN	4391879.9971467	4391880.51370613
104	19	1	0	90	36.1581920903955	36.241610738255	24	0.800052672028542	2	4	3	NaN	1	4	0.105262013047592	1	1	NaN	286	5	34	1	121	221	321	NaN	521	0.260999968275428	1	1	NaN	4391882.2807482	NaN	4391883.2641539	4391883.78069853
104	19	1	0	90	36.1581920903955	36.241610738255	0	0	1	10	4	NaN	2	5	0.105262013047592	1	1	NaN	287	5	35	1	111	211	311	NaN	511	0.181054373271763	2	1	NaN	4391884.8643495	NaN	4391885.8477588	4391886.36428563
104	19	1	0	90	36.1581920903955	36.241610738255	15	0.500032920017839	2	6	4	NaN	1	3	0.105262013047592	1	1	NaN	288	5	36	1	121	221	321	NaN	521	0.208776021376252	1	1	NaN	4391887.3644607	NaN	4391888.3479715	4391888.86452818
104	19	1	0	90	36.1581920903955	36.241610738255	16	0.533368448019028	2	4	3	NaN	1	5	0.105262013047592	1	1	NaN	289	5	37	1	121	221	321	NaN	521	0.324309116229415	1	1	NaN	4391889.8815063	NaN	4391890.8648917	4391891.38143768
104	19	1	0	90	36.1581920903955	36.241610738255	19	0.633375032022595	2	2	3	NaN	1	3	0.105262013047592	1	1	NaN	290	5	38	1	121	221	321	NaN	521	0.426588469184935	1	1	NaN	4391892.5150747	NaN	4391893.4984814	4391894.01502413
104	19	1	0	90	36.1581920903955	36.241610738255	0	0	1	6	3	NaN	1	5	0.105262013047592	1	1	NaN	291	5	39	1	111	211	311	NaN	511	0.124845921993256	1	1	NaN	4391895.2486847	NaN	4391896.2320864	4391896.74863768
104	19	1	0	90	36.1581920903955	36.241610738255	24	0.800052672028542	2	6	1	NaN	1	5	0.105262013047592	1	1	NaN	292	5	40	1	121	221	321	NaN	521	0.299182767979801	1	1	NaN	4391897.6821466	NaN	4391898.6656524	4391899.18220983
104	19	1	0	90	36.1581920903955	36.241610738255	13	0.43336186401546	2	3	6	NaN	1	4	0.105262013047592	1	1	NaN	293	5	41	1	121	221	321	NaN	521	0.226173922419548	1	1	NaN	4391900.2991999	NaN	4391901.2825661	4391901.79912648
104	19	1	0	90	36.1581920903955	36.241610738255	14	0.466697392016649	2	5	4	NaN	1	5	0.105262013047592	1	1	NaN	294	5	42	1	121	221	321	NaN	521	0.237082668580115	1	1	NaN	4391902.8327673	NaN	4391903.8161679	4391904.33271613
104	19	1	0	90	36.1581920903955	36.241610738255	0	0	1	12	1	NaN	2	5	0.105262013047592	1	1	NaN	295	5	43	1	111	211	311	NaN	511	1.31036387383938	2	1	NaN	4391905.3830263	NaN	4391906.3664182	4391906.88296673
104	19	1	0	90	36.1581920903955	36.241610738255	9	0.300019752010703	2	5	6	NaN	1	5	0.105262013047592	1	1	NaN	296	5	44	1	121	221	321	NaN	521	0.300982017070055	1	1	NaN	4391909.0167072	NaN	4391910.0001031	4391910.51664778
104	19	1	0	90	36.1581920903955	36.241610738255	8	0.266684224009514	2	6	2	NaN	1	3	0.105262013047592	1	1	NaN	297	5	45	1	121	221	321	NaN	521	0.388974168337882	1	1	NaN	4391911.6169587	NaN	4391912.6003555	4391913.11690073
104	19	1	0	90	36.1581920903955	36.241610738255	22	0.733381616026163	2	12	4	NaN	2	5	0.105262013047592	1	1	NaN	298	5	46	1	121	221	321	NaN	521	0.256365415640175	1	0	NaN	4391914.3172392	NaN	4391915.3006199	4391915.81716808
104	19	1	0	90	36.1581920903955	36.241610738255	15	0.500032920017839	2	12	1	NaN	2	4	0.105262013047592	1	1	NaN	299	5	47	1	121	221	321	NaN	521	0.0103945210576057	2	1	NaN	4391916.8841365	NaN	4391917.8675354	4391918.38409658
104	19	1	0	90	36.1581920903955	36.241610738255	18	0.600039504021406	2	11	2	NaN	2	4	0.105262013047592	1	1	NaN	300	5	48	1	121	221	321	NaN	521	0.372849963605404	2	1	NaN	4391919.2010281	NaN	4391920.1844232	4391920.70098124
104	19	1	0	90	36.1581920903955	36.241610738255	17	0.566703976020217	2	6	1	NaN	1	4	0.105262013047592	1	1	NaN	301	5	49	1	121	221	321	NaN	521	0.225143043324351	1	1	NaN	4391921.8846265	NaN	4391922.8680252	4391923.38458836
104	19	1	0	90	36.1581920903955	36.241610738255	7	0.233348696008325	2	10	3	NaN	2	5	0.105262013047592	1	1	NaN	302	5	50	1	121	221	321	NaN	521	0.267312115989625	2	1	NaN	4391924.418232	NaN	4391925.4016055	4391925.91816268
104	19	1	0	90	36.1581920903955	36.241610738255	22	0.733381616026163	2	7	6	NaN	2	5	0.105262013047592	1	1	NaN	303	5	51	1	121	221	321	NaN	521	0.307599074207246	2	1	NaN	4391927.0018096	NaN	4391927.9851991	4391928.50174953
104	19	1	0	90	36.1581920903955	36.241610738255	14	0.466697392016649	2	4	5	NaN	1	5	0.105262013047592	1	1	NaN	304	5	52	1	121	221	321	NaN	521	1.61879926826805	1	1	NaN	4391929.6187257	NaN	4391930.6022026	4391931.11867663
104	19	1	0	90	36.1581920903955	36.241610738255	23	0.766717144027352	2	11	4	NaN	2	3	0.105262013047592	1	1	NaN	305	5	53	1	121	221	321	NaN	521	2.31743886880577	2	1	NaN	4391933.5524534	NaN	4391934.5357345	4391935.05239213
104	19	1	0	90	36.1581920903955	36.241610738255	16	0.533368448019028	2	4	6	NaN	1	4	0.105262013047592	1	1	NaN	306	5	54	1	121	221	321	NaN	521	0.4197001690045	1	1	NaN	4391938.186267	NaN	4391939.1696365	4391939.68617623
104	19	1	0	90	36.1581920903955	36.241610738255	10	0.333355280011892	2	6	3	NaN	1	5	0.105262013047592	1	1	NaN	307	5	55	1	121	221	321	NaN	521	0.213579921983182	2	0	NaN	4391940.9198395	NaN	4391941.9032379	4391942.41978708
104	19	1	0	90	36.1581920903955	36.241610738255	23	0.766717144027352	2	9	1	NaN	2	4	0.105262013047592	1	1	NaN	308	5	56	1	121	221	321	NaN	521	0.584573821164668	2	1	NaN	4391943.4534096	NaN	4391944.4368126	4391944.95336308
104	19	1	0	90	36.1581920903955	36.241610738255	0	0	1	4	5	NaN	1	3	0.105262013047592	1	1	NaN	309	5	57	1	111	211	311	NaN	511	1.13999996799976	1	1	NaN	4391946.3537174	NaN	4391947.3370978	4391947.85364733
104	19	1	0	90	36.1581920903955	36.241610738255	14	0.466697392016649	2	2	6	NaN	1	5	0.105262013047592	1	1	NaN	310	5	58	1	121	221	321	NaN	521	0.353761416859925	1	1	NaN	4391949.8040519	NaN	4391950.7874306	4391951.30398778
104	19	1	0	90	36.1581920903955	36.241610738255	25	0.833388200029731	2	1	2	NaN	1	3	0.105262013047592	1	1	NaN	311	5	59	1	121	221	321	NaN	521	0.726706221699715	2	0	NaN	4391952.4709633	NaN	4391953.4543743	4391953.97091568
104	19	1	0	90	36.1581920903955	36.241610738255	13	0.43336186401546	2	8	1	NaN	2	3	0.105262013047592	1	1	NaN	312	5	60	1	121	221	321	NaN	521	0.1890156166628	2	1	NaN	4391955.5046104	NaN	4391956.487999	4391957.00454938
104	19	1	0	90	36.1581920903955	36.241610738255	6	0.200013168007135	2	1	5	NaN	1	3	0.105262013047592	1	1	NaN	313	5	61	1	121	221	321	NaN	521	0.192801868543029	1	1	NaN	4391958.0048635	NaN	4391958.9882438	4391959.50479393
104	19	1	0	90	36.1581920903955	36.241610738255	17	0.566703976020217	2	3	5	NaN	1	3	0.105262013047592	1	1	NaN	314	5	62	1	121	221	321	NaN	521	3.2528070686385	2	0	NaN	4391960.5051282	NaN	4391961.4884841	4391962.00504233
104	19	1	0	90	36.1581920903955	36.241610738255	9	0.300019752010703	2	12	2	NaN	2	5	0.105262013047592	1	1	NaN	315	5	63	1	121	221	321	NaN	521	0.277281167916954	2	1	NaN	4391966.0723087	NaN	4391967.0557044	4391967.57225033
104	19	1	0	90	36.1581920903955	36.241610738255	21	0.700046088024974	2	8	3	NaN	2	5	0.105262013047592	1	1	NaN	316	6	1	1	121	221	321	NaN	521	0.4287463221699	2	1	NaN	4392025.3447841	NaN	4392026.3281846	4392026.84473518
104	19	1	0	90	36.1581920903955	36.241610738255	9	0.300019752010703	2	5	5	NaN	1	4	0.105262013047592	1	1	NaN	317	6	2	1	121	221	321	NaN	521	2.21520646847785	1	1	NaN	4392028.0783801	NaN	4392029.061777	4392029.57833343
104	19	1	0	90	36.1581920903955	36.241610738255	20	0.666710560023785	2	12	3	NaN	2	4	0.105262013047592	1	1	NaN	318	6	3	1	121	221	321	NaN	521	0.369637426920235	2	1	NaN	4392032.6121542	NaN	4392033.5955244	4392034.11212377
104	19	1	0	90	36.1581920903955	36.241610738255	22	0.733381616026163	2	2	2	NaN	1	5	0.105262013047592	1	1	NaN	319	6	4	1	121	221	321	NaN	521	3.02192221581936	1	1	NaN	4392035.2957682	NaN	4392036.2791668	4392036.79571118
104	19	1	0	90	36.1581920903955	36.241610738255	19	0.633375032022595	2	10	2	NaN	2	5	0.105262013047592	1	1	NaN	320	6	5	1	121	221	321	NaN	521	1.22399132139981	2	1	NaN	4392040.6296248	NaN	4392041.6130224	4392042.12957508
104	19	1	0	90	36.1581920903955	36.241610738255	14	0.466697392016649	2	8	3	NaN	2	4	0.105262013047592	1	1	NaN	321	6	6	1	121	221	321	NaN	521	1.49039761628956	2	1	NaN	4392044.1632663	NaN	4392045.1466903	4392045.66324748
104	19	1	0	90	36.1581920903955	36.241610738255	12	0.400026336014271	2	5	3	NaN	1	4	0.105262013047592	1	1	NaN	322	6	7	1	121	221	321	NaN	521	0.473956421948969	1	1	NaN	4392047.9635628	NaN	4392048.9470767	4392049.46361648
104	19	1	0	90	36.1581920903955	36.241610738255	16	0.533368448019028	2	7	4	NaN	2	3	0.105262013047592	1	1	NaN	323	6	8	1	121	221	321	NaN	521	1.70203196816146	2	1	NaN	4392051.0639515	NaN	4392052.0473806	4392052.56393083
104	19	1	0	90	36.1581920903955	36.241610738255	7	0.233348696008325	2	4	3	NaN	1	4	0.105262013047592	1	1	NaN	324	6	9	1	121	221	321	NaN	521	1.44456002116203	1	1	NaN	4392055.0810353	NaN	4392056.0644315	4392056.58100278
104	19	1	0	90	36.1581920903955	36.241610738255	20	0.666710560023785	2	7	6	NaN	2	3	0.105262013047592	1	1	NaN	325	6	10	1	121	221	321	NaN	521	0.470667215995491	2	1	NaN	4392058.8314251	NaN	4392059.8147897	4392060.33134888
104	19	1	0	90	36.1581920903955	36.241610738255	12	0.400026336014271	2	12	1	NaN	2	3	0.105262013047592	1	1	NaN	326	6	11	1	121	221	321	NaN	521	0.535077221691608	2	1	NaN	4392061.6150045	NaN	4392062.5984213	4392063.11495798
104	19	1	0	90	36.1581920903955	36.241610738255	15	0.500032920017839	2	3	2	NaN	1	5	0.105262013047592	1	1	NaN	327	6	12	1	121	221	321	NaN	521	4.1325941644609	1	1	NaN	4392064.4652939	NaN	4392065.4486676	4392065.96525464
104	19	1	0	90	36.1581920903955	36.241610738255	14	0.466697392016649	2	5	3	NaN	1	3	0.105262013047592	1	1	NaN	328	6	13	1	121	221	321	NaN	521	0.546144216321409	1	1	NaN	4392070.9158831	NaN	4392071.8993255	4392072.41587778
104	19	1	0	90	36.1581920903955	36.241610738255	22	0.733381616026163	2	4	1	NaN	1	4	0.105262013047592	1	1	NaN	329	6	14	1	121	221	321	NaN	521	0.647989068180323	1	1	NaN	4392073.7661795	NaN	4392074.7496056	4392075.26615393
104	19	1	0	90	36.1581920903955	36.241610738255	23	0.766717144027352	2	10	4	NaN	2	3	0.105262013047592	1	1	NaN	330	6	15	1	121	221	321	NaN	521	1.03333702124655	1	0	NaN	4392076.7164825	NaN	4392077.6998937	4392078.21644788
104	19	1	0	90	36.1581920903955	36.241610738255	21	0.700046088024974	2	2	6	NaN	1	3	0.105262013047592	1	1	NaN	331	6	16	1	121	221	321	NaN	521	0.299383568577468	1	1	NaN	4392080.0666793	NaN	4392081.0502009	4392081.56677833
104	19	1	0	90	36.1581920903955	36.241610738255	18	0.600039504021406	2	3	4	NaN	1	5	0.105262013047592	1	1	NaN	332	6	17	1	121	221	321	NaN	521	3.61849556863308	1	1	NaN	4392082.6837753	NaN	4392083.6671462	4392084.18368813
104	19	1	0	90	36.1581920903955	36.241610738255	22	0.733381616026163	2	7	5	NaN	2	3	0.105262013047592	1	1	NaN	333	6	18	1	121	221	321	NaN	521	1.20450796931982	2	1	NaN	4392088.6176823	NaN	4392089.6010628	4392090.11761023
104	19	1	0	90	36.1581920903955	36.241610738255	6	0.200013168007135	2	9	3	NaN	2	4	0.105262013047592	1	1	NaN	334	6	19	1	121	221	321	NaN	521	2.98186902143061	2	1	NaN	4392092.1679774	NaN	4392093.1514049	4392093.66796488
104	19	1	0	90	36.1581920903955	36.241610738255	23	0.766717144027352	2	1	3	NaN	1	5	0.105262013047592	1	1	NaN	335	6	20	1	121	221	321	NaN	521	1.17765936907381	1	1	NaN	4392097.4685272	NaN	4392098.4519283	4392098.96847973
104	19	1	0	90	36.1581920903955	36.241610738255	7	0.233348696008325	2	1	6	NaN	1	5	0.105262013047592	1	1	NaN	336	6	21	1	121	221	321	NaN	521	0.221941073425114	1	1	NaN	4392100.9522043	NaN	4392101.935606	4392102.45214953
104	19	1	0	90	36.1581920903955	36.241610738255	6	0.200013168007135	2	10	6	NaN	2	3	0.105262013047592	1	1	NaN	337	6	22	1	121	221	321	NaN	521	0.712080768309534	2	1	NaN	4392103.4858025	NaN	4392104.4691679	4392104.98573993
104	19	1	0	90	36.1581920903955	36.241610738255	22	0.733381616026163	2	3	3	NaN	1	3	0.105262013047592	1	1	NaN	338	6	23	1	121	221	321	NaN	521	0.270442768931389	1	1	NaN	4392106.5194275	NaN	4392107.5028149	4392108.01937593
104	19	1	0	90	36.1581920903955	36.241610738255	21	0.700046088024974	2	12	4	NaN	2	5	0.105262013047592	1	1	NaN	339	6	24	1	121	221	321	NaN	521	0.102592768147588	2	1	NaN	4392109.1030021	NaN	4392110.0864142	4392110.60295443
104	19	1	0	90	36.1581920903955	36.241610738255	11	0.366690808013082	2	9	5	NaN	2	5	0.105262013047592	1	1	NaN	340	6	25	1	121	221	321	NaN	521	3.7019056212157	2	1	NaN	4392111.5199237	NaN	4392112.5033464	4392113.01986468
104	19	1	0	90	36.1581920903955	36.241610738255	14	0.466697392016649	2	12	1	NaN	2	3	0.105262013047592	1	1	NaN	341	6	26	1	121	221	321	NaN	521	0.396818668581545	2	1	NaN	4392117.5371627	NaN	4392118.5205738	4392119.03711183
104	19	1	0	90	36.1581920903955	36.241610738255	14	0.466697392016649	2	6	3	NaN	1	4	0.105262013047592	1	1	NaN	342	6	27	1	121	221	321	NaN	521	0.303650168702006	1	1	NaN	4392120.2541091	NaN	4392121.2373935	4392121.75404423
104	19	1	0	90	36.1581920903955	36.241610738255	23	0.766717144027352	2	5	2	NaN	1	4	0.105262013047592	1	1	NaN	343	6	28	1	121	221	321	NaN	521	0.43906506896019	1	1	NaN	4392122.8710214	NaN	4392123.8544657	4392124.37097963
104	19	1	0	90	36.1581920903955	36.241610738255	25	0.833388200029731	2	9	6	NaN	2	3	0.105262013047592	1	1	NaN	344	6	29	1	121	221	321	NaN	521	0.36793611664325	1	0	NaN	4392125.6378256	NaN	4392126.6213696	4392127.13791738
104	19	1	0	90	36.1581920903955	36.241610738255	23	0.766717144027352	2	3	4	NaN	1	4	0.105262013047592	1	1	NaN	345	6	30	1	121	221	321	NaN	521	0.164442468434572	1	1	NaN	4392128.3215635	NaN	4392129.3049389	4392129.82150763
104	19	1	0	90	36.1581920903955	36.241610738255	18	0.600039504021406	2	6	3	NaN	1	5	0.105262013047592	1	1	NaN	346	6	31	1	121	221	321	NaN	521	1.24138196930289	1	1	NaN	4392130.7884987	NaN	4392131.7718642	4392132.28841113
104	19	1	0	90	36.1581920903955	36.241610738255	15	0.500032920017839	2	4	6	NaN	1	5	0.105262013047592	1	1	NaN	347	6	32	1	121	221	321	NaN	521	0.322915937751532	2	0	NaN	4392134.3388013	NaN	4392135.3222126	4392135.83877406
104	19	1	0	90	36.1581920903955	36.241610738255	11	0.366690808013082	2	9	4	NaN	2	3	0.105262013047592	1	1	NaN	348	6	33	1	121	221	321	NaN	521	0.329286021180451	2	1	NaN	4392136.9724051	NaN	4392137.9558387	4392138.47236378
104	19	1	0	90	36.1581920903955	36.241610738255	21	0.700046088024974	2	7	1	NaN	2	5	0.105262013047592	1	1	NaN	349	6	34	1	121	221	321	NaN	521	2.16755471657962	2	1	NaN	4392139.6226845	NaN	4392140.6061083	4392141.12262408
104	19	1	0	90	36.1581920903955	36.241610738255	22	0.733381616026163	2	6	4	NaN	1	5	0.105262013047592	1	1	NaN	350	6	35	1	121	221	321	NaN	521	0.291533089242876	1	1	NaN	4392144.1064498	NaN	4392145.0898554	4392145.60639611
104	19	1	0	90	36.1581920903955	36.241610738255	13	0.43336186401546	2	11	6	NaN	2	4	0.105262013047592	1	1	NaN	351	6	36	1	121	221	321	NaN	521	2.01125666871667	2	1	NaN	4392146.7067068	NaN	4392147.6901306	4392148.20664843
104	19	1	0	90	36.1581920903955	36.241610738255	6	0.200013168007135	2	12	6	NaN	2	5	0.105262013047592	1	1	NaN	352	6	37	1	121	221	321	NaN	521	0.238088421523571	2	1	NaN	4392151.0237909	NaN	4392152.0071881	4392152.52373728
104	19	1	0	90	36.1581920903955	36.241610738255	20	0.666710560023785	2	8	1	NaN	2	3	0.105262013047592	1	1	NaN	353	6	38	1	121	221	321	NaN	521	0.472072068601847	2	1	NaN	4392153.5740324	NaN	4392154.5574455	4392155.07398483
104	19	1	0	90	36.1581920903955	36.241610738255	0	0	1	3	3	NaN	1	4	0.105262013047592	1	1	NaN	354	6	39	1	111	211	311	NaN	511	0.224251189269125	1	1	NaN	4392156.3576576	NaN	4392157.3411347	4392157.85760121
104	19	1	0	90	36.1581920903955	36.241610738255	20	0.666710560023785	2	10	5	NaN	2	3	0.105262013047592	1	1	NaN	355	6	40	1	121	221	321	NaN	521	0.25109216850251	2	1	NaN	4392158.8912239	NaN	4392159.8746267	4392160.39117993
104	19	1	0	90	36.1581920903955	36.241610738255	24	0.800052672028542	2	1	6	NaN	1	3	0.105262013047592	1	1	NaN	356	6	41	1	121	221	321	NaN	521	0.315653622150421	1	1	NaN	4392161.4581549	NaN	4392162.4415375	4392162.95810178
104	19	1	0	90	36.1581920903955	36.241610738255	16	0.533368448019028	2	8	2	NaN	2	5	0.105262013047592	1	1	NaN	357	6	42	1	121	221	321	NaN	521	0.546900764107704	2	1	NaN	4392164.0750641	NaN	4392165.0584666	4392165.57501754
104	19	1	0	90	36.1581920903955	36.241610738255	21	0.700046088024974	2	3	1	NaN	1	5	0.105262013047592	1	1	NaN	358	6	43	1	121	221	321	NaN	521	1.42983967345208	1	1	NaN	4392166.9919065	NaN	4392167.9754219	4392168.49197903
104	19	1	0	90	36.1581920903955	36.241610738255	20	0.666710560023785	2	11	2	NaN	2	3	0.105262013047592	1	1	NaN	359	6	44	1	121	221	321	NaN	521	0.39224326889962	2	1	NaN	4392170.7257192	NaN	4392171.7091152	4392172.22567723
104	19	1	0	90	36.1581920903955	36.241610738255	0	0	1	10	4	NaN	2	3	0.105262013047592	1	1	NaN	360	6	45	1	111	211	311	NaN	511	2.38026826828718	2	1	NaN	4392173.4259853	NaN	4392174.4093681	4392174.92593753
104	19	1	0	90	36.1581920903955	36.241610738255	14	0.466697392016649	2	1	3	NaN	1	3	0.105262013047592	1	1	NaN	361	6	46	1	121	221	321	NaN	521	0.223337268456817	1	1	NaN	4392178.1264472	NaN	4392179.1097469	4392179.62640363
104	19	1	0	90	36.1581920903955	36.241610738255	8	0.266684224009514	2	10	2	NaN	2	4	0.105262013047592	1	1	NaN	362	6	47	1	121	221	321	NaN	521	0.169699667952955	2	1	NaN	4392180.6599307	NaN	4392181.6434341	4392182.15997783
104	19	1	0	90	36.1581920903955	36.241610738255	17	0.566703976020217	2	2	2	NaN	1	5	0.105262013047592	1	1	NaN	363	6	48	1	121	221	321	NaN	521	0.80628701671958	2	0	NaN	4392183.1434816	NaN	4392184.1269996	4392184.64355578
104	19	1	0	90	36.1581920903955	36.241610738255	24	0.800052672028542	2	10	3	NaN	2	4	0.105262013047592	1	1	NaN	364	6	49	1	121	221	321	NaN	521	0.313353369012475	2	1	NaN	4392186.2605861	NaN	4392187.243987	4392187.76052653
104	19	1	0	90	36.1581920903955	36.241610738255	11	0.366690808013082	2	2	2	NaN	1	5	0.105262013047592	1	1	NaN	365	6	50	1	121	221	321	NaN	521	0.311652273871005	1	1	NaN	4392188.8941661	NaN	4392189.8775861	4392190.39412753
104	19	1	0	90	36.1581920903955	36.241610738255	18	0.600039504021406	2	3	6	NaN	1	5	0.105262013047592	1	1	NaN	366	6	51	1	121	221	321	NaN	521	0.195687221363187	2	0	NaN	4392191.594311	NaN	4392192.5778344	4392193.09439278
104	19	1	0	90	36.1581920903955	36.241610738255	17	0.566703976020217	2	4	5	NaN	1	3	0.105262013047592	1	1	NaN	367	6	52	1	121	221	321	NaN	521	0.735149768181145	2	0	NaN	4392194.0947857	NaN	4392195.0780571	4392195.59463863
104	19	1	0	90	36.1581920903955	36.241610738255	24	0.800052672028542	2	3	5	NaN	1	3	0.105262013047592	1	1	NaN	368	6	53	1	121	221	321	NaN	521	0.429236921481788	1	1	NaN	4392197.1449817	NaN	4392198.1283799	4392198.64493408
104	19	1	0	90	36.1581920903955	36.241610738255	8	0.266684224009514	2	3	4	NaN	1	3	0.105262013047592	1	1	NaN	369	6	54	1	121	221	321	NaN	521	0.294677868485451	2	0	NaN	4392199.8952415	NaN	4392200.8786498	4392201.39520743
104	19	1	0	90	36.1581920903955	36.241610738255	20	0.666710560023785	2	2	3	NaN	1	5	0.105262013047592	1	1	NaN	370	6	55	1	121	221	321	NaN	521	0.462072921916842	2	0	NaN	4392202.5121733	NaN	4392203.4955863	4392204.01213028
104	19	1	0	90	36.1581920903955	36.241610738255	9	0.300019752010703	2	2	2	NaN	1	4	0.105262013047592	1	1	NaN	371	6	56	1	121	221	321	NaN	521	0.199002222158015	1	1	NaN	4392205.2791095	NaN	4392206.2624965	4392206.77906808
104	19	1	0	90	36.1581920903955	36.241610738255	13	0.43336186401546	2	1	4	NaN	1	5	0.105262013047592	1	1	NaN	372	6	57	1	121	221	321	NaN	521	0.130266416817904	1	1	NaN	4392207.7960271	NaN	4392208.7794284	4392209.29597908
104	19	1	0	90	36.1581920903955	36.241610738255	6	0.200013168007135	2	11	2	NaN	2	3	0.105262013047592	1	1	NaN	373	6	58	1	121	221	321	NaN	521	0.223433815874159	2	1	NaN	4392210.2462632	NaN	4392211.2296664	4392211.74621018
104	19	1	0	90	36.1581920903955	36.241610738255	19	0.633375032022595	2	11	5	NaN	2	5	0.105262013047592	1	1	NaN	374	6	59	1	121	221	321	NaN	521	2.18608886841685	2	1	NaN	4392212.7798647	NaN	4392213.7632395	4392214.27979173
104	19	1	0	90	36.1581920903955	36.241610738255	10	0.333355280011892	2	3	5	NaN	1	5	0.105262013047592	1	1	NaN	375	6	60	1	121	221	321	NaN	521	0.282020242884755	1	1	NaN	4392217.5801874	NaN	4392218.5637141	4392219.08027336
104	19	1	0	90	36.1581920903955	36.241610738255	12	0.400026336014271	2	5	1	NaN	1	3	0.105262013047592	1	1	NaN	376	6	61	1	121	221	321	NaN	521	0.217288421466947	1	1	NaN	4392220.1805074	NaN	4392221.1640007	4392221.68052878
104	19	1	0	90	36.1581920903955	36.241610738255	15	0.500032920017839	2	10	4	NaN	2	5	0.105262013047592	1	1	NaN	377	6	62	1	121	221	321	NaN	521	4.24371211603284	2	1	NaN	4392222.714262	NaN	4392223.6975514	4392224.21409998
104	19	1	0	90	36.1581920903955	36.241610738255	15	0.500032920017839	2	3	2	NaN	1	5	0.105262013047592	1	1	NaN	378	6	63	1	121	221	321	NaN	521	0.228644222021103	1	1	NaN	4392229.281475	NaN	4392230.2648993	4392230.78142328
104	19	1	0	90	36.1581920903955	36.241610738255	23	0.766717144027352	2	2	5	NaN	1	3	0.105262013047592	1	1	NaN	379	7	1	1	121	221	321	NaN	521	0.407894321717322	1	1	NaN	4392290.854188	NaN	4392291.8375849	4392292.35413148
104	19	1	0	90	36.1581920903955	36.241610738255	17	0.566703976020217	2	1	5	NaN	1	5	0.105262013047592	1	1	NaN	380	7	2	1	121	221	321	NaN	521	0.754999768920243	1	1	NaN	4392293.5711346	NaN	4392294.5545104	4392295.07105753
104	19	1	0	90	36.1581920903955	36.241610738255	19	0.633375032022595	2	7	2	NaN	2	5	0.105262013047592	1	1	NaN	381	7	3	1	121	221	321	NaN	521	1.16005626879632	2	1	NaN	4392296.6380815	NaN	4392297.6214811	4392298.13803103
104	19	1	0	90	36.1581920903955	36.241610738255	18	0.600039504021406	2	5	5	NaN	1	4	0.105262013047592	1	1	NaN	382	7	4	1	121	221	321	NaN	521	0.340964668430388	1	1	NaN	4392300.1051034	NaN	4392301.088491	4392301.60504293
104	19	1	0	90	36.1581920903955	36.241610738255	17	0.566703976020217	2	9	3	NaN	2	3	0.105262013047592	1	1	NaN	383	7	5	1	121	221	321	NaN	521	0.350914621725678	2	1	NaN	4392302.855333	NaN	4392303.8388132	4392304.35531338
104	19	1	0	90	36.1581920903955	36.241610738255	16	0.533368448019028	2	1	4	NaN	1	3	0.105262013047592	1	1	NaN	384	7	6	1	121	221	321	NaN	521	0.332069868221879	2	0	NaN	4392305.5223079	NaN	4392306.5056917	4392307.02223913
104	19	1	0	90	36.1581920903955	36.241610738255	12	0.400026336014271	2	12	3	NaN	2	3	0.105262013047592	1	1	NaN	385	7	7	1	121	221	321	NaN	521	0.405462715774775	2	1	NaN	4392308.4725852	NaN	4392309.4559674	4392309.97251958
104	19	1	0	90	36.1581920903955	36.241610738255	24	0.800052672028542	2	4	6	NaN	1	4	0.105262013047592	1	1	NaN	386	7	8	1	121	221	321	NaN	521	1.64055761601776	2	0	NaN	4392311.1895214	NaN	4392312.1729172	4392312.68945878
104	19	1	0	90	36.1581920903955	36.241610738255	16	0.533368448019028	2	6	3	NaN	1	4	0.105262013047592	1	1	NaN	387	7	9	1	121	221	321	NaN	521	0.834259521216154	2	0	NaN	4392315.1399045	NaN	4392316.1232953	4392316.63984088
104	19	1	0	90	36.1581920903955	36.241610738255	21	0.700046088024974	2	11	1	NaN	2	5	0.105262013047592	1	1	NaN	388	7	10	1	121	221	321	NaN	521	0.268223567865789	1	0	NaN	4392318.2902267	NaN	4392319.2736097	4392319.79015263
104	19	1	0	90	36.1581920903955	36.241610738255	20	0.666710560023785	2	5	4	NaN	1	4	0.105262013047592	1	1	NaN	389	7	11	1	121	221	321	NaN	521	0.212484621442854	1	1	NaN	4392320.8738078	NaN	4392321.8571901	4392322.37374478
104	19	1	0	90	36.1581920903955	36.241610738255	9	0.300019752010703	2	3	2	NaN	1	4	0.105262013047592	1	1	NaN	390	7	12	1	121	221	321	NaN	521	0.0707446690648794	1	1	NaN	4392323.4073716	NaN	4392324.3907753	4392324.90732263
104	19	1	0	90	36.1581920903955	36.241610738255	11	0.366690808013082	2	6	5	NaN	1	4	0.105262013047592	1	1	NaN	391	7	13	1	121	221	321	NaN	521	0.231304563581944	2	0	NaN	4392325.7909706	NaN	4392326.7743412	4392327.29089624
104	19	1	0	90	36.1581920903955	36.241610738255	17	0.566703976020217	2	10	5	NaN	2	4	0.105262013047592	1	1	NaN	392	7	14	1	121	221	321	NaN	521	0.200960568152368	2	1	NaN	4392328.3411874	NaN	4392329.3245703	4392329.84115933
104	19	1	0	90	36.1581920903955	36.241610738255	9	0.300019752010703	2	1	5	NaN	1	5	0.105262013047592	1	1	NaN	393	7	15	1	121	221	321	NaN	521	0.148056321777403	1	1	NaN	4392330.8581141	NaN	4392331.8415075	4392332.35805278
104	19	1	0	90	36.1581920903955	36.241610738255	19	0.633375032022595	2	2	3	NaN	1	4	0.105262013047592	1	1	NaN	394	7	16	1	121	221	321	NaN	521	0.306183216162026	1	1	NaN	4392333.3083482	NaN	4392334.291747	4392334.80829658
104	19	1	0	90	36.1581920903955	36.241610738255	12	0.400026336014271	2	9	3	NaN	2	4	0.105262013047592	1	1	NaN	395	7	17	1	121	221	321	NaN	521	0.225204821676016	2	1	NaN	4392335.9252762	NaN	4392336.9086712	4392337.42521928
104	19	1	0	90	36.1581920903955	36.241610738255	17	0.566703976020217	2	9	2	NaN	2	5	0.105262013047592	1	1	NaN	396	7	18	1	121	221	321	NaN	521	0.427270168438554	2	1	NaN	4392338.4588685	NaN	4392339.442251	4392339.95881933
104	19	1	0	90	36.1581920903955	36.241610738255	17	0.566703976020217	2	5	1	NaN	1	5	0.105262013047592	1	1	NaN	397	7	19	1	121	221	321	NaN	521	0.205694615840912	1	1	NaN	4392341.1923397	NaN	4392342.1758546	4392342.69239658
104	19	1	0	90	36.1581920903955	36.241610738255	10	0.333355280011892	2	5	5	NaN	1	4	0.105262013047592	1	1	NaN	398	7	20	1	121	221	321	NaN	521	0.208761221729219	1	1	NaN	4392343.7093707	NaN	4392344.6927613	4392345.20932438
104	19	1	0	90	36.1581920903955	36.241610738255	9	0.300019752010703	2	6	1	NaN	1	3	0.105262013047592	1	1	NaN	399	7	21	1	121	221	321	NaN	521	0.172175321727991	1	1	NaN	4392346.2262117	NaN	4392347.2096774	4392347.72623038
104	19	1	0	90	36.1581920903955	36.241610738255	7	0.233348696008325	2	3	6	NaN	1	4	0.105262013047592	1	1	NaN	400	7	22	1	121	221	321	NaN	521	2.70421564299613	2	0	NaN	4392348.7098643	NaN	4392349.6932978	4392350.20981416
104	19	1	0	90	36.1581920903955	36.241610738255	12	0.400026336014271	2	4	2	NaN	1	3	0.105262013047592	1	1	NaN	401	7	23	1	121	221	321	NaN	521	0.215213768184185	1	1	NaN	4392353.7270242	NaN	4392354.7104212	4392355.22696283
104	19	1	0	90	36.1581920903955	36.241610738255	15	0.500032920017839	2	5	3	NaN	1	4	0.105262013047592	1	1	NaN	402	7	24	1	121	221	321	NaN	521	0.241510468535125	1	1	NaN	4392356.2606036	NaN	4392357.2438915	4392357.76054773
104	19	1	0	90	36.1581920903955	36.241610738255	21	0.700046088024974	2	2	5	NaN	1	3	0.105262013047592	1	1	NaN	403	7	25	1	121	221	321	NaN	521	2.70737822167575	1	1	NaN	4392358.8108466	NaN	4392359.7942528	4392360.31080428
104	19	1	0	90	36.1581920903955	36.241610738255	25	0.833388200029731	2	6	2	NaN	1	3	0.105262013047592	1	1	NaN	404	7	26	1	121	221	321	NaN	521	0.194207568652928	1	1	NaN	4392363.8280141	NaN	4392364.8114016	4392365.32795883
104	19	1	0	90	36.1581920903955	36.241610738255	10	0.333355280011892	2	1	4	NaN	1	4	0.105262013047592	1	1	NaN	405	7	27	1	121	221	321	NaN	521	0.253669968806207	1	1	NaN	4392366.3449334	NaN	4392367.32832	4392367.84487773
104	19	1	0	90	36.1581920903955	36.241610738255	9	0.300019752010703	2	2	3	NaN	1	3	0.105262013047592	1	1	NaN	406	7	28	1	121	221	321	NaN	521	1.0627882219851	1	1	NaN	4392368.9118334	NaN	4392369.8952342	4392370.41179338
104	19	1	0	90	36.1581920903955	36.241610738255	25	0.833388200029731	2	7	5	NaN	2	5	0.105262013047592	1	1	NaN	407	7	29	1	121	221	321	NaN	521	0.782598521560431	2	1	NaN	4392372.2955376	NaN	4392373.2789247	4392373.79546298
104	19	1	0	90	36.1581920903955	36.241610738255	12	0.400026336014271	2	11	1	NaN	2	4	0.105262013047592	1	1	NaN	408	7	30	1	121	221	321	NaN	521	0.28248652163893	2	1	NaN	4392375.395796	NaN	4392376.3792145	4392376.89576078
104	19	1	0	90	36.1581920903955	36.241610738255	19	0.633375032022595	2	6	2	NaN	1	4	0.105262013047592	1	1	NaN	409	7	31	1	121	221	321	NaN	521	0.266196021810174	1	1	NaN	4392377.9960591	NaN	4392378.9794651	4392379.49602278
104	19	1	0	90	36.1581920903955	36.241610738255	21	0.700046088024974	2	8	3	NaN	2	4	0.105262013047592	1	1	NaN	410	7	32	1	121	221	321	NaN	521	0.241214267909527	1	0	NaN	4392380.8130132	NaN	4392381.7964087	4392382.31296153
104	19	1	0	90	36.1581920903955	36.241610738255	23	0.766717144027352	2	2	6	NaN	1	4	0.105262013047592	1	1	NaN	411	7	33	1	121	221	321	NaN	521	1.47494782134891	1	1	NaN	4392383.3632674	NaN	4392384.3466596	4392384.86321318
104	19	1	0	90	36.1581920903955	36.241610738255	0	0	1	2	4	NaN	1	4	0.105262013047592	1	1	NaN	412	7	34	1	111	211	311	NaN	511	0.643325216136873	1	1	NaN	4392387.1469556	NaN	4392388.1303643	4392388.64690848
104	19	1	0	90	36.1581920903955	36.241610738255	6	0.200013168007135	2	6	2	NaN	1	4	0.105262013047592	1	1	NaN	413	7	35	1	121	221	321	NaN	521	0.164597822353244	1	1	NaN	4392390.1139286	NaN	4392391.0973252	4392391.61386918
104	19	1	0	90	36.1581920903955	36.241610738255	20	0.666710560023785	2	7	6	NaN	2	4	0.105262013047592	1	1	NaN	414	7	36	1	121	221	321	NaN	521	0.569450668990612	2	1	NaN	4392392.5808532	NaN	4392393.5642322	4392394.08077573
104	19	1	0	90	36.1581920903955	36.241610738255	13	0.43336186401546	2	9	6	NaN	2	5	0.105262013047592	1	1	NaN	415	7	37	1	121	221	321	NaN	521	0.222172774374485	2	1	NaN	4392395.4644445	NaN	4392396.4478425	4392396.96440403
104	19	1	0	90	36.1581920903955	36.241610738255	9	0.300019752010703	2	4	6	NaN	1	4	0.105262013047592	1	1	NaN	416	7	38	1	121	221	321	NaN	521	0.208487327210605	1	1	NaN	4392397.9979029	NaN	4392398.9814259	4392399.49797937
104	19	1	0	90	36.1581920903955	36.241610738255	19	0.633375032022595	2	9	6	NaN	2	4	0.105262013047592	1	1	NaN	417	7	39	1	121	221	321	NaN	521	0.187218142673373	2	1	NaN	4392400.5149415	NaN	4392401.4983375	4392402.01490376
104	19	1	0	90	36.1581920903955	36.241610738255	20	0.666710560023785	2	3	1	NaN	1	5	0.105262013047592	1	1	NaN	418	7	40	1	121	221	321	NaN	521	0.231054222211242	1	1	NaN	4392403.0151953	NaN	4392403.9985585	4392404.51514278
104	19	1	0	90	36.1581920903955	36.241610738255	8	0.266684224009514	2	12	4	NaN	2	5	0.105262013047592	1	1	NaN	419	7	41	1	121	221	321	NaN	521	0.24084531608969	2	1	NaN	4392405.5654484	NaN	4392406.5488411	4392407.06538768
104	19	1	0	90	36.1581920903955	36.241610738255	22	0.733381616026163	2	9	2	NaN	2	3	0.105262013047592	1	1	NaN	420	7	42	1	121	221	321	NaN	521	0.218462968245149	2	1	NaN	4392408.1157717	NaN	4392409.0990684	4392409.61563723
104	19	1	0	90	36.1581920903955	36.241610738255	15	0.500032920017839	2	6	6	NaN	1	5	0.105262013047592	1	1	NaN	421	7	43	1	121	221	321	NaN	521	0.0851181214675307	1	1	NaN	4392410.6492762	NaN	4392411.6326708	4392412.14922108
104	19	1	0	90	36.1581920903955	36.241610738255	22	0.733381616026163	2	11	2	NaN	2	3	0.105262013047592	1	1	NaN	422	7	44	1	121	221	321	NaN	521	0.309121868573129	2	1	NaN	4392413.0496321	NaN	4392414.0328977	4392414.54946233
104	19	1	0	90	36.1581920903955	36.241610738255	24	0.800052672028542	2	6	3	NaN	1	4	0.105262013047592	1	1	NaN	423	7	45	1	121	221	321	NaN	521	0.0919119212776423	1	1	NaN	4392415.666437	NaN	4392416.6498291	4392417.16638348
104	19	1	0	90	36.1581920903955	36.241610738255	15	0.500032920017839	2	2	5	NaN	1	4	0.105262013047592	1	1	NaN	424	7	46	1	121	221	321	NaN	521	0.251939617097378	1	1	NaN	4392418.0666924	NaN	4392419.0500662	4392419.56661158
104	19	1	0	90	36.1581920903955	36.241610738255	12	0.400026336014271	2	10	1	NaN	2	3	0.105262013047592	1	1	NaN	425	7	47	1	121	221	321	NaN	521	0.0847495216876268	2	1	NaN	4392420.6335834	NaN	4392421.6169924	4392422.13354088
104	19	1	0	90	36.1581920903955	36.241610738255	7	0.233348696008325	2	9	6	NaN	2	4	0.105262013047592	1	1	NaN	426	7	48	1	121	221	321	NaN	521	0.252760568633676	2	1	NaN	4392423.033817	NaN	4392424.0172231	4392424.53376483
104	19	1	0	90	36.1581920903955	36.241610738255	22	0.733381616026163	2	5	1	NaN	1	3	0.105262013047592	1	1	NaN	427	7	49	1	121	221	321	NaN	521	0.229797022417188	1	1	NaN	4392425.6007495	NaN	4392426.5841259	4392427.10069328
104	19	1	0	90	36.1581920903955	36.241610738255	19	0.633375032022595	2	6	6	NaN	1	4	0.105262013047592	1	1	NaN	428	7	50	1	121	221	321	NaN	521	0.280340168625116	1	1	NaN	4392428.1343303	NaN	4392429.1177155	4392429.63427303
104	19	1	0	90	36.1581920903955	36.241610738255	10	0.333355280011892	2	9	3	NaN	2	3	0.105262013047592	1	1	NaN	429	7	51	1	121	221	321	NaN	521	0.119829564355314	2	1	NaN	4392430.7345822	NaN	4392431.7179862	4392432.23451694
104	19	1	0	90	36.1581920903955	36.241610738255	15	0.500032920017839	2	10	6	NaN	2	4	0.105262013047592	1	1	NaN	430	7	52	1	121	221	321	NaN	521	0.214155564084649	2	1	NaN	4392433.1681495	NaN	4392434.1515526	4392434.66809504
104	19	1	0	90	36.1581920903955	36.241610738255	25	0.833388200029731	2	5	2	NaN	1	4	0.105262013047592	1	1	NaN	431	7	53	1	121	221	321	NaN	521	0.336495121009648	2	0	NaN	4392435.7017335	NaN	4392436.6851274	4392437.20168338
104	19	1	0	90	36.1581920903955	36.241610738255	13	0.43336186401546	2	2	1	NaN	1	5	0.105262013047592	1	1	NaN	432	7	54	1	121	221	321	NaN	521	0.222186516970396	2	0	NaN	4392438.3518898	NaN	4392439.3353957	4392439.85193368
104	19	1	0	90	36.1581920903955	36.241610738255	12	0.400026336014271	2	2	1	NaN	1	3	0.105262013047592	1	1	NaN	433	7	55	1	121	221	321	NaN	521	0.425124521367252	1	1	NaN	4392440.885571	NaN	4392441.8689707	4392442.38552408
104	19	1	0	90	36.1581920903955	36.241610738255	25	0.833388200029731	2	4	2	NaN	1	5	0.105262013047592	1	1	NaN	434	7	56	1	121	221	321	NaN	521	0.395101021975279	1	1	NaN	4392443.6192645	NaN	4392444.6025773	4392445.11911868
104	19	1	0	90	36.1581920903955	36.241610738255	12	0.400026336014271	2	6	5	NaN	1	3	0.105262013047592	1	1	NaN	435	7	57	1	121	221	321	NaN	521	0.542263621464372	1	1	NaN	4392446.3361033	NaN	4392447.3195543	4392447.83606078
104	19	1	0	90	36.1581920903955	36.241610738255	11	0.366690808013082	2	6	5	NaN	1	4	0.105262013047592	1	1	NaN	436	7	58	1	121	221	321	NaN	521	0.0759588209912181	1	1	NaN	4392449.1864036	NaN	4392450.1697892	4392450.68634328
104	19	1	0	90	36.1581920903955	36.241610738255	17	0.566703976020217	2	10	5	NaN	2	3	0.105262013047592	1	1	NaN	437	7	59	1	121	221	321	NaN	521	1.08432322181761	2	1	NaN	4392451.5699439	NaN	4392452.5533504	4392453.06992158
104	19	1	0	90	36.1581920903955	36.241610738255	23	0.766717144027352	2	7	1	NaN	2	4	0.105262013047592	1	1	NaN	438	7	60	1	121	221	321	NaN	521	0.188022316433489	2	1	NaN	4392454.9701651	NaN	4392455.9536865	4392456.47023678
104	19	1	0	90	36.1581920903955	36.241610738255	6	0.200013168007135	2	10	5	NaN	2	3	0.105262013047592	1	1	NaN	439	7	61	1	121	221	321	NaN	521	0.144131068140268	2	1	NaN	4392457.4705152	NaN	4392458.4539486	4392458.97047643
104	19	1	0	90	36.1581920903955	36.241610738255	8	0.266684224009514	2	5	2	NaN	1	3	0.105262013047592	1	1	NaN	440	7	62	1	121	221	321	NaN	521	0.750020068138838	2	0	NaN	4392459.9206458	NaN	4392460.9041727	4392461.42072673
104	19	1	0	90	36.1581920903955	36.241610738255	10	0.333355280011892	2	6	1	NaN	1	4	0.105262013047592	1	1	NaN	441	7	63	1	121	221	321	NaN	521	0.242473769001663	1	1	NaN	4392462.987748	NaN	4392463.971148	4392464.48768533
104	19	1	0	90	36.1581920903955	36.241610738255	16	0.533368448019028	2	12	6	NaN	2	5	0.105262013047592	1	1	NaN	442	8	1	1	121	221	321	NaN	521	0.471257722005248	1	0	NaN	4392497.191	NaN	4392498.1745042	4392498.69104808
104	19	1	0	90	36.1581920903955	36.241610738255	13	0.43336186401546	2	5	3	NaN	1	3	0.105262013047592	1	1	NaN	443	8	2	1	121	221	321	NaN	521	1.1201612688601	1	1	NaN	4392499.9746989	NaN	4392500.9581008	4392501.47465793
104	19	1	0	90	36.1581920903955	36.241610738255	10	0.333355280011892	2	2	1	NaN	1	4	0.105262013047592	1	1	NaN	444	8	3	1	121	221	321	NaN	521	0.653962569311261	2	0	NaN	4392503.4083751	NaN	4392504.3917759	4392504.90832593
104	19	1	0	90	36.1581920903955	36.241610738255	6	0.200013168007135	2	11	3	NaN	2	3	0.105262013047592	1	1	NaN	445	8	4	1	121	221	321	NaN	521	1.46307261660695	1	0	NaN	4392506.3753366	NaN	4392507.3587327	4392507.87527378
104	19	1	0	90	36.1581920903955	36.241610738255	10	0.333355280011892	2	3	2	NaN	1	4	0.105262013047592	1	1	NaN	446	8	5	1	121	221	321	NaN	521	0.271504721604288	1	1	NaN	4392510.1590398	NaN	4392511.1424443	4392511.65899088
104	19	1	0	90	36.1581920903955	36.241610738255	10	0.333355280011892	2	8	6	NaN	2	3	0.105262013047592	1	1	NaN	447	8	6	1	121	221	321	NaN	521	0.235829154029489	2	1	NaN	4392512.8426095	NaN	4392513.8260399	4392514.34258185
104	19	1	0	90	36.1581920903955	36.241610738255	7	0.233348696008325	2	3	2	NaN	1	5	0.105262013047592	1	1	NaN	448	8	7	1	121	221	321	NaN	521	0.237404468469322	1	1	NaN	4392515.3929113	NaN	4392516.3762849	4392516.89282593
104	19	1	0	90	36.1581920903955	36.241610738255	7	0.233348696008325	2	6	4	NaN	1	5	0.105262013047592	1	1	NaN	449	8	8	1	121	221	321	NaN	521	0.263327468186617	1	1	NaN	4392517.9430206	NaN	4392518.9265349	4392519.44309003
104	19	1	0	90	36.1581920903955	36.241610738255	12	0.400026336014271	2	10	5	NaN	2	3	0.105262013047592	1	1	NaN	450	8	9	1	121	221	321	NaN	521	0.848718668334186	2	1	NaN	4392520.5101253	NaN	4392521.493446	4392522.00999623
104	19	1	0	90	36.1581920903955	36.241610738255	20	0.666710560023785	2	9	4	NaN	2	5	0.105262013047592	1	1	NaN	451	8	10	1	121	221	321	NaN	521	0.305404816754162	2	1	NaN	4392523.6770484	NaN	4392524.6604158	4392525.17697298
104	19	1	0	90	36.1581920903955	36.241610738255	21	0.700046088024974	2	3	2	NaN	1	3	0.105262013047592	1	1	NaN	452	8	11	1	121	221	321	NaN	521	0.256357268430293	1	1	NaN	4392526.2939586	NaN	4392527.2773625	4392527.79389743
104	19	1	0	90	36.1581920903955	36.241610738255	16	0.533368448019028	2	6	4	NaN	1	3	0.105262013047592	1	1	NaN	453	8	12	1	121	221	321	NaN	521	0.657489567995071	1	1	NaN	4392528.8608375	NaN	4392529.8442749	4392530.36082433
104	19	1	0	90	36.1581920903955	36.241610738255	24	0.800052672028542	2	8	5	NaN	2	3	0.105262013047592	1	1	NaN	454	8	13	1	121	221	321	NaN	521	1.48276472184807	2	1	NaN	4392531.8278556	NaN	4392532.8112318	4392533.32778668
104	19	1	0	90	36.1581920903955	36.241610738255	18	0.600039504021406	2	4	3	NaN	1	3	0.105262013047592	1	1	NaN	455	8	14	1	121	221	321	NaN	521	1.13031546398997	1	1	NaN	4392535.6282021	NaN	4392536.6116018	4392537.12815154
104	19	1	0	90	36.1581920903955	36.241610738255	6	0.200013168007135	2	12	1	NaN	2	4	0.105262013047592	1	1	NaN	456	8	15	1	121	221	321	NaN	521	0.240973294712603	2	1	NaN	4392539.0618736	NaN	4392540.0452617	4392540.56183191
104	19	1	0	90	36.1581920903955	36.241610738255	0	0	1	8	6	NaN	2	3	0.105262013047592	1	1	NaN	457	8	16	1	111	211	311	NaN	511	0.514630468562245	2	1	NaN	4392541.6121254	NaN	4392542.5955187	4392543.11207193
104	19	1	0	90	36.1581920903955	36.241610738255	7	0.233348696008325	2	11	6	NaN	2	4	0.105262013047592	1	1	NaN	458	8	17	1	121	221	321	NaN	521	2.32081322092563	2	1	NaN	4392544.4457597	NaN	4392545.4291363	4392545.94569088
