subjno	age	gender	isPractice	viewdist	CmToPixX	CmToPixY	SOA_frm	SOA_time	targNum	targID	targExample	targRace	targGender	firstTargPos	contrast	familiarity	curr_staircase	iStair	TrialNum	BlockNum	blktrl	sessionNum	TC_FIXATION	TC_RSVP_START	TC_RSVP_END	TC_BLANK	TC_RESPONSE_ONSET	RT2afc	resp_2afc	acc	RSVPOnsetVBL	RSVPOnsetTime	RSVPOffsetVBL	RSVPOffsetTime	startrt_2afc
37	19	0	0	90	36.1581920903955	36.241610738255	11	0.36669173207134	2	9	3	NaN	2	5	0.0428720246396203	1	1	NaN	1	1	1	2	121	221	321	NaN	521	0.0114851272664964	2	1	NaN	1804072.5386168	NaN	1804073.5219411	1804074.05502287
37	19	0	0	90	36.1581920903955	36.241610738255	17	0.566705404110253	2	2	6	NaN	1	5	0.0428720246396203	1	1	NaN	2	1	2	2	121	221	321	NaN	521	1.75513447471894	1	1	NaN	1804074.9221966	NaN	1804075.905443	1804076.43858573
37	19	0	0	90	36.1581920903955	36.241610738255	15	0.500034180097282	2	8	4	NaN	2	5	0.0428720246396203	1	1	NaN	3	1	3	2	121	221	321	NaN	521	0.351052827201784	1	0	NaN	1804079.0223544	NaN	1804080.0057676	1804080.53899357
37	19	0	0	90	36.1581920903955	36.241610738255	9	0.300020508058369	2	6	2	NaN	1	3	0.0428720246396203	1	1	NaN	4	1	4	2	121	221	321	NaN	521	0.0680043695028871	1	1	NaN	1804081.7059605	NaN	1804082.6893601	1804083.20592023
37	19	0	0	90	36.1581920903955	36.241610738255	23	0.766719076149166	2	6	6	NaN	1	4	0.0428720246396203	1	1	NaN	5	1	5	2	121	221	321	NaN	521	1.2354565220885	1	1	NaN	1804084.1060743	NaN	1804085.0896241	1804085.60615308
37	19	0	0	90	36.1581920903955	36.241610738255	23	0.766719076149166	2	4	5	NaN	1	3	0.0428720246396203	1	1	NaN	6	1	6	2	121	221	321	NaN	521	0.195721622090787	1	1	NaN	1804087.8897975	NaN	1804088.8733146	1804089.38985758
37	19	0	0	90	36.1581920903955	36.241610738255	8	0.266684896051884	2	1	6	NaN	1	5	0.0428720246396203	1	1	NaN	7	1	7	2	121	221	321	NaN	521	1.3827107695397	1	1	NaN	1804090.4068201	NaN	1804091.3902213	1804091.90677873
37	19	0	0	90	36.1581920903955	36.241610738255	8	0.266684896051884	2	5	6	NaN	1	3	0.0428720246396203	1	1	NaN	8	1	8	2	121	221	321	NaN	521	0.354629232082516	1	1	NaN	1804094.1072002	NaN	1804095.0905701	1804095.60714047
37	19	0	0	90	36.1581920903955	36.241610738255	21	0.700047852136195	2	2	2	NaN	1	5	0.0428720246396203	1	1	NaN	9	1	9	2	121	221	321	NaN	521	0.010408369358629	1	1	NaN	1804096.774119	NaN	1804097.7575231	1804098.27406863
37	19	0	0	90	36.1581920903955	36.241610738255	0	0	1	3	6	NaN	1	3	0.0428720246396203	1	1	NaN	10	1	10	2	111	211	311	NaN	511	1.03422982199118	1	1	NaN	1804099.1076879	NaN	1804100.0910805	1804100.60762728
37	19	0	0	90	36.1581920903955	36.241610738255	24	0.800054688155651	2	3	6	NaN	1	5	0.0428720246396203	1	1	NaN	11	1	11	2	121	221	321	NaN	521	0.0432240695226938	1	1	NaN	1804102.4747729	NaN	1804103.4580767	1804103.97462693
37	19	0	0	90	36.1581920903955	36.241610738255	15	0.500034180097282	2	4	6	NaN	1	4	0.0428720246396203	1	1	NaN	12	1	12	2	121	221	321	NaN	521	0.0103927222080529	1	1	NaN	1804104.8415765	NaN	1804105.8250098	1804106.34152088
37	19	0	0	90	36.1581920903955	36.241610738255	13	0.433362956084311	2	1	1	NaN	1	5	0.0428720246396203	1	1	NaN	13	1	13	2	121	221	321	NaN	521	1.01500596944243	1	1	NaN	1804107.1752463	NaN	1804108.1585462	1804108.67508843
37	19	0	0	90	36.1581920903955	36.241610738255	22	0.73338346414268	2	2	1	NaN	1	3	0.0428720246396203	1	1	NaN	14	1	14	2	121	221	321	NaN	521	0.152997922152281	1	1	NaN	1804110.5088267	NaN	1804111.4922027	1804112.00875198
37	19	0	0	90	36.1581920903955	36.241610738255	24	0.800054688155651	2	10	3	NaN	2	4	0.0428720246396203	1	1	NaN	15	1	15	2	121	221	321	NaN	521	1.55790446931496	2	1	NaN	1804112.975579	NaN	1804113.9591294	1804114.47565713
37	19	0	0	90	36.1581920903955	36.241610738255	12	0.400027344077826	2	11	2	NaN	2	4	0.0428720246396203	1	1	NaN	16	1	16	2	121	221	321	NaN	521	0.462024722015485	2	1	NaN	1804116.9760641	NaN	1804117.9594873	1804118.47604728
37	19	0	0	90	36.1581920903955	36.241610738255	16	0.533369792103767	2	6	2	NaN	1	4	0.0428720246396203	1	1	NaN	17	1	17	2	121	221	321	NaN	521	0.358419032301754	1	1	NaN	1804119.7596897	NaN	1804120.7430893	1804121.25965197
37	19	0	0	90	36.1581920903955	36.241610738255	25	0.833390300162137	2	7	2	NaN	2	3	0.0428720246396203	1	1	NaN	18	1	18	2	121	221	321	NaN	521	0.938389622140676	2	1	NaN	1804122.4433227	NaN	1804123.4267056	1804123.94325178
37	19	0	0	90	36.1581920903955	36.241610738255	7	0.233349284045398	2	2	3	NaN	1	4	0.0428720246396203	1	1	NaN	19	1	19	2	121	221	321	NaN	521	0.424404442543164	1	1	NaN	1804125.6935074	NaN	1804126.677022	1804127.19357056
37	19	0	0	90	36.1581920903955	36.241610738255	20	0.666712240129709	2	10	2	NaN	2	4	0.0428720246396203	1	1	NaN	20	1	20	2	121	221	321	NaN	521	1.28178257448599	2	1	NaN	1804128.4438996	NaN	1804129.4272756	1804129.94384813
37	19	0	0	90	36.1581920903955	36.241610738255	11	0.36669173207134	2	7	3	NaN	2	4	0.0428720246396203	1	1	NaN	21	1	21	2	121	221	321	NaN	521	0.289820169331506	1	0	NaN	1804132.0442489	NaN	1804133.027631	1804133.54419743
37	19	0	0	90	36.1581920903955	36.241610738255	16	0.533369792103767	2	4	1	NaN	1	5	0.0428720246396203	1	1	NaN	22	1	22	2	121	221	321	NaN	521	0.0103733744472265	1	1	NaN	1804134.6611817	NaN	1804135.6445665	1804136.16111413
37	19	0	0	90	36.1581920903955	36.241610738255	9	0.300020508058369	2	3	5	NaN	1	5	0.0428720246396203	1	1	NaN	23	1	23	2	121	221	321	NaN	521	0.0104085695929825	1	1	NaN	1804136.9947125	NaN	1804137.9781162	1804138.49468173
37	19	0	0	90	36.1581920903955	36.241610738255	18	0.600041016116738	2	9	5	NaN	2	5	0.0428720246396203	1	1	NaN	24	1	24	2	121	221	321	NaN	521	0.477548722177744	2	1	NaN	1804139.3282529	NaN	1804140.3116761	1804140.82825528
37	19	0	0	90	36.1581920903955	36.241610738255	18	0.600041016116738	2	1	6	NaN	1	5	0.0428720246396203	1	1	NaN	25	1	25	2	121	221	321	NaN	521	1.18154926970601	1	1	NaN	1804142.1285718	NaN	1804143.1119889	1804143.62853363
37	19	0	0	90	36.1581920903955	36.241610738255	20	0.666712240129709	2	3	6	NaN	1	4	0.0428720246396203	1	1	NaN	26	1	26	2	121	221	321	NaN	521	0.0167926694266498	1	1	NaN	1804145.6288122	NaN	1804146.6122982	1804147.12886293
37	19	0	0	90	36.1581920903955	36.241610738255	10	0.333356120064855	2	2	2	NaN	1	4	0.0428720246396203	1	1	NaN	27	1	27	2	121	221	321	NaN	521	0.947134922025725	1	1	NaN	1804147.9624603	NaN	1804148.9458697	1804149.46243018
37	19	0	0	90	36.1581920903955	36.241610738255	18	0.600041016116738	2	11	2	NaN	2	5	0.0428720246396203	1	1	NaN	28	1	28	2	121	221	321	NaN	521	0.272560474462807	2	1	NaN	1804151.2295102	NaN	1804152.2128693	1804152.72941873
37	19	0	0	90	36.1581920903955	36.241610738255	23	0.766719076149166	2	4	4	NaN	1	5	0.0428720246396203	1	1	NaN	29	1	29	2	121	221	321	NaN	521	0.344089116901159	1	1	NaN	1804153.829708	NaN	1804154.8130967	1804155.32965938
37	19	0	0	90	36.1581920903955	36.241610738255	0	0	1	2	6	NaN	1	4	0.0428720246396203	1	1	NaN	30	1	30	2	111	211	311	NaN	511	0.029122069478035	1	1	NaN	1804156.4966664	NaN	1804157.4800622	1804157.99659783
37	19	0	0	90	36.1581920903955	36.241610738255	10	0.333356120064855	2	9	5	NaN	2	4	0.0428720246396203	1	1	NaN	31	1	31	2	121	221	321	NaN	521	0.265611669514328	1	0	NaN	1804159.180091	NaN	1804160.1636462	1804160.68019633
37	19	0	0	90	36.1581920903955	36.241610738255	6	0.200013672038913	2	4	5	NaN	1	4	0.0428720246396203	1	1	NaN	32	1	32	2	121	221	321	NaN	521	1.06840392225422	1	1	NaN	1804161.913801	NaN	1804162.8972402	1804163.41378858
37	19	0	0	90	36.1581920903955	36.241610738255	13	0.433362956084311	2	4	2	NaN	1	4	0.0428720246396203	1	1	NaN	33	1	33	2	121	221	321	NaN	521	0.343578669708222	1	1	NaN	1804165.6140801	NaN	1804166.5975967	1804167.11416103
37	19	0	0	90	36.1581920903955	36.241610738255	9	0.300020508058369	2	5	2	NaN	1	3	0.0428720246396203	1	1	NaN	34	1	34	2	121	221	321	NaN	521	0.780621869722381	2	0	NaN	1804168.2810175	NaN	1804169.2645569	1804169.78108143
37	19	0	0	90	36.1581920903955	36.241610738255	22	0.73338346414268	2	8	6	NaN	2	3	0.0428720246396203	1	1	NaN	35	1	35	2	121	221	321	NaN	521	0.0323124695569277	2	1	NaN	1804171.3814311	NaN	1804172.3648238	1804172.88138443
37	19	0	0	90	36.1581920903955	36.241610738255	20	0.666712240129709	2	9	4	NaN	2	5	0.0428720246396203	1	1	NaN	36	1	36	2	121	221	321	NaN	521	0.334173774346709	2	1	NaN	1804174.0316928	NaN	1804175.0151095	1804175.53165533
37	19	0	0	90	36.1581920903955	36.241610738255	23	0.766719076149166	2	6	4	NaN	1	3	0.0428720246396203	1	1	NaN	37	1	37	2	121	221	321	NaN	521	1.1562209695112	1	1	NaN	1804176.6818405	NaN	1804177.6653587	1804178.18191233
37	19	0	0	90	36.1581920903955	36.241610738255	23	0.766719076149166	2	10	3	NaN	2	4	0.0428720246396203	1	1	NaN	38	1	38	2	121	221	321	NaN	521	0.281168022193015	1	0	NaN	1804180.1489058	NaN	1804181.13236	1804181.64891558
37	19	0	0	90	36.1581920903955	36.241610738255	9	0.300020508058369	2	10	4	NaN	2	4	0.0428720246396203	1	1	NaN	39	1	39	2	121	221	321	NaN	521	0.233220122056082	2	1	NaN	1804182.7325121	NaN	1804183.7159493	1804184.23250748
37	19	0	0	90	36.1581920903955	36.241610738255	19	0.633376628123224	2	4	6	NaN	1	4	0.0428720246396203	1	1	NaN	40	1	40	2	121	221	321	NaN	521	0.0103932220954448	1	1	NaN	1804185.2828141	NaN	1804186.2661863	1804186.78275988
37	19	0	0	90	36.1581920903955	36.241610738255	21	0.700047852136195	2	10	4	NaN	2	5	0.0428720246396203	1	1	NaN	41	1	41	2	121	221	321	NaN	521	0.58243931690231	2	1	NaN	1804187.5995847	NaN	1804188.5830891	1804189.09965428
37	19	0	0	90	36.1581920903955	36.241610738255	0	0	1	6	4	NaN	1	4	0.0428720246396203	1	1	NaN	42	1	42	2	111	211	311	NaN	511	0.38994082226418	1	1	NaN	1804190.5999686	NaN	1804191.5834245	1804192.09994058
37	19	0	0	90	36.1581920903955	36.241610738255	17	0.566705404110253	2	8	3	NaN	2	3	0.0428720246396203	1	1	NaN	43	1	43	2	121	221	321	NaN	521	0.329870322020724	2	1	NaN	1804193.3002604	NaN	1804194.2836531	1804194.80020288
37	19	0	0	90	36.1581920903955	36.241610738255	20	0.666712240129709	2	12	3	NaN	2	4	0.0428720246396203	1	1	NaN	44	1	44	2	121	221	321	NaN	521	0.391720374580473	2	1	NaN	1804195.950528	NaN	1804196.9339112	1804197.45046973
37	19	0	0	90	36.1581920903955	36.241610738255	16	0.533369792103767	2	1	6	NaN	1	5	0.0428720246396203	1	1	NaN	45	1	45	2	121	221	321	NaN	521	1.04307523742318	1	1	NaN	1804198.6507897	NaN	1804199.6341726	1804200.15074066
37	19	0	0	90	36.1581920903955	36.241610738255	20	0.666712240129709	2	12	6	NaN	2	4	0.0428720246396203	1	1	NaN	46	1	46	2	121	221	321	NaN	521	1.14867597445846	1	0	NaN	1804202.0011285	NaN	1804202.9845006	1804203.50106723
37	19	0	0	90	36.1581920903955	36.241610738255	8	0.266684896051884	2	9	5	NaN	2	3	0.0428720246396203	1	1	NaN	47	1	47	2	121	221	321	NaN	521	0.386782069457695	2	1	NaN	1804205.4514369	NaN	1804206.43485	1804206.95140673
37	19	0	0	90	36.1581920903955	36.241610738255	8	0.266684896051884	2	6	6	NaN	1	5	0.0428720246396203	1	1	NaN	48	1	48	2	121	221	321	NaN	521	0.252665922278538	1	1	NaN	1804208.5850596	NaN	1804209.5685022	1804210.08503648
37	19	0	0	90	36.1581920903955	36.241610738255	17	0.566705404110253	2	2	1	NaN	1	3	0.0428720246396203	1	1	NaN	49	1	49	2	121	221	321	NaN	521	0.382403379771858	2	0	NaN	1804211.5353857	NaN	1804212.5187747	1804213.03534082
37	19	0	0	90	36.1581920903955	36.241610738255	17	0.566705404110253	2	5	1	NaN	1	3	0.0428720246396203	1	1	NaN	50	1	50	2	121	221	321	NaN	521	0.298172122100368	1	1	NaN	1804214.2356465	NaN	1804215.2190386	1804215.73559298
37	19	0	0	90	36.1581920903955	36.241610738255	20	0.666712240129709	2	5	1	NaN	1	5	0.0428720246396203	1	1	NaN	51	1	51	2	121	221	321	NaN	521	0.21521823736839	1	1	NaN	1804217.1025555	NaN	1804218.0859802	1804218.60255076
37	19	0	0	90	36.1581920903955	36.241610738255	16	0.533369792103767	2	10	5	NaN	2	3	0.0428720246396203	1	1	NaN	52	1	52	2	121	221	321	NaN	521	0.313675322104245	2	1	NaN	1804219.6361869	NaN	1804220.6196076	1804221.13612858
37	19	0	0	90	36.1581920903955	36.241610738255	14	0.466698568090797	2	6	5	NaN	1	3	0.0428720246396203	1	1	NaN	53	1	53	2	121	221	321	NaN	521	0.16153185418807	2	0	NaN	1804222.6364211	NaN	1804223.619873	1804224.13641825
37	19	0	0	90	36.1581920903955	36.241610738255	10	0.333356120064855	2	8	6	NaN	2	5	0.0428720246396203	1	1	NaN	54	1	54	2	121	221	321	NaN	521	0.126208822010085	2	1	NaN	1804225.1033749	NaN	1804226.0867578	1804226.60333218
37	19	0	0	90	36.1581920903955	36.241610738255	12	0.400027344077826	2	10	6	NaN	2	4	0.0428720246396203	1	1	NaN	55	1	55	2	121	221	321	NaN	521	0.878482174593955	2	1	NaN	1804227.9035346	NaN	1804228.887034	1804229.40360533
37	19	0	0	90	36.1581920903955	36.241610738255	15	0.500034180097282	2	9	2	NaN	2	4	0.0428720246396203	1	1	NaN	56	1	56	2	121	221	321	NaN	521	0.338621874339879	2	1	NaN	1804231.3871862	NaN	1804232.3707358	1804232.88728883
37	19	0	0	90	36.1581920903955	36.241610738255	11	0.36669173207134	2	12	4	NaN	2	3	0.0428720246396203	1	1	NaN	57	1	57	2	121	221	321	NaN	521	0.288703369675204	2	1	NaN	1804234.4209262	NaN	1804235.4043719	1804235.92091623
37	19	0	0	90	36.1581920903955	36.241610738255	7	0.233349284045398	2	1	5	NaN	1	4	0.0428720246396203	1	1	NaN	58	1	58	2	121	221	321	NaN	521	0.357540322234854	1	1	NaN	1804237.5045611	NaN	1804238.4879829	1804239.00454658
37	19	0	0	90	36.1581920903955	36.241610738255	25	0.833390300162137	2	4	4	NaN	1	4	0.0428720246396203	1	1	NaN	59	1	59	2	121	221	321	NaN	521	0.306467169662938	1	1	NaN	1804240.1715201	NaN	1804241.154909	1804241.67147733
37	19	0	0	90	36.1581920903955	36.241610738255	19	0.633376628123224	2	10	6	NaN	2	3	0.0428720246396203	1	1	NaN	60	1	60	2	121	221	321	NaN	521	0.329800721956417	2	1	NaN	1804242.9883884	NaN	1804243.9718523	1804244.48842078
37	19	0	0	90	36.1581920903955	36.241610738255	0	0	1	9	1	NaN	2	5	0.0428720246396203	1	1	NaN	61	1	61	2	111	211	311	NaN	511	0.335094269597903	2	1	NaN	1804245.6386869	NaN	1804246.6221269	1804247.13868273
37	19	0	0	90	36.1581920903955	36.241610738255	20	0.666712240129709	2	9	4	NaN	2	3	0.0428720246396203	1	1	NaN	62	1	62	2	121	221	321	NaN	521	1.31722392211668	1	0	NaN	1804248.6890381	NaN	1804249.6724503	1804250.18898008
37	19	0	0	90	36.1581920903955	36.241610738255	21	0.700047852136195	2	11	5	NaN	2	5	0.0428720246396203	1	1	NaN	63	1	63	2	121	221	321	NaN	521	0.0912222897168249	2	1	NaN	1804252.3227115	NaN	1804253.3061058	1804253.82267191
37	19	0	0	90	36.1581920903955	36.241610738255	18	0.600041016116738	2	12	1	NaN	2	5	0.0428720246396203	1	1	NaN	64	2	1	2	121	221	321	NaN	521	1.29079876933247	2	1	NaN	1804256.9232058	NaN	1804257.9065582	1804258.42312113
37	19	0	0	90	36.1581920903955	36.241610738255	24	0.800054688155651	2	4	4	NaN	1	4	0.0428720246396203	1	1	NaN	65	2	2	2	121	221	321	NaN	521	1.26675442233682	2	0	NaN	1804260.5235085	NaN	1804261.5069343	1804262.02346958
37	19	0	0	90	36.1581920903955	36.241610738255	9	0.300020508058369	2	4	4	NaN	1	5	0.0428720246396203	1	1	NaN	66	2	3	2	121	221	321	NaN	521	1.62578347465023	2	0	NaN	1804264.340496	NaN	1804265.3239514	1804265.84051463
37	19	0	0	90	36.1581920903955	36.241610738255	21	0.700047852136195	2	1	6	NaN	1	3	0.0428720246396203	1	1	NaN	67	2	4	2	121	221	321	NaN	521	0.509239822160453	2	0	NaN	1804268.6408625	NaN	1804269.624371	1804270.14093568
37	19	0	0	90	36.1581920903955	36.241610738255	6	0.200013672038913	2	12	1	NaN	2	5	0.0428720246396203	1	1	NaN	68	2	5	2	121	221	321	NaN	521	0.427277269540355	1	0	NaN	1804271.6746009	NaN	1804272.658	1804273.17457343
37	19	0	0	90	36.1581920903955	36.241610738255	9	0.300020508058369	2	3	2	NaN	1	3	0.0428720246396203	1	1	NaN	69	2	6	2	121	221	321	NaN	521	0.0104039220605046	1	1	NaN	1804274.6915928	NaN	1804275.6749753	1804276.19153308
37	19	0	0	90	36.1581920903955	36.241610738255	16	0.533369792103767	2	7	3	NaN	2	4	0.0428720246396203	1	1	NaN	70	2	7	2	121	221	321	NaN	521	0.371516537386924	2	1	NaN	1804277.2584841	NaN	1804278.2418752	1804278.75845436
37	19	0	0	90	36.1581920903955	36.241610738255	22	0.73338346414268	2	3	1	NaN	1	3	0.0428720246396203	1	1	NaN	71	2	8	2	121	221	321	NaN	521	0.247972522163764	1	1	NaN	1804279.9420916	NaN	1804280.9254886	1804281.44204588
37	19	0	0	90	36.1581920903955	36.241610738255	22	0.73338346414268	2	6	4	NaN	1	4	0.0428720246396203	1	1	NaN	72	2	9	2	121	221	321	NaN	521	0.274899217067286	1	1	NaN	1804282.658891	NaN	1804283.6424338	1804284.15897418
37	19	0	0	90	36.1581920903955	36.241610738255	19	0.633376628123224	2	3	2	NaN	1	5	0.0428720246396203	1	1	NaN	73	2	10	2	121	221	321	NaN	521	0.315354574471712	1	1	NaN	1804285.2426146	NaN	1804286.2260019	1804286.74257153
37	19	0	0	90	36.1581920903955	36.241610738255	15	0.500034180097282	2	5	1	NaN	1	4	0.0428720246396203	1	1	NaN	74	2	11	2	121	221	321	NaN	521	0.33553801686503	1	1	NaN	1804288.3261236	NaN	1804289.3096345	1804289.82620098
37	19	0	0	90	36.1581920903955	36.241610738255	22	0.73338346414268	2	12	6	NaN	2	3	0.0428720246396203	1	1	NaN	75	2	12	2	121	221	321	NaN	521	0.426642595091835	1	0	NaN	1804291.2431928	NaN	1804292.2266133	1804292.74316681
37	19	0	0	90	36.1581920903955	36.241610738255	15	0.500034180097282	2	12	6	NaN	2	4	0.0428720246396203	1	1	NaN	76	2	13	2	121	221	321	NaN	521	0.0104358168318868	2	1	NaN	1804294.1267442	NaN	1804295.1102431	1804295.62676738
37	19	0	0	90	36.1581920903955	36.241610738255	24	0.800054688155651	2	11	3	NaN	2	4	0.0428720246396203	1	1	NaN	77	2	14	2	121	221	321	NaN	521	0.289621669566259	2	1	NaN	1804296.4604023	NaN	1804297.4437717	1804297.96033343
37	19	0	0	90	36.1581920903955	36.241610738255	21	0.700047852136195	2	12	2	NaN	2	4	0.0428720246396203	1	1	NaN	78	2	15	2	121	221	321	NaN	521	0.0104056694544852	2	1	NaN	1804299.060673	NaN	1804300.0440765	1804300.56059793
37	19	0	0	90	36.1581920903955	36.241610738255	17	0.566705404110253	2	3	1	NaN	1	4	0.0428720246396203	1	1	NaN	79	2	16	2	121	221	321	NaN	521	0.175404922105372	2	0	NaN	1804301.5108123	NaN	1804302.4942646	1804303.01082858
37	19	0	0	90	36.1581920903955	36.241610738255	18	0.600041016116738	2	4	1	NaN	1	4	0.0428720246396203	1	1	NaN	80	2	17	2	121	221	321	NaN	521	0.0104053220711648	2	0	NaN	1804303.994456	NaN	1804304.9778552	1804305.49441298
37	19	0	0	90	36.1581920903955	36.241610738255	7	0.233349284045398	2	12	3	NaN	2	3	0.0428720246396203	1	1	NaN	81	2	18	2	121	221	321	NaN	521	1.27854182221927	2	1	NaN	1804306.3113832	NaN	1804307.2947405	1804307.81129578
37	19	0	0	90	36.1581920903955	36.241610738255	24	0.800054688155651	2	9	4	NaN	2	4	0.0428720246396203	1	1	NaN	82	2	19	2	121	221	321	NaN	521	0.358401869423687	1	0	NaN	1804309.91169	NaN	1804310.8951205	1804311.41167453
37	19	0	0	90	36.1581920903955	36.241610738255	25	0.833390300162137	2	8	4	NaN	2	5	0.0428720246396203	1	1	NaN	83	2	20	2	121	221	321	NaN	521	1.47941732220352	2	1	NaN	1804313.0786482	NaN	1804314.0620676	1804314.57862808
37	19	0	0	90	36.1581920903955	36.241610738255	11	0.36669173207134	2	11	6	NaN	2	5	0.0428720246396203	1	1	NaN	84	2	21	2	121	221	321	NaN	521	0.727344532031566	2	1	NaN	1804316.8790494	NaN	1804317.8624339	1804318.37900267
37	19	0	0	90	36.1581920903955	36.241610738255	23	0.766719076149166	2	12	5	NaN	2	5	0.0428720246396203	1	1	NaN	85	2	22	2	121	221	321	NaN	521	0.661961722187698	2	1	NaN	1804320.29602	NaN	1804321.2794628	1804321.79601078
37	19	0	0	90	36.1581920903955	36.241610738255	0	0	1	5	2	NaN	1	3	0.0428720246396203	1	1	NaN	86	2	23	2	111	211	311	NaN	511	0.23014266951941	1	1	NaN	1804323.6797255	NaN	1804324.6631188	1804325.17967783
37	19	0	0	90	36.1581920903955	36.241610738255	25	0.833390300162137	2	8	1	NaN	2	5	0.0428720246396203	1	1	NaN	87	2	24	2	121	221	321	NaN	521	1.3759881220758	2	1	NaN	1804326.2299932	NaN	1804327.2133794	1804327.72992768
37	19	0	0	90	36.1581920903955	36.241610738255	6	0.200013672038913	2	9	2	NaN	2	3	0.0428720246396203	1	1	NaN	88	2	25	2	121	221	321	NaN	521	0.259494422236457	1	0	NaN	1804330.5302563	NaN	1804331.5137837	1804332.03035198
37	19	0	0	90	36.1581920903955	36.241610738255	16	0.533369792103767	2	9	4	NaN	2	3	0.0428720246396203	1	1	NaN	89	2	26	2	121	221	321	NaN	521	0.276957237394527	2	1	NaN	1804333.4973774	NaN	1804334.4807613	1804334.99730256
37	19	0	0	90	36.1581920903955	36.241610738255	22	0.73338346414268	2	10	2	NaN	2	3	0.0428720246396203	1	1	NaN	90	2	27	2	121	221	321	NaN	521	0.285382169531658	2	1	NaN	1804336.4809566	NaN	1804337.4643882	1804337.98093563
37	19	0	0	90	36.1581920903955	36.241610738255	19	0.633376628123224	2	10	6	NaN	2	4	0.0428720246396203	1	1	NaN	91	2	28	2	121	221	321	NaN	521	0.690410622162744	2	1	NaN	1804339.547917	NaN	1804340.5313861	1804341.04789868
37	19	0	0	90	36.1581920903955	36.241610738255	9	0.300020508058369	2	5	4	NaN	1	5	0.0428720246396203	1	1	NaN	92	2	29	2	121	221	321	NaN	521	0.410156422061846	1	1	NaN	1804342.5482712	NaN	1804343.5316366	1804344.04819798
37	19	0	0	90	36.1581920903955	36.241610738255	22	0.73338346414268	2	9	3	NaN	2	3	0.0428720246396203	1	1	NaN	93	2	30	2	121	221	321	NaN	521	0.738451574696228	2	1	NaN	1804345.7319033	NaN	1804346.715281	1804347.23183903
37	19	0	0	90	36.1581920903955	36.241610738255	23	0.766719076149166	2	11	5	NaN	2	3	0.0428720246396203	1	1	NaN	94	2	31	2	121	221	321	NaN	521	0.712230969453231	2	1	NaN	1804348.7821748	NaN	1804349.7655894	1804350.28214143
37	19	0	0	90	36.1581920903955	36.241610738255	16	0.533369792103767	2	11	4	NaN	2	3	0.0428720246396203	1	1	NaN	95	2	32	2	121	221	321	NaN	521	0.438608022173867	2	1	NaN	1804351.8158221	NaN	1804352.7992021	1804353.31576758
37	19	0	0	90	36.1581920903955	36.241610738255	20	0.666712240129709	2	1	5	NaN	1	3	0.0428720246396203	1	1	NaN	96	2	33	2	121	221	321	NaN	521	0.552032322157174	1	1	NaN	1804354.5660783	NaN	1804355.5494859	1804356.06604528
37	19	0	0	90	36.1581920903955	36.241610738255	11	0.36669173207134	2	3	3	NaN	1	4	0.0428720246396203	1	1	NaN	97	2	34	2	121	221	321	NaN	521	0.348673122236505	1	1	NaN	1804357.4496695	NaN	1804358.4331201	1804358.94965418
37	19	0	0	90	36.1581920903955	36.241610738255	13	0.433362956084311	2	2	1	NaN	1	4	0.0428720246396203	1	1	NaN	98	2	35	2	121	221	321	NaN	521	0.379103569546714	1	1	NaN	1804360.4832075	NaN	1804361.4667214	1804361.98328873
37	19	0	0	90	36.1581920903955	36.241610738255	6	0.200013672038913	2	1	3	NaN	1	5	0.0428720246396203	1	1	NaN	99	2	36	2	121	221	321	NaN	521	0.287038422189653	1	1	NaN	1804363.1669278	NaN	1804364.1503966	1804364.66688718
37	19	0	0	90	36.1581920903955	36.241610738255	25	0.833390300162137	2	5	5	NaN	1	3	0.0428720246396203	1	1	NaN	100	2	37	2	121	221	321	NaN	521	0.246858169557527	1	1	NaN	1804365.7671806	NaN	1804366.7505821	1804367.26714313
37	19	0	0	90	36.1581920903955	36.241610738255	0	0	1	5	1	NaN	1	4	0.0428720246396203	1	1	NaN	101	2	38	2	111	211	311	NaN	511	0.0103794743772596	1	1	NaN	1804368.3341303	NaN	1804369.3175136	1804369.83406273
37	19	0	0	90	36.1581920903955	36.241610738255	0	0	1	6	1	NaN	1	4	0.0428720246396203	1	1	NaN	102	2	39	2	111	211	311	NaN	511	0.271248769480735	2	0	NaN	1804371.1510392	NaN	1804372.1344328	1804372.65099503
37	19	0	0	90	36.1581920903955	36.241610738255	10	0.333356120064855	2	8	5	NaN	2	3	0.0428720246396203	1	1	NaN	103	2	40	2	121	221	321	NaN	521	0.231847522081807	1	0	NaN	1804373.7346384	NaN	1804374.7180201	1804375.23458608
37	19	0	0	90	36.1581920903955	36.241610738255	18	0.600041016116738	2	7	4	NaN	2	5	0.0428720246396203	1	1	NaN	104	2	41	2	121	221	321	NaN	521	0.185080964583904	1	0	NaN	1804376.2849275	NaN	1804377.2682754	1804377.78484244
37	19	0	0	90	36.1581920903955	36.241610738255	0	0	1	2	6	NaN	1	3	0.0428720246396203	1	1	NaN	105	2	42	2	111	211	311	NaN	511	0.253119922243059	2	0	NaN	1804378.785025	NaN	1804379.7685367	1804380.28508328
37	19	0	0	90	36.1581920903955	36.241610738255	18	0.600041016116738	2	9	6	NaN	2	4	0.0428720246396203	1	1	NaN	106	2	43	2	121	221	321	NaN	521	1.54175567976199	1	0	NaN	1804381.5687102	NaN	1804382.5521352	1804383.06869902
37	19	0	0	90	36.1581920903955	36.241610738255	13	0.433362956084311	2	7	3	NaN	2	5	0.0428720246396203	1	1	NaN	107	2	44	2	121	221	321	NaN	521	0.467213469557464	2	1	NaN	1804385.419162	NaN	1804386.4025232	1804386.91906563
37	19	0	0	90	36.1581920903955	36.241610738255	21	0.700047852136195	2	6	5	NaN	1	4	0.0428720246396203	1	1	NaN	108	2	45	2	121	221	321	NaN	521	0.233003169531003	1	1	NaN	1804388.4694241	NaN	1804389.452805	1804389.96936063
37	19	0	0	90	36.1581920903955	36.241610738255	20	0.666712240129709	2	6	4	NaN	1	4	0.0428720246396203	1	1	NaN	109	2	46	2	121	221	321	NaN	521	0.250362922204658	1	1	NaN	1804391.0196634	NaN	1804392.0030672	1804392.51961898
37	19	0	0	90	36.1581920903955	36.241610738255	13	0.433362956084311	2	9	3	NaN	2	3	0.0428720246396203	1	1	NaN	110	2	47	2	121	221	321	NaN	521	0.222026569535956	2	1	NaN	1804393.7365612	NaN	1804394.7199897	1804395.23655493
37	19	0	0	90	36.1581920903955	36.241610738255	17	0.566705404110253	2	5	4	NaN	1	3	0.0428720246396203	1	1	NaN	111	2	48	2	121	221	321	NaN	521	0.196171974530444	1	1	NaN	1804396.5700822	NaN	1804397.5536141	1804398.07016583
37	19	0	0	90	36.1581920903955	36.241610738255	9	0.300020508058369	2	8	4	NaN	2	3	0.0428720246396203	1	1	NaN	112	2	49	2	121	221	321	NaN	521	0.215732974465936	2	1	NaN	1804399.0705856	NaN	1804400.0538516	1804400.57040343
37	19	0	0	90	36.1581920903955	36.241610738255	7	0.233349284045398	2	6	3	NaN	1	5	0.0428720246396203	1	1	NaN	113	2	50	2	121	221	321	NaN	521	0.333566822111607	1	1	NaN	1804401.7206636	NaN	1804402.704115	1804403.22067118
37	19	0	0	90	36.1581920903955	36.241610738255	15	0.500034180097282	2	2	2	NaN	1	5	0.0428720246396203	1	1	NaN	114	2	51	2	121	221	321	NaN	521	0.178344769403338	1	1	NaN	1804404.587574	NaN	1804405.5710626	1804406.08762013
37	19	0	0	90	36.1581920903955	36.241610738255	18	0.600041016116738	2	10	6	NaN	2	3	0.0428720246396203	1	1	NaN	115	2	52	2	121	221	321	NaN	521	0.318122274475172	1	0	NaN	1804407.0879048	NaN	1804408.0712946	1804408.58786843
37	19	0	0	90	36.1581920903955	36.241610738255	8	0.266684896051884	2	11	2	NaN	2	3	0.0428720246396203	1	1	NaN	116	2	53	2	121	221	321	NaN	521	0.396928322035819	1	0	NaN	1804409.721378	NaN	1804410.7049083	1804411.22146068
37	19	0	0	90	36.1581920903955	36.241610738255	11	0.36669173207134	2	7	5	NaN	2	4	0.0428720246396203	1	1	NaN	117	2	54	2	121	221	321	NaN	521	0.0103894220665097	2	1	NaN	1804412.4216442	NaN	1804413.4051602	1804413.92171608
37	19	0	0	90	36.1581920903955	36.241610738255	17	0.566705404110253	2	10	1	NaN	2	5	0.0428720246396203	1	1	NaN	118	2	55	2	121	221	321	NaN	521	0.267151169478893	2	1	NaN	1804414.7553265	NaN	1804415.7387315	1804416.25528423
37	19	0	0	90	36.1581920903955	36.241610738255	13	0.433362956084311	2	5	5	NaN	1	5	0.0428720246396203	1	1	NaN	119	2	56	2	121	221	321	NaN	521	0.322922269580886	1	1	NaN	1804417.3388066	NaN	1804418.3223052	1804418.83886953
37	19	0	0	90	36.1581920903955	36.241610738255	21	0.700047852136195	2	6	4	NaN	1	4	0.0428720246396203	1	1	NaN	120	2	57	2	121	221	321	NaN	521	0.376056117005646	1	1	NaN	1804420.4225154	NaN	1804421.4059345	1804421.92249638
37	19	0	0	90	36.1581920903955	36.241610738255	7	0.233349284045398	2	7	2	NaN	2	4	0.0428720246396203	1	1	NaN	121	2	58	2	121	221	321	NaN	521	0.327873622067273	2	1	NaN	1804423.6061502	NaN	1804424.5895961	1804425.10615108
37	19	0	0	90	36.1581920903955	36.241610738255	8	0.266684896051884	2	8	4	NaN	2	4	0.0428720246396203	1	1	NaN	122	2	59	2	121	221	321	NaN	521	0.374233469599858	1	0	NaN	1804426.2397988	NaN	1804427.2231911	1804427.73974313
37	19	0	0	90	36.1581920903955	36.241610738255	16	0.533369792103767	2	6	1	NaN	1	5	0.0428720246396203	1	1	NaN	123	2	60	2	121	221	321	NaN	521	0.210898622171953	1	1	NaN	1804428.9232508	NaN	1804429.9067746	1804430.42333448
37	19	0	0	90	36.1581920903955	36.241610738255	11	0.36669173207134	2	9	3	NaN	2	3	0.0428720246396203	1	1	NaN	124	2	61	2	121	221	321	NaN	521	1.32532451697625	2	1	NaN	1804431.4569548	NaN	1804432.4403803	1804432.95691758
37	19	0	0	90	36.1581920903955	36.241610738255	9	0.300020508058369	2	10	3	NaN	2	5	0.0428720246396203	1	1	NaN	125	2	62	2	121	221	321	NaN	521	0.0103735746815801	2	1	NaN	1804435.107349	NaN	1804436.0907741	1804436.60728473
37	19	0	0	90	36.1581920903955	36.241610738255	24	0.800054688155651	2	10	4	NaN	2	5	0.0428720246396203	1	1	NaN	126	2	63	2	121	221	321	NaN	521	0.774211622076109	2	1	NaN	1804437.6242203	NaN	1804438.6076343	1804439.12419818
37	19	0	0	90	36.1581920903955	36.241610738255	14	0.466698568090797	2	9	1	NaN	2	3	0.0428720246396203	1	1	NaN	127	3	1	2	121	221	321	NaN	521	0.314735622145236	2	1	NaN	1804443.291432	NaN	1804444.2748549	1804444.79142058
37	19	0	0	90	36.1581920903955	36.241610738255	21	0.700047852136195	2	7	3	NaN	2	5	0.0428720246396203	1	1	NaN	128	3	2	2	121	221	321	NaN	521	0.713140722131357	1	0	NaN	1804445.9250847	NaN	1804446.9084344	1804447.42500808
37	19	0	0	90	36.1581920903955	36.241610738255	12	0.400027344077826	2	10	5	NaN	2	5	0.0428720246396203	1	1	NaN	129	3	3	2	121	221	321	NaN	521	0.207646494964138	2	1	NaN	1804448.9586798	NaN	1804449.9420782	1804450.4586487
37	19	0	0	90	36.1581920903955	36.241610738255	10	0.333356120064855	2	5	5	NaN	1	5	0.0428720246396203	1	1	NaN	130	3	4	2	121	221	321	NaN	521	0.232547821942717	2	0	NaN	1804451.525591	NaN	1804452.5090125	1804453.02555908
37	19	0	0	90	36.1581920903955	36.241610738255	23	0.766719076149166	2	9	3	NaN	2	4	0.0428720246396203	1	1	NaN	131	3	5	2	121	221	321	NaN	521	0.489763816818595	2	1	NaN	1804454.0925022	NaN	1804455.0759169	1804455.59246928
37	19	0	0	90	36.1581920903955	36.241610738255	19	0.633376628123224	2	11	3	NaN	2	5	0.0428720246396203	1	1	NaN	132	3	6	2	121	221	321	NaN	521	0.689519922016189	2	1	NaN	1804456.8928185	NaN	1804457.8761972	1804458.39275768
37	19	0	0	90	36.1581920903955	36.241610738255	25	0.833390300162137	2	7	6	NaN	2	3	0.0428720246396203	1	1	NaN	133	3	7	2	121	221	321	NaN	521	0.217119669308886	2	1	NaN	1804459.8930941	NaN	1804460.8764984	1804461.39305163
37	19	0	0	90	36.1581920903955	36.241610738255	16	0.533369792103767	2	3	5	NaN	1	3	0.0428720246396203	1	1	NaN	134	3	8	2	121	221	321	NaN	521	0.259621422039345	1	1	NaN	1804462.4265574	NaN	1804463.4100822	1804463.92662418
37	19	0	0	90	36.1581920903955	36.241610738255	23	0.766719076149166	2	9	2	NaN	2	4	0.0428720246396203	1	1	NaN	135	3	9	2	121	221	321	NaN	521	0.396641769679263	2	1	NaN	1804464.9935972	NaN	1804465.9769931	1804466.49355393
37	19	0	0	90	36.1581920903955	36.241610738255	10	0.333356120064855	2	10	4	NaN	2	3	0.0428720246396203	1	1	NaN	136	3	10	2	121	221	321	NaN	521	0.0243102696258575	2	1	NaN	1804467.69388	NaN	1804468.6772372	1804469.19380833
37	19	0	0	90	36.1581920903955	36.241610738255	7	0.233349284045398	2	3	5	NaN	1	5	0.0428720246396203	1	1	NaN	137	3	11	2	121	221	321	NaN	521	0.0267507168464363	1	1	NaN	1804470.0274522	NaN	1804471.0108071	1804471.52737208
37	19	0	0	90	36.1581920903955	36.241610738255	6	0.200013672038913	2	9	1	NaN	2	3	0.0428720246396203	1	1	NaN	138	3	12	2	121	221	321	NaN	521	0.0891229745466262	2	1	NaN	1804472.6610031	NaN	1804473.6444909	1804474.16097333
37	19	0	0	90	36.1581920903955	36.241610738255	10	0.333356120064855	2	3	6	NaN	1	4	0.0428720246396203	1	1	NaN	139	3	13	2	121	221	321	NaN	521	0.177410069620237	1	1	NaN	1804475.061257	NaN	1804476.0446416	1804476.56120543
37	19	0	0	90	36.1581920903955	36.241610738255	7	0.233349284045398	2	8	4	NaN	2	3	0.0428720246396203	1	1	NaN	140	3	14	2	121	221	321	NaN	521	0.705305122071877	2	1	NaN	1804477.6447164	NaN	1804478.6282206	1804479.14479098
37	19	0	0	90	36.1581920903955	36.241610738255	23	0.766719076149166	2	1	3	NaN	1	5	0.0428720246396203	1	1	NaN	141	3	15	2	121	221	321	NaN	521	0.432614622171968	1	1	NaN	1804480.8618005	NaN	1804481.8452082	1804482.36177388
37	19	0	0	90	36.1581920903955	36.241610738255	25	0.833390300162137	2	3	6	NaN	1	3	0.0428720246396203	1	1	NaN	142	3	16	2	121	221	321	NaN	521	0.316472922218964	1	1	NaN	1804483.9454257	NaN	1804484.928861	1804485.44541098
37	19	0	0	90	36.1581920903955	36.241610738255	7	0.233349284045398	2	11	6	NaN	2	4	0.0428720246396203	1	1	NaN	143	3	17	2	121	221	321	NaN	521	0.347134522162378	2	1	NaN	1804486.5789715	NaN	1804487.562446	1804488.07900478
37	19	0	0	90	36.1581920903955	36.241610738255	15	0.500034180097282	2	1	5	NaN	1	4	0.0428720246396203	1	1	NaN	144	3	18	2	121	221	321	NaN	521	0.160587342455983	1	1	NaN	1804489.2459911	NaN	1804490.2293628	1804490.74593196
37	19	0	0	90	36.1581920903955	36.241610738255	13	0.433362956084311	2	4	5	NaN	1	4	0.0428720246396203	1	1	NaN	145	3	19	2	121	221	321	NaN	521	0.133135722251609	1	1	NaN	1804492.1295235	NaN	1804493.1129869	1804493.62954498
37	19	0	0	90	36.1581920903955	36.241610738255	19	0.633376628123224	2	5	3	NaN	1	4	0.0428720246396203	1	1	NaN	146	3	20	2	121	221	321	NaN	521	0.367575622163713	1	1	NaN	1804495.0465438	NaN	1804496.0299265	1804496.54649928
37	19	0	0	90	36.1581920903955	36.241610738255	19	0.633376628123224	2	12	2	NaN	2	3	0.0428720246396203	1	1	NaN	147	3	21	2	121	221	321	NaN	521	1.78047914244235	2	1	NaN	1804497.7301301	NaN	1804498.7135291	1804499.23009536
37	19	0	0	90	36.1581920903955	36.241610738255	6	0.200013672038913	2	2	1	NaN	1	3	0.0428720246396203	1	1	NaN	148	3	22	2	121	221	321	NaN	521	0.256501774536446	1	1	NaN	1804501.8138841	NaN	1804502.7972674	1804503.31383313
37	19	0	0	90	36.1581920903955	36.241610738255	11	0.36669173207134	2	10	4	NaN	2	5	0.0428720246396203	1	1	NaN	149	3	23	2	121	221	321	NaN	521	0.26544492226094	2	1	NaN	1804504.3806693	NaN	1804505.364193	1804505.88075288
37	19	0	0	90	36.1581920903955	36.241610738255	7	0.233349284045398	2	12	3	NaN	2	3	0.0428720246396203	1	1	NaN	150	3	24	2	121	221	321	NaN	521	3.98122222209349	2	1	NaN	1804507.0809492	NaN	1804508.0644624	1804508.58101508
37	19	0	0	90	36.1581920903955	36.241610738255	16	0.533369792103767	2	11	3	NaN	2	4	0.0428720246396203	1	1	NaN	151	3	25	2	121	221	321	NaN	521	0.208637116942555	2	1	NaN	1804513.3815323	NaN	1804514.3650707	1804514.88162268
37	19	0	0	90	36.1581920903955	36.241610738255	25	0.833390300162137	2	2	5	NaN	1	3	0.0428720246396203	1	1	NaN	152	3	26	2	121	221	321	NaN	521	0.203628769377246	2	0	NaN	1804515.8986134	NaN	1804516.881979	1804517.39854603
37	19	0	0	90	36.1581920903955	36.241610738255	11	0.36669173207134	2	5	6	NaN	1	5	0.0428720246396203	1	1	NaN	153	3	27	2	121	221	321	NaN	521	1.11056992202066	1	1	NaN	1804518.4154359	NaN	1804519.3989324	1804519.91545938
37	19	0	0	90	36.1581920903955	36.241610738255	16	0.533369792103767	2	1	4	NaN	1	5	0.0428720246396203	1	1	NaN	154	3	28	2	121	221	321	NaN	521	0.310456922277808	1	1	NaN	1804522.0158237	NaN	1804522.9992502	1804523.51581108
37	19	0	0	90	36.1581920903955	36.241610738255	22	0.73338346414268	2	4	2	NaN	1	4	0.0428720246396203	1	1	NaN	155	3	29	2	121	221	321	NaN	521	0.38749837432988	2	0	NaN	1804525.0827961	NaN	1804526.0662123	1804526.58278213
37	19	0	0	90	36.1581920903955	36.241610738255	20	0.666712240129709	2	4	3	NaN	1	5	0.0428720246396203	1	1	NaN	156	3	30	2	121	221	321	NaN	521	0.0472221220843494	1	1	NaN	1804527.7830569	NaN	1804528.7664904	1804529.28303948
37	19	0	0	90	36.1581920903955	36.241610738255	15	0.500034180097282	2	6	3	NaN	1	3	0.0428720246396203	1	1	NaN	157	3	31	2	121	221	321	NaN	521	0.392969322158024	1	1	NaN	1804530.5333364	NaN	1804531.5168264	1804532.03331728
37	19	0	0	90	36.1581920903955	36.241610738255	20	0.666712240129709	2	11	4	NaN	2	3	0.0428720246396203	1	1	NaN	158	3	32	2	121	221	321	NaN	521	0.762005974305794	1	0	NaN	1804533.5002436	NaN	1804534.4837097	1804535.00027263
37	19	0	0	90	36.1581920903955	36.241610738255	9	0.300020508058369	2	9	5	NaN	2	3	0.0428720246396203	1	1	NaN	159	3	33	2	121	221	321	NaN	521	0.289711869554594	1	0	NaN	1804536.9005291	NaN	1804537.884083	1804538.40060993
37	19	0	0	90	36.1581920903955	36.241610738255	21	0.700047852136195	2	8	6	NaN	2	5	0.0428720246396203	1	1	NaN	160	3	34	2	121	221	321	NaN	521	0.0103752743452787	2	1	NaN	1804539.5007796	NaN	1804540.4843411	1804541.00086913
37	19	0	0	90	36.1581920903955	36.241610738255	13	0.433362956084311	2	7	1	NaN	2	5	0.0428720246396203	1	1	NaN	161	3	35	2	121	221	321	NaN	521	0.468813227023929	2	1	NaN	1804541.8177612	NaN	1804542.80119	1804543.31775497
37	19	0	0	90	36.1581920903955	36.241610738255	24	0.800054688155651	2	8	2	NaN	2	5	0.0428720246396203	1	1	NaN	162	3	36	2	121	221	321	NaN	521	0.213216522242874	2	1	NaN	1804544.6012872	NaN	1804545.5848133	1804546.10136288
37	19	0	0	90	36.1581920903955	36.241610738255	19	0.633376628123224	2	2	5	NaN	1	3	0.0428720246396203	1	1	NaN	163	3	37	2	121	221	321	NaN	521	0.229597716825083	1	1	NaN	1804547.5850313	NaN	1804548.5684221	1804549.08498608
37	19	0	0	90	36.1581920903955	36.241610738255	24	0.800054688155651	2	5	2	NaN	1	5	0.0428720246396203	1	1	NaN	164	3	38	2	121	221	321	NaN	521	0.738514722092077	2	0	NaN	1804550.4518762	NaN	1804551.4353809	1804551.95193538
37	19	0	0	90	36.1581920903955	36.241610738255	9	0.300020508058369	2	4	2	NaN	1	5	0.0428720246396203	1	1	NaN	165	3	39	2	121	221	321	NaN	521	0.0104732743930072	2	0	NaN	1804553.8856245	NaN	1804554.8690515	1804555.38563243
37	19	0	0	90	36.1581920903955	36.241610738255	11	0.36669173207134	2	8	5	NaN	2	3	0.0428720246396203	1	1	NaN	166	3	40	2	121	221	321	NaN	521	0.0103955219965428	2	1	NaN	1804556.2192248	NaN	1804557.2026181	1804557.71917448
37	19	0	0	90	36.1581920903955	36.241610738255	16	0.533369792103767	2	8	5	NaN	2	5	0.0428720246396203	1	1	NaN	167	3	41	2	121	221	321	NaN	521	0.0103896223008633	2	1	NaN	1804558.5860927	NaN	1804559.5695167	1804560.08607508
37	19	0	0	90	36.1581920903955	36.241610738255	25	0.833390300162137	2	1	6	NaN	1	3	0.0428720246396203	1	1	NaN	168	3	42	2	121	221	321	NaN	521	0.0103944221045822	2	0	NaN	1804560.9030088	NaN	1804561.8863923	1804562.40296688
37	19	0	0	90	36.1581920903955	36.241610738255	24	0.800054688155651	2	2	2	NaN	1	3	0.0428720246396203	1	1	NaN	169	3	43	2	121	221	321	NaN	521	0.0103905219584703	1	1	NaN	1804563.2365686	NaN	1804564.2199701	1804564.73652138
37	19	0	0	90	36.1581920903955	36.241610738255	14	0.466698568090797	2	11	4	NaN	2	3	0.0428720246396203	1	1	NaN	170	3	44	2	121	221	321	NaN	521	0.148882422130555	1	0	NaN	1804565.5534699	NaN	1804566.5368856	1804567.05341708
37	19	0	0	90	36.1581920903955	36.241610738255	12	0.400027344077826	2	6	5	NaN	1	3	0.0428720246396203	1	1	NaN	171	3	45	2	121	221	321	NaN	521	0.0104206169489771	1	1	NaN	1804568.0203867	NaN	1804569.0037665	1804569.52032408
37	19	0	0	90	36.1581920903955	36.241610738255	8	0.266684896051884	2	7	2	NaN	2	4	0.0428720246396203	1	1	NaN	172	3	46	2	121	221	321	NaN	521	1.48503842204809	2	1	NaN	1804570.3372941	NaN	1804571.3205727	1804571.83722048
37	19	0	0	90	36.1581920903955	36.241610738255	6	0.200013672038913	2	8	2	NaN	2	3	0.0428720246396203	1	1	NaN	173	3	47	2	121	221	321	NaN	521	0.292688822140917	2	1	NaN	1804574.1376264	NaN	1804575.1210331	1804575.63760088
37	19	0	0	90	36.1581920903955	36.241610738255	13	0.433362956084311	2	3	2	NaN	1	5	0.0428720246396203	1	1	NaN	174	3	48	2	121	221	321	NaN	521	1.10007832222618	2	0	NaN	1804576.9545564	NaN	1804577.9379997	1804578.45453628
37	19	0	0	90	36.1581920903955	36.241610738255	17	0.566705404110253	2	9	5	NaN	2	5	0.0428720246396203	1	1	NaN	175	3	49	2	121	221	321	NaN	521	0.162986684823409	2	1	NaN	1804580.3716215	NaN	1804581.35501	1804581.87154032
37	19	0	0	90	36.1581920903955	36.241610738255	20	0.666712240129709	2	6	5	NaN	1	5	0.0428720246396203	1	1	NaN	176	3	50	2	121	221	321	NaN	521	1.51748256431893	2	0	NaN	1804582.9051808	NaN	1804583.8885705	1804584.40511484
37	19	0	0	90	36.1581920903955	36.241610738255	8	0.266684896051884	2	1	5	NaN	1	4	0.0428720246396203	1	1	NaN	177	3	51	2	121	221	321	NaN	521	0.0104092694818974	2	0	NaN	1804586.738886	NaN	1804587.7222554	1804588.23883063
37	19	0	0	90	36.1581920903955	36.241610738255	19	0.633376628123224	2	7	5	NaN	2	5	0.0428720246396203	1	1	NaN	178	3	52	2	121	221	321	NaN	521	0.0104084222111851	2	1	NaN	1804589.0724648	NaN	1804590.055827	1804590.57239248
37	19	0	0	90	36.1581920903955	36.241610738255	12	0.400027344077826	2	8	2	NaN	2	4	0.0428720246396203	1	1	NaN	179	3	53	2	121	221	321	NaN	521	0.985318969469517	2	1	NaN	1804591.3892256	NaN	1804592.3727344	1804592.88929273
37	19	0	0	90	36.1581920903955	36.241610738255	25	0.833390300162137	2	2	6	NaN	1	5	0.0428720246396203	1	1	NaN	180	3	54	2	121	221	321	NaN	521	0.0104046696797013	1	1	NaN	1804595.1229104	NaN	1804596.106425	1804596.62299823
37	19	0	0	90	36.1581920903955	36.241610738255	13	0.433362956084311	2	5	1	NaN	1	5	0.0428720246396203	1	1	NaN	181	3	55	2	121	221	321	NaN	521	0.224370022071525	2	0	NaN	1804597.5899178	NaN	1804598.5733443	1804599.08990018
37	19	0	0	90	36.1581920903955	36.241610738255	7	0.233349284045398	2	7	4	NaN	2	5	0.0428720246396203	1	1	NaN	182	3	56	2	121	221	321	NaN	521	0.0368088169489056	2	1	NaN	1804600.6735458	NaN	1804601.6570622	1804602.17353938
37	19	0	0	90	36.1581920903955	36.241610738255	24	0.800054688155651	2	9	2	NaN	2	3	0.0428720246396203	1	1	NaN	183	3	57	2	121	221	321	NaN	521	0.622628669487312	1	0	NaN	1804603.0238052	NaN	1804604.0072041	1804604.52376683
37	19	0	0	90	36.1581920903955	36.241610738255	22	0.73338346414268	2	7	2	NaN	2	4	0.0428720246396203	1	1	NaN	184	3	58	2	121	221	321	NaN	521	0.297177974600345	1	0	NaN	1804605.9574544	NaN	1804606.9408316	1804607.45739353
37	19	0	0	90	36.1581920903955	36.241610738255	11	0.36669173207134	2	10	3	NaN	2	4	0.0428720246396203	1	1	NaN	185	3	59	2	121	221	321	NaN	521	0.0104194695595652	2	1	NaN	1804608.5575594	NaN	1804609.5410828	1804610.05764163
37	19	0	0	90	36.1581920903955	36.241610738255	10	0.333356120064855	2	5	4	NaN	1	3	0.0428720246396203	1	1	NaN	186	3	60	2	121	221	321	NaN	521	0.249945874558762	1	1	NaN	1804610.9244537	NaN	1804611.9079972	1804612.42454143
37	19	0	0	90	36.1581920903955	36.241610738255	16	0.533369792103767	2	12	5	NaN	2	4	0.0428720246396203	1	1	NaN	187	3	61	2	121	221	321	NaN	521	0.371093622175977	1	0	NaN	1804613.4914948	NaN	1804614.4749007	1804614.99145858
37	19	0	0	90	36.1581920903955	36.241610738255	22	0.73338346414268	2	11	5	NaN	2	4	0.0428720246396203	1	1	NaN	188	3	62	2	121	221	321	NaN	521	1.60511562228203	2	1	NaN	1804616.4252739	NaN	1804617.4085563	1804617.92508588
37	19	0	0	90	36.1581920903955	36.241610738255	6	0.200013672038913	2	11	4	NaN	2	3	0.0428720246396203	1	1	NaN	189	3	63	2	121	221	321	NaN	521	0.264740516897291	1	0	NaN	1804620.7255449	NaN	1804621.7089465	1804622.22549648
37	19	0	0	90	36.1581920903955	36.241610738255	14	0.466698568090797	2	10	3	NaN	2	5	0.0428720246396203	1	1	NaN	190	4	1	2	121	221	321	NaN	521	0.350928569445387	2	1	NaN	1804672.0638937	NaN	1804673.0473274	1804673.56387253
37	19	0	0	90	36.1581920903955	36.241610738255	24	0.800054688155651	2	7	3	NaN	2	4	0.0428720246396203	1	1	NaN	191	4	2	2	121	221	321	NaN	521	0.347539469599724	1	0	NaN	1804674.7308589	NaN	1804675.7142461	1804676.23080833
37	19	0	0	90	36.1581920903955	36.241610738255	25	0.833390300162137	2	6	6	NaN	1	5	0.0428720246396203	1	1	NaN	192	4	3	2	121	221	321	NaN	521	0.20871112216264	2	0	NaN	1804677.7977964	NaN	1804678.7812129	1804679.29777468
37	19	0	0	90	36.1581920903955	36.241610738255	7	0.233349284045398	2	3	4	NaN	1	5	0.0428720246396203	1	1	NaN	193	4	4	2	121	221	321	NaN	521	0.252461416879669	1	1	NaN	1804680.6979539	NaN	1804681.6814822	1804682.19805978
37	19	0	0	90	36.1581920903955	36.241610738255	24	0.800054688155651	2	5	1	NaN	1	5	0.0428720246396203	1	1	NaN	194	4	5	2	121	221	321	NaN	521	0.741809869417921	2	0	NaN	1804683.2650171	NaN	1804684.2484175	1804684.76497593
37	19	0	0	90	36.1581920903955	36.241610738255	15	0.500034180097282	2	3	4	NaN	1	5	0.0428720246396203	1	1	NaN	195	4	6	2	121	221	321	NaN	521	0.323067094897851	1	1	NaN	1804686.3153504	NaN	1804687.2988259	1804687.81527581
37	19	0	0	90	36.1581920903955	36.241610738255	21	0.700047852136195	2	5	4	NaN	1	5	0.0428720246396203	1	1	NaN	196	4	7	2	121	221	321	NaN	521	0.561382369603962	2	0	NaN	1804689.3489461	NaN	1804690.3323504	1804690.84890923
37	19	0	0	90	36.1581920903955	36.241610738255	14	0.466698568090797	2	10	2	NaN	2	5	0.0428720246396203	1	1	NaN	197	4	8	2	121	221	321	NaN	521	0.0104030221700668	1	0	NaN	1804692.2159098	NaN	1804693.1993008	1804693.71584848
37	19	0	0	90	36.1581920903955	36.241610738255	9	0.300020508058369	2	11	5	NaN	2	5	0.0428720246396203	1	1	NaN	198	4	9	2	121	221	321	NaN	521	0.441587622277439	2	1	NaN	1804694.5327793	NaN	1804695.5161807	1804696.03275148
37	19	0	0	90	36.1581920903955	36.241610738255	22	0.73338346414268	2	9	1	NaN	2	5	0.0428720246396203	1	1	NaN	199	4	10	2	121	221	321	NaN	521	0.0103961220011115	1	0	NaN	1804698.149834	NaN	1804699.1332248	1804699.64977118
37	19	0	0	90	36.1581920903955	36.241610738255	19	0.633376628123224	2	9	3	NaN	2	3	0.0428720246396203	1	1	NaN	200	4	11	2	121	221	321	NaN	521	0.0103982221335173	2	1	NaN	1804700.4666974	NaN	1804701.4501096	1804701.96666288
37	19	0	0	90	36.1581920903955	36.241610738255	9	0.300020508058369	2	7	4	NaN	2	4	0.0428720246396203	1	1	NaN	201	4	12	2	121	221	321	NaN	521	0.167052821954712	2	1	NaN	1804702.7835999	NaN	1804703.7669923	1804704.28355218
37	19	0	0	90	36.1581920903955	36.241610738255	21	0.700047852136195	2	4	6	NaN	1	3	0.0428720246396203	1	1	NaN	202	4	13	2	121	221	321	NaN	521	0.272773169446737	2	0	NaN	1804705.7338723	NaN	1804706.7172989	1804707.23384513
37	19	0	0	90	36.1581920903955	36.241610738255	12	0.400027344077826	2	7	2	NaN	2	3	0.0428720246396203	1	1	NaN	203	4	14	2	121	221	321	NaN	521	1.46157752233557	2	1	NaN	1804708.8008299	NaN	1804709.784244	1804710.30082108
37	19	0	0	90	36.1581920903955	36.241610738255	12	0.400027344077826	2	4	5	NaN	1	3	0.0428720246396203	1	1	NaN	204	4	15	2	121	221	321	NaN	521	0.0104229168500751	1	1	NaN	1804713.0345073	NaN	1804714.0180519	1804714.53455738
37	19	0	0	90	36.1581920903955	36.241610738255	14	0.466698568090797	2	9	5	NaN	2	3	0.0428720246396203	1	1	NaN	205	4	16	2	121	221	321	NaN	521	0.0103880222886801	1	0	NaN	1804715.6680794	NaN	1804716.651607	1804717.16815978
37	19	0	0	90	36.1581920903955	36.241610738255	16	0.533369792103767	2	3	1	NaN	1	5	0.0428720246396203	1	1	NaN	206	4	17	2	121	221	321	NaN	521	0.237702016951516	2	0	NaN	1804717.9851016	NaN	1804718.9684834	1804719.48504798
37	19	0	0	90	36.1581920903955	36.241610738255	23	0.766719076149166	2	7	5	NaN	2	5	0.0428720246396203	1	1	NaN	207	4	18	2	121	221	321	NaN	521	0.168159974506125	2	1	NaN	1804721.5188132	NaN	1804722.5021886	1804723.01873233
37	19	0	0	90	36.1581920903955	36.241610738255	10	0.333356120064855	2	6	2	NaN	1	3	0.0428720246396203	1	1	NaN	208	4	19	2	121	221	321	NaN	521	0.309512089705095	1	1	NaN	1804724.3690244	NaN	1804725.3524307	1804725.86901541
37	19	0	0	90	36.1581920903955	36.241610738255	8	0.266684896051884	2	12	4	NaN	2	3	0.0428720246396203	1	1	NaN	209	4	20	2	121	221	321	NaN	521	0.0487146221566945	2	1	NaN	1804727.2859733	NaN	1804728.2694074	1804728.78595858
37	19	0	0	90	36.1581920903955	36.241610738255	0	0	1	7	2	NaN	2	4	0.0428720246396203	1	1	NaN	210	4	21	2	111	211	311	NaN	511	0.545858837431297	2	1	NaN	1804729.6529053	NaN	1804730.6363129	1804731.15286166
37	19	0	0	90	36.1581920903955	36.241610738255	12	0.400027344077826	2	6	1	NaN	1	4	0.0428720246396203	1	1	NaN	211	4	22	2	121	221	321	NaN	521	0.0104283168911934	1	1	NaN	1804732.5198524	NaN	1804733.5032415	1804734.01980678
37	19	0	0	90	36.1581920903955	36.241610738255	13	0.433362956084311	2	8	3	NaN	2	3	0.0428720246396203	1	1	NaN	212	4	23	2	121	221	321	NaN	521	0.282275916775689	1	0	NaN	1804735.2201049	NaN	1804736.2035479	1804736.72007088
37	19	0	0	90	36.1581920903955	36.241610738255	10	0.333356120064855	2	4	4	NaN	1	3	0.0428720246396203	1	1	NaN	213	4	24	2	121	221	321	NaN	521	0.258582716807723	2	0	NaN	1804737.8203713	NaN	1804738.8038141	1804739.32032438
37	19	0	0	90	36.1581920903955	36.241610738255	11	0.36669173207134	2	1	6	NaN	1	3	0.0428720246396203	1	1	NaN	214	4	25	2	121	221	321	NaN	521	0.274989269440994	2	0	NaN	1804740.4039723	NaN	1804741.3873617	1804741.90391983
37	19	0	0	90	36.1581920903955	36.241610738255	20	0.666712240129709	2	8	1	NaN	2	3	0.0428720246396203	1	1	NaN	215	4	26	2	121	221	321	NaN	521	0.323304422199726	2	1	NaN	1804742.9874317	NaN	1804743.970939	1804744.48750888
37	19	0	0	90	36.1581920903955	36.241610738255	0	0	1	8	2	NaN	2	5	0.0428720246396203	1	1	NaN	216	4	27	2	111	211	311	NaN	511	1.84311576955952	2	1	NaN	1804746.1711825	NaN	1804747.1546481	1804747.67115353
37	19	0	0	90	36.1581920903955	36.241610738255	17	0.566705404110253	2	12	2	NaN	2	3	0.0428720246396203	1	1	NaN	217	4	28	2	121	221	321	NaN	521	0.0674650222063065	2	1	NaN	1804750.7549557	NaN	1804751.7383853	1804752.25494008
37	19	0	0	90	36.1581920903955	36.241610738255	14	0.466698568090797	2	5	5	NaN	1	4	0.0428720246396203	1	1	NaN	218	4	29	2	121	221	321	NaN	521	0.235944422194734	1	1	NaN	1804753.1385455	NaN	1804754.1218418	1804754.63850238
37	19	0	0	90	36.1581920903955	36.241610738255	15	0.500034180097282	2	4	3	NaN	1	4	0.0428720246396203	1	1	NaN	219	4	30	2	121	221	321	NaN	521	0.276371522108093	1	1	NaN	1804756.1220786	NaN	1804757.1055659	1804757.62213038
37	19	0	0	90	36.1581920903955	36.241610738255	0	0	1	4	1	NaN	1	4	0.0428720246396203	1	1	NaN	220	4	31	2	111	211	311	NaN	511	1.48005776945502	1	1	NaN	1804760.2225518	NaN	1804761.2059767	1804761.72253353
37	19	0	0	90	36.1581920903955	36.241610738255	9	0.300020508058369	2	8	1	NaN	2	3	0.0428720246396203	1	1	NaN	221	4	32	2	121	221	321	NaN	521	0.734052221989259	2	1	NaN	1804764.0729543	NaN	1804765.0563321	1804765.57290298
37	19	0	0	90	36.1581920903955	36.241610738255	17	0.566705404110253	2	6	6	NaN	1	3	0.0428720246396203	1	1	NaN	222	4	33	2	121	221	321	NaN	521	0.350247269496322	1	1	NaN	1804767.4566171	NaN	1804768.4400133	1804768.95657613
37	19	0	0	90	36.1581920903955	36.241610738255	10	0.333356120064855	2	2	5	NaN	1	4	0.0428720246396203	1	1	NaN	223	4	34	2	121	221	321	NaN	521	0.280577122233808	1	1	NaN	1804771.7903571	NaN	1804772.7737661	1804773.29033408
37	19	0	0	90	36.1581920903955	36.241610738255	23	0.766719076149166	2	12	2	NaN	2	4	0.0428720246396203	1	1	NaN	224	4	35	2	121	221	321	NaN	521	0.47031426941976	2	1	NaN	1804774.8405576	NaN	1804775.8240662	1804776.34063403
37	19	0	0	90	36.1581920903955	36.241610738255	21	0.700047852136195	2	1	1	NaN	1	5	0.0428720246396203	1	1	NaN	225	4	36	2	121	221	321	NaN	521	0.0169959694612771	2	0	NaN	1804778.9577495	NaN	1804779.941144	1804780.45770453
37	19	0	0	90	36.1581920903955	36.241610738255	8	0.266684896051884	2	4	6	NaN	1	3	0.0428720246396203	1	1	NaN	226	4	37	2	121	221	321	NaN	521	0.387196116847917	2	0	NaN	1804781.2912944	NaN	1804782.2747061	1804782.79125698
37	19	0	0	90	36.1581920903955	36.241610738255	9	0.300020508058369	2	2	3	NaN	1	3	0.0428720246396203	1	1	NaN	227	4	38	2	121	221	321	NaN	521	0.248175274580717	1	1	NaN	1804785.9584048	NaN	1804786.9418417	1804787.45839163
37	19	0	0	90	36.1581920903955	36.241610738255	21	0.700047852136195	2	10	5	NaN	2	3	0.0428720246396203	1	1	NaN	228	4	39	2	121	221	321	NaN	521	0.285920121939853	1	0	NaN	1804792.0090404	NaN	1804792.9924229	1804793.50898268
37	19	0	0	90	36.1581920903955	36.241610738255	9	0.300020508058369	2	9	2	NaN	2	4	0.0428720246396203	1	1	NaN	229	4	40	2	121	221	321	NaN	521	0.394126422004774	2	1	NaN	1804797.8928251	NaN	1804798.8763278	1804799.39289398
37	19	0	0	90	36.1581920903955	36.241610738255	17	0.566705404110253	2	7	4	NaN	2	4	0.0428720246396203	1	1	NaN	230	4	41	2	121	221	321	NaN	521	0.395156069658697	2	1	NaN	1804835.579967	NaN	1804836.563365	1804837.07993173
37	19	0	0	90	36.1581920903955	36.241610738255	25	0.833390300162137	2	12	1	NaN	2	5	0.0428720246396203	1	1	NaN	231	4	42	2	121	221	321	NaN	521	0.453783222008497	2	1	NaN	1804838.2969163	NaN	1804839.280305	1804839.79686468
37	19	0	0	90	36.1581920903955	36.241610738255	15	0.500034180097282	2	5	1	NaN	1	4	0.0428720246396203	1	1	NaN	232	4	43	2	121	221	321	NaN	521	0.0102222999557853	1	1	NaN	1804841.0638616	NaN	1804842.0472325	1804842.5637924
37	19	0	0	90	36.1581920903955	36.241610738255	19	0.633376628123224	2	2	1	NaN	1	4	0.0428720246396203	1	1	NaN	233	4	44	2	121	221	321	NaN	521	0.249981269706041	1	1	NaN	1804843.3807505	NaN	1804844.364138	1804844.88068853
37	19	0	0	90	36.1581920903955	36.241610738255	9	0.300020508058369	2	7	6	NaN	2	5	0.0428720246396203	1	1	NaN	234	4	45	2	121	221	321	NaN	521	0.0237039320636541	2	1	NaN	1804846.0308666	NaN	1804847.0144134	1804847.53095637
37	19	0	0	90	36.1581920903955	36.241610738255	22	0.73338346414268	2	8	1	NaN	2	4	0.0428720246396203	1	1	NaN	235	4	46	2	121	221	321	NaN	521	0.313943017041311	2	1	NaN	1804848.7645969	NaN	1804849.7480068	1804850.26455358
37	19	0	0	90	36.1581920903955	36.241610738255	15	0.500034180097282	2	6	6	NaN	1	3	0.0428720246396203	1	1	NaN	236	4	47	2	121	221	321	NaN	521	0.0103891221806407	1	1	NaN	1804851.3981927	NaN	1804852.3815872	1804852.89814948
37	19	0	0	90	36.1581920903955	36.241610738255	20	0.666712240129709	2	1	4	NaN	1	5	0.0428720246396203	1	1	NaN	237	4	48	2	121	221	321	NaN	521	0.163776669418439	1	1	NaN	1804853.7151087	NaN	1804854.6984943	1804855.21504413
37	19	0	0	90	36.1581920903955	36.241610738255	24	0.800054688155651	2	12	3	NaN	2	5	0.0428720246396203	1	1	NaN	238	4	49	2	121	221	321	NaN	521	0.296469521941617	2	1	NaN	1804856.1986137	NaN	1804857.1820731	1804857.69862348
37	19	0	0	90	36.1581920903955	36.241610738255	20	0.666712240129709	2	5	3	NaN	1	5	0.0428720246396203	1	1	NaN	239	4	50	2	121	221	321	NaN	521	0.0103784743696451	1	1	NaN	1804858.798811	NaN	1804859.7822374	1804860.29888123
37	19	0	0	90	36.1581920903955	36.241610738255	11	0.36669173207134	2	6	2	NaN	1	5	0.0428720246396203	1	1	NaN	240	4	51	2	121	221	321	NaN	521	2.2185509223491	1	1	NaN	1804861.1325049	NaN	1804862.115881	1804862.63244518
37	19	0	0	90	36.1581920903955	36.241610738255	8	0.266684896051884	2	10	6	NaN	2	3	0.0428720246396203	1	1	NaN	241	4	52	2	121	221	321	NaN	521	0.228554569417611	2	1	NaN	1804865.6663556	NaN	1804866.6496654	1804867.16621463
37	19	0	0	90	36.1581920903955	36.241610738255	20	0.666712240129709	2	7	1	NaN	2	3	0.0428720246396203	1	1	NaN	242	4	53	2	121	221	321	NaN	521	0.010338079649955	2	1	NaN	1804868.2165305	NaN	1804869.199901	1804869.71647652
37	19	0	0	90	36.1581920903955	36.241610738255	19	0.633376628123224	2	6	2	NaN	1	5	0.0428720246396203	1	1	NaN	243	4	54	2	121	221	321	NaN	521	0.294695822289214	1	1	NaN	1804871.0000852	NaN	1804871.9835256	1804872.50007938
37	19	0	0	90	36.1581920903955	36.241610738255	21	0.700047852136195	2	3	2	NaN	1	3	0.0428720246396203	1	1	NaN	244	4	55	2	121	221	321	NaN	521	0.146428327076137	1	1	NaN	1804873.7004128	NaN	1804874.6837946	1804875.20033677
37	19	0	0	90	36.1581920903955	36.241610738255	17	0.566705404110253	2	11	2	NaN	2	4	0.0428720246396203	1	1	NaN	245	4	56	2	121	221	321	NaN	521	0.349380942294374	2	1	NaN	1804876.4172773	NaN	1804877.4006954	1804877.91728376
37	19	0	0	90	36.1581920903955	36.241610738255	18	0.600041016116738	2	10	1	NaN	2	5	0.0428720246396203	1	1	NaN	246	4	57	2	121	221	321	NaN	521	0.0103961222339422	2	1	NaN	1804879.4342496	NaN	1804880.4176898	1804880.93423468
37	19	0	0	90	36.1581920903955	36.241610738255	9	0.300020508058369	2	12	6	NaN	2	3	0.0428720246396203	1	1	NaN	247	4	58	2	121	221	321	NaN	521	0.273810016922653	2	1	NaN	1804882.1012021	NaN	1804883.0846061	1804883.60115658
37	19	0	0	90	36.1581920903955	36.241610738255	7	0.233349284045398	2	2	3	NaN	1	3	0.0428720246396203	1	1	NaN	248	4	59	2	121	221	321	NaN	521	0.0103782746009529	1	1	NaN	1804884.684818	NaN	1804885.6680791	1804886.18475683
37	19	0	0	90	36.1581920903955	36.241610738255	23	0.766719076149166	2	2	2	NaN	1	3	0.0428720246396203	1	1	NaN	249	4	60	2	121	221	321	NaN	521	0.0104044694453478	1	1	NaN	1804887.2515966	NaN	1804888.235169	1804888.75167293
37	19	0	0	90	36.1581920903955	36.241610738255	25	0.833390300162137	2	5	5	NaN	1	3	0.0428720246396203	1	1	NaN	250	4	61	2	121	221	321	NaN	521	1.7818704219535	1	1	NaN	1804889.5853006	NaN	1804890.5686852	1804891.08523178
37	19	0	0	90	36.1581920903955	36.241610738255	0	0	1	10	2	NaN	2	5	0.0428720246396203	1	1	NaN	251	4	62	2	111	211	311	NaN	511	0.297540222061798	2	1	NaN	1804893.68567	NaN	1804894.669072	1804895.18564038
37	19	0	0	90	36.1581920903955	36.241610738255	9	0.300020508058369	2	12	4	NaN	2	3	0.0428720246396203	1	1	NaN	252	4	63	2	121	221	321	NaN	521	0.231745622120798	2	1	NaN	1804896.7193278	NaN	1804897.7027201	1804898.21926178
37	19	0	0	90	36.1581920903955	36.241610738255	12	0.400027344077826	2	9	1	NaN	2	4	0.0428720246396203	1	1	NaN	253	5	1	2	121	221	321	NaN	521	0.564388069324195	2	1	NaN	1804964.6425364	NaN	1804965.6260631	1804966.14260813
37	19	0	0	90	36.1581920903955	36.241610738255	23	0.766719076149166	2	5	6	NaN	1	5	0.0428720246396203	1	1	NaN	254	5	2	2	121	221	321	NaN	521	0.0104830067139119	2	0	NaN	1804967.5095918	NaN	1804968.4930996	1804969.00954119
37	19	0	0	90	36.1581920903955	36.241610738255	21	0.700047852136195	2	9	2	NaN	2	3	0.0428720246396203	1	1	NaN	255	5	3	2	121	221	321	NaN	521	0.0104042221792042	2	1	NaN	1804969.8265254	NaN	1804970.8098898	1804971.32644478
37	19	0	0	90	36.1581920903955	36.241610738255	19	0.633376628123224	2	11	1	NaN	2	5	0.0428720246396203	1	1	NaN	256	5	4	2	121	221	321	NaN	521	0.0103932220954448	2	1	NaN	1804972.1433795	NaN	1804973.1267881	1804973.64334388
37	19	0	0	90	36.1581920903955	36.241610738255	6	0.200013672038913	2	7	5	NaN	2	5	0.0428720246396203	1	1	NaN	257	5	5	2	121	221	321	NaN	521	1.73101772228256	2	1	NaN	1804974.4602966	NaN	1804975.4436859	1804975.96023618
37	19	0	0	90	36.1581920903955	36.241610738255	17	0.566705404110253	2	10	1	NaN	2	5	0.0428720246396203	1	1	NaN	258	5	6	2	121	221	321	NaN	521	0.344225569628179	2	1	NaN	1804979.110705	NaN	1804980.0941323	1804980.61069313
37	19	0	0	90	36.1581920903955	36.241610738255	14	0.466698568090797	2	5	6	NaN	1	5	0.0428720246396203	1	1	NaN	259	5	7	2	121	221	321	NaN	521	0.493821822106838	1	1	NaN	1804981.761	NaN	1804982.7444089	1804983.26094418
37	19	0	0	90	36.1581920903955	36.241610738255	6	0.200013672038913	2	10	5	NaN	2	5	0.0428720246396203	1	1	NaN	260	5	8	2	121	221	321	NaN	521	0.0103252849075943	2	1	NaN	1804984.5612844	NaN	1804985.5446603	1804986.06122222
37	19	0	0	90	36.1581920903955	36.241610738255	12	0.400027344077826	2	3	3	NaN	1	4	0.0428720246396203	1	1	NaN	261	5	9	2	121	221	321	NaN	521	0.0103942221030593	1	1	NaN	1804987.3280705	NaN	1804988.3116122	1804988.82816458
37	19	0	0	90	36.1581920903955	36.241610738255	7	0.233349284045398	2	10	5	NaN	2	4	0.0428720246396203	1	1	NaN	262	5	10	2	121	221	321	NaN	521	0.257126716896892	2	1	NaN	1804989.661761	NaN	1804990.6451676	1804991.16171958
37	19	0	0	90	36.1581920903955	36.241610738255	10	0.333356120064855	2	9	6	NaN	2	5	0.0428720246396203	1	1	NaN	263	5	11	2	121	221	321	NaN	521	0.314290422247723	1	0	NaN	1804992.2285977	NaN	1804993.2120714	1804993.72864398
37	19	0	0	90	36.1581920903955	36.241610738255	14	0.466698568090797	2	7	4	NaN	2	5	0.0428720246396203	1	1	NaN	264	5	12	2	121	221	321	NaN	521	0.33705676952377	2	1	NaN	1804994.8623198	NaN	1804995.845672	1804996.36223883
37	19	0	0	90	36.1581920903955	36.241610738255	13	0.433362956084311	2	1	2	NaN	1	3	0.0428720246396203	1	1	NaN	265	5	13	2	121	221	321	NaN	521	0.334520022151992	2	0	NaN	1804997.5125661	NaN	1804998.4959336	1804999.01249528
37	19	0	0	90	36.1581920903955	36.241610738255	17	0.566705404110253	2	7	6	NaN	2	3	0.0428720246396203	1	1	NaN	266	5	14	2	121	221	321	NaN	521	0.298514369642362	2	1	NaN	1805000.2121459	NaN	1805001.1961327	1805001.71276673
37	19	0	0	90	36.1581920903955	36.241610738255	8	0.266684896051884	2	6	6	NaN	1	5	0.0428720246396203	1	1	NaN	267	5	15	2	121	221	321	NaN	521	0.241499022115022	2	0	NaN	1805002.8297542	NaN	1805003.8131431	1805004.32968598
37	19	0	0	90	36.1581920903955	36.241610738255	24	0.800054688155651	2	2	5	NaN	1	4	0.0428720246396203	1	1	NaN	268	5	16	2	121	221	321	NaN	521	0.275099722202867	2	0	NaN	1805005.3799888	NaN	1805006.3633744	1805006.87994218
37	19	0	0	90	36.1581920903955	36.241610738255	6	0.200013672038913	2	3	1	NaN	1	3	0.0428720246396203	1	1	NaN	269	5	17	2	121	221	321	NaN	521	6.70746222208254	1	1	NaN	1805007.9635676	NaN	1805008.9470354	1805009.46352018
37	19	0	0	90	36.1581920903955	36.241610738255	13	0.433362956084311	2	11	3	NaN	2	4	0.0428720246396203	1	1	NaN	270	5	18	2	121	221	321	NaN	521	0.880261222133413	2	1	NaN	1805017.4144564	NaN	1805018.3978982	1805018.91445638
37	19	0	0	90	36.1581920903955	36.241610738255	15	0.500034180097282	2	10	3	NaN	2	3	0.0428720246396203	1	1	NaN	271	5	19	2	121	221	321	NaN	521	0.0103959222324193	2	1	NaN	1805020.6149125	NaN	1805021.5982038	1805022.11476608
37	19	0	0	90	36.1581920903955	36.241610738255	12	0.400027344077826	2	3	4	NaN	1	3	0.0428720246396203	1	1	NaN	272	5	20	2	121	221	321	NaN	521	1.84338832227513	1	1	NaN	1805022.9317023	NaN	1805023.915116	1805024.43166348
37	19	0	0	90	36.1581920903955	36.241610738255	10	0.333356120064855	2	3	3	NaN	1	5	0.0428720246396203	1	1	NaN	273	5	21	2	121	221	321	NaN	521	0.644181627081707	1	1	NaN	1805027.0988042	NaN	1805028.0821949	1805028.59873387
37	19	0	0	90	36.1581920903955	36.241610738255	6	0.200013672038913	2	2	4	NaN	1	3	0.0428720246396203	1	1	NaN	274	5	22	2	121	221	321	NaN	521	0.381593422265723	1	1	NaN	1805030.0657329	NaN	1805031.0491492	1805031.56569598
37	19	0	0	90	36.1581920903955	36.241610738255	20	0.666712240129709	2	2	4	NaN	1	4	0.0428720246396203	1	1	NaN	275	5	23	2	121	221	321	NaN	521	0.417092269519344	1	1	NaN	1805032.7660005	NaN	1805033.7494029	1805034.26595373
37	19	0	0	90	36.1581920903955	36.241610738255	17	0.566705404110253	2	1	5	NaN	1	5	0.0428720246396203	1	1	NaN	276	5	24	2	121	221	321	NaN	521	1.81177796935663	1	1	NaN	1805035.4996161	NaN	1805036.4830147	1805036.99956413
37	19	0	0	90	36.1581920903955	36.241610738255	9	0.300020508058369	2	1	4	NaN	1	4	0.0428720246396203	1	1	NaN	277	5	25	2	121	221	321	NaN	521	0.325607822276652	1	1	NaN	1805039.6333502	NaN	1805040.616736	1805041.13329328
37	19	0	0	90	36.1581920903955	36.241610738255	19	0.633376628123224	2	1	5	NaN	1	3	0.0428720246396203	1	1	NaN	278	5	26	2	121	221	321	NaN	521	2.4957925695926	1	1	NaN	1805042.7836164	NaN	1805043.7670619	1805044.28361053
37	19	0	0	90	36.1581920903955	36.241610738255	9	0.300020508058369	2	11	1	NaN	2	5	0.0428720246396203	1	1	NaN	279	5	27	2	121	221	321	NaN	521	0.0103936220984906	2	1	NaN	1805047.6008013	NaN	1805048.5842161	1805049.10074998
37	19	0	0	90	36.1581920903955	36.241610738255	25	0.833390300162137	2	3	4	NaN	1	5	0.0428720246396203	1	1	NaN	280	5	28	2	121	221	321	NaN	521	0.444800016935915	2	0	NaN	1805050.0344023	NaN	1805051.0177668	1805051.53431358
37	19	0	0	90	36.1581920903955	36.241610738255	15	0.500034180097282	2	1	1	NaN	1	5	0.0428720246396203	1	1	NaN	281	5	29	2	121	221	321	NaN	521	0.294493021909148	1	1	NaN	1805052.7846357	NaN	1805053.7680409	1805054.28459638
37	19	0	0	90	36.1581920903955	36.241610738255	23	0.766719076149166	2	7	1	NaN	2	4	0.0428720246396203	1	1	NaN	282	5	30	2	121	221	321	NaN	521	0.349535822169855	2	1	NaN	1805055.4015862	NaN	1805056.3849492	1805056.90151888
37	19	0	0	90	36.1581920903955	36.241610738255	23	0.766719076149166	2	5	6	NaN	1	3	0.0428720246396203	1	1	NaN	283	5	31	2	121	221	321	NaN	521	0.76250242209062	2	0	NaN	1805058.4681803	NaN	1805059.4519208	1805059.96848788
37	19	0	0	90	36.1581920903955	36.241610738255	7	0.233349284045398	2	10	1	NaN	2	5	0.0428720246396203	1	1	NaN	284	5	32	2	121	221	321	NaN	521	0.495602669427171	2	1	NaN	1805061.5355066	NaN	1805062.5188912	1805063.03544863
37	19	0	0	90	36.1581920903955	36.241610738255	7	0.233349284045398	2	11	4	NaN	2	5	0.0428720246396203	1	1	NaN	285	5	33	2	121	221	321	NaN	521	0.20665752212517	2	1	NaN	1805064.75245	NaN	1805065.7358781	1805066.25244388
37	19	0	0	90	36.1581920903955	36.241610738255	16	0.533369792103767	2	8	6	NaN	2	4	0.0428720246396203	1	1	NaN	286	5	34	2	121	221	321	NaN	521	0.19687816966325	2	1	NaN	1805067.585977	NaN	1805068.5695428	1805069.08604513
37	19	0	0	90	36.1581920903955	36.241610738255	19	0.633376628123224	2	12	6	NaN	2	3	0.0428720246396203	1	1	NaN	287	5	35	2	121	221	321	NaN	521	0.0103943219874054	2	1	NaN	1805070.1030228	NaN	1805071.0864024	1805071.60295128
37	19	0	0	90	36.1581920903955	36.241610738255	18	0.600041016116738	2	5	4	NaN	1	4	0.0428720246396203	1	1	NaN	288	5	36	2	121	221	321	NaN	521	0.218834469560534	1	1	NaN	1805072.4365625	NaN	1805073.419957	1805073.93652703
37	19	0	0	90	36.1581920903955	36.241610738255	10	0.333356120064855	2	6	4	NaN	1	3	0.0428720246396203	1	1	NaN	289	5	37	2	121	221	321	NaN	521	0.366206474602222	1	1	NaN	1805075.336827	NaN	1805076.3202611	1805076.83681113
37	19	0	0	90	36.1581920903955	36.241610738255	11	0.36669173207134	2	5	5	NaN	1	4	0.0428720246396203	1	1	NaN	290	5	38	2	121	221	321	NaN	521	0.375985622173175	2	0	NaN	1805078.4871935	NaN	1805079.4705562	1805079.98711938
37	19	0	0	90	36.1581920903955	36.241610738255	10	0.333356120064855	2	1	2	NaN	1	5	0.0428720246396203	1	1	NaN	291	5	39	2	121	221	321	NaN	521	0.308319621952251	2	0	NaN	1805081.1706441	NaN	1805082.1541336	1805082.67070888
37	19	0	0	90	36.1581920903955	36.241610738255	0	0	1	11	2	NaN	2	5	0.0428720246396203	1	1	NaN	292	5	40	2	111	211	311	NaN	511	0.123435222078115	2	1	NaN	1805083.7876682	NaN	1805084.7710684	1805085.28764758
37	19	0	0	90	36.1581920903955	36.241610738255	0	0	1	1	1	NaN	1	4	0.0428720246396203	1	1	NaN	293	5	41	2	111	211	311	NaN	511	1.5379433222115	2	0	NaN	1805086.2211125	NaN	1805087.2046432	1805087.72120748
37	19	0	0	90	36.1581920903955	36.241610738255	0	0	1	10	4	NaN	2	3	0.0428720246396203	1	1	NaN	294	5	42	2	111	211	311	NaN	511	0.7757653221488	2	1	NaN	1805090.0715398	NaN	1805091.0550253	1805091.57159018
37	19	0	0	90	36.1581920903955	36.241610738255	14	0.466698568090797	2	11	6	NaN	2	3	0.0428720246396203	1	1	NaN	295	5	43	2	121	221	321	NaN	521	0.467916122172028	2	1	NaN	1805093.155286	NaN	1805094.1386666	1805094.65522068
37	19	0	0	90	36.1581920903955	36.241610738255	12	0.400027344077826	2	7	5	NaN	2	3	0.0428720246396203	1	1	NaN	296	5	44	2	121	221	321	NaN	521	0.56467302213423	1	0	NaN	1805095.9388976	NaN	1805096.9223376	1805097.43883318
37	19	0	0	90	36.1581920903955	36.241610738255	19	0.633376628123224	2	8	3	NaN	2	4	0.0428720246396203	1	1	NaN	297	5	45	2	121	221	321	NaN	521	0.393316022120416	1	0	NaN	1805098.8057642	NaN	1805099.7892315	1805100.30577828
37	19	0	0	90	36.1581920903955	36.241610738255	25	0.833390300162137	2	12	1	NaN	2	4	0.0428720246396203	1	1	NaN	298	5	46	2	121	221	321	NaN	521	0.213054174324498	2	1	NaN	1805101.5059675	NaN	1805102.4894775	1805103.00604783
37	19	0	0	90	36.1581920903955	36.241610738255	7	0.233349284045398	2	4	3	NaN	1	4	0.0428720246396203	1	1	NaN	299	5	47	2	121	221	321	NaN	521	0.263472122140229	2	0	NaN	1805104.0396897	NaN	1805105.0230625	1805105.53962538
37	19	0	0	90	36.1581920903955	36.241610738255	24	0.800054688155651	2	1	4	NaN	1	4	0.0428720246396203	1	1	NaN	300	5	48	2	121	221	321	NaN	521	0.43221776955761	1	1	NaN	1805106.6232707	NaN	1805107.6066596	1805108.12321413
37	19	0	0	90	36.1581920903955	36.241610738255	10	0.333356120064855	2	11	5	NaN	2	4	0.0428720246396203	1	1	NaN	301	5	49	2	121	221	321	NaN	521	0.37956352205947	2	1	NaN	1805109.7234507	NaN	1805110.706965	1805111.22351438
37	19	0	0	90	36.1581920903955	36.241610738255	11	0.36669173207134	2	11	3	NaN	2	4	0.0428720246396203	1	1	NaN	302	5	50	2	121	221	321	NaN	521	0.480820269556716	2	1	NaN	1805112.790508	NaN	1805113.7738326	1805114.29048393
37	19	0	0	90	36.1581920903955	36.241610738255	25	0.833390300162137	2	11	1	NaN	2	5	0.0428720246396203	1	1	NaN	303	5	51	2	121	221	321	NaN	521	0.0103724745567888	2	1	NaN	1805115.8908223	NaN	1805116.8742198	1805117.39079263
37	19	0	0	90	36.1581920903955	36.241610738255	20	0.666712240129709	2	10	1	NaN	2	5	0.0428720246396203	1	1	NaN	304	5	52	2	121	221	321	NaN	521	0.279730942333117	2	1	NaN	1805118.207722	NaN	1805119.1911212	1805119.70769266
37	19	0	0	90	36.1581920903955	36.241610738255	17	0.566705404110253	2	1	3	NaN	1	3	0.0428720246396203	1	1	NaN	305	5	53	2	121	221	321	NaN	521	0.408731632167473	2	0	NaN	1805121.1746001	NaN	1805122.1580745	1805122.67464917
37	19	0	0	90	36.1581920903955	36.241610738255	24	0.800054688155651	2	4	2	NaN	1	4	0.0428720246396203	1	1	NaN	306	5	54	2	121	221	321	NaN	521	0.0274655695538968	2	0	NaN	1805123.8916107	NaN	1805124.8750086	1805125.39157983
37	19	0	0	90	36.1581920903955	36.241610738255	13	0.433362956084311	2	9	6	NaN	2	4	0.0428720246396203	1	1	NaN	307	5	55	2	121	221	321	NaN	521	0.29355239495635	1	0	NaN	1805126.241867	NaN	1805127.2252374	1805127.74180771
37	19	0	0	90	36.1581920903955	36.241610738255	14	0.466698568090797	2	2	2	NaN	1	3	0.0428720246396203	1	1	NaN	308	5	56	2	121	221	321	NaN	521	0.277282669441774	2	0	NaN	1805128.8422032	NaN	1805129.825511	1805130.34206103
37	19	0	0	90	36.1581920903955	36.241610738255	13	0.433362956084311	2	2	3	NaN	1	4	0.0428720246396203	1	1	NaN	309	5	57	2	121	221	321	NaN	521	0.220678522251546	1	1	NaN	1805131.4423605	NaN	1805132.4257516	1805132.94232118
37	19	0	0	90	36.1581920903955	36.241610738255	17	0.566705404110253	2	4	6	NaN	1	4	0.0428720246396203	1	1	NaN	310	5	58	2	121	221	321	NaN	521	0.23935342207551	1	1	NaN	1805133.9759493	NaN	1805134.9593389	1805135.47590198
37	19	0	0	90	36.1581920903955	36.241610738255	6	0.200013672038913	2	3	5	NaN	1	5	0.0428720246396203	1	1	NaN	311	5	59	2	121	221	321	NaN	521	0.0968709220178425	1	1	NaN	1805136.5262154	NaN	1805137.5096413	1805138.02614458
37	19	0	0	90	36.1581920903955	36.241610738255	8	0.266684896051884	2	2	5	NaN	1	3	0.0428720246396203	1	1	NaN	312	5	60	2	121	221	321	NaN	521	0.0959688168950379	1	1	NaN	1805138.9431088	NaN	1805139.926499	1805140.44304378
37	19	0	0	90	36.1581920903955	36.241610738255	6	0.200013672038913	2	10	1	NaN	2	4	0.0428720246396203	1	1	NaN	313	5	61	2	121	221	321	NaN	521	0.215492974501103	2	1	NaN	1805141.3599983	NaN	1805142.3434013	1805142.85995833
37	19	0	0	90	36.1581920903955	36.241610738255	10	0.333356120064855	2	7	5	NaN	2	5	0.0428720246396203	1	1	NaN	314	5	62	2	121	221	321	NaN	521	0.233551822137088	2	1	NaN	1805143.89349	NaN	1805144.87697	1805145.39353498
37	19	0	0	90	36.1581920903955	36.241610738255	19	0.633376628123224	2	6	1	NaN	1	5	0.0428720246396203	1	1	NaN	315	5	63	2	121	221	321	NaN	521	0.363308374304324	1	1	NaN	1805146.443858	NaN	1805147.4272227	1805147.94379563
37	19	0	0	90	36.1581920903955	36.241610738255	6	0.200013672038913	2	12	5	NaN	2	5	0.0428720246396203	1	1	NaN	316	6	1	2	121	221	321	NaN	521	0.310457922285423	2	1	NaN	1805166.9291386	NaN	1805167.9125682	1805168.42913618
37	19	0	0	90	36.1581920903955	36.241610738255	14	0.466698568090797	2	12	5	NaN	2	4	0.0428720246396203	1	1	NaN	317	6	2	2	121	221	321	NaN	521	0.0924995222594589	2	1	NaN	1805169.5627867	NaN	1805170.5462054	1805171.06272568
37	19	0	0	90	36.1581920903955	36.241610738255	22	0.73338346414268	2	6	1	NaN	1	5	0.0428720246396203	1	1	NaN	318	6	3	2	121	221	321	NaN	521	0.244256674544886	1	1	NaN	1805171.963017	NaN	1805172.9464126	1805173.46296543
37	19	0	0	90	36.1581920903955	36.241610738255	12	0.400027344077826	2	2	1	NaN	1	3	0.0428720246396203	1	1	NaN	319	6	4	2	121	221	321	NaN	521	0.0103904220741242	1	1	NaN	1805174.5299838	NaN	1805175.5133133	1805176.02987898
37	19	0	0	90	36.1581920903955	36.241610738255	6	0.200013672038913	2	6	5	NaN	1	4	0.0428720246396203	1	1	NaN	320	6	5	2	121	221	321	NaN	521	0.290987422224134	2	0	NaN	1805177.1801999	NaN	1805178.1635855	1805178.68013848
37	19	0	0	90	36.1581920903955	36.241610738255	12	0.400027344077826	2	11	4	NaN	2	5	0.0428720246396203	1	1	NaN	321	6	6	2	121	221	321	NaN	521	0.402907469542697	2	1	NaN	1805179.7804612	NaN	1805180.763858	1805181.28038663
37	19	0	0	90	36.1581920903955	36.241610738255	0	0	1	8	1	NaN	2	5	0.0428720246396203	1	1	NaN	322	6	7	2	111	211	311	NaN	511	0.309847374679521	1	0	NaN	1805182.4972968	NaN	1805183.4807659	1805183.99733193
37	19	0	0	90	36.1581920903955	36.241610738255	17	0.566705404110253	2	11	3	NaN	2	4	0.0428720246396203	1	1	NaN	323	6	8	2	121	221	321	NaN	521	0.21291606943123	2	1	NaN	1805185.1143025	NaN	1805186.0976892	1805186.61425573
37	19	0	0	90	36.1581920903955	36.241610738255	22	0.73338346414268	2	5	3	NaN	1	3	0.0428720246396203	1	1	NaN	324	6	9	2	121	221	321	NaN	521	0.226939616724849	1	1	NaN	1805187.9645297	NaN	1805188.947974	1805189.46452698
37	19	0	0	90	36.1581920903955	36.241610738255	10	0.333356120064855	2	11	6	NaN	2	3	0.0428720246396203	1	1	NaN	325	6	10	2	121	221	321	NaN	521	0.212964769685641	2	1	NaN	1805190.4981791	NaN	1805191.4815624	1805191.99813573
37	19	0	0	90	36.1581920903955	36.241610738255	12	0.400027344077826	2	4	6	NaN	1	5	0.0428720246396203	1	1	NaN	326	6	11	2	121	221	321	NaN	521	0.0103949219919741	1	1	NaN	1805193.0317382	NaN	1805194.0151324	1805194.53169508
37	19	0	0	90	36.1581920903955	36.241610738255	8	0.266684896051884	2	12	3	NaN	2	5	0.0428720246396203	1	1	NaN	327	6	12	2	121	221	321	NaN	521	0.170278716832399	2	1	NaN	1805195.3653049	NaN	1805196.3487057	1805196.86525548
37	19	0	0	90	36.1581920903955	36.241610738255	16	0.533369792103767	2	2	6	NaN	1	5	0.0428720246396203	1	1	NaN	328	6	13	2	121	221	321	NaN	521	0.295981969451532	1	1	NaN	1805198.2155538	NaN	1805199.1989847	1805199.71553203
37	19	0	0	90	36.1581920903955	36.241610738255	10	0.333356120064855	2	1	3	NaN	1	3	0.0428720246396203	1	1	NaN	329	6	14	2	121	221	321	NaN	521	0.118682969594374	1	1	NaN	1805200.8325221	NaN	1805201.81589	1805202.33246363
37	19	0	0	90	36.1581920903955	36.241610738255	12	0.400027344077826	2	1	4	NaN	1	4	0.0428720246396203	1	1	NaN	330	6	15	2	121	221	321	NaN	521	0.317450169473886	1	1	NaN	1805203.2660738	NaN	1805204.2494797	1805204.76603953
37	19	0	0	90	36.1581920903955	36.241610738255	8	0.266684896051884	2	5	2	NaN	1	4	0.0428720246396203	1	1	NaN	331	6	16	2	121	221	321	NaN	521	0.163619216997176	1	1	NaN	1805205.8996284	NaN	1805206.8830672	1805207.39962038
37	19	0	0	90	36.1581920903955	36.241610738255	12	0.400027344077826	2	1	2	NaN	1	3	0.0428720246396203	1	1	NaN	332	6	17	2	121	221	321	NaN	521	1.37537952209823	1	1	NaN	1805208.7998499	NaN	1805209.7833549	1805210.29991358
37	19	0	0	90	36.1581920903955	36.241610738255	24	0.800054688155651	2	6	3	NaN	1	3	0.0428720246396203	1	1	NaN	333	6	18	2	121	221	321	NaN	521	0.291691922117025	1	1	NaN	1805212.4836874	NaN	1805213.4670581	1805213.98360538
37	19	0	0	90	36.1581920903955	36.241610738255	18	0.600041016116738	2	2	4	NaN	1	3	0.0428720246396203	1	1	NaN	334	6	19	2	121	221	321	NaN	521	0.109319422161207	1	1	NaN	1805215.2339445	NaN	1805216.2173075	1805216.73387148
37	19	0	0	90	36.1581920903955	36.241610738255	25	0.833390300162137	2	9	6	NaN	2	4	0.0428720246396203	1	1	NaN	335	6	20	2	121	221	321	NaN	521	0.375543642323464	2	1	NaN	1805219.7676952	NaN	1805220.7511038	1805221.26765266
37	19	0	0	90	36.1581920903955	36.241610738255	14	0.466698568090797	2	8	6	NaN	2	4	0.0428720246396203	1	1	NaN	336	6	21	2	121	221	321	NaN	521	0.0104091221000999	2	1	NaN	1805222.4513032	NaN	1805223.4346999	1805223.95125298
37	19	0	0	90	36.1581920903955	36.241610738255	9	0.300020508058369	2	6	6	NaN	1	3	0.0428720246396203	1	1	NaN	337	6	22	2	121	221	321	NaN	521	0.303047922207043	2	0	NaN	1805224.7681827	NaN	1805225.7515936	1805226.26814708
37	19	0	0	90	36.1581920903955	36.241610738255	0	0	1	7	5	NaN	2	4	0.0428720246396203	1	1	NaN	338	6	23	2	111	211	311	NaN	511	0.377530574565753	2	1	NaN	1805229.3019432	NaN	1805230.2853606	1805230.80193403
37	19	0	0	90	36.1581920903955	36.241610738255	11	0.36669173207134	2	12	1	NaN	2	5	0.0428720246396203	1	1	NaN	339	6	24	2	121	221	321	NaN	521	0.619781869463623	2	1	NaN	1805234.8357194	NaN	1805235.8192827	1805236.33580103
37	19	0	0	90	36.1581920903955	36.241610738255	16	0.533369792103767	2	10	6	NaN	2	5	0.0428720246396203	1	1	NaN	340	6	25	2	121	221	321	NaN	521	0.773647574475035	2	1	NaN	1805237.7693568	NaN	1805238.7528551	1805239.26942303
37	19	0	0	90	36.1581920903955	36.241610738255	12	0.400027344077826	2	8	5	NaN	2	3	0.0428720246396203	1	1	NaN	341	6	26	2	121	221	321	NaN	521	0.616887016920373	2	1	NaN	1805242.0865318	NaN	1805243.0699519	1805243.58650518
37	19	0	0	90	36.1581920903955	36.241610738255	6	0.200013672038913	2	8	1	NaN	2	5	0.0428720246396203	1	1	NaN	342	6	27	2	121	221	321	NaN	521	1.65980734233744	2	1	NaN	1805245.403598	NaN	1805246.3869665	1805246.90351726
37	19	0	0	90	36.1581920903955	36.241610738255	18	0.600041016116738	2	4	1	NaN	1	4	0.0428720246396203	1	1	NaN	343	6	28	2	121	221	321	NaN	521	0.381003716960549	1	1	NaN	1805249.3706108	NaN	1805250.3539995	1805250.87055268
37	19	0	0	90	36.1581920903955	36.241610738255	18	0.600041016116738	2	6	2	NaN	1	3	0.0428720246396203	1	1	NaN	344	6	29	2	121	221	321	NaN	521	0.424643016885966	1	1	NaN	1805252.6708888	NaN	1805253.6543674	1805254.17088408
37	19	0	0	90	36.1581920903955	36.241610738255	12	0.400027344077826	2	5	6	NaN	1	3	0.0428720246396203	1	1	NaN	345	6	30	2	121	221	321	NaN	521	0.27493261708878	1	1	NaN	1805255.4045343	NaN	1805256.387934	1805256.90447958
37	19	0	0	90	36.1581920903955	36.241610738255	0	0	1	1	1	NaN	1	3	0.0428720246396203	1	1	NaN	346	6	31	2	111	211	311	NaN	511	0.347524622222409	1	1	NaN	1805257.9881446	NaN	1805258.9715043	1805259.48807928
37	19	0	0	90	36.1581920903955	36.241610738255	12	0.400027344077826	2	5	3	NaN	1	4	0.0428720246396203	1	1	NaN	347	6	32	2	121	221	321	NaN	521	0.200316789792851	1	1	NaN	1805260.6550263	NaN	1805261.6384391	1805262.15501381
37	19	0	0	90	36.1581920903955	36.241610738255	25	0.833390300162137	2	1	2	NaN	1	5	0.0428720246396203	1	1	NaN	348	6	33	2	121	221	321	NaN	521	0.755390322068706	2	0	NaN	1805263.17196	NaN	1805264.155351	1805264.67191498
37	19	0	0	90	36.1581920903955	36.241610738255	19	0.633376628123224	2	9	4	NaN	2	3	0.0428720246396203	1	1	NaN	349	6	34	2	121	221	321	NaN	521	0.248764069518074	2	1	NaN	1805266.2389336	NaN	1805267.2222273	1805267.73888703
37	19	0	0	90	36.1581920903955	36.241610738255	13	0.433362956084311	2	10	2	NaN	2	4	0.0428720246396203	1	1	NaN	350	6	35	2	121	221	321	NaN	521	0.346679874695837	2	1	NaN	1805269.1725173	NaN	1805270.1559903	1805270.67250733
37	19	0	0	90	36.1581920903955	36.241610738255	17	0.566705404110253	2	3	4	NaN	1	5	0.0428720246396203	1	1	NaN	351	6	36	2	121	221	321	NaN	521	0.0718456222675741	2	0	NaN	1805271.8394889	NaN	1805272.8228713	1805273.33943748
37	19	0	0	90	36.1581920903955	36.241610738255	12	0.400027344077826	2	9	3	NaN	2	4	0.0428720246396203	1	1	NaN	352	6	37	2	121	221	321	NaN	521	0.336254722205922	2	1	NaN	1805274.2230015	NaN	1805275.20646	1805275.72299868
37	19	0	0	90	36.1581920903955	36.241610738255	19	0.633376628123224	2	1	4	NaN	1	5	0.0428720246396203	1	1	NaN	353	6	38	2	121	221	321	NaN	521	0.326068169437349	1	1	NaN	1805276.8731938	NaN	1805277.8567118	1805278.37326653
37	19	0	0	90	36.1581920903955	36.241610738255	14	0.466698568090797	2	8	5	NaN	2	5	0.0428720246396203	1	1	NaN	354	6	39	2	121	221	321	NaN	521	0.598774216836318	2	1	NaN	1805279.8569032	NaN	1805280.840314	1805281.35689148
37	19	0	0	90	36.1581920903955	36.241610738255	11	0.36669173207134	2	6	3	NaN	1	3	0.0428720246396203	1	1	NaN	355	6	40	2	121	221	321	NaN	521	0.233456869376823	1	1	NaN	1805282.7738867	NaN	1805283.7572826	1805284.27383673
37	19	0	0	90	36.1581920903955	36.241610738255	11	0.36669173207134	2	2	6	NaN	1	3	0.0428720246396203	1	1	NaN	356	6	41	2	121	221	321	NaN	521	0.283656822051853	2	0	NaN	1805285.7075047	NaN	1805286.6908986	1805287.20746008
37	19	0	0	90	36.1581920903955	36.241610738255	23	0.766719076149166	2	11	2	NaN	2	5	0.0428720246396203	1	1	NaN	357	6	42	2	121	221	321	NaN	521	0.2836002423428	2	1	NaN	1805288.3077609	NaN	1805289.2911641	1805289.80771646
37	19	0	0	90	36.1581920903955	36.241610738255	16	0.533369792103767	2	5	3	NaN	1	4	0.0428720246396203	1	1	NaN	358	6	43	2	121	221	321	NaN	521	0.331651869695634	1	1	NaN	1805290.9080151	NaN	1805291.8914107	1805292.40797663
37	19	0	0	90	36.1581920903955	36.241610738255	15	0.500034180097282	2	10	4	NaN	2	3	0.0428720246396203	1	1	NaN	359	6	44	2	121	221	321	NaN	521	0.345421969657764	2	1	NaN	1805293.5582758	NaN	1805294.5416825	1805295.05823683
37	19	0	0	90	36.1581920903955	36.241610738255	17	0.566705404110253	2	12	4	NaN	2	3	0.0428720246396203	1	1	NaN	360	6	45	2	121	221	321	NaN	521	0.270798822166398	2	1	NaN	1805296.2085385	NaN	1805297.1919744	1805297.70850038
37	19	0	0	90	36.1581920903955	36.241610738255	12	0.400027344077826	2	12	3	NaN	2	3	0.0428720246396203	1	1	NaN	361	6	46	2	121	221	321	NaN	521	0.407137569505721	1	0	NaN	1805298.7921229	NaN	1805299.7755269	1805300.29208733
37	19	0	0	90	36.1581920903955	36.241610738255	6	0.200013672038913	2	5	2	NaN	1	4	0.0428720246396203	1	1	NaN	362	6	47	2	121	221	321	NaN	521	0.306295922258869	1	1	NaN	1805301.5090488	NaN	1805302.4924493	1805303.00901278
37	19	0	0	90	36.1581920903955	36.241610738255	20	0.666712240129709	2	11	4	NaN	2	4	0.0428720246396203	1	1	NaN	363	6	48	2	121	221	321	NaN	521	0.441337669501081	2	1	NaN	1805304.1260165	NaN	1805305.1093748	1805305.62594223
37	19	0	0	90	36.1581920903955	36.241610738255	16	0.533369792103767	2	5	3	NaN	1	3	0.0428720246396203	1	1	NaN	364	6	49	2	121	221	321	NaN	521	0.259093369590119	1	1	NaN	1805306.8762582	NaN	1805307.8596638	1805308.37620013
37	19	0	0	90	36.1581920903955	36.241610738255	6	0.200013672038913	2	7	4	NaN	2	3	0.0428720246396203	1	1	NaN	365	6	50	2	121	221	321	NaN	521	2.34770661685616	2	1	NaN	1805309.459744	NaN	1805310.443236	1805310.95979998
37	19	0	0	90	36.1581920903955	36.241610738255	0	0	1	3	2	NaN	1	3	0.0428720246396203	1	1	NaN	366	6	51	2	111	211	311	NaN	511	0.30562510015443	1	1	NaN	1805314.4936417	NaN	1805315.4770767	1805315.9936276
37	19	0	0	90	36.1581920903955	36.241610738255	18	0.600041016116738	2	8	4	NaN	2	3	0.0428720246396203	1	1	NaN	367	6	52	2	121	221	321	NaN	521	0.112607722170651	2	1	NaN	1805317.110584	NaN	1805318.0939877	1805318.61055118
37	19	0	0	90	36.1581920903955	36.241610738255	8	0.266684896051884	2	11	3	NaN	2	3	0.0428720246396203	1	1	NaN	368	6	53	2	121	221	321	NaN	521	0.303562222281471	2	1	NaN	1805319.544183	NaN	1805320.5275534	1805321.04411238
37	19	0	0	90	36.1581920903955	36.241610738255	7	0.233349284045398	2	1	2	NaN	1	4	0.0428720246396203	1	1	NaN	369	6	54	2	121	221	321	NaN	521	0.310311569599435	1	1	NaN	1805322.1610781	NaN	1805323.1444937	1805323.66104503
37	19	0	0	90	36.1581920903955	36.241610738255	23	0.766719076149166	2	10	5	NaN	2	5	0.0428720246396203	1	1	NaN	370	6	55	2	121	221	321	NaN	521	0.357656894950196	2	1	NaN	1805324.7780315	NaN	1805325.7614191	1805326.27796881
37	19	0	0	90	36.1581920903955	36.241610738255	22	0.73338346414268	2	4	2	NaN	1	5	0.0428720246396203	1	1	NaN	371	6	56	2	121	221	321	NaN	521	0.0104082694742829	2	0	NaN	1805327.4449483	NaN	1805328.4283225	1805328.94489693
37	19	0	0	90	36.1581920903955	36.241610738255	25	0.833390300162137	2	4	2	NaN	1	5	0.0428720246396203	1	1	NaN	372	6	57	2	121	221	321	NaN	521	0.149618569295853	2	0	NaN	1805329.7618546	NaN	1805330.745219	1805331.26178543
37	19	0	0	90	36.1581920903955	36.241610738255	24	0.800054688155651	2	12	2	NaN	2	4	0.0428720246396203	1	1	NaN	373	6	58	2	121	221	321	NaN	521	0.0428512746002525	2	1	NaN	1805332.2287351	NaN	1805333.2121356	1805333.72869803
37	19	0	0	90	36.1581920903955	36.241610738255	12	0.400027344077826	2	12	4	NaN	2	5	0.0428720246396203	1	1	NaN	374	6	59	2	121	221	321	NaN	521	0.0103889219462872	2	1	NaN	1805334.6956176	NaN	1805335.6790675	1805336.19559908
37	19	0	0	90	36.1581920903955	36.241610738255	25	0.833390300162137	2	6	5	NaN	1	4	0.0428720246396203	1	1	NaN	375	6	60	2	121	221	321	NaN	521	0.298774821916595	1	1	NaN	1805337.2125604	NaN	1805338.1959595	1805338.71252478
37	19	0	0	90	36.1581920903955	36.241610738255	15	0.500034180097282	2	11	6	NaN	2	3	0.0428720246396203	1	1	NaN	376	6	61	2	121	221	321	NaN	521	0.308478274382651	2	1	NaN	1805340.36285	NaN	1805341.3462695	1805341.86283513
37	19	0	0	90	36.1581920903955	36.241610738255	25	0.833390300162137	2	9	1	NaN	2	4	0.0428720246396203	1	1	NaN	377	6	62	2	121	221	321	NaN	521	0.0916105220094323	2	1	NaN	1805342.979789	NaN	1805343.9631947	1805344.47975738
37	19	0	0	90	36.1581920903955	36.241610738255	0	0	1	12	3	NaN	2	3	0.0428720246396203	1	1	NaN	378	6	63	2	111	211	311	NaN	511	0.235714269569144	2	1	NaN	1805345.3800331	NaN	1805346.3634383	1805346.87998863
37	19	0	0	90	36.1581920903955	36.241610738255	19	0.633376628123224	2	8	6	NaN	2	3	0.0428720246396203	1	1	NaN	379	7	1	2	121	221	321	NaN	521	0.821353622246534	2	1	NaN	1805360.4981701	NaN	1805361.4815968	1805361.99813408
37	19	0	0	90	36.1581920903955	36.241610738255	8	0.266684896051884	2	9	5	NaN	2	3	0.0428720246396203	1	1	NaN	380	7	2	2	121	221	321	NaN	521	1.8477093745023	2	1	NaN	1805363.6318564	NaN	1805364.6152243	1805365.13178163
37	19	0	0	90	36.1581920903955	36.241610738255	19	0.633376628123224	2	3	6	NaN	1	3	0.0428720246396203	1	1	NaN	381	7	3	2	121	221	321	NaN	521	0.281289174454287	1	1	NaN	1805367.7822599	NaN	1805368.7656354	1805369.28219563
37	19	0	0	90	36.1581920903955	36.241610738255	14	0.466698568090797	2	1	5	NaN	1	4	0.0428720246396203	1	1	NaN	382	7	4	2	121	221	321	NaN	521	0.361683369381353	1	1	NaN	1805370.3658156	NaN	1805371.3492262	1805371.86577743
37	19	0	0	90	36.1581920903955	36.241610738255	18	0.600041016116738	2	5	5	NaN	1	4	0.0428720246396203	1	1	NaN	383	7	5	2	121	221	321	NaN	521	0.0386185743845999	2	0	NaN	1805373.4327646	NaN	1805374.4161961	1805374.93275083
37	19	0	0	90	36.1581920903955	36.241610738255	23	0.766719076149166	2	3	1	NaN	1	4	0.0428720246396203	1	1	NaN	384	7	6	2	121	221	321	NaN	521	0.248455464374274	1	1	NaN	1805375.7830114	NaN	1805376.766407	1805377.28296754
37	19	0	0	90	36.1581920903955	36.241610738255	19	0.633376628123224	2	7	6	NaN	2	5	0.0428720246396203	1	1	NaN	385	7	7	2	121	221	321	NaN	521	1.13716792222112	2	1	NaN	1805378.3665136	NaN	1805379.3500031	1805379.86655418
37	19	0	0	90	36.1581920903955	36.241610738255	11	0.36669173207134	2	4	1	NaN	1	3	0.0428720246396203	1	1	NaN	386	7	8	2	121	221	321	NaN	521	0.302391716977581	1	1	NaN	1805381.8169749	NaN	1805382.8003363	1805383.31689768
37	19	0	0	90	36.1581920903955	36.241610738255	22	0.73338346414268	2	10	6	NaN	2	5	0.0428720246396203	1	1	NaN	387	7	9	2	121	221	321	NaN	521	0.155584822176024	2	1	NaN	1805384.8838807	NaN	1805385.867322	1805386.38386978
37	19	0	0	90	36.1581920903955	36.241610738255	20	0.666712240129709	2	7	2	NaN	2	3	0.0428720246396203	1	1	NaN	388	7	10	2	121	221	321	NaN	521	0.0104206695687026	1	0	NaN	1805387.3508171	NaN	1805388.3342188	1805388.85079873
37	19	0	0	90	36.1581920903955	36.241610738255	7	0.233349284045398	2	6	1	NaN	1	4	0.0428720246396203	1	1	NaN	389	7	11	2	121	221	321	NaN	521	0.648086369503289	2	0	NaN	1805389.7677117	NaN	1805390.7511127	1805391.26768083
37	19	0	0	90	36.1581920903955	36.241610738255	20	0.666712240129709	2	2	2	NaN	1	3	0.0428720246396203	1	1	NaN	390	7	12	2	121	221	321	NaN	521	0.665592322126031	2	0	NaN	1805392.7180072	NaN	1805393.7013994	1805394.21797698
37	19	0	0	90	36.1581920903955	36.241610738255	18	0.600041016116738	2	7	4	NaN	2	3	0.0428720246396203	1	1	NaN	391	7	13	2	121	221	321	NaN	521	0.888430722057819	2	1	NaN	1805396.7350537	NaN	1805397.7184782	1805398.23502848
37	19	0	0	90	36.1581920903955	36.241610738255	16	0.533369792103767	2	2	4	NaN	1	5	0.0428720246396203	1	1	NaN	392	7	14	2	121	221	321	NaN	521	1.55013192212209	2	0	NaN	1805400.5853334	NaN	1805401.5688574	1805402.08541478
37	19	0	0	90	36.1581920903955	36.241610738255	15	0.500034180097282	2	3	2	NaN	1	5	0.0428720246396203	1	1	NaN	393	7	15	2	121	221	321	NaN	521	0.259032522095367	1	1	NaN	1805404.4525628	NaN	1805405.4359112	1805405.95245578
37	19	0	0	90	36.1581920903955	36.241610738255	8	0.266684896051884	2	7	3	NaN	2	4	0.0428720246396203	1	1	NaN	394	7	16	2	121	221	321	NaN	521	1.73915286944248	1	0	NaN	1805407.4527798	NaN	1805408.4361916	1805408.95275353
37	19	0	0	90	36.1581920903955	36.241610738255	15	0.500034180097282	2	2	5	NaN	1	4	0.0428720246396203	1	1	NaN	395	7	17	2	121	221	321	NaN	521	1.73677176958881	1	1	NaN	1805411.5031969	NaN	1805412.4866011	1805413.00315183
37	19	0	0	90	36.1581920903955	36.241610738255	15	0.500034180097282	2	7	1	NaN	2	4	0.0428720246396203	1	1	NaN	396	7	18	2	121	221	321	NaN	521	0.237933221971616	2	1	NaN	1805415.5535959	NaN	1805416.5369842	1805417.05354798
37	19	0	0	90	36.1581920903955	36.241610738255	24	0.800054688155651	2	7	6	NaN	2	3	0.0428720246396203	1	1	NaN	397	7	19	2	121	221	321	NaN	521	0.375821869587526	2	1	NaN	1805418.5037651	NaN	1805419.4872757	1805420.00384903
37	19	0	0	90	36.1581920903955	36.241610738255	7	0.233349284045398	2	4	4	NaN	1	5	0.0428720246396203	1	1	NaN	398	7	20	2	121	221	321	NaN	521	0.380410669604316	1	1	NaN	1805421.187492	NaN	1805422.1708803	1805422.68743773
37	19	0	0	90	36.1581920903955	36.241610738255	22	0.73338346414268	2	12	6	NaN	2	4	0.0428720246396203	1	1	NaN	399	7	21	2	121	221	321	NaN	521	0.0103730745613575	2	1	NaN	1805423.8710453	NaN	1805424.8544825	1805425.37104383
37	19	0	0	90	36.1581920903955	36.241610738255	13	0.433362956084311	2	6	4	NaN	1	4	0.0428720246396203	1	1	NaN	400	7	22	2	121	221	321	NaN	521	0.243673169519752	1	1	NaN	1805426.1879674	NaN	1805427.171357	1805427.68792753
37	19	0	0	90	36.1581920903955	36.241610738255	6	0.200013672038913	2	4	3	NaN	1	4	0.0428720246396203	1	1	NaN	401	7	23	2	121	221	321	NaN	521	0.0133841645438224	1	1	NaN	1805428.7382364	NaN	1805429.7216144	1805430.23817424
37	19	0	0	90	36.1581920903955	36.241610738255	18	0.600041016116738	2	2	4	NaN	1	4	0.0428720246396203	1	1	NaN	402	7	24	2	121	221	321	NaN	521	0.11976892221719	1	1	NaN	1805431.0717937	NaN	1805432.0551824	1805432.57173768
37	19	0	0	90	36.1581920903955	36.241610738255	10	0.333356120064855	2	7	1	NaN	2	3	0.0428720246396203	1	1	NaN	403	7	25	2	121	221	321	NaN	521	0.212195822037756	2	1	NaN	1805433.7552525	NaN	1805434.7388009	1805435.25532738
37	19	0	0	90	36.1581920903955	36.241610738255	0	0	1	12	2	NaN	2	3	0.0428720246396203	1	1	NaN	404	7	26	2	111	211	311	NaN	511	1.56719762203284	1	0	NaN	1805436.2723042	NaN	1805437.2556955	1805437.77225108
37	19	0	0	90	36.1581920903955	36.241610738255	23	0.766719076149166	2	3	3	NaN	1	4	0.0428720246396203	1	1	NaN	405	7	27	2	121	221	321	NaN	521	0.37190237431787	1	1	NaN	1805440.1560281	NaN	1805441.1394009	1805441.65596983
37	19	0	0	90	36.1581920903955	36.241610738255	0	0	1	4	4	NaN	1	4	0.0428720246396203	1	1	NaN	406	7	28	2	111	211	311	NaN	511	0.336595116881654	1	1	NaN	1805443.222968	NaN	1805444.2063835	1805444.72292738
37	19	0	0	90	36.1581920903955	36.241610738255	10	0.333356120064855	2	12	1	NaN	2	3	0.0428720246396203	1	1	NaN	407	7	29	2	121	221	321	NaN	521	1.08367644250393	1	0	NaN	1805445.9398407	NaN	1805446.9233138	1805447.43986706
37	19	0	0	90	36.1581920903955	36.241610738255	8	0.266684896051884	2	8	5	NaN	2	4	0.0428720246396203	1	1	NaN	408	7	30	2	121	221	321	NaN	521	0.683463969500735	1	0	NaN	1805449.340255	NaN	1805450.3236333	1805450.84018963
37	19	0	0	90	36.1581920903955	36.241610738255	13	0.433362956084311	2	12	4	NaN	2	4	0.0428720246396203	1	1	NaN	409	7	31	2	121	221	321	NaN	521	0.139374322257936	2	1	NaN	1805452.3405363	NaN	1805453.3239262	1805453.84048928
37	19	0	0	90	36.1581920903955	36.241610738255	17	0.566705404110253	2	8	4	NaN	2	4	0.0428720246396203	1	1	NaN	410	7	32	2	121	221	321	NaN	521	0.288834869628772	2	1	NaN	1805454.7907629	NaN	1805455.7741786	1805456.29073593
37	19	0	0	90	36.1581920903955	36.241610738255	18	0.600041016116738	2	3	4	NaN	1	4	0.0428720246396203	1	1	NaN	411	7	33	2	121	221	321	NaN	521	0.192447242559865	1	1	NaN	1805457.3910544	NaN	1805458.37433	1805458.89099606
37	19	0	0	90	36.1581920903955	36.241610738255	6	0.200013672038913	2	11	1	NaN	2	4	0.0428720246396203	1	1	NaN	412	7	34	2	121	221	321	NaN	521	0.188228174578398	2	1	NaN	1805459.8912983	NaN	1805460.8746694	1805461.39124123
37	19	0	0	90	36.1581920903955	36.241610738255	13	0.433362956084311	2	10	2	NaN	2	3	0.0428720246396203	1	1	NaN	413	7	35	2	121	221	321	NaN	521	0.310726574622095	2	1	NaN	1805462.8247744	NaN	1805463.8083193	1805464.32485703
37	19	0	0	90	36.1581920903955	36.241610738255	23	0.766719076149166	2	1	1	NaN	1	4	0.0428720246396203	1	1	NaN	414	7	36	2	121	221	321	NaN	521	0.294067337410524	2	0	NaN	1805465.4418118	NaN	1805466.425225	1805466.94177766
37	19	0	0	90	36.1581920903955	36.241610738255	22	0.73338346414268	2	5	2	NaN	1	4	0.0428720246396203	1	1	NaN	415	7	37	2	121	221	321	NaN	521	0.453826669603586	2	0	NaN	1805468.042101	NaN	1805469.0254908	1805469.54203803
37	19	0	0	90	36.1581920903955	36.241610738255	22	0.73338346414268	2	2	5	NaN	1	5	0.0428720246396203	1	1	NaN	416	7	38	2	121	221	321	NaN	521	0.182634116848931	1	1	NaN	1805470.8090181	NaN	1805471.7924433	1805472.30897058
37	19	0	0	90	36.1581920903955	36.241610738255	11	0.36669173207134	2	2	4	NaN	1	3	0.0428720246396203	1	1	NaN	417	7	39	2	121	221	321	NaN	521	0.738360522314906	1	1	NaN	1805473.309276	NaN	1805474.2926584	1805474.80921198
37	19	0	0	90	36.1581920903955	36.241610738255	25	0.833390300162137	2	10	3	NaN	2	3	0.0428720246396203	1	1	NaN	418	7	40	2	121	221	321	NaN	521	0.096079922048375	2	1	NaN	1805476.3596241	NaN	1805477.3430111	1805477.85951588
37	19	0	0	90	36.1581920903955	36.241610738255	14	0.466698568090797	2	7	3	NaN	2	3	0.0428720246396203	1	1	NaN	419	7	41	2	121	221	321	NaN	521	0.463155574630946	1	0	NaN	1805478.7764707	NaN	1805479.7598569	1805480.27642603
37	19	0	0	90	36.1581920903955	36.241610738255	13	0.433362956084311	2	11	1	NaN	2	5	0.0428720246396203	1	1	NaN	420	7	42	2	121	221	321	NaN	521	0.639761369442567	2	1	NaN	1805481.5600788	NaN	1805482.5435238	1805483.06002743
37	19	0	0	90	36.1581920903955	36.241610738255	16	0.533369792103767	2	4	5	NaN	1	5	0.0428720246396203	1	1	NaN	421	7	43	2	121	221	321	NaN	521	0.0733437745366246	2	0	NaN	1805484.5103858	NaN	1805485.493755	1805486.01032073
37	19	0	0	90	36.1581920903955	36.241610738255	20	0.666712240129709	2	4	1	NaN	1	3	0.0428720246396203	1	1	NaN	422	7	44	2	121	221	321	NaN	521	0.297615516930819	2	0	NaN	1805486.8939352	NaN	1805487.8773371	1805488.39388848
37	19	0	0	90	36.1581920903955	36.241610738255	16	0.533369792103767	2	7	1	NaN	2	5	0.0428720246396203	1	1	NaN	423	7	45	2	121	221	321	NaN	521	0.176869122311473	2	1	NaN	1805489.5108857	NaN	1805490.4942495	1805491.01080938
37	19	0	0	90	36.1581920903955	36.241610738255	7	0.233349284045398	2	8	3	NaN	2	4	0.0428720246396203	1	1	NaN	424	7	46	2	121	221	321	NaN	521	0.733064269414172	2	1	NaN	1805491.9944264	NaN	1805492.9778365	1805493.49439033
37	19	0	0	90	36.1581920903955	36.241610738255	22	0.73338346414268	2	1	6	NaN	1	3	0.0428720246396203	1	1	NaN	425	7	47	2	121	221	321	NaN	521	0.427137922029942	2	0	NaN	1805495.0447502	NaN	1805496.028144	1805496.54468438
37	19	0	0	90	36.1581920903955	36.241610738255	7	0.233349284045398	2	9	2	NaN	2	4	0.0428720246396203	1	1	NaN	426	7	48	2	121	221	321	NaN	521	0.0103938221000135	2	1	NaN	1805497.7950066	NaN	1805498.7784115	1805499.29496058
37	19	0	0	90	36.1581920903955	36.241610738255	14	0.466698568090797	2	4	3	NaN	1	4	0.0428720246396203	1	1	NaN	427	7	49	2	121	221	321	NaN	521	0.0103850222658366	1	1	NaN	1805500.1117752	NaN	1805501.0952836	1805501.61185348
37	19	0	0	90	36.1581920903955	36.241610738255	18	0.600041016116738	2	11	6	NaN	2	3	0.0428720246396203	1	1	NaN	428	7	50	2	121	221	321	NaN	521	0.106146869482473	2	1	NaN	1805502.4454662	NaN	1805503.4289086	1805503.94541493
37	19	0	0	90	36.1581920903955	36.241610738255	23	0.766719076149166	2	2	1	NaN	1	5	0.0428720246396203	1	1	NaN	429	7	51	2	121	221	321	NaN	521	1.02528586960398	1	1	NaN	1805504.8622445	NaN	1805505.8457605	1805506.36231183
37	19	0	0	90	36.1581920903955	36.241610738255	8	0.266684896051884	2	4	1	NaN	1	4	0.0428720246396203	1	1	NaN	430	7	52	2	121	221	321	NaN	521	0.0103930747136474	1	1	NaN	1805508.1960198	NaN	1805509.1794242	1805509.69598453
37	19	0	0	90	36.1581920903955	36.241610738255	25	0.833390300162137	2	11	5	NaN	2	5	0.0428720246396203	1	1	NaN	431	7	53	2	121	221	321	NaN	521	0.0103844220284373	2	1	NaN	1805510.5129132	NaN	1805511.4963422	1805512.01287008
37	19	0	0	90	36.1581920903955	36.241610738255	16	0.533369792103767	2	9	4	NaN	2	3	0.0428720246396203	1	1	NaN	432	7	54	2	121	221	321	NaN	521	1.36967982212082	2	1	NaN	1805512.8298147	NaN	1805513.8132098	1805514.32977098
37	19	0	0	90	36.1581920903955	36.241610738255	10	0.333356120064855	2	10	5	NaN	2	4	0.0428720246396203	1	1	NaN	433	7	55	2	121	221	321	NaN	521	0.230913422303274	1	0	NaN	1805516.8968191	NaN	1805517.8802821	1805518.39683208
37	19	0	0	90	36.1581920903955	36.241610738255	14	0.466698568090797	2	4	5	NaN	1	5	0.0428720246396203	1	1	NaN	434	7	56	2	121	221	321	NaN	521	0.448831369634718	1	1	NaN	1805519.4472207	NaN	1805520.4305403	1805520.94708743
37	19	0	0	90	36.1581920903955	36.241610738255	16	0.533369792103767	2	12	6	NaN	2	5	0.0428720246396203	1	1	NaN	435	7	57	2	121	221	321	NaN	521	1.30575842224061	2	1	NaN	1805522.2140777	NaN	1805523.1974694	1805523.71402068
37	19	0	0	90	36.1581920903955	36.241610738255	21	0.700047852136195	2	5	4	NaN	1	4	0.0428720246396203	1	1	NaN	436	7	58	2	121	221	321	NaN	521	0.34450791683048	1	1	NaN	1805525.8310454	NaN	1805526.8144765	1805527.33103368
37	19	0	0	90	36.1581920903955	36.241610738255	10	0.333356120064855	2	12	5	NaN	2	5	0.0428720246396203	1	1	NaN	437	7	59	2	121	221	321	NaN	521	0.765602722298354	1	0	NaN	1805528.4980192	NaN	1805529.4814292	1805529.99797198
37	19	0	0	90	36.1581920903955	36.241610738255	9	0.300020508058369	2	2	3	NaN	1	4	0.0428720246396203	1	1	NaN	438	7	60	2	121	221	321	NaN	521	0.0819843271747231	1	1	NaN	1805531.5816629	NaN	1805532.5650492	1805533.08160907
37	19	0	0	90	36.1581920903955	36.241610738255	18	0.600041016116738	2	6	3	NaN	1	3	0.0428720246396203	1	1	NaN	439	7	61	2	121	221	321	NaN	521	0.290187816834077	1	1	NaN	1805533.9819031	NaN	1805534.965284	1805535.48183358
37	19	0	0	90	36.1581920903955	36.241610738255	24	0.800054688155651	2	8	3	NaN	2	3	0.0428720246396203	1	1	NaN	440	7	62	2	121	221	321	NaN	521	2.27391747455113	2	1	NaN	1805536.5821291	NaN	1805537.5655377	1805538.08210303
37	19	0	0	90	36.1581920903955	36.241610738255	21	0.700047852136195	2	12	2	NaN	2	4	0.0428720246396203	1	1	NaN	441	7	63	2	121	221	321	NaN	521	1.17690113210119	2	1	NaN	1805542.3826022	NaN	1805543.3661019	1805543.88266867
37	19	0	0	90	36.1581920903955	36.241610738255	23	0.766719076149166	2	8	5	NaN	2	5	0.0428720246396203	1	1	NaN	442	8	1	2	121	221	321	NaN	521	0.270568222040311	2	1	NaN	1805557.6174161	NaN	1805558.6009293	1805559.11749008
37	19	0	0	90	36.1581920903955	36.241610738255	11	0.36669173207134	2	8	6	NaN	2	5	0.0428720246396203	1	1	NaN	443	8	2	2	121	221	321	NaN	521	0.0104202169459313	2	1	NaN	1805560.2010014	NaN	1805561.1845101	1805561.70108718
37	19	0	0	90	36.1581920903955	36.241610738255	18	0.600041016116738	2	12	5	NaN	2	4	0.0428720246396203	1	1	NaN	444	8	3	2	121	221	321	NaN	521	0.0104001222644001	2	1	NaN	1805562.8846943	NaN	1805563.8681155	1805564.38467228
37	19	0	0	90	36.1581920903955	36.241610738255	13	0.433362956084311	2	3	5	NaN	1	5	0.0428720246396203	1	1	NaN	445	8	4	2	121	221	321	NaN	521	0.0104044694453478	1	1	NaN	1805565.2015282	NaN	1805566.1849994	1805566.70157773
37	19	0	0	90	36.1581920903955	36.241610738255	22	0.73338346414268	2	11	1	NaN	2	4	0.0428720246396203	1	1	NaN	446	8	5	2	121	221	321	NaN	521	0.0172980066854507	1	0	NaN	1805567.5183896	NaN	1805568.5019076	1805569.01846329
37	19	0	0	90	36.1581920903955	36.241610738255	20	0.666712240129709	2	3	3	NaN	1	5	0.0428720246396203	1	1	NaN	447	8	6	2	121	221	321	NaN	521	0.0436577694490552	1	1	NaN	1805569.852056	NaN	1805570.8355249	1805571.35203263
37	19	0	0	90	36.1581920903955	36.241610738255	6	0.200013672038913	2	5	2	NaN	1	3	0.0428720246396203	1	1	NaN	448	8	7	2	121	221	321	NaN	521	1.3253339221701	1	1	NaN	1805572.2023201	NaN	1805573.1857076	1805573.70225638
37	19	0	0	90	36.1581920903955	36.241610738255	14	0.466698568090797	2	2	6	NaN	1	3	0.0428720246396203	1	1	NaN	449	8	8	2	121	221	321	NaN	521	0.0102831898257136	1	1	NaN	1805575.8360968	NaN	1805576.8194364	1805577.33595591
37	19	0	0	90	36.1581920903955	36.241610738255	24	0.800054688155651	2	1	3	NaN	1	4	0.0428720246396203	1	1	NaN	450	8	9	2	121	221	321	NaN	521	1.21484222216532	1	1	NaN	1805578.1528953	NaN	1805579.1362943	1805579.65284608
37	19	0	0	90	36.1581920903955	36.241610738255	19	0.633376628123224	2	5	6	NaN	1	4	0.0428720246396203	1	1	NaN	451	8	10	2	121	221	321	NaN	521	0.0173088170122355	2	0	NaN	1805581.6865867	NaN	1805582.6699656	1805583.18652118
37	19	0	0	90	36.1581920903955	36.241610738255	11	0.36669173207134	2	4	6	NaN	1	3	0.0428720246396203	1	1	NaN	452	8	11	2	121	221	321	NaN	521	0.548979274462909	1	1	NaN	1805584.3868089	NaN	1805585.3702294	1805585.88679833
37	19	0	0	90	36.1581920903955	36.241610738255	21	0.700047852136195	2	9	1	NaN	2	4	0.0428720246396203	1	1	NaN	453	8	12	2	121	221	321	NaN	521	0.130181969376281	1	0	NaN	1805587.2538562	NaN	1805588.2371996	1805588.75374223
37	19	0	0	90	36.1581920903955	36.241610738255	24	0.800054688155651	2	11	6	NaN	2	5	0.0428720246396203	1	1	NaN	454	8	13	2	121	221	321	NaN	521	0.488924922188744	2	1	NaN	1805590.0706976	NaN	1805591.0541183	1805591.57068028
37	19	0	0	90	36.1581920903955	36.241610738255	0	0	1	9	6	NaN	2	3	0.0428720246396203	1	1	NaN	455	8	14	2	111	211	311	NaN	511	1.48128852224909	1	0	NaN	1805593.2543594	NaN	1805594.2377627	1805594.75433358
37	19	0	0	90	36.1581920903955	36.241610738255	21	0.700047852136195	2	11	5	NaN	2	5	0.0428720246396203	1	1	NaN	456	8	15	2	121	221	321	NaN	521	0.29778982209973	2	1	NaN	1805597.0380765	NaN	1805598.0214627	1805598.53803178
37	19	0	0	90	36.1581920903955	36.241610738255	24	0.800054688155651	2	6	1	NaN	1	5	0.0428720246396203	1	1	NaN	457	8	16	2	121	221	321	NaN	521	0.0953084221109748	1	1	NaN	1805599.8883583	NaN	1805600.8717632	1805601.38832008
37	19	0	0	90	36.1581920903955	36.241610738255	8	0.266684896051884	2	3	5	NaN	1	3	0.0428720246396203	1	1	NaN	458	8	17	2	121	221	321	NaN	521	0.225767069496214	1	1	NaN	1805602.6219355	NaN	1805603.6053492	1805604.12191353
