subjno	age	gender	isPractice	viewdist	CmToPixX	CmToPixY	SOA_frm	SOA_time	targNum	targID	targExample	targRace	targGender	firstTargPos	contrast	familiarity	curr_staircase	iStair	TrialNum	BlockNum	blktrl	sessionNum	TC_FIXATION	TC_RSVP_START	TC_RSVP_END	TC_BLANK	TC_RESPONSE_ONSET	RT2afc	resp_2afc	acc	RSVPOnsetVBL	RSVPOnsetTime	RSVPOffsetVBL	RSVPOffsetTime	startrt_2afc
116	19	1	0	90	36.1581920903955	36.241610738255	0	0	1	9	5	NaN	2	4	0.245489495646974	0	1	NaN	1	1	1	2	110	210	310	NaN	510	0.3616111734882	2	1	NaN	5176561.651127	NaN	5176562.6345321	5176563.16764933
116	19	1	0	90	36.1581920903955	36.241610738255	19	0.63337062381208	2	12	4	NaN	2	3	0.245489495646974	0	1	NaN	2	1	2	2	120	220	320	NaN	520	0.116013272665441	2	1	NaN	5176564.3848379	NaN	5176565.3681419	5176565.90124833
116	19	1	0	90	36.1581920903955	36.241610738255	0	0	1	12	1	NaN	2	3	0.245489495646974	0	1	NaN	3	1	3	2	110	210	310	NaN	510	0.0106743620708585	2	1	NaN	5176566.8349817	NaN	5176567.8182723	5176568.33481554
116	19	1	0	90	36.1581920903955	36.241610738255	21	0.700041215792298	2	2	1	NaN	1	4	0.245489495646974	0	1	NaN	4	1	4	2	120	220	320	NaN	520	0.212713221088052	2	0	NaN	5176569.1684309	NaN	5176570.1518464	5176570.66838688
116	19	1	0	90	36.1581920903955	36.241610738255	14	0.466694143861532	2	9	6	NaN	2	4	0.245489495646974	0	1	NaN	5	1	5	2	120	220	320	NaN	520	0.0151475202292204	2	1	NaN	5176571.7020094	NaN	5176572.6854194	5176573.20197258
116	19	1	0	90	36.1581920903955	36.241610738255	20	0.666705919802189	2	10	4	NaN	2	4	0.245489495646974	0	1	NaN	6	1	6	2	120	220	320	NaN	520	0.169175926595926	2	1	NaN	5176574.0522554	NaN	5176575.0356541	5176575.55220637
116	19	1	0	90	36.1581920903955	36.241610738255	23	0.766711807772517	2	8	4	NaN	2	3	0.245489495646974	0	1	NaN	7	1	7	2	120	220	320	NaN	520	0.0104047674685717	1	0	NaN	5176577.2525828	NaN	5176578.2359557	5176578.75251363
116	19	1	0	90	36.1581920903955	36.241610738255	12	0.400023551881313	2	3	2	NaN	1	5	0.245489495646974	0	1	NaN	8	1	8	2	120	220	320	NaN	520	0.237557421438396	2	0	NaN	5176579.9194661	NaN	5176580.9028957	5176581.41944718
116	19	1	0	90	36.1581920903955	36.241610738255	9	0.300017663910985	2	6	6	NaN	1	3	0.245489495646974	0	1	NaN	9	1	9	2	120	220	320	NaN	520	0.183479467406869	1	1	NaN	5176582.4697509	NaN	5176583.4531524	5176583.96968703
116	19	1	0	90	36.1581920903955	36.241610738255	9	0.300017663910985	2	10	3	NaN	2	4	0.245489495646974	0	1	NaN	10	1	10	2	120	220	320	NaN	520	0.338870068080723	1	0	NaN	5176584.9699945	NaN	5176585.9535526	5176586.46994483
116	19	1	0	90	36.1581920903955	36.241610738255	22	0.733376511782408	2	9	4	NaN	2	3	0.245489495646974	0	1	NaN	11	1	11	2	120	220	320	NaN	520	0.192079767584801	1	0	NaN	5176587.6369287	NaN	5176588.6203131	5176589.13686483
116	19	1	0	90	36.1581920903955	36.241610738255	10	0.333352959901094	2	11	5	NaN	2	5	0.245489495646974	0	1	NaN	12	1	12	2	120	220	320	NaN	520	0.0104060675948858	1	0	NaN	5176590.1537077	NaN	5176591.1372408	5176591.65378823
116	19	1	0	90	36.1581920903955	36.241610738255	8	0.266682367920876	2	9	1	NaN	2	3	0.245489495646974	0	1	NaN	13	1	13	2	120	220	320	NaN	520	0.149952820502222	2	1	NaN	5176592.4874175	NaN	5176593.4707985	5176593.98735248
116	19	1	0	90	36.1581920903955	36.241610738255	15	0.500029439851642	2	7	2	NaN	2	5	0.245489495646974	0	1	NaN	14	1	14	2	120	220	320	NaN	520	0.122653121128678	2	1	NaN	5176594.9542743	NaN	5176595.9377108	5176596.45425658
116	19	1	0	90	36.1581920903955	36.241610738255	20	0.666705919802189	2	1	6	NaN	1	4	0.245489495646974	0	1	NaN	15	1	15	2	120	220	320	NaN	520	2.57639896776527	1	1	NaN	5176597.4045577	NaN	5176598.3880062	5176598.90448883
116	19	1	0	90	36.1581920903955	36.241610738255	17	0.566700031831861	2	5	4	NaN	1	5	0.245489495646974	0	1	NaN	16	1	16	2	120	220	320	NaN	520	0.0103935208171606	1	1	NaN	5176602.3050494	NaN	5176603.2884313	5176603.80497488
116	19	1	0	90	36.1581920903955	36.241610738255	10	0.333352959901094	2	8	1	NaN	2	3	0.245489495646974	0	1	NaN	17	1	17	2	120	220	320	NaN	520	0.182538067921996	2	1	NaN	5176604.6385965	NaN	5176605.6219778	5176606.13853183
116	19	1	0	90	36.1581920903955	36.241610738255	6	0.200011775940657	2	1	4	NaN	1	3	0.245489495646974	0	1	NaN	18	1	18	2	120	220	320	NaN	520	0.250723920762539	2	0	NaN	5176607.1388381	NaN	5176608.1222327	5176608.63878308
116	19	1	0	90	36.1581920903955	36.241610738255	13	0.433358847871423	2	6	2	NaN	1	3	0.245489495646974	0	1	NaN	19	1	19	2	120	220	320	NaN	520	0.283105973154306	2	0	NaN	5176610.1224352	NaN	5176611.1058505	5176611.62241093
116	19	1	0	90	36.1581920903955	36.241610738255	25	0.833382399752736	2	2	5	NaN	1	4	0.245489495646974	0	1	NaN	20	1	20	2	120	220	320	NaN	520	0.282666867598891	2	0	NaN	5176612.7227367	NaN	5176613.7061019	5176614.22267343
116	19	1	0	90	36.1581920903955	36.241610738255	9	0.300017663910985	2	8	6	NaN	2	3	0.245489495646974	0	1	NaN	21	1	21	2	120	220	320	NaN	520	0.324726421386003	2	1	NaN	5176615.6563509	NaN	5176616.6397362	5176617.15629208
116	19	1	0	90	36.1581920903955	36.241610738255	11	0.366688255891204	2	11	1	NaN	2	5	0.245489495646974	0	1	NaN	22	1	22	2	120	220	320	NaN	520	0.138814320787787	1	0	NaN	5176618.3064763	NaN	5176619.2899922	5176619.80654958
116	19	1	0	90	36.1581920903955	36.241610738255	8	0.266682367920876	2	6	2	NaN	1	3	0.245489495646974	0	1	NaN	23	1	23	2	120	220	320	NaN	520	0.224329520948231	1	1	NaN	5176620.7568303	NaN	5176621.7402504	5176622.25679518
116	19	1	0	90	36.1581920903955	36.241610738255	11	0.366688255891204	2	12	4	NaN	2	5	0.245489495646974	0	1	NaN	24	1	24	2	120	220	320	NaN	520	0.11394386831671	2	1	NaN	5176623.3070832	NaN	5176624.2904783	5176624.80704213
116	19	1	0	90	36.1581920903955	36.241610738255	22	0.733376511782408	2	2	4	NaN	1	4	0.245489495646974	0	1	NaN	25	1	25	2	120	220	320	NaN	520	0.216518521308899	1	1	NaN	5176625.7407038	NaN	5176626.7240594	5176627.24061618
116	19	1	0	90	36.1581920903955	36.241610738255	18	0.60003532782197	2	5	6	NaN	1	5	0.245489495646974	0	1	NaN	26	1	26	2	120	220	320	NaN	520	0.205451420508325	2	0	NaN	5176628.6075925	NaN	5176629.5910141	5176630.10755988
116	19	1	0	90	36.1581920903955	36.241610738255	13	0.433358847871423	2	10	6	NaN	2	4	0.245489495646974	0	1	NaN	27	1	27	2	120	220	320	NaN	520	0.264709521085024	2	1	NaN	5176631.1245344	NaN	5176632.1079207	5176632.62448138
116	19	1	0	90	36.1581920903955	36.241610738255	10	0.333352959901094	2	8	1	NaN	2	4	0.245489495646974	0	1	NaN	28	1	28	2	120	220	320	NaN	520	0.212302420288324	2	1	NaN	5176634.2248064	NaN	5176635.2082364	5176635.72478258
116	19	1	0	90	36.1581920903955	36.241610738255	24	0.800047103762627	2	3	6	NaN	1	4	0.245489495646974	0	1	NaN	29	1	29	2	120	220	320	NaN	520	0.01042006816715	2	0	NaN	5176636.7583374	NaN	5176637.741791	5176638.25835703
116	19	1	0	90	36.1581920903955	36.241610738255	16	0.533364735841751	2	3	4	NaN	1	3	0.245489495646974	0	1	NaN	30	1	30	2	120	220	320	NaN	520	0.289574068039656	2	0	NaN	5176639.0919989	NaN	5176640.0754308	5176640.59192883
116	19	1	0	90	36.1581920903955	36.241610738255	16	0.533364735841751	2	6	1	NaN	1	3	0.245489495646974	0	1	NaN	31	1	31	2	120	220	320	NaN	520	0.216426820494235	2	0	NaN	5176641.7088981	NaN	5176642.6922975	5176643.20885378
116	19	1	0	90	36.1581920903955	36.241610738255	0	0	1	6	4	NaN	1	5	0.245489495646974	0	1	NaN	32	1	32	2	110	210	310	NaN	510	0.0104021206498146	1	1	NaN	5176644.6257481	NaN	5176645.6092587	5176646.12580388
116	19	1	0	90	36.1581920903955	36.241610738255	21	0.700041215792298	2	10	4	NaN	2	3	0.245489495646974	0	1	NaN	33	1	33	2	120	220	320	NaN	520	0.149941467680037	1	0	NaN	5176646.9594212	NaN	5176647.9428143	5176648.45935813
116	19	1	0	90	36.1581920903955	36.241610738255	24	0.800047103762627	2	8	6	NaN	2	5	0.245489495646974	0	1	NaN	34	1	34	2	120	220	320	NaN	520	0.106857373379171	1	0	NaN	5176649.4263132	NaN	5176650.4097284	5176650.92629703
116	19	1	0	90	36.1581920903955	36.241610738255	0	0	1	7	6	NaN	2	5	0.245489495646974	0	1	NaN	35	1	35	2	110	210	310	NaN	510	0.0103207845240831	2	1	NaN	5176652.2931625	NaN	5176653.2766753	5176653.79323142
116	19	1	0	90	36.1581920903955	36.241610738255	24	0.800047103762627	2	1	3	NaN	1	4	0.245489495646974	0	1	NaN	36	1	36	2	120	220	320	NaN	520	0.234387220814824	2	0	NaN	5176654.6268416	NaN	5176655.6102397	5176656.12678858
116	19	1	0	90	36.1581920903955	36.241610738255	11	0.366688255891204	2	10	6	NaN	2	5	0.245489495646974	0	1	NaN	37	1	37	2	120	220	320	NaN	520	0.148180668242276	2	1	NaN	5176657.1770833	NaN	5176658.1605302	5176658.67702883
116	19	1	0	90	36.1581920903955	36.241610738255	14	0.466694143861532	2	12	6	NaN	2	3	0.245489495646974	0	1	NaN	38	1	38	2	120	220	320	NaN	520	0.129654815420508	2	1	NaN	5176659.6439923	NaN	5176660.6273902	5176661.14393668
116	19	1	0	90	36.1581920903955	36.241610738255	20	0.666705919802189	2	2	3	NaN	1	4	0.245489495646974	0	1	NaN	39	1	39	2	120	220	320	NaN	520	0.119024421088398	1	1	NaN	5176662.094243	NaN	5176663.0776393	5176663.59420848
116	19	1	0	90	36.1581920903955	36.241610738255	24	0.800047103762627	2	10	2	NaN	2	5	0.245489495646974	0	1	NaN	40	1	40	2	120	220	320	NaN	520	0.197349220514297	1	0	NaN	5176664.527802	NaN	5176665.5112127	5176666.02777748
116	19	1	0	90	36.1581920903955	36.241610738255	10	0.333352959901094	2	12	3	NaN	2	5	0.245489495646974	0	1	NaN	41	1	41	2	120	220	320	NaN	520	0.323463420383632	2	1	NaN	5176667.5780628	NaN	5176668.5615033	5176669.07805848
116	19	1	0	90	36.1581920903955	36.241610738255	18	0.60003532782197	2	10	4	NaN	2	3	0.245489495646974	0	1	NaN	42	1	42	2	120	220	320	NaN	520	0.289824920706451	2	1	NaN	5176670.2116593	NaN	5176671.1950861	5176671.71165778
116	19	1	0	90	36.1581920903955	36.241610738255	9	0.300017663910985	2	11	2	NaN	2	3	0.245489495646974	0	1	NaN	43	1	43	2	120	220	320	NaN	520	0.381897920742631	2	1	NaN	5176673.2953505	NaN	5176674.2787354	5176674.79528538
116	19	1	0	90	36.1581920903955	36.241610738255	19	0.63337062381208	2	10	1	NaN	2	5	0.245489495646974	0	1	NaN	44	1	44	2	120	220	320	NaN	520	0.906004630960524	2	1	NaN	5176675.9954804	NaN	5176676.9790043	5176677.49555577
116	19	1	0	90	36.1581920903955	36.241610738255	18	0.60003532782197	2	4	5	NaN	1	3	0.245489495646974	0	1	NaN	45	1	45	2	120	220	320	NaN	520	0.241062620654702	2	0	NaN	5176679.2126003	NaN	5176680.1959863	5176680.71254048
116	19	1	0	90	36.1581920903955	36.241610738255	0	0	1	5	3	NaN	1	5	0.245489495646974	0	1	NaN	46	1	46	2	110	210	310	NaN	510	0.178783820942044	1	1	NaN	5176681.7628547	NaN	5176682.7462444	5176683.26279088
116	19	1	0	90	36.1581920903955	36.241610738255	9	0.300017663910985	2	1	1	NaN	1	4	0.245489495646974	0	1	NaN	47	1	47	2	120	220	320	NaN	520	0.150493168272078	2	0	NaN	5176684.2631778	NaN	5176685.246483	5176685.76302543
116	19	1	0	90	36.1581920903955	36.241610738255	8	0.266682367920876	2	11	5	NaN	2	3	0.245489495646974	0	1	NaN	48	1	48	2	120	220	320	NaN	520	0.0103962207213044	1	0	NaN	5176686.7300171	NaN	5176687.7134187	5176688.22994268
116	19	1	0	90	36.1581920903955	36.241610738255	24	0.800047103762627	2	9	5	NaN	2	5	0.245489495646974	0	1	NaN	49	1	49	2	120	220	320	NaN	520	0.0104206679388881	1	0	NaN	5176689.0635469	NaN	5176690.0469488	5176690.56349723
116	19	1	0	90	36.1581920903955	36.241610738255	11	0.366688255891204	2	7	6	NaN	2	5	0.245489495646974	0	1	NaN	50	1	50	2	120	220	320	NaN	520	0.0168389203026891	2	1	NaN	5176691.3804424	NaN	5176692.3637458	5176692.88039898
116	19	1	0	90	36.1581920903955	36.241610738255	7	0.233347071930766	2	10	6	NaN	2	4	0.245489495646974	0	1	NaN	51	1	51	2	120	220	320	NaN	520	0.683079420588911	1	0	NaN	5176693.7138628	NaN	5176694.6974315	5176695.21396648
116	19	1	0	90	36.1581920903955	36.241610738255	0	0	1	11	3	NaN	2	3	0.245489495646974	0	1	NaN	52	1	52	2	110	210	310	NaN	510	0.135538468137383	2	1	NaN	5176697.1977034	NaN	5176698.1810907	5176698.69764063
116	19	1	0	90	36.1581920903955	36.241610738255	19	0.63337062381208	2	1	1	NaN	1	5	0.245489495646974	0	1	NaN	53	1	53	2	120	220	320	NaN	520	0.0104117672890425	1	1	NaN	5176699.6479488	NaN	5176700.6313385	5176701.14786883
116	19	1	0	90	36.1581920903955	36.241610738255	6	0.200011775940657	2	2	6	NaN	1	3	0.245489495646974	0	1	NaN	54	1	54	2	120	220	320	NaN	520	0.0884209461510181	1	1	NaN	5176702.5648544	NaN	5176703.5482877	5176704.06485175
116	19	1	0	90	36.1581920903955	36.241610738255	17	0.566700031831861	2	8	1	NaN	2	5	0.245489495646974	0	1	NaN	55	1	55	2	120	220	320	NaN	520	0.176116621121764	2	1	NaN	5176704.9650673	NaN	5176705.9485301	5176706.46507038
116	19	1	0	90	36.1581920903955	36.241610738255	22	0.733376511782408	2	10	6	NaN	2	3	0.245489495646974	0	1	NaN	56	1	56	2	120	220	320	NaN	520	0.275818172842264	2	1	NaN	5176707.6653626	NaN	5176708.648789	5176709.16532673
116	19	1	0	90	36.1581920903955	36.241610738255	11	0.366688255891204	2	8	5	NaN	2	3	0.245489495646974	0	1	NaN	57	1	57	2	120	220	320	NaN	520	0.010407168418169	2	1	NaN	5176710.682454	NaN	5176711.6657386	5176712.18229073
116	19	1	0	90	36.1581920903955	36.241610738255	7	0.233347071930766	2	10	3	NaN	2	5	0.245489495646974	0	1	NaN	58	1	58	2	120	220	320	NaN	520	0.190027767792344	2	1	NaN	5176712.9992291	NaN	5176713.9826277	5176714.49919353
116	19	1	0	90	36.1581920903955	36.241610738255	7	0.233347071930766	2	6	5	NaN	1	5	0.245489495646974	0	1	NaN	59	1	59	2	120	220	320	NaN	520	0.282423520460725	1	1	NaN	5176715.882718	NaN	5176716.8662508	5176717.38281178
116	19	1	0	90	36.1581920903955	36.241610738255	6	0.200011775940657	2	3	5	NaN	1	3	0.245489495646974	0	1	NaN	60	1	60	2	120	220	320	NaN	520	0.25018016807735	1	1	NaN	5176718.4831331	NaN	5176719.466559	5176719.98306543
116	19	1	0	90	36.1581920903955	36.241610738255	19	0.63337062381208	2	2	1	NaN	1	3	0.245489495646974	0	1	NaN	61	1	61	2	120	220	320	NaN	520	0.283177020959556	2	0	NaN	5176721.0500378	NaN	5176722.0334345	5176722.54998668
116	19	1	0	90	36.1581920903955	36.241610738255	22	0.733376511782408	2	8	6	NaN	2	5	0.245489495646974	0	1	NaN	62	1	62	2	120	220	320	NaN	520	0.0832275208085775	2	1	NaN	5176723.650291	NaN	5176724.6336961	5176725.15023838
116	19	1	0	90	36.1581920903955	36.241610738255	12	0.400023551881313	2	8	5	NaN	2	4	0.245489495646974	0	1	NaN	63	1	63	2	120	220	320	NaN	520	0.258884420618415	2	1	NaN	5176726.0505111	NaN	5176727.0339132	5176727.55047678
116	19	1	0	90	36.1581920903955	36.241610738255	17	0.566700031831861	2	12	1	NaN	2	3	0.245489495646974	0	1	NaN	64	2	1	2	120	220	320	NaN	520	0.1374975675717	1	0	NaN	5176731.8677458	NaN	5176732.8511878	5176733.36770293
116	19	1	0	90	36.1581920903955	36.241610738255	17	0.566700031831861	2	5	6	NaN	1	4	0.245489495646974	0	1	NaN	65	2	2	2	120	220	320	NaN	520	0.111220672726631	1	1	NaN	5176734.3179902	NaN	5176735.3014096	5176735.81794433
116	19	1	0	90	36.1581920903955	36.241610738255	19	0.63337062381208	2	6	3	NaN	1	3	0.245489495646974	0	1	NaN	66	2	3	2	120	220	320	NaN	520	0.446031120605767	1	1	NaN	5176736.7515801	NaN	5176737.7349668	5176738.25152338
116	19	1	0	90	36.1581920903955	36.241610738255	15	0.500029439851642	2	11	6	NaN	2	5	0.245489495646974	0	1	NaN	67	2	4	2	120	220	320	NaN	520	0.0788701679557562	1	0	NaN	5176739.5185297	NaN	5176740.5019101	5176741.01845663
116	19	1	0	90	36.1581920903955	36.241610738255	17	0.566700031831861	2	9	1	NaN	2	4	0.245489495646974	0	1	NaN	68	2	5	2	120	220	320	NaN	520	0.351614773273468	2	1	NaN	5176741.902076	NaN	5176742.8854822	5176743.40203183
116	19	1	0	90	36.1581920903955	36.241610738255	13	0.433358847871423	2	4	1	NaN	1	5	0.245489495646974	0	1	NaN	69	2	6	2	120	220	320	NaN	520	0.140186468139291	2	0	NaN	5176744.5690033	NaN	5176745.5525083	5176746.06895533
116	19	1	0	90	36.1581920903955	36.241610738255	9	0.300017663910985	2	11	2	NaN	2	4	0.245489495646974	0	1	NaN	70	2	7	2	120	220	320	NaN	520	0.183311420492828	2	1	NaN	5176747.4859403	NaN	5176748.4693473	5176748.98591658
116	19	1	0	90	36.1581920903955	36.241610738255	14	0.466694143861532	2	6	2	NaN	1	5	0.245489495646974	0	1	NaN	71	2	8	2	120	220	320	NaN	520	0.291183115914464	1	1	NaN	5176749.9862261	NaN	5176750.9695999	5176751.48615168
116	19	1	0	90	36.1581920903955	36.241610738255	11	0.366688255891204	2	4	2	NaN	1	3	0.245489495646974	0	1	NaN	72	2	9	2	120	220	320	NaN	520	0.282845067791641	1	1	NaN	5176752.5864705	NaN	5176753.5698591	5176754.08640513
116	19	1	0	90	36.1581920903955	36.241610738255	21	0.700041215792298	2	8	6	NaN	2	5	0.245489495646974	0	1	NaN	73	2	10	2	120	220	320	NaN	520	0.314648420549929	1	0	NaN	5176755.1867364	NaN	5176756.1701284	5176756.68666808
116	19	1	0	90	36.1581920903955	36.241610738255	25	0.833382399752736	2	9	6	NaN	2	4	0.245489495646974	0	1	NaN	74	2	11	2	120	220	320	NaN	520	0.0104098673909903	1	0	NaN	5176757.8203179	NaN	5176758.8037124	5176759.32025353
116	19	1	0	90	36.1581920903955	36.241610738255	9	0.300017663910985	2	4	5	NaN	1	3	0.245489495646974	0	1	NaN	75	2	12	2	120	220	320	NaN	520	0.236127766780555	1	1	NaN	5176760.1372243	NaN	5176761.1206046	5176761.63714913
116	19	1	0	90	36.1581920903955	36.241610738255	21	0.700041215792298	2	5	5	NaN	1	4	0.245489495646974	0	1	NaN	76	2	13	2	120	220	320	NaN	520	0.262299020774662	1	1	NaN	5176762.6874748	NaN	5176763.6708614	5176764.18741038
116	19	1	0	90	36.1581920903955	36.241610738255	13	0.433358847871423	2	3	3	NaN	1	3	0.245489495646974	0	1	NaN	77	2	14	2	120	220	320	NaN	520	0.286608267575502	1	1	NaN	5176765.2709847	NaN	5176766.2544569	5176766.77099713
116	19	1	0	90	36.1581920903955	36.241610738255	23	0.766711807772517	2	2	1	NaN	1	3	0.245489495646974	0	1	NaN	78	2	15	2	120	220	320	NaN	520	0.262138215824962	1	1	NaN	5176767.8713871	NaN	5176768.8546962	5176769.37124058
116	19	1	0	90	36.1581920903955	36.241610738255	15	0.500029439851642	2	2	6	NaN	1	4	0.245489495646974	0	1	NaN	79	2	16	2	120	220	320	NaN	520	0.294419020414352	1	1	NaN	5176770.4548275	NaN	5176771.4382687	5176771.95483588
116	19	1	0	90	36.1581920903955	36.241610738255	24	0.800047103762627	2	4	6	NaN	1	3	0.245489495646974	0	1	NaN	80	2	17	2	120	220	320	NaN	520	0.31820392049849	1	1	NaN	5176773.0550014	NaN	5176774.0385372	5176774.55509288
116	19	1	0	90	36.1581920903955	36.241610738255	21	0.700041215792298	2	5	5	NaN	1	5	0.245489495646974	0	1	NaN	81	2	18	2	120	220	320	NaN	520	0.0839226199313998	1	1	NaN	5176775.7054186	NaN	5176776.6888151	5176777.20535808
116	19	1	0	90	36.1581920903955	36.241610738255	15	0.500029439851642	2	10	2	NaN	2	3	0.245489495646974	0	1	NaN	82	2	19	2	120	220	320	NaN	520	0.300067520700395	1	0	NaN	5176778.1056442	NaN	5176779.0890369	5176779.60559248
116	19	1	0	90	36.1581920903955	36.241610738255	23	0.766711807772517	2	10	6	NaN	2	3	0.245489495646974	0	1	NaN	83	2	20	2	120	220	320	NaN	520	0.26717472076416	1	0	NaN	5176780.7225862	NaN	5176781.7059788	5176782.22252128
116	19	1	0	90	36.1581920903955	36.241610738255	12	0.400023551881313	2	1	1	NaN	1	3	0.245489495646974	0	1	NaN	84	2	21	2	120	220	320	NaN	520	0.251637520268559	2	0	NaN	5176783.3061592	NaN	5176784.2895321	5176784.80610098
116	19	1	0	90	36.1581920903955	36.241610738255	24	0.800047103762627	2	2	3	NaN	1	3	0.245489495646974	0	1	NaN	85	2	22	2	120	220	320	NaN	520	0.2088264208287	1	1	NaN	5176786.3564764	NaN	5176787.3398708	5176787.85639678
116	19	1	0	90	36.1581920903955	36.241610738255	9	0.300017663910985	2	5	2	NaN	1	5	0.245489495646974	0	1	NaN	86	2	23	2	120	220	320	NaN	520	0.156457968056202	1	1	NaN	5176788.8733631	NaN	5176789.8567426	5176790.37330453
116	19	1	0	90	36.1581920903955	36.241610738255	22	0.733376511782408	2	2	3	NaN	1	3	0.245489495646974	0	1	NaN	87	2	24	2	120	220	320	NaN	520	0.129526615142822	1	1	NaN	5176791.3403052	NaN	5176792.3236721	5176792.84021628
116	19	1	0	90	36.1581920903955	36.241610738255	23	0.766711807772517	2	6	2	NaN	1	5	0.245489495646974	0	1	NaN	88	2	25	2	120	220	320	NaN	520	0.165870567783713	1	1	NaN	5176794.2238665	NaN	5176795.2072928	5176795.72382993
116	19	1	0	90	36.1581920903955	36.241610738255	9	0.300017663910985	2	9	6	NaN	2	5	0.245489495646974	0	1	NaN	89	2	26	2	120	220	320	NaN	520	0.122560321353376	1	0	NaN	5176796.6907378	NaN	5176797.674196	5176798.19074798
116	19	1	0	90	36.1581920903955	36.241610738255	8	0.266682367920876	2	3	2	NaN	1	5	0.245489495646974	0	1	NaN	90	2	27	2	120	220	320	NaN	520	0.197643620893359	1	1	NaN	5176799.6077313	NaN	5176800.5911513	5176801.10770628
116	19	1	0	90	36.1581920903955	36.241610738255	24	0.800047103762627	2	6	6	NaN	1	5	0.245489495646974	0	1	NaN	91	2	28	2	120	220	320	NaN	520	0.233702572993934	1	1	NaN	5176802.1080188	NaN	5176803.0913928	5176803.60794523
116	19	1	0	90	36.1581920903955	36.241610738255	14	0.466694143861532	2	6	6	NaN	1	5	0.245489495646974	0	1	NaN	92	2	29	2	120	220	320	NaN	520	0.139048268087208	1	1	NaN	5176804.6582437	NaN	5176805.6416464	5176806.15819143
116	19	1	0	90	36.1581920903955	36.241610738255	0	0	1	4	4	NaN	1	5	0.245489495646974	0	1	NaN	93	2	30	2	110	210	310	NaN	510	0.120821720920503	1	1	NaN	5176807.108525	NaN	5176808.0918877	5176808.60843588
116	19	1	0	90	36.1581920903955	36.241610738255	7	0.233347071930766	2	4	3	NaN	1	3	0.245489495646974	0	1	NaN	94	2	31	2	120	220	320	NaN	520	0.010411768220365	1	1	NaN	5176810.0087693	NaN	5176810.9921743	5176811.50871683
116	19	1	0	90	36.1581920903955	36.241610738255	11	0.366688255891204	2	11	5	NaN	2	3	0.245489495646974	0	1	NaN	95	2	32	2	120	220	320	NaN	520	0.135870421305299	2	1	NaN	5176812.3256553	NaN	5176813.3090595	5176813.82561888
116	19	1	0	90	36.1581920903955	36.241610738255	12	0.400023551881313	2	11	2	NaN	2	3	0.245489495646974	0	1	NaN	96	2	33	2	120	220	320	NaN	520	0.163489021360874	1	0	NaN	5176815.0259843	NaN	5176816.0093318	5176816.52588538
116	19	1	0	90	36.1581920903955	36.241610738255	12	0.400023551881313	2	10	1	NaN	2	3	0.245489495646974	0	1	NaN	97	2	34	2	120	220	320	NaN	520	0.104363520629704	1	0	NaN	5176817.5095097	NaN	5176818.4929133	5176819.00946198
116	19	1	0	90	36.1581920903955	36.241610738255	23	0.766711807772517	2	7	5	NaN	2	3	0.245489495646974	0	1	NaN	98	2	35	2	120	220	320	NaN	520	0.135384268127382	1	0	NaN	5176819.9263702	NaN	5176820.9098506	5176821.42635613
116	19	1	0	90	36.1581920903955	36.241610738255	23	0.766711807772517	2	4	5	NaN	1	3	0.245489495646974	0	1	NaN	99	2	36	2	120	220	320	NaN	520	0.084834068082273	1	1	NaN	5176822.3765385	NaN	5176823.3600313	5176823.87660103
116	19	1	0	90	36.1581920903955	36.241610738255	23	0.766711807772517	2	9	4	NaN	2	4	0.245489495646974	0	1	NaN	100	2	37	2	120	220	320	NaN	520	0.244725768454373	1	0	NaN	5176824.7769203	NaN	5176825.7602947	5176826.27683873
116	19	1	0	90	36.1581920903955	36.241610738255	7	0.233347071930766	2	2	6	NaN	1	4	0.245489495646974	0	1	NaN	101	2	38	2	120	220	320	NaN	520	0.277696868404746	1	1	NaN	5176827.3438284	NaN	5176828.3272175	5176828.84375343
116	19	1	0	90	36.1581920903955	36.241610738255	11	0.366688255891204	2	3	4	NaN	1	4	0.245489495646974	0	1	NaN	102	2	39	2	120	220	320	NaN	520	0.238015667535365	1	1	NaN	5176829.9273202	NaN	5176830.9108124	5176831.42733853
116	19	1	0	90	36.1581920903955	36.241610738255	12	0.400023551881313	2	12	6	NaN	2	4	0.245489495646974	0	1	NaN	103	2	40	2	120	220	320	NaN	520	0.213554720394313	1	0	NaN	5176832.9276772	NaN	5176833.9110987	5176834.42764248
116	19	1	0	90	36.1581920903955	36.241610738255	15	0.500029439851642	2	1	2	NaN	1	5	0.245489495646974	0	1	NaN	104	2	41	2	120	220	320	NaN	520	0.112190020270646	2	0	NaN	5176835.4612685	NaN	5176836.4446686	5176836.96121858
116	19	1	0	90	36.1581920903955	36.241610738255	13	0.433358847871423	2	8	4	NaN	2	3	0.245489495646974	0	1	NaN	105	2	42	2	120	220	320	NaN	520	0.119212814606726	1	0	NaN	5176837.878198	NaN	5176838.861584	5176839.37813138
116	19	1	0	90	36.1581920903955	36.241610738255	24	0.800047103762627	2	2	6	NaN	1	4	0.245489495646974	0	1	NaN	106	2	43	2	120	220	320	NaN	520	0.0104004200547934	1	1	NaN	5176840.3117676	NaN	5176841.2951464	5176841.81170678
116	19	1	0	90	36.1581920903955	36.241610738255	22	0.733376511782408	2	12	1	NaN	2	4	0.245489495646974	0	1	NaN	107	2	44	2	120	220	320	NaN	520	0.166780615225434	1	0	NaN	5176843.0787106	NaN	5176844.0620799	5176844.57864108
116	19	1	0	90	36.1581920903955	36.241610738255	25	0.833382399752736	2	12	2	NaN	2	5	0.245489495646974	0	1	NaN	108	2	45	2	120	220	320	NaN	520	0.0271652210503817	1	0	NaN	5176845.5622873	NaN	5176846.5457847	5176847.06222138
116	19	1	0	90	36.1581920903955	36.241610738255	15	0.500029439851642	2	10	1	NaN	2	4	0.245489495646974	0	1	NaN	109	2	46	2	120	220	320	NaN	520	0.173619216307998	1	0	NaN	5176848.295876	NaN	5176849.2792693	5176849.79581938
116	19	1	0	90	36.1581920903955	36.241610738255	11	0.366688255891204	2	8	5	NaN	2	3	0.245489495646974	0	1	NaN	110	2	47	2	120	220	320	NaN	520	0.249863266944885	2	1	NaN	5176850.7794661	NaN	5176851.7628391	5176852.27939073
116	19	1	0	90	36.1581920903955	36.241610738255	20	0.666705919802189	2	6	2	NaN	1	3	0.245489495646974	0	1	NaN	111	2	48	2	120	220	320	NaN	520	0.0104044210165739	2	0	NaN	5176853.3630549	NaN	5176854.3464293	5176854.86298998
116	19	1	0	90	36.1581920903955	36.241610738255	20	0.666705919802189	2	5	5	NaN	1	4	0.245489495646974	0	1	NaN	112	2	49	2	120	220	320	NaN	520	0.213618515990674	2	0	NaN	5176855.6799178	NaN	5176856.6633231	5176857.17987318
116	19	1	0	90	36.1581920903955	36.241610738255	16	0.533364735841751	2	2	1	NaN	1	3	0.245489495646974	0	1	NaN	113	2	50	2	120	220	320	NaN	520	0.0104327211156487	1	1	NaN	5176858.2135236	NaN	5176859.196913	5176859.71345728
116	19	1	0	90	36.1581920903955	36.241610738255	19	0.63337062381208	2	11	1	NaN	2	4	0.245489495646974	0	1	NaN	114	2	51	2	120	220	320	NaN	520	0.138649267144501	1	0	NaN	5176860.5470809	NaN	5176861.5305136	5176862.04702253
116	19	1	0	90	36.1581920903955	36.241610738255	11	0.366688255891204	2	9	3	NaN	2	4	0.245489495646974	0	1	NaN	115	2	52	2	120	220	320	NaN	520	0.010429915972054	1	0	NaN	5176862.9973192	NaN	5176863.9806994	5176864.49726598
116	19	1	0	90	36.1581920903955	36.241610738255	9	0.300017663910985	2	12	4	NaN	2	5	0.245489495646974	0	1	NaN	116	2	53	2	120	220	320	NaN	520	0.315304431132972	1	0	NaN	5176865.3141107	NaN	5176866.297628	5176866.81415467
116	19	1	0	90	36.1581920903955	36.241610738255	13	0.433358847871423	2	3	1	NaN	1	4	0.245489495646974	0	1	NaN	117	2	54	2	120	220	320	NaN	520	0.20982202142477	1	1	NaN	5176867.9478113	NaN	5176868.9312231	5176869.44775078
116	19	1	0	90	36.1581920903955	36.241610738255	17	0.566700031831861	2	9	3	NaN	2	4	0.245489495646974	0	1	NaN	118	2	55	2	120	220	320	NaN	520	0.116711567156017	2	1	NaN	5176870.4645845	NaN	5176871.4481131	5176871.96467263
116	19	1	0	90	36.1581920903955	36.241610738255	16	0.533364735841751	2	7	4	NaN	2	5	0.245489495646974	0	1	NaN	119	2	56	2	120	220	320	NaN	520	0.219102267175913	2	1	NaN	5176872.8981872	NaN	5176873.8816872	5176874.39823893
116	19	1	0	90	36.1581920903955	36.241610738255	17	0.566700031831861	2	3	5	NaN	1	3	0.245489495646974	0	1	NaN	120	2	57	2	120	220	320	NaN	520	0.214018567465246	2	0	NaN	5176875.4317613	NaN	5176876.4152677	5176876.93181893
116	19	1	0	90	36.1581920903955	36.241610738255	10	0.333352959901094	2	10	5	NaN	2	4	0.245489495646974	0	1	NaN	121	2	58	2	120	220	320	NaN	520	0.0146495206281543	1	0	NaN	5176878.1988777	NaN	5176879.1822127	5176879.69876238
116	19	1	0	90	36.1581920903955	36.241610738255	24	0.800047103762627	2	7	3	NaN	2	3	0.245489495646974	0	1	NaN	122	2	59	2	120	220	320	NaN	520	0.31568646710366	2	1	NaN	5176882.2658864	NaN	5176883.2492692	5176883.76581773
116	19	1	0	90	36.1581920903955	36.241610738255	19	0.63337062381208	2	9	3	NaN	2	3	0.245489495646974	0	1	NaN	123	2	60	2	120	220	320	NaN	520	1.07390182092786	1	0	NaN	5176884.8994667	NaN	5176885.8829284	5176886.39942018
116	19	1	0	90	36.1581920903955	36.241610738255	20	0.666705919802189	2	2	6	NaN	1	5	0.245489495646974	0	1	NaN	124	2	61	2	120	220	320	NaN	520	0.225395867601037	2	0	NaN	5176888.7164902	NaN	5176889.6999056	5176890.21646223
116	19	1	0	90	36.1581920903955	36.241610738255	6	0.200011775940657	2	3	6	NaN	1	4	0.245489495646974	0	1	NaN	125	2	62	2	120	220	320	NaN	520	0.0533953681588173	2	0	NaN	5176891.3997558	NaN	5176892.3835122	5176892.90005833
116	19	1	0	90	36.1581920903955	36.241610738255	13	0.433358847871423	2	12	6	NaN	2	5	0.245489495646974	0	1	NaN	126	2	63	2	120	220	320	NaN	520	0.0104051670059562	2	1	NaN	5176896.6172778	NaN	5176897.6006697	5176898.11723613
116	19	1	0	90	36.1581920903955	36.241610738255	8	0.266682367920876	2	1	3	NaN	1	3	0.245489495646974	0	1	NaN	127	3	1	2	120	220	320	NaN	520	0.0104117672890425	2	0	NaN	5176900.4175509	NaN	5176901.4011086	5176901.91760383
116	19	1	0	90	36.1581920903955	36.241610738255	8	0.266682367920876	2	5	1	NaN	1	5	0.245489495646974	0	1	NaN	128	3	2	2	120	220	320	NaN	520	1.63098816759884	2	0	NaN	5176902.7345003	NaN	5176903.7179589	5176904.23449573
116	19	1	0	90	36.1581920903955	36.241610738255	25	0.833382399752736	2	6	5	NaN	1	3	0.245489495646974	0	1	NaN	129	3	3	2	120	220	320	NaN	520	1.24999881535769	0	0	NaN	5176906.6682838	NaN	5176907.651672	5176908.16822408
116	19	1	0	90	36.1581920903955	36.241610738255	13	0.433358847871423	2	4	5	NaN	1	3	0.245489495646974	0	1	NaN	130	3	4	2	120	220	320	NaN	520	0.284892267547548	1	1	NaN	5176910.3686617	NaN	5176911.3520218	5176911.86859143
116	19	1	0	90	36.1581920903955	36.241610738255	0	0	1	10	2	NaN	2	5	0.245489495646974	0	1	NaN	131	3	5	2	110	210	310	NaN	510	0.335780367255211	1	0	NaN	5176913.30216	NaN	5176914.2856971	5176914.80220133
116	19	1	0	90	36.1581920903955	36.241610738255	12	0.400023551881313	2	4	4	NaN	1	4	0.245489495646974	0	1	NaN	132	3	6	2	120	220	320	NaN	520	0.205169420689344	2	0	NaN	5176915.9524304	NaN	5176916.9359202	5176917.45247168
116	19	1	0	90	36.1581920903955	36.241610738255	13	0.433358847871423	2	7	4	NaN	2	3	0.245489495646974	0	1	NaN	133	3	7	2	120	220	320	NaN	520	0.320180468261242	2	1	NaN	5176918.4694716	NaN	5176919.4528333	5176919.96937583
116	19	1	0	90	36.1581920903955	36.241610738255	17	0.566700031831861	2	6	5	NaN	1	3	0.245489495646974	0	1	NaN	134	3	8	2	120	220	320	NaN	520	0.270464920438826	1	1	NaN	5176921.1030798	NaN	5176922.086432	5176922.60297228
116	19	1	0	90	36.1581920903955	36.241610738255	12	0.400023551881313	2	12	1	NaN	2	5	0.245489495646974	0	1	NaN	135	3	9	2	120	220	320	NaN	520	0.263371967710555	2	1	NaN	5176923.6866075	NaN	5176924.6700187	5176925.18655473
116	19	1	0	90	36.1581920903955	36.241610738255	17	0.566700031831861	2	8	4	NaN	2	4	0.245489495646974	0	1	NaN	136	3	10	2	120	220	320	NaN	520	0.240110067650676	1	0	NaN	5176926.2535508	NaN	5176927.2369205	5176927.75347223
116	19	1	0	90	36.1581920903955	36.241610738255	20	0.666705919802189	2	1	1	NaN	1	4	0.245489495646974	0	1	NaN	137	3	11	2	120	220	320	NaN	520	0.202363120391965	2	0	NaN	5176929.1870207	NaN	5176930.1705474	5176930.68710828
116	19	1	0	90	36.1581920903955	36.241610738255	11	0.366688255891204	2	2	5	NaN	1	4	0.245489495646974	0	1	NaN	138	3	12	2	120	220	320	NaN	520	0.213895620778203	1	1	NaN	5176931.70399	NaN	5176932.6874766	5176933.20401838
116	19	1	0	90	36.1581920903955	36.241610738255	14	0.466694143861532	2	4	4	NaN	1	4	0.245489495646974	0	1	NaN	139	3	13	2	120	220	320	NaN	520	0.176076067611575	1	1	NaN	5176934.237657	NaN	5176935.2210887	5176935.73759083
116	19	1	0	90	36.1581920903955	36.241610738255	23	0.766711807772517	2	11	3	NaN	2	5	0.245489495646974	0	1	NaN	140	3	14	2	120	220	320	NaN	520	0.196334416046739	2	1	NaN	5176936.721208	NaN	5176937.7046315	5176938.22117528
116	19	1	0	90	36.1581920903955	36.241610738255	23	0.766711807772517	2	4	2	NaN	1	3	0.245489495646974	0	1	NaN	141	3	15	2	120	220	320	NaN	520	0.256082067266107	1	1	NaN	5176939.2214712	NaN	5176940.2048707	5176940.72141643
116	19	1	0	90	36.1581920903955	36.241610738255	24	0.800047103762627	2	12	3	NaN	2	3	0.245489495646974	0	1	NaN	142	3	16	2	120	220	320	NaN	520	0.113091062754393	2	1	NaN	5176941.7883853	NaN	5176942.7718013	5176943.28833664
116	19	1	0	90	36.1581920903955	36.241610738255	7	0.233347071930766	2	3	6	NaN	1	5	0.245489495646974	0	1	NaN	143	3	17	2	120	220	320	NaN	520	0.288027168251574	2	0	NaN	5176944.221977	NaN	5176945.2053608	5176945.72191413
116	19	1	0	90	36.1581920903955	36.241610738255	23	0.766711807772517	2	11	5	NaN	2	5	0.245489495646974	0	1	NaN	144	3	18	2	120	220	320	NaN	520	0.399790362454951	1	0	NaN	5176946.8222345	NaN	5176947.8056271	5176948.32216344
116	19	1	0	90	36.1581920903955	36.241610738255	13	0.433358847871423	2	5	1	NaN	1	3	0.245489495646974	0	1	NaN	145	3	19	2	120	220	320	NaN	520	0.290515067987144	2	0	NaN	5176949.5391462	NaN	5176950.5224386	5176951.03909453
116	19	1	0	90	36.1581920903955	36.241610738255	11	0.366688255891204	2	6	5	NaN	1	5	0.245489495646974	0	1	NaN	146	3	20	2	120	220	320	NaN	520	0.330250415951014	1	1	NaN	5176952.1393977	NaN	5176953.1228204	5176953.63935368
116	19	1	0	90	36.1581920903955	36.241610738255	9	0.300017663910985	2	5	3	NaN	1	5	0.245489495646974	0	1	NaN	147	3	21	2	120	220	320	NaN	520	0.191904067993164	2	0	NaN	5176954.7896631	NaN	5176955.7730853	5176956.28961083
116	19	1	0	90	36.1581920903955	36.241610738255	15	0.500029439851642	2	8	3	NaN	2	4	0.245489495646974	0	1	NaN	148	3	22	2	120	220	320	NaN	520	0.25210721604526	2	1	NaN	5176957.2899342	NaN	5176958.2733336	5176958.78986158
116	19	1	0	90	36.1581920903955	36.241610738255	8	0.266682367920876	2	2	2	NaN	1	5	0.245489495646974	0	1	NaN	149	3	23	2	120	220	320	NaN	520	0.0104005206376314	1	1	NaN	5176959.8568424	NaN	5176960.8402352	5176961.35678718
116	19	1	0	90	36.1581920903955	36.241610738255	12	0.400023551881313	2	7	1	NaN	2	5	0.245489495646974	0	1	NaN	150	3	24	2	120	220	320	NaN	520	0.232325072400272	2	1	NaN	5176962.1737443	NaN	5176963.1571173	5176963.67368103
116	19	1	0	90	36.1581920903955	36.241610738255	10	0.333352959901094	2	6	3	NaN	1	4	0.245489495646974	0	1	NaN	151	3	25	2	120	220	320	NaN	520	0.217705520801246	2	0	NaN	5176964.7239888	NaN	5176965.707367	5176966.22393258
116	19	1	0	90	36.1581920903955	36.241610738255	13	0.433358847871423	2	9	2	NaN	2	4	0.245489495646974	0	1	NaN	152	3	26	2	120	220	320	NaN	520	0.164048189297318	2	1	NaN	5176967.2575791	NaN	5176968.2409652	5176968.75750751
116	19	1	0	90	36.1581920903955	36.241610738255	21	0.700041215792298	2	4	3	NaN	1	4	0.245489495646974	0	1	NaN	153	3	27	2	120	220	320	NaN	520	0.201160867698491	2	0	NaN	5176969.7243396	NaN	5176970.7078665	5176971.22441283
116	19	1	0	90	36.1581920903955	36.241610738255	14	0.466694143861532	2	10	5	NaN	2	4	0.245489495646974	0	1	NaN	154	3	28	2	120	220	320	NaN	520	0.0443142205476761	2	1	NaN	5176972.2414151	NaN	5176973.2247976	5176973.74133518
116	19	1	0	90	36.1581920903955	36.241610738255	23	0.766711807772517	2	3	3	NaN	1	4	0.245489495646974	0	1	NaN	155	3	29	2	120	220	320	NaN	520	0.192824968136847	1	1	NaN	5176974.9250227	NaN	5176975.9083769	5176976.42492213
116	19	1	0	90	36.1581920903955	36.241610738255	23	0.766711807772517	2	12	5	NaN	2	5	0.245489495646974	0	1	NaN	156	3	30	2	120	220	320	NaN	520	0.172180468216538	1	0	NaN	5176977.4251157	NaN	5176978.4086318	5176978.92518003
116	19	1	0	90	36.1581920903955	36.241610738255	17	0.566700031831861	2	10	1	NaN	2	4	0.245489495646974	0	1	NaN	157	3	31	2	120	220	320	NaN	520	0.217225367203355	2	1	NaN	5176979.9088159	NaN	5176980.8922072	5176981.40874753
116	19	1	0	90	36.1581920903955	36.241610738255	7	0.233347071930766	2	11	5	NaN	2	3	0.245489495646974	0	1	NaN	158	3	32	2	120	220	320	NaN	520	0.0992038203403354	2	1	NaN	5176982.4422571	NaN	5176983.4257758	5176983.94235328
116	19	1	0	90	36.1581920903955	36.241610738255	8	0.266682367920876	2	12	4	NaN	2	3	0.245489495646974	0	1	NaN	159	3	33	2	120	220	320	NaN	520	0.314706668257713	2	1	NaN	5176984.8593021	NaN	5176985.8426911	5176986.35924133
116	19	1	0	90	36.1581920903955	36.241610738255	6	0.200011775940657	2	4	1	NaN	1	4	0.245489495646974	0	1	NaN	160	3	34	2	120	220	320	NaN	520	0.0894397152587771	1	1	NaN	5176987.4762246	NaN	5176988.4596199	5176988.97616288
116	19	1	0	90	36.1581920903955	36.241610738255	23	0.766711807772517	2	5	6	NaN	1	4	0.245489495646974	0	1	NaN	161	3	35	2	120	220	320	NaN	520	0.289651315659285	1	1	NaN	5176989.8764873	NaN	5176990.8598524	5176991.37639198
116	19	1	0	90	36.1581920903955	36.241610738255	25	0.833382399752736	2	1	3	NaN	1	5	0.245489495646974	0	1	NaN	162	3	36	2	120	220	320	NaN	520	0.104922315105796	2	0	NaN	5176992.4766952	NaN	5176993.4600892	5176993.97665928
116	19	1	0	90	36.1581920903955	36.241610738255	12	0.400023551881313	2	8	4	NaN	2	5	0.245489495646974	0	1	NaN	163	3	37	2	120	220	320	NaN	520	0.144460521638393	2	1	NaN	5176994.8935996	NaN	5176995.8770089	5176996.39356118
116	19	1	0	90	36.1581920903955	36.241610738255	0	0	1	1	1	NaN	1	3	0.245489495646974	0	1	NaN	164	3	38	2	110	210	310	NaN	510	0.109836615622044	2	0	NaN	5176997.343875	NaN	5176998.3272806	5176998.84379338
116	19	1	0	90	36.1581920903955	36.241610738255	9	0.300017663910985	2	12	1	NaN	2	3	0.245489495646974	0	1	NaN	165	3	39	2	120	220	320	NaN	520	0.196249867789447	1	0	NaN	5176999.7774334	NaN	5177000.7607217	5177001.27740013
116	19	1	0	90	36.1581920903955	36.241610738255	23	0.766711807772517	2	1	5	NaN	1	3	0.245489495646974	0	1	NaN	166	3	40	2	120	220	320	NaN	520	0.0473351208493114	1	1	NaN	5177002.2943612	NaN	5177003.2777469	5177003.79429288
116	19	1	0	90	36.1581920903955	36.241610738255	25	0.833382399752736	2	2	3	NaN	1	5	0.245489495646974	0	1	NaN	167	3	41	2	120	220	320	NaN	520	0.145208667032421	1	1	NaN	5177004.6445761	NaN	5177005.6279653	5177006.14451693
116	19	1	0	90	36.1581920903955	36.241610738255	17	0.566700031831861	2	6	6	NaN	1	3	0.245489495646974	0	1	NaN	168	3	42	2	120	220	320	NaN	520	0.0104338154196739	1	1	NaN	5177007.0948193	NaN	5177008.0782298	5177008.59475638
116	19	1	0	90	36.1581920903955	36.241610738255	8	0.266682367920876	2	11	6	NaN	2	5	0.245489495646974	0	1	NaN	169	3	43	2	120	220	320	NaN	520	0.210028120316565	1	0	NaN	5177009.411693	NaN	5177010.3951175	5177010.91165538
116	19	1	0	90	36.1581920903955	36.241610738255	18	0.60003532782197	2	2	4	NaN	1	5	0.245489495646974	0	1	NaN	170	3	44	2	120	220	320	NaN	520	0.197201078757644	1	1	NaN	5177011.9284969	NaN	5177012.9120203	5177013.42856452
116	19	1	0	90	36.1581920903955	36.241610738255	12	0.400023551881313	2	1	1	NaN	1	5	0.245489495646974	0	1	NaN	171	3	45	2	120	220	320	NaN	520	0.104181667789817	2	0	NaN	5177014.4455213	NaN	5177015.4289353	5177015.94547493
116	19	1	0	90	36.1581920903955	36.241610738255	22	0.733376511782408	2	11	4	NaN	2	5	0.245489495646974	0	1	NaN	172	3	46	2	120	220	320	NaN	520	1.13450462091714	2	1	NaN	5177017.2791363	NaN	5177018.2625673	5177018.77909148
116	19	1	0	90	36.1581920903955	36.241610738255	14	0.466694143861532	2	2	4	NaN	1	5	0.245489495646974	0	1	NaN	173	3	47	2	120	220	320	NaN	520	0.324267067946494	2	0	NaN	5177020.7294717	NaN	5177021.7128799	5177022.22942683
116	19	1	0	90	36.1581920903955	36.241610738255	19	0.63337062381208	2	8	2	NaN	2	5	0.245489495646974	0	1	NaN	174	3	48	2	120	220	320	NaN	520	0.346667220816016	2	1	NaN	5177023.3630793	NaN	5177024.3464802	5177024.86302998
116	19	1	0	90	36.1581920903955	36.241610738255	16	0.533364735841751	2	12	3	NaN	2	4	0.245489495646974	0	1	NaN	175	3	49	2	120	220	320	NaN	520	0.287663537077606	2	1	NaN	5177026.0300046	NaN	5177027.0134035	5177027.52995716
116	19	1	0	90	36.1581920903955	36.241610738255	22	0.733376511782408	2	7	4	NaN	2	4	0.245489495646974	0	1	NaN	176	3	50	2	120	220	320	NaN	520	0.175868066959083	1	0	NaN	5177028.6302545	NaN	5177029.6136384	5177030.13020333
116	19	1	0	90	36.1581920903955	36.241610738255	23	0.766711807772517	2	6	5	NaN	1	3	0.245489495646974	0	1	NaN	177	3	51	2	120	220	320	NaN	520	0.11587836779654	1	1	NaN	5177031.1138454	NaN	5177032.0972342	5177032.61378403
116	19	1	0	90	36.1581920903955	36.241610738255	19	0.63337062381208	2	11	2	NaN	2	4	0.245489495646974	0	1	NaN	178	3	52	2	120	220	320	NaN	520	0.162921067327261	2	1	NaN	5177033.5474186	NaN	5177034.5308192	5177035.04736143
116	19	1	0	90	36.1581920903955	36.241610738255	7	0.233347071930766	2	7	2	NaN	2	3	0.245489495646974	0	1	NaN	179	3	53	2	120	220	320	NaN	520	0.0104108676314354	2	1	NaN	5177036.0309056	NaN	5177037.0143588	5177037.53092813
116	19	1	0	90	36.1581920903955	36.241610738255	18	0.60003532782197	2	6	1	NaN	1	3	0.245489495646974	0	1	NaN	180	3	54	2	120	220	320	NaN	520	0.153869167901576	2	0	NaN	5177038.3478743	NaN	5177039.3312891	5177039.84783243
116	19	1	0	90	36.1581920903955	36.241610738255	25	0.833382399752736	2	4	2	NaN	1	4	0.245489495646974	0	1	NaN	181	3	55	2	120	220	320	NaN	520	0.279202367179096	2	0	NaN	5177040.8148018	NaN	5177041.7982445	5177042.31473773
116	19	1	0	90	36.1581920903955	36.241610738255	25	0.833382399752736	2	8	2	NaN	2	3	0.245489495646974	0	1	NaN	182	3	56	2	120	220	320	NaN	520	0.0947279203683138	2	1	NaN	5177043.4150316	NaN	5177044.3984328	5177044.91499168
116	19	1	0	90	36.1581920903955	36.241610738255	15	0.500029439851642	2	8	5	NaN	2	4	0.245489495646974	0	1	NaN	183	3	57	2	120	220	320	NaN	520	0.010412166826427	2	1	NaN	5177045.8319508	NaN	5177046.815326	5177047.33189453
116	19	1	0	90	36.1581920903955	36.241610738255	10	0.333352959901094	2	3	4	NaN	1	3	0.245489495646974	0	1	NaN	184	3	58	2	120	220	320	NaN	520	0.240906220860779	2	0	NaN	5177048.1488721	NaN	5177049.1322811	5177049.64879988
116	19	1	0	90	36.1581920903955	36.241610738255	20	0.666705919802189	2	9	6	NaN	2	3	0.245489495646974	0	1	NaN	185	3	59	2	120	220	320	NaN	520	0.0104128681123257	2	1	NaN	5177050.6991005	NaN	5177051.682492	5177052.19903593
116	19	1	0	90	36.1581920903955	36.241610738255	12	0.400023551881313	2	7	6	NaN	2	3	0.245489495646974	0	1	NaN	186	3	60	2	120	220	320	NaN	520	0.142111015506089	1	0	NaN	5177053.0158664	NaN	5177053.9993721	5177054.51592938
116	19	1	0	90	36.1581920903955	36.241610738255	15	0.500029439851642	2	6	2	NaN	1	3	0.245489495646974	0	1	NaN	187	3	61	2	120	220	320	NaN	520	0.163876015692949	1	1	NaN	5177055.4661777	NaN	5177056.4496342	5177056.96617948
116	19	1	0	90	36.1581920903955	36.241610738255	21	0.700041215792298	2	9	5	NaN	2	4	0.245489495646974	0	1	NaN	188	3	62	2	120	220	320	NaN	520	1.16035131551325	1	0	NaN	5177057.9498105	NaN	5177058.9332179	5177059.44974998
116	19	1	0	90	36.1581920903955	36.241610738255	24	0.800047103762627	2	6	3	NaN	1	5	0.245489495646974	0	1	NaN	189	3	63	2	120	220	320	NaN	520	1.33340792078525	2	0	NaN	5177061.4168271	NaN	5177062.4002159	5177062.91676578
116	19	1	0	90	36.1581920903955	36.241610738255	16	0.533364735841751	2	5	3	NaN	1	4	0.245489495646974	0	1	NaN	190	4	1	2	120	220	320	NaN	520	0.109246720559895	2	0	NaN	5177073.184611	NaN	5177074.1680391	5177074.68459288
116	19	1	0	90	36.1581920903955	36.241610738255	23	0.766711807772517	2	5	2	NaN	1	4	0.245489495646974	0	1	NaN	191	4	2	2	120	220	320	NaN	520	0.244656515307724	1	1	NaN	5177075.6015424	NaN	5177076.5849363	5177077.10148378
116	19	1	0	90	36.1581920903955	36.241610738255	6	0.200011775940657	2	2	6	NaN	1	5	0.245489495646974	0	1	NaN	192	4	3	2	120	220	320	NaN	520	0.141412862576544	2	0	NaN	5177078.1684741	NaN	5177079.1518638	5177079.66840764
116	19	1	0	90	36.1581920903955	36.241610738255	7	0.233347071930766	2	1	5	NaN	1	4	0.245489495646974	0	1	NaN	193	4	4	2	120	220	320	NaN	520	0.23841761611402	1	1	NaN	5177080.7353567	NaN	5177081.7187829	5177082.23533008
116	19	1	0	90	36.1581920903955	36.241610738255	10	0.333352959901094	2	10	5	NaN	2	4	0.245489495646974	0	1	NaN	194	4	5	2	120	220	320	NaN	520	0.112253068014979	1	0	NaN	5177083.2856466	NaN	5177084.2690271	5177084.78557903
116	19	1	0	90	36.1581920903955	36.241610738255	0	0	1	8	2	NaN	2	4	0.245489495646974	0	1	NaN	195	4	6	2	110	210	310	NaN	510	0.0325088202953339	2	1	NaN	5177086.0692147	NaN	5177087.0526453	5177087.56918788
116	19	1	0	90	36.1581920903955	36.241610738255	7	0.233347071930766	2	9	6	NaN	2	3	0.245489495646974	0	1	NaN	196	4	7	2	120	220	320	NaN	520	0.143201667815447	2	1	NaN	5177088.7028113	NaN	5177089.6862077	5177090.20277993
116	19	1	0	90	36.1581920903955	36.241610738255	6	0.200011775940657	2	12	1	NaN	2	4	0.245489495646974	0	1	NaN	197	4	8	2	120	220	320	NaN	520	0.212097895331681	2	1	NaN	5177091.1697519	NaN	5177092.1531534	5177092.66969921
116	19	1	0	90	36.1581920903955	36.241610738255	15	0.500029439851642	2	2	1	NaN	1	4	0.245489495646974	0	1	NaN	198	4	9	2	120	220	320	NaN	520	0.0945657677948475	2	0	NaN	5177093.7033138	NaN	5177094.6867189	5177095.20326613
116	19	1	0	90	36.1581920903955	36.241610738255	19	0.63337062381208	2	5	5	NaN	1	5	0.245489495646974	0	1	NaN	199	4	10	2	120	220	320	NaN	520	0.0536507209762931	1	1	NaN	5177096.1202371	NaN	5177097.1036407	5177097.62017708
116	19	1	0	90	36.1581920903955	36.241610738255	20	0.666705919802189	2	5	2	NaN	1	3	0.245489495646974	0	1	NaN	200	4	11	2	120	220	320	NaN	520	0.230731242336333	1	1	NaN	5177098.4871675	NaN	5177099.4705584	5177099.98707846
116	19	1	0	90	36.1581920903955	36.241610738255	21	0.700041215792298	2	4	1	NaN	1	4	0.245489495646974	0	1	NaN	201	4	12	2	120	220	320	NaN	520	0.265210268087685	1	1	NaN	5177101.0207217	NaN	5177102.0041041	5177102.52066073
116	19	1	0	90	36.1581920903955	36.241610738255	14	0.466694143861532	2	4	5	NaN	1	4	0.245489495646974	0	1	NaN	202	4	13	2	120	220	320	NaN	520	0.232819867320359	1	1	NaN	5177104.2210024	NaN	5177105.2044145	5177105.72096483
116	19	1	0	90	36.1581920903955	36.241610738255	22	0.733376511782408	2	7	1	NaN	2	3	0.245489495646974	0	1	NaN	203	4	14	2	120	220	320	NaN	520	0.22652521636337	1	0	NaN	5177106.7713659	NaN	5177107.7546762	5177108.27122468
116	19	1	0	90	36.1581920903955	36.241610738255	24	0.800047103762627	2	4	6	NaN	1	4	0.245489495646974	0	1	NaN	204	4	15	2	120	220	320	NaN	520	0.196282420307398	1	1	NaN	5177109.3215348	NaN	5177110.3049401	5177110.82147528
116	19	1	0	90	36.1581920903955	36.241610738255	11	0.366688255891204	2	7	5	NaN	2	5	0.245489495646974	0	1	NaN	205	4	16	2	120	220	320	NaN	520	0.485016377642751	2	1	NaN	5177112.1051016	NaN	5177113.0885308	5177113.60507472
116	19	1	0	90	36.1581920903955	36.241610738255	14	0.466694143861532	2	3	2	NaN	1	3	0.245489495646974	0	1	NaN	206	4	17	2	120	220	320	NaN	520	0.228867821395397	1	1	NaN	5177114.9054159	NaN	5177115.8888119	5177116.40535808
116	19	1	0	90	36.1581920903955	36.241610738255	19	0.63337062381208	2	7	2	NaN	2	5	0.245489495646974	0	1	NaN	207	4	18	2	120	220	320	NaN	520	1.06218652054667	1	0	NaN	5177117.4556448	NaN	5177118.4390607	5177118.95560398
116	19	1	0	90	36.1581920903955	36.241610738255	18	0.60003532782197	2	9	1	NaN	2	4	0.245489495646974	0	1	NaN	208	4	19	2	120	220	320	NaN	520	0.286592267453671	1	0	NaN	5177120.839325	NaN	5177121.8227212	5177122.33926403
116	19	1	0	90	36.1581920903955	36.241610738255	10	0.333352959901094	2	1	5	NaN	1	3	0.245489495646974	0	1	NaN	209	4	20	2	120	220	320	NaN	520	0.188612720929086	1	1	NaN	5177123.4895159	NaN	5177124.4729819	5177124.98952798
116	19	1	0	90	36.1581920903955	36.241610738255	9	0.300017663910985	2	3	3	NaN	1	4	0.245489495646974	0	1	NaN	210	4	21	2	120	220	320	NaN	520	0.357933920808136	1	1	NaN	5177126.4398467	NaN	5177127.4232655	5177127.93982788
116	19	1	0	90	36.1581920903955	36.241610738255	12	0.400023551881313	2	6	4	NaN	1	4	0.245489495646974	0	1	NaN	211	4	22	2	120	220	320	NaN	520	0.299064320512116	2	0	NaN	5177129.1068414	NaN	5177130.0902082	5177130.60675168
116	19	1	0	90	36.1581920903955	36.241610738255	8	0.266682367920876	2	2	3	NaN	1	3	0.245489495646974	0	1	NaN	212	4	23	2	120	220	320	NaN	520	0.522099967114627	2	0	NaN	5177131.7237342	NaN	5177132.7071144	5177133.22367173
116	19	1	0	90	36.1581920903955	36.241610738255	10	0.333352959901094	2	7	2	NaN	2	4	0.245489495646974	0	1	NaN	213	4	24	2	120	220	320	NaN	520	0.22444212064147	2	1	NaN	5177134.5572055	NaN	5177135.5407383	5177136.05728718
116	19	1	0	90	36.1581920903955	36.241610738255	23	0.766711807772517	2	9	1	NaN	2	5	0.245489495646974	0	1	NaN	214	4	25	2	120	220	320	NaN	520	0.206718420609832	1	0	NaN	5177137.5909768	NaN	5177138.5743632	5177139.09092218
116	19	1	0	90	36.1581920903955	36.241610738255	16	0.533364735841751	2	1	4	NaN	1	3	0.245489495646974	0	1	NaN	215	4	26	2	120	220	320	NaN	520	0.214662815444171	2	0	NaN	5177140.1911965	NaN	5177141.1746321	5177141.69116578
116	19	1	0	90	36.1581920903955	36.241610738255	9	0.300017663910985	2	7	6	NaN	2	3	0.245489495646974	0	1	NaN	216	4	27	2	120	220	320	NaN	520	0.255607567727566	1	0	NaN	5177142.7581554	NaN	5177143.7415434	5177144.25808393
116	19	1	0	90	36.1581920903955	36.241610738255	19	0.63337062381208	2	1	5	NaN	1	5	0.245489495646974	0	1	NaN	217	4	28	2	120	220	320	NaN	520	0.218147221021354	1	1	NaN	5177145.4916169	NaN	5177146.4751273	5177146.99169888
116	19	1	0	90	36.1581920903955	36.241610738255	17	0.566700031831861	2	4	4	NaN	1	5	0.245489495646974	0	1	NaN	218	4	29	2	120	220	320	NaN	520	0.315472020767629	2	0	NaN	5177148.4586866	NaN	5177149.4420997	5177149.95865748
116	19	1	0	90	36.1581920903955	36.241610738255	7	0.233347071930766	2	3	1	NaN	1	4	0.245489495646974	0	1	NaN	219	4	30	2	120	220	320	NaN	520	0.146143167279661	2	0	NaN	5177151.075496	NaN	5177152.0590345	5177152.57558063
116	19	1	0	90	36.1581920903955	36.241610738255	16	0.533364735841751	2	3	6	NaN	1	3	0.245489495646974	0	1	NaN	220	4	31	2	120	220	320	NaN	520	0.181667767465115	2	0	NaN	5177153.9925588	NaN	5177154.9759641	5177155.49252273
116	19	1	0	90	36.1581920903955	36.241610738255	19	0.63337062381208	2	12	3	NaN	2	3	0.245489495646974	0	1	NaN	221	4	32	2	120	220	320	NaN	520	0.273795167915523	2	1	NaN	5177156.476196	NaN	5177157.4595501	5177157.97611133
116	19	1	0	90	36.1581920903955	36.241610738255	21	0.700041215792298	2	6	3	NaN	1	3	0.245489495646974	0	1	NaN	222	4	33	2	120	220	320	NaN	520	0.210167921148241	2	0	NaN	5177159.0597478	NaN	5177160.0431455	5177160.55969988
116	19	1	0	90	36.1581920903955	36.241610738255	0	0	1	3	4	NaN	1	5	0.245489495646974	0	1	NaN	223	4	34	2	110	210	310	NaN	510	0.0450389673933387	1	1	NaN	5177161.5766454	NaN	5177162.5600355	5177163.07660033
116	19	1	0	90	36.1581920903955	36.241610738255	19	0.63337062381208	2	4	1	NaN	1	5	0.245489495646974	0	1	NaN	224	4	35	2	120	220	320	NaN	520	0.0104102678596973	1	1	NaN	5177163.9268332	NaN	5177164.9102893	5177165.42683283
116	19	1	0	90	36.1581920903955	36.241610738255	9	0.300017663910985	2	10	5	NaN	2	5	0.245489495646974	0	1	NaN	225	4	36	2	120	220	320	NaN	520	0.010411866940558	1	0	NaN	5177166.7604543	NaN	5177167.7439432	5177168.26045453
116	19	1	0	90	36.1581920903955	36.241610738255	16	0.533364735841751	2	7	3	NaN	2	4	0.245489495646974	0	1	NaN	226	4	37	2	120	220	320	NaN	520	0.0246728202328086	2	1	NaN	5177169.0772665	NaN	5177170.0607676	5177170.57735048
116	19	1	0	90	36.1581920903955	36.241610738255	15	0.500029439851642	2	5	3	NaN	1	4	0.245489495646974	0	1	NaN	227	4	38	2	120	220	320	NaN	520	0.396277267485857	1	1	NaN	5177171.9775667	NaN	5177172.9610771	5177173.47763193
116	19	1	0	90	36.1581920903955	36.241610738255	21	0.700041215792298	2	11	1	NaN	2	5	0.245489495646974	0	1	NaN	228	4	39	2	120	220	320	NaN	520	0.0316370204091072	2	1	NaN	5177177.2781417	NaN	5177178.2616028	5177178.77815498
116	19	1	0	90	36.1581920903955	36.241610738255	11	0.366688255891204	2	5	5	NaN	1	5	0.245489495646974	0	1	NaN	229	4	40	2	120	220	320	NaN	520	0.217902267351747	2	0	NaN	5177179.6284702	NaN	5177180.6118567	5177181.12838673
116	19	1	0	90	36.1581920903955	36.241610738255	22	0.733376511782408	2	1	3	NaN	1	5	0.245489495646974	0	1	NaN	230	4	41	2	120	220	320	NaN	520	0.162798067554832	2	0	NaN	5177182.7953814	NaN	5177183.7788251	5177184.29535213
116	19	1	0	90	36.1581920903955	36.241610738255	16	0.533364735841751	2	8	3	NaN	2	4	0.245489495646974	0	1	NaN	231	4	42	2	120	220	320	NaN	520	0.157612120732665	2	1	NaN	5177185.7123578	NaN	5177186.6957597	5177187.21231418
116	19	1	0	90	36.1581920903955	36.241610738255	16	0.533364735841751	2	9	2	NaN	2	5	0.245489495646974	0	1	NaN	232	4	43	2	120	220	320	NaN	520	0.170997621491551	1	0	NaN	5177188.9626668	NaN	5177189.946069	5177190.46263658
116	19	1	0	90	36.1581920903955	36.241610738255	20	0.666705919802189	2	7	3	NaN	2	5	0.245489495646974	0	1	NaN	233	4	44	2	120	220	320	NaN	520	0.127651620656252	2	1	NaN	5177191.4462749	NaN	5177192.4296648	5177192.94621318
116	19	1	0	90	36.1581920903955	36.241610738255	11	0.366688255891204	2	5	6	NaN	1	3	0.245489495646974	0	1	NaN	234	4	45	2	120	220	320	NaN	520	0.0934382677078247	1	1	NaN	5177193.8963912	NaN	5177194.879904	5177195.39644653
116	19	1	0	90	36.1581920903955	36.241610738255	15	0.500029439851642	2	12	3	NaN	2	3	0.245489495646974	0	1	NaN	235	4	46	2	120	220	320	NaN	520	0.410339272581041	2	1	NaN	5177196.7634274	NaN	5177197.7468872	5177198.26340273
116	19	1	0	90	36.1581920903955	36.241610738255	22	0.733376511782408	2	9	5	NaN	2	5	0.245489495646974	0	1	NaN	236	4	47	2	120	220	320	NaN	520	0.141972320154309	1	0	NaN	5177199.4803294	NaN	5177200.4637809	5177200.98033688
116	19	1	0	90	36.1581920903955	36.241610738255	6	0.200011775940657	2	7	5	NaN	2	5	0.245489495646974	0	1	NaN	237	4	48	2	120	220	320	NaN	520	0.210697820410132	2	1	NaN	5177202.3473095	NaN	5177203.3307223	5177203.84728298
116	19	1	0	90	36.1581920903955	36.241610738255	9	0.300017663910985	2	2	4	NaN	1	5	0.245489495646974	0	1	NaN	238	4	49	2	120	220	320	NaN	520	0.317703467793763	2	0	NaN	5177204.8642578	NaN	5177205.847645	5177206.36418853
116	19	1	0	90	36.1581920903955	36.241610738255	8	0.266682367920876	2	7	6	NaN	2	3	0.245489495646974	0	1	NaN	239	4	50	2	120	220	320	NaN	520	0.18809711560607	2	1	NaN	5177207.4978564	NaN	5177208.4812404	5177208.99778128
116	19	1	0	90	36.1581920903955	36.241610738255	14	0.466694143861532	2	8	3	NaN	2	3	0.245489495646974	0	1	NaN	240	4	51	2	120	220	320	NaN	520	0.231924966908991	2	1	NaN	5177209.9980815	NaN	5177210.9814899	5177211.49802553
116	19	1	0	90	36.1581920903955	36.241610738255	22	0.733376511782408	2	6	1	NaN	1	4	0.245489495646974	0	1	NaN	241	4	52	2	120	220	320	NaN	520	0.129529467783868	1	1	NaN	5177212.5483542	NaN	5177213.5317839	5177214.04828603
116	19	1	0	90	36.1581920903955	36.241610738255	20	0.666705919802189	2	11	6	NaN	2	3	0.245489495646974	0	1	NaN	242	4	53	2	120	220	320	NaN	520	0.223371867090464	1	0	NaN	5177214.9986252	NaN	5177215.9819759	5177216.49852163
116	19	1	0	90	36.1581920903955	36.241610738255	24	0.800047103762627	2	10	5	NaN	2	4	0.245489495646974	0	1	NaN	243	4	54	2	120	220	320	NaN	520	0.0104183154180646	1	0	NaN	5177217.5320259	NaN	5177218.5155575	5177219.03210248
116	19	1	0	90	36.1581920903955	36.241610738255	24	0.800047103762627	2	7	2	NaN	2	5	0.245489495646974	0	1	NaN	244	4	55	2	120	220	320	NaN	520	0.24464416783303	1	0	NaN	5177219.8656308	NaN	5177220.8491124	5177221.36566153
116	19	1	0	90	36.1581920903955	36.241610738255	18	0.60003532782197	2	3	4	NaN	1	3	0.245489495646974	0	1	NaN	245	4	56	2	120	220	320	NaN	520	0.366225320845842	2	0	NaN	5177222.4160185	NaN	5177223.3994295	5177223.91592588
116	19	1	0	90	36.1581920903955	36.241610738255	8	0.266682367920876	2	4	2	NaN	1	4	0.245489495646974	0	1	NaN	246	4	57	2	120	220	320	NaN	520	0.199872767552733	2	0	NaN	5177225.1662224	NaN	5177226.1496372	5177226.66618293
116	19	1	0	90	36.1581920903955	36.241610738255	25	0.833382399752736	2	5	1	NaN	1	5	0.245489495646974	0	1	NaN	247	4	58	2	120	220	320	NaN	520	0.199370821006596	2	0	NaN	5177228.1664855	NaN	5177229.1499356	5177229.66648518
116	19	1	0	90	36.1581920903955	36.241610738255	21	0.700041215792298	2	7	3	NaN	2	4	0.245489495646974	0	1	NaN	248	4	59	2	120	220	320	NaN	520	0.0103811733424664	2	1	NaN	5177231.1834754	NaN	5177232.1669387	5177232.68345443
116	19	1	0	90	36.1581920903955	36.241610738255	25	0.833382399752736	2	12	6	NaN	2	5	0.245489495646974	0	1	NaN	249	4	60	2	120	220	320	NaN	520	0.215691767632961	1	0	NaN	5177233.5504215	NaN	5177234.533798	5177235.05035103
116	19	1	0	90	36.1581920903955	36.241610738255	0	0	1	9	3	NaN	2	3	0.245489495646974	0	1	NaN	250	4	61	2	110	210	310	NaN	510	0.249788421206176	1	0	NaN	5177236.0839693	NaN	5177237.0673808	5177237.58392978
116	19	1	0	90	36.1581920903955	36.241610738255	21	0.700041215792298	2	12	6	NaN	2	4	0.245489495646974	0	1	NaN	251	4	62	2	120	220	320	NaN	520	0.267417420633137	2	1	NaN	5177238.6509287	NaN	5177239.6343171	5177240.15085138
116	19	1	0	90	36.1581920903955	36.241610738255	6	0.200011775940657	2	11	6	NaN	2	5	0.245489495646974	0	1	NaN	252	4	63	2	120	220	320	NaN	520	0.243926667608321	2	1	NaN	5177241.2344995	NaN	5177242.2178895	5177242.73442933
116	19	1	0	90	36.1581920903955	36.241610738255	25	0.833382399752736	2	10	5	NaN	2	4	0.245489495646974	0	1	NaN	253	5	1	2	120	220	320	NaN	520	0.638781420886517	2	1	NaN	5177245.7516132	NaN	5177246.7350287	5177247.25154688
116	19	1	0	90	36.1581920903955	36.241610738255	7	0.233347071930766	2	6	1	NaN	1	4	0.245489495646974	0	1	NaN	254	5	2	2	120	220	320	NaN	520	0.0374072156846523	2	0	NaN	5177248.7685353	NaN	5177249.7519671	5177250.26850138
116	19	1	0	90	36.1581920903955	36.241610738255	0	0	1	3	4	NaN	1	4	0.245489495646974	0	1	NaN	255	5	3	2	110	210	310	NaN	510	0.0104121677577496	1	1	NaN	5177252.3855495	NaN	5177253.3689803	5177253.88552403
116	19	1	0	90	36.1581920903955	36.241610738255	8	0.266682367920876	2	8	6	NaN	2	5	0.245489495646974	0	1	NaN	256	5	4	2	120	220	320	NaN	520	0.258361120708287	1	0	NaN	5177257.8361403	NaN	5177258.8195384	5177259.33607298
116	19	1	0	90	36.1581920903955	36.241610738255	9	0.300017663910985	2	7	1	NaN	2	3	0.245489495646974	0	1	NaN	257	5	5	2	120	220	320	NaN	520	0.309260020963848	1	0	NaN	5177260.7530438	NaN	5177261.7364747	5177262.25304108
116	19	1	0	90	36.1581920903955	36.241610738255	23	0.766711807772517	2	10	4	NaN	2	3	0.245489495646974	0	1	NaN	258	5	6	2	120	220	320	NaN	520	0.338647567667067	2	1	NaN	5177263.8033402	NaN	5177264.7868068	5177265.30332273
116	19	1	0	90	36.1581920903955	36.241610738255	11	0.366688255891204	2	1	3	NaN	1	5	0.245489495646974	0	1	NaN	259	5	7	2	120	220	320	NaN	520	0.256276620551944	2	0	NaN	5177266.4535071	NaN	5177267.4370664	5177267.95358738
116	19	1	0	90	36.1581920903955	36.241610738255	24	0.800047103762627	2	12	5	NaN	2	4	0.245489495646974	0	1	NaN	260	5	8	2	120	220	320	NaN	520	0.185798821039498	2	1	NaN	5177269.4205637	NaN	5177270.4039953	5177270.92054148
116	19	1	0	90	36.1581920903955	36.241610738255	14	0.466694143861532	2	2	3	NaN	1	3	0.245489495646974	0	1	NaN	261	5	9	2	120	220	320	NaN	520	0.349321067333221	2	0	NaN	5177272.1209017	NaN	5177273.1042553	5177273.62080633
116	19	1	0	90	36.1581920903955	36.241610738255	22	0.733376511782408	2	5	4	NaN	1	3	0.245489495646974	0	1	NaN	262	5	10	2	120	220	320	NaN	520	0.252469567582011	2	0	NaN	5177279.1214197	NaN	5177280.1049543	5177280.62149553
116	19	1	0	90	36.1581920903955	36.241610738255	21	0.700041215792298	2	6	4	NaN	1	4	0.245489495646974	0	1	NaN	263	5	11	2	120	220	320	NaN	520	0.157630620524287	2	0	NaN	5177281.6885311	NaN	5177282.6718637	5177283.18841828
116	19	1	0	90	36.1581920903955	36.241610738255	20	0.666705919802189	2	8	3	NaN	2	3	0.245489495646974	0	1	NaN	264	5	12	2	120	220	320	NaN	520	0.211623220704496	2	1	NaN	5177284.5387226	NaN	5177285.5221819	5177286.03869688
116	19	1	0	90	36.1581920903955	36.241610738255	7	0.233347071930766	2	12	2	NaN	2	4	0.245489495646974	0	1	NaN	265	5	13	2	120	220	320	NaN	520	0.0103017371147871	2	1	NaN	5177289.239189	NaN	5177290.2226087	5177290.73916156
116	19	1	0	90	36.1581920903955	36.241610738255	19	0.63337062381208	2	3	6	NaN	1	3	0.245489495646974	0	1	NaN	266	5	14	2	120	220	320	NaN	520	0.195654167793691	2	0	NaN	5177293.506156	NaN	5177294.4897059	5177295.00623243
116	19	1	0	90	36.1581920903955	36.241610738255	25	0.833382399752736	2	8	1	NaN	2	4	0.245489495646974	0	1	NaN	267	5	15	2	120	220	320	NaN	520	0.0104118678718805	2	1	NaN	5177296.356463	NaN	5177297.3399028	5177297.85651423
116	19	1	0	90	36.1581920903955	36.241610738255	18	0.60003532782197	2	2	6	NaN	1	4	0.245489495646974	0	1	NaN	268	5	16	2	120	220	320	NaN	520	0.0485026212409139	1	1	NaN	5177300.9735562	NaN	5177301.9570728	5177302.47364538
116	19	1	0	90	36.1581920903955	36.241610738255	21	0.700041215792298	2	3	1	NaN	1	5	0.245489495646974	0	1	NaN	269	5	17	2	120	220	320	NaN	520	0.153588220477104	1	1	NaN	5177303.3405806	NaN	5177304.3239939	5177304.84055298
116	19	1	0	90	36.1581920903955	36.241610738255	14	0.466694143861532	2	9	3	NaN	2	4	0.245489495646974	0	1	NaN	270	5	18	2	120	220	320	NaN	520	0.230711715295911	1	0	NaN	5177305.8075179	NaN	5177306.7909085	5177307.30745228
116	19	1	0	90	36.1581920903955	36.241610738255	23	0.766711807772517	2	2	5	NaN	1	5	0.245489495646974	0	1	NaN	271	5	19	2	120	220	320	NaN	520	0.18511467333883	1	1	NaN	5177308.3411081	NaN	5177309.3244849	5177309.84103913
116	19	1	0	90	36.1581920903955	36.241610738255	21	0.700041215792298	2	2	4	NaN	1	4	0.245489495646974	0	1	NaN	272	5	20	2	120	220	320	NaN	520	0.356680767610669	1	1	NaN	5177310.8413524	NaN	5177311.8247613	5177312.34127993
116	19	1	0	90	36.1581920903955	36.241610738255	19	0.63337062381208	2	3	1	NaN	1	4	0.245489495646974	0	1	NaN	273	5	21	2	120	220	320	NaN	520	0.138157267123461	1	1	NaN	5177313.5082458	NaN	5177314.4916567	5177315.00820783
116	19	1	0	90	36.1581920903955	36.241610738255	8	0.266682367920876	2	7	5	NaN	2	4	0.245489495646974	0	1	NaN	274	5	22	2	120	220	320	NaN	520	0.252908226102591	2	1	NaN	5177316.4251865	NaN	5177317.4086163	5177317.92516337
116	19	1	0	90	36.1581920903955	36.241610738255	10	0.333352959901094	2	9	5	NaN	2	5	0.245489495646974	0	1	NaN	275	5	23	2	120	220	320	NaN	520	0.134131067432463	1	0	NaN	5177318.992093	NaN	5177319.9755259	5177320.49207113
116	19	1	0	90	36.1581920903955	36.241610738255	16	0.533364735841751	2	10	4	NaN	2	4	0.245489495646974	0	1	NaN	276	5	24	2	120	220	320	NaN	520	0.812143220566213	2	1	NaN	5177321.44238	NaN	5177322.4257645	5177322.94232068
116	19	1	0	90	36.1581920903955	36.241610738255	8	0.266682367920876	2	12	2	NaN	2	3	0.245489495646974	0	1	NaN	277	5	25	2	120	220	320	NaN	520	0.310519468039274	1	0	NaN	5177324.5760252	NaN	5177325.5594135	5177326.07596363
116	19	1	0	90	36.1581920903955	36.241610738255	14	0.466694143861532	2	3	2	NaN	1	4	0.245489495646974	0	1	NaN	278	5	26	2	120	220	320	NaN	520	0.132964915595949	2	0	NaN	5177327.209621	NaN	5177328.1930077	5177328.70955118
116	19	1	0	90	36.1581920903955	36.241610738255	17	0.566700031831861	2	11	1	NaN	2	4	0.245489495646974	0	1	NaN	279	5	27	2	120	220	320	NaN	520	0.26666696742177	2	1	NaN	5177329.6599501	NaN	5177330.6432445	5177331.15978713
116	19	1	0	90	36.1581920903955	36.241610738255	6	0.200011775940657	2	9	4	NaN	2	3	0.245489495646974	0	1	NaN	280	5	28	2	120	220	320	NaN	520	0.283062567934394	2	1	NaN	5177332.2434296	NaN	5177333.2268322	5177333.74338233
116	19	1	0	90	36.1581920903955	36.241610738255	10	0.333352959901094	2	5	1	NaN	1	3	0.245489495646974	0	1	NaN	281	5	29	2	120	220	320	NaN	520	0.490466367453337	2	0	NaN	5177334.8436944	NaN	5177335.8270866	5177336.34363193
116	19	1	0	90	36.1581920903955	36.241610738255	13	0.433358847871423	2	11	4	NaN	2	4	0.245489495646974	0	1	NaN	282	5	30	2	120	220	320	NaN	520	0.386207267642021	2	1	NaN	5177337.6439703	NaN	5177338.6273731	5177339.14391413
116	19	1	0	90	36.1581920903955	36.241610738255	14	0.466694143861532	2	5	4	NaN	1	3	0.245489495646974	0	1	NaN	283	5	31	2	120	220	320	NaN	520	0.095115520991385	2	0	NaN	5177341.3109794	NaN	5177342.2943725	5177342.81094318
116	19	1	0	90	36.1581920903955	36.241610738255	17	0.566700031831861	2	3	5	NaN	1	3	0.245489495646974	0	1	NaN	284	5	32	2	120	220	320	NaN	520	0.367344820871949	2	0	NaN	5177343.7112464	NaN	5177344.6946145	5177345.21117168
116	19	1	0	90	36.1581920903955	36.241610738255	15	0.500029439851642	2	3	1	NaN	1	4	0.245489495646974	0	1	NaN	285	5	33	2	120	220	320	NaN	520	0.138151767663658	1	1	NaN	5177348.0282983	NaN	5177349.0117145	5177349.52828263
116	19	1	0	90	36.1581920903955	36.241610738255	16	0.533364735841751	2	4	4	NaN	1	3	0.245489495646974	0	1	NaN	286	5	34	2	120	220	320	NaN	520	1.42369560990483	1	1	NaN	5177350.4785743	NaN	5177351.4619545	5177351.97850149
116	19	1	0	90	36.1581920903955	36.241610738255	7	0.233347071930766	2	5	6	NaN	1	3	0.245489495646974	0	1	NaN	287	5	35	2	120	220	320	NaN	520	0.219217067584395	1	1	NaN	5177354.5789409	NaN	5177355.5623309	5177356.07890543
116	19	1	0	90	36.1581920903955	36.241610738255	17	0.566700031831861	2	7	3	NaN	2	5	0.245489495646974	0	1	NaN	288	5	36	2	120	220	320	NaN	520	0.165508520789444	1	0	NaN	5177357.1125544	NaN	5177358.0959457	5177358.61248708
116	19	1	0	90	36.1581920903955	36.241610738255	12	0.400023551881313	2	2	2	NaN	1	5	0.245489495646974	0	1	NaN	289	5	37	2	120	220	320	NaN	520	0.0103966202586889	1	1	NaN	5177359.5794554	NaN	5177360.5628514	5177361.07940398
116	19	1	0	90	36.1581920903955	36.241610738255	11	0.366688255891204	2	2	2	NaN	1	5	0.245489495646974	0	1	NaN	290	5	38	2	120	220	320	NaN	520	0.061151267029345	1	1	NaN	5177361.913015	NaN	5177362.8964252	5177363.41297053
116	19	1	0	90	36.1581920903955	36.241610738255	8	0.266682367920876	2	1	2	NaN	1	4	0.245489495646974	0	1	NaN	291	5	39	2	120	220	320	NaN	520	0.381552620790899	1	1	NaN	5177364.2964475	NaN	5177365.2799845	5177365.79653878
116	19	1	0	90	36.1581920903955	36.241610738255	16	0.533364735841751	2	11	6	NaN	2	5	0.245489495646974	0	1	NaN	292	5	40	2	120	220	320	NaN	520	0.257720068097115	1	0	NaN	5177366.9968679	NaN	5177367.9802362	5177368.49680283
116	19	1	0	90	36.1581920903955	36.241610738255	6	0.200011775940657	2	10	4	NaN	2	4	0.245489495646974	0	1	NaN	293	5	41	2	120	220	320	NaN	520	0.466425721533597	1	0	NaN	5177369.5637697	NaN	5177370.5471693	5177371.06372148
116	19	1	0	90	36.1581920903955	36.241610738255	18	0.60003532782197	2	6	1	NaN	1	4	0.245489495646974	0	1	NaN	294	5	42	2	120	220	320	NaN	520	0.202718720771372	2	0	NaN	5177372.347403	NaN	5177373.3307995	5177373.84732768
116	19	1	0	90	36.1581920903955	36.241610738255	9	0.300017663910985	2	4	3	NaN	1	3	0.245489495646974	0	1	NaN	295	5	43	2	120	220	320	NaN	520	0.0856746211647987	2	0	NaN	5177374.8642984	NaN	5177375.8476891	5177376.36424168
116	19	1	0	90	36.1581920903955	36.241610738255	12	0.400023551881313	2	5	3	NaN	1	3	0.245489495646974	0	1	NaN	296	5	44	2	120	220	320	NaN	520	0.261701789684594	2	0	NaN	5177377.2645333	NaN	5177378.2479154	5177378.76447451
116	19	1	0	90	36.1581920903955	36.241610738255	20	0.666705919802189	2	10	3	NaN	2	3	0.245489495646974	0	1	NaN	297	5	45	2	120	220	320	NaN	520	0.222820715047419	2	1	NaN	5177379.8314375	NaN	5177380.8148363	5177381.33138768
116	19	1	0	90	36.1581920903955	36.241610738255	18	0.60003532782197	2	7	1	NaN	2	3	0.245489495646974	0	1	NaN	298	5	46	2	120	220	320	NaN	520	0.32535782083869	2	1	NaN	5177382.8650446	NaN	5177383.8484722	5177384.36502508
116	19	1	0	90	36.1581920903955	36.241610738255	7	0.233347071930766	2	7	6	NaN	2	4	0.245489495646974	0	1	NaN	299	5	47	2	120	220	320	NaN	520	1.93163552135229	2	1	NaN	5177385.4986627	NaN	5177386.4820645	5177386.99861658
116	19	1	0	90	36.1581920903955	36.241610738255	16	0.533364735841751	2	6	6	NaN	1	3	0.245489495646974	0	1	NaN	300	5	48	2	120	220	320	NaN	520	0.0490748779848218	2	0	NaN	5177389.7490337	NaN	5177390.7324949	5177391.24903072
116	19	1	0	90	36.1581920903955	36.241610738255	23	0.766711807772517	2	1	2	NaN	1	5	0.245489495646974	0	1	NaN	301	5	49	2	120	220	320	NaN	520	0.234252267517149	1	1	NaN	5177392.1159913	NaN	5177393.0993547	5177393.61592693
116	19	1	0	90	36.1581920903955	36.241610738255	10	0.333352959901094	2	2	3	NaN	1	5	0.245489495646974	0	1	NaN	302	5	50	2	120	220	320	NaN	520	0.184361220337451	1	1	NaN	5177395.1662187	NaN	5177396.1496746	5177396.66623198
116	19	1	0	90	36.1581920903955	36.241610738255	10	0.333352959901094	2	6	1	NaN	1	4	0.245489495646974	0	1	NaN	303	5	51	2	120	220	320	NaN	520	0.52349882107228	1	1	NaN	5177397.6663869	NaN	5177398.6499256	5177399.16648498
116	19	1	0	90	36.1581920903955	36.241610738255	14	0.466694143861532	2	11	3	NaN	2	5	0.245489495646974	0	1	NaN	304	5	52	2	120	220	320	NaN	520	0.166780821047723	1	0	NaN	5177400.9835235	NaN	5177401.9670203	5177402.48347098
116	19	1	0	90	36.1581920903955	36.241610738255	10	0.333352959901094	2	12	5	NaN	2	4	0.245489495646974	0	1	NaN	305	5	53	2	120	220	320	NaN	520	1.51551006734371	1	0	NaN	5177403.4669863	NaN	5177404.450497	5177404.96704363
116	19	1	0	90	36.1581920903955	36.241610738255	7	0.233347071930766	2	8	2	NaN	2	3	0.245489495646974	0	1	NaN	306	5	54	2	120	220	320	NaN	520	1.18588052038103	1	0	NaN	5177407.3007984	NaN	5177408.2842177	5177408.80076088
116	19	1	0	90	36.1581920903955	36.241610738255	12	0.400023551881313	2	3	5	NaN	1	4	0.245489495646974	0	1	NaN	307	5	55	2	120	220	320	NaN	520	0.501109721139073	1	1	NaN	5177410.801138	NaN	5177411.7845538	5177412.30110618
116	19	1	0	90	36.1581920903955	36.241610738255	13	0.433358847871423	2	2	1	NaN	1	4	0.245489495646974	0	1	NaN	308	5	56	2	120	220	320	NaN	520	0.508175021037459	1	1	NaN	5177413.6180297	NaN	5177414.6015041	5177415.11804458
116	19	1	0	90	36.1581920903955	36.241610738255	10	0.333352959901094	2	7	4	NaN	2	5	0.245489495646974	0	1	NaN	309	5	57	2	120	220	320	NaN	520	0.0103918202221394	1	0	NaN	5177416.4350429	NaN	5177417.4184651	5177417.93499368
116	19	1	0	90	36.1581920903955	36.241610738255	16	0.533364735841751	2	12	4	NaN	2	3	0.245489495646974	0	1	NaN	310	5	58	2	120	220	320	NaN	520	1.36638186778873	1	0	NaN	5177418.7519527	NaN	5177419.7353227	5177420.25189043
116	19	1	0	90	36.1581920903955	36.241610738255	15	0.500029439851642	2	5	2	NaN	1	3	0.245489495646974	0	1	NaN	311	5	59	2	120	220	320	NaN	520	0.010392121039331	1	1	NaN	5177422.4356512	NaN	5177423.419065	5177423.93558498
116	19	1	0	90	36.1581920903955	36.241610738255	15	0.500029439851642	2	11	4	NaN	2	4	0.245489495646974	0	1	NaN	312	5	60	2	120	220	320	NaN	520	0.24610666744411	2	1	NaN	5177424.7523892	NaN	5177425.7359243	5177426.25247613
116	19	1	0	90	36.1581920903955	36.241610738255	19	0.63337062381208	2	6	5	NaN	1	3	0.245489495646974	0	1	NaN	313	5	61	2	120	220	320	NaN	520	0.223195868544281	2	0	NaN	5177427.3194456	NaN	5177428.3028407	5177428.81939473
116	19	1	0	90	36.1581920903955	36.241610738255	6	0.200011775940657	2	5	2	NaN	1	5	0.245489495646974	0	1	NaN	314	5	62	2	120	220	320	NaN	520	0.0103801731020212	1	1	NaN	5177430.3197099	NaN	5177431.3031442	5177431.81968963
116	19	1	0	90	36.1581920903955	36.241610738255	16	0.533364735841751	2	4	6	NaN	1	3	0.245489495646974	0	1	NaN	315	5	63	2	120	220	320	NaN	520	0.257616668008268	1	1	NaN	5177432.6366338	NaN	5177433.6200211	5177434.13657633
116	19	1	0	90	36.1581920903955	36.241610738255	8	0.266682367920876	2	8	5	NaN	2	4	0.245489495646974	0	1	NaN	316	6	1	2	120	220	320	NaN	520	0.0104096671566367	1	0	NaN	5177436.2702997	NaN	5177437.2537078	5177437.77026843
116	19	1	0	90	36.1581920903955	36.241610738255	12	0.400023551881313	2	4	5	NaN	1	4	0.245489495646974	0	1	NaN	317	6	2	2	120	220	320	NaN	520	0.17439666762948	2	0	NaN	5177438.7038826	NaN	5177439.6872967	5177440.20385083
116	19	1	0	90	36.1581920903955	36.241610738255	17	0.566700031831861	2	2	1	NaN	1	5	0.245489495646974	0	1	NaN	318	6	3	2	120	220	320	NaN	520	0.0314058410003781	2	0	NaN	5177441.6708773	NaN	5177442.6542671	5177443.17081166
116	19	1	0	90	36.1581920903955	36.241610738255	9	0.300017663910985	2	9	1	NaN	2	3	0.245489495646974	0	1	NaN	319	6	4	2	120	220	320	NaN	520	0.0103926211595535	1	0	NaN	5177444.7211271	NaN	5177445.7045553	5177446.22110918
116	19	1	0	90	36.1581920903955	36.241610738255	7	0.233347071930766	2	12	2	NaN	2	3	0.245489495646974	0	1	NaN	320	6	5	2	120	220	320	NaN	520	0.0103896204382181	2	1	NaN	5177447.0380703	NaN	5177448.0214847	5177448.53799668
116	19	1	0	90	36.1581920903955	36.241610738255	21	0.700041215792298	2	1	2	NaN	1	4	0.245489495646974	0	1	NaN	321	6	6	2	120	220	320	NaN	520	0.787420567125082	1	1	NaN	5177449.3548223	NaN	5177450.33835	5177450.85489643
116	19	1	0	90	36.1581920903955	36.241610738255	11	0.366688255891204	2	3	3	NaN	1	4	0.245489495646974	0	1	NaN	322	6	7	2	120	220	320	NaN	520	0.158928420394659	1	1	NaN	5177452.4552366	NaN	5177453.4386425	5177453.95520418
116	19	1	0	90	36.1581920903955	36.241610738255	22	0.733376511782408	2	1	1	NaN	1	5	0.245489495646974	0	1	NaN	323	6	8	2	120	220	320	NaN	520	0.0103990212082863	1	1	NaN	5177454.922181	NaN	5177455.9055655	5177456.42211088
116	19	1	0	90	36.1581920903955	36.241610738255	19	0.63337062381208	2	10	1	NaN	2	4	0.245489495646974	0	1	NaN	324	6	9	2	120	220	320	NaN	520	0.119013267569244	1	0	NaN	5177457.2556625	NaN	5177458.2391229	5177458.75566263
116	19	1	0	90	36.1581920903955	36.241610738255	21	0.700041215792298	2	12	4	NaN	2	5	0.245489495646974	0	1	NaN	325	6	10	2	120	220	320	NaN	520	0.0104225678369403	1	0	NaN	5177459.6893097	NaN	5177460.6727163	5177461.18924683
116	19	1	0	90	36.1581920903955	36.241610738255	16	0.533364735841751	2	11	4	NaN	2	3	0.245489495646974	0	1	NaN	326	6	11	2	120	220	320	NaN	520	0.0104091679677367	2	1	NaN	5177462.0228418	NaN	5177463.0062468	5177463.52279783
116	19	1	0	90	36.1581920903955	36.241610738255	23	0.766711807772517	2	12	2	NaN	2	3	0.245489495646974	0	1	NaN	327	6	12	2	120	220	320	NaN	520	0.010515215806663	2	1	NaN	5177464.3396215	NaN	5177465.3231591	5177465.83972468
116	19	1	0	90	36.1581920903955	36.241610738255	6	0.200011775940657	2	4	1	NaN	1	4	0.245489495646974	0	1	NaN	328	6	13	2	120	220	320	NaN	520	0.118172820657492	2	0	NaN	5177466.6566448	NaN	5177467.6400547	5177468.15661868
116	19	1	0	90	36.1581920903955	36.241610738255	16	0.533364735841751	2	2	4	NaN	1	4	0.245489495646974	0	1	NaN	329	6	14	2	120	220	320	NaN	520	0.0601114667952061	1	1	NaN	5177469.0902099	NaN	5177470.0736192	5177470.59017043
116	19	1	0	90	36.1581920903955	36.241610738255	21	0.700041215792298	2	11	4	NaN	2	3	0.245489495646974	0	1	NaN	330	6	15	2	120	220	320	NaN	520	0.285182820633054	1	0	NaN	5177471.45699	NaN	5177472.4405177	5177472.95706968
116	19	1	0	90	36.1581920903955	36.241610738255	17	0.566700031831861	2	7	4	NaN	2	4	0.245489495646974	0	1	NaN	331	6	16	2	120	220	320	NaN	520	0.22932041529566	2	1	NaN	5177474.0573923	NaN	5177475.0407555	5177475.55731328
116	19	1	0	90	36.1581920903955	36.241610738255	19	0.63337062381208	2	5	3	NaN	1	3	0.245489495646974	0	1	NaN	332	6	17	2	120	220	320	NaN	520	0.206111066974699	1	1	NaN	5177476.8243525	NaN	5177477.80771	5177478.32425523
116	19	1	0	90	36.1581920903955	36.241610738255	22	0.733376511782408	2	5	5	NaN	1	4	0.245489495646974	0	1	NaN	333	6	18	2	120	220	320	NaN	520	0.161268620751798	1	1	NaN	5177479.3412108	NaN	5177480.3246334	5177480.84117388
116	19	1	0	90	36.1581920903955	36.241610738255	18	0.60003532782197	2	5	1	NaN	1	5	0.245489495646974	0	1	NaN	334	6	19	2	120	220	320	NaN	520	0.229642020538449	1	1	NaN	5177481.8248151	NaN	5177482.8081958	5177483.32475868
116	19	1	0	90	36.1581920903955	36.241610738255	8	0.266682367920876	2	6	4	NaN	1	5	0.245489495646974	0	1	NaN	335	6	20	2	120	220	320	NaN	520	0.248198720626533	1	1	NaN	5177484.3582837	NaN	5177485.3417793	5177485.85833648
116	19	1	0	90	36.1581920903955	36.241610738255	0	0	1	2	4	NaN	1	5	0.245489495646974	0	1	NaN	336	6	21	2	110	210	310	NaN	510	0.36143681500107	2	0	NaN	5177486.9253105	NaN	5177487.9087033	5177488.42524808
116	19	1	0	90	36.1581920903955	36.241610738255	24	0.800047103762627	2	1	4	NaN	1	3	0.245489495646974	0	1	NaN	337	6	22	2	120	220	320	NaN	520	0.294072972610593	2	0	NaN	5177489.5922547	NaN	5177490.5756281	5177491.09218393
116	19	1	0	90	36.1581920903955	36.241610738255	6	0.200011775940657	2	6	4	NaN	1	4	0.245489495646974	0	1	NaN	338	6	23	2	120	220	320	NaN	520	0.165090166963637	1	1	NaN	5177492.2091641	NaN	5177493.1925572	5177493.70909883
116	19	1	0	90	36.1581920903955	36.241610738255	6	0.200011775940657	2	5	2	NaN	1	5	0.245489495646974	0	1	NaN	339	6	24	2	120	220	320	NaN	520	0.280983367934823	1	1	NaN	5177495.1093239	NaN	5177496.0928427	5177496.60939683
116	19	1	0	90	36.1581920903955	36.241610738255	24	0.800047103762627	2	8	1	NaN	2	4	0.245489495646974	0	1	NaN	340	6	25	2	120	220	320	NaN	520	0.304592915810645	1	0	NaN	5177497.7096344	NaN	5177498.6930955	5177499.20963828
116	19	1	0	90	36.1581920903955	36.241610738255	17	0.566700031831861	2	1	4	NaN	1	3	0.245489495646974	0	1	NaN	341	6	26	2	120	220	320	NaN	520	0.103720220737159	1	1	NaN	5177500.3266365	NaN	5177501.3100091	5177501.82657068
116	19	1	0	90	36.1581920903955	36.241610738255	22	0.733376511782408	2	11	3	NaN	2	3	0.245489495646974	0	1	NaN	342	6	27	2	120	220	320	NaN	520	0.198871821165085	1	0	NaN	5177502.743523	NaN	5177503.7269328	5177504.24347928
116	19	1	0	90	36.1581920903955	36.241610738255	13	0.433358847871423	2	5	6	NaN	1	5	0.245489495646974	0	1	NaN	343	6	28	2	120	220	320	NaN	520	0.193859321065247	1	1	NaN	5177505.2604547	NaN	5177506.2438427	5177506.76038728
116	19	1	0	90	36.1581920903955	36.241610738255	25	0.833382399752736	2	1	2	NaN	1	4	0.245489495646974	0	1	NaN	344	6	29	2	120	220	320	NaN	520	0.141128020361066	2	0	NaN	5177507.7773371	NaN	5177508.7608139	5177509.27730948
116	19	1	0	90	36.1581920903955	36.241610738255	12	0.400023551881313	2	6	2	NaN	1	3	0.245489495646974	0	1	NaN	345	6	30	2	120	220	320	NaN	520	0.226736789569259	1	1	NaN	5177510.227645	NaN	5177511.210995	5177511.72754991
116	19	1	0	90	36.1581920903955	36.241610738255	10	0.333352959901094	2	2	5	NaN	1	4	0.245489495646974	0	1	NaN	346	6	31	2	120	220	320	NaN	520	0.0533369202166796	1	1	NaN	5177512.7611811	NaN	5177513.7445793	5177514.26113118
116	19	1	0	90	36.1581920903955	36.241610738255	10	0.333352959901094	2	1	3	NaN	1	4	0.245489495646974	0	1	NaN	347	6	32	2	120	220	320	NaN	520	0.286332621239126	2	0	NaN	5177515.1280689	NaN	5177516.1114563	5177516.62802648
116	19	1	0	90	36.1581920903955	36.241610738255	14	0.466694143861532	2	1	5	NaN	1	5	0.245489495646974	0	1	NaN	348	6	33	2	120	220	320	NaN	520	0.077948042191565	2	0	NaN	5177517.7283596	NaN	5177518.7117581	5177519.22828946
116	19	1	0	90	36.1581920903955	36.241610738255	15	0.500029439851642	2	9	3	NaN	2	4	0.245489495646974	0	1	NaN	349	6	34	2	120	220	320	NaN	520	0.126258541829884	1	0	NaN	5177520.1285569	NaN	5177521.1119584	5177521.62851896
116	19	1	0	90	36.1581920903955	36.241610738255	18	0.60003532782197	2	4	5	NaN	1	4	0.245489495646974	0	1	NaN	350	6	35	2	120	220	320	NaN	520	0.180083067156374	1	1	NaN	5177522.5621459	NaN	5177523.5455383	5177524.06208523
116	19	1	0	90	36.1581920903955	36.241610738255	0	0	1	7	3	NaN	2	4	0.245489495646974	0	1	NaN	351	6	36	2	110	210	310	NaN	510	0.0408068420365453	1	0	NaN	5177525.0457448	NaN	5177526.0291167	5177526.54569456
116	19	1	0	90	36.1581920903955	36.241610738255	24	0.800047103762627	2	9	2	NaN	2	4	0.245489495646974	0	1	NaN	352	6	37	2	120	220	320	NaN	520	0.0103914206847548	2	1	NaN	5177527.4459156	NaN	5177528.4293485	5177528.94590628
116	19	1	0	90	36.1581920903955	36.241610738255	22	0.733376511782408	2	8	1	NaN	2	4	0.245489495646974	0	1	NaN	353	6	38	2	120	220	320	NaN	520	0.132222667336464	2	1	NaN	5177529.9462115	NaN	5177530.929619	5177531.44615513
116	19	1	0	90	36.1581920903955	36.241610738255	7	0.233347071930766	2	11	4	NaN	2	3	0.245489495646974	0	1	NaN	354	6	39	2	120	220	320	NaN	520	0.138692467473447	2	1	NaN	5177532.3797771	NaN	5177533.3631771	5177533.87972643
116	19	1	0	90	36.1581920903955	36.241610738255	24	0.800047103762627	2	3	6	NaN	1	3	0.245489495646974	0	1	NaN	355	6	40	2	120	220	320	NaN	520	0.336821120232344	2	0	NaN	5177534.8300181	NaN	5177535.8134222	5177536.32996418
116	19	1	0	90	36.1581920903955	36.241610738255	8	0.266682367920876	2	4	2	NaN	1	5	0.245489495646974	0	1	NaN	356	6	41	2	120	220	320	NaN	520	0.0141059681773186	1	1	NaN	5177537.480279	NaN	5177538.4636688	5177538.98022503
116	19	1	0	90	36.1581920903955	36.241610738255	15	0.500029439851642	2	1	4	NaN	1	4	0.245489495646974	0	1	NaN	357	6	42	2	120	220	320	NaN	520	0.0104105677455664	1	1	NaN	5177539.8138279	NaN	5177540.7972246	5177541.31379143
116	19	1	0	90	36.1581920903955	36.241610738255	6	0.200011775940657	2	8	4	NaN	2	4	0.245489495646974	0	1	NaN	358	6	43	2	120	220	320	NaN	520	0.0104044685140252	1	0	NaN	5177542.1307587	NaN	5177543.1141211	5177543.63067553
116	19	1	0	90	36.1581920903955	36.241610738255	13	0.433358847871423	2	1	2	NaN	1	3	0.245489495646974	0	1	NaN	359	6	44	2	120	220	320	NaN	520	0.183037767186761	1	1	NaN	5177544.4476507	NaN	5177545.4310314	5177545.94758123
116	19	1	0	90	36.1581920903955	36.241610738255	21	0.700041215792298	2	7	4	NaN	2	4	0.245489495646974	0	1	NaN	360	6	45	2	120	220	320	NaN	520	0.0585705358535051	1	0	NaN	5177546.9478774	NaN	5177547.93127	5177548.44781946
116	19	1	0	90	36.1581920903955	36.241610738255	18	0.60003532782197	2	7	2	NaN	2	3	0.245489495646974	0	1	NaN	361	6	46	2	120	220	320	NaN	520	0.147073915228248	2	1	NaN	5177549.3314282	NaN	5177550.3148437	5177550.83138108
116	19	1	0	90	36.1581920903955	36.241610738255	7	0.233347071930766	2	1	6	NaN	1	5	0.245489495646974	0	1	NaN	362	6	47	2	120	220	320	NaN	520	0.200075667351484	2	0	NaN	5177551.79835	NaN	5177552.781753	5177553.29829473
116	19	1	0	90	36.1581920903955	36.241610738255	20	0.666705919802189	2	11	2	NaN	2	4	0.245489495646974	0	1	NaN	363	6	48	2	120	220	320	NaN	520	0.155265067704022	1	0	NaN	5177554.3152729	NaN	5177555.2986583	5177555.81521003
116	19	1	0	90	36.1581920903955	36.241610738255	9	0.300017663910985	2	3	3	NaN	1	5	0.245489495646974	0	1	NaN	364	6	49	2	120	220	320	NaN	520	0.136154267936945	1	1	NaN	5177556.7820661	NaN	5177557.7655704	5177558.28211283
116	19	1	0	90	36.1581920903955	36.241610738255	22	0.733376511782408	2	4	3	NaN	1	3	0.245489495646974	0	1	NaN	365	6	50	2	120	220	320	NaN	520	0.117973062209785	1	1	NaN	5177559.6324242	NaN	5177560.6158574	5177561.13239894
116	19	1	0	90	36.1581920903955	36.241610738255	13	0.433358847871423	2	6	4	NaN	1	5	0.245489495646974	0	1	NaN	366	6	51	2	120	220	320	NaN	520	0.164390067569911	1	1	NaN	5177562.0658987	NaN	5177563.0494184	5177563.56596643
116	19	1	0	90	36.1581920903955	36.241610738255	0	0	1	10	1	NaN	2	3	0.245489495646974	0	1	NaN	367	6	52	2	110	210	310	NaN	510	0.0408432204276323	2	1	NaN	5177564.5496259	NaN	5177565.5330871	5177566.04955148
116	19	1	0	90	36.1581920903955	36.241610738255	15	0.500029439851642	2	6	1	NaN	1	3	0.245489495646974	0	1	NaN	368	6	53	2	120	220	320	NaN	520	0.15459246840328	2	0	NaN	5177566.8998388	NaN	5177567.8832258	5177568.39978143
116	19	1	0	90	36.1581920903955	36.241610738255	16	0.533364735841751	2	9	5	NaN	2	4	0.245489495646974	0	1	NaN	369	6	54	2	120	220	320	NaN	520	0.27675674110651	2	1	NaN	5177569.8334304	NaN	5177570.816862	5177571.33340356
116	19	1	0	90	36.1581920903955	36.241610738255	13	0.433358847871423	2	1	6	NaN	1	4	0.245489495646974	0	1	NaN	370	6	55	2	120	220	320	NaN	520	0.389414267614484	2	0	NaN	5177572.4170723	NaN	5177573.4004875	5177573.91699583
116	19	1	0	90	36.1581920903955	36.241610738255	6	0.200011775940657	2	11	1	NaN	2	4	0.245489495646974	0	1	NaN	371	6	56	2	120	220	320	NaN	520	0.489529525861144	2	1	NaN	5177575.117294	NaN	5177576.100719	5177576.61725937
116	19	1	0	90	36.1581920903955	36.241610738255	16	0.533364735841751	2	8	6	NaN	2	3	0.245489495646974	0	1	NaN	372	6	57	2	120	220	320	NaN	520	0.216828367672861	2	1	NaN	5177577.9175927	NaN	5177578.9009831	5177579.41752603
116	19	1	0	90	36.1581920903955	36.241610738255	24	0.800047103762627	2	11	3	NaN	2	5	0.245489495646974	0	1	NaN	373	6	58	2	120	220	320	NaN	520	0.395765667781234	2	1	NaN	5177580.4511501	NaN	5177581.4345678	5177581.95110683
116	19	1	0	90	36.1581920903955	36.241610738255	22	0.733376511782408	2	3	2	NaN	1	4	0.245489495646974	0	1	NaN	374	6	59	2	120	220	320	NaN	520	4.77364701591432	2	0	NaN	5177583.6013394	NaN	5177584.5848735	5177585.10142238
116	19	1	0	90	36.1581920903955	36.241610738255	20	0.666705919802189	2	7	5	NaN	2	4	0.245489495646974	0	1	NaN	375	6	60	2	120	220	320	NaN	520	0.339099841192365	2	1	NaN	5177591.4354438	NaN	5177592.418962	5177592.93552836
116	19	1	0	90	36.1581920903955	36.241610738255	25	0.833382399752736	2	3	2	NaN	1	5	0.245489495646974	0	1	NaN	376	6	61	2	120	220	320	NaN	520	0.256766420789063	2	0	NaN	5177594.085842	NaN	5177595.0692372	5177595.58577988
116	19	1	0	90	36.1581920903955	36.241610738255	18	0.60003532782197	2	11	6	NaN	2	4	0.245489495646974	0	1	NaN	377	6	62	2	120	220	320	NaN	520	0.381582420319319	2	1	NaN	5177597.5527163	NaN	5177598.5362523	5177599.05279268
116	19	1	0	90	36.1581920903955	36.241610738255	0	0	1	6	5	NaN	1	5	0.245489495646974	0	1	NaN	378	6	63	2	110	210	310	NaN	510	0.585329967550933	2	0	NaN	5177600.253186	NaN	5177601.2365083	5177601.75305423
116	19	1	0	90	36.1581920903955	36.241610738255	0	0	1	5	4	NaN	1	5	0.245489495646974	0	1	NaN	379	7	1	2	110	210	310	NaN	510	0.133044268004596	1	1	NaN	5177605.1535835	NaN	5177606.1369896	5177606.65354153
116	19	1	0	90	36.1581920903955	36.241610738255	10	0.333352959901094	2	11	2	NaN	2	3	0.245489495646974	0	1	NaN	380	7	2	2	120	220	320	NaN	520	0.0104217156767845	2	1	NaN	5177607.6038273	NaN	5177608.5872178	5177609.10378038
116	19	1	0	90	36.1581920903955	36.241610738255	23	0.766711807772517	2	3	4	NaN	1	3	0.245489495646974	0	1	NaN	381	7	3	2	120	220	320	NaN	520	0.0103931212797761	2	0	NaN	5177609.9373053	NaN	5177610.920805	5177611.43735238
116	19	1	0	90	36.1581920903955	36.241610738255	24	0.800047103762627	2	5	1	NaN	1	3	0.245489495646974	0	1	NaN	382	7	4	2	120	220	320	NaN	520	0.0103940209373832	1	1	NaN	5177612.2543137	NaN	5177613.2377184	5177613.75424448
116	19	1	0	90	36.1581920903955	36.241610738255	11	0.366688255891204	2	1	6	NaN	1	3	0.245489495646974	0	1	NaN	383	7	5	2	120	220	320	NaN	520	0.0104321157559752	2	0	NaN	5177614.5711527	NaN	5177615.554585	5177616.07113978
116	19	1	0	90	36.1581920903955	36.241610738255	15	0.500029439851642	2	4	3	NaN	1	3	0.245489495646974	0	1	NaN	384	7	6	2	120	220	320	NaN	520	0.0103976214304566	1	1	NaN	5177616.8880693	NaN	5177617.8714741	5177618.38802828
116	19	1	0	90	36.1581920903955	36.241610738255	20	0.666705919802189	2	12	5	NaN	2	5	0.245489495646974	0	1	NaN	385	7	7	2	120	220	320	NaN	520	0.0102751413360238	1	0	NaN	5177619.2048505	NaN	5177620.1883704	5177620.70493406
116	19	1	0	90	36.1581920903955	36.241610738255	9	0.300017663910985	2	2	2	NaN	1	5	0.245489495646974	0	1	NaN	386	7	8	2	120	220	320	NaN	520	0.0104056680575013	1	1	NaN	5177621.5218942	NaN	5177622.5052466	5177623.02183683
116	19	1	0	90	36.1581920903955	36.241610738255	25	0.833382399752736	2	7	5	NaN	2	5	0.245489495646974	0	1	NaN	387	7	9	2	120	220	320	NaN	520	0.0801755674183369	2	1	NaN	5177623.8387695	NaN	5177624.8221634	5177625.33870893
116	19	1	0	90	36.1581920903955	36.241610738255	22	0.733376511782408	2	12	4	NaN	2	4	0.245489495646974	0	1	NaN	388	7	10	2	120	220	320	NaN	520	0.0103983199223876	2	1	NaN	5177626.2390048	NaN	5177627.2223989	5177627.73894998
116	19	1	0	90	36.1581920903955	36.241610738255	6	0.200011775940657	2	12	3	NaN	2	5	0.245489495646974	0	1	NaN	389	7	11	2	120	220	320	NaN	520	0.0185548681765795	2	1	NaN	5177628.5559048	NaN	5177629.5392969	5177630.05584303
116	19	1	0	90	36.1581920903955	36.241610738255	0	0	1	12	3	NaN	2	4	0.245489495646974	0	1	NaN	390	7	12	2	110	210	310	NaN	510	0.0104315150529146	1	0	NaN	5177630.8894763	NaN	5177631.8728611	5177632.38940698
116	19	1	0	90	36.1581920903955	36.241610738255	18	0.60003532782197	2	10	2	NaN	2	3	0.245489495646974	0	1	NaN	391	7	13	2	120	220	320	NaN	520	0.0562034677714109	2	1	NaN	5177633.2064022	NaN	5177634.1897506	5177634.70630213
116	19	1	0	90	36.1581920903955	36.241610738255	25	0.833382399752736	2	6	3	NaN	1	4	0.245489495646974	0	1	NaN	392	7	14	2	120	220	320	NaN	520	0.0104243159294128	2	0	NaN	5177635.5732717	NaN	5177636.5566613	5177637.07319068
116	19	1	0	90	36.1581920903955	36.241610738255	25	0.833382399752736	2	10	4	NaN	2	4	0.245489495646974	0	1	NaN	393	7	15	2	120	220	320	NaN	520	0.0102421464398503	1	0	NaN	5177637.8901435	NaN	5177638.8735609	5177639.39010915
116	19	1	0	90	36.1581920903955	36.241610738255	0	0	1	11	2	NaN	2	3	0.245489495646974	0	1	NaN	394	7	16	2	110	210	310	NaN	510	0.0154637889936566	2	1	NaN	5177640.2070658	NaN	5177641.19042	5177641.70699571
116	19	1	0	90	36.1581920903955	36.241610738255	20	0.666705919802189	2	3	1	NaN	1	5	0.245489495646974	0	1	NaN	395	7	17	2	120	220	320	NaN	520	0.0419120891019702	2	0	NaN	5177642.5405187	NaN	5177643.5240015	5177644.04055921
116	19	1	0	90	36.1581920903955	36.241610738255	7	0.233347071930766	2	9	4	NaN	2	5	0.245489495646974	0	1	NaN	396	7	18	2	120	220	320	NaN	520	0.0838189208880067	2	1	NaN	5177644.8908466	NaN	5177645.874231	5177646.39078698
116	19	1	0	90	36.1581920903955	36.241610738255	17	0.566700031831861	2	10	3	NaN	2	3	0.245489495646974	0	1	NaN	397	7	19	2	120	220	320	NaN	520	0.115511267445982	1	0	NaN	5177647.291075	NaN	5177648.2744762	5177648.79101003
116	19	1	0	90	36.1581920903955	36.241610738255	13	0.433358847871423	2	7	4	NaN	2	4	0.245489495646974	0	1	NaN	398	7	20	2	120	220	320	NaN	520	0.122149267233908	1	0	NaN	5177649.7246448	NaN	5177650.7080578	5177651.22459393
116	19	1	0	90	36.1581920903955	36.241610738255	23	0.766711807772517	2	8	2	NaN	2	5	0.245489495646974	0	1	NaN	399	7	21	2	120	220	320	NaN	520	0.0483979200944304	1	0	NaN	5177652.1580689	NaN	5177653.1416136	5177653.65816318
116	19	1	0	90	36.1581920903955	36.241610738255	10	0.333352959901094	2	3	5	NaN	1	3	0.245489495646974	0	1	NaN	400	7	22	2	120	220	320	NaN	520	0.11348442081362	1	1	NaN	5177654.5250969	NaN	5177655.5085167	5177656.02506858
116	19	1	0	90	36.1581920903955	36.241610738255	10	0.333352959901094	2	5	1	NaN	1	4	0.245489495646974	0	1	NaN	401	7	23	2	120	220	320	NaN	520	0.0326902307569981	1	1	NaN	5177656.9420367	NaN	5177657.9254147	5177658.44196147
116	19	1	0	90	36.1581920903955	36.241610738255	16	0.533364735841751	2	5	2	NaN	1	5	0.245489495646974	0	1	NaN	402	7	24	2	120	220	320	NaN	520	0.010409620590508	2	0	NaN	5177659.8089457	NaN	5177660.792383	5177661.30891108
116	19	1	0	90	36.1581920903955	36.241610738255	12	0.400023551881313	2	11	4	NaN	2	3	0.245489495646974	0	1	NaN	403	7	25	2	120	220	320	NaN	520	0.0103278318420053	1	0	NaN	5177662.1425352	NaN	5177663.1259133	5177663.64248607
116	19	1	0	90	36.1581920903955	36.241610738255	9	0.300017663910985	2	1	5	NaN	1	5	0.245489495646974	0	1	NaN	404	7	26	2	120	220	320	NaN	520	0.0103943208232522	1	1	NaN	5177664.4761154	NaN	5177665.4594799	5177665.97603758
116	19	1	0	90	36.1581920903955	36.241610738255	14	0.466694143861532	2	5	4	NaN	1	5	0.245489495646974	0	1	NaN	405	7	27	2	120	220	320	NaN	520	0.0455020209774375	1	1	NaN	5177666.7928622	NaN	5177667.7763628	5177668.29294028
116	19	1	0	90	36.1581920903955	36.241610738255	15	0.500029439851642	2	3	6	NaN	1	5	0.245489495646974	0	1	NaN	406	7	28	2	120	220	320	NaN	520	0.0104267159476876	1	1	NaN	5177669.1599059	NaN	5177670.1432957	5177670.65983298
116	19	1	0	90	36.1581920903955	36.241610738255	18	0.60003532782197	2	11	1	NaN	2	3	0.245489495646974	0	1	NaN	407	7	29	2	120	220	320	NaN	520	0.0259684147313237	2	1	NaN	5177671.4768121	NaN	5177672.4601807	5177672.97672608
116	19	1	0	90	36.1581920903955	36.241610738255	19	0.63337062381208	2	7	5	NaN	2	4	0.245489495646974	0	1	NaN	408	7	30	2	120	220	320	NaN	520	0.0602548159658909	2	1	NaN	5177673.8103737	NaN	5177674.7937458	5177675.31028368
116	19	1	0	90	36.1581920903955	36.241610738255	6	0.200011775940657	2	7	6	NaN	2	5	0.245489495646974	0	1	NaN	409	7	31	2	120	220	320	NaN	520	0.0126265669241548	2	1	NaN	5177676.1939066	NaN	5177677.1773081	5177677.69385253
116	19	1	0	90	36.1581920903955	36.241610738255	17	0.566700031831861	2	1	6	NaN	1	3	0.245489495646974	0	1	NaN	410	7	32	2	120	220	320	NaN	520	0.095052121207118	2	0	NaN	5177678.527465	NaN	5177679.5108904	5177680.02743678
116	19	1	0	90	36.1581920903955	36.241610738255	20	0.666705919802189	2	4	4	NaN	1	4	0.245489495646974	0	1	NaN	411	7	33	2	120	220	320	NaN	520	0.0104091679677367	2	0	NaN	5177680.9275778	NaN	5177681.9111019	5177682.42765123
116	19	1	0	90	36.1581920903955	36.241610738255	12	0.400023551881313	2	5	4	NaN	1	3	0.245489495646974	0	1	NaN	412	7	34	2	120	220	320	NaN	520	0.137979468330741	2	0	NaN	5177683.244595	NaN	5177684.2280011	5177684.74454323
116	19	1	0	90	36.1581920903955	36.241610738255	9	0.300017663910985	2	8	4	NaN	2	4	0.245489495646974	0	1	NaN	413	7	35	2	120	220	320	NaN	520	0.0397502211853862	1	0	NaN	5177685.6948424	NaN	5177686.6782382	5177687.19479228
116	19	1	0	90	36.1581920903955	36.241610738255	11	0.366688255891204	2	6	6	NaN	1	3	0.245489495646974	0	1	NaN	414	7	36	2	120	220	320	NaN	520	0.0175954680889845	1	1	NaN	5177688.0450888	NaN	5177689.0284819	5177689.54501963
116	19	1	0	90	36.1581920903955	36.241610738255	14	0.466694143861532	2	11	3	NaN	2	4	0.245489495646974	0	1	NaN	415	7	37	2	120	220	320	NaN	520	0.0103932209312916	2	1	NaN	5177690.3786612	NaN	5177691.3620407	5177691.87859268
116	19	1	0	90	36.1581920903955	36.241610738255	25	0.833382399752736	2	7	3	NaN	2	3	0.245489495646974	0	1	NaN	416	7	38	2	120	220	320	NaN	520	0.39975472074002	1	0	NaN	5177692.8787712	NaN	5177693.8623137	5177694.37883728
116	19	1	0	90	36.1581920903955	36.241610738255	21	0.700041215792298	2	8	6	NaN	2	3	0.245489495646974	0	1	NaN	417	7	39	2	120	220	320	NaN	520	0.123428320512176	2	1	NaN	5177695.9792173	NaN	5177696.9625991	5177697.47914148
116	19	1	0	90	36.1581920903955	36.241610738255	14	0.466694143861532	2	7	2	NaN	2	5	0.245489495646974	0	1	NaN	418	7	40	2	120	220	320	NaN	520	0.0257340678945184	2	1	NaN	5177698.4127358	NaN	5177699.396161	5177699.91270153
116	19	1	0	90	36.1581920903955	36.241610738255	6	0.200011775940657	2	1	6	NaN	1	3	0.245489495646974	0	1	NaN	419	7	41	2	120	220	320	NaN	520	0.108461620286107	2	0	NaN	5177700.7463246	NaN	5177701.7297191	5177702.24626968
116	19	1	0	90	36.1581920903955	36.241610738255	18	0.60003532782197	2	1	4	NaN	1	5	0.245489495646974	0	1	NaN	420	7	42	2	120	220	320	NaN	520	0.0514737209305167	2	0	NaN	5177703.1630798	NaN	5177704.14663	5177704.66317418
116	19	1	0	90	36.1581920903955	36.241610738255	22	0.733376511782408	2	10	3	NaN	2	5	0.245489495646974	0	1	NaN	421	7	43	2	120	220	320	NaN	520	0.0844544675201178	2	1	NaN	5177705.5301354	NaN	5177706.5135709	5177707.03007153
116	19	1	0	90	36.1581920903955	36.241610738255	18	0.60003532782197	2	12	5	NaN	2	5	0.245489495646974	0	1	NaN	422	7	44	2	120	220	320	NaN	520	0.0684444149956107	2	1	NaN	5177707.9303511	NaN	5177708.9137772	5177709.43030328
116	19	1	0	90	36.1581920903955	36.241610738255	12	0.400023551881313	2	2	5	NaN	1	5	0.245489495646974	0	1	NaN	423	7	45	2	120	220	320	NaN	520	0.0104210684075952	2	0	NaN	5177710.3139192	NaN	5177711.2973449	5177711.81387093
116	19	1	0	90	36.1581920903955	36.241610738255	11	0.366688255891204	2	10	6	NaN	2	4	0.245489495646974	0	1	NaN	424	7	46	2	120	220	320	NaN	520	0.129593315534294	2	1	NaN	5177712.7975195	NaN	5177713.7808998	5177714.29744898
116	19	1	0	90	36.1581920903955	36.241610738255	6	0.200011775940657	2	8	4	NaN	2	3	0.245489495646974	0	1	NaN	425	7	47	2	120	220	320	NaN	520	0.054812072776258	2	1	NaN	5177715.2477502	NaN	5177716.2311497	5177716.74769813
116	19	1	0	90	36.1581920903955	36.241610738255	22	0.733376511782408	2	3	5	NaN	1	3	0.245489495646974	0	1	NaN	426	7	48	2	120	220	320	NaN	520	0.0103965206071734	1	1	NaN	5177717.6979611	NaN	5177718.68139	5177719.19794208
116	19	1	0	90	36.1581920903955	36.241610738255	8	0.266682367920876	2	5	5	NaN	1	4	0.245489495646974	0	1	NaN	427	7	49	2	120	220	320	NaN	520	0.207855467684567	1	1	NaN	5177720.0148893	NaN	5177720.998285	5177721.51482703
116	19	1	0	90	36.1581920903955	36.241610738255	11	0.366688255891204	2	4	6	NaN	1	5	0.245489495646974	0	1	NaN	428	7	50	2	120	220	320	NaN	520	0.0350111154839396	2	0	NaN	5177722.5317952	NaN	5177723.5151957	5177724.03173798
116	19	1	0	90	36.1581920903955	36.241610738255	19	0.63337062381208	2	2	5	NaN	1	3	0.245489495646974	0	1	NaN	429	7	51	2	120	220	320	NaN	520	0.034584067761898	2	0	NaN	5177725.3320808	NaN	5177726.315478	5177726.83201633
116	19	1	0	90	36.1581920903955	36.241610738255	22	0.733376511782408	2	4	4	NaN	1	3	0.245489495646974	0	1	NaN	430	7	52	2	120	220	320	NaN	520	0.0443153204396367	2	0	NaN	5177727.6823086	NaN	5177728.6657114	5177729.18225358
116	19	1	0	90	36.1581920903955	36.241610738255	14	0.466694143861532	2	1	3	NaN	1	5	0.245489495646974	0	1	NaN	431	7	53	2	120	220	320	NaN	520	0.062101767398417	2	0	NaN	5177730.0325155	NaN	5177731.0159272	5177731.53247943
116	19	1	0	90	36.1581920903955	36.241610738255	0	0	1	1	5	NaN	1	5	0.245489495646974	0	1	NaN	432	7	54	2	110	210	310	NaN	510	0.0104169677942991	2	0	NaN	5177732.4161337	NaN	5177733.3995184	5177733.91605693
116	19	1	0	90	36.1581920903955	36.241610738255	8	0.266682367920876	2	9	3	NaN	2	3	0.245489495646974	0	1	NaN	433	7	55	2	120	220	320	NaN	520	0.137589315883815	1	0	NaN	5177734.7330249	NaN	5177735.7163956	5177736.23294708
116	19	1	0	90	36.1581920903955	36.241610738255	20	0.666705919802189	2	6	6	NaN	1	4	0.245489495646974	0	1	NaN	434	7	56	2	120	220	320	NaN	520	0.0233885161578655	1	1	NaN	5177737.1832504	NaN	5177738.1667007	5177738.68321438
116	19	1	0	90	36.1581920903955	36.241610738255	12	0.400023551881313	2	9	6	NaN	2	4	0.245489495646974	0	1	NaN	435	7	57	2	120	220	320	NaN	520	0.0180817684158683	2	1	NaN	5177739.5168006	NaN	5177740.500196	5177741.01674283
116	19	1	0	90	36.1581920903955	36.241610738255	19	0.63337062381208	2	9	2	NaN	2	4	0.245489495646974	0	1	NaN	436	7	58	2	120	220	320	NaN	520	0.0923676677048206	1	0	NaN	5177741.8503982	NaN	5177742.8337703	5177743.35030433
116	19	1	0	90	36.1581920903955	36.241610738255	13	0.433358847871423	2	12	5	NaN	2	5	0.245489495646974	0	1	NaN	437	7	59	2	120	220	320	NaN	520	0.0104331159964204	1	0	NaN	5177744.2505433	NaN	5177745.2340003	5177745.75055078
116	19	1	0	90	36.1581920903955	36.241610738255	21	0.700041215792298	2	10	2	NaN	2	4	0.245489495646974	0	1	NaN	438	7	60	2	120	220	320	NaN	520	0.14320201613009	2	1	NaN	5177746.567506	NaN	5177747.5508989	5177748.06743928
116	19	1	0	90	36.1581920903955	36.241610738255	23	0.766711807772517	2	7	1	NaN	2	4	0.245489495646974	0	1	NaN	439	7	61	2	120	220	320	NaN	520	0.0842035207897425	2	1	NaN	5177749.0344145	NaN	5177750.0178024	5177750.53435708
116	19	1	0	90	36.1581920903955	36.241610738255	17	0.566700031831861	2	11	1	NaN	2	5	0.245489495646974	0	1	NaN	440	7	62	2	120	220	320	NaN	520	0.0199872674420476	2	1	NaN	5177751.4346302	NaN	5177752.4180519	5177752.93459263
116	19	1	0	90	36.1581920903955	36.241610738255	15	0.500029439851642	2	4	6	NaN	1	3	0.245489495646974	0	1	NaN	441	7	63	2	120	220	320	NaN	520	0.0104068676009774	2	0	NaN	5177753.7682237	NaN	5177754.7515839	5177755.26816003
116	19	1	0	90	36.1581920903955	36.241610738255	6	0.200011775940657	2	9	2	NaN	2	4	0.245489495646974	0	1	NaN	442	8	1	2	120	220	320	NaN	520	1.01823562011123	2	1	NaN	5177757.2685097	NaN	5177758.2519433	5177758.76849468
116	19	1	0	90	36.1581920903955	36.241610738255	18	0.60003532782197	2	8	5	NaN	2	5	0.245489495646974	0	1	NaN	443	8	2	2	120	220	320	NaN	520	0.548922815360129	2	1	NaN	5177760.6022101	NaN	5177761.5856155	5177762.10215068
116	19	1	0	90	36.1581920903955	36.241610738255	18	0.60003532782197	2	9	4	NaN	2	3	0.245489495646974	0	1	NaN	444	8	3	2	120	220	320	NaN	520	0.121887068264186	1	0	NaN	5177763.4691965	NaN	5177764.4525546	5177764.96910433
116	19	1	0	90	36.1581920903955	36.241610738255	7	0.233347071930766	2	8	3	NaN	2	5	0.245489495646974	0	1	NaN	445	8	4	2	120	220	320	NaN	520	0.0319070098921657	1	0	NaN	5177765.9027259	NaN	5177766.886133	5177767.40267669
116	19	1	0	90	36.1581920903955	36.241610738255	19	0.63337062381208	2	4	1	NaN	1	3	0.245489495646974	0	1	NaN	446	8	5	2	120	220	320	NaN	520	0.193868021480739	2	0	NaN	5177768.2529509	NaN	5177769.236355	5177769.75291398
116	19	1	0	90	36.1581920903955	36.241610738255	11	0.366688255891204	2	9	2	NaN	2	4	0.245489495646974	0	1	NaN	447	8	6	2	120	220	320	NaN	520	0.164910321123898	1	0	NaN	5177770.7698908	NaN	5177771.7532808	5177772.26982468
116	19	1	0	90	36.1581920903955	36.241610738255	25	0.833382399752736	2	5	6	NaN	1	3	0.245489495646974	0	1	NaN	448	8	7	2	120	220	320	NaN	520	0.0651872204616666	2	0	NaN	5177773.2534607	NaN	5177774.2368495	5177774.75342128
116	19	1	0	90	36.1581920903955	36.241610738255	7	0.233347071930766	2	2	5	NaN	1	5	0.245489495646974	0	1	NaN	449	8	8	2	120	220	320	NaN	520	0.017770467326045	2	0	NaN	5177775.6370064	NaN	5177776.6204156	5177777.13697043
116	19	1	0	90	36.1581920903955	36.241610738255	25	0.833382399752736	2	9	2	NaN	2	3	0.245489495646974	0	1	NaN	450	8	9	2	120	220	320	NaN	520	0.0408508209511638	1	0	NaN	5177778.4539782	NaN	5177779.437384	5177779.95391618
116	19	1	0	90	36.1581920903955	36.241610738255	11	0.366688255891204	2	12	6	NaN	2	5	0.245489495646974	0	1	NaN	451	8	10	2	120	220	320	NaN	520	0.0265249153599143	1	0	NaN	5177780.8041797	NaN	5177781.787595	5177782.30413358
116	19	1	0	90	36.1581920903955	36.241610738255	13	0.433358847871423	2	11	5	NaN	2	5	0.245489495646974	0	1	NaN	452	8	11	2	120	220	320	NaN	520	0.13285612128675	1	0	NaN	5177783.1377549	NaN	5177784.1211535	5177784.63770968
116	19	1	0	90	36.1581920903955	36.241610738255	19	0.63337062381208	2	8	2	NaN	2	4	0.245489495646974	0	1	NaN	453	8	12	2	120	220	320	NaN	520	0.0104319155216217	1	0	NaN	5177785.9880737	NaN	5177786.9714516	5177787.48797538
116	19	1	0	90	36.1581920903955	36.241610738255	20	0.666705919802189	2	8	5	NaN	2	5	0.245489495646974	0	1	NaN	454	8	13	2	120	220	320	NaN	520	0.182207221165299	1	0	NaN	5177788.3048054	NaN	5177789.2883272	5177789.80488218
116	19	1	0	90	36.1581920903955	36.241610738255	8	0.266682367920876	2	10	5	NaN	2	5	0.245489495646974	0	1	NaN	455	8	14	2	120	220	320	NaN	520	0.0104075679555535	1	0	NaN	5177791.2385706	NaN	5177792.2219355	5177792.73850283
116	19	1	0	90	36.1581920903955	36.241610738255	14	0.466694143861532	2	10	2	NaN	2	5	0.245489495646974	0	1	NaN	456	8	15	2	120	220	320	NaN	520	0.0104380156844854	1	0	NaN	5177793.5554318	NaN	5177794.5388369	5177795.05539608
116	19	1	0	90	36.1581920903955	36.241610738255	21	0.700041215792298	2	3	3	NaN	1	3	0.245489495646974	0	1	NaN	457	8	16	2	120	220	320	NaN	520	0.0103972209617496	1	1	NaN	5177795.8723304	NaN	5177796.8557466	5177797.37229268
