subjno	age	gender	isPractice	viewdist	CmToPixX	CmToPixY	SOA_frm	SOA_time	targNum	targID	targExample	targRace	targGender	firstTargPos	contrast	familiarity	curr_staircase	iStair	TrialNum	BlockNum	blktrl	sessionNum	TC_FIXATION	TC_RSVP_START	TC_RSVP_END	TC_BLANK	TC_RESPONSE_ONSET	RT2afc	resp_2afc	acc	RSVPOnsetVBL	RSVPOnsetTime	RSVPOffsetVBL	RSVPOffsetTime	startrt_2afc
28	20	1	0	90	36.1581920903955	36.241610738255	25	0.833388099912554	2	11	1	NaN	2	4	0.132056268018382	0	1	NaN	1	1	1	2	120	220	320	NaN	520	0.639264926780015	2	1	NaN	1296401.6484223	NaN	1296402.6317543	1296403.16481857
28	20	1	0	90	36.1581920903955	36.241610738255	10	0.333355239965022	2	1	2	NaN	1	4	0.132056268018382	0	1	NaN	2	1	2	2	120	220	320	NaN	520	0.261541526531801	1	1	NaN	1296407.282296	NaN	1296408.2655578	1296408.79870357
28	20	1	0	90	36.1581920903955	36.241610738255	21	0.700046003926545	2	3	6	NaN	1	5	0.132056268018382	0	1	NaN	3	1	3	2	120	220	320	NaN	520	0.269719373900443	2	0	NaN	1296409.8823396	NaN	1296410.8657201	1296411.38228213
28	20	1	0	90	36.1581920903955	36.241610738255	24	0.800052575916052	2	9	6	NaN	2	3	0.132056268018382	0	1	NaN	4	1	4	2	120	220	320	NaN	520	0.229939942248166	2	1	NaN	1296412.4826151	NaN	1296413.4660106	1296413.98254126
28	20	1	0	90	36.1581920903955	36.241610738255	10	0.333355239965022	2	12	1	NaN	2	3	0.132056268018382	0	1	NaN	5	1	5	2	120	220	320	NaN	520	0.0792189217172563	1	0	NaN	1296415.0327307	NaN	1296416.0162441	1296416.53279908
28	20	1	0	90	36.1581920903955	36.241610738255	22	0.733381527923048	2	2	5	NaN	1	3	0.132056268018382	0	1	NaN	6	1	6	2	120	220	320	NaN	520	0.238987221615389	2	0	NaN	1296417.4330862	NaN	1296418.4163775	1296418.93305108
28	20	1	0	90	36.1581920903955	36.241610738255	13	0.433361811954528	2	1	4	NaN	1	5	0.132056268018382	0	1	NaN	7	1	7	2	120	220	320	NaN	520	0.18345248978585	2	0	NaN	1296420.2166858	NaN	1296421.2000781	1296421.71663541
28	20	1	0	90	36.1581920903955	36.241610738255	19	0.633374955933541	2	3	5	NaN	1	4	0.132056268018382	0	1	NaN	8	1	8	2	120	220	320	NaN	520	0.0777317218016833	1	1	NaN	1296423.0501717	NaN	1296424.0337534	1296424.55024668
28	20	1	0	90	36.1581920903955	36.241610738255	18	0.600039431937039	2	3	3	NaN	1	5	0.132056268018382	0	1	NaN	9	1	9	2	120	220	320	NaN	520	0.247119689825922	1	1	NaN	1296425.8172115	NaN	1296426.8006292	1296427.31718431
28	20	1	0	90	36.1581920903955	36.241610738255	21	0.700046003926545	2	10	5	NaN	2	4	0.132056268018382	0	1	NaN	10	1	10	2	120	220	320	NaN	520	0.281160074053332	1	0	NaN	1296428.7508294	NaN	1296429.7342899	1296430.25081073
28	20	1	0	90	36.1581920903955	36.241610738255	14	0.46669733595103	2	8	6	NaN	2	4	0.132056268018382	0	1	NaN	11	1	11	2	120	220	320	NaN	520	0.0983226215466857	2	1	NaN	1296431.7177283	NaN	1296432.7011914	1296433.21776528
28	20	1	0	90	36.1581920903955	36.241610738255	22	0.733381527923048	2	3	1	NaN	1	5	0.132056268018382	0	1	NaN	12	1	12	2	120	220	320	NaN	520	0.105623068986461	1	1	NaN	1296434.1345808	NaN	1296435.1181148	1296435.63466463
28	20	1	0	90	36.1581920903955	36.241610738255	16	0.533368383944035	2	9	3	NaN	2	5	0.132056268018382	0	1	NaN	13	1	13	2	120	220	320	NaN	520	0.578790069092065	2	1	NaN	1296436.9015206	NaN	1296437.8850527	1296438.40159923
28	20	1	0	90	36.1581920903955	36.241610738255	11	0.366690763961524	2	8	6	NaN	2	5	0.132056268018382	0	1	NaN	14	1	14	2	120	220	320	NaN	520	0.0941823690664023	1	0	NaN	1296439.8019641	NaN	1296440.7853298	1296441.30188503
28	20	1	0	90	36.1581920903955	36.241610738255	0	0	1	10	6	NaN	2	4	0.132056268018382	0	1	NaN	15	1	15	2	110	210	310	NaN	510	0.013285321649164	2	1	NaN	1296442.218836	NaN	1296443.2022345	1296443.71880198
28	20	1	0	90	36.1581920903955	36.241610738255	10	0.333355239965022	2	2	1	NaN	1	5	0.132056268018382	0	1	NaN	16	1	16	2	120	220	320	NaN	520	0.103726268978789	1	1	NaN	1296444.5524223	NaN	1296445.5358111	1296446.05235813
28	20	1	0	90	36.1581920903955	36.241610738255	20	0.666710479930043	2	7	6	NaN	2	4	0.132056268018382	0	1	NaN	17	1	17	2	120	220	320	NaN	520	0.0104142690543085	2	1	NaN	1296447.3359869	NaN	1296448.3194146	1296448.83595663
28	20	1	0	90	36.1581920903955	36.241610738255	7	0.233348667975515	2	2	2	NaN	1	4	0.132056268018382	0	1	NaN	18	1	18	2	120	220	320	NaN	520	0.154502874240279	2	0	NaN	1296449.6695958	NaN	1296450.6529728	1296451.16951923
28	20	1	0	90	36.1581920903955	36.241610738255	18	0.600039431937039	2	8	4	NaN	2	5	0.132056268018382	0	1	NaN	19	1	19	2	120	220	320	NaN	520	0.198592321481556	2	1	NaN	1296452.569927	NaN	1296453.5532519	1296454.06981778
28	20	1	0	90	36.1581920903955	36.241610738255	20	0.666710479930043	2	4	1	NaN	1	5	0.132056268018382	0	1	NaN	20	1	20	2	120	220	320	NaN	520	0.0654228215571493	1	1	NaN	1296455.0867834	NaN	1296456.0701712	1296456.58672698
28	20	1	0	90	36.1581920903955	36.241610738255	7	0.233348667975515	2	6	5	NaN	1	5	0.132056268018382	0	1	NaN	21	1	21	2	120	220	320	NaN	520	0.0991185689345002	1	1	NaN	1296457.8369457	NaN	1296458.8204633	1296459.33698993
28	20	1	0	90	36.1581920903955	36.241610738255	8	0.266684191972017	2	5	3	NaN	1	3	0.132056268018382	0	1	NaN	22	1	22	2	120	220	320	NaN	520	0.162458221660927	2	0	NaN	1296460.2539421	NaN	1296461.2373476	1296461.75389398
28	20	1	0	90	36.1581920903955	36.241610738255	23	0.76671705191955	2	2	4	NaN	1	3	0.132056268018382	0	1	NaN	23	1	23	2	120	220	320	NaN	520	0.302270221523941	1	1	NaN	1296462.7374101	NaN	1296463.7209214	1296464.23748048
28	20	1	0	90	36.1581920903955	36.241610738255	7	0.233348667975515	2	3	6	NaN	1	3	0.132056268018382	0	1	NaN	24	1	24	2	120	220	320	NaN	520	0.0458727690856904	1	1	NaN	1296465.3544419	NaN	1296466.3378504	1296466.85439923
28	20	1	0	90	36.1581920903955	36.241610738255	11	0.366690763961524	2	10	5	NaN	2	3	0.132056268018382	0	1	NaN	25	1	25	2	120	220	320	NaN	520	0.0104137691669166	1	0	NaN	1296467.7212433	NaN	1296468.7047401	1296469.22129253
28	20	1	0	90	36.1581920903955	36.241610738255	21	0.700046003926545	2	7	1	NaN	2	3	0.132056268018382	0	1	NaN	26	1	26	2	120	220	320	NaN	520	0.0104103691410273	2	1	NaN	1296470.0549575	NaN	1296471.0383167	1296471.55485543
28	20	1	0	90	36.1581920903955	36.241610738255	8	0.266684191972017	2	2	4	NaN	1	4	0.132056268018382	0	1	NaN	27	1	27	2	120	220	320	NaN	520	0.10787906893529	1	1	NaN	1296472.3884733	NaN	1296473.3718629	1296473.88841553
28	20	1	0	90	36.1581920903955	36.241610738255	13	0.433361811954528	2	11	6	NaN	2	4	0.132056268018382	0	1	NaN	28	1	28	2	120	220	320	NaN	520	0.0901551689021289	2	1	NaN	1296474.8220113	NaN	1296475.8054452	1296476.32199123
28	20	1	0	90	36.1581920903955	36.241610738255	20	0.666710479930043	2	11	1	NaN	2	5	0.132056268018382	0	1	NaN	29	1	29	2	120	220	320	NaN	520	0.0104156690649688	1	0	NaN	1296477.2389493	NaN	1296478.2223641	1296478.73889223
28	20	1	0	90	36.1581920903955	36.241610738255	16	0.533368383944035	2	3	4	NaN	1	3	0.132056268018382	0	1	NaN	30	1	30	2	120	220	320	NaN	520	0.0676773688755929	2	0	NaN	1296479.5725339	NaN	1296480.5559066	1296481.07246393
28	20	1	0	90	36.1581920903955	36.241610738255	22	0.733381527923048	2	11	4	NaN	2	5	0.132056268018382	0	1	NaN	31	1	31	2	120	220	320	NaN	520	0.152719921665266	1	0	NaN	1296482.2394407	NaN	1296483.2228366	1296483.73939708
28	20	1	0	90	36.1581920903955	36.241610738255	7	0.233348667975515	2	11	3	NaN	2	4	0.132056268018382	0	1	NaN	32	1	32	2	120	220	320	NaN	520	0.164973200997338	2	1	NaN	1296484.7229124	NaN	1296485.7064213	1296486.2229571
28	20	1	0	90	36.1581920903955	36.241610738255	12	0.400026287958026	2	5	6	NaN	1	4	0.132056268018382	0	1	NaN	33	1	33	2	120	220	320	NaN	520	0.121664221864194	1	1	NaN	1296487.2066047	NaN	1296488.1899899	1296488.70655088
28	20	1	0	90	36.1581920903955	36.241610738255	9	0.30001971596852	2	3	6	NaN	1	4	0.132056268018382	0	1	NaN	34	1	34	2	120	220	320	NaN	520	0.103236669208854	1	1	NaN	1296489.6568459	NaN	1296490.6402331	1296491.15678723
28	20	1	0	90	36.1581920903955	36.241610738255	15	0.500032859947532	2	4	3	NaN	1	5	0.132056268018382	0	1	NaN	35	1	35	2	120	220	320	NaN	520	0.0104112690314651	1	1	NaN	1296492.0904126	NaN	1296493.0737961	1296493.59034973
28	20	1	0	90	36.1581920903955	36.241610738255	10	0.333355239965022	2	8	1	NaN	2	5	0.132056268018382	0	1	NaN	36	1	36	2	120	220	320	NaN	520	0.112015321617946	2	1	NaN	1296494.4239027	NaN	1296495.4073688	1296495.92392458
28	20	1	0	90	36.1581920903955	36.241610738255	25	0.833388099912554	2	8	2	NaN	2	4	0.132056268018382	0	1	NaN	37	1	37	2	120	220	320	NaN	520	0.206593969138339	1	0	NaN	1296496.8575518	NaN	1296497.8409285	1296498.35748613
28	20	1	0	90	36.1581920903955	36.241610738255	13	0.433361811954528	2	12	3	NaN	2	3	0.132056268018382	0	1	NaN	38	1	38	2	120	220	320	NaN	520	0.155816321726888	1	0	NaN	1296499.5243312	NaN	1296500.5078682	1296501.02441868
28	20	1	0	90	36.1581920903955	36.241610738255	16	0.533368383944035	2	12	2	NaN	2	3	0.132056268018382	0	1	NaN	39	1	39	2	120	220	320	NaN	520	0.104814821621403	2	1	NaN	1296501.9913814	NaN	1296502.9747663	1296503.49133448
28	20	1	0	90	36.1581920903955	36.241610738255	21	0.700046003926545	2	3	1	NaN	1	3	0.132056268018382	0	1	NaN	40	1	40	2	120	220	320	NaN	520	0.511817469028756	2	0	NaN	1296504.4082787	NaN	1296505.3916718	1296505.90822543
28	20	1	0	90	36.1581920903955	36.241610738255	0	0	1	5	2	NaN	1	5	0.132056268018382	0	1	NaN	41	1	41	2	110	210	310	NaN	510	0.0949617216829211	1	1	NaN	1296507.2252229	NaN	1296508.2086315	1296508.72517748
28	20	1	0	90	36.1581920903955	36.241610738255	10	0.333355239965022	2	10	1	NaN	2	4	0.132056268018382	0	1	NaN	42	1	42	2	120	220	320	NaN	520	0.182321168947965	2	1	NaN	1296509.6421427	NaN	1296510.6255195	1296511.14207533
28	20	1	0	90	36.1581920903955	36.241610738255	18	0.600039431937039	2	1	3	NaN	1	5	0.132056268018382	0	1	NaN	43	1	43	2	120	220	320	NaN	520	0.186012468999252	2	0	NaN	1296512.1423726	NaN	1296513.1257564	1296513.64231923
28	20	1	0	90	36.1581920903955	36.241610738255	24	0.800052575916052	2	3	3	NaN	1	5	0.132056268018382	0	1	NaN	44	1	44	2	120	220	320	NaN	520	0.0776874164585024	1	1	NaN	1296514.6424972	NaN	1296515.6260096	1296516.14257558
28	20	1	0	90	36.1581920903955	36.241610738255	17	0.566703907940537	2	2	6	NaN	1	4	0.132056268018382	0	1	NaN	45	1	45	2	120	220	320	NaN	520	0.157385869184509	2	0	NaN	1296517.0428934	NaN	1296518.0262401	1296518.54281553
28	20	1	0	90	36.1581920903955	36.241610738255	6	0.200013143979013	2	3	5	NaN	1	3	0.132056268018382	0	1	NaN	46	1	46	2	120	220	320	NaN	520	0.130428869044408	1	1	NaN	1296519.5097634	NaN	1296520.4931639	1296521.00971753
28	20	1	0	90	36.1581920903955	36.241610738255	21	0.700046003926545	2	2	6	NaN	1	5	0.132056268018382	0	1	NaN	47	1	47	2	120	220	320	NaN	520	0.368088589748368	1	1	NaN	1296521.9600073	NaN	1296522.9434013	1296523.45995791
28	20	1	0	90	36.1581920903955	36.241610738255	20	0.666710479930043	2	12	5	NaN	2	4	0.132056268018382	0	1	NaN	48	1	48	2	120	220	320	NaN	520	0.364461511140689	2	1	NaN	1296524.6435998	NaN	1296525.6269968	1296526.14354749
28	20	1	0	90	36.1581920903955	36.241610738255	18	0.600039431937039	2	11	1	NaN	2	4	0.132056268018382	0	1	NaN	49	1	49	2	120	220	320	NaN	520	0.320977421477437	2	1	NaN	1296527.3271993	NaN	1296528.3106072	1296528.82715518
28	20	1	0	90	36.1581920903955	36.241610738255	0	0	1	10	2	NaN	2	4	0.132056268018382	0	1	NaN	50	1	50	2	110	210	310	NaN	510	0.287292047403753	1	0	NaN	1296529.9607905	NaN	1296530.9441854	1296531.46077005
28	20	1	0	90	36.1581920903955	36.241610738255	6	0.200013143979013	2	11	3	NaN	2	3	0.132056268018382	0	1	NaN	51	1	51	2	120	220	320	NaN	520	0.343528269091621	2	1	NaN	1296532.5610441	NaN	1296533.5444357	1296534.06099083
28	20	1	0	90	36.1581920903955	36.241610738255	11	0.366690763961524	2	11	2	NaN	2	5	0.132056268018382	0	1	NaN	52	1	52	2	120	220	320	NaN	520	0.252501816488802	2	1	NaN	1296535.2279782	NaN	1296536.2113677	1296536.72792568
28	20	1	0	90	36.1581920903955	36.241610738255	17	0.566703907940537	2	10	1	NaN	2	4	0.132056268018382	0	1	NaN	53	1	53	2	120	220	320	NaN	520	0.285450363764539	2	1	NaN	1296537.7948881	NaN	1296538.7782969	1296539.29483474
28	20	1	0	90	36.1581920903955	36.241610738255	9	0.30001971596852	2	1	2	NaN	1	5	0.132056268018382	0	1	NaN	54	1	54	2	120	220	320	NaN	520	0.0850812164135277	1	1	NaN	1296540.395176	NaN	1296541.3785491	1296541.89509658
28	20	1	0	90	36.1581920903955	36.241610738255	12	0.400026287958026	2	12	5	NaN	2	4	0.132056268018382	0	1	NaN	55	1	55	2	120	220	320	NaN	520	0.172807321650907	2	1	NaN	1296542.795403	NaN	1296543.7788182	1296544.29534118
28	20	1	0	90	36.1581920903955	36.241610738255	15	0.500032859947532	2	10	1	NaN	2	5	0.132056268018382	0	1	NaN	56	1	56	2	120	220	320	NaN	520	0.0326280165463686	2	1	NaN	1296545.2956351	NaN	1296546.2790403	1296546.79557468
28	20	1	0	90	36.1581920903955	36.241610738255	0	0	1	4	2	NaN	1	3	0.132056268018382	0	1	NaN	57	1	57	2	110	210	310	NaN	510	0.0377582691144198	1	1	NaN	1296547.9625443	NaN	1296548.9459543	1296549.46250093
28	20	1	0	90	36.1581920903955	36.241610738255	12	0.400026287958026	2	6	4	NaN	1	5	0.132056268018382	0	1	NaN	58	1	58	2	120	220	320	NaN	520	0.161440669093281	1	1	NaN	1296550.6627892	NaN	1296551.6462225	1296552.16276493
28	20	1	0	90	36.1581920903955	36.241610738255	9	0.30001971596852	2	1	3	NaN	1	5	0.132056268018382	0	1	NaN	59	1	59	2	120	220	320	NaN	520	0.550874021602795	2	0	NaN	1296553.1297341	NaN	1296554.1131435	1296554.62968778
28	20	1	0	90	36.1581920903955	36.241610738255	10	0.333355239965022	2	9	1	NaN	2	4	0.132056268018382	0	1	NaN	60	1	60	2	120	220	320	NaN	520	0.227362869074568	2	1	NaN	1296555.9966833	NaN	1296556.9800761	1296557.49662983
28	20	1	0	90	36.1581920903955	36.241610738255	7	0.233348667975515	2	7	2	NaN	2	3	0.132056268018382	0	1	NaN	61	1	61	2	120	220	320	NaN	520	0.126028774073347	2	1	NaN	1296558.5302625	NaN	1296559.5136626	1296560.03021343
28	20	1	0	90	36.1581920903955	36.241610738255	22	0.733381527923048	2	12	4	NaN	2	4	0.132056268018382	0	1	NaN	62	1	62	2	120	220	320	NaN	520	0.010417568963021	2	1	NaN	1296560.9805144	NaN	1296561.9639177	1296562.48044693
28	20	1	0	90	36.1581920903955	36.241610738255	11	0.366690763961524	2	11	4	NaN	2	5	0.132056268018382	0	1	NaN	63	1	63	2	120	220	320	NaN	520	0.166308221640065	2	1	NaN	1296563.3140617	NaN	1296564.2974542	1296564.81401948
28	20	1	0	90	36.1581920903955	36.241610738255	19	0.633374955933541	2	2	1	NaN	1	5	0.132056268018382	0	1	NaN	64	2	1	2	120	220	320	NaN	520	0.302934969076887	2	0	NaN	1296578.265508	NaN	1296579.2489083	1296579.76547873
28	20	1	0	90	36.1581920903955	36.241610738255	16	0.533368383944035	2	2	2	NaN	1	5	0.132056268018382	0	1	NaN	65	2	2	2	120	220	320	NaN	520	0.095123594859615	1	1	NaN	1296581.8491817	NaN	1296582.8326158	1296583.34917931
28	20	1	0	90	36.1581920903955	36.241610738255	25	0.833388099912554	2	10	3	NaN	2	5	0.132056268018382	0	1	NaN	66	2	3	2	120	220	320	NaN	520	0.268371168989688	2	1	NaN	1296584.7161533	NaN	1296585.6995433	1296586.21610873
28	20	1	0	90	36.1581920903955	36.241610738255	24	0.800052575916052	2	11	6	NaN	2	3	0.132056268018382	0	1	NaN	67	2	4	2	120	220	320	NaN	520	0.0905182689893991	2	1	NaN	1296587.7496734	NaN	1296588.7332299	1296589.24974723
28	20	1	0	90	36.1581920903955	36.241610738255	16	0.533368383944035	2	4	4	NaN	1	3	0.132056268018382	0	1	NaN	68	2	5	2	120	220	320	NaN	520	0.36843226919882	1	1	NaN	1296590.6000555	NaN	1296591.5835397	1296592.10001833
28	20	1	0	90	36.1581920903955	36.241610738255	13	0.433361811954528	2	3	2	NaN	1	4	0.132056268018382	0	1	NaN	69	2	6	2	120	220	320	NaN	520	0.256379321683198	1	1	NaN	1296593.6003228	NaN	1296594.5837828	1296595.10032758
28	20	1	0	90	36.1581920903955	36.241610738255	0	0	1	7	2	NaN	2	3	0.132056268018382	0	1	NaN	70	2	7	2	110	210	310	NaN	510	0.249652079306543	2	1	NaN	1296596.3506472	NaN	1296597.3340299	1296597.85059882
28	20	1	0	90	36.1581920903955	36.241610738255	9	0.30001971596852	2	10	2	NaN	2	5	0.132056268018382	0	1	NaN	71	2	8	2	120	220	320	NaN	520	0.122811837121844	1	0	NaN	1296598.9175995	NaN	1296599.9009613	1296600.41751606
28	20	1	0	90	36.1581920903955	36.241610738255	19	0.633374955933541	2	1	6	NaN	1	4	0.132056268018382	0	1	NaN	72	2	9	2	120	220	320	NaN	520	0.247790273977444	1	1	NaN	1296601.7845404	NaN	1296602.7679191	1296603.28445303
28	20	1	0	90	36.1581920903955	36.241610738255	23	0.76671705191955	2	10	2	NaN	2	5	0.132056268018382	0	1	NaN	73	2	10	2	120	220	320	NaN	520	0.104871921706945	2	1	NaN	1296604.3514297	NaN	1296605.3348231	1296605.85137948
28	20	1	0	90	36.1581920903955	36.241610738255	17	0.566703907940537	2	9	1	NaN	2	5	0.132056268018382	0	1	NaN	74	2	11	2	120	220	320	NaN	520	0.119911069050431	2	1	NaN	1296606.768325	NaN	1296607.7517148	1296608.26827473
28	20	1	0	90	36.1581920903955	36.241610738255	9	0.30001971596852	2	11	6	NaN	2	3	0.132056268018382	0	1	NaN	75	2	12	2	120	220	320	NaN	520	0.11039902176708	1	0	NaN	1296609.2018096	NaN	1296610.1853625	1296610.70185938
28	20	1	0	90	36.1581920903955	36.241610738255	20	0.666710479930043	2	3	1	NaN	1	3	0.132056268018382	0	1	NaN	76	2	13	2	120	220	320	NaN	520	0.292903969064355	2	0	NaN	1296611.635359	NaN	1296612.6188608	1296613.13541643
28	20	1	0	90	36.1581920903955	36.241610738255	9	0.30001971596852	2	2	5	NaN	1	5	0.132056268018382	0	1	NaN	77	2	14	2	120	220	320	NaN	520	0.100002463674173	1	1	NaN	1296614.6524597	NaN	1296615.6358391	1296616.15237894
28	20	1	0	90	36.1581920903955	36.241610738255	20	0.666710479930043	2	7	2	NaN	2	3	0.132056268018382	0	1	NaN	78	2	15	2	120	220	320	NaN	520	0.443299821577966	1	0	NaN	1296617.0693462	NaN	1296618.0527298	1296618.56929868
28	20	1	0	90	36.1581920903955	36.241610738255	12	0.400026287958026	2	11	3	NaN	2	4	0.132056268018382	0	1	NaN	79	2	16	2	120	220	320	NaN	520	0.213057189714164	1	0	NaN	1296619.8196037	NaN	1296620.8030218	1296621.31956061
28	20	1	0	90	36.1581920903955	36.241610738255	24	0.800052575916052	2	11	5	NaN	2	5	0.132056268018382	0	1	NaN	80	2	17	2	120	220	320	NaN	520	0.167247026693076	2	1	NaN	1296622.3531846	NaN	1296623.3365884	1296623.85314487
28	20	1	0	90	36.1581920903955	36.241610738255	14	0.46669733595103	2	11	3	NaN	2	5	0.132056268018382	0	1	NaN	81	2	18	2	120	220	320	NaN	520	0.0836796690709889	2	1	NaN	1296624.8367763	NaN	1296625.8201749	1296626.33671773
28	20	1	0	90	36.1581920903955	36.241610738255	7	0.233348667975515	2	8	1	NaN	2	5	0.132056268018382	0	1	NaN	82	2	19	2	120	220	320	NaN	520	0.174401716561988	2	1	NaN	1296627.3703473	NaN	1296628.3537475	1296628.87029438
28	20	1	0	90	36.1581920903955	36.241610738255	0	0	1	7	3	NaN	2	4	0.132056268018382	0	1	NaN	83	2	20	2	110	210	310	NaN	510	0.130595216527581	2	1	NaN	1296629.8539385	NaN	1296630.8373204	1296631.35387898
28	20	1	0	90	36.1581920903955	36.241610738255	21	0.700046003926545	2	12	4	NaN	2	4	0.132056268018382	0	1	NaN	84	2	21	2	120	220	320	NaN	520	0.136910321656615	1	0	NaN	1296632.6875222	NaN	1296633.6709362	1296634.18749768
28	20	1	0	90	36.1581920903955	36.241610738255	11	0.366690763961524	2	3	5	NaN	1	4	0.132056268018382	0	1	NaN	85	2	22	2	120	220	320	NaN	520	0.16665466921404	1	1	NaN	1296635.1376717	NaN	1296636.1211818	1296636.63773383
28	20	1	0	90	36.1581920903955	36.241610738255	8	0.266684191972017	2	5	4	NaN	1	4	0.132056268018382	0	1	NaN	86	2	23	2	120	220	320	NaN	520	0.0498523216228932	1	1	NaN	1296637.6545748	NaN	1296638.6381392	1296639.15465218
28	20	1	0	90	36.1581920903955	36.241610738255	24	0.800052575916052	2	4	2	NaN	1	4	0.132056268018382	0	1	NaN	87	2	24	2	120	220	320	NaN	520	0.194798194803298	1	1	NaN	1296640.0215915	NaN	1296641.0049979	1296641.52155511
28	20	1	0	90	36.1581920903955	36.241610738255	19	0.633374955933541	2	6	4	NaN	1	3	0.132056268018382	0	1	NaN	88	2	25	2	120	220	320	NaN	520	0.109888069098815	2	0	NaN	1296642.5385058	NaN	1296643.521917	1296644.03845203
28	20	1	0	90	36.1581920903955	36.241610738255	24	0.800052575916052	2	4	5	NaN	1	5	0.132056268018382	0	1	NaN	89	2	26	2	120	220	320	NaN	520	0.257682521594688	1	1	NaN	1296645.4386541	NaN	1296646.4221881	1296646.93874788
28	20	1	0	90	36.1581920903955	36.241610738255	13	0.433361811954528	2	6	2	NaN	1	5	0.132056268018382	0	1	NaN	90	2	27	2	120	220	320	NaN	520	0.106737073976547	1	1	NaN	1296648.0057131	NaN	1296648.9891277	1296649.50566053
28	20	1	0	90	36.1581920903955	36.241610738255	10	0.333355239965022	2	7	3	NaN	2	4	0.132056268018382	0	1	NaN	91	2	28	2	120	220	320	NaN	520	0.25778427394107	1	0	NaN	1296650.4226269	NaN	1296651.4060082	1296651.92256663
28	20	1	0	90	36.1581920903955	36.241610738255	19	0.633374955933541	2	9	6	NaN	2	3	0.132056268018382	0	1	NaN	92	2	29	2	120	220	320	NaN	520	0.0104202690999955	2	1	NaN	1296653.4062368	NaN	1296654.3896654	1296654.90618323
28	20	1	0	90	36.1581920903955	36.241610738255	18	0.600039431937039	2	4	1	NaN	1	4	0.132056268018382	0	1	NaN	93	2	30	2	120	220	320	NaN	520	0.165345168905333	2	0	NaN	1296655.7230352	NaN	1296656.7065405	1296657.22308613
28	20	1	0	90	36.1581920903955	36.241610738255	25	0.833388099912554	2	7	3	NaN	2	4	0.132056268018382	0	1	NaN	94	2	31	2	120	220	320	NaN	520	0.0955686690285802	1	0	NaN	1296658.6567311	NaN	1296659.6401498	1296660.15670173
28	20	1	0	90	36.1581920903955	36.241610738255	7	0.233348667975515	2	2	6	NaN	1	4	0.132056268018382	0	1	NaN	95	2	32	2	120	220	320	NaN	520	0.247035221662372	2	0	NaN	1296661.0736587	NaN	1296662.0570436	1296662.57361378
28	20	1	0	90	36.1581920903955	36.241610738255	13	0.433361811954528	2	9	3	NaN	2	3	0.132056268018382	0	1	NaN	96	2	33	2	120	220	320	NaN	520	0.34385952167213	2	1	NaN	1296663.6405823	NaN	1296664.6239719	1296665.14053588
28	20	1	0	90	36.1581920903955	36.241610738255	16	0.533368383944035	2	6	3	NaN	1	3	0.132056268018382	0	1	NaN	97	2	34	2	120	220	320	NaN	520	0.141534821595997	1	1	NaN	1296666.2907886	NaN	1296667.2742424	1296667.79079358
28	20	1	0	90	36.1581920903955	36.241610738255	11	0.366690763961524	2	12	3	NaN	2	3	0.132056268018382	0	1	NaN	98	2	35	2	120	220	320	NaN	520	0.139660821529105	2	1	NaN	1296668.7410786	NaN	1296669.7244739	1296670.24103488
28	20	1	0	90	36.1581920903955	36.241610738255	24	0.800052575916052	2	10	1	NaN	2	3	0.132056268018382	0	1	NaN	99	2	36	2	120	220	320	NaN	520	0.209452668903396	2	1	NaN	1296671.1913248	NaN	1296672.1747259	1296672.69126523
28	20	1	0	90	36.1581920903955	36.241610738255	7	0.233348667975515	2	1	5	NaN	1	4	0.132056268018382	0	1	NaN	100	2	37	2	120	220	320	NaN	520	0.108410269021988	1	1	NaN	1296673.7082356	NaN	1296674.6916261	1296675.20817653
28	20	1	0	90	36.1581920903955	36.241610738255	10	0.333355239965022	2	1	3	NaN	1	5	0.132056268018382	0	1	NaN	101	2	38	2	120	220	320	NaN	520	0.25931927934289	2	0	NaN	1296676.1250269	NaN	1296677.1085633	1296677.62508522
28	20	1	0	90	36.1581920903955	36.241610738255	10	0.333355239965022	2	10	3	NaN	2	4	0.132056268018382	0	1	NaN	102	2	39	2	120	220	320	NaN	520	0.0104119689203799	1	0	NaN	1296678.7253884	NaN	1296679.7087939	1296680.22533483
28	20	1	0	90	36.1581920903955	36.241610738255	19	0.633374955933541	2	8	5	NaN	2	4	0.132056268018382	0	1	NaN	103	2	40	2	120	220	320	NaN	520	0.189537321683019	1	0	NaN	1296681.0589752	NaN	1296682.0423397	1296682.55891248
28	20	1	0	90	36.1581920903955	36.241610738255	0	0	1	2	6	NaN	1	3	0.132056268018382	0	1	NaN	104	2	41	2	110	210	310	NaN	510	0.312921663746238	2	0	NaN	1296683.5758608	NaN	1296684.5592564	1296685.07580974
28	20	1	0	90	36.1581920903955	36.241610738255	7	0.233348667975515	2	9	3	NaN	2	4	0.132056268018382	0	1	NaN	105	2	42	2	120	220	320	NaN	520	0.710850169183686	2	1	NaN	1296686.2093454	NaN	1296687.1928641	1296687.70940703
28	20	1	0	90	36.1581920903955	36.241610738255	25	0.833388099912554	2	5	6	NaN	1	3	0.132056268018382	0	1	NaN	106	2	43	2	120	220	320	NaN	520	0.189716721652076	1	1	NaN	1296689.2430839	NaN	1296690.2265045	1296690.74304638
28	20	1	0	90	36.1581920903955	36.241610738255	17	0.566703907940537	2	12	2	NaN	2	4	0.132056268018382	0	1	NaN	107	2	44	2	120	220	320	NaN	520	0.23202532180585	2	1	NaN	1296692.1767103	NaN	1296693.1601417	1296693.67666618
28	20	1	0	90	36.1581920903955	36.241610738255	6	0.200013143979013	2	7	5	NaN	2	5	0.132056268018382	0	1	NaN	108	2	45	2	120	220	320	NaN	520	0.290741821750998	2	1	NaN	1296695.2935726	NaN	1296696.277073	1296696.79364148
28	20	1	0	90	36.1581920903955	36.241610738255	13	0.433361811954528	2	5	1	NaN	1	4	0.132056268018382	0	1	NaN	109	2	46	2	120	220	320	NaN	520	0.746776368934661	1	1	NaN	1296697.8939439	NaN	1296698.8773421	1296699.39389503
28	20	1	0	90	36.1581920903955	36.241610738255	22	0.733381527923048	2	7	3	NaN	2	4	0.132056268018382	0	1	NaN	110	2	47	2	120	220	320	NaN	520	0.28786886902526	2	1	NaN	1296700.9609048	NaN	1296701.9443064	1296702.46085363
28	20	1	0	90	36.1581920903955	36.241610738255	24	0.800052575916052	2	12	3	NaN	2	3	0.132056268018382	0	1	NaN	111	2	48	2	120	220	320	NaN	520	0.439236921723932	2	1	NaN	1296703.5611718	NaN	1296704.5445745	1296705.06111998
28	20	1	0	90	36.1581920903955	36.241610738255	13	0.433361811954528	2	2	4	NaN	1	5	0.132056268018382	0	1	NaN	112	2	49	2	120	220	320	NaN	520	0.153270216425881	2	0	NaN	1296706.3114514	NaN	1296707.2948178	1296707.81138518
28	20	1	0	90	36.1581920903955	36.241610738255	18	0.600039431937039	2	12	6	NaN	2	5	0.132056268018382	0	1	NaN	113	2	50	2	120	220	320	NaN	520	0.166070669190958	1	0	NaN	1296708.7783522	NaN	1296709.7617414	1296710.27828693
28	20	1	0	90	36.1581920903955	36.241610738255	8	0.266684191972017	2	8	4	NaN	2	3	0.132056268018382	0	1	NaN	114	2	51	2	120	220	320	NaN	520	0.0667356690391898	2	1	NaN	1296711.2619205	NaN	1296712.2453278	1296712.76186783
28	20	1	0	90	36.1581920903955	36.241610738255	19	0.633374955933541	2	5	6	NaN	1	3	0.132056268018382	0	1	NaN	115	2	52	2	120	220	320	NaN	520	0.299299489939585	1	1	NaN	1296713.6453647	NaN	1296714.6289119	1296715.14544141
28	20	1	0	90	36.1581920903955	36.241610738255	0	0	1	9	5	NaN	2	4	0.132056268018382	0	1	NaN	116	2	53	2	110	210	310	NaN	510	0.0981886689551175	1	0	NaN	1296716.262411	NaN	1296717.2458046	1296717.76235343
28	20	1	0	90	36.1581920903955	36.241610738255	12	0.400026287958026	2	2	2	NaN	1	4	0.132056268018382	0	1	NaN	117	2	54	2	120	220	320	NaN	520	0.217124721733853	1	1	NaN	1296718.6793266	NaN	1296719.6627144	1296720.17926438
28	20	1	0	90	36.1581920903955	36.241610738255	25	0.833388099912554	2	5	3	NaN	1	5	0.132056268018382	0	1	NaN	118	2	55	2	120	220	320	NaN	520	0.547938021831214	1	1	NaN	1296721.2128886	NaN	1296722.1963405	1296722.71285068
28	20	1	0	90	36.1581920903955	36.241610738255	10	0.333355239965022	2	11	1	NaN	2	3	0.132056268018382	0	1	NaN	119	2	56	2	120	220	320	NaN	520	0.176587721798569	2	1	NaN	1296724.0799117	NaN	1296725.0632425	1296725.57980138
28	20	1	0	90	36.1581920903955	36.241610738255	18	0.600039431937039	2	8	5	NaN	2	5	0.132056268018382	0	1	NaN	120	2	57	2	120	220	320	NaN	520	0.124277321621776	1	0	NaN	1296726.579986	NaN	1296727.5634837	1296728.08004618
28	20	1	0	90	36.1581920903955	36.241610738255	11	0.366690763961524	2	9	5	NaN	2	4	0.132056268018382	0	1	NaN	121	2	58	2	120	220	320	NaN	520	0.0103969217743725	2	1	NaN	1296729.0135468	NaN	1296729.9970475	1296730.51360988
28	20	1	0	90	36.1581920903955	36.241610738255	6	0.200013143979013	2	4	6	NaN	1	4	0.132056268018382	0	1	NaN	122	2	59	2	120	220	320	NaN	520	1.14143496914767	1	1	NaN	1296731.3472411	NaN	1296732.3306044	1296732.84717573
28	20	1	0	90	36.1581920903955	36.241610738255	7	0.233348667975515	2	10	3	NaN	2	3	0.132056268018382	0	1	NaN	123	2	60	2	120	220	320	NaN	520	0.22821736917831	1	0	NaN	1296734.9642554	NaN	1296735.9476438	1296736.46419573
28	20	1	0	90	36.1581920903955	36.241610738255	12	0.400026287958026	2	6	2	NaN	1	5	0.132056268018382	0	1	NaN	124	2	61	2	120	220	320	NaN	520	0.0220324739348143	1	1	NaN	1296737.5145074	NaN	1296738.4978814	1296739.01444553
28	20	1	0	90	36.1581920903955	36.241610738255	12	0.400026287958026	2	10	1	NaN	2	3	0.132056268018382	0	1	NaN	125	2	62	2	120	220	320	NaN	520	0.0104003215674311	2	1	NaN	1296739.847993	NaN	1296740.8314532	1296741.34801228
28	20	1	0	90	36.1581920903955	36.241610738255	14	0.46669733595103	2	9	1	NaN	2	4	0.132056268018382	0	1	NaN	126	2	63	2	120	220	320	NaN	520	0.275097768986598	2	1	NaN	1296742.1816187	NaN	1296743.1650284	1296743.68156233
28	20	1	0	90	36.1581920903955	36.241610738255	19	0.633374955933541	2	3	4	NaN	1	5	0.132056268018382	0	1	NaN	127	3	1	2	120	220	320	NaN	520	0.94367662165314	2	0	NaN	1296765.0172318	NaN	1296766.0006181	1296766.51714558
28	20	1	0	90	36.1581920903955	36.241610738255	22	0.733381527923048	2	10	6	NaN	2	5	0.132056268018382	0	1	NaN	128	3	2	2	120	220	320	NaN	520	0.13314281636849	2	1	NaN	1296768.2675218	NaN	1296769.2509075	1296769.76746978
28	20	1	0	90	36.1581920903955	36.241610738255	11	0.366690763961524	2	1	3	NaN	1	3	0.132056268018382	0	1	NaN	129	3	3	2	120	220	320	NaN	520	0.17916202172637	2	0	NaN	1296770.7177405	NaN	1296771.7011532	1296772.21771148
28	20	1	0	90	36.1581920903955	36.241610738255	0	0	1	1	2	NaN	1	3	0.132056268018382	0	1	NaN	130	3	4	2	110	210	310	NaN	510	0.110632869182155	2	0	NaN	1296773.21801	NaN	1296774.2013913	1296774.71795333
28	20	1	0	90	36.1581920903955	36.241610738255	25	0.833388099912554	2	10	6	NaN	2	3	0.132056268018382	0	1	NaN	131	3	5	2	120	220	320	NaN	520	2.22098592156544	2	1	NaN	1296776.0515822	NaN	1296777.0350109	1296777.55156678
28	20	1	0	90	36.1581920903955	36.241610738255	12	0.400026287958026	2	7	1	NaN	2	4	0.132056268018382	0	1	NaN	132	3	6	2	120	220	320	NaN	520	0.127055921591818	1	0	NaN	1296780.5853956	NaN	1296781.5687896	1296782.08536168
28	20	1	0	90	36.1581920903955	36.241610738255	10	0.333355239965022	2	9	1	NaN	2	5	0.132056268018382	0	1	NaN	133	3	7	2	120	220	320	NaN	520	1.66091592167504	2	1	NaN	1296783.0355958	NaN	1296784.0190226	1296784.53560258
28	20	1	0	90	36.1581920903955	36.241610738255	8	0.266684191972017	2	1	3	NaN	1	4	0.132056268018382	0	1	NaN	134	3	8	2	120	220	320	NaN	520	0.0373663690406829	2	0	NaN	1296787.019378	NaN	1296788.0027476	1296788.51930323
28	20	1	0	90	36.1581920903955	36.241610738255	9	0.30001971596852	2	11	4	NaN	2	5	0.132056268018382	0	1	NaN	135	3	9	2	120	220	320	NaN	520	0.103146121604368	2	1	NaN	1296789.3695909	NaN	1296790.3529592	1296790.86954188
28	20	1	0	90	36.1581920903955	36.241610738255	14	0.46669733595103	2	4	5	NaN	1	4	0.132056268018382	0	1	NaN	136	3	10	2	120	220	320	NaN	520	0.0104301164392382	1	1	NaN	1296791.7865067	NaN	1296792.7698934	1296793.28643898
28	20	1	0	90	36.1581920903955	36.241610738255	17	0.566703907940537	2	4	6	NaN	1	3	0.132056268018382	0	1	NaN	137	3	11	2	120	220	320	NaN	520	0.225199169013649	1	1	NaN	1296794.1033799	NaN	1296795.0867672	1296795.60332933
28	20	1	0	90	36.1581920903955	36.241610738255	12	0.400026287958026	2	1	2	NaN	1	5	0.132056268018382	0	1	NaN	138	3	12	2	120	220	320	NaN	520	0.0996623691171408	1	1	NaN	1296796.6369749	NaN	1296797.6203707	1296798.13690753
28	20	1	0	90	36.1581920903955	36.241610738255	8	0.266684191972017	2	7	1	NaN	2	3	0.132056268018382	0	1	NaN	139	3	13	2	120	220	320	NaN	520	0.0508065216708928	1	0	NaN	1296799.053823	NaN	1296800.0372959	1296800.55382438
28	20	1	0	90	36.1581920903955	36.241610738255	22	0.733381527923048	2	6	3	NaN	1	5	0.132056268018382	0	1	NaN	140	3	14	2	120	220	320	NaN	520	0.0102335000410676	1	1	NaN	1296801.4207987	NaN	1296802.4041614	1296802.9207462
28	20	1	0	90	36.1581920903955	36.241610738255	6	0.200013143979013	2	7	4	NaN	2	5	0.132056268018382	0	1	NaN	141	3	15	2	120	220	320	NaN	520	0.0104241690132767	2	1	NaN	1296803.7376679	NaN	1296804.7210495	1296805.23760443
28	20	1	0	90	36.1581920903955	36.241610738255	23	0.76671705191955	2	5	2	NaN	1	5	0.132056268018382	0	1	NaN	142	3	16	2	120	220	320	NaN	520	0.0104154690634459	1	1	NaN	1296806.0711071	NaN	1296807.0546138	1296807.57116813
28	20	1	0	90	36.1581920903955	36.241610738255	25	0.833388099912554	2	1	1	NaN	1	4	0.132056268018382	0	1	NaN	143	3	17	2	120	220	320	NaN	520	0.268284969031811	1	1	NaN	1296808.4046749	NaN	1296809.388183	1296809.90473233
28	20	1	0	90	36.1581920903955	36.241610738255	10	0.333355239965022	2	7	4	NaN	2	5	0.132056268018382	0	1	NaN	144	3	18	2	120	220	320	NaN	520	0.0102545949630439	2	1	NaN	1296810.9883722	NaN	1296811.9717771	1296812.48833611
28	20	1	0	90	36.1581920903955	36.241610738255	13	0.433361811954528	2	4	5	NaN	1	5	0.132056268018382	0	1	NaN	145	3	19	2	120	220	320	NaN	520	0.158985121874139	1	1	NaN	1296813.5219516	NaN	1296814.5052613	1296815.02190698
28	20	1	0	90	36.1581920903955	36.241610738255	22	0.733381527923048	2	1	4	NaN	1	3	0.132056268018382	0	1	NaN	146	3	20	2	120	220	320	NaN	520	0.0103921215049922	2	0	NaN	1296816.0055349	NaN	1296816.9889296	1296817.50549628
28	20	1	0	90	36.1581920903955	36.241610738255	9	0.30001971596852	2	8	4	NaN	2	5	0.132056268018382	0	1	NaN	147	3	21	2	120	220	320	NaN	520	0.173739663790911	1	0	NaN	1296818.3391852	NaN	1296819.3225012	1296819.83904254
28	20	1	0	90	36.1581920903955	36.241610738255	16	0.533368383944035	2	12	4	NaN	2	4	0.132056268018382	0	1	NaN	148	3	22	2	120	220	320	NaN	520	0.48233257397078	2	1	NaN	1296820.8226319	NaN	1296821.8060696	1296822.32261913
28	20	1	0	90	36.1581920903955	36.241610738255	17	0.566703907940537	2	6	5	NaN	1	4	0.132056268018382	0	1	NaN	149	3	23	2	120	220	320	NaN	520	0.0343243216630071	1	1	NaN	1296823.8061912	NaN	1296824.7896873	1296825.30625488
28	20	1	0	90	36.1581920903955	36.241610738255	11	0.366690763961524	2	4	2	NaN	1	5	0.132056268018382	0	1	NaN	150	3	24	2	120	220	320	NaN	520	0.131987869041041	1	1	NaN	1296826.1565344	NaN	1296827.1399265	1296827.65647913
28	20	1	0	90	36.1581920903955	36.241610738255	6	0.200013143979013	2	9	5	NaN	2	5	0.132056268018382	0	1	NaN	151	3	25	2	120	220	320	NaN	520	0.0980313215404749	1	0	NaN	1296828.6066487	NaN	1296829.5902447	1296830.10671958
28	20	1	0	90	36.1581920903955	36.241610738255	23	0.76671705191955	2	1	5	NaN	1	3	0.132056268018382	0	1	NaN	152	3	26	2	120	220	320	NaN	520	0.0177103164605796	1	1	NaN	1296831.0070048	NaN	1296831.9904223	1296832.50695458
28	20	1	0	90	36.1581920903955	36.241610738255	7	0.233348667975515	2	4	2	NaN	1	5	0.132056268018382	0	1	NaN	153	3	27	2	120	220	320	NaN	520	0.0103988216724247	1	1	NaN	1296833.3405424	NaN	1296834.3239559	1296834.84052208
28	20	1	0	90	36.1581920903955	36.241610738255	20	0.666710479930043	2	3	1	NaN	1	3	0.132056268018382	0	1	NaN	154	3	28	2	120	220	320	NaN	520	1.1832820691634	2	0	NaN	1296835.6574621	NaN	1296836.6408574	1296837.15740823
28	20	1	0	90	36.1581920903955	36.241610738255	25	0.833388099912554	2	9	2	NaN	2	5	0.132056268018382	0	1	NaN	155	3	29	2	120	220	320	NaN	520	0.0104242691304535	1	0	NaN	1296839.1577955	NaN	1296840.141264	1296840.65774733
28	20	1	0	90	36.1581920903955	36.241610738255	19	0.633374955933541	2	4	6	NaN	1	5	0.132056268018382	0	1	NaN	156	3	30	2	120	220	320	NaN	520	0.117429069010541	1	1	NaN	1296841.4913826	NaN	1296842.4747714	1296842.99130983
28	20	1	0	90	36.1581920903955	36.241610738255	21	0.700046003926545	2	1	4	NaN	1	4	0.132056268018382	0	1	NaN	157	3	31	2	120	220	320	NaN	520	0.171661869157106	2	0	NaN	1296843.9249351	NaN	1296844.9083373	1296845.42488173
28	20	1	0	90	36.1581920903955	36.241610738255	16	0.533368383944035	2	7	3	NaN	2	5	0.132056268018382	0	1	NaN	158	3	32	2	120	220	320	NaN	520	0.730903521645814	1	0	NaN	1296846.7418942	NaN	1296847.7252941	1296848.24183918
28	20	1	0	90	36.1581920903955	36.241610738255	8	0.266684191972017	2	9	6	NaN	2	3	0.132056268018382	0	1	NaN	159	3	33	2	120	220	320	NaN	520	0.184561369009316	2	1	NaN	1296849.7921818	NaN	1296850.7755789	1296851.29212423
28	20	1	0	90	36.1581920903955	36.241610738255	15	0.500032859947532	2	6	5	NaN	1	4	0.132056268018382	0	1	NaN	160	3	34	2	120	220	320	NaN	520	0.252541321562603	2	0	NaN	1296852.2924603	NaN	1296853.2758286	1296853.79238438
28	20	1	0	90	36.1581920903955	36.241610738255	12	0.400026287958026	2	1	4	NaN	1	4	0.132056268018382	0	1	NaN	161	3	35	2	120	220	320	NaN	520	0.525512169115245	2	0	NaN	1296855.2593359	NaN	1296856.2427829	1296856.75932743
28	20	1	0	90	36.1581920903955	36.241610738255	25	0.833388099912554	2	11	5	NaN	2	4	0.132056268018382	0	1	NaN	162	3	36	2	120	220	320	NaN	520	0.251093716360629	1	0	NaN	1296858.1096758	NaN	1296859.0930887	1296859.60961278
28	20	1	0	90	36.1581920903955	36.241610738255	20	0.666710479930043	2	6	4	NaN	1	5	0.132056268018382	0	1	NaN	163	3	37	2	120	220	320	NaN	520	1.32409276906401	1	1	NaN	1296860.676577	NaN	1296861.6599724	1296862.17653203
28	20	1	0	90	36.1581920903955	36.241610738255	18	0.600039431937039	2	2	6	NaN	1	5	0.132056268018382	0	1	NaN	164	3	38	2	120	220	320	NaN	520	0.010424216510728	1	1	NaN	1296864.310279	NaN	1296865.2936707	1296865.81022888
28	20	1	0	90	36.1581920903955	36.241610738255	19	0.633374955933541	2	9	3	NaN	2	5	0.132056268018382	0	1	NaN	165	3	39	2	120	220	320	NaN	520	0.0262701739557087	2	1	NaN	1296866.710494	NaN	1296867.6938878	1296868.21047903
28	20	1	0	90	36.1581920903955	36.241610738255	23	0.76671705191955	2	3	6	NaN	1	4	0.132056268018382	0	1	NaN	166	3	40	2	120	220	320	NaN	520	0.263438074151054	2	0	NaN	1296889.3292676	NaN	1296890.3127753	1296890.82935263
28	20	1	0	90	36.1581920903955	36.241610738255	17	0.566703907940537	2	7	6	NaN	2	4	0.132056268018382	0	1	NaN	167	3	41	2	120	220	320	NaN	520	0.151778868865222	2	1	NaN	1296891.9129846	NaN	1296892.8963739	1296893.41292843
28	20	1	0	90	36.1581920903955	36.241610738255	14	0.46669733595103	2	11	5	NaN	2	4	0.132056268018382	0	1	NaN	168	3	42	2	120	220	320	NaN	520	0.0227931165136397	2	1	NaN	1296894.7300439	NaN	1296895.7133145	1296896.22986908
28	20	1	0	90	36.1581920903955	36.241610738255	16	0.533368383944035	2	5	1	NaN	1	5	0.132056268018382	0	1	NaN	169	3	43	2	120	220	320	NaN	520	0.169393921503797	2	0	NaN	1296897.0634946	NaN	1296898.0468789	1296898.56344288
28	20	1	0	90	36.1581920903955	36.241610738255	16	0.533368383944035	2	11	4	NaN	2	3	0.132056268018382	0	1	NaN	170	3	44	2	120	220	320	NaN	520	0.221980989910662	2	1	NaN	1296899.5470571	NaN	1296900.530465	1296901.04701621
28	20	1	0	90	36.1581920903955	36.241610738255	23	0.76671705191955	2	12	1	NaN	2	5	0.132056268018382	0	1	NaN	171	3	45	2	120	220	320	NaN	520	0.143447021720931	2	1	NaN	1296902.0973281	NaN	1296903.0807412	1296903.59726898
28	20	1	0	90	36.1581920903955	36.241610738255	13	0.433361811954528	2	3	5	NaN	1	5	0.132056268018382	0	1	NaN	172	3	46	2	120	220	320	NaN	520	0.356927221640944	2	0	NaN	1296904.5642196	NaN	1296905.5475211	1296906.06417498
28	20	1	0	90	36.1581920903955	36.241610738255	12	0.400026287958026	2	8	6	NaN	2	5	0.132056268018382	0	1	NaN	173	3	47	2	120	220	320	NaN	520	0.0969309690408409	2	1	NaN	1296907.2478031	NaN	1296908.2312137	1296908.74776413
28	20	1	0	90	36.1581920903955	36.241610738255	14	0.46669733595103	2	6	1	NaN	1	4	0.132056268018382	0	1	NaN	174	3	48	2	120	220	320	NaN	520	0.0802192639093846	1	1	NaN	1296909.6647483	NaN	1296910.6481201	1296911.16467694
28	20	1	0	90	36.1581920903955	36.241610738255	9	0.30001971596852	2	6	5	NaN	1	5	0.132056268018382	0	1	NaN	175	3	49	2	120	220	320	NaN	520	0.248141016578302	1	1	NaN	1296912.064953	NaN	1296913.0483787	1296913.56490368
28	20	1	0	90	36.1581920903955	36.241610738255	20	0.666710479930043	2	5	3	NaN	1	5	0.132056268018382	0	1	NaN	176	3	50	2	120	220	320	NaN	520	0.193160394905135	1	1	NaN	1296914.6318792	NaN	1296915.6152738	1296916.13183751
28	20	1	0	90	36.1581920903955	36.241610738255	14	0.46669733595103	2	6	6	NaN	1	5	0.132056268018382	0	1	NaN	177	3	51	2	120	220	320	NaN	520	0.164653821615502	1	1	NaN	1296917.1320555	NaN	1296918.1155254	1296918.63208048
28	20	1	0	90	36.1581920903955	36.241610738255	6	0.200013143979013	2	1	1	NaN	1	5	0.132056268018382	0	1	NaN	178	3	52	2	120	220	320	NaN	520	0.0811147692147642	1	1	NaN	1296919.6157042	NaN	1296920.5990953	1296921.11564593
28	20	1	0	90	36.1581920903955	36.241610738255	24	0.800052575916052	2	2	1	NaN	1	5	0.132056268018382	0	1	NaN	179	3	53	2	120	220	320	NaN	520	0.0103930216282606	2	0	NaN	1296922.015937	NaN	1296922.9993449	1296923.51589318
28	20	1	0	90	36.1581920903955	36.241610738255	12	0.400026287958026	2	3	1	NaN	1	4	0.132056268018382	0	1	NaN	180	3	54	2	120	220	320	NaN	520	0.531436769058928	2	0	NaN	1296924.3495184	NaN	1296925.3328878	1296925.84944323
28	20	1	0	90	36.1581920903955	36.241610738255	7	0.233348667975515	2	4	1	NaN	1	3	0.132056268018382	0	1	NaN	181	3	55	2	120	220	320	NaN	520	0.0810447370167822	1	1	NaN	1296927.1997914	NaN	1296928.1831737	1296928.69973586
28	20	1	0	90	36.1581920903955	36.241610738255	21	0.700046003926545	2	8	6	NaN	2	5	0.132056268018382	0	1	NaN	182	3	56	2	120	220	320	NaN	520	0.248624221654609	2	1	NaN	1296929.5998866	NaN	1296930.5834324	1296931.09997248
28	20	1	0	90	36.1581920903955	36.241610738255	8	0.266684191972017	2	6	4	NaN	1	3	0.132056268018382	0	1	NaN	183	3	57	2	120	220	320	NaN	520	0.201442068908364	1	1	NaN	1296932.1835797	NaN	1296933.1669992	1296933.68354413
28	20	1	0	90	36.1581920903955	36.241610738255	15	0.500032859947532	2	2	3	NaN	1	5	0.132056268018382	0	1	NaN	184	3	58	2	120	220	320	NaN	520	0.164407421601936	1	1	NaN	1296934.7005121	NaN	1296935.6839353	1296936.20047168
28	20	1	0	90	36.1581920903955	36.241610738255	18	0.600039431937039	2	2	5	NaN	1	3	0.132056268018382	0	1	NaN	185	3	59	2	120	220	320	NaN	520	1.76920456904918	1	1	NaN	1296937.1840946	NaN	1296938.1675061	1296938.68406693
28	20	1	0	90	36.1581920903955	36.241610738255	20	0.666710479930043	2	12	5	NaN	2	4	0.132056268018382	0	1	NaN	186	3	60	2	120	220	320	NaN	520	0.333337921649218	2	1	NaN	1296941.2678302	NaN	1296942.2512156	1296942.76778198
28	20	1	0	90	36.1581920903955	36.241610738255	14	0.46669733595103	2	10	2	NaN	2	4	0.132056268018382	0	1	NaN	187	3	61	2	120	220	320	NaN	520	0.106767021585256	1	0	NaN	1296943.9180896	NaN	1296944.9014995	1296945.41804188
28	20	1	0	90	36.1581920903955	36.241610738255	17	0.566703907940537	2	2	2	NaN	1	5	0.132056268018382	0	1	NaN	188	3	62	2	120	220	320	NaN	520	0.0104177216999233	1	1	NaN	1296946.8015777	NaN	1296947.7851152	1296948.30165958
28	20	1	0	90	36.1581920903955	36.241610738255	0	0	1	11	6	NaN	2	4	0.132056268018382	0	1	NaN	189	3	63	2	110	210	310	NaN	510	0.953487321734428	2	1	NaN	1296949.1352829	NaN	1296950.1186878	1296950.63521828
28	20	1	0	90	36.1581920903955	36.241610738255	12	0.400026287958026	2	3	3	NaN	1	4	0.132056268018382	0	1	NaN	190	4	1	2	120	220	320	NaN	520	0.28991936892271	1	1	NaN	1297062.6631029	NaN	1297063.6465418	1297064.16302873
28	20	1	0	90	36.1581920903955	36.241610738255	10	0.333355239965022	2	4	3	NaN	1	4	0.132056268018382	0	1	NaN	191	4	2	2	120	220	320	NaN	520	0.0649488689377904	1	1	NaN	1297065.2800356	NaN	1297066.2634341	1297066.77995553
28	20	1	0	90	36.1581920903955	36.241610738255	18	0.600039431937039	2	11	2	NaN	2	3	0.132056268018382	0	1	NaN	192	4	3	2	120	220	320	NaN	520	0.185098916525021	2	1	NaN	1297067.6802563	NaN	1297068.6636859	1297069.18018128
28	20	1	0	90	36.1581920903955	36.241610738255	6	0.200013143979013	2	3	2	NaN	1	5	0.132056268018382	0	1	NaN	193	4	4	2	120	220	320	NaN	520	0.132427974138409	1	1	NaN	1297070.1804826	NaN	1297071.1638884	1297071.68043523
28	20	1	0	90	36.1581920903955	36.241610738255	0	0	1	1	6	NaN	1	5	0.132056268018382	0	1	NaN	194	4	5	2	110	210	310	NaN	510	0.162262769183144	2	0	NaN	1297072.6307476	NaN	1297073.6141353	1297074.13067183
28	20	1	0	90	36.1581920903955	36.241610738255	12	0.400026287958026	2	7	5	NaN	2	4	0.132056268018382	0	1	NaN	195	4	6	2	120	220	320	NaN	520	0.0947508946992457	2	1	NaN	1297075.1142894	NaN	1297076.0977382	1297076.61427581
28	20	1	0	90	36.1581920903955	36.241610738255	15	0.500032859947532	2	6	6	NaN	1	5	0.132056268018382	0	1	NaN	196	4	7	2	120	220	320	NaN	520	0.0219323162455112	1	1	NaN	1297077.5312304	NaN	1297078.5146721	1297079.03115158
28	20	1	0	90	36.1581920903955	36.241610738255	12	0.400026287958026	2	4	2	NaN	1	3	0.132056268018382	0	1	NaN	197	4	8	2	120	220	320	NaN	520	0.223671269137412	1	1	NaN	1297079.8814455	NaN	1297080.8648614	1297081.38139233
28	20	1	0	90	36.1581920903955	36.241610738255	13	0.433361811954528	2	4	6	NaN	1	4	0.132056268018382	0	1	NaN	198	4	9	2	120	220	320	NaN	520	0.113211879273877	1	1	NaN	1297082.43171	NaN	1297083.415094	1297083.93163492
28	20	1	0	90	36.1581920903955	36.241610738255	22	0.733381527923048	2	9	3	NaN	2	5	0.132056268018382	0	1	NaN	199	4	10	2	120	220	320	NaN	520	0.111694869119674	2	1	NaN	1297084.8651512	NaN	1297085.8486693	1297086.36521413
28	20	1	0	90	36.1581920903955	36.241610738255	21	0.700046003926545	2	10	5	NaN	2	4	0.132056268018382	0	1	NaN	200	4	11	2	120	220	320	NaN	520	0.254093521740288	1	0	NaN	1297087.2988274	NaN	1297088.2822826	1297088.79878498
28	20	1	0	90	36.1581920903955	36.241610738255	14	0.46669733595103	2	2	2	NaN	1	4	0.132056268018382	0	1	NaN	201	4	12	2	120	220	320	NaN	520	0.173073373967782	1	1	NaN	1297090.3158248	NaN	1297091.2992392	1297091.81576733
28	20	1	0	90	36.1581920903955	36.241610738255	16	0.533368383944035	2	5	2	NaN	1	4	0.132056268018382	0	1	NaN	202	4	13	2	120	220	320	NaN	520	0.128904574085027	1	1	NaN	1297093.2160511	NaN	1297094.1994759	1297094.71603553
28	20	1	0	90	36.1581920903955	36.241610738255	14	0.46669733595103	2	1	1	NaN	1	4	0.132056268018382	0	1	NaN	203	4	14	2	120	220	320	NaN	520	0.0867566214874387	1	1	NaN	1297095.6661941	NaN	1297096.6497343	1297097.16627468
28	20	1	0	90	36.1581920903955	36.241610738255	23	0.76671705191955	2	9	4	NaN	2	5	0.132056268018382	0	1	NaN	204	4	15	2	120	220	320	NaN	520	0.142100342083722	2	1	NaN	1297098.0832349	NaN	1297099.0666167	1297099.58317856
28	20	1	0	90	36.1581920903955	36.241610738255	23	0.76671705191955	2	10	3	NaN	2	3	0.132056268018382	0	1	NaN	205	4	16	2	120	220	320	NaN	520	0.0105012690182775	1	0	NaN	1297100.5500387	NaN	1297101.5335472	1297102.05008203
28	20	1	0	90	36.1581920903955	36.241610738255	9	0.30001971596852	2	12	2	NaN	2	4	0.132056268018382	0	1	NaN	206	4	17	2	120	220	320	NaN	520	0.0685262794140726	2	1	NaN	1297102.9003683	NaN	1297103.8837758	1297104.40031042
28	20	1	0	90	36.1581920903955	36.241610738255	20	0.666710479930043	2	9	4	NaN	2	5	0.132056268018382	0	1	NaN	207	4	18	2	120	220	320	NaN	520	0.308435737155378	2	1	NaN	1297105.3006144	NaN	1297106.2840778	1297106.80055346
28	20	1	0	90	36.1581920903955	36.241610738255	8	0.266684191972017	2	6	3	NaN	1	5	0.132056268018382	0	1	NaN	208	4	19	2	120	220	320	NaN	520	0.226953969104216	1	1	NaN	1297107.9341779	NaN	1297108.9175927	1297109.43414123
28	20	1	0	90	36.1581920903955	36.241610738255	21	0.700046003926545	2	4	5	NaN	1	4	0.132056268018382	0	1	NaN	209	4	20	2	120	220	320	NaN	520	0.308419669046998	1	1	NaN	1297110.4844556	NaN	1297111.4678337	1297111.98438943
28	20	1	0	90	36.1581920903955	36.241610738255	14	0.46669733595103	2	12	6	NaN	2	4	0.132056268018382	0	1	NaN	210	4	21	2	120	220	320	NaN	520	0.156565869227052	2	1	NaN	1297113.2846183	NaN	1297114.2681427	1297114.78466063
28	20	1	0	90	36.1581920903955	36.241610738255	0	0	1	5	2	NaN	1	4	0.132056268018382	0	1	NaN	211	4	22	2	110	210	310	NaN	510	0.0727701690047979	1	1	NaN	1297115.7683056	NaN	1297116.751704	1297117.26824843
28	20	1	0	90	36.1581920903955	36.241610738255	15	0.500032859947532	2	9	1	NaN	2	5	0.132056268018382	0	1	NaN	212	4	23	2	120	220	320	NaN	520	0.224870869191363	2	1	NaN	1297118.1685573	NaN	1297119.1519785	1297119.66848233
28	20	1	0	90	36.1581920903955	36.241610738255	17	0.566703907940537	2	10	5	NaN	2	4	0.132056268018382	0	1	NaN	213	4	24	2	120	220	320	NaN	520	0.130447168834507	1	0	NaN	1297120.7187871	NaN	1297121.7021946	1297122.21873183
28	20	1	0	90	36.1581920903955	36.241610738255	7	0.233348667975515	2	11	4	NaN	2	4	0.132056268018382	0	1	NaN	214	4	25	2	120	220	320	NaN	520	0.160050668986514	2	1	NaN	1297123.1690244	NaN	1297124.1524401	1297124.66896763
28	20	1	0	90	36.1581920903955	36.241610738255	21	0.700046003926545	2	11	6	NaN	2	3	0.132056268018382	0	1	NaN	215	4	26	2	120	220	320	NaN	520	0.268460016464815	2	1	NaN	1297125.6526421	NaN	1297126.6360195	1297127.15254918
28	20	1	0	90	36.1581920903955	36.241610738255	7	0.233348667975515	2	10	2	NaN	2	5	0.132056268018382	0	1	NaN	216	4	27	2	120	220	320	NaN	520	0.0600877164397389	1	0	NaN	1297128.2528632	NaN	1297129.2362932	1297129.75280738
28	20	1	0	90	36.1581920903955	36.241610738255	22	0.733381527923048	2	7	3	NaN	2	5	0.132056268018382	0	1	NaN	217	4	28	2	120	220	320	NaN	520	0.100771869067103	2	1	NaN	1297130.6364437	NaN	1297131.6198712	1297132.13636213
28	20	1	0	90	36.1581920903955	36.241610738255	17	0.566703907940537	2	1	1	NaN	1	4	0.132056268018382	0	1	NaN	218	4	29	2	120	220	320	NaN	520	0.30785998981446	1	1	NaN	1297133.0533762	NaN	1297134.0367436	1297134.55328801
28	20	1	0	90	36.1581920903955	36.241610738255	25	0.833388099912554	2	7	2	NaN	2	3	0.132056268018382	0	1	NaN	219	4	30	2	120	220	320	NaN	520	0.0104955164715648	2	1	NaN	1297135.6869562	NaN	1297136.6703399	1297137.18686548
28	20	1	0	90	36.1581920903955	36.241610738255	17	0.566703907940537	2	8	3	NaN	2	5	0.132056268018382	0	1	NaN	220	4	31	2	120	220	320	NaN	520	0.0104806690942496	2	1	NaN	1297138.1538111	NaN	1297139.1372388	1297139.65376923
28	20	1	0	90	36.1581920903955	36.241610738255	16	0.533368383944035	2	8	4	NaN	2	3	0.132056268018382	0	1	NaN	221	4	32	2	120	220	320	NaN	520	0.0498175688553602	2	1	NaN	1297140.4873092	NaN	1297141.4708027	1297141.98733793
28	20	1	0	90	36.1581920903955	36.241610738255	18	0.600039431937039	2	5	6	NaN	1	4	0.132056268018382	0	1	NaN	222	4	33	2	120	220	320	NaN	520	0.0105158637743443	1	1	NaN	1297142.8543158	NaN	1297143.8376971	1297144.35424804
28	20	1	0	90	36.1581920903955	36.241610738255	13	0.433361811954528	2	2	1	NaN	1	4	0.132056268018382	0	1	NaN	223	4	34	2	120	220	320	NaN	520	0.155149679165334	2	0	NaN	1297145.2377498	NaN	1297146.2212785	1297146.73780662
28	20	1	0	90	36.1581920903955	36.241610738255	15	0.500032859947532	2	8	3	NaN	2	4	0.132056268018382	0	1	NaN	224	4	35	2	120	220	320	NaN	520	0.0104567739181221	1	0	NaN	1297147.7214419	NaN	1297148.7049366	1297149.22139883
28	20	1	0	90	36.1581920903955	36.241610738255	16	0.533368383944035	2	10	5	NaN	2	4	0.132056268018382	0	1	NaN	225	4	36	2	120	220	320	NaN	520	0.0440223370678723	1	0	NaN	1297150.405032	NaN	1297151.3884222	1297151.90497876
28	20	1	0	90	36.1581920903955	36.241610738255	9	0.30001971596852	2	9	4	NaN	2	5	0.132056268018382	0	1	NaN	226	4	37	2	120	220	320	NaN	520	0.0826345267705619	2	1	NaN	1297152.8384791	NaN	1297153.8220102	1297154.33854867
28	20	1	0	90	36.1581920903955	36.241610738255	7	0.233348667975515	2	9	5	NaN	2	4	0.132056268018382	0	1	NaN	227	4	38	2	120	220	320	NaN	520	0.0104846688918769	2	1	NaN	1297155.3387193	NaN	1297156.3222489	1297156.83880023
28	20	1	0	90	36.1581920903955	36.241610738255	6	0.200013143979013	2	4	4	NaN	1	4	0.132056268018382	0	1	NaN	228	4	39	2	120	220	320	NaN	520	0.176692974055186	2	0	NaN	1297157.6723961	NaN	1297158.6558021	1297159.17235773
28	20	1	0	90	36.1581920903955	36.241610738255	8	0.266684191972017	2	11	4	NaN	2	5	0.132056268018382	0	1	NaN	229	4	40	2	120	220	320	NaN	520	0.372857337119058	1	0	NaN	1297160.1726699	NaN	1297161.1561133	1297161.67259906
28	20	1	0	90	36.1581920903955	36.241610738255	10	0.333355239965022	2	3	4	NaN	1	3	0.132056268018382	0	1	NaN	230	4	41	2	120	220	320	NaN	520	0.120185016421601	2	0	NaN	1297162.8729172	NaN	1297163.856336	1297164.37286338
28	20	1	0	90	36.1581920903955	36.241610738255	15	0.500032859947532	2	7	6	NaN	2	3	0.132056268018382	0	1	NaN	231	4	42	2	120	220	320	NaN	520	0.491360163781792	2	1	NaN	1297165.5898376	NaN	1297166.5732687	1297167.08980354
28	20	1	0	90	36.1581920903955	36.241610738255	23	0.76671705191955	2	4	2	NaN	1	3	0.132056268018382	0	1	NaN	232	4	43	2	120	220	320	NaN	520	0.402048589661717	1	1	NaN	1297168.4234298	NaN	1297169.4068795	1297169.92341641
28	20	1	0	90	36.1581920903955	36.241610738255	18	0.600039431937039	2	10	4	NaN	2	3	0.132056268018382	0	1	NaN	233	4	44	2	120	220	320	NaN	520	0.116119237150997	2	1	NaN	1297171.1570858	NaN	1297172.1404807	1297172.65700976
28	20	1	0	90	36.1581920903955	36.241610738255	6	0.200013143979013	2	12	5	NaN	2	5	0.132056268018382	0	1	NaN	234	4	45	2	120	220	320	NaN	520	0.759571589762345	2	1	NaN	1297173.8572234	NaN	1297174.8407542	1297175.35728651
28	20	1	0	90	36.1581920903955	36.241610738255	14	0.46669733595103	2	7	1	NaN	2	5	0.132056268018382	0	1	NaN	235	4	46	2	120	220	320	NaN	520	0.412154769059271	1	0	NaN	1297176.9410067	NaN	1297177.9244012	1297178.44091903
28	20	1	0	90	36.1581920903955	36.241610738255	22	0.733381527923048	2	5	5	NaN	1	4	0.132056268018382	0	1	NaN	236	4	47	2	120	220	320	NaN	520	0.214642716571689	2	0	NaN	1297179.6744819	NaN	1297180.6579595	1297181.17451098
28	20	1	0	90	36.1581920903955	36.241610738255	12	0.400026287958026	2	5	3	NaN	1	5	0.132056268018382	0	1	NaN	237	4	48	2	120	220	320	NaN	520	0.329393716529012	2	0	NaN	1297182.2080124	NaN	1297183.1915564	1297183.70810248
28	20	1	0	90	36.1581920903955	36.241610738255	21	0.700046003926545	2	2	5	NaN	1	5	0.132056268018382	0	1	NaN	238	4	49	2	120	220	320	NaN	520	0.134663074044511	2	0	NaN	1297184.8584201	NaN	1297185.8418299	1297186.35836053
28	20	1	0	90	36.1581920903955	36.241610738255	12	0.400026287958026	2	12	5	NaN	2	5	0.132056268018382	0	1	NaN	239	4	50	2	120	220	320	NaN	520	0.30575296911411	1	0	NaN	1297187.5753144	NaN	1297188.5587602	1297189.07529713
28	20	1	0	90	36.1581920903955	36.241610738255	13	0.433361811954528	2	12	2	NaN	2	5	0.132056268018382	0	1	NaN	240	4	51	2	120	220	320	NaN	520	0.296099679311737	2	1	NaN	1297190.408861	NaN	1297191.3923619	1297191.90890982
28	20	1	0	90	36.1581920903955	36.241610738255	18	0.600039431937039	2	6	6	NaN	1	4	0.132056268018382	0	1	NaN	241	4	52	2	120	220	320	NaN	520	2.03135837940499	1	1	NaN	1297193.0258721	NaN	1297194.0093436	1297194.52582882
28	20	1	0	90	36.1581920903955	36.241610738255	19	0.633374955933541	2	12	1	NaN	2	5	0.132056268018382	0	1	NaN	242	4	53	2	120	220	320	NaN	520	0.312154269078746	2	1	NaN	1297197.7930084	NaN	1297198.7764237	1297199.29295363
28	20	1	0	90	36.1581920903955	36.241610738255	16	0.533368383944035	2	4	4	NaN	1	4	0.132056268018382	0	1	NaN	243	4	54	2	120	220	320	NaN	520	0.121237716404721	2	0	NaN	1297200.559934	NaN	1297201.5433788	1297202.05989558
28	20	1	0	90	36.1581920903955	36.241610738255	11	0.366690763961524	2	10	4	NaN	2	3	0.132056268018382	0	1	NaN	244	4	55	2	120	220	320	NaN	520	0.159073868999258	2	1	NaN	1297203.0102003	NaN	1297203.9935967	1297204.51013263
28	20	1	0	90	36.1581920903955	36.241610738255	19	0.633374955933541	2	7	2	NaN	2	5	0.132056268018382	0	1	NaN	245	4	56	2	120	220	320	NaN	520	0.105797779280692	2	1	NaN	1297207.1271446	NaN	1297208.1106979	1297208.62720602
28	20	1	0	90	36.1581920903955	36.241610738255	9	0.30001971596852	2	9	6	NaN	2	5	0.132056268018382	0	1	NaN	246	4	57	2	120	220	320	NaN	520	0.0105368110816926	1	0	NaN	1297209.5440563	NaN	1297210.5275546	1297211.04410929
28	20	1	0	90	36.1581920903955	36.241610738255	23	0.76671705191955	2	3	6	NaN	1	5	0.132056268018382	0	1	NaN	247	4	58	2	120	220	320	NaN	520	0.275852368911728	1	1	NaN	1297211.8776012	NaN	1297212.8611654	1297213.37767753
28	20	1	0	90	36.1581920903955	36.241610738255	16	0.533368383944035	2	1	2	NaN	1	4	0.132056268018382	0	1	NaN	248	4	59	2	120	220	320	NaN	520	0.155118773924187	1	1	NaN	1297214.4778897	NaN	1297215.4614697	1297215.97792813
28	20	1	0	90	36.1581920903955	36.241610738255	9	0.30001971596852	2	4	6	NaN	1	3	0.132056268018382	0	1	NaN	249	4	60	2	120	220	320	NaN	520	0.0269929217174649	1	1	NaN	1297217.078131	NaN	1297218.0616603	1297218.57818498
28	20	1	0	90	36.1581920903955	36.241610738255	13	0.433361811954528	2	10	4	NaN	2	4	0.132056268018382	0	1	NaN	250	4	61	2	120	220	320	NaN	520	0.0104478739667684	2	1	NaN	1297219.42833	NaN	1297220.4118658	1297220.92841563
28	20	1	0	90	36.1581920903955	36.241610738255	25	0.833388099912554	2	3	6	NaN	1	4	0.132056268018382	0	1	NaN	251	4	62	2	120	220	320	NaN	520	0.398949321592227	1	1	NaN	1297221.762066	NaN	1297222.7454982	1297223.26198368
28	20	1	0	90	36.1581920903955	36.241610738255	15	0.500032859947532	2	10	6	NaN	2	5	0.132056268018382	0	1	NaN	252	4	63	2	120	220	320	NaN	520	0.530375679256395	1	0	NaN	1297224.4789673	NaN	1297225.4623742	1297225.97891422
28	20	1	0	90	36.1581920903955	36.241610738255	18	0.600039431937039	2	7	4	NaN	2	3	0.132056268018382	0	1	NaN	253	5	1	2	120	220	320	NaN	520	0.240684869000688	2	1	NaN	1297250.8648971	NaN	1297251.8482848	1297252.36482963
28	20	1	0	90	36.1581920903955	36.241610738255	7	0.233348667975515	2	3	4	NaN	1	5	0.132056268018382	0	1	NaN	254	5	2	2	120	220	320	NaN	520	0.396812826627865	1	1	NaN	1297255.9486136	NaN	1297256.9321408	1297257.44866847
28	20	1	0	90	36.1581920903955	36.241610738255	0	0	1	2	6	NaN	1	5	0.132056268018382	0	1	NaN	255	5	3	2	110	210	310	NaN	510	0.30808027391322	2	0	NaN	1297258.9490162	NaN	1297259.9324253	1297260.44896303
28	20	1	0	90	36.1581920903955	36.241610738255	15	0.500032859947532	2	11	3	NaN	2	4	0.132056268018382	0	1	NaN	256	5	4	2	120	220	320	NaN	520	0.127189621562138	2	1	NaN	1297261.8653146	NaN	1297262.8493313	1297263.36591568
28	20	1	0	90	36.1581920903955	36.241610738255	13	0.433361811954528	2	10	2	NaN	2	5	0.132056268018382	0	1	NaN	257	5	5	2	120	220	320	NaN	520	0.157087221741676	2	1	NaN	1297264.3161115	NaN	1297265.2996067	1297265.81614768
28	20	1	0	90	36.1581920903955	36.241610738255	22	0.733381527923048	2	4	3	NaN	1	3	0.132056268018382	0	1	NaN	258	5	6	2	120	220	320	NaN	520	0.0104605215601623	2	0	NaN	1297266.7831195	NaN	1297267.7665245	1297268.28305458
28	20	1	0	90	36.1581920903955	36.241610738255	10	0.333355239965022	2	5	6	NaN	1	5	0.132056268018382	0	1	NaN	259	5	7	2	120	220	320	NaN	520	0.0103530897758901	1	1	NaN	1297269.1166807	NaN	1297270.100074	1297270.61662371
28	20	1	0	90	36.1581920903955	36.241610738255	20	0.666710479930043	2	8	4	NaN	2	4	0.132056268018382	0	1	NaN	260	5	8	2	120	220	320	NaN	520	0.0370319897774607	2	1	NaN	1297271.9002135	NaN	1297272.8836941	1297273.40023751
28	20	1	0	90	36.1581920903955	36.241610738255	18	0.600039431937039	2	5	2	NaN	1	4	0.132056268018382	0	1	NaN	261	5	9	2	120	220	320	NaN	520	0.0103506948798895	1	1	NaN	1297274.2671891	NaN	1297275.2506034	1297275.76713851
28	20	1	0	90	36.1581920903955	36.241610738255	6	0.200013143979013	2	6	5	NaN	1	4	0.132056268018382	0	1	NaN	262	5	10	2	120	220	320	NaN	520	0.0104839692357928	1	1	NaN	1297276.600757	NaN	1297277.5841504	1297278.10069473
28	20	1	0	90	36.1581920903955	36.241610738255	0	0	1	3	2	NaN	1	5	0.132056268018382	0	1	NaN	263	5	11	2	110	210	310	NaN	510	0.0777039690874517	1	1	NaN	1297279.067642	NaN	1297280.0510592	1297280.56759963
28	20	1	0	90	36.1581920903955	36.241610738255	24	0.800052575916052	2	8	4	NaN	2	5	0.132056268018382	0	1	NaN	264	5	12	2	120	220	320	NaN	520	0.180828368989751	2	1	NaN	1297282.0846069	NaN	1297283.0680296	1297283.58456333
28	20	1	0	90	36.1581920903955	36.241610738255	24	0.800052575916052	2	5	3	NaN	1	5	0.132056268018382	0	1	NaN	265	5	13	2	120	220	320	NaN	520	0.384569716406986	2	0	NaN	1297284.5848806	NaN	1297285.568275	1297286.08480678
28	20	1	0	90	36.1581920903955	36.241610738255	24	0.800052575916052	2	1	3	NaN	1	3	0.132056268018382	0	1	NaN	266	5	14	2	120	220	320	NaN	520	0.372254868969321	1	1	NaN	1297287.2851389	NaN	1297288.2685457	1297288.78507423
28	20	1	0	90	36.1581920903955	36.241610738255	25	0.833388099912554	2	8	2	NaN	2	3	0.132056268018382	0	1	NaN	267	5	15	2	120	220	320	NaN	520	2.90503517398611	2	1	NaN	1297290.7520178	NaN	1297291.7355514	1297292.25208803
28	20	1	0	90	36.1581920903955	36.241610738255	21	0.700046003926545	2	6	1	NaN	1	4	0.132056268018382	0	1	NaN	268	5	16	2	120	220	320	NaN	520	0.239206326659769	2	0	NaN	1297295.9859675	NaN	1297296.9693775	1297297.48592527
28	20	1	0	90	36.1581920903955	36.241610738255	20	0.666710479930043	2	1	1	NaN	1	4	0.132056268018382	0	1	NaN	269	5	17	2	120	220	320	NaN	520	0.0482553690671921	1	1	NaN	1297298.5529208	NaN	1297299.5363276	1297300.05284103
28	20	1	0	90	36.1581920903955	36.241610738255	18	0.600039431937039	2	6	1	NaN	1	5	0.132056268018382	0	1	NaN	270	5	18	2	120	220	320	NaN	520	0.121583569096401	1	1	NaN	1297300.9198232	NaN	1297301.9032231	1297302.41977073
28	20	1	0	90	36.1581920903955	36.241610738255	24	0.800052575916052	2	8	6	NaN	2	5	0.132056268018382	0	1	NaN	271	5	19	2	120	220	320	NaN	520	0.191936099901795	2	1	NaN	1297303.3533301	NaN	1297304.3367942	1297304.853334
28	20	1	0	90	36.1581920903955	36.241610738255	19	0.633374955933541	2	7	6	NaN	2	4	0.132056268018382	0	1	NaN	272	5	20	2	120	220	320	NaN	520	0.139636721694842	1	0	NaN	1297305.8536143	NaN	1297306.8370484	1297307.35356628
28	20	1	0	90	36.1581920903955	36.241610738255	12	0.400026287958026	2	2	3	NaN	1	5	0.132056268018382	0	1	NaN	273	5	21	2	120	220	320	NaN	520	0.240795474033803	2	0	NaN	1297308.320527	NaN	1297309.3039452	1297309.82047463
28	20	1	0	90	36.1581920903955	36.241610738255	20	0.666710479930043	2	4	4	NaN	1	4	0.132056268018382	0	1	NaN	274	5	22	2	120	220	320	NaN	520	0.240303969010711	1	1	NaN	1297311.3208467	NaN	1297312.3043177	1297312.82076853
28	20	1	0	90	36.1581920903955	36.241610738255	25	0.833388099912554	2	9	4	NaN	2	4	0.132056268018382	0	1	NaN	275	5	23	2	120	220	320	NaN	520	0.0582046690396965	1	0	NaN	1297313.8709846	NaN	1297314.8544709	1297315.37100973
28	20	1	0	90	36.1581920903955	36.241610738255	14	0.46669733595103	2	3	4	NaN	1	4	0.132056268018382	0	1	NaN	276	5	24	2	120	220	320	NaN	520	0.106667421758175	2	0	NaN	1297316.2546609	NaN	1297317.2380589	1297317.75460358
28	20	1	0	90	36.1581920903955	36.241610738255	15	0.500032859947532	2	1	5	NaN	1	4	0.132056268018382	0	1	NaN	277	5	25	2	120	220	320	NaN	520	0.241182721685618	2	0	NaN	1297318.6882442	NaN	1297319.6716366	1297320.18815758
28	20	1	0	90	36.1581920903955	36.241610738255	14	0.46669733595103	2	5	4	NaN	1	3	0.132056268018382	0	1	NaN	278	5	26	2	120	220	320	NaN	520	0.0662027690559626	1	1	NaN	1297321.2551468	NaN	1297322.2385594	1297322.75507993
28	20	1	0	90	36.1581920903955	36.241610738255	13	0.433361811954528	2	7	4	NaN	2	4	0.132056268018382	0	1	NaN	279	5	27	2	120	220	320	NaN	520	0.0579540692269802	2	1	NaN	1297323.655406	NaN	1297324.638778	1297325.15530373
28	20	1	0	90	36.1581920903955	36.241610738255	24	0.800052575916052	2	2	3	NaN	1	3	0.132056268018382	0	1	NaN	280	5	28	2	120	220	320	NaN	520	0.274160169064999	2	0	NaN	1297326.0390263	NaN	1297327.0223521	1297327.53887783
28	20	1	0	90	36.1581920903955	36.241610738255	7	0.233348667975515	2	5	4	NaN	1	5	0.132056268018382	0	1	NaN	281	5	29	2	120	220	320	NaN	520	0.338059574132785	1	1	NaN	1297328.6390709	NaN	1297329.6226168	1297330.13913203
28	20	1	0	90	36.1581920903955	36.241610738255	24	0.800052575916052	2	1	4	NaN	1	4	0.132056268018382	0	1	NaN	282	5	30	2	120	220	320	NaN	520	0.183727121446282	2	0	NaN	1297331.3061319	NaN	1297332.2895219	1297332.80606058
28	20	1	0	90	36.1581920903955	36.241610738255	18	0.600039431937039	2	12	3	NaN	2	5	0.132056268018382	0	1	NaN	283	5	31	2	120	220	320	NaN	520	0.262985479319468	1	0	NaN	1297334.3064009	NaN	1297335.2898123	1297335.80635582
28	20	1	0	90	36.1581920903955	36.241610738255	11	0.366690763961524	2	3	5	NaN	1	4	0.132056268018382	0	1	NaN	284	5	32	2	120	220	320	NaN	520	0.280350931920111	1	1	NaN	1297337.0732316	NaN	1297338.0567573	1297338.57329757
28	20	1	0	90	36.1581920903955	36.241610738255	15	0.500032859947532	2	1	2	NaN	1	5	0.132056268018382	0	1	NaN	285	5	33	2	120	220	320	NaN	520	0.919811569154263	2	0	NaN	1297339.6734701	NaN	1297340.6570356	1297341.17354523
28	20	1	0	90	36.1581920903955	36.241610738255	6	0.200013143979013	2	9	3	NaN	2	4	0.132056268018382	0	1	NaN	286	5	34	2	120	220	320	NaN	520	0.677332563791424	1	0	NaN	1297342.9239415	NaN	1297343.9073225	1297344.42385824
28	20	1	0	90	36.1581920903955	36.241610738255	25	0.833388099912554	2	6	2	NaN	1	4	0.132056268018382	0	1	NaN	287	5	35	2	120	220	320	NaN	520	0.393597563961521	1	1	NaN	1297346.0075584	NaN	1297346.9909648	1297347.50749644
28	20	1	0	90	36.1581920903955	36.241610738255	8	0.266684191972017	2	10	3	NaN	2	4	0.132056268018382	0	1	NaN	288	5	36	2	120	220	320	NaN	520	2.04360146913677	2	1	NaN	1297348.9578247	NaN	1297349.9412515	1297350.45778753
28	20	1	0	90	36.1581920903955	36.241610738255	6	0.200013143979013	2	1	1	NaN	1	5	0.132056268018382	0	1	NaN	289	5	37	2	120	220	320	NaN	520	0.292437389725819	2	0	NaN	1297353.3249168	NaN	1297354.3083347	1297354.82488931
28	20	1	0	90	36.1581920903955	36.241610738255	10	0.333355239965022	2	6	6	NaN	1	5	0.132056268018382	0	1	NaN	290	5	38	2	120	220	320	NaN	520	0.695765169104561	1	1	NaN	1297367.2095355	NaN	1297368.1930455	1297368.70957863
28	20	1	0	90	36.1581920903955	36.241610738255	21	0.700046003926545	2	4	3	NaN	1	4	0.132056268018382	0	1	NaN	291	5	39	2	120	220	320	NaN	520	0.166949574137107	1	1	NaN	1297370.2266096	NaN	1297371.2099932	1297371.72654573
28	20	1	0	90	36.1581920903955	36.241610738255	10	0.333355239965022	2	6	1	NaN	1	4	0.132056268018382	0	1	NaN	292	5	40	2	120	220	320	NaN	520	0.0104066370986402	1	1	NaN	1297372.7435284	NaN	1297373.7269156	1297374.24346996
28	20	1	0	90	36.1581920903955	36.241610738255	13	0.433361811954528	2	1	6	NaN	1	4	0.132056268018382	0	1	NaN	293	5	41	2	120	220	320	NaN	520	0.0105592689942569	2	0	NaN	1297375.076958	NaN	1297376.0604772	1297376.57702383
28	20	1	0	90	36.1581920903955	36.241610738255	6	0.200013143979013	2	5	5	NaN	1	5	0.132056268018382	0	1	NaN	294	5	42	2	120	220	320	NaN	520	0.390503426548094	1	1	NaN	1297377.4107206	NaN	1297378.3940842	1297378.91058337
28	20	1	0	90	36.1581920903955	36.241610738255	19	0.633374955933541	2	10	4	NaN	2	5	0.132056268018382	0	1	NaN	295	5	43	2	120	220	320	NaN	520	0.130243474151939	2	1	NaN	1297380.1275841	NaN	1297381.1110058	1297381.62751103
28	20	1	0	90	36.1581920903955	36.241610738255	24	0.800052575916052	2	7	4	NaN	2	5	0.132056268018382	0	1	NaN	296	5	44	2	120	220	320	NaN	520	0.0104759691748768	1	0	NaN	1297382.5944352	NaN	1297383.577897	1297384.09442113
28	20	1	0	90	36.1581920903955	36.241610738255	11	0.366690763961524	2	2	4	NaN	1	3	0.132056268018382	0	1	NaN	297	5	45	2	120	220	320	NaN	520	0.171007426688448	2	0	NaN	1297385.2947052	NaN	1297386.2781815	1297386.79469847
28	20	1	0	90	36.1581920903955	36.241610738255	17	0.566703907940537	2	8	3	NaN	2	4	0.132056268018382	0	1	NaN	298	5	46	2	120	220	320	NaN	520	0.308398168999702	2	1	NaN	1297388.0450096	NaN	1297389.0284913	1297389.54495823
28	20	1	0	90	36.1581920903955	36.241610738255	15	0.500032859947532	2	2	5	NaN	1	4	0.132056268018382	0	1	NaN	299	5	47	2	120	220	320	NaN	520	0.179124237271026	2	0	NaN	1297391.0786328	NaN	1297392.0620896	1297392.57859276
28	20	1	0	90	36.1581920903955	36.241610738255	22	0.733381527923048	2	3	4	NaN	1	5	0.132056268018382	0	1	NaN	300	5	48	2	120	220	320	NaN	520	0.198616969166324	1	1	NaN	1297393.5788974	NaN	1297394.5622955	1297395.07883293
28	20	1	0	90	36.1581920903955	36.241610738255	19	0.633374955933541	2	6	2	NaN	1	5	0.132056268018382	0	1	NaN	301	5	49	2	120	220	320	NaN	520	0.289691989775747	2	0	NaN	1297396.095808	NaN	1297397.0792254	1297397.59575301
28	20	1	0	90	36.1581920903955	36.241610738255	24	0.800052575916052	2	7	5	NaN	2	5	0.132056268018382	0	1	NaN	302	5	50	2	120	220	320	NaN	520	0.593121374025941	2	1	NaN	1297399.1127603	NaN	1297400.0961963	1297400.61271383
28	20	1	0	90	36.1581920903955	36.241610738255	25	0.833388099912554	2	2	1	NaN	1	3	0.132056268018382	0	1	NaN	303	5	51	2	120	220	320	NaN	520	0.114401969127357	1	1	NaN	1297402.2630746	NaN	1297403.2464873	1297403.76302633
28	20	1	0	90	36.1581920903955	36.241610738255	18	0.600039431937039	2	9	2	NaN	2	4	0.132056268018382	0	1	NaN	304	5	52	2	120	220	320	NaN	520	0.128950216341764	1	0	NaN	1297404.6965436	NaN	1297405.6800259	1297406.19659118
28	20	1	0	90	36.1581920903955	36.241610738255	7	0.233348667975515	2	5	6	NaN	1	5	0.132056268018382	0	1	NaN	305	5	53	2	120	220	320	NaN	520	0.128901768941432	1	1	NaN	1297407.4968924	NaN	1297408.4803513	1297408.99686103
28	20	1	0	90	36.1581920903955	36.241610738255	22	0.733381527923048	2	6	2	NaN	1	3	0.132056268018382	0	1	NaN	306	5	54	2	120	220	320	NaN	520	0.10241066897288	1	1	NaN	1297409.9471814	NaN	1297410.9305706	1297411.44711073
28	20	1	0	90	36.1581920903955	36.241610738255	17	0.566703907940537	2	5	6	NaN	1	3	0.132056268018382	0	1	NaN	307	5	55	2	120	220	320	NaN	520	0.149488531984389	1	1	NaN	1297412.364085	NaN	1297413.3474804	1297413.86401417
28	20	1	0	90	36.1581920903955	36.241610738255	11	0.366690763961524	2	6	6	NaN	1	4	0.132056268018382	0	1	NaN	308	5	56	2	120	220	320	NaN	520	0.105825021630153	1	1	NaN	1297414.8476489	NaN	1297415.8310495	1297416.34759678
28	20	1	0	90	36.1581920903955	36.241610738255	15	0.500032859947532	2	7	6	NaN	2	4	0.132056268018382	0	1	NaN	309	5	57	2	120	220	320	NaN	520	0.0103727371897548	1	0	NaN	1297417.6479312	NaN	1297418.6313304	1297419.14787086
28	20	1	0	90	36.1581920903955	36.241610738255	23	0.76671705191955	2	6	4	NaN	1	3	0.132056268018382	0	1	NaN	310	5	58	2	120	220	320	NaN	520	0.0600412113126367	1	1	NaN	1297419.9814853	NaN	1297420.9648911	1297421.48142519
28	20	1	0	90	36.1581920903955	36.241610738255	0	0	1	11	2	NaN	2	3	0.132056268018382	0	1	NaN	311	5	59	2	110	210	310	NaN	510	0.546662537148222	1	0	NaN	1297422.6151039	NaN	1297423.5985385	1297424.11502116
28	20	1	0	90	36.1581920903955	36.241610738255	16	0.533368383944035	2	3	3	NaN	1	3	0.132056268018382	0	1	NaN	312	5	60	2	120	220	320	NaN	520	0.01046247407794	1	1	NaN	1297425.6820351	NaN	1297426.665418	1297427.18199293
28	20	1	0	90	36.1581920903955	36.241610738255	11	0.366690763961524	2	5	4	NaN	1	4	0.132056268018382	0	1	NaN	313	5	61	2	120	220	320	NaN	520	0.146248179255053	2	0	NaN	1297428.015618	NaN	1297428.9989159	1297429.51554262
28	20	1	0	90	36.1581920903955	36.241610738255	22	0.733381527923048	2	10	1	NaN	2	5	0.132056268018382	0	1	NaN	314	5	62	2	120	220	320	NaN	520	0.118995411321521	2	1	NaN	1297430.4824231	NaN	1297431.4659275	1297431.98244849
28	20	1	0	90	36.1581920903955	36.241610738255	22	0.733381527923048	2	2	1	NaN	1	3	0.132056268018382	0	1	NaN	315	5	63	2	120	220	320	NaN	520	0.220488031860441	1	1	NaN	1297432.9327903	NaN	1297433.9161988	1297434.43270917
28	20	1	0	90	36.1581920903955	36.241610738255	19	0.633374955933541	2	5	3	NaN	1	3	0.132056268018382	0	1	NaN	316	6	1	2	120	220	320	NaN	520	0.19542096904479	1	1	NaN	1297450.3344438	NaN	1297451.3178712	1297451.83440343
28	20	1	0	90	36.1581920903955	36.241610738255	15	0.500032859947532	2	5	1	NaN	1	4	0.132056268018382	0	1	NaN	317	6	2	2	120	220	320	NaN	520	0.213385168928653	2	0	NaN	1297453.2674237	NaN	1297454.2514846	1297454.76802673
28	20	1	0	90	36.1581920903955	36.241610738255	12	0.400026287958026	2	10	2	NaN	2	4	0.132056268018382	0	1	NaN	318	6	3	2	120	220	320	NaN	520	0.0859576691873372	1	0	NaN	1297456.0517017	NaN	1297457.035095	1297457.55163263
28	20	1	0	90	36.1581920903955	36.241610738255	14	0.46669733595103	2	8	3	NaN	2	4	0.132056268018382	0	1	NaN	319	6	4	2	120	220	320	NaN	520	1.66890215873718	1	0	NaN	1297458.6686311	NaN	1297459.6520262	1297460.16854674
28	20	1	0	90	36.1581920903955	36.241610738255	17	0.566703907940537	2	3	2	NaN	1	3	0.132056268018382	0	1	NaN	320	6	5	2	120	220	320	NaN	520	0.172478921478614	1	1	NaN	1297462.6690352	NaN	1297463.6525486	1297464.16894858
28	20	1	0	90	36.1581920903955	36.241610738255	16	0.533368383944035	2	1	6	NaN	1	5	0.132056268018382	0	1	NaN	321	6	6	2	120	220	320	NaN	520	0.0104926691856235	2	0	NaN	1297465.1692641	NaN	1297466.1526582	1297466.66918933
28	20	1	0	90	36.1581920903955	36.241610738255	10	0.333355239965022	2	3	5	NaN	1	4	0.132056268018382	0	1	NaN	322	6	7	2	120	220	320	NaN	520	0.0105501690413803	2	0	NaN	1297468.00282	NaN	1297468.9862631	1297469.50281243
28	20	1	0	90	36.1581920903955	36.241610738255	20	0.666710479930043	2	1	2	NaN	1	5	0.132056268018382	0	1	NaN	323	6	8	2	120	220	320	NaN	520	0.240751369157806	1	1	NaN	1297470.3364139	NaN	1297471.3198306	1297471.85304063
28	20	1	0	90	36.1581920903955	36.241610738255	15	0.500032859947532	2	11	3	NaN	2	3	0.132056268018382	0	1	NaN	324	6	9	2	120	220	320	NaN	520	0.177855069050565	2	1	NaN	1297472.9200136	NaN	1297473.9034203	1297474.41995683
28	20	1	0	90	36.1581920903955	36.241610738255	0	0	1	8	5	NaN	2	3	0.132056268018382	0	1	NaN	325	6	10	2	110	210	310	NaN	510	0.0933275690767914	1	0	NaN	1297475.4201292	NaN	1297476.4036663	1297476.92019643
28	20	1	0	90	36.1581920903955	36.241610738255	21	0.700046003926545	2	8	6	NaN	2	3	0.132056268018382	0	1	NaN	326	6	11	2	120	220	320	NaN	520	0.0105003165081143	2	1	NaN	1297478.3705289	NaN	1297479.353939	1297479.87049158
28	20	1	0	90	36.1581920903955	36.241610738255	18	0.600039431937039	2	3	1	NaN	1	3	0.132056268018382	0	1	NaN	327	6	12	2	120	220	320	NaN	520	0.305518831824884	2	0	NaN	1297480.7040984	NaN	1297481.6875184	1297482.20404757
28	20	1	0	90	36.1581920903955	36.241610738255	11	0.366690763961524	2	2	2	NaN	1	4	0.132056268018382	0	1	NaN	328	6	13	2	120	220	320	NaN	520	0.0671908792573959	1	1	NaN	1297483.6544485	NaN	1297484.6378171	1297485.15434312
28	20	1	0	90	36.1581920903955	36.241610738255	16	0.533368383944035	2	11	5	NaN	2	5	0.132056268018382	0	1	NaN	329	6	14	2	120	220	320	NaN	520	0.0889809112995863	2	1	NaN	1297486.5045542	NaN	1297487.4880712	1297488.00461499
28	20	1	0	90	36.1581920903955	36.241610738255	7	0.233348667975515	2	1	6	NaN	1	5	0.132056268018382	0	1	NaN	330	6	15	2	120	220	320	NaN	520	2.29969622683711	1	1	NaN	1297490.6217462	NaN	1297491.6051772	1297492.12169737
28	20	1	0	90	36.1581920903955	36.241610738255	6	0.200013143979013	2	2	1	NaN	1	5	0.132056268018382	0	1	NaN	331	6	16	2	120	220	320	NaN	520	0.194152111187577	2	0	NaN	1297495.6555461	NaN	1297496.6389733	1297497.15552149
28	20	1	0	90	36.1581920903955	36.241610738255	11	0.366690763961524	2	9	6	NaN	2	4	0.132056268018382	0	1	NaN	332	6	17	2	120	220	320	NaN	520	0.306014569010586	2	1	NaN	1297499.0559065	NaN	1297500.0392923	1297500.55584793
28	20	1	0	90	36.1581920903955	36.241610738255	6	0.200013143979013	2	12	1	NaN	2	5	0.132056268018382	0	1	NaN	333	6	18	2	120	220	320	NaN	520	0.440315574174747	2	1	NaN	1297501.6894909	NaN	1297502.672911	1297503.18944573
28	20	1	0	90	36.1581920903955	36.241610738255	9	0.30001971596852	2	2	3	NaN	1	5	0.132056268018382	0	1	NaN	334	6	19	2	120	220	320	NaN	520	0.433117621578276	1	1	NaN	1297504.456449	NaN	1297505.4398472	1297505.95638748
28	20	1	0	90	36.1581920903955	36.241610738255	9	0.30001971596852	2	8	6	NaN	2	4	0.132056268018382	0	1	NaN	335	6	20	2	120	220	320	NaN	520	0.240190363721922	2	1	NaN	1297509.2735841	NaN	1297510.2569864	1297510.77351614
28	20	1	0	90	36.1581920903955	36.241610738255	17	0.566703907940537	2	7	1	NaN	2	3	0.132056268018382	0	1	NaN	336	6	21	2	120	220	320	NaN	520	0.729403369128704	1	0	NaN	1297511.8403932	NaN	1297512.8239108	1297513.34044203
28	20	1	0	90	36.1581920903955	36.241610738255	24	0.800052575916052	2	10	3	NaN	2	4	0.132056268018382	0	1	NaN	337	6	22	2	120	220	320	NaN	520	0.153296074131504	2	1	NaN	1297515.0407974	NaN	1297516.0242168	1297516.54075133
28	20	1	0	90	36.1581920903955	36.241610738255	25	0.833388099912554	2	6	3	NaN	1	3	0.132056268018382	0	1	NaN	338	6	23	2	120	220	320	NaN	520	0.0104793692007661	1	1	NaN	1297517.5243984	NaN	1297518.5078053	1297519.02432443
28	20	1	0	90	36.1581920903955	36.241610738255	19	0.633374955933541	2	12	4	NaN	2	5	0.132056268018382	0	1	NaN	339	6	24	2	120	220	320	NaN	520	0.111818068893626	2	1	NaN	1297519.857837	NaN	1297520.8413785	1297521.35788803
28	20	1	0	90	36.1581920903955	36.241610738255	8	0.266684191972017	2	12	1	NaN	2	4	0.132056268018382	0	1	NaN	340	6	25	2	120	220	320	NaN	520	0.238076879177243	1	0	NaN	1297522.2915508	NaN	1297523.2749277	1297523.79146942
28	20	1	0	90	36.1581920903955	36.241610738255	9	0.30001971596852	2	6	6	NaN	1	3	0.132056268018382	0	1	NaN	341	6	26	2	120	220	320	NaN	520	0.141224673949182	1	1	NaN	1297525.5084056	NaN	1297526.4919693	1297527.00844653
28	20	1	0	90	36.1581920903955	36.241610738255	21	0.700046003926545	2	5	4	NaN	1	3	0.132056268018382	0	1	NaN	342	6	27	2	120	220	320	NaN	520	0.0105826638173312	1	1	NaN	1297527.9587623	NaN	1297528.9421565	1297529.45868444
28	20	1	0	90	36.1581920903955	36.241610738255	25	0.833388099912554	2	12	2	NaN	2	5	0.132056268018382	0	1	NaN	343	6	28	2	120	220	320	NaN	520	0.010492169065401	2	1	NaN	1297530.2923938	NaN	1297531.2756723	1297531.79224653
28	20	1	0	90	36.1581920903955	36.241610738255	6	0.200013143979013	2	10	3	NaN	2	4	0.132056268018382	0	1	NaN	344	6	29	2	120	220	320	NaN	520	0.0105328639037907	2	1	NaN	1297533.2426194	NaN	1297534.2259976	1297534.74253674
28	20	1	0	90	36.1581920903955	36.241610738255	20	0.666710479930043	2	10	1	NaN	2	5	0.132056268018382	0	1	NaN	345	6	30	2	120	220	320	NaN	520	0.0102913998998702	1	0	NaN	1297535.5761602	NaN	1297536.5595459	1297537.0761096
28	20	1	0	90	36.1581920903955	36.241610738255	22	0.733381527923048	2	11	6	NaN	2	5	0.132056268018382	0	1	NaN	346	6	31	2	120	220	320	NaN	520	0.0737875164486468	2	1	NaN	1297538.1597539	NaN	1297539.1431468	1297539.65968188
28	20	1	0	90	36.1581920903955	36.241610738255	0	0	1	3	3	NaN	1	3	0.132056268018382	0	1	NaN	347	6	32	2	110	210	310	NaN	510	0.0104677216149867	1	1	NaN	1297541.0766917	NaN	1297542.0600736	1297542.57664408
28	20	1	0	90	36.1581920903955	36.241610738255	21	0.700046003926545	2	9	2	NaN	2	3	0.132056268018382	0	1	NaN	348	6	33	2	120	220	320	NaN	520	1.7196343371179	2	1	NaN	1297543.4102204	NaN	1297544.393656	1297544.91020626
28	20	1	0	90	36.1581920903955	36.241610738255	14	0.46669733595103	2	5	1	NaN	1	3	0.132056268018382	0	1	NaN	349	6	34	2	120	220	320	NaN	520	0.156272437190637	1	1	NaN	1297547.8772686	NaN	1297548.8608126	1297549.37731146
28	20	1	0	90	36.1581920903955	36.241610738255	14	0.46669733595103	2	9	6	NaN	2	4	0.132056268018382	0	1	NaN	350	6	35	2	120	220	320	NaN	520	0.0103559421841055	2	1	NaN	1297550.3609415	NaN	1297551.3443618	1297551.86089686
28	20	1	0	90	36.1581920903955	36.241610738255	12	0.400026287958026	2	9	5	NaN	2	4	0.132056268018382	0	1	NaN	351	6	36	2	120	220	320	NaN	520	0.0104648738633841	1	0	NaN	1297552.6945042	NaN	1297553.6779188	1297554.19445053
28	20	1	0	90	36.1581920903955	36.241610738255	10	0.333355239965022	2	8	3	NaN	2	5	0.132056268018382	0	1	NaN	352	6	37	2	120	220	320	NaN	520	1.6616743421182	2	1	NaN	1297555.0280785	NaN	1297556.011498	1297556.52801306
28	20	1	0	90	36.1581920903955	36.241610738255	17	0.566703907940537	2	3	2	NaN	1	4	0.132056268018382	0	1	NaN	353	6	38	2	120	220	320	NaN	520	1.06989339995198	1	1	NaN	1297559.0116114	NaN	1297559.9952168	1297560.5117281
28	20	1	0	90	36.1581920903955	36.241610738255	16	0.533368383944035	2	2	4	NaN	1	4	0.132056268018382	0	1	NaN	354	6	39	2	120	220	320	NaN	520	0.277476489776745	2	0	NaN	1297562.8121765	NaN	1297563.7955368	1297564.31210551
28	20	1	0	90	36.1581920903955	36.241610738255	19	0.633374955933541	2	2	3	NaN	1	4	0.132056268018382	0	1	NaN	355	6	40	2	120	220	320	NaN	520	0.22589396382682	1	1	NaN	1297565.8956515	NaN	1297566.8792103	1297567.39574164
28	20	1	0	90	36.1581920903955	36.241610738255	11	0.366690763961524	2	7	1	NaN	2	3	0.132056268018382	0	1	NaN	356	6	41	2	120	220	320	NaN	520	0.0836901690345258	1	0	NaN	1297568.4459674	NaN	1297569.429467	1297569.94599493
28	20	1	0	90	36.1581920903955	36.241610738255	24	0.800052575916052	2	6	4	NaN	1	4	0.132056268018382	0	1	NaN	357	6	42	2	120	220	320	NaN	520	1.88337286910973	1	1	NaN	1297570.8463012	NaN	1297571.8297078	1297572.34622983
28	20	1	0	90	36.1581920903955	36.241610738255	15	0.500032859947532	2	12	6	NaN	2	4	0.132056268018382	0	1	NaN	358	6	43	2	120	220	320	NaN	520	0.202349269064143	2	1	NaN	1297575.0633941	NaN	1297576.0467803	1297576.56332183
28	20	1	0	90	36.1581920903955	36.241610738255	22	0.733381527923048	2	8	2	NaN	2	4	0.132056268018382	0	1	NaN	359	6	44	2	120	220	320	NaN	520	0.275373168988153	1	0	NaN	1297577.8301808	NaN	1297578.8137097	1297579.33024643
28	20	1	0	90	36.1581920903955	36.241610738255	12	0.400026287958026	2	8	2	NaN	2	3	0.132056268018382	0	1	NaN	360	6	45	2	120	220	320	NaN	520	0.211849063867703	2	1	NaN	1297580.6138816	NaN	1297581.597342	1297582.11385624
28	20	1	0	90	36.1581920903955	36.241610738255	13	0.433361811954528	2	6	3	NaN	1	3	0.132056268018382	0	1	NaN	361	6	46	2	120	220	320	NaN	520	0.123527726624161	1	1	NaN	1297583.6141997	NaN	1297584.5976248	1297585.11414507
28	20	1	0	90	36.1581920903955	36.241610738255	25	0.833388099912554	2	12	3	NaN	2	4	0.132056268018382	0	1	NaN	362	6	47	2	120	220	320	NaN	520	0.30156122148037	2	1	NaN	1297586.5644671	NaN	1297587.5478907	1297588.06443858
28	20	1	0	90	36.1581920903955	36.241610738255	9	0.30001971596852	2	3	5	NaN	1	5	0.132056268018382	0	1	NaN	363	6	48	2	120	220	320	NaN	520	0.21969707403332	2	0	NaN	1297589.5981268	NaN	1297590.5815181	1297591.09809133
28	20	1	0	90	36.1581920903955	36.241610738255	17	0.566703907940537	2	1	4	NaN	1	5	0.132056268018382	0	1	NaN	364	6	49	2	120	220	320	NaN	520	0.189374316483736	1	1	NaN	1297592.1484014	NaN	1297593.1317625	1297593.64831198
28	20	1	0	90	36.1581920903955	36.241610738255	6	0.200013143979013	2	11	1	NaN	2	3	0.132056268018382	0	1	NaN	365	6	50	2	120	220	320	NaN	520	0.184683889849111	2	1	NaN	1297594.6652864	NaN	1297595.6486714	1297596.16524201
28	20	1	0	90	36.1581920903955	36.241610738255	13	0.433361811954528	2	8	2	NaN	2	4	0.132056268018382	0	1	NaN	366	6	51	2	120	220	320	NaN	520	0.115808084374294	2	1	NaN	1297597.5822377	NaN	1297598.5656549	1297599.08218702
28	20	1	0	90	36.1581920903955	36.241610738255	10	0.333355239965022	2	5	2	NaN	1	3	0.132056268018382	0	1	NaN	367	6	52	2	120	220	320	NaN	520	0.237330211093649	2	0	NaN	1297600.5325352	NaN	1297601.5159354	1297602.03246809
28	20	1	0	90	36.1581920903955	36.241610738255	14	0.46669733595103	2	1	5	NaN	1	3	0.132056268018382	0	1	NaN	368	6	53	2	120	220	320	NaN	520	0.150920221582055	1	1	NaN	1297603.0827836	NaN	1297604.0661958	1297604.58272078
28	20	1	0	90	36.1581920903955	36.241610738255	7	0.233348667975515	2	6	1	NaN	1	4	0.132056268018382	0	1	NaN	369	6	54	2	120	220	320	NaN	520	0.0673447689041495	1	1	NaN	1297605.5663721	NaN	1297606.5497609	1297607.06629563
28	20	1	0	90	36.1581920903955	36.241610738255	6	0.200013143979013	2	6	3	NaN	1	5	0.132056268018382	0	1	NaN	370	6	55	2	120	220	320	NaN	520	0.145213626790792	1	1	NaN	1297608.4166225	NaN	1297609.4000672	1297609.91657867
28	20	1	0	90	36.1581920903955	36.241610738255	17	0.566703907940537	2	4	4	NaN	1	5	0.132056268018382	0	1	NaN	371	6	56	2	120	220	320	NaN	520	0.174610063899308	1	1	NaN	1297610.8833872	NaN	1297611.8669733	1297612.38348874
28	20	1	0	90	36.1581920903955	36.241610738255	16	0.533368383944035	2	9	4	NaN	2	4	0.132056268018382	0	1	NaN	372	6	57	2	120	220	320	NaN	520	0.0345976371318102	2	1	NaN	1297613.3671301	NaN	1297614.3505296	1297614.86707686
28	20	1	0	90	36.1581920903955	36.241610738255	22	0.733381527923048	2	1	6	NaN	1	3	0.132056268018382	0	1	NaN	373	6	58	2	120	220	320	NaN	520	0.0997257793787867	2	0	NaN	1297615.733993	NaN	1297616.7174489	1297617.23396422
28	20	1	0	90	36.1581920903955	36.241610738255	17	0.566703907940537	2	12	3	NaN	2	4	0.132056268018382	0	1	NaN	374	6	59	2	120	220	320	NaN	520	0.010483869118616	1	0	NaN	1297618.3176062	NaN	1297619.3010067	1297619.81754753
28	20	1	0	90	36.1581920903955	36.241610738255	17	0.566703907940537	2	9	5	NaN	2	3	0.132056268018382	0	1	NaN	375	6	60	2	120	220	320	NaN	520	0.0625603636726737	1	0	NaN	1297620.6511056	NaN	1297621.6345525	1297622.15110904
28	20	1	0	90	36.1581920903955	36.241610738255	22	0.733381527923048	2	4	1	NaN	1	3	0.132056268018382	0	1	NaN	376	6	61	2	120	220	320	NaN	520	0.116930916439742	1	1	NaN	1297623.4847685	NaN	1297624.4681612	1297624.98472618
28	20	1	0	90	36.1581920903955	36.241610738255	6	0.200013143979013	2	5	1	NaN	1	3	0.132056268018382	0	1	NaN	377	6	62	2	120	220	320	NaN	520	0.0103782371152192	1	1	NaN	1297625.9183568	NaN	1297626.9018451	1297627.41829966
28	20	1	0	90	36.1581920903955	36.241610738255	19	0.633374955933541	2	11	5	NaN	2	3	0.132056268018382	0	1	NaN	378	6	63	2	120	220	320	NaN	520	0.010456089861691	2	1	NaN	1297628.2519357	NaN	1297629.2353263	1297629.75187111
28	20	1	0	90	36.1581920903955	36.241610738255	8	0.266684191972017	2	11	5	NaN	2	4	0.132056268018382	0	1	NaN	379	7	1	2	120	220	320	NaN	520	0.213028894737363	2	1	NaN	1297658.804776	NaN	1297659.7883488	1297660.30487711
28	20	1	0	90	36.1581920903955	36.241610738255	10	0.333355239965022	2	11	5	NaN	2	4	0.132056268018382	0	1	NaN	380	7	2	2	120	220	320	NaN	520	0.111294463742524	2	1	NaN	1297661.3385142	NaN	1297662.3218592	1297662.83843294
28	20	1	0	90	36.1581920903955	36.241610738255	8	0.266684191972017	2	8	4	NaN	2	5	0.132056268018382	0	1	NaN	381	7	3	2	120	220	320	NaN	520	0.100965268909931	2	1	NaN	1297664.1886703	NaN	1297665.1721963	1297665.68873063
28	20	1	0	90	36.1581920903955	36.241610738255	21	0.700046003926545	2	7	2	NaN	2	4	0.132056268018382	0	1	NaN	382	7	4	2	120	220	320	NaN	520	0.211184469051659	2	1	NaN	1297667.0390414	NaN	1297668.0224708	1297668.53899713
28	20	1	0	90	36.1581920903955	36.241610738255	17	0.566703907940537	2	5	5	NaN	1	4	0.132056268018382	0	1	NaN	383	7	5	2	120	220	320	NaN	520	0.0851736692711711	1	1	NaN	1297669.5726318	NaN	1297670.556079	1297671.07257443
28	20	1	0	90	36.1581920903955	36.241610738255	23	0.76671705191955	2	5	5	NaN	1	5	0.132056268018382	0	1	NaN	384	7	6	2	120	220	320	NaN	520	0.0922056690324098	1	1	NaN	1297671.9895681	NaN	1297672.9729634	1297673.48947923
28	20	1	0	90	36.1581920903955	36.241610738255	25	0.833388099912554	2	4	6	NaN	1	3	0.132056268018382	0	1	NaN	385	7	7	2	120	220	320	NaN	520	0.252059316262603	2	0	NaN	1297674.7897233	NaN	1297675.7732243	1297676.28976128
28	20	1	0	90	36.1581920903955	36.241610738255	23	0.76671705191955	2	1	4	NaN	1	5	0.132056268018382	0	1	NaN	386	7	8	2	120	220	320	NaN	520	0.0104462741874158	2	0	NaN	1297677.9567921	NaN	1297678.9401935	1297679.45673723
28	20	1	0	90	36.1581920903955	36.241610738255	15	0.500032859947532	2	3	3	NaN	1	3	0.132056268018382	0	1	NaN	387	7	9	2	120	220	320	NaN	520	0.223837463650852	1	1	NaN	1297680.2903802	NaN	1297681.2737472	1297681.79029084
28	20	1	0	90	36.1581920903955	36.241610738255	20	0.666710479930043	2	8	1	NaN	2	5	0.132056268018382	0	1	NaN	388	7	10	2	120	220	320	NaN	520	0.223828068934381	1	0	NaN	1297683.2740145	NaN	1297684.2573657	1297684.77392973
28	20	1	0	90	36.1581920903955	36.241610738255	10	0.333355239965022	2	2	4	NaN	1	3	0.132056268018382	0	1	NaN	389	7	11	2	120	220	320	NaN	520	0.0104803689755499	2	0	NaN	1297685.8242151	NaN	1297686.8076263	1297687.32417833
28	20	1	0	90	36.1581920903955	36.241610738255	7	0.233348667975515	2	12	5	NaN	2	3	0.132056268018382	0	1	NaN	390	7	12	2	120	220	320	NaN	520	0.111394537147135	1	0	NaN	1297688.6744915	NaN	1297689.6578968	1297690.17446316
28	20	1	0	90	36.1581920903955	36.241610738255	15	0.500032859947532	2	12	4	NaN	2	3	0.132056268018382	0	1	NaN	391	7	13	2	120	220	320	NaN	520	0.0104922691825777	2	1	NaN	1297691.6914528	NaN	1297692.6748874	1297693.19141413
28	20	1	0	90	36.1581920903955	36.241610738255	19	0.633374955933541	2	1	6	NaN	1	3	0.132056268018382	0	1	NaN	392	7	14	2	120	220	320	NaN	520	0.120758537203074	2	0	NaN	1297694.0250522	NaN	1297695.0084405	1297695.52498316
28	20	1	0	90	36.1581920903955	36.241610738255	8	0.266684191972017	2	3	2	NaN	1	4	0.132056268018382	0	1	NaN	393	7	15	2	120	220	320	NaN	520	0.0865882320795208	1	1	NaN	1297696.4752895	NaN	1297697.4587532	1297697.97523407
28	20	1	0	90	36.1581920903955	36.241610738255	20	0.666710479930043	2	2	5	NaN	1	5	0.132056268018382	0	1	NaN	394	7	16	2	120	220	320	NaN	520	0.116737568983808	2	0	NaN	1297699.3255261	NaN	1297700.3089559	1297700.82551153
28	20	1	0	90	36.1581920903955	36.241610738255	10	0.333355239965022	2	4	1	NaN	1	5	0.132056268018382	0	1	NaN	395	7	17	2	120	220	320	NaN	520	0.20746911643073	1	1	NaN	1297702.242531	NaN	1297703.2259091	1297703.74247008
28	20	1	0	90	36.1581920903955	36.241610738255	12	0.400026287958026	2	9	2	NaN	2	3	0.132056268018382	0	1	NaN	396	7	18	2	120	220	320	NaN	520	0.0445357740391046	1	0	NaN	1297705.1093334	NaN	1297706.092878	1297706.60939923
28	20	1	0	90	36.1581920903955	36.241610738255	11	0.366690763961524	2	7	3	NaN	2	3	0.132056268018382	0	1	NaN	397	7	19	2	120	220	320	NaN	520	0.108088321750984	2	1	NaN	1297707.7097071	NaN	1297708.6931516	1297709.20965518
28	20	1	0	90	36.1581920903955	36.241610738255	10	0.333355239965022	2	12	5	NaN	2	3	0.132056268018382	0	1	NaN	398	7	20	2	120	220	320	NaN	520	0.227004716405645	2	1	NaN	1297710.5433026	NaN	1297711.5267108	1297712.04326968
28	20	1	0	90	36.1581920903955	36.241610738255	18	0.600039431937039	2	7	6	NaN	2	4	0.132056268018382	0	1	NaN	399	7	21	2	120	220	320	NaN	520	0.100464269053191	1	0	NaN	1297713.0935714	NaN	1297714.0769793	1297714.59351133
28	20	1	0	90	36.1581920903955	36.241610738255	12	0.400026287958026	2	11	2	NaN	2	4	0.132056268018382	0	1	NaN	400	7	22	2	120	220	320	NaN	520	0.11946186888963	1	0	NaN	1297716.0105801	NaN	1297716.9940268	1297717.51046703
28	20	1	0	90	36.1581920903955	36.241610738255	20	0.666710479930043	2	6	1	NaN	1	3	0.132056268018382	0	1	NaN	401	7	23	2	120	220	320	NaN	520	0.107902337098494	1	1	NaN	1297718.6941375	NaN	1297719.6775088	1297720.19407306
28	20	1	0	90	36.1581920903955	36.241610738255	23	0.76671705191955	2	4	1	NaN	1	5	0.132056268018382	0	1	NaN	402	7	24	2	120	220	320	NaN	520	0.0787872690707445	1	1	NaN	1297721.211009	NaN	1297722.1943381	1297722.71097683
28	20	1	0	90	36.1581920903955	36.241610738255	17	0.566703907940537	2	11	4	NaN	2	3	0.132056268018382	0	1	NaN	403	7	25	2	120	220	320	NaN	520	0.0104453740641475	2	1	NaN	1297723.6112917	NaN	1297724.5946748	1297725.11121873
28	20	1	0	90	36.1581920903955	36.241610738255	19	0.633374955933541	2	4	3	NaN	1	4	0.132056268018382	0	1	NaN	404	7	26	2	120	220	320	NaN	520	1.11325956904329	1	1	NaN	1297725.9448278	NaN	1297726.9282237	1297727.44477843
28	20	1	0	90	36.1581920903955	36.241610738255	15	0.500032859947532	2	3	1	NaN	1	5	0.132056268018382	0	1	NaN	405	7	27	2	120	220	320	NaN	520	0.0313885216601193	2	0	NaN	1297729.3785192	NaN	1297730.3619219	1297730.87845708
28	20	1	0	90	36.1581920903955	36.241610738255	8	0.266684191972017	2	9	5	NaN	2	5	0.132056268018382	0	1	NaN	406	7	28	2	120	220	320	NaN	520	0.0105113163590431	2	1	NaN	1297731.7287669	NaN	1297732.7121446	1297733.22867538
28	20	1	0	90	36.1581920903955	36.241610738255	25	0.833388099912554	2	3	3	NaN	1	3	0.132056268018382	0	1	NaN	407	7	29	2	120	220	320	NaN	520	0.659579531755298	1	1	NaN	1297734.0623092	NaN	1297735.0457189	1297735.56224567
28	20	1	0	90	36.1581920903955	36.241610738255	7	0.233348667975515	2	7	4	NaN	2	3	0.132056268018382	0	1	NaN	408	7	30	2	120	220	320	NaN	520	0.131971169030294	2	1	NaN	1297737.0458056	NaN	1297738.0293345	1297738.54586123
28	20	1	0	90	36.1581920903955	36.241610738255	23	0.76671705191955	2	2	3	NaN	1	4	0.132056268018382	0	1	NaN	409	7	31	2	120	220	320	NaN	520	0.0330512844957411	2	0	NaN	1297739.512829	NaN	1297740.4962371	1297741.01277472
28	20	1	0	90	36.1581920903955	36.241610738255	9	0.30001971596852	2	10	4	NaN	2	4	0.132056268018382	0	1	NaN	410	7	32	2	120	220	320	NaN	520	0.019551326520741	2	1	NaN	1297742.0463561	NaN	1297743.029818	1297743.54636247
28	20	1	0	90	36.1581920903955	36.241610738255	23	0.76671705191955	2	7	2	NaN	2	5	0.132056268018382	0	1	NaN	411	7	33	2	120	220	320	NaN	520	0.0103676370345056	2	1	NaN	1297744.7967413	NaN	1297745.7800877	1297746.29662256
28	20	1	0	90	36.1581920903955	36.241610738255	14	0.46669733595103	2	2	4	NaN	1	4	0.132056268018382	0	1	NaN	412	7	34	2	120	220	320	NaN	520	0.832040569046512	2	0	NaN	1297747.1302653	NaN	1297748.1136557	1297748.63018533
28	20	1	0	90	36.1581920903955	36.241610738255	6	0.200013143979013	2	8	5	NaN	2	3	0.132056268018382	0	1	NaN	413	7	35	2	120	220	320	NaN	520	2.32943063206039	1	0	NaN	1297750.2805535	NaN	1297751.2639554	1297751.78050177
28	20	1	0	90	36.1581920903955	36.241610738255	23	0.76671705191955	2	12	4	NaN	2	3	0.132056268018382	0	1	NaN	414	7	36	2	120	220	320	NaN	520	0.333528669085354	1	0	NaN	1297755.1643476	NaN	1297756.1477917	1297756.66431313
28	20	1	0	90	36.1581920903955	36.241610738255	20	0.666710479930043	2	10	6	NaN	2	5	0.132056268018382	0	1	NaN	415	7	37	2	120	220	320	NaN	520	0.0104767689481378	2	1	NaN	1297760.381528	NaN	1297761.3649353	1297761.88148643
28	20	1	0	90	36.1581920903955	36.241610738255	22	0.733381527923048	2	9	2	NaN	2	4	0.132056268018382	0	1	NaN	416	7	38	2	120	220	320	NaN	520	0.01047756918706	2	1	NaN	1297762.7150877	NaN	1297763.6985291	1297764.21504443
28	20	1	0	90	36.1581920903955	36.241610738255	9	0.30001971596852	2	5	1	NaN	1	4	0.132056268018382	0	1	NaN	417	7	39	2	120	220	320	NaN	520	0.0105440691113472	1	1	NaN	1297765.0487328	NaN	1297766.0320562	1297766.54863753
28	20	1	0	90	36.1581920903955	36.241610738255	0	0	1	12	3	NaN	2	5	0.132056268018382	0	1	NaN	418	7	40	2	110	210	310	NaN	510	0.09176843194291	2	1	NaN	1297767.3822396	NaN	1297768.3656241	1297768.88218117
28	20	1	0	90	36.1581920903955	36.241610738255	21	0.700046003926545	2	9	3	NaN	2	5	0.132056268018382	0	1	NaN	419	7	41	2	120	220	320	NaN	520	0.114778869086877	1	0	NaN	1297769.79915	NaN	1297770.7825622	1297771.29909773
28	20	1	0	90	36.1581920903955	36.241610738255	11	0.366690763961524	2	4	5	NaN	1	3	0.132056268018382	0	1	NaN	420	7	42	2	120	220	320	NaN	520	0.0104764690622687	2	0	NaN	1297772.2325844	NaN	1297773.2161145	1297773.73264473
28	20	1	0	90	36.1581920903955	36.241610738255	23	0.76671705191955	2	8	1	NaN	2	5	0.132056268018382	0	1	NaN	421	7	43	2	120	220	320	NaN	520	0.0197338371071965	2	1	NaN	1297774.5662967	NaN	1297775.5496948	1297776.06622086
28	20	1	0	90	36.1581920903955	36.241610738255	16	0.533368383944035	2	8	5	NaN	2	3	0.132056268018382	0	1	NaN	422	7	44	2	120	220	320	NaN	520	0.0695566372014582	1	0	NaN	1297776.9164921	NaN	1297777.8999607	1297778.41644986
28	20	1	0	90	36.1581920903955	36.241610738255	19	0.633374955933541	2	10	6	NaN	2	5	0.132056268018382	0	1	NaN	423	7	45	2	120	220	320	NaN	520	0.117211668984964	2	1	NaN	1297779.316757	NaN	1297780.3001936	1297780.81668403
28	20	1	0	90	36.1581920903955	36.241610738255	13	0.433361811954528	2	5	4	NaN	1	4	0.132056268018382	0	1	NaN	424	7	46	2	120	220	320	NaN	520	0.142949869157746	2	0	NaN	1297782.2670382	NaN	1297783.2504425	1297783.76696483
28	20	1	0	90	36.1581920903955	36.241610738255	20	0.666710479930043	2	11	3	NaN	2	3	0.132056268018382	0	1	NaN	425	7	47	2	120	220	320	NaN	520	1.08399283187464	1	0	NaN	1297784.7339505	NaN	1297785.7173299	1297786.23388307
28	20	1	0	90	36.1581920903955	36.241610738255	21	0.700046003926545	2	11	2	NaN	2	4	0.132056268018382	0	1	NaN	426	7	48	2	120	220	320	NaN	520	0.201771084452048	2	1	NaN	1297788.384306	NaN	1297789.3677178	1297789.88424452
28	20	1	0	90	36.1581920903955	36.241610738255	9	0.30001971596852	2	7	5	NaN	2	5	0.132056268018382	0	1	NaN	427	7	49	2	120	220	320	NaN	520	0.308241337072104	2	1	NaN	1297790.9178822	NaN	1297791.9012942	1297792.41782356
28	20	1	0	90	36.1581920903955	36.241610738255	13	0.433361811954528	2	9	1	NaN	2	5	0.132056268018382	0	1	NaN	428	7	50	2	120	220	320	NaN	520	0.133082363754511	1	0	NaN	1297794.8848898	NaN	1297795.8683153	1297796.38487294
28	20	1	0	90	36.1581920903955	36.241610738255	8	0.266684191972017	2	7	5	NaN	2	3	0.132056268018382	0	1	NaN	429	7	51	2	120	220	320	NaN	520	0.169386669062078	2	1	NaN	1297797.7684942	NaN	1297798.7519953	1297799.26848673
28	20	1	0	90	36.1581920903955	36.241610738255	14	0.46669733595103	2	3	6	NaN	1	5	0.132056268018382	0	1	NaN	430	7	52	2	120	220	320	NaN	520	0.277580443071201	2	0	NaN	1297800.2688228	NaN	1297801.2521961	1297801.76872456
28	20	1	0	90	36.1581920903955	36.241610738255	15	0.500032859947532	2	8	2	NaN	2	5	0.132056268018382	0	1	NaN	431	7	53	2	120	220	320	NaN	520	0.509028437314555	2	1	NaN	1297802.8690493	NaN	1297803.8524622	1297804.36899386
28	20	1	0	90	36.1581920903955	36.241610738255	6	0.200013143979013	2	10	4	NaN	2	3	0.132056268018382	0	1	NaN	432	7	54	2	120	220	320	NaN	520	1.39374257926829	2	1	NaN	1297806.9360906	NaN	1297807.9195453	1297808.43605402
28	20	1	0	90	36.1581920903955	36.241610738255	11	0.366690763961524	2	1	5	NaN	1	5	0.132056268018382	0	1	NaN	433	7	55	2	120	220	320	NaN	520	0.0209067217074335	2	0	NaN	1297810.6531693	NaN	1297811.6365329	1297812.15309218
28	20	1	0	90	36.1581920903955	36.241610738255	21	0.700046003926545	2	6	3	NaN	1	3	0.132056268018382	0	1	NaN	434	7	56	2	120	220	320	NaN	520	0.143142279237509	2	0	NaN	1297813.0033664	NaN	1297813.9867826	1297814.50332152
28	20	1	0	90	36.1581920903955	36.241610738255	18	0.600039431937039	2	10	5	NaN	2	5	0.132056268018382	0	1	NaN	435	7	57	2	120	220	320	NaN	520	1.6253461164888	2	1	NaN	1297816.5370417	NaN	1297817.5204796	1297818.03698948
28	20	1	0	90	36.1581920903955	36.241610738255	18	0.600039431937039	2	4	2	NaN	1	3	0.132056268018382	0	1	NaN	436	7	58	2	120	220	320	NaN	520	0.154611363774166	1	1	NaN	1297820.4874405	NaN	1297821.4708514	1297821.98737874
28	20	1	0	90	36.1581920903955	36.241610738255	0	0	1	6	5	NaN	1	4	0.132056268018382	0	1	NaN	437	7	59	2	110	210	310	NaN	510	0.0230446164496243	1	1	NaN	1297822.9709245	NaN	1297823.9544214	1297824.47095668
28	20	1	0	90	36.1581920903955	36.241610738255	15	0.500032859947532	2	9	1	NaN	2	4	0.132056268018382	0	1	NaN	438	7	60	2	120	220	320	NaN	520	0.0888409111648798	2	1	NaN	1297825.3211441	NaN	1297826.3046745	1297826.82118729
28	20	1	0	90	36.1581920903955	36.241610738255	14	0.46669733595103	2	12	6	NaN	2	4	0.132056268018382	0	1	NaN	439	7	61	2	120	220	320	NaN	520	1.303922616411	2	1	NaN	1297827.7381927	NaN	1297828.7215552	1297829.23810288
28	20	1	0	90	36.1581920903955	36.241610738255	18	0.600039431937039	2	9	6	NaN	2	5	0.132056268018382	0	1	NaN	440	7	62	2	120	220	320	NaN	520	0.246216563740745	1	0	NaN	1297831.3718495	NaN	1297832.3552532	1297832.87179194
28	20	1	0	90	36.1581920903955	36.241610738255	20	0.666710479930043	2	2	2	NaN	1	5	0.132056268018382	0	1	NaN	441	7	63	2	120	220	320	NaN	520	0.335439869202673	1	1	NaN	1297833.9387117	NaN	1297834.9221861	1297835.43871143
28	20	1	0	90	36.1581920903955	36.241610738255	22	0.733381527923048	2	12	2	NaN	2	4	0.132056268018382	0	1	NaN	442	8	1	2	120	220	320	NaN	520	0.0105131636373699	2	1	NaN	1297847.9397325	NaN	1297848.9235399	1297849.44007614
28	20	1	0	90	36.1581920903955	36.241610738255	16	0.533368383944035	2	10	6	NaN	2	3	0.132056268018382	0	1	NaN	443	8	2	2	120	220	320	NaN	520	1.3216876112856	2	1	NaN	1297850.440355	NaN	1297851.4237802	1297851.94032349
28	20	1	0	90	36.1581920903955	36.241610738255	23	0.76671705191955	2	11	6	NaN	2	3	0.132056268018382	0	1	NaN	444	8	3	2	120	220	320	NaN	520	0.239362969063222	1	0	NaN	1297854.0907468	NaN	1297855.074148	1297855.59068063
28	20	1	0	90	36.1581920903955	36.241610738255	11	0.366690763961524	2	5	5	NaN	1	3	0.132056268018382	0	1	NaN	445	8	4	2	120	220	320	NaN	520	0.205900621600449	1	1	NaN	1297856.7242961	NaN	1297857.7077424	1297858.22427918
28	20	1	0	90	36.1581920903955	36.241610738255	21	0.700046003926545	2	12	2	NaN	2	3	0.132056268018382	0	1	NaN	446	8	5	2	120	220	320	NaN	520	0.152270226739347	1	0	NaN	1297859.2579212	NaN	1297860.241338	1297860.75787367
28	20	1	0	90	36.1581920903955	36.241610738255	8	0.266684191972017	2	2	5	NaN	1	3	0.132056268018382	0	1	NaN	447	8	6	2	120	220	320	NaN	520	0.052601768868044	2	0	NaN	1297861.7415167	NaN	1297862.7248788	1297863.24143413
28	20	1	0	90	36.1581920903955	36.241610738255	18	0.600039431937039	2	1	5	NaN	1	4	0.132056268018382	0	1	NaN	448	8	7	2	120	220	320	NaN	520	0.0850720689631999	2	0	NaN	1297864.1250772	NaN	1297865.1084941	1297865.62501673
28	20	1	0	90	36.1581920903955	36.241610738255	11	0.366690763961524	2	6	1	NaN	1	4	0.132056268018382	0	1	NaN	449	8	8	2	120	220	320	NaN	520	0.0681597793009132	1	1	NaN	1297866.5419715	NaN	1297867.5253751	1297868.04190682
28	20	1	0	90	36.1581920903955	36.241610738255	25	0.833388099912554	2	2	3	NaN	1	4	0.132056268018382	0	1	NaN	450	8	9	2	120	220	320	NaN	520	0.0105069638229907	2	0	NaN	1297869.358811	NaN	1297870.3423184	1297870.85884354
28	20	1	0	90	36.1581920903955	36.241610738255	15	0.500032859947532	2	5	1	NaN	1	5	0.132056268018382	0	1	NaN	451	8	10	2	120	220	320	NaN	520	0.0104813692159951	1	1	NaN	1297872.1925208	NaN	1297873.1759158	1297873.69245213
28	20	1	0	90	36.1581920903955	36.241610738255	23	0.76671705191955	2	8	1	NaN	2	3	0.132056268018382	0	1	NaN	452	8	11	2	120	220	320	NaN	520	0.140120069030672	1	0	NaN	1297874.5261066	NaN	1297875.5095129	1297876.02601863
28	20	1	0	90	36.1581920903955	36.241610738255	19	0.633374955933541	2	11	2	NaN	2	3	0.132056268018382	0	1	NaN	453	8	12	2	120	220	320	NaN	520	0.0811582691967487	2	1	NaN	1297876.9930097	NaN	1297877.97646	1297878.49292323
28	20	1	0	90	36.1581920903955	36.241610738255	21	0.700046003926545	2	1	5	NaN	1	5	0.132056268018382	0	1	NaN	454	8	13	2	120	220	320	NaN	520	0.390852369135246	2	0	NaN	1297879.8599	NaN	1297880.8433518	1297881.35987153
28	20	1	0	90	36.1581920903955	36.241610738255	17	0.566703907940537	2	6	6	NaN	1	4	0.132056268018382	0	1	NaN	455	8	14	2	120	220	320	NaN	520	0.0104652217123657	1	1	NaN	1297882.6935441	NaN	1297883.6769776	1297884.19348248
28	20	1	0	90	36.1581920903955	36.241610738255	0	0	1	9	2	NaN	2	3	0.132056268018382	0	1	NaN	456	8	15	2	110	210	310	NaN	510	0.0104617218021303	1	0	NaN	1297885.0271138	NaN	1297886.0105532	1297886.52705498
28	20	1	0	90	36.1581920903955	36.241610738255	6	0.200013143979013	2	2	6	NaN	1	5	0.132056268018382	0	1	NaN	457	8	16	2	120	220	320	NaN	520	1.69786456902511	1	1	NaN	1297887.3606665	NaN	1297888.344083	1297888.86060353
28	20	1	0	90	36.1581920903955	36.241610738255	6	0.200013143979013	2	8	1	NaN	2	5	0.132056268018382	0	1	NaN	458	8	17	2	120	220	320	NaN	520	0.0104794688522816	1	0	NaN	1297891.8111733	NaN	1297892.7945342	1297893.31104483
28	20	1	0	90	36.1581920903955	36.241610738255	12	0.400026287958026	2	4	3	NaN	1	4	0.132056268018382	0	1	NaN	459	8	18	2	120	220	320	NaN	520	1.57729986915365	1	1	NaN	1297894.1446765	NaN	1297895.128076	1297895.64461113
