subjno	age	gender	isPractice	viewdist	CmToPixX	CmToPixY	SOA_frm	SOA_time	targNum	targID	targExample	targRace	targGender	firstTargPos	contrast	familiarity	curr_staircase	iStair	TrialNum	BlockNum	blktrl	sessionNum	TC_FIXATION	TC_RSVP_START	TC_RSVP_END	TC_BLANK	TC_RESPONSE_ONSET	RT2afc	resp_2afc	acc	RSVPOnsetVBL	RSVPOnsetTime	RSVPOffsetVBL	RSVPOffsetTime	startrt_2afc
42	19	0	0	90	36.1581920903955	36.241610738255	25	0.833393500186503	2	10	2	NaN	2	3	0.0424599998153977	1	1	NaN	1	1	1	1	121	221	321	NaN	521	0.140770622529089	2	1	NaN	4828327.2547284	NaN	4828328.2380185	4828328.77111948
42	19	0	0	90	36.1581920903955	36.241610738255	22	0.733386280164123	2	12	5	NaN	2	3	0.0424599998153977	1	1	NaN	2	1	2	1	121	221	321	NaN	521	5.21590657532215	1	0	NaN	4828330.3716935	NaN	4828331.3550026	4828331.88809903
42	19	0	0	90	36.1581920903955	36.241610738255	21	0.700050540156662	2	12	3	NaN	2	3	0.0424599998153977	1	1	NaN	3	1	3	1	121	221	321	NaN	521	0.946204923093319	2	1	NaN	4828338.0889133	NaN	4828339.0723118	4828339.60552568
42	19	0	0	90	36.1581920903955	36.241610738255	14	0.466700360104442	2	4	2	NaN	1	4	0.0424599998153977	1	1	NaN	4	1	4	1	121	221	321	NaN	521	0.823327117599547	1	1	NaN	4828341.3725609	NaN	4828342.3559629	4828342.87250868
42	19	0	0	90	36.1581920903955	36.241610738255	15	0.500036100111902	2	12	1	NaN	2	5	0.0424599998153977	1	1	NaN	5	1	5	1	121	221	321	NaN	521	0.440755437128246	2	1	NaN	4828344.5228709	NaN	4828345.506276	4828346.02282486
42	19	0	0	90	36.1581920903955	36.241610738255	22	0.733386280164123	2	3	1	NaN	1	5	0.0424599998153977	1	1	NaN	6	1	6	1	121	221	321	NaN	521	0.386918917298317	2	0	NaN	4828347.6731786	NaN	4828348.6565831	4828349.17312638
42	19	0	0	90	36.1581920903955	36.241610738255	7	0.233350180052221	2	1	6	NaN	1	4	0.0424599998153977	1	1	NaN	7	1	7	1	121	221	321	NaN	521	0.638603070750833	2	0	NaN	4828350.3734474	NaN	4828351.3568539	4828351.87339503
42	19	0	0	90	36.1581920903955	36.241610738255	10	0.333357400074601	2	12	6	NaN	2	5	0.0424599998153977	1	1	NaN	8	1	8	1	121	221	321	NaN	521	0.391230571083724	1	0	NaN	4828353.3404169	NaN	4828354.3238119	4828354.84035643
42	19	0	0	90	36.1581920903955	36.241610738255	11	0.366693140082061	2	2	3	NaN	1	3	0.0424599998153977	1	1	NaN	9	1	9	1	121	221	321	NaN	521	0.427943537011743	1	1	NaN	4828356.2240193	NaN	4828357.2074287	4828357.72396986
42	19	0	0	90	36.1581920903955	36.241610738255	14	0.466700360104442	2	1	3	NaN	1	4	0.0424599998153977	1	1	NaN	10	1	10	1	121	221	321	NaN	521	0.392737022601068	1	1	NaN	4828359.2908729	NaN	4828360.2743871	4828360.79095718
42	19	0	0	90	36.1581920903955	36.241610738255	0	0	1	9	5	NaN	2	3	0.0424599998153977	1	1	NaN	11	1	11	1	111	211	311	NaN	511	0.332227271050215	2	1	NaN	4828362.007913	NaN	4828362.9913328	4828363.50787603
42	19	0	0	90	36.1581920903955	36.241610738255	6	0.200014440044761	2	9	4	NaN	2	3	0.0424599998153977	1	1	NaN	12	1	12	1	121	221	321	NaN	521	0.335271422751248	2	1	NaN	4828364.7081738	NaN	4828365.6915977	4828366.20813938
42	19	0	0	90	36.1581920903955	36.241610738255	11	0.366693140082061	2	7	2	NaN	2	3	0.0424599998153977	1	1	NaN	13	1	13	1	121	221	321	NaN	521	0.340671970508993	2	1	NaN	4828367.3751169	NaN	4828368.3585368	4828368.87507043
42	19	0	0	90	36.1581920903955	36.241610738255	6	0.200014440044761	2	10	4	NaN	2	3	0.0424599998153977	1	1	NaN	14	1	14	1	121	221	321	NaN	521	0.31446997076273	1	0	NaN	4828370.0253912	NaN	4828371.0087995	4828371.52533253
42	19	0	0	90	36.1581920903955	36.241610738255	7	0.233350180052221	2	6	1	NaN	1	4	0.0424599998153977	1	1	NaN	15	1	15	1	121	221	321	NaN	521	0.312819470651448	1	1	NaN	4828372.6589984	NaN	4828373.642395	4828374.15892103
42	19	0	0	90	36.1581920903955	36.241610738255	6	0.200014440044761	2	4	4	NaN	1	4	0.0424599998153977	1	1	NaN	16	1	16	1	121	221	321	NaN	521	0.287262270227075	1	1	NaN	4828375.2925675	NaN	4828376.2759729	4828376.79251573
42	19	0	0	90	36.1581920903955	36.241610738255	16	0.533371840119362	2	8	5	NaN	2	4	0.0424599998153977	1	1	NaN	17	1	17	1	121	221	321	NaN	521	0.302966337651014	1	0	NaN	4828377.8928073	NaN	4828378.8762242	4828379.39276406
42	19	0	0	90	36.1581920903955	36.241610738255	22	0.733386280164123	2	9	6	NaN	2	5	0.0424599998153977	1	1	NaN	18	1	18	1	121	221	321	NaN	521	0.269525971263647	2	1	NaN	4828380.5264059	NaN	4828381.509815	4828382.02636383
42	19	0	0	90	36.1581920903955	36.241610738255	17	0.566707580126822	2	2	2	NaN	1	3	0.0424599998153977	1	1	NaN	19	1	19	1	121	221	321	NaN	521	0.310107270255685	1	1	NaN	4828383.1098749	NaN	4828384.0934436	4828384.60994833
42	19	0	0	90	36.1581920903955	36.241610738255	16	0.533371840119362	2	2	3	NaN	1	4	0.0424599998153977	1	1	NaN	20	1	20	1	121	221	321	NaN	521	0.308323717676103	1	1	NaN	4828385.7436118	NaN	4828386.7269779	4828387.24353438
42	19	0	0	90	36.1581920903955	36.241610738255	18	0.600043320134282	2	4	6	NaN	1	3	0.0424599998153977	1	1	NaN	21	1	21	1	121	221	321	NaN	521	0.410705070011318	1	1	NaN	4828388.3770512	NaN	4828389.3605974	4828389.87713023
42	19	0	0	90	36.1581920903955	36.241610738255	8	0.266685920059681	2	6	1	NaN	1	5	0.0424599998153977	1	1	NaN	22	1	22	1	121	221	321	NaN	521	1.03819462284446	1	1	NaN	4828391.2775706	NaN	4828392.2608636	4828392.77741908
42	19	0	0	90	36.1581920903955	36.241610738255	11	0.366693140082061	2	9	3	NaN	2	3	0.0424599998153977	1	1	NaN	23	1	23	1	121	221	321	NaN	521	0.255512117408216	2	1	NaN	4828394.6444829	NaN	4828395.6278639	4828396.14440778
42	19	0	0	90	36.1581920903955	36.241610738255	16	0.533371840119362	2	9	2	NaN	2	5	0.0424599998153977	1	1	NaN	24	1	24	1	121	221	321	NaN	521	0.384489317424595	2	1	NaN	4828397.2112708	NaN	4828398.1947846	4828398.71133108
42	19	0	0	90	36.1581920903955	36.241610738255	14	0.466700360104442	2	9	2	NaN	2	3	0.0424599998153977	1	1	NaN	25	1	25	1	121	221	321	NaN	521	0.756467065773904	2	1	NaN	4828399.9116852	NaN	4828400.8950886	4828401.41159443
42	19	0	0	90	36.1581920903955	36.241610738255	16	0.533371840119362	2	6	1	NaN	1	5	0.0424599998153977	1	1	NaN	26	1	26	1	121	221	321	NaN	521	0.392496516928077	1	1	NaN	4828402.9952943	NaN	4828403.9786868	4828404.49522868
42	19	0	0	90	36.1581920903955	36.241610738255	17	0.566707580126822	2	3	2	NaN	1	4	0.0424599998153977	1	1	NaN	27	1	27	1	121	221	321	NaN	521	0.363965617492795	1	1	NaN	4828405.7122222	NaN	4828406.6956203	4828407.21216348
42	19	0	0	90	36.1581920903955	36.241610738255	0	0	1	3	2	NaN	1	5	0.0424599998153977	1	1	NaN	28	1	28	1	111	211	311	NaN	511	0.279860337264836	1	1	NaN	4828408.3959045	NaN	4828409.3792197	4828409.89576956
42	19	0	0	90	36.1581920903955	36.241610738255	23	0.766722020171583	2	8	6	NaN	2	4	0.0424599998153977	1	1	NaN	29	1	29	1	121	221	321	NaN	521	0.295124069787562	2	1	NaN	4828411.0127153	NaN	4828411.9961397	4828412.51268983
42	19	0	0	90	36.1581920903955	36.241610738255	10	0.333357400074601	2	3	6	NaN	1	4	0.0424599998153977	1	1	NaN	30	1	30	1	121	221	321	NaN	521	0.646138416603208	1	1	NaN	4828413.62955	NaN	4828414.6131176	4828415.12961248
42	19	0	0	90	36.1581920903955	36.241610738255	17	0.566707580126822	2	12	6	NaN	2	4	0.0424599998153977	1	1	NaN	31	1	31	1	121	221	321	NaN	521	0.271342870779335	2	1	NaN	4828416.5966118	NaN	4828417.5800267	4828418.09657253
42	19	0	0	90	36.1581920903955	36.241610738255	22	0.733386280164123	2	4	3	NaN	1	3	0.0424599998153977	1	1	NaN	32	1	32	1	121	221	321	NaN	521	0.327690122649074	1	1	NaN	4828419.1802087	NaN	4828420.1636095	4828420.68016698
42	19	0	0	90	36.1581920903955	36.241610738255	14	0.466700360104442	2	6	3	NaN	1	3	0.0424599998153977	1	1	NaN	33	1	33	1	121	221	321	NaN	521	0.26950107049197	1	1	NaN	4828421.8304756	NaN	4828422.8138817	4828423.33041823
42	19	0	0	90	36.1581920903955	36.241610738255	20	0.666714800149202	2	7	3	NaN	2	3	0.0424599998153977	1	1	NaN	34	1	34	1	121	221	321	NaN	521	0.309612017124891	1	0	NaN	4828424.4307268	NaN	4828425.4141366	4828425.93067118
42	19	0	0	90	36.1581920903955	36.241610738255	21	0.700050540156662	2	11	5	NaN	2	3	0.0424599998153977	1	1	NaN	35	1	35	1	121	221	321	NaN	521	0.212543170899153	1	0	NaN	4828427.0476535	NaN	4828428.0310471	4828428.54760043
42	19	0	0	90	36.1581920903955	36.241610738255	8	0.266685920059681	2	12	2	NaN	2	5	0.0424599998153977	1	1	NaN	36	1	36	1	121	221	321	NaN	521	0.205938417464495	2	1	NaN	4828429.5978788	NaN	4828430.5812811	4828431.09785288
42	19	0	0	90	36.1581920903955	36.241610738255	18	0.600043320134282	2	5	3	NaN	1	4	0.0424599998153977	1	1	NaN	37	1	37	1	121	221	321	NaN	521	0.38426567055285	1	1	NaN	4828432.1314852	NaN	4828433.1148933	4828433.63143703
42	19	0	0	90	36.1581920903955	36.241610738255	24	0.800057760179043	2	8	2	NaN	2	5	0.0424599998153977	1	1	NaN	38	1	38	1	121	221	321	NaN	521	1.14835247024894	2	1	NaN	4828434.8317563	NaN	4828435.8151583	4828436.33169603
42	19	0	0	90	36.1581920903955	36.241610738255	15	0.500036100111902	2	8	6	NaN	2	4	0.0424599998153977	1	1	NaN	39	1	39	1	121	221	321	NaN	521	0.297210370190442	2	1	NaN	4828438.2987526	NaN	4828439.2821627	4828439.79870653
42	19	0	0	90	36.1581920903955	36.241610738255	25	0.833393500186503	2	4	6	NaN	1	5	0.0424599998153977	1	1	NaN	40	1	40	1	121	221	321	NaN	521	0.0104267168790102	1	1	NaN	4828440.9157103	NaN	4828441.8990863	4828442.41562498
42	19	0	0	90	36.1581920903955	36.241610738255	14	0.466700360104442	2	2	5	NaN	1	5	0.0424599998153977	1	1	NaN	41	1	41	1	121	221	321	NaN	521	0.235674270428717	1	1	NaN	4828443.2325659	NaN	4828444.2160008	4828444.73252343
42	19	0	0	90	36.1581920903955	36.241610738255	13	0.433364620096982	2	5	1	NaN	1	3	0.0424599998153977	1	1	NaN	42	1	42	1	121	221	321	NaN	521	0.477447817102075	1	1	NaN	4828445.7827007	NaN	4828446.7661171	4828447.28277768
42	19	0	0	90	36.1581920903955	36.241610738255	18	0.600043320134282	2	12	4	NaN	2	4	0.0424599998153977	1	1	NaN	43	1	43	1	121	221	321	NaN	521	1.46832919027656	2	1	NaN	4828448.5997711	NaN	4828449.583177	4828450.09973091
42	19	0	0	90	36.1581920903955	36.241610738255	13	0.433364620096982	2	12	6	NaN	2	5	0.0424599998153977	1	1	NaN	44	1	44	1	121	221	321	NaN	521	0.260344217531383	2	1	NaN	4828452.3835279	NaN	4828453.366862	4828453.88342138
42	19	0	0	90	36.1581920903955	36.241610738255	8	0.266685920059681	2	7	2	NaN	2	3	0.0424599998153977	1	1	NaN	45	1	45	1	121	221	321	NaN	521	0.189894136972725	1	0	NaN	4828454.9502727	NaN	4828455.933783	4828456.45034606
42	19	0	0	90	36.1581920903955	36.241610738255	15	0.500036100111902	2	9	4	NaN	2	4	0.0424599998153977	1	1	NaN	46	1	46	1	121	221	321	NaN	521	2.40141241718084	1	0	NaN	4828457.4506466	NaN	4828458.4340426	4828458.95058178
42	19	0	0	90	36.1581920903955	36.241610738255	19	0.633379060141742	2	10	1	NaN	2	4	0.0424599998153977	1	1	NaN	47	1	47	1	121	221	321	NaN	521	0.324000765569508	2	1	NaN	4828462.1677706	NaN	4828463.1512206	4828463.66771173
42	19	0	0	90	36.1581920903955	36.241610738255	6	0.200014440044761	2	4	1	NaN	1	3	0.0424599998153977	1	1	NaN	48	1	48	1	121	221	321	NaN	521	0.386632070876658	1	1	NaN	4828464.8013671	NaN	4828465.7847646	4828466.30131663
42	19	0	0	90	36.1581920903955	36.241610738255	11	0.366693140082061	2	12	2	NaN	2	4	0.0424599998153977	1	1	NaN	49	1	49	1	121	221	321	NaN	521	2.94224847108126	1	0	NaN	4828467.5016303	NaN	4828468.4850335	4828469.00157693
42	19	0	0	90	36.1581920903955	36.241610738255	10	0.333357400074601	2	3	1	NaN	1	4	0.0424599998153977	1	1	NaN	50	1	50	1	121	221	321	NaN	521	0.420378371141851	1	1	NaN	4828472.9354758	NaN	4828473.9188988	4828474.43544613
42	19	0	0	90	36.1581920903955	36.241610738255	15	0.500036100111902	2	7	6	NaN	2	4	0.0424599998153977	1	1	NaN	51	1	51	1	121	221	321	NaN	521	0.35882437042892	2	1	NaN	4828475.669096	NaN	4828476.6525057	4828477.16905383
42	19	0	0	90	36.1581920903955	36.241610738255	12	0.400028880089521	2	10	3	NaN	2	4	0.0424599998153977	1	1	NaN	52	1	52	1	121	221	321	NaN	521	0.404002317227423	1	0	NaN	4828478.3360359	NaN	4828479.3194274	4828479.83597018
42	19	0	0	90	36.1581920903955	36.241610738255	24	0.800057760179043	2	10	5	NaN	2	4	0.0424599998153977	1	1	NaN	53	1	53	1	121	221	321	NaN	521	0.622858270071447	2	1	NaN	4828481.0528971	NaN	4828482.0363656	4828482.55290983
42	19	0	0	90	36.1581920903955	36.241610738255	16	0.533371840119362	2	4	4	NaN	1	3	0.0424599998153977	1	1	NaN	54	1	54	1	121	221	321	NaN	521	0.57097072340548	1	1	NaN	4828484.1531366	NaN	4828485.1367073	4828485.65321848
42	19	0	0	90	36.1581920903955	36.241610738255	20	0.666714800149202	2	10	4	NaN	2	5	0.0424599998153977	1	1	NaN	55	1	55	1	121	221	321	NaN	521	0.439082871191204	1	0	NaN	4828487.0368822	NaN	4828488.0203122	4828488.53683463
42	19	0	0	90	36.1581920903955	36.241610738255	23	0.766722020171583	2	12	4	NaN	2	5	0.0424599998153977	1	1	NaN	56	1	56	1	121	221	321	NaN	521	0.320997670292854	2	1	NaN	4828489.7872776	NaN	4828490.7705594	4828491.28709963
42	19	0	0	90	36.1581920903955	36.241610738255	17	0.566707580126822	2	2	6	NaN	1	5	0.0424599998153977	1	1	NaN	57	1	57	1	121	221	321	NaN	521	0.287250865250826	1	1	NaN	4828492.4207536	NaN	4828493.4041508	4828493.92068953
42	19	0	0	90	36.1581920903955	36.241610738255	16	0.533371840119362	2	8	5	NaN	2	4	0.0424599998153977	1	1	NaN	58	1	58	1	121	221	321	NaN	521	0.319989870302379	2	1	NaN	4828495.2042426	NaN	4828496.1877494	4828496.70429953
42	19	0	0	90	36.1581920903955	36.241610738255	12	0.400028880089521	2	11	6	NaN	2	3	0.0424599998153977	1	1	NaN	59	1	59	1	121	221	321	NaN	521	0.310129470191896	2	1	NaN	4828497.8378077	NaN	4828498.8213524	4828499.33789993
42	19	0	0	90	36.1581920903955	36.241610738255	18	0.600043320134282	2	9	4	NaN	2	3	0.0424599998153977	1	1	NaN	60	1	60	1	121	221	321	NaN	521	0.333126770332456	1	0	NaN	4828500.4548855	NaN	4828501.4382616	4828501.95481203
42	19	0	0	90	36.1581920903955	36.241610738255	20	0.666714800149202	2	7	3	NaN	2	4	0.0424599998153977	1	1	NaN	61	1	61	1	121	221	321	NaN	521	0.914872170425951	2	1	NaN	4828503.1051353	NaN	4828504.0885354	4828504.60508443
42	19	0	0	90	36.1581920903955	36.241610738255	22	0.733386280164123	2	2	3	NaN	1	4	0.0424599998153977	1	1	NaN	62	1	62	1	121	221	321	NaN	521	0.297253570519388	1	1	NaN	4828506.3387947	NaN	4828507.3221677	4828507.83873543
42	19	0	0	90	36.1581920903955	36.241610738255	11	0.366693140082061	2	6	4	NaN	1	4	0.0424599998153977	1	1	NaN	63	1	63	1	121	221	321	NaN	521	0.285603270865977	1	1	NaN	4828509.0223463	NaN	4828510.0057834	4828510.52233503
42	19	0	0	90	36.1581920903955	36.241610738255	6	0.200014440044761	2	7	3	NaN	2	4	0.0424599998153977	1	1	NaN	64	2	1	1	121	221	321	NaN	521	0.0103074433282018	1	0	NaN	4828524.740509	NaN	4828525.7239968	4828526.24054816
42	19	0	0	90	36.1581920903955	36.241610738255	17	0.566707580126822	2	11	4	NaN	2	5	0.0424599998153977	1	1	NaN	65	2	2	1	121	221	321	NaN	521	0.289806265383959	2	1	NaN	4828527.4741209	NaN	4828528.4576001	4828528.97413693
42	19	0	0	90	36.1581920903955	36.241610738255	10	0.333357400074601	2	6	5	NaN	1	4	0.0424599998153977	1	1	NaN	66	2	3	1	121	221	321	NaN	521	0.0104220174252987	1	1	NaN	4828530.241099	NaN	4828531.2246065	4828531.74107728
42	19	0	0	90	36.1581920903955	36.241610738255	21	0.700050540156662	2	9	1	NaN	2	5	0.0424599998153977	1	1	NaN	67	2	4	1	121	221	321	NaN	521	0.0139332711696625	2	1	NaN	4828532.5580379	NaN	4828533.5414187	4828534.05796793
42	19	0	0	90	36.1581920903955	36.241610738255	15	0.500036100111902	2	8	5	NaN	2	5	0.0424599998153977	1	1	NaN	68	2	5	1	121	221	321	NaN	521	0.345410517416894	1	0	NaN	4828534.8749166	NaN	4828535.8583202	4828536.37486288
42	19	0	0	90	36.1581920903955	36.241610738255	25	0.833393500186503	2	6	2	NaN	1	5	0.0424599998153977	1	1	NaN	69	2	6	1	121	221	321	NaN	521	0.318484917283058	1	1	NaN	4828537.5418569	NaN	4828538.5252462	4828539.04179068
42	19	0	0	90	36.1581920903955	36.241610738255	23	0.766722020171583	2	11	6	NaN	2	4	0.0424599998153977	1	1	NaN	70	2	7	1	121	221	321	NaN	521	0.492669070139527	1	0	NaN	4828540.1754462	NaN	4828541.1588407	4828541.67539613
42	19	0	0	90	36.1581920903955	36.241610738255	15	0.500036100111902	2	12	3	NaN	2	5	0.0424599998153977	1	1	NaN	71	2	8	1	121	221	321	NaN	521	0.276653917506337	2	1	NaN	4828542.9757193	NaN	4828543.9591044	4828544.47565828
42	19	0	0	90	36.1581920903955	36.241610738255	17	0.566707580126822	2	3	5	NaN	1	5	0.0424599998153977	1	1	NaN	72	2	9	1	121	221	321	NaN	521	0.225396517664194	1	1	NaN	4828545.6426024	NaN	4828546.6260419	4828547.14258608
42	19	0	0	90	36.1581920903955	36.241610738255	12	0.400028880089521	2	3	6	NaN	1	3	0.0424599998153977	1	1	NaN	73	2	10	1	121	221	321	NaN	521	0.323781818151474	1	1	NaN	4828548.1762369	NaN	4828549.1596506	4828549.67616998
42	19	0	0	90	36.1581920903955	36.241610738255	10	0.333357400074601	2	1	3	NaN	1	3	0.0424599998153977	1	1	NaN	74	2	11	1	121	221	321	NaN	521	0.298180979676545	1	1	NaN	4828550.8098179	NaN	4828551.7932263	4828552.30977762
42	19	0	0	90	36.1581920903955	36.241610738255	17	0.566707580126822	2	5	6	NaN	1	5	0.0424599998153977	1	1	NaN	75	2	12	1	121	221	321	NaN	521	0.297175517305732	1	1	NaN	4828553.6267501	NaN	4828554.6101634	4828555.12670578
42	19	0	0	90	36.1581920903955	36.241610738255	22	0.733386280164123	2	12	2	NaN	2	4	0.0424599998153977	1	1	NaN	76	2	13	1	121	221	321	NaN	521	0.240639470517635	1	0	NaN	4828556.2435579	NaN	4828557.2271196	4828557.74364173
42	19	0	0	90	36.1581920903955	36.241610738255	15	0.500036100111902	2	1	4	NaN	1	3	0.0424599998153977	1	1	NaN	77	2	14	1	121	221	321	NaN	521	0.338284670375288	1	1	NaN	4828558.7939539	NaN	4828559.77737	4828560.29388643
42	19	0	0	90	36.1581920903955	36.241610738255	0	0	1	7	6	NaN	2	4	0.0424599998153977	1	1	NaN	78	2	15	1	111	211	311	NaN	511	0.591764317825437	2	1	NaN	4828561.4441947	NaN	4828562.4276075	4828562.94414478
42	19	0	0	90	36.1581920903955	36.241610738255	10	0.333357400074601	2	6	1	NaN	1	3	0.0424599998153977	1	1	NaN	79	2	16	1	121	221	321	NaN	521	0.0104158706963062	1	1	NaN	4828564.3444875	NaN	4828565.3278831	4828565.84443273
42	19	0	0	90	36.1581920903955	36.241610738255	22	0.733386280164123	2	5	3	NaN	1	3	0.0424599998153977	1	1	NaN	80	2	17	1	121	221	321	NaN	521	0.374880870804191	1	1	NaN	4828566.6612432	NaN	4828567.6447768	4828568.16133453
42	19	0	0	90	36.1581920903955	36.241610738255	12	0.400028880089521	2	6	2	NaN	1	3	0.0424599998153977	1	1	NaN	81	2	18	1	121	221	321	NaN	521	0.211008322425187	1	1	NaN	4828569.3449817	NaN	4828570.3284718	4828570.84492858
42	19	0	0	90	36.1581920903955	36.241610738255	22	0.733386280164123	2	9	1	NaN	2	4	0.0424599998153977	1	1	NaN	82	2	19	1	121	221	321	NaN	521	0.326280717737973	2	1	NaN	4828571.86183	NaN	4828572.8452889	4828573.36184268
42	19	0	0	90	36.1581920903955	36.241610738255	9	0.300021660067141	2	6	3	NaN	1	4	0.0424599998153977	1	1	NaN	83	2	20	1	121	221	321	NaN	521	0.268519170582294	1	1	NaN	4828574.4954864	NaN	4828575.4788827	4828575.99543603
42	19	0	0	90	36.1581920903955	36.241610738255	23	0.766722020171583	2	3	1	NaN	1	3	0.0424599998153977	1	1	NaN	84	2	21	1	121	221	321	NaN	521	0.581693770363927	2	0	NaN	4828577.2623965	NaN	4828578.2458171	4828578.76237053
42	19	0	0	90	36.1581920903955	36.241610738255	7	0.233350180052221	2	3	5	NaN	1	3	0.0424599998153977	1	1	NaN	85	2	22	1	121	221	321	NaN	521	0.281262170523405	1	1	NaN	4828580.162718	NaN	4828581.1461073	4828581.66265783
42	19	0	0	90	36.1581920903955	36.241610738255	8	0.266685920059681	2	8	2	NaN	2	3	0.0424599998153977	1	1	NaN	86	2	23	1	121	221	321	NaN	521	0.785167270340025	2	1	NaN	4828582.7629636	NaN	4828583.7463649	4828584.26291713
42	19	0	0	90	36.1581920903955	36.241610738255	8	0.266685920059681	2	12	6	NaN	2	4	0.0424599998153977	1	1	NaN	87	2	24	1	121	221	321	NaN	521	0.26126941666007	2	1	NaN	4828585.8632698	NaN	4828586.8466629	4828587.36320768
42	19	0	0	90	36.1581920903955	36.241610738255	8	0.266685920059681	2	2	1	NaN	1	3	0.0424599998153977	1	1	NaN	88	2	25	1	121	221	321	NaN	521	0.0104735177010298	1	1	NaN	4828588.5801767	NaN	4828589.5636439	4828590.08014828
42	19	0	0	90	36.1581920903955	36.241610738255	24	0.800057760179043	2	9	6	NaN	2	3	0.0424599998153977	1	1	NaN	89	2	26	1	121	221	321	NaN	521	0.734269322827458	2	1	NaN	4828591.0137531	NaN	4828591.9971763	4828592.51371888
42	19	0	0	90	36.1581920903955	36.241610738255	13	0.433364620096982	2	1	2	NaN	1	4	0.0424599998153977	1	1	NaN	90	2	27	1	121	221	321	NaN	521	0.37339021731168	2	0	NaN	4828594.2307267	NaN	4828595.2141681	4828595.73071038
42	19	0	0	90	36.1581920903955	36.241610738255	10	0.333357400074601	2	11	3	NaN	2	3	0.0424599998153977	1	1	NaN	91	2	28	1	121	221	321	NaN	521	0.273808216676116	2	1	NaN	4828597.1142379	NaN	4828598.0977577	4828598.61431358
42	19	0	0	90	36.1581920903955	36.241610738255	21	0.700050540156662	2	6	2	NaN	1	5	0.0424599998153977	1	1	NaN	92	2	29	1	121	221	321	NaN	521	0.386511016637087	1	1	NaN	4828599.6979384	NaN	4828600.6813658	4828601.19790808
42	19	0	0	90	36.1581920903955	36.241610738255	21	0.700050540156662	2	8	4	NaN	2	3	0.0424599998153977	1	1	NaN	93	2	30	1	121	221	321	NaN	521	0.381775022484362	2	1	NaN	4828602.3982354	NaN	4828603.3816079	4828603.89817618
42	19	0	0	90	36.1581920903955	36.241610738255	12	0.400028880089521	2	12	3	NaN	2	3	0.0424599998153977	1	1	NaN	94	2	31	1	121	221	321	NaN	521	0.250007070600986	2	1	NaN	4828605.0984906	NaN	4828606.0818965	4828606.59844543
42	19	0	0	90	36.1581920903955	36.241610738255	19	0.633379060141742	2	2	5	NaN	1	3	0.0424599998153977	1	1	NaN	95	2	32	1	121	221	321	NaN	521	0.291057417169213	1	1	NaN	4828607.665508	NaN	4828608.6487976	4828609.16536568
42	19	0	0	90	36.1581920903955	36.241610738255	24	0.800057760179043	2	12	3	NaN	2	4	0.0424599998153977	1	1	NaN	96	2	33	1	121	221	321	NaN	521	0.275395217351615	2	1	NaN	4828610.4488868	NaN	4828611.4324185	4828611.94897218
42	19	0	0	90	36.1581920903955	36.241610738255	22	0.733386280164123	2	10	3	NaN	2	3	0.0424599998153977	1	1	NaN	97	2	34	1	121	221	321	NaN	521	0.307433370500803	2	1	NaN	4828613.0326285	NaN	4828614.0159919	4828614.53255703
42	19	0	0	90	36.1581920903955	36.241610738255	14	0.466700360104442	2	3	6	NaN	1	4	0.0424599998153977	1	1	NaN	98	2	35	1	121	221	321	NaN	521	0.258992217481136	1	1	NaN	4828615.6494382	NaN	4828616.6329427	4828617.14947758
42	19	0	0	90	36.1581920903955	36.241610738255	22	0.733386280164123	2	3	4	NaN	1	3	0.0424599998153977	1	1	NaN	99	2	36	1	121	221	321	NaN	521	0.299502475187182	1	1	NaN	4828618.2164475	NaN	4828619.1998423	4828619.71640063
42	19	0	0	90	36.1581920903955	36.241610738255	10	0.333357400074601	2	7	1	NaN	2	4	0.0424599998153977	1	1	NaN	100	2	37	1	121	221	321	NaN	521	0.0102992905303836	2	1	NaN	4828620.8333743	NaN	4828621.8167705	4828622.33332341
42	19	0	0	90	36.1581920903955	36.241610738255	8	0.266685920059681	2	5	6	NaN	1	5	0.0424599998153977	1	1	NaN	101	2	38	1	121	221	321	NaN	521	0.0104103703051805	1	1	NaN	4828623.4002744	NaN	4828624.3836909	4828624.90023973
42	19	0	0	90	36.1581920903955	36.241610738255	10	0.333357400074601	2	4	6	NaN	1	3	0.0424599998153977	1	1	NaN	102	2	39	1	121	221	321	NaN	521	0.263384870253503	1	1	NaN	4828625.7171972	NaN	4828626.7006	4828627.21713273
42	19	0	0	90	36.1581920903955	36.241610738255	10	0.333357400074601	2	8	1	NaN	2	3	0.0424599998153977	1	1	NaN	103	2	40	1	121	221	321	NaN	521	0.0104411169886589	2	1	NaN	4828628.300792	NaN	4828629.2841691	4828629.80071358
42	19	0	0	90	36.1581920903955	36.241610738255	15	0.500036100111902	2	10	4	NaN	2	4	0.0424599998153977	1	1	NaN	104	2	41	1	121	221	321	NaN	521	0.282757917419076	2	1	NaN	4828630.6176669	NaN	4828631.601074	4828632.11762088
42	19	0	0	90	36.1581920903955	36.241610738255	13	0.433364620096982	2	6	4	NaN	1	3	0.0424599998153977	1	1	NaN	105	2	42	1	121	221	321	NaN	521	0.242575517855585	1	1	NaN	4828633.4179214	NaN	4828634.4013446	4828634.91788408
42	19	0	0	90	36.1581920903955	36.241610738255	0	0	1	11	5	NaN	2	4	0.0424599998153977	1	1	NaN	106	2	43	1	111	211	311	NaN	511	0.339860870502889	2	1	NaN	4828635.9682298	NaN	4828636.9515995	4828637.46814353
42	19	0	0	90	36.1581920903955	36.241610738255	16	0.533371840119362	2	6	6	NaN	1	4	0.0424599998153977	1	1	NaN	107	2	44	1	121	221	321	NaN	521	0.377994970418513	1	1	NaN	4828638.6184471	NaN	4828639.6018543	4828640.11840683
42	19	0	0	90	36.1581920903955	36.241610738255	20	0.666714800149202	2	8	3	NaN	2	4	0.0424599998153977	1	1	NaN	108	2	45	1	121	221	321	NaN	521	0.52620651666075	2	1	NaN	4828641.3020431	NaN	4828642.2854586	4828642.80200168
42	19	0	0	90	36.1581920903955	36.241610738255	9	0.300021660067141	2	11	3	NaN	2	4	0.0424599998153977	1	1	NaN	109	2	46	1	121	221	321	NaN	521	0.236968570388854	1	0	NaN	4828644.1356565	NaN	4828645.1190594	4828645.63561153
42	19	0	0	90	36.1581920903955	36.241610738255	21	0.700050540156662	2	10	1	NaN	2	5	0.0424599998153977	1	1	NaN	110	2	47	1	121	221	321	NaN	521	0.158587316982448	2	1	NaN	4828646.6859288	NaN	4828647.6693209	4828648.18586178
42	19	0	0	90	36.1581920903955	36.241610738255	21	0.700050540156662	2	4	4	NaN	1	5	0.0424599998153977	1	1	NaN	111	2	48	1	121	221	321	NaN	521	0.283571617677808	1	1	NaN	4828649.1526913	NaN	4828650.1362103	4828650.65276708
42	19	0	0	90	36.1581920903955	36.241610738255	12	0.400028880089521	2	10	5	NaN	2	4	0.0424599998153977	1	1	NaN	112	2	49	1	121	221	321	NaN	521	0.291028070263565	2	1	NaN	4828651.753098	NaN	4828652.736486	4828653.25303233
42	19	0	0	90	36.1581920903955	36.241610738255	22	0.733386280164123	2	8	2	NaN	2	3	0.0424599998153977	1	1	NaN	113	2	50	1	121	221	321	NaN	521	0.354845970869064	1	0	NaN	4828654.3533397	NaN	4828655.3367333	4828655.85328083
42	19	0	0	90	36.1581920903955	36.241610738255	12	0.400028880089521	2	1	3	NaN	1	3	0.0424599998153977	1	1	NaN	114	2	51	1	121	221	321	NaN	521	0.143939116969705	1	1	NaN	4828657.020285	NaN	4828658.0036726	4828658.52021248
42	19	0	0	90	36.1581920903955	36.241610738255	8	0.266685920059681	2	10	4	NaN	2	3	0.0424599998153977	1	1	NaN	115	2	52	1	121	221	321	NaN	521	0.0136352702975273	2	1	NaN	4828659.4705349	NaN	4828660.4539016	4828660.97045323
42	19	0	0	90	36.1581920903955	36.241610738255	25	0.833393500186503	2	7	5	NaN	2	4	0.0424599998153977	1	1	NaN	116	2	53	1	121	221	321	NaN	521	0.608460364863276	2	1	NaN	4828661.8040291	NaN	4828662.7874674	4828663.30400824
42	19	0	0	90	36.1581920903955	36.241610738255	13	0.433364620096982	2	2	2	NaN	1	5	0.0424599998153977	1	1	NaN	117	2	54	1	121	221	321	NaN	521	0.323182170279324	1	1	NaN	4828664.7210428	NaN	4828665.7044096	4828666.22096353
42	19	0	0	90	36.1581920903955	36.241610738255	11	0.366693140082061	2	11	4	NaN	2	4	0.0424599998153977	1	1	NaN	118	2	55	1	121	221	321	NaN	521	0.0104273175820708	2	1	NaN	4828667.3545249	NaN	4828668.3380201	4828668.85455918
42	19	0	0	90	36.1581920903955	36.241610738255	20	0.666714800149202	2	3	4	NaN	1	4	0.0424599998153977	1	1	NaN	119	2	56	1	121	221	321	NaN	521	0.0104339169338346	1	1	NaN	4828669.6715229	NaN	4828670.6549049	4828671.17145338
42	19	0	0	90	36.1581920903955	36.241610738255	8	0.266685920059681	2	3	4	NaN	1	3	0.0424599998153977	1	1	NaN	120	2	57	1	121	221	321	NaN	521	0.0477188704535365	1	1	NaN	4828671.988407	NaN	4828672.9718018	4828673.48834853
42	19	0	0	90	36.1581920903955	36.241610738255	21	0.700050540156662	2	10	3	NaN	2	5	0.0424599998153977	1	1	NaN	121	2	58	1	121	221	321	NaN	521	0.0104190707206726	2	1	NaN	4828674.3386471	NaN	4828675.3220408	4828675.83858133
42	19	0	0	90	36.1581920903955	36.241610738255	17	0.566707580126822	2	6	4	NaN	1	5	0.0424599998153977	1	1	NaN	122	2	59	1	121	221	321	NaN	521	1.22053177002817	1	1	NaN	4828676.6555281	NaN	4828677.6389396	4828678.15547363
42	19	0	0	90	36.1581920903955	36.241610738255	20	0.666714800149202	2	2	2	NaN	1	5	0.0424599998153977	1	1	NaN	123	2	60	1	121	221	321	NaN	521	0.0104452166706324	1	1	NaN	4828680.1892104	NaN	4828681.1726035	4828681.68915858
42	19	0	0	90	36.1581920903955	36.241610738255	6	0.200014440044761	2	8	6	NaN	2	5	0.0424599998153977	1	1	NaN	124	2	61	1	121	221	321	NaN	521	0.0104076704010367	1	0	NaN	4828682.5060985	NaN	4828683.4895328	4828684.00605183
42	19	0	0	90	36.1581920903955	36.241610738255	15	0.500036100111902	2	3	1	NaN	1	5	0.0424599998153977	1	1	NaN	125	2	62	1	121	221	321	NaN	521	0.205276017077267	1	1	NaN	4828684.8229928	NaN	4828685.8063932	4828686.32293858
42	19	0	0	90	36.1581920903955	36.241610738255	6	0.200014440044761	2	11	1	NaN	2	4	0.0424599998153977	1	1	NaN	126	2	63	1	121	221	321	NaN	521	0.272253917530179	2	1	NaN	4828687.3398008	NaN	4828688.3233136	4828688.83985418
42	19	0	0	90	36.1581920903955	36.241610738255	22	0.733386280164123	2	5	5	NaN	1	5	0.0424599998153977	1	1	NaN	127	3	1	1	121	221	321	NaN	521	0.292426370084286	1	1	NaN	4828703.808198	NaN	4828704.7915996	4828705.30814333
42	19	0	0	90	36.1581920903955	36.241610738255	18	0.600043320134282	2	3	2	NaN	1	3	0.0424599998153977	1	1	NaN	128	3	2	1	121	221	321	NaN	521	0.0104225175455213	1	1	NaN	4828706.4084651	NaN	4828707.3918812	4828707.90839408
42	19	0	0	90	36.1581920903955	36.241610738255	6	0.200014440044761	2	6	3	NaN	1	5	0.0424599998153977	1	1	NaN	129	3	3	1	121	221	321	NaN	521	0.0855642706155777	1	1	NaN	4828708.9586857	NaN	4828709.9420898	4828710.45865183
42	19	0	0	90	36.1581920903955	36.241610738255	0	0	1	8	3	NaN	2	3	0.0424599998153977	1	1	NaN	130	3	4	1	111	211	311	NaN	511	1.9416285706684	2	1	NaN	4828711.358794	NaN	4828712.342343	4828712.85888563
42	19	0	0	90	36.1581920903955	36.241610738255	0	0	1	10	6	NaN	2	5	0.0424599998153977	1	1	NaN	131	3	5	1	111	211	311	NaN	511	0.356360670179129	2	1	NaN	4828715.9759309	NaN	4828716.9594669	4828717.47600863
42	19	0	0	90	36.1581920903955	36.241610738255	6	0.200014440044761	2	2	4	NaN	1	3	0.0424599998153977	1	1	NaN	132	3	6	1	121	221	321	NaN	521	0.0104251177981496	1	1	NaN	4828718.6428621	NaN	4828719.6263688	4828720.14293218
42	19	0	0	90	36.1581920903955	36.241610738255	11	0.366693140082061	2	4	2	NaN	1	4	0.0424599998153977	1	1	NaN	133	3	7	1	121	221	321	NaN	521	0.3243946172297	1	1	NaN	4828720.9598863	NaN	4828721.9432882	4828722.45983768
42	19	0	0	90	36.1581920903955	36.241610738255	10	0.333357400074601	2	11	5	NaN	2	3	0.0424599998153977	1	1	NaN	134	3	8	1	121	221	321	NaN	521	0.268431570380926	2	1	NaN	4828723.9601548	NaN	4828724.9435924	4828725.46012063
42	19	0	0	90	36.1581920903955	36.241610738255	19	0.633379060141742	2	3	4	NaN	1	5	0.0424599998153977	1	1	NaN	135	3	9	1	121	221	321	NaN	521	0.0104275178164244	1	1	NaN	4828726.543778	NaN	4828727.5271735	4828728.04370648
42	19	0	0	90	36.1581920903955	36.241610738255	6	0.200014440044761	2	1	1	NaN	1	5	0.0424599998153977	1	1	NaN	136	3	10	1	121	221	321	NaN	521	0.439615316689014	1	1	NaN	4828728.8606592	NaN	4828729.8441035	4828730.36060228
42	19	0	0	90	36.1581920903955	36.241610738255	10	0.333357400074601	2	9	3	NaN	2	4	0.0424599998153977	1	1	NaN	137	3	11	1	121	221	321	NaN	521	0.281393979676068	2	1	NaN	4828731.6108298	NaN	4828732.5943174	4828733.11087942
42	19	0	0	90	36.1581920903955	36.241610738255	18	0.600043320134282	2	6	5	NaN	1	4	0.0424599998153977	1	1	NaN	138	3	12	1	121	221	321	NaN	521	0.193190675228834	1	1	NaN	4828734.2111953	NaN	4828735.1945825	4828735.71114122
42	19	0	0	90	36.1581920903955	36.241610738255	0	0	1	8	3	NaN	2	5	0.0424599998153977	1	1	NaN	139	3	13	1	111	211	311	NaN	511	0.31708987057209	1	0	NaN	4828736.7114289	NaN	4828737.6948065	4828738.21137983
42	19	0	0	90	36.1581920903955	36.241610738255	20	0.666714800149202	2	2	3	NaN	1	5	0.0424599998153977	1	1	NaN	140	3	14	1	121	221	321	NaN	521	0.427433017641306	1	1	NaN	4828739.344888	NaN	4828740.3284151	4828740.84496668
42	19	0	0	90	36.1581920903955	36.241610738255	21	0.700050540156662	2	7	5	NaN	2	5	0.0424599998153977	1	1	NaN	141	3	15	1	121	221	321	NaN	521	0.445759570226073	2	1	NaN	4828742.0786306	NaN	4828743.0620283	4828743.57857563
42	19	0	0	90	36.1581920903955	36.241610738255	15	0.500036100111902	2	9	2	NaN	2	3	0.0424599998153977	1	1	NaN	142	3	16	1	121	221	321	NaN	521	0.0104148704558611	1	0	NaN	4828745.0122297	NaN	4828745.9956356	4828746.51220083
42	19	0	0	90	36.1581920903955	36.241610738255	7	0.233350180052221	2	9	3	NaN	2	3	0.0424599998153977	1	1	NaN	143	3	17	1	121	221	321	NaN	521	0.0104065705090761	1	0	NaN	4828747.3291532	NaN	4828748.3125491	4828748.82910893
42	19	0	0	90	36.1581920903955	36.241610738255	20	0.666714800149202	2	5	2	NaN	1	5	0.0424599998153977	1	1	NaN	144	3	18	1	121	221	321	NaN	521	0.254625617526472	1	1	NaN	4828749.646033	NaN	4828750.6294839	4828751.14597948
42	19	0	0	90	36.1581920903955	36.241610738255	18	0.600043320134282	2	4	4	NaN	1	5	0.0424599998153977	1	1	NaN	145	3	19	1	121	221	321	NaN	521	0.257378170266747	2	0	NaN	4828752.3628571	NaN	4828753.3463701	4828753.86291623
42	19	0	0	90	36.1581920903955	36.241610738255	15	0.500036100111902	2	3	6	NaN	1	4	0.0424599998153977	1	1	NaN	146	3	20	1	121	221	321	NaN	521	0.386635016649961	1	1	NaN	4828754.9298951	NaN	4828755.9133573	4828756.42983108
42	19	0	0	90	36.1581920903955	36.241610738255	7	0.233350180052221	2	8	2	NaN	2	5	0.0424599998153977	1	1	NaN	147	3	21	1	121	221	321	NaN	521	0.134108022786677	1	0	NaN	4828757.6301765	NaN	4828758.613558	4828759.13010178
42	19	0	0	90	36.1581920903955	36.241610738255	21	0.700050540156662	2	3	4	NaN	1	4	0.0424599998153977	1	1	NaN	148	3	22	1	121	221	321	NaN	521	0.467919474467635	1	1	NaN	4828760.0804175	NaN	4828761.0637735	4828761.58034493
42	19	0	0	90	36.1581920903955	36.241610738255	21	0.700050540156662	2	3	1	NaN	1	4	0.0424599998153977	1	1	NaN	149	3	23	1	121	221	321	NaN	521	0.188426070846617	1	1	NaN	4828762.864008	NaN	4828763.8474061	4828764.36395313
42	19	0	0	90	36.1581920903955	36.241610738255	11	0.366693140082061	2	6	2	NaN	1	5	0.0424599998153977	1	1	NaN	150	3	24	1	121	221	321	NaN	521	0.760351070202887	2	0	NaN	4828765.3642596	NaN	4828766.3476508	4828766.86419273
42	19	0	0	90	36.1581920903955	36.241610738255	21	0.700050540156662	2	12	1	NaN	2	3	0.0424599998153977	1	1	NaN	151	3	25	1	121	221	321	NaN	521	0.324452370405197	2	1	NaN	4828768.4479123	NaN	4828769.431293	4828769.94783863
42	19	0	0	90	36.1581920903955	36.241610738255	21	0.700050540156662	2	2	4	NaN	1	5	0.0424599998153977	1	1	NaN	152	3	26	1	121	221	321	NaN	521	1.60325341764838	1	1	NaN	4828771.0814763	NaN	4828772.0648715	4828772.58143208
42	19	0	0	90	36.1581920903955	36.241610738255	17	0.566707580126822	2	8	3	NaN	2	4	0.0424599998153977	1	1	NaN	153	3	27	1	121	221	321	NaN	521	0.661412270739675	1	0	NaN	4828775.4152116	NaN	4828776.3986511	4828776.91519363
42	19	0	0	90	36.1581920903955	36.241610738255	21	0.700050540156662	2	6	5	NaN	1	3	0.0424599998153977	1	1	NaN	154	3	28	1	121	221	321	NaN	521	0.766533916816115	1	1	NaN	4828778.382202	NaN	4828779.3655755	4828779.88213828
42	19	0	0	90	36.1581920903955	36.241610738255	24	0.800057760179043	2	9	2	NaN	2	3	0.0424599998153977	1	1	NaN	155	3	29	1	121	221	321	NaN	521	0.362492864951491	2	1	NaN	4828781.4658424	NaN	4828782.4492401	4828782.96577283
42	19	0	0	90	36.1581920903955	36.241610738255	7	0.233350180052221	2	8	4	NaN	2	3	0.0424599998153977	1	1	NaN	156	3	30	1	121	221	321	NaN	521	0.0104110706597567	2	1	NaN	4828784.1494512	NaN	4828785.1328375	4828785.64937363
42	19	0	0	90	36.1581920903955	36.241610738255	16	0.533371840119362	2	11	1	NaN	2	3	0.0424599998153977	1	1	NaN	157	3	31	1	121	221	321	NaN	521	0.0102718425914645	2	1	NaN	4828786.5495508	NaN	4828787.5330832	4828788.04962196
42	19	0	0	90	36.1581920903955	36.241610738255	18	0.600043320134282	2	11	5	NaN	2	5	0.0424599998153977	1	1	NaN	158	3	32	1	121	221	321	NaN	521	0.0178290167823434	2	1	NaN	4828788.8664493	NaN	4828789.8500249	4828790.36650158
42	19	0	0	90	36.1581920903955	36.241610738255	22	0.733386280164123	2	11	3	NaN	2	3	0.0424599998153977	1	1	NaN	159	3	33	1	121	221	321	NaN	521	0.292679970152676	2	1	NaN	4828791.1999947	NaN	4828792.1835308	4828792.70007063
42	19	0	0	90	36.1581920903955	36.241610738255	19	0.633379060141742	2	8	6	NaN	2	5	0.0424599998153977	1	1	NaN	160	3	34	1	121	221	321	NaN	521	0.260242217220366	2	1	NaN	4828793.8003875	NaN	4828794.7837735	4828795.30033298
42	19	0	0	90	36.1581920903955	36.241610738255	16	0.533371840119362	2	7	2	NaN	2	4	0.0424599998153977	1	1	NaN	161	3	35	1	121	221	321	NaN	521	0.276557933539152	2	1	NaN	4828796.383991	NaN	4828797.3673882	4828797.88392437
42	19	0	0	90	36.1581920903955	36.241610738255	10	0.333357400074601	2	5	4	NaN	1	4	0.0424599998153977	1	1	NaN	162	3	36	1	121	221	321	NaN	521	0.0104236705228686	1	1	NaN	4828798.9675777	NaN	4828799.9509507	4828800.46750723
42	19	0	0	90	36.1581920903955	36.241610738255	22	0.733386280164123	2	1	4	NaN	1	3	0.0424599998153977	1	1	NaN	163	3	37	1	121	221	321	NaN	521	0.600054370239377	1	1	NaN	4828801.2843269	NaN	4828802.2678562	4828802.78439513
42	19	0	0	90	36.1581920903955	36.241610738255	10	0.333357400074601	2	10	6	NaN	2	5	0.0424599998153977	1	1	NaN	164	3	38	1	121	221	321	NaN	521	0.251110770739615	2	1	NaN	4828804.201496	NaN	4828805.1848011	4828805.70134953
42	19	0	0	90	36.1581920903955	36.241610738255	6	0.200014440044761	2	5	2	NaN	1	5	0.0424599998153977	1	1	NaN	165	3	39	1	121	221	321	NaN	521	0.0174263697117567	2	0	NaN	4828807.2350032	NaN	4828808.2184397	4828808.73500653
42	19	0	0	90	36.1581920903955	36.241610738255	24	0.800057760179043	2	2	2	NaN	1	4	0.0424599998153977	1	1	NaN	166	3	40	1	121	221	321	NaN	521	0.132176090963185	1	1	NaN	4828809.5684698	NaN	4828810.551995	4828811.06854311
42	19	0	0	90	36.1581920903955	36.241610738255	22	0.733386280164123	2	10	3	NaN	2	4	0.0424599998153977	1	1	NaN	167	3	41	1	121	221	321	NaN	521	0.298354269936681	2	1	NaN	4828812.0021639	NaN	4828812.9855996	4828813.50211823
42	19	0	0	90	36.1581920903955	36.241610738255	10	0.333357400074601	2	4	3	NaN	1	3	0.0424599998153977	1	1	NaN	168	3	42	1	121	221	321	NaN	521	0.113335116766393	1	1	NaN	4828814.6191043	NaN	4828815.6024885	4828816.11903798
42	19	0	0	90	36.1581920903955	36.241610738255	8	0.266685920059681	2	1	1	NaN	1	5	0.0424599998153977	1	1	NaN	169	3	43	1	121	221	321	NaN	521	0.248125770129263	1	1	NaN	4828817.0526725	NaN	4828818.0360892	4828818.55261293
42	19	0	0	90	36.1581920903955	36.241610738255	22	0.733386280164123	2	11	3	NaN	2	3	0.0424599998153977	1	1	NaN	170	3	44	1	121	221	321	NaN	521	0.370713571086526	2	1	NaN	4828819.9695991	NaN	4828820.9530492	4828821.46956233
42	19	0	0	90	36.1581920903955	36.241610738255	9	0.300021660067141	2	5	2	NaN	1	5	0.0424599998153977	1	1	NaN	171	3	45	1	121	221	321	NaN	521	0.951330821961164	1	1	NaN	4828822.6532136	NaN	4828823.636624	4828824.15316938
42	19	0	0	90	36.1581920903955	36.241610738255	16	0.533371840119362	2	10	5	NaN	2	5	0.0424599998153977	1	1	NaN	172	3	46	1	121	221	321	NaN	521	0.460559470579028	2	1	NaN	4828825.9200788	NaN	4828826.9036021	4828827.42015253
42	19	0	0	90	36.1581920903955	36.241610738255	25	0.833393500186503	2	3	2	NaN	1	3	0.0424599998153977	1	1	NaN	173	3	47	1	121	221	321	NaN	521	1.11766419000924	1	1	NaN	4828828.6871276	NaN	4828829.6705407	4828830.18709951
42	19	0	0	90	36.1581920903955	36.241610738255	21	0.700050540156662	2	2	5	NaN	1	3	0.0424599998153977	1	1	NaN	174	3	48	1	121	221	321	NaN	521	7.26077341753989	2	0	NaN	4828832.5041369	NaN	4828833.4875843	4828834.00412738
42	19	0	0	90	36.1581920903955	36.241610738255	12	0.400028880089521	2	4	5	NaN	1	4	0.0424599998153977	1	1	NaN	175	3	49	1	121	221	321	NaN	521	1.69351867027581	1	1	NaN	4828842.255147	NaN	4828843.2385508	4828843.75509883
42	19	0	0	90	36.1581920903955	36.241610738255	15	0.500036100111902	2	4	4	NaN	1	4	0.0424599998153977	1	1	NaN	176	3	50	1	121	221	321	NaN	521	0.0104100704193115	2	0	NaN	4828846.4387685	NaN	4828847.4222904	4828847.93884373
42	19	0	0	90	36.1581920903955	36.241610738255	19	0.633379060141742	2	8	3	NaN	2	5	0.0424599998153977	1	1	NaN	177	3	51	1	121	221	321	NaN	521	0.0104213710874319	2	1	NaN	4828848.7557687	NaN	4828849.7391894	4828850.25573273
42	19	0	0	90	36.1581920903955	36.241610738255	23	0.766722020171583	2	11	1	NaN	2	3	0.0424599998153977	1	1	NaN	178	3	52	1	121	221	321	NaN	521	0.313172769732773	1	0	NaN	4828854.3396424	NaN	4828855.3230618	4828855.83962503
42	19	0	0	90	36.1581920903955	36.241610738255	23	0.766722020171583	2	5	1	NaN	1	5	0.0424599998153977	1	1	NaN	179	3	53	1	121	221	321	NaN	521	0.010391122661531	1	1	NaN	4828856.9565952	NaN	4828857.9398901	4828858.45654298
42	19	0	0	90	36.1581920903955	36.241610738255	9	0.300021660067141	2	1	5	NaN	1	3	0.0424599998153977	1	1	NaN	180	3	54	1	121	221	321	NaN	521	0.0104160709306598	1	1	NaN	4828859.273481	NaN	4828860.2568809	4828860.77342693
42	19	0	0	90	36.1581920903955	36.241610738255	8	0.266685920059681	2	9	1	NaN	2	5	0.0424599998153977	1	1	NaN	181	3	55	1	121	221	321	NaN	521	1.84640987031162	1	0	NaN	4828861.5904126	NaN	4828862.5737905	4828863.09032873
42	19	0	0	90	36.1581920903955	36.241610738255	10	0.333357400074601	2	2	2	NaN	1	5	0.0424599998153977	1	1	NaN	182	3	56	1	121	221	321	NaN	521	0.0104255173355341	1	1	NaN	4828865.7574537	NaN	4828866.7408958	4828867.25740688
42	19	0	0	90	36.1581920903955	36.241610738255	9	0.300021660067141	2	8	1	NaN	2	5	0.0424599998153977	1	1	NaN	183	3	57	1	121	221	321	NaN	521	0.505692870356143	1	0	NaN	4828868.0908939	NaN	4828869.0744413	4828869.59096503
42	19	0	0	90	36.1581920903955	36.241610738255	13	0.433364620096982	2	7	1	NaN	2	4	0.0424599998153977	1	1	NaN	184	3	58	1	121	221	321	NaN	521	0.368541370145977	2	1	NaN	4828870.9079132	NaN	4828871.8913564	4828872.40791363
42	19	0	0	90	36.1581920903955	36.241610738255	24	0.800057760179043	2	3	3	NaN	1	3	0.0424599998153977	1	1	NaN	185	3	59	1	121	221	321	NaN	521	1.94876567088068	1	1	NaN	4828873.5915647	NaN	4828874.5749634	4828875.09150413
42	19	0	0	90	36.1581920903955	36.241610738255	13	0.433364620096982	2	8	4	NaN	2	5	0.0424599998153977	1	1	NaN	186	3	60	1	121	221	321	NaN	521	0.634137069806457	2	1	NaN	4828877.8586831	NaN	4828878.8420428	4828879.35859303
42	19	0	0	90	36.1581920903955	36.241610738255	0	0	1	7	1	NaN	2	3	0.0424599998153977	1	1	NaN	187	3	61	1	111	211	311	NaN	511	0.299541070125997	2	1	NaN	4828880.8089389	NaN	4828881.7923253	4828882.30888523
42	19	0	0	90	36.1581920903955	36.241610738255	23	0.766722020171583	2	2	5	NaN	1	3	0.0424599998153977	1	1	NaN	188	3	62	1	121	221	321	NaN	521	0.178662217222154	1	1	NaN	4828883.4258654	NaN	4828884.409264	4828884.92580058
42	19	0	0	90	36.1581920903955	36.241610738255	23	0.766722020171583	2	9	2	NaN	2	5	0.0424599998153977	1	1	NaN	189	3	63	1	121	221	321	NaN	521	0.0104194711893797	2	1	NaN	4828886.226131	NaN	4828887.2095425	4828887.72608913
42	19	0	0	90	36.1581920903955	36.241610738255	17	0.566707580126822	2	6	4	NaN	1	5	0.0424599998153977	1	1	NaN	190	4	1	1	121	221	321	NaN	521	0.327162670902908	1	1	NaN	4828912.6454103	NaN	4828913.6288088	4828914.14534803
42	19	0	0	90	36.1581920903955	36.241610738255	13	0.433364620096982	2	3	5	NaN	1	5	0.0424599998153977	1	1	NaN	191	4	2	1	121	221	321	NaN	521	1.78143601678312	2	0	NaN	4828915.279062	NaN	4828916.2623802	4828916.77894188
42	19	0	0	90	36.1581920903955	36.241610738255	17	0.566707580126822	2	10	2	NaN	2	4	0.0424599998153977	1	1	NaN	192	4	3	1	121	221	321	NaN	521	0.284124771133065	2	1	NaN	4828919.7127553	NaN	4828920.6961957	4828921.21271013
42	19	0	0	90	36.1581920903955	36.241610738255	9	0.300021660067141	2	3	5	NaN	1	5	0.0424599998153977	1	1	NaN	193	4	4	1	121	221	321	NaN	521	0.643600418232381	1	1	NaN	4828922.313026	NaN	4828923.2964294	4828923.81295808
42	19	0	0	90	36.1581920903955	36.241610738255	25	0.833393500186503	2	5	5	NaN	1	5	0.0424599998153977	1	1	NaN	194	4	5	1	121	221	321	NaN	521	0.611858870834112	2	0	NaN	4828926.0966961	NaN	4828927.0801253	4828927.59667233
42	19	0	0	90	36.1581920903955	36.241610738255	11	0.366693140082061	2	11	6	NaN	2	5	0.0424599998153977	1	1	NaN	195	4	6	1	121	221	321	NaN	521	0.615344970487058	1	0	NaN	4828929.0136751	NaN	4828929.9970717	4828930.51362773
42	19	0	0	90	36.1581920903955	36.241610738255	6	0.200014440044761	2	7	5	NaN	2	5	0.0424599998153977	1	1	NaN	196	4	7	1	121	221	321	NaN	521	0.288984270766377	2	1	NaN	4828931.9472993	NaN	4828932.9307245	4828933.44724463
42	19	0	0	90	36.1581920903955	36.241610738255	12	0.400028880089521	2	4	1	NaN	1	4	0.0424599998153977	1	1	NaN	197	4	8	1	121	221	321	NaN	521	0.0104189710691571	1	1	NaN	4828934.6141855	NaN	4828935.5976194	4828936.11417903
42	19	0	0	90	36.1581920903955	36.241610738255	17	0.566707580126822	2	1	5	NaN	1	5	0.0424599998153977	1	1	NaN	198	4	9	1	121	221	321	NaN	521	0.0104097705334425	1	1	NaN	4828936.9311442	NaN	4828937.9145217	4828938.43106573
42	19	0	0	90	36.1581920903955	36.241610738255	14	0.466700360104442	2	3	3	NaN	1	4	0.0424599998153977	1	1	NaN	199	4	10	1	121	221	321	NaN	521	0.0103983227163553	1	1	NaN	4828939.2478865	NaN	4828940.2314436	4828940.74796578
42	19	0	0	90	36.1581920903955	36.241610738255	11	0.366693140082061	2	2	4	NaN	1	3	0.0424599998153977	1	1	NaN	200	4	11	1	121	221	321	NaN	521	0.0104236174374819	1	1	NaN	4828941.5649984	NaN	4828942.5483161	4828943.06485088
42	19	0	0	90	36.1581920903955	36.241610738255	14	0.466700360104442	2	5	6	NaN	1	5	0.0424599998153977	1	1	NaN	201	4	12	1	121	221	321	NaN	521	0.0104157701134682	1	1	NaN	4828943.8818593	NaN	4828944.8651937	4828945.38175023
42	19	0	0	90	36.1581920903955	36.241610738255	24	0.800057760179043	2	10	4	NaN	2	5	0.0424599998153977	1	1	NaN	202	4	13	1	121	221	321	NaN	521	1.05348197091371	2	1	NaN	4828946.2152787	NaN	4828947.1987692	4828947.71531393
42	19	0	0	90	36.1581920903955	36.241610738255	6	0.200014440044761	2	8	1	NaN	2	5	0.0424599998153977	1	1	NaN	203	4	14	1	121	221	321	NaN	521	0.0104108704254031	2	1	NaN	4828949.5822624	NaN	4828950.5657615	4828951.08231473
42	19	0	0	90	36.1581920903955	36.241610738255	12	0.400028880089521	2	5	6	NaN	1	3	0.0424599998153977	1	1	NaN	204	4	15	1	121	221	321	NaN	521	1.28725257050246	1	1	NaN	4828952.1492606	NaN	4828953.1326887	4828953.64923113
42	19	0	0	90	36.1581920903955	36.241610738255	19	0.633379060141742	2	10	6	NaN	2	3	0.0424599998153977	1	1	NaN	205	4	16	1	121	221	321	NaN	521	0.294845570810139	1	0	NaN	4828955.7496629	NaN	4828956.7330334	4828957.24958433
42	19	0	0	90	36.1581920903955	36.241610738255	7	0.233350180052221	2	1	4	NaN	1	4	0.0424599998153977	1	1	NaN	206	4	17	1	121	221	321	NaN	521	0.138800670392811	1	1	NaN	4828958.8499287	NaN	4828959.8333501	4828960.34990553
42	19	0	0	90	36.1581920903955	36.241610738255	15	0.500036100111902	2	11	6	NaN	2	5	0.0424599998153977	1	1	NaN	207	4	18	1	121	221	321	NaN	521	0.0104298172518611	2	1	NaN	4828961.3002076	NaN	4828962.2835762	4828962.80012908
42	19	0	0	90	36.1581920903955	36.241610738255	7	0.233350180052221	2	12	6	NaN	2	4	0.0424599998153977	1	1	NaN	208	4	19	1	121	221	321	NaN	521	0.0104103703051805	2	1	NaN	4828963.6337499	NaN	4828964.6171494	4828965.13369263
42	19	0	0	90	36.1581920903955	36.241610738255	19	0.633379060141742	2	7	3	NaN	2	5	0.0424599998153977	1	1	NaN	209	4	20	1	121	221	321	NaN	521	0.302320769988	2	1	NaN	4828965.9506329	NaN	4828966.9340376	4828967.45058833
42	19	0	0	90	36.1581920903955	36.241610738255	14	0.466700360104442	2	12	5	NaN	2	4	0.0424599998153977	1	1	NaN	210	4	21	1	121	221	321	NaN	521	1.05339527036995	2	1	NaN	4828968.5675665	NaN	4828969.5509626	4828970.06751423
42	19	0	0	90	36.1581920903955	36.241610738255	6	0.200014440044761	2	10	1	NaN	2	5	0.0424599998153977	1	1	NaN	211	4	22	1	121	221	321	NaN	521	0.334108670242131	2	1	NaN	4828971.934565	NaN	4828972.9179706	4828973.43451093
42	19	0	0	90	36.1581920903955	36.241610738255	24	0.800057760179043	2	8	5	NaN	2	4	0.0424599998153977	1	1	NaN	212	4	23	1	121	221	321	NaN	521	0.343817517161369	1	0	NaN	4828974.6848073	NaN	4828975.6683281	4828976.18477338
42	19	0	0	90	36.1581920903955	36.241610738255	18	0.600043320134282	2	8	4	NaN	2	3	0.0424599998153977	1	1	NaN	213	4	24	1	121	221	321	NaN	521	0.0104271173477173	2	1	NaN	4828977.4184566	NaN	4828978.4018189	4828978.91837548
42	19	0	0	90	36.1581920903955	36.241610738255	18	0.600043320134282	2	9	1	NaN	2	4	0.0424599998153977	1	1	NaN	214	4	25	1	121	221	321	NaN	521	0.0104058701545	1	0	NaN	4828979.7351993	NaN	4828980.7187297	4828981.23528153
42	19	0	0	90	36.1581920903955	36.241610738255	24	0.800057760179043	2	3	3	NaN	1	4	0.0424599998153977	1	1	NaN	215	4	26	1	121	221	321	NaN	521	1.32758317049593	1	1	NaN	4828982.0688949	NaN	4828983.0522895	4828983.56884553
42	19	0	0	90	36.1581920903955	36.241610738255	16	0.533371840119362	2	3	5	NaN	1	4	0.0424599998153977	1	1	NaN	216	4	27	1	121	221	321	NaN	521	0.166138170287013	1	1	NaN	4828985.7026062	NaN	4828986.6859651	4828987.20253453
42	19	0	0	90	36.1581920903955	36.241610738255	15	0.500036100111902	2	6	1	NaN	1	5	0.0424599998153977	1	1	NaN	217	4	28	1	121	221	321	NaN	521	0.274451618082821	1	1	NaN	4828988.1861667	NaN	4828989.1695828	4828989.68610358
42	19	0	0	90	36.1581920903955	36.241610738255	13	0.433364620096982	2	7	1	NaN	2	3	0.0424599998153977	1	1	NaN	218	4	29	1	121	221	321	NaN	521	0.0104235708713531	2	1	NaN	4828990.769756	NaN	4828991.7531532	4828992.26970023
42	19	0	0	90	36.1581920903955	36.241610738255	21	0.700050540156662	2	5	3	NaN	1	3	0.0424599998153977	1	1	NaN	219	4	30	1	121	221	321	NaN	521	0.965977270156145	1	1	NaN	4828993.0866708	NaN	4828994.0700271	4828994.58659093
42	19	0	0	90	36.1581920903955	36.241610738255	15	0.500036100111902	2	2	5	NaN	1	5	0.0424599998153977	1	1	NaN	220	4	31	1	121	221	321	NaN	521	0.282802370376885	1	1	NaN	4828996.3703337	NaN	4828997.3537041	4828997.87024103
42	19	0	0	90	36.1581920903955	36.241610738255	21	0.700050540156662	2	9	1	NaN	2	3	0.0424599998153977	1	1	NaN	221	4	32	1	121	221	321	NaN	521	0.354023616760969	2	1	NaN	4828998.9704175	NaN	4828999.9539586	4829000.47049788
42	19	0	0	90	36.1581920903955	36.241610738255	11	0.366693140082061	2	8	5	NaN	2	3	0.0424599998153977	1	1	NaN	222	4	33	1	121	221	321	NaN	521	0.0104169696569443	1	0	NaN	4829001.6374769	NaN	4829002.6208892	4829003.13742843
42	19	0	0	90	36.1581920903955	36.241610738255	14	0.466700360104442	2	11	2	NaN	2	5	0.0424599998153977	1	1	NaN	223	4	34	1	121	221	321	NaN	521	1.0587028702721	2	1	NaN	4829003.9542608	NaN	4829004.9377784	4829005.45432923
42	19	0	0	90	36.1581920903955	36.241610738255	13	0.433364620096982	2	5	4	NaN	1	5	0.0424599998153977	1	1	NaN	224	4	35	1	121	221	321	NaN	521	0.2274647699669	1	1	NaN	4829007.3214906	NaN	4829008.3048174	4829008.82132303
42	19	0	0	90	36.1581920903955	36.241610738255	0	0	1	1	6	NaN	1	3	0.0424599998153977	1	1	NaN	225	4	36	1	111	211	311	NaN	511	0.331072670407593	1	1	NaN	4829010.1215129	NaN	4829011.1050506	4829011.62160293
42	19	0	0	90	36.1581920903955	36.241610738255	23	0.766722020171583	2	12	6	NaN	2	5	0.0424599998153977	1	1	NaN	226	4	37	1	121	221	321	NaN	521	0.457168070599437	2	1	NaN	4829012.7718041	NaN	4829013.7553082	4829014.27186533
42	19	0	0	90	36.1581920903955	36.241610738255	8	0.266685920059681	2	2	1	NaN	1	3	0.0424599998153977	1	1	NaN	227	4	38	1	121	221	321	NaN	521	0.81420511752367	1	1	NaN	4829015.8388632	NaN	4829016.8222818	4829017.33881948
42	19	0	0	90	36.1581920903955	36.241610738255	18	0.600043320134282	2	7	6	NaN	2	4	0.0424599998153977	1	1	NaN	228	4	39	1	121	221	321	NaN	521	0.248862970620394	1	0	NaN	4829018.9558497	NaN	4829019.9392894	4829020.45580063
42	19	0	0	90	36.1581920903955	36.241610738255	6	0.200014440044761	2	12	4	NaN	2	5	0.0424599998153977	1	1	NaN	229	4	40	1	121	221	321	NaN	521	0.0464824708178639	2	1	NaN	4829022.0061378	NaN	4829022.9895659	4829023.50609983
42	19	0	0	90	36.1581920903955	36.241610738255	20	0.666714800149202	2	10	3	NaN	2	5	0.0424599998153977	1	1	NaN	230	4	41	1	121	221	321	NaN	521	0.231625970453024	1	0	NaN	4829024.3730627	NaN	4829025.3565179	4829025.87299863
42	19	0	0	90	36.1581920903955	36.241610738255	23	0.766722020171583	2	4	5	NaN	1	3	0.0424599998153977	1	1	NaN	231	4	42	1	121	221	321	NaN	521	0.953381316736341	2	0	NaN	4829026.9233071	NaN	4829027.9067046	4829028.42324528
42	19	0	0	90	36.1581920903955	36.241610738255	12	0.400028880089521	2	12	3	NaN	2	5	0.0424599998153977	1	1	NaN	232	4	43	1	121	221	321	NaN	521	0.230736470781267	2	1	NaN	4829030.190164	NaN	4829031.1735895	4829031.69024563
42	19	0	0	90	36.1581920903955	36.241610738255	7	0.233350180052221	2	4	5	NaN	1	5	0.0424599998153977	1	1	NaN	233	4	44	1	121	221	321	NaN	521	0.242543317377567	1	1	NaN	4829032.8905353	NaN	4829033.8739454	4829034.39049718
42	19	0	0	90	36.1581920903955	36.241610738255	9	0.300021660067141	2	11	1	NaN	2	4	0.0424599998153977	1	1	NaN	234	4	45	1	121	221	321	NaN	521	0.228388317860663	2	1	NaN	4829035.6241271	NaN	4829036.6075424	4829037.12410578
42	19	0	0	90	36.1581920903955	36.241610738255	21	0.700050540156662	2	5	5	NaN	1	3	0.0424599998153977	1	1	NaN	235	4	46	1	121	221	321	NaN	521	0.0104098711162806	1	1	NaN	4829038.3244039	NaN	4829039.3078052	4829039.82437543
42	19	0	0	90	36.1581920903955	36.241610738255	18	0.600043320134282	2	11	1	NaN	2	4	0.0424599998153977	1	1	NaN	236	4	47	1	121	221	321	NaN	521	0.0104050701484084	2	1	NaN	4829040.7248036	NaN	4829041.7080688	4829042.22460983
42	19	0	0	90	36.1581920903955	36.241610738255	23	0.766722020171583	2	7	4	NaN	2	4	0.0424599998153977	1	1	NaN	237	4	48	1	121	221	321	NaN	521	0.203876717016101	2	1	NaN	4829043.2249265	NaN	4829044.2083105	4829044.72484688
42	19	0	0	90	36.1581920903955	36.241610738255	23	0.766722020171583	2	8	4	NaN	2	3	0.0424599998153977	1	1	NaN	238	4	49	1	121	221	321	NaN	521	0.256650717929006	2	1	NaN	4829045.9084997	NaN	4829046.8919021	4829047.40845318
42	19	0	0	90	36.1581920903955	36.241610738255	9	0.300021660067141	2	3	6	NaN	1	3	0.0424599998153977	1	1	NaN	239	4	50	1	121	221	321	NaN	521	0.234927617013454	1	1	NaN	4829048.6420979	NaN	4829049.6255007	4829050.14205088
42	19	0	0	90	36.1581920903955	36.241610738255	12	0.400028880089521	2	1	5	NaN	1	4	0.0424599998153977	1	1	NaN	240	4	51	1	121	221	321	NaN	521	0.0104826176539063	1	1	NaN	4829051.1923739	NaN	4829052.1757446	4829052.69230698
42	19	0	0	90	36.1581920903955	36.241610738255	23	0.766722020171583	2	2	6	NaN	1	3	0.0424599998153977	1	1	NaN	241	4	52	1	121	221	321	NaN	521	1.52740021795034	1	1	NaN	4829053.5091183	NaN	4829054.4926892	4829055.00919838
42	19	0	0	90	36.1581920903955	36.241610738255	8	0.266685920059681	2	5	5	NaN	1	4	0.0424599998153977	1	1	NaN	242	4	53	1	121	221	321	NaN	521	0.367151570506394	1	1	NaN	4829057.5097412	NaN	4829058.4930495	4829059.00959073
42	19	0	0	90	36.1581920903955	36.241610738255	14	0.466700360104442	2	10	2	NaN	2	5	0.0424599998153977	1	1	NaN	243	4	54	1	121	221	321	NaN	521	0.283578790724277	2	1	NaN	4829060.1932469	NaN	4829061.1766358	4829061.69319741
42	19	0	0	90	36.1581920903955	36.241610738255	25	0.833393500186503	2	9	1	NaN	2	4	0.0424599998153977	1	1	NaN	244	4	55	1	121	221	321	NaN	521	0.235382270999253	2	1	NaN	4829062.7935087	NaN	4829063.7769053	4829064.29344263
42	19	0	0	90	36.1581920903955	36.241610738255	14	0.466700360104442	2	7	1	NaN	2	3	0.0424599998153977	1	1	NaN	245	4	56	1	121	221	321	NaN	521	0.292053317651153	2	1	NaN	4829065.3770638	NaN	4829066.3605244	4829066.87702938
42	19	0	0	90	36.1581920903955	36.241610738255	15	0.500036100111902	2	7	2	NaN	2	5	0.0424599998153977	1	1	NaN	246	4	57	1	121	221	321	NaN	521	0.252390970475972	2	1	NaN	4829068.1606612	NaN	4829069.1440998	4829069.66063453
42	19	0	0	90	36.1581920903955	36.241610738255	25	0.833393500186503	2	8	2	NaN	2	4	0.0424599998153977	1	1	NaN	247	4	58	1	121	221	321	NaN	521	0.0104279173538089	1	0	NaN	4829071.0943168	NaN	4829072.0777502	4829072.59425378
42	19	0	0	90	36.1581920903955	36.241610738255	21	0.700050540156662	2	1	2	NaN	1	3	0.0424599998153977	1	1	NaN	248	4	59	1	121	221	321	NaN	521	0.433684370480478	1	1	NaN	4829073.4111006	NaN	4829074.3946155	4829074.91115973
42	19	0	0	90	36.1581920903955	36.241610738255	10	0.333357400074601	2	5	6	NaN	1	5	0.0424599998153977	1	1	NaN	249	4	60	1	121	221	321	NaN	521	0.283282417804003	2	0	NaN	4829076.1612906	NaN	4829077.1448694	4829077.66144478
42	19	0	0	90	36.1581920903955	36.241610738255	9	0.300021660067141	2	5	3	NaN	1	5	0.0424599998153977	1	1	NaN	250	4	61	1	121	221	321	NaN	521	0.203020670451224	1	1	NaN	4829078.7617248	NaN	4829079.7451328	4829080.26168833
42	19	0	0	90	36.1581920903955	36.241610738255	11	0.366693140082061	2	3	5	NaN	1	4	0.0424599998153977	1	1	NaN	251	4	62	1	121	221	321	NaN	521	0.0142139699310064	1	1	NaN	4829081.2786605	NaN	4829082.2620441	4829082.77858953
42	19	0	0	90	36.1581920903955	36.241610738255	17	0.566707580126822	2	10	2	NaN	2	4	0.0424599998153977	1	1	NaN	252	4	63	1	121	221	321	NaN	521	0.0104226702824235	2	1	NaN	4829083.5955338	NaN	4829084.5789426	4829085.09549413
42	19	0	0	90	36.1581920903955	36.241610738255	8	0.266685920059681	2	10	6	NaN	2	3	0.0424599998153977	1	1	NaN	253	5	1	1	121	221	321	NaN	521	7.5713111711666	2	1	NaN	4829096.5134803	NaN	4829097.4968513	4829098.01342573
42	19	0	0	90	36.1581920903955	36.241610738255	7	0.233350180052221	2	10	4	NaN	2	5	0.0424599998153977	1	1	NaN	254	5	2	1	121	221	321	NaN	521	0.0104235168546438	1	0	NaN	4829106.5644414	NaN	4829107.547861	4829108.06440898
42	19	0	0	90	36.1581920903955	36.241610738255	17	0.566707580126822	2	8	4	NaN	2	3	0.0424599998153977	1	1	NaN	255	5	3	1	121	221	321	NaN	521	1.87564309500158	2	1	NaN	4829108.8813892	NaN	4829109.8647621	4829110.3813204
42	19	0	0	90	36.1581920903955	36.241610738255	18	0.600043320134282	2	2	4	NaN	1	4	0.0424599998153977	1	1	NaN	256	5	4	1	121	221	321	NaN	521	2.13175876997411	1	1	NaN	4829113.0651095	NaN	4829114.0485042	4829114.56505573
42	19	0	0	90	36.1581920903955	36.241610738255	0	0	1	6	5	NaN	1	5	0.0424599998153977	1	1	NaN	257	5	5	1	111	211	311	NaN	511	1.0976370703429	2	0	NaN	4829117.5155101	NaN	4829118.4989515	4829119.01549113
42	19	0	0	90	36.1581920903955	36.241610738255	16	0.533371840119362	2	9	6	NaN	2	3	0.0424599998153977	1	1	NaN	258	5	6	1	121	221	321	NaN	521	0.224455517716706	2	1	NaN	4829120.9325559	NaN	4829121.915982	4829122.43249198
42	19	0	0	90	36.1581920903955	36.241610738255	20	0.666714800149202	2	11	4	NaN	2	5	0.0424599998153977	1	1	NaN	259	5	7	1	121	221	321	NaN	521	0.277042769826949	2	1	NaN	4829123.6161219	NaN	4829124.5995502	4829125.11609023
42	19	0	0	90	36.1581920903955	36.241610738255	9	0.300021660067141	2	10	3	NaN	2	4	0.0424599998153977	1	1	NaN	260	5	8	1	121	221	321	NaN	521	0.206357470713556	2	1	NaN	4829126.3662794	NaN	4829127.3498127	4829127.86636643
42	19	0	0	90	36.1581920903955	36.241610738255	12	0.400028880089521	2	2	6	NaN	1	3	0.0424599998153977	1	1	NaN	261	5	9	1	121	221	321	NaN	521	0.283144670538604	1	1	NaN	4829129.0499796	NaN	4829130.0333856	4829130.54996583
42	19	0	0	90	36.1581920903955	36.241610738255	7	0.233350180052221	2	4	6	NaN	1	3	0.0424599998153977	1	1	NaN	262	5	10	1	121	221	321	NaN	521	0.507279871031642	1	1	NaN	4829131.8336598	NaN	4829132.817012	4829133.33356453
42	19	0	0	90	36.1581920903955	36.241610738255	8	0.266685920059681	2	3	4	NaN	1	4	0.0424599998153977	1	1	NaN	263	5	11	1	121	221	321	NaN	521	0.275046670809388	1	1	NaN	4829134.8339018	NaN	4829135.8173191	4829136.33386303
42	19	0	0	90	36.1581920903955	36.241610738255	21	0.700050540156662	2	1	1	NaN	1	4	0.0424599998153977	1	1	NaN	264	5	12	1	121	221	321	NaN	521	0.0119385421276093	1	1	NaN	4829137.6008264	NaN	4829138.5842334	4829139.10080866
42	19	0	0	90	36.1581920903955	36.241610738255	19	0.633379060141742	2	4	3	NaN	1	4	0.0424599998153977	1	1	NaN	265	5	13	1	121	221	321	NaN	521	0.0104093700647354	1	1	NaN	4829139.9843931	NaN	4829140.9678311	4829141.48437163
42	19	0	0	90	36.1581920903955	36.241610738255	16	0.533371840119362	2	10	6	NaN	2	5	0.0424599998153977	1	1	NaN	266	5	14	1	121	221	321	NaN	521	0.0104271713644266	1	0	NaN	4829142.3013365	NaN	4829143.2847093	4829143.80126213
42	19	0	0	90	36.1581920903955	36.241610738255	15	0.500036100111902	2	6	3	NaN	1	5	0.0424599998153977	1	1	NaN	267	5	15	1	121	221	321	NaN	521	1.05061977077276	1	1	NaN	4829144.6180786	NaN	4829145.6016305	4829146.11815583
42	19	0	0	90	36.1581920903955	36.241610738255	20	0.666714800149202	2	1	3	NaN	1	4	0.0424599998153977	1	1	NaN	268	5	16	1	121	221	321	NaN	521	0.411936917342246	1	1	NaN	4829147.9852059	NaN	4829148.9686185	4829149.48514648
42	19	0	0	90	36.1581920903955	36.241610738255	20	0.666714800149202	2	12	1	NaN	2	5	0.0424599998153977	1	1	NaN	269	5	17	1	121	221	321	NaN	521	1.22277781739831	2	1	NaN	4829150.7021466	NaN	4829151.6855449	4829152.20208348
42	19	0	0	90	36.1581920903955	36.241610738255	8	0.266685920059681	2	4	6	NaN	1	3	0.0424599998153977	1	1	NaN	270	5	18	1	121	221	321	NaN	521	0.0104065705090761	1	1	NaN	4829154.752517	NaN	4829155.7359357	4829156.25248523
42	19	0	0	90	36.1581920903955	36.241610738255	11	0.366693140082061	2	5	5	NaN	1	5	0.0424599998153977	1	1	NaN	271	5	19	1	121	221	321	NaN	521	1.17505926545709	1	1	NaN	4829157.0860935	NaN	4829158.0694722	4829158.58604123
42	19	0	0	90	36.1581920903955	36.241610738255	16	0.533371840119362	2	5	1	NaN	1	5	0.0424599998153977	1	1	NaN	272	5	20	1	121	221	321	NaN	521	0.323021122254431	1	1	NaN	4829160.5697792	NaN	4829161.5531622	4829162.06973078
42	19	0	0	90	36.1581920903955	36.241610738255	13	0.433364620096982	2	9	4	NaN	2	4	0.0424599998153977	1	1	NaN	273	5	21	1	121	221	321	NaN	521	1.28140337020159	2	1	NaN	4829163.2033762	NaN	4829164.1867758	4829164.70331583
42	19	0	0	90	36.1581920903955	36.241610738255	25	0.833393500186503	2	2	2	NaN	1	5	0.0424599998153977	1	1	NaN	274	5	22	1	121	221	321	NaN	521	0.322132269851863	1	1	NaN	4829166.9869577	NaN	4829167.9704745	4829168.48702343
42	19	0	0	90	36.1581920903955	36.241610738255	13	0.433364620096982	2	1	4	NaN	1	4	0.0424599998153977	1	1	NaN	275	5	23	1	121	221	321	NaN	521	0.0104209175333381	1	1	NaN	4829169.6206645	NaN	4829170.6040696	4829171.12061488
42	19	0	0	90	36.1581920903955	36.241610738255	14	0.466700360104442	2	9	6	NaN	2	3	0.0424599998153977	1	1	NaN	276	5	24	1	121	221	321	NaN	521	0.459748365916312	1	0	NaN	4829171.9375642	NaN	4829172.9209677	4829173.43750083
42	19	0	0	90	36.1581920903955	36.241610738255	0	0	1	5	1	NaN	1	4	0.0424599998153977	1	1	NaN	277	5	25	1	111	211	311	NaN	511	0.0103871747851372	1	1	NaN	4829174.7045074	NaN	4829175.6879016	4829176.20444523
42	19	0	0	90	36.1581920903955	36.241610738255	20	0.666714800149202	2	6	4	NaN	1	4	0.0424599998153977	1	1	NaN	278	5	26	1	121	221	321	NaN	521	2.66291456483305	1	1	NaN	4829177.0380568	NaN	4829178.021517	4829178.53800434
42	19	0	0	90	36.1581920903955	36.241610738255	25	0.833393500186503	2	8	3	NaN	2	4	0.0424599998153977	1	1	NaN	279	5	27	1	121	221	321	NaN	521	0.0104235699400306	1	0	NaN	4829182.0218952	NaN	4829183.0052932	4829183.52183613
42	19	0	0	90	36.1581920903955	36.241610738255	20	0.666714800149202	2	4	5	NaN	1	3	0.0424599998153977	1	1	NaN	280	5	28	1	121	221	321	NaN	521	0.0104088708758354	1	1	NaN	4829184.3387819	NaN	4829185.3221814	4829185.83872833
42	19	0	0	90	36.1581920903955	36.241610738255	16	0.533371840119362	2	11	1	NaN	2	3	0.0424599998153977	1	1	NaN	281	5	29	1	121	221	321	NaN	521	1.58160414826125	2	1	NaN	4829186.6555503	NaN	4829187.6390777	4829188.15562265
42	19	0	0	90	36.1581920903955	36.241610738255	16	0.533371840119362	2	4	3	NaN	1	5	0.0424599998153977	1	1	NaN	282	5	30	1	121	221	321	NaN	521	0.0104344170540571	1	1	NaN	4829190.5393931	NaN	4829191.522796	4829192.03933118
42	19	0	0	90	36.1581920903955	36.241610738255	19	0.633379060141742	2	6	4	NaN	1	5	0.0424599998153977	1	1	NaN	283	5	31	1	121	221	321	NaN	521	0.0104091698303819	1	1	NaN	4829192.8561449	NaN	4829193.8396894	4829194.35623453
42	19	0	0	90	36.1581920903955	36.241610738255	20	0.666714800149202	2	9	3	NaN	2	4	0.0424599998153977	1	1	NaN	284	5	32	1	121	221	321	NaN	521	0.216158232651651	2	1	NaN	4829195.1730471	NaN	4829196.1566029	4829196.67312677
42	19	0	0	90	36.1581920903955	36.241610738255	7	0.233350180052221	2	7	6	NaN	2	3	0.0424599998153977	1	1	NaN	285	5	33	1	121	221	321	NaN	521	0.858528969809413	1	0	NaN	4829197.706749	NaN	4829198.6901696	4829199.20670963
42	19	0	0	90	36.1581920903955	36.241610738255	7	0.233350180052221	2	5	4	NaN	1	4	0.0424599998153977	1	1	NaN	286	5	34	1	121	221	321	NaN	521	0.0104105705395341	2	0	NaN	4829200.8737492	NaN	4829201.8571606	4829202.37369173
42	19	0	0	90	36.1581920903955	36.241610738255	18	0.600043320134282	2	10	2	NaN	2	3	0.0424599998153977	1	1	NaN	287	5	35	1	121	221	321	NaN	521	0.010410170070827	2	1	NaN	4829203.1906426	NaN	4829204.1740341	4829204.69058573
42	19	0	0	90	36.1581920903955	36.241610738255	10	0.333357400074601	2	12	2	NaN	2	5	0.0424599998153977	1	1	NaN	288	5	36	1	121	221	321	NaN	521	2.16949581727386	2	1	NaN	4829205.5075444	NaN	4829206.4909252	4829207.00747638
42	19	0	0	90	36.1581920903955	36.241610738255	19	0.633379060141742	2	9	5	NaN	2	3	0.0424599998153977	1	1	NaN	289	5	37	1	121	221	321	NaN	521	0.150060717947781	1	0	NaN	4829209.9913198	NaN	4829210.9746987	4829211.49124278
42	19	0	0	90	36.1581920903955	36.241610738255	18	0.600043320134282	2	5	3	NaN	1	5	0.0424599998153977	1	1	NaN	290	5	38	1	121	221	321	NaN	521	0.274767317809165	1	1	NaN	4829212.4581125	NaN	4829213.4416113	4829213.95815318
42	19	0	0	90	36.1581920903955	36.241610738255	10	0.333357400074601	2	8	6	NaN	2	4	0.0424599998153977	1	1	NaN	291	5	39	1	121	221	321	NaN	521	0.0102527942508459	2	1	NaN	4829215.0418056	NaN	4829216.0251973	4829216.54174921
42	19	0	0	90	36.1581920903955	36.241610738255	22	0.733386280164123	2	8	6	NaN	2	3	0.0424599998153977	1	1	NaN	292	5	40	1	121	221	321	NaN	521	0.0104148704558611	2	1	NaN	4829217.3586906	NaN	4829218.3420977	4829218.85864123
42	19	0	0	90	36.1581920903955	36.241610738255	22	0.733386280164123	2	6	1	NaN	1	5	0.0424599998153977	1	1	NaN	293	5	41	1	121	221	321	NaN	521	0.0105933398008347	1	1	NaN	4829220.159054	NaN	4829221.1423779	4829221.65890616
42	19	0	0	90	36.1581920903955	36.241610738255	24	0.800057760179043	2	4	6	NaN	1	3	0.0424599998153977	1	1	NaN	294	5	42	1	121	221	321	NaN	521	0.329422422684729	2	0	NaN	4829222.4758647	NaN	4829223.4592595	4829223.97581688
42	19	0	0	90	36.1581920903955	36.241610738255	12	0.400028880089521	2	8	6	NaN	2	4	0.0424599998153977	1	1	NaN	295	5	43	1	121	221	321	NaN	521	1.59880687110126	2	1	NaN	4829225.1261248	NaN	4829226.1095322	4829226.62606863
42	19	0	0	90	36.1581920903955	36.241610738255	7	0.233350180052221	2	9	5	NaN	2	5	0.0424599998153977	1	1	NaN	296	5	44	1	121	221	321	NaN	521	0.0104100704193115	1	0	NaN	4829229.0265095	NaN	4829230.0099067	4829230.52646293
42	19	0	0	90	36.1581920903955	36.241610738255	7	0.233350180052221	2	12	4	NaN	2	5	0.0424599998153977	1	1	NaN	297	5	45	1	121	221	321	NaN	521	0.107538470998406	1	0	NaN	4829231.5933935	NaN	4829232.5768587	4829233.09337313
42	19	0	0	90	36.1581920903955	36.241610738255	20	0.666714800149202	2	1	1	NaN	1	4	0.0424599998153977	1	1	NaN	298	5	46	1	121	221	321	NaN	521	1.12866087444127	1	1	NaN	4829244.8447335	NaN	4829245.8281331	4829246.34467843
42	19	0	0	90	36.1581920903955	36.241610738255	9	0.300021660067141	2	7	4	NaN	2	4	0.0424599998153977	1	1	NaN	299	5	47	1	121	221	321	NaN	521	0.942734317854047	1	0	NaN	4829248.2782813	NaN	4829249.261808	4829249.77834178
42	19	0	0	90	36.1581920903955	36.241610738255	6	0.200014440044761	2	6	3	NaN	1	5	0.0424599998153977	1	1	NaN	300	5	48	1	121	221	321	NaN	521	0.364526522345841	1	1	NaN	4829251.9287675	NaN	4829252.9121861	4829253.42870838
42	19	0	0	90	36.1581920903955	36.241610738255	23	0.766722020171583	2	6	2	NaN	1	4	0.0424599998153977	1	1	NaN	301	5	49	1	121	221	321	NaN	521	0.0506985178217292	1	1	NaN	4829254.762386	NaN	4829255.7458212	4829256.26231188
42	19	0	0	90	36.1581920903955	36.241610738255	13	0.433364620096982	2	9	5	NaN	2	3	0.0424599998153977	1	1	NaN	302	5	50	1	121	221	321	NaN	521	0.340202170424163	2	1	NaN	4829257.1292859	NaN	4829258.1127079	4829258.62921653
42	19	0	0	90	36.1581920903955	36.241610738255	8	0.266685920059681	2	11	5	NaN	2	3	0.0424599998153977	1	1	NaN	303	5	51	1	121	221	321	NaN	521	0.281412870623171	2	1	NaN	4829259.7795355	NaN	4829260.762928	4829261.27948673
42	19	0	0	90	36.1581920903955	36.241610738255	18	0.600043320134282	2	8	2	NaN	2	3	0.0424599998153977	1	1	NaN	304	5	52	1	121	221	321	NaN	521	0.298607470467687	1	0	NaN	4829262.5464082	NaN	4829263.5298521	4829264.04642073
42	19	0	0	90	36.1581920903955	36.241610738255	17	0.566707580126822	2	1	6	NaN	1	3	0.0424599998153977	1	1	NaN	305	5	53	1	121	221	321	NaN	521	0.0104188174009323	1	1	NaN	4829265.2960681	NaN	4829266.280194	4829266.79668658
42	19	0	0	90	36.1581920903955	36.241610738255	17	0.566707580126822	2	7	4	NaN	2	5	0.0424599998153977	1	1	NaN	306	5	54	1	121	221	321	NaN	521	1.09201061725616	2	1	NaN	4829268.2967102	NaN	4829269.2804398	4829269.79697648
42	19	0	0	90	36.1581920903955	36.241610738255	8	0.266685920059681	2	1	3	NaN	1	3	0.0424599998153977	1	1	NaN	307	5	55	1	121	221	321	NaN	521	0.218236170709133	2	0	NaN	4829273.3308452	NaN	4829274.3142116	4829274.83080823
42	19	0	0	90	36.1581920903955	36.241610738255	0	0	1	10	5	NaN	2	4	0.0424599998153977	1	1	NaN	308	5	56	1	111	211	311	NaN	511	0.82908162754029	2	1	NaN	4829276.0643466	NaN	4829277.0479031	4829277.56440987
42	19	0	0	90	36.1581920903955	36.241610738255	20	0.666714800149202	2	12	6	NaN	2	3	0.0424599998153977	1	1	NaN	309	5	57	1	121	221	321	NaN	521	0.334311771206558	2	1	NaN	4829279.2147782	NaN	4829280.1981727	4829280.71471793
42	19	0	0	90	36.1581920903955	36.241610738255	13	0.433364620096982	2	12	3	NaN	2	3	0.0424599998153977	1	1	NaN	310	5	58	1	121	221	321	NaN	521	0.341703817248344	2	1	NaN	4829282.0316867	NaN	4829283.0151205	4829283.53166138
42	19	0	0	90	36.1581920903955	36.241610738255	7	0.233350180052221	2	5	6	NaN	1	5	0.0424599998153977	1	1	NaN	311	5	59	1	121	221	321	NaN	521	0.0104230167344213	1	1	NaN	4829284.981997	NaN	4829285.9653988	4829286.48195938
42	19	0	0	90	36.1581920903955	36.241610738255	10	0.333357400074601	2	2	6	NaN	1	4	0.0424599998153977	1	1	NaN	312	5	60	1	121	221	321	NaN	521	0.0103974230587482	1	1	NaN	4829287.2989971	NaN	4829288.2823108	4829288.79885698
42	19	0	0	90	36.1581920903955	36.241610738255	8	0.266685920059681	2	9	6	NaN	2	4	0.0424599998153977	1	1	NaN	313	5	61	1	121	221	321	NaN	521	0.0373617177829146	2	1	NaN	4829289.8158004	NaN	4829290.7992156	4829291.31576838
42	19	0	0	90	36.1581920903955	36.241610738255	12	0.400028880089521	2	5	4	NaN	1	4	0.0424599998153977	1	1	NaN	314	5	62	1	121	221	321	NaN	521	0.0104202711954713	1	1	NaN	4829292.332702	NaN	4829293.3161364	4829293.83268503
42	19	0	0	90	36.1581920903955	36.241610738255	10	0.333357400074601	2	1	3	NaN	1	5	0.0424599998153977	1	1	NaN	315	5	63	1	121	221	321	NaN	521	0.155424170196056	1	1	NaN	4829294.6495573	NaN	4829295.6330793	4829296.14957743
42	19	0	0	90	36.1581920903955	36.241610738255	25	0.833393500186503	2	6	6	NaN	1	5	0.0424599998153977	1	1	NaN	316	6	1	1	121	221	321	NaN	521	1.38478631805629	2	0	NaN	4829347.2047968	NaN	4829348.1881897	4829348.70473438
42	19	0	0	90	36.1581920903955	36.241610738255	9	0.300021660067141	2	2	1	NaN	1	4	0.0424599998153977	1	1	NaN	317	6	2	1	121	221	321	NaN	521	0.609335317276418	1	1	NaN	4829350.9717974	NaN	4829351.9552656	4829352.47177508
42	19	0	0	90	36.1581920903955	36.241610738255	19	0.633379060141742	2	3	6	NaN	1	3	0.0424599998153977	1	1	NaN	318	6	3	1	121	221	321	NaN	521	0.0104098711162806	1	1	NaN	4829354.0721139	NaN	4829355.0555552	4829355.57207683
42	19	0	0	90	36.1581920903955	36.241610738255	23	0.766722020171583	2	1	2	NaN	1	5	0.0424599998153977	1	1	NaN	319	6	4	1	121	221	321	NaN	521	1.94419647008181	1	1	NaN	4829356.3890669	NaN	4829357.3724361	4829357.88898153
42	19	0	0	90	36.1581920903955	36.241610738255	13	0.433364620096982	2	10	4	NaN	2	4	0.0424599998153977	1	1	NaN	320	6	5	1	121	221	321	NaN	521	0.303623370826244	2	1	NaN	4829362.5896453	NaN	4829363.5730268	4829364.08958613
42	19	0	0	90	36.1581920903955	36.241610738255	16	0.533371840119362	2	12	1	NaN	2	5	0.0424599998153977	1	1	NaN	321	6	6	1	121	221	321	NaN	521	0.291150317527354	2	1	NaN	4829367.8901421	NaN	4829368.8735687	4829369.39010778
42	19	0	0	90	36.1581920903955	36.241610738255	7	0.233350180052221	2	11	2	NaN	2	5	0.0424599998153977	1	1	NaN	322	6	7	1	121	221	321	NaN	521	0.264591070823371	1	0	NaN	4829370.94044	NaN	4829371.9238568	4829372.44041073
42	19	0	0	90	36.1581920903955	36.241610738255	24	0.800057760179043	2	6	5	NaN	1	4	0.0424599998153977	1	1	NaN	323	6	8	1	121	221	321	NaN	521	0.914176455698907	1	1	NaN	4829373.7073879	NaN	4829374.6908353	4829375.20734654
42	19	0	0	90	36.1581920903955	36.241610738255	12	0.400028880089521	2	8	1	NaN	2	3	0.0424599998153977	1	1	NaN	324	6	9	1	121	221	321	NaN	521	0.521743870340288	2	1	NaN	4829377.1075931	NaN	4829378.0911305	4829378.60767603
42	19	0	0	90	36.1581920903955	36.241610738255	20	0.666714800149202	2	11	3	NaN	2	3	0.0424599998153977	1	1	NaN	325	6	10	1	121	221	321	NaN	521	0.0105466172099113	2	1	NaN	4829379.9413435	NaN	4829380.924725	4829381.44131408
42	19	0	0	90	36.1581920903955	36.241610738255	19	0.633379060141742	2	5	5	NaN	1	5	0.0424599998153977	1	1	NaN	326	6	11	1	121	221	321	NaN	521	0.22221976518631	1	1	NaN	4829382.5749134	NaN	4829383.5583332	4829384.07487863
42	19	0	0	90	36.1581920903955	36.241610738255	19	0.633379060141742	2	12	4	NaN	2	3	0.0424599998153977	1	1	NaN	327	6	12	1	121	221	321	NaN	521	0.0734165646135807	2	1	NaN	4829385.2918421	NaN	4829386.2752796	4829386.79181613
42	19	0	0	90	36.1581920903955	36.241610738255	19	0.633379060141742	2	2	4	NaN	1	3	0.0424599998153977	1	1	NaN	328	6	13	1	121	221	321	NaN	521	1.66150922235101	1	1	NaN	4829389.7756245	NaN	4829390.7590363	4829391.27559938
42	19	0	0	90	36.1581920903955	36.241610738255	23	0.766722020171583	2	7	2	NaN	2	3	0.0424599998153977	1	1	NaN	329	6	14	1	121	221	321	NaN	521	0.0104171168059111	1	0	NaN	4829393.7426159	NaN	4829394.7261286	4829395.24264858
42	19	0	0	90	36.1581920903955	36.241610738255	16	0.533371840119362	2	5	4	NaN	1	4	0.0424599998153977	1	1	NaN	330	6	15	1	121	221	321	NaN	521	0.0103904232382774	1	1	NaN	4829396.0595936	NaN	4829397.0429988	4829397.55955078
42	19	0	0	90	36.1581920903955	36.241610738255	11	0.366693140082061	2	12	2	NaN	2	3	0.0424599998153977	1	1	NaN	331	6	16	1	121	221	321	NaN	521	0.869075665250421	2	1	NaN	4829398.3764887	NaN	4829399.3598991	4829399.87643163
42	19	0	0	90	36.1581920903955	36.241610738255	8	0.266685920059681	2	4	1	NaN	1	5	0.0424599998153977	1	1	NaN	332	6	17	1	121	221	321	NaN	521	0.261059170588851	1	1	NaN	4829401.5601316	NaN	4829402.5435317	4829403.06009083
42	19	0	0	90	36.1581920903955	36.241610738255	13	0.433364620096982	2	11	4	NaN	2	4	0.0424599998153977	1	1	NaN	333	6	18	1	121	221	321	NaN	521	0.0104082711040974	2	1	NaN	4829404.1437219	NaN	4829405.1271838	4829405.64367023
42	19	0	0	90	36.1581920903955	36.241610738255	14	0.466700360104442	2	12	5	NaN	2	4	0.0424599998153977	1	1	NaN	334	6	19	1	121	221	321	NaN	521	0.089166322723031	2	1	NaN	4829406.8439861	NaN	4829407.8273871	4829408.34394498
42	19	0	0	90	36.1581920903955	36.241610738255	14	0.466700360104442	2	8	5	NaN	2	3	0.0424599998153977	1	1	NaN	335	6	20	1	121	221	321	NaN	521	0.0664701797068119	2	1	NaN	4829409.4108818	NaN	4829410.3942294	4829410.91085562
42	19	0	0	90	36.1581920903955	36.241610738255	25	0.833393500186503	2	11	5	NaN	2	4	0.0424599998153977	1	1	NaN	336	6	21	1	121	221	321	NaN	521	0.0104206707328558	2	1	NaN	4829412.0446335	NaN	4829413.027801	4829413.54445463
42	19	0	0	90	36.1581920903955	36.241610738255	25	0.833393500186503	2	1	4	NaN	1	3	0.0424599998153977	1	1	NaN	337	6	22	1	121	221	321	NaN	521	0.352005522698164	1	1	NaN	4829416.0615488	NaN	4829417.044859	4829417.56151368
42	19	0	0	90	36.1581920903955	36.241610738255	25	0.833393500186503	2	4	3	NaN	1	3	0.0424599998153977	1	1	NaN	338	6	23	1	121	221	321	NaN	521	0.0104237170889974	1	1	NaN	4829418.7284069	NaN	4829419.7118859	4829420.22843468
42	19	0	0	90	36.1581920903955	36.241610738255	12	0.400028880089521	2	2	5	NaN	1	3	0.0424599998153977	1	1	NaN	339	6	24	1	121	221	321	NaN	521	0.010444370098412	1	1	NaN	4829421.0452884	NaN	4829422.02878	4829422.54533363
42	19	0	0	90	36.1581920903955	36.241610738255	22	0.733386280164123	2	1	2	NaN	1	4	0.0424599998153977	1	1	NaN	340	6	25	1	121	221	321	NaN	521	0.332742270082235	2	0	NaN	4829424.912429	NaN	4829425.8958271	4829426.41238563
42	19	0	0	90	36.1581920903955	36.241610738255	25	0.833393500186503	2	2	1	NaN	1	4	0.0424599998153977	1	1	NaN	341	6	26	1	121	221	321	NaN	521	0.298959817737341	1	1	NaN	4829427.5627	NaN	4829428.5461009	4829429.06263708
42	19	0	0	90	36.1581920903955	36.241610738255	23	0.766722020171583	2	10	6	NaN	2	3	0.0424599998153977	1	1	NaN	342	6	27	1	121	221	321	NaN	521	0.425102917477489	1	0	NaN	4829431.1962632	NaN	4829432.1797855	4829432.69632738
42	19	0	0	90	36.1581920903955	36.241610738255	23	0.766722020171583	2	9	5	NaN	2	5	0.0424599998153977	1	1	NaN	343	6	28	1	121	221	321	NaN	521	0.282317717559636	1	0	NaN	4829436.3468712	NaN	4829437.3302986	4829437.84683958
42	19	0	0	90	36.1581920903955	36.241610738255	19	0.633379060141742	2	5	2	NaN	1	3	0.0424599998153977	1	1	NaN	344	6	29	1	121	221	321	NaN	521	0.010425116866827	1	1	NaN	4829442.397466	NaN	4829443.3808848	4829443.89744158
42	19	0	0	90	36.1581920903955	36.241610738255	14	0.466700360104442	2	8	5	NaN	2	5	0.0424599998153977	1	1	NaN	345	6	30	1	121	221	321	NaN	521	0.0102536948397756	2	1	NaN	4829445.1644129	NaN	4829446.1478439	4829446.66437741
42	19	0	0	90	36.1581920903955	36.241610738255	15	0.500036100111902	2	10	2	NaN	2	4	0.0424599998153977	1	1	NaN	346	6	31	1	121	221	321	NaN	521	0.22011727001518	2	1	NaN	4829447.4811919	NaN	4829448.4647233	4829448.98126213
42	19	0	0	90	36.1581920903955	36.241610738255	18	0.600043320134282	2	7	5	NaN	2	5	0.0424599998153977	1	1	NaN	347	6	32	1	121	221	321	NaN	521	0.010418170131743	2	1	NaN	4829453.8319289	NaN	4829454.8153416	4829455.33189863
42	19	0	0	90	36.1581920903955	36.241610738255	18	0.600043320134282	2	1	2	NaN	1	5	0.0424599998153977	1	1	NaN	348	6	33	1	121	221	321	NaN	521	0.0104033704847097	1	1	NaN	4829456.148713	NaN	4829457.1322323	4829457.64878813
42	19	0	0	90	36.1581920903955	36.241610738255	11	0.366693140082061	2	3	5	NaN	1	4	0.0424599998153977	1	1	NaN	349	6	34	1	121	221	321	NaN	521	5.16225941758603	1	1	NaN	4829461.6993914	NaN	4829462.6828216	4829463.19933148
42	19	0	0	90	36.1581920903955	36.241610738255	0	0	1	2	4	NaN	1	4	0.0424599998153977	1	1	NaN	350	6	35	1	111	211	311	NaN	511	0.318448022939265	1	1	NaN	4829469.3667369	NaN	4829470.35019	4829470.86676138
42	19	0	0	90	36.1581920903955	36.241610738255	14	0.466700360104442	2	2	3	NaN	1	3	0.0424599998153977	1	1	NaN	351	6	36	1	121	221	321	NaN	521	0.367352717556059	1	1	NaN	4829482.718145	NaN	4829483.7015396	4829484.21808288
42	19	0	0	90	36.1581920903955	36.241610738255	22	0.733386280164123	2	6	6	NaN	1	4	0.0424599998153977	1	1	NaN	352	6	37	1	121	221	321	NaN	521	0.357612565159798	1	1	NaN	4829489.3516953	NaN	4829490.3355095	4829490.85204413
42	19	0	0	90	36.1581920903955	36.241610738255	14	0.466700360104442	2	7	3	NaN	2	4	0.0424599998153977	1	1	NaN	353	6	38	1	121	221	321	NaN	521	0.239132617600262	1	0	NaN	4829494.3025686	NaN	4829495.2859848	4829495.80253438
42	19	0	0	90	36.1581920903955	36.241610738255	8	0.266685920059681	2	8	4	NaN	2	4	0.0424599998153977	1	1	NaN	354	6	39	1	121	221	321	NaN	521	0.0104316174983978	2	1	NaN	4829497.0528489	NaN	4829498.0362669	4829498.55280328
42	19	0	0	90	36.1581920903955	36.241610738255	22	0.733386280164123	2	4	1	NaN	1	3	0.0424599998153977	1	1	NaN	355	6	40	1	121	221	321	NaN	521	0.0104045700281858	1	1	NaN	4829499.3697482	NaN	4829500.3531377	4829500.86970043
42	19	0	0	90	36.1581920903955	36.241610738255	17	0.566707580126822	2	9	4	NaN	2	3	0.0424599998153977	1	1	NaN	356	6	41	1	121	221	321	NaN	521	0.0104349181056023	1	0	NaN	4829502.0200016	NaN	4829503.0034238	4829503.51995788
42	19	0	0	90	36.1581920903955	36.241610738255	25	0.833393500186503	2	11	6	NaN	2	3	0.0424599998153977	1	1	NaN	357	6	42	1	121	221	321	NaN	521	0.251054370775819	1	0	NaN	4829506.1705663	NaN	4829507.1538223	4829507.67037613
42	19	0	0	90	36.1581920903955	36.241610738255	24	0.800057760179043	2	12	1	NaN	2	3	0.0424599998153977	1	1	NaN	358	6	43	1	121	221	321	NaN	521	0.323979170061648	1	0	NaN	4829508.9373724	NaN	4829509.9207807	4829510.43730873
42	19	0	0	90	36.1581920903955	36.241610738255	25	0.833393500186503	2	12	5	NaN	2	3	0.0424599998153977	1	1	NaN	359	6	44	1	121	221	321	NaN	521	3.68845162261277	2	1	NaN	4829512.020979	NaN	4829513.0044084	4829513.52095348
42	19	0	0	90	36.1581920903955	36.241610738255	24	0.800057760179043	2	4	2	NaN	1	5	0.0424599998153977	1	1	NaN	360	6	45	1	121	221	321	NaN	521	0.0103996703401208	1	1	NaN	4829518.2049213	NaN	4829519.18833	4829519.70488783
42	19	0	0	90	36.1581920903955	36.241610738255	7	0.233350180052221	2	3	3	NaN	1	3	0.0424599998153977	1	1	NaN	361	6	46	1	121	221	321	NaN	521	0.010420017875731	1	1	NaN	4829521.6219317	NaN	4829522.6053476	4829523.12188518
42	19	0	0	90	36.1581920903955	36.241610738255	20	0.666714800149202	2	3	2	NaN	1	4	0.0424599998153977	1	1	NaN	362	6	47	1	121	221	321	NaN	521	0.0104053700342774	1	1	NaN	4829523.9388369	NaN	4829524.922242	4829525.43879213
42	19	0	0	90	36.1581920903955	36.241610738255	0	0	1	11	5	NaN	2	4	0.0424599998153977	1	1	NaN	363	6	48	1	111	211	311	NaN	511	0.0104223173111677	2	1	NaN	4829527.272506	NaN	4829528.2558933	4829528.77244458
42	19	0	0	90	36.1581920903955	36.241610738255	12	0.400028880089521	2	6	6	NaN	1	4	0.0424599998153977	1	1	NaN	364	6	49	1	121	221	321	NaN	521	0.209007617086172	1	1	NaN	4829530.3728094	NaN	4829531.3562122	4829531.87275288
42	19	0	0	90	36.1581920903955	36.241610738255	9	0.300021660067141	2	7	6	NaN	2	3	0.0424599998153977	1	1	NaN	365	6	50	1	121	221	321	NaN	521	0.222344070672989	2	1	NaN	4829534.0231447	NaN	4829535.0065635	4829535.52310793
42	19	0	0	90	36.1581920903955	36.241610738255	9	0.300021660067141	2	10	1	NaN	2	3	0.0424599998153977	1	1	NaN	366	6	51	1	121	221	321	NaN	521	0.101252170279622	2	1	NaN	4829537.0400993	NaN	4829538.0235331	4829538.54007153
42	19	0	0	90	36.1581920903955	36.241610738255	16	0.533371840119362	2	2	1	NaN	1	4	0.0424599998153977	1	1	NaN	367	6	52	1	121	221	321	NaN	521	0.0103955222293735	1	1	NaN	4829539.4569514	NaN	4829540.4404249	4829540.95698108
42	19	0	0	90	36.1581920903955	36.241610738255	13	0.433364620096982	2	8	1	NaN	2	4	0.0424599998153977	1	1	NaN	368	6	53	1	121	221	321	NaN	521	0.0104222698137164	2	1	NaN	4829541.9907273	NaN	4829542.9740174	4829543.49056073
42	19	0	0	90	36.1581920903955	36.241610738255	13	0.433364620096982	2	10	5	NaN	2	4	0.0424599998153977	1	1	NaN	369	6	54	1	121	221	321	NaN	521	0.310158837586641	2	1	NaN	4829546.9910831	NaN	4829547.9744988	4829548.49105706
42	19	0	0	90	36.1581920903955	36.241610738255	19	0.633379060141742	2	7	5	NaN	2	5	0.0424599998153977	1	1	NaN	370	6	55	1	121	221	321	NaN	521	0.265374874696136	2	1	NaN	4829549.7080086	NaN	4829550.6914464	4829551.20799382
42	19	0	0	90	36.1581920903955	36.241610738255	19	0.633379060141742	2	9	3	NaN	2	4	0.0424599998153977	1	1	NaN	371	6	56	1	121	221	321	NaN	521	0.0816849749535322	2	1	NaN	4829552.2916284	NaN	4829553.2750277	4829553.79157433
42	19	0	0	90	36.1581920903955	36.241610738255	6	0.200014440044761	2	12	5	NaN	2	5	0.0424599998153977	1	1	NaN	372	6	57	1	121	221	321	NaN	521	0.413906070403755	2	1	NaN	4829554.7918445	NaN	4829555.7753057	4829556.29182693
42	19	0	0	90	36.1581920903955	36.241610738255	14	0.466700360104442	2	10	3	NaN	2	5	0.0424599998153977	1	1	NaN	373	6	58	1	121	221	321	NaN	521	0.159957870841026	2	1	NaN	4829561.7259027	NaN	4829562.7092787	4829563.22583713
42	19	0	0	90	36.1581920903955	36.241610738255	11	0.366693140082061	2	9	5	NaN	2	3	0.0424599998153977	1	1	NaN	374	6	59	1	121	221	321	NaN	521	0.010409970767796	2	1	NaN	4829564.3426794	NaN	4829565.3262168	4829565.84275863
42	19	0	0	90	36.1581920903955	36.241610738255	7	0.233350180052221	2	2	2	NaN	1	4	0.0424599998153977	1	1	NaN	375	6	60	1	121	221	321	NaN	521	0.0104063702747226	1	1	NaN	4829568.8265612	NaN	4829569.8099999	4829570.32653823
42	19	0	0	90	36.1581920903955	36.241610738255	9	0.300021660067141	2	1	3	NaN	1	5	0.0424599998153977	1	1	NaN	376	6	61	1	121	221	321	NaN	521	0.34204617049545	2	0	NaN	4829571.1434701	NaN	4829572.1268844	4829572.64343043
42	19	0	0	90	36.1581920903955	36.241610738255	23	0.766722020171583	2	4	2	NaN	1	4	0.0424599998153977	1	1	NaN	377	6	62	1	121	221	321	NaN	521	0.42093117069453	1	1	NaN	4829573.9603963	NaN	4829574.9438137	4829575.46036753
42	19	0	0	90	36.1581920903955	36.241610738255	14	0.466700360104442	2	4	1	NaN	1	4	0.0424599998153977	1	1	NaN	378	6	63	1	121	221	321	NaN	521	0.0104086697101593	1	1	NaN	4829576.8602983	NaN	4829577.8441146	4829578.36066343
42	19	0	0	90	36.1581920903955	36.241610738255	24	0.800057760179043	2	2	4	NaN	1	4	0.0424599998153977	1	1	NaN	379	7	1	1	121	221	321	NaN	521	0.0104088708758354	1	1	NaN	4829665.7027436	NaN	4829666.686186	4829667.20272513
42	19	0	0	90	36.1581920903955	36.241610738255	23	0.766722020171583	2	3	2	NaN	1	4	0.0424599998153977	1	1	NaN	380	7	2	1	121	221	321	NaN	521	0.0104336170479655	1	1	NaN	4829668.0197058	NaN	4829669.0030689	4829669.51961628
42	19	0	0	90	36.1581920903955	36.241610738255	23	0.766722020171583	2	6	2	NaN	1	5	0.0424599998153977	1	1	NaN	381	7	3	1	121	221	321	NaN	521	0.460940470919013	1	1	NaN	4829670.3365715	NaN	4829671.3199669	4829671.83651863
42	19	0	0	90	36.1581920903955	36.241610738255	16	0.533371840119362	2	7	5	NaN	2	5	0.0424599998153977	1	1	NaN	382	7	4	1	121	221	321	NaN	521	0.261945016682148	2	1	NaN	4829673.3034043	NaN	4829674.2869207	4829674.80346728
42	19	0	0	90	36.1581920903955	36.241610738255	9	0.300021660067141	2	12	4	NaN	2	3	0.0424599998153977	1	1	NaN	383	7	5	1	121	221	321	NaN	521	0.0104083698242903	2	1	NaN	4829676.1704467	NaN	4829677.1538787	4829677.67042173
42	19	0	0	90	36.1581920903955	36.241610738255	17	0.566707580126822	2	4	6	NaN	1	3	0.0424599998153977	1	1	NaN	384	7	6	1	121	221	321	NaN	521	0.574271770194173	1	1	NaN	4829678.4873508	NaN	4829679.4707674	4829679.98731423
42	19	0	0	90	36.1581920903955	36.241610738255	15	0.500036100111902	2	11	4	NaN	2	3	0.0424599998153977	1	1	NaN	385	7	7	1	121	221	321	NaN	521	1.61101117078215	2	1	NaN	4829681.5709766	NaN	4829682.5544124	4829683.07095273
42	19	0	0	90	36.1581920903955	36.241610738255	14	0.466700360104442	2	5	5	NaN	1	4	0.0424599998153977	1	1	NaN	386	7	8	1	121	221	321	NaN	521	0.0103628281503916	1	1	NaN	4829687.5215618	NaN	4829688.5049826	4829689.02154377
42	19	0	0	90	36.1581920903955	36.241610738255	9	0.300021660067141	2	8	3	NaN	2	3	0.0424599998153977	1	1	NaN	387	7	9	1	121	221	321	NaN	521	0.407862870953977	2	1	NaN	4829700.4061854	NaN	4829701.3896005	4829701.90613183
42	19	0	0	90	36.1581920903955	36.241610738255	16	0.533371840119362	2	1	1	NaN	1	3	0.0424599998153977	1	1	NaN	388	7	10	1	121	221	321	NaN	521	0.455009317025542	1	1	NaN	4829704.4062737	NaN	4829705.3899889	4829705.90652348
42	19	0	0	90	36.1581920903955	36.241610738255	21	0.700050540156662	2	11	6	NaN	2	5	0.0424599998153977	1	1	NaN	389	7	11	1	121	221	321	NaN	521	0.0104282172396779	1	0	NaN	4829717.507895	NaN	4829718.491279	4829719.00781938
42	19	0	0	90	36.1581920903955	36.241610738255	22	0.733386280164123	2	7	2	NaN	2	4	0.0424599998153977	1	1	NaN	390	7	12	1	121	221	321	NaN	521	0.397353270091116	1	0	NaN	4829720.0246594	NaN	4829721.0082155	4829721.52473903
42	19	0	0	90	36.1581920903955	36.241610738255	0	0	1	6	6	NaN	1	4	0.0424599998153977	1	1	NaN	391	7	13	1	111	211	311	NaN	511	1.04289964213967	2	0	NaN	4829724.27518	NaN	4829725.2586058	4829725.77515016
42	19	0	0	90	36.1581920903955	36.241610738255	24	0.800057760179043	2	7	3	NaN	2	3	0.0424599998153977	1	1	NaN	392	7	14	1	121	221	321	NaN	521	0.291703817434609	2	1	NaN	4829727.6422027	NaN	4829728.6255801	4829729.14214398
42	19	0	0	90	36.1581920903955	36.241610738255	25	0.833393500186503	2	5	2	NaN	1	4	0.0424599998153977	1	1	NaN	393	7	15	1	121	221	321	NaN	521	0.010422870516777	1	1	NaN	4829730.2424561	NaN	4829731.2258307	4829731.74240513
42	19	0	0	90	36.1581920903955	36.241610738255	25	0.833393500186503	2	1	4	NaN	1	3	0.0424599998153977	1	1	NaN	394	7	16	1	121	221	321	NaN	521	1.63844192307442	1	1	NaN	4829732.5593538	NaN	4829733.5427493	4829734.05930468
42	19	0	0	90	36.1581920903955	36.241610738255	19	0.633379060141742	2	4	5	NaN	1	4	0.0424599998153977	1	1	NaN	395	7	17	1	121	221	321	NaN	521	0.0104071712121367	1	1	NaN	4829736.9430932	NaN	4829737.9265205	4829738.44306943
42	19	0	0	90	36.1581920903955	36.241610738255	16	0.533371840119362	2	3	1	NaN	1	4	0.0424599998153977	1	1	NaN	396	7	18	1	121	221	321	NaN	521	0.0103759746998549	1	1	NaN	4829739.460056	NaN	4829740.4434249	4829740.95998063
42	19	0	0	90	36.1581920903955	36.241610738255	25	0.833393500186503	2	7	4	NaN	2	5	0.0424599998153977	1	1	NaN	397	7	19	1	121	221	321	NaN	521	0.589030570350587	2	1	NaN	4829741.7767977	NaN	4829742.760331	4829743.27687263
42	19	0	0	90	36.1581920903955	36.241610738255	19	0.633379060141742	2	1	6	NaN	1	4	0.0424599998153977	1	1	NaN	398	7	20	1	121	221	321	NaN	521	0.526401271112263	1	1	NaN	4829746.7274069	NaN	4829747.7108212	4829748.22736043
42	19	0	0	90	36.1581920903955	36.241610738255	11	0.366693140082061	2	4	1	NaN	1	3	0.0424599998153977	1	1	NaN	399	7	21	1	121	221	321	NaN	521	0.341818665154278	1	1	NaN	4829749.7443408	NaN	4829750.7277828	4829751.24431913
42	19	0	0	90	36.1581920903955	36.241610738255	6	0.200014440044761	2	9	5	NaN	2	4	0.0424599998153977	1	1	NaN	400	7	22	1	121	221	321	NaN	521	3.52064391691238	2	1	NaN	4829752.6612929	NaN	4829753.6447123	4829754.16126958
42	19	0	0	90	36.1581920903955	36.241610738255	23	0.766722020171583	2	1	5	NaN	1	3	0.0424599998153977	1	1	NaN	401	7	23	1	121	221	321	NaN	521	0.641682918183506	1	1	NaN	4829761.8121797	NaN	4829762.7956309	4829763.31217528
42	19	0	0	90	36.1581920903955	36.241610738255	13	0.433364620096982	2	2	3	NaN	1	5	0.0424599998153977	1	1	NaN	402	7	24	1	121	221	321	NaN	521	0.403786670416594	1	1	NaN	4829764.9458501	NaN	4829765.9292795	4829766.44582873
42	19	0	0	90	36.1581920903955	36.241610738255	6	0.200014440044761	2	1	2	NaN	1	3	0.0424599998153977	1	1	NaN	403	7	25	1	121	221	321	NaN	521	1.63160737045109	1	1	NaN	4829767.8461376	NaN	4829768.8295594	4829769.34610973
42	19	0	0	90	36.1581920903955	36.241610738255	14	0.466700360104442	2	1	4	NaN	1	4	0.0424599998153977	1	1	NaN	404	7	26	1	121	221	321	NaN	521	0.685172770172358	1	1	NaN	4829776.280416	NaN	4829777.2637193	4829777.78026583
42	19	0	0	90	36.1581920903955	36.241610738255	7	0.233350180052221	2	11	3	NaN	2	4	0.0424599998153977	1	1	NaN	405	7	27	1	121	221	321	NaN	521	0.256567370146513	2	1	NaN	4829780.797426	NaN	4829781.7808051	4829782.29738303
42	19	0	0	90	36.1581920903955	36.241610738255	17	0.566707580126822	2	11	6	NaN	2	3	0.0424599998153977	1	1	NaN	406	7	28	1	121	221	321	NaN	521	0.321604470722377	2	1	NaN	4829783.3642471	NaN	4829784.3477475	4829784.86429463
42	19	0	0	90	36.1581920903955	36.241610738255	18	0.600043320134282	2	3	3	NaN	1	4	0.0424599998153977	1	1	NaN	407	7	29	1	121	221	321	NaN	521	0.280237690545619	1	1	NaN	4829786.197832	NaN	4829787.1813597	4829787.69792011
42	19	0	0	90	36.1581920903955	36.241610738255	15	0.500036100111902	2	4	2	NaN	1	5	0.0424599998153977	1	1	NaN	408	7	30	1	121	221	321	NaN	521	0.010405270382762	1	1	NaN	4829788.9815046	NaN	4829789.9649641	4829790.48152163
42	19	0	0	90	36.1581920903955	36.241610738255	24	0.800057760179043	2	11	2	NaN	2	4	0.0424599998153977	1	1	NaN	409	7	31	1	121	221	321	NaN	521	0.499992865137756	2	1	NaN	4829791.4816739	NaN	4829792.465217	4829792.98175273
42	19	0	0	90	36.1581920903955	36.241610738255	12	0.400028880089521	2	9	6	NaN	2	5	0.0424599998153977	1	1	NaN	410	7	32	1	121	221	321	NaN	521	0.396303817629814	2	1	NaN	4829794.6654664	NaN	4829795.6488688	4829796.16541048
42	19	0	0	90	36.1581920903955	36.241610738255	7	0.233350180052221	2	10	5	NaN	2	4	0.0424599998153977	1	1	NaN	411	7	33	1	121	221	321	NaN	521	0.249033870175481	2	1	NaN	4829797.5490561	NaN	4829798.5324818	4829799.04902353
42	19	0	0	90	36.1581920903955	36.241610738255	22	0.733386280164123	2	7	6	NaN	2	5	0.0424599998153977	1	1	NaN	412	7	34	1	121	221	321	NaN	521	0.0104071702808142	2	1	NaN	4829800.4325821	NaN	4829801.4160781	4829801.93264203
42	19	0	0	90	36.1581920903955	36.241610738255	15	0.500036100111902	2	5	4	NaN	1	5	0.0424599998153977	1	1	NaN	413	7	35	1	121	221	321	NaN	521	0.0104229180142283	1	1	NaN	4829802.7495962	NaN	4829803.7329988	4829804.24952878
42	19	0	0	90	36.1581920903955	36.241610738255	21	0.700050540156662	2	8	2	NaN	2	4	0.0424599998153977	1	1	NaN	414	7	36	1	121	221	321	NaN	521	0.284795717336237	2	1	NaN	4829807.2167025	NaN	4829808.2000882	4829808.71664058
42	19	0	0	90	36.1581920903955	36.241610738255	12	0.400028880089521	2	7	4	NaN	2	5	0.0424599998153977	1	1	NaN	415	7	37	1	121	221	321	NaN	521	0.397127017378807	2	1	NaN	4829809.8168302	NaN	4829810.8003798	4829811.31689108
42	19	0	0	90	36.1581920903955	36.241610738255	11	0.366693140082061	2	10	1	NaN	2	3	0.0424599998153977	1	1	NaN	416	7	38	1	121	221	321	NaN	521	0.104642670601606	2	1	NaN	4829812.7172182	NaN	4829813.700672	4829814.21718723
42	19	0	0	90	36.1581920903955	36.241610738255	6	0.200014440044761	2	11	1	NaN	2	3	0.0424599998153977	1	1	NaN	417	7	39	1	121	221	321	NaN	521	0.0104071702808142	2	1	NaN	4829815.1341269	NaN	4829816.1175406	4829816.63408773
42	19	0	0	90	36.1581920903955	36.241610738255	21	0.700050540156662	2	7	1	NaN	2	3	0.0424599998153977	1	1	NaN	418	7	40	1	121	221	321	NaN	521	0.650128770619631	2	1	NaN	4829817.8677565	NaN	4829818.8511517	4829819.36768623
42	19	0	0	90	36.1581920903955	36.241610738255	17	0.566707580126822	2	5	1	NaN	1	5	0.0424599998153977	1	1	NaN	419	7	41	1	121	221	321	NaN	521	0.0104050701484084	1	1	NaN	4829820.8346993	NaN	4829821.8181	4829822.33464703
42	19	0	0	90	36.1581920903955	36.241610738255	17	0.566707580126822	2	7	6	NaN	2	5	0.0424599998153977	1	1	NaN	420	7	42	1	121	221	321	NaN	521	0.0104241175577044	1	0	NaN	4829823.1682811	NaN	4829824.1515493	4829824.66820558
42	19	0	0	90	36.1581920903955	36.241610738255	9	0.300021660067141	2	2	3	NaN	1	3	0.0424599998153977	1	1	NaN	421	7	43	1	121	221	321	NaN	521	0.0247064707800746	1	1	NaN	4829825.4850276	NaN	4829826.4685631	4829826.98510653
42	19	0	0	90	36.1581920903955	36.241610738255	20	0.666714800149202	2	5	4	NaN	1	5	0.0424599998153977	1	1	NaN	422	7	44	1	121	221	321	NaN	521	0.0104364175349474	1	1	NaN	4829827.8187144	NaN	4829828.8021153	4829829.31866108
42	19	0	0	90	36.1581920903955	36.241610738255	19	0.633379060141742	2	11	2	NaN	2	3	0.0424599998153977	1	1	NaN	423	7	45	1	121	221	321	NaN	521	0.270637270063162	1	0	NaN	4829830.135612	NaN	4829831.1190185	4829831.63556333
42	19	0	0	90	36.1581920903955	36.241610738255	10	0.333357400074601	2	9	3	NaN	2	4	0.0424599998153977	1	1	NaN	424	7	46	1	121	221	321	NaN	521	0.0104194181039929	2	1	NaN	4829832.9191943	NaN	4829833.902617	4829834.41916428
42	19	0	0	90	36.1581920903955	36.241610738255	9	0.300021660067141	2	6	6	NaN	1	5	0.0424599998153977	1	1	NaN	425	7	47	1	121	221	321	NaN	521	0.306336370296776	1	1	NaN	4829835.4194379	NaN	4829836.4028777	4829836.91941983
42	19	0	0	90	36.1581920903955	36.241610738255	17	0.566707580126822	2	12	1	NaN	2	3	0.0424599998153977	1	1	NaN	426	7	48	1	121	221	321	NaN	521	0.105600071139634	2	1	NaN	4829838.0363931	NaN	4829839.0197776	4829839.53634183
42	19	0	0	90	36.1581920903955	36.241610738255	9	0.300021660067141	2	4	2	NaN	1	4	0.0424599998153977	1	1	NaN	427	7	49	1	121	221	321	NaN	521	0.0104233175516129	1	1	NaN	4829840.8533095	NaN	4829841.836746	4829842.35328428
42	19	0	0	90	36.1581920903955	36.241610738255	15	0.500036100111902	2	1	5	NaN	1	4	0.0424599998153977	1	1	NaN	428	7	50	1	121	221	321	NaN	521	0.0195043180137873	1	1	NaN	4829843.1701015	NaN	4829844.1536306	4829844.67017048
42	19	0	0	90	36.1581920903955	36.241610738255	16	0.533371840119362	2	1	6	NaN	1	4	0.0424599998153977	1	1	NaN	429	7	51	1	121	221	321	NaN	521	0.670425770804286	1	1	NaN	4829845.5037944	NaN	4829846.4872776	4829847.00373683
42	19	0	0	90	36.1581920903955	36.241610738255	21	0.700050540156662	2	4	3	NaN	1	3	0.0424599998153977	1	1	NaN	430	7	52	1	121	221	321	NaN	521	0.307134317234159	1	1	NaN	4829848.5707371	NaN	4829849.5541599	4829850.07070148
42	19	0	0	90	36.1581920903955	36.241610738255	20	0.666714800149202	2	6	2	NaN	1	4	0.0424599998153977	1	1	NaN	431	7	53	1	121	221	321	NaN	521	0.274136669933796	1	1	NaN	4829851.3877087	NaN	4829852.3711512	4829852.88765373
42	19	0	0	90	36.1581920903955	36.241610738255	6	0.200014440044761	2	3	4	NaN	1	5	0.0424599998153977	1	1	NaN	432	7	54	1	121	221	321	NaN	521	0.985892170108855	1	1	NaN	4829854.1878477	NaN	4829855.1714546	4829855.68792123
42	19	0	0	90	36.1581920903955	36.241610738255	19	0.633379060141742	2	6	1	NaN	1	5	0.0424599998153977	1	1	NaN	433	7	55	1	121	221	321	NaN	521	0.429941770620644	1	1	NaN	4829857.4881876	NaN	4829858.4717021	4829858.98825283
42	19	0	0	90	36.1581920903955	36.241610738255	13	0.433364620096982	2	4	5	NaN	1	4	0.0424599998153977	1	1	NaN	434	7	56	1	121	221	321	NaN	521	0.350588270463049	1	1	NaN	4829860.4552402	NaN	4829861.4386968	4829861.95520423
42	19	0	0	90	36.1581920903955	36.241610738255	0	0	1	5	6	NaN	1	3	0.0424599998153977	1	1	NaN	435	7	57	1	111	211	311	NaN	511	0.282525870017707	1	1	NaN	4829863.3554103	NaN	4829864.3389544	4829864.85549053
42	19	0	0	90	36.1581920903955	36.241610738255	13	0.433364620096982	2	4	1	NaN	1	4	0.0424599998153977	1	1	NaN	436	7	58	1	121	221	321	NaN	521	0.599252889864147	1	1	NaN	4829877.6068315	NaN	4829878.5903539	4829879.10690551
42	19	0	0	90	36.1581920903955	36.241610738255	12	0.400028880089521	2	11	2	NaN	2	4	0.0424599998153977	1	1	NaN	437	7	59	1	121	221	321	NaN	521	0.505978970788419	2	1	NaN	4829880.5239303	NaN	4829881.5073089	4829882.02384783
42	19	0	0	90	36.1581920903955	36.241610738255	20	0.666714800149202	2	9	3	NaN	2	5	0.0424599998153977	1	1	NaN	438	7	60	1	121	221	321	NaN	521	0.366460370831192	2	1	NaN	4829883.4075275	NaN	4829884.3909259	4829884.90746423
42	19	0	0	90	36.1581920903955	36.241610738255	0	0	1	2	1	NaN	1	4	0.0424599998153977	1	1	NaN	439	7	61	1	111	211	311	NaN	511	0.0104238707572222	1	1	NaN	4829886.2744471	NaN	4829887.2578437	4829887.77441203
42	19	0	0	90	36.1581920903955	36.241610738255	7	0.233350180052221	2	7	5	NaN	2	3	0.0424599998153977	1	1	NaN	440	7	62	1	121	221	321	NaN	521	0.0526316650211811	1	0	NaN	4829888.8413584	NaN	4829889.8247869	4829890.34132753
42	19	0	0	90	36.1581920903955	36.241610738255	19	0.633379060141742	2	11	2	NaN	2	3	0.0424599998153977	1	1	NaN	441	7	63	1	121	221	321	NaN	521	0.181967217475176	2	1	NaN	4829891.2081556	NaN	4829892.1916825	4829892.70823198
42	19	0	0	90	36.1581920903955	36.241610738255	19	0.633379060141742	2	1	6	NaN	1	4	0.0424599998153977	1	1	NaN	442	8	1	1	121	221	321	NaN	521	1.74083007033914	1	1	NaN	4829934.5292318	NaN	4829935.5126075	4829936.02916203
42	19	0	0	90	36.1581920903955	36.241610738255	22	0.733386280164123	2	2	6	NaN	1	5	0.0424599998153977	1	1	NaN	443	8	2	1	121	221	321	NaN	521	0.0104075707495213	1	1	NaN	4829938.7629387	NaN	4829939.7463738	4829940.26290933
42	19	0	0	90	36.1581920903955	36.241610738255	12	0.400028880089521	2	9	4	NaN	2	4	0.0424599998153977	1	1	NaN	444	8	3	1	121	221	321	NaN	521	5.51847151760012	2	1	NaN	4829941.0798718	NaN	4829942.0632499	4829942.57979688
42	19	0	0	90	36.1581920903955	36.241610738255	19	0.633379060141742	2	12	4	NaN	2	5	0.0424599998153977	1	1	NaN	445	8	4	1	121	221	321	NaN	521	0.0803283173590899	2	1	NaN	4829950.9974715	NaN	4829951.9809027	4829952.49744528
42	19	0	0	90	36.1581920903955	36.241610738255	14	0.466700360104442	2	6	6	NaN	1	4	0.0424599998153977	1	1	NaN	446	8	5	1	121	221	321	NaN	521	0.313329617492855	1	1	NaN	4829953.3810893	NaN	4829954.3644548	4829954.88100578
42	19	0	0	90	36.1581920903955	36.241610738255	0	0	1	4	5	NaN	1	3	0.0424599998153977	1	1	NaN	447	8	6	1	111	211	311	NaN	511	0.0103013906627893	1	1	NaN	4829956.7481351	NaN	4829957.7314696	4829958.24801081
42	19	0	0	90	36.1581920903955	36.241610738255	9	0.300021660067141	2	12	2	NaN	2	4	0.0424599998153977	1	1	NaN	448	8	7	1	121	221	321	NaN	521	0.010405670851469	1	0	NaN	4829962.2819228	NaN	4829963.2653351	4829963.78189153
42	19	0	0	90	36.1581920903955	36.241610738255	10	0.333357400074601	2	7	4	NaN	2	3	0.0424599998153977	1	1	NaN	449	8	8	1	121	221	321	NaN	521	0.0150805711746216	2	1	NaN	4829964.5987061	NaN	4829965.5822395	4829966.09878063
42	19	0	0	90	36.1581920903955	36.241610738255	0	0	1	4	2	NaN	1	4	0.0424599998153977	1	1	NaN	450	8	9	1	111	211	311	NaN	511	0.0104068703949451	1	1	NaN	4829966.9324033	NaN	4829967.9157957	4829968.43234923
42	19	0	0	90	36.1581920903955	36.241610738255	9	0.300021660067141	2	4	3	NaN	1	4	0.0424599998153977	1	1	NaN	451	8	10	1	121	221	321	NaN	521	0.0104337176308036	1	1	NaN	4829971.732844	NaN	4829972.7162726	4829973.23282298
42	19	0	0	90	36.1581920903955	36.241610738255	0	0	1	12	2	NaN	2	4	0.0424599998153977	1	1	NaN	452	8	11	1	111	211	311	NaN	511	0.891976770013571	2	1	NaN	4829974.0497654	NaN	4829975.0331621	4829975.54971593
42	19	0	0	90	36.1581920903955	36.241610738255	15	0.500036100111902	2	5	2	NaN	1	3	0.0424599998153977	1	1	NaN	453	8	12	1	121	221	321	NaN	521	0.318259817548096	1	1	NaN	4829977.6002696	NaN	4829978.5835141	4829979.10006978
42	19	0	0	90	36.1581920903955	36.241610738255	7	0.233350180052221	2	2	6	NaN	1	3	0.0424599998153977	1	1	NaN	454	8	13	1	121	221	321	NaN	521	0.0175662180408835	1	1	NaN	4829981.3004615	NaN	4829982.2838819	4829982.80041978
42	19	0	0	90	36.1581920903955	36.241610738255	18	0.600043320134282	2	12	1	NaN	2	4	0.0424599998153977	1	1	NaN	455	8	14	1	121	221	321	NaN	521	0.998283117078245	1	0	NaN	4829984.1840927	NaN	4829985.1675562	4829985.68404248
42	19	0	0	90	36.1581920903955	36.241610738255	25	0.833393500186503	2	9	1	NaN	2	4	0.0424599998153977	1	1	NaN	456	8	15	1	121	221	321	NaN	521	0.0104109700769186	1	0	NaN	4829987.5010874	NaN	4829988.4844868	4829989.00103503
42	19	0	0	90	36.1581920903955	36.241610738255	6	0.200014440044761	2	5	3	NaN	1	3	0.0424599998153977	1	1	NaN	457	8	16	1	121	221	321	NaN	521	0.010409570299089	1	1	NaN	4829989.8179842	NaN	4829990.8013878	4829991.31793043
