subjno	age	gender	isPractice	viewdist	CmToPixX	CmToPixY	SOA_frm	SOA_time	targNum	targID	targExample	targRace	targGender	firstTargPos	contrast	familiarity	curr_staircase	iStair	TrialNum	BlockNum	blktrl	sessionNum	TC_FIXATION	TC_RSVP_START	TC_RSVP_END	TC_BLANK	TC_RESPONSE_ONSET	RT2afc	resp_2afc	acc	RSVPOnsetVBL	RSVPOnsetTime	RSVPOffsetVBL	RSVPOffsetTime	startrt_2afc
99	21	0	0	90	36.1581920903955	36.241610738255	6	0.200013456009328	2	7	1	NaN	2	3	0.0741725096291569	0	1	NaN	1	1	1	1	120	220	320	NaN	520	0.639216726645827	2	1	NaN	3717419.2262179	NaN	3717420.209442	3717420.74257637
99	21	0	0	90	36.1581920903955	36.241610738255	8	0.266684608012438	2	4	4	NaN	1	3	0.0741725096291569	0	1	NaN	2	1	2	1	120	220	320	NaN	520	0.524022426921874	2	0	NaN	3717422.4930768	NaN	3717423.4763969	3717424.00956387
99	21	0	0	90	36.1581920903955	36.241610738255	19	0.63337594402954	2	4	4	NaN	1	4	0.0741725096291569	0	1	NaN	3	1	3	1	120	220	320	NaN	520	0.585462811402977	2	0	NaN	3717425.7598988	NaN	3717426.7433184	3717427.25986869
99	21	0	0	90	36.1581920903955	36.241610738255	19	0.63337594402954	2	4	1	NaN	1	4	0.0741725096291569	0	1	NaN	4	1	4	1	120	220	320	NaN	520	0.933532921597362	2	0	NaN	3717429.0602606	NaN	3717430.0436453	3717430.56020398
99	21	0	0	90	36.1581920903955	36.241610738255	0	0	1	4	1	NaN	1	5	0.0741725096291569	0	1	NaN	5	1	5	1	110	210	310	NaN	510	0.586801969446242	1	1	NaN	3717432.3105601	NaN	3717433.2940163	3717433.81052703
99	21	0	0	90	36.1581920903955	36.241610738255	0	0	1	11	1	NaN	2	5	0.0741725096291569	0	1	NaN	6	1	6	1	110	210	310	NaN	510	0.802053621970117	2	1	NaN	3717435.3274092	NaN	3717436.3109276	3717436.82748528
99	21	0	0	90	36.1581920903955	36.241610738255	14	0.466698064021766	2	12	2	NaN	2	4	0.0741725096291569	0	1	NaN	7	1	7	1	120	220	320	NaN	520	0.300355569459498	1	0	NaN	3717438.4611799	NaN	3717439.4445433	3717439.96112903
99	21	0	0	90	36.1581920903955	36.241610738255	19	0.63337594402954	2	1	1	NaN	1	4	0.0741725096291569	0	1	NaN	8	1	8	1	120	220	320	NaN	520	0.525187769439071	2	0	NaN	3717441.4280322	NaN	3717442.4115728	3717442.92809043
99	21	0	0	90	36.1581920903955	36.241610738255	11	0.366691336017102	2	6	1	NaN	1	3	0.0741725096291569	0	1	NaN	9	1	9	1	120	220	320	NaN	520	0.481624521315098	1	1	NaN	3717444.7117569	NaN	3717445.6951873	3717446.21174728
99	21	0	0	90	36.1581920903955	36.241610738255	20	0.666711520031095	2	1	4	NaN	1	3	0.0741725096291569	0	1	NaN	10	1	10	1	120	220	320	NaN	520	0.018980969209224	2	0	NaN	3717447.8619804	NaN	3717448.8454967	3717449.36204623
99	21	0	0	90	36.1581920903955	36.241610738255	13	0.433362488020211	2	5	2	NaN	1	4	0.0741725096291569	0	1	NaN	11	1	11	1	120	220	320	NaN	520	0.285772421397269	2	0	NaN	3717450.5958012	NaN	3717451.5791009	3717452.09565298
99	21	0	0	90	36.1581920903955	36.241610738255	15	0.500033640023321	2	12	3	NaN	2	3	0.0741725096291569	0	1	NaN	12	1	12	1	120	220	320	NaN	520	0.213126421440393	2	1	NaN	3717453.6126581	NaN	3717454.5960569	3717455.11261958
99	21	0	0	90	36.1581920903955	36.241610738255	8	0.266684608012438	2	7	1	NaN	2	4	0.0741725096291569	0	1	NaN	13	1	13	1	120	220	320	NaN	520	0.30982322152704	2	1	NaN	3717456.5796358	NaN	3717457.5630087	3717458.07957858
99	21	0	0	90	36.1581920903955	36.241610738255	25	0.833389400038868	2	6	3	NaN	1	4	0.0741725096291569	0	1	NaN	14	1	14	1	120	220	320	NaN	520	0.16367201693356	1	1	NaN	3717459.629916	NaN	3717460.6133171	3717461.12987818
99	21	0	0	90	36.1581920903955	36.241610738255	6	0.200013456009328	2	5	4	NaN	1	3	0.0741725096291569	0	1	NaN	15	1	15	1	120	220	320	NaN	520	0.0104058696888387	2	0	NaN	3717462.56357	NaN	3717463.5469434	3717464.06350033
99	21	0	0	90	36.1581920903955	36.241610738255	10	0.333355760015547	2	8	3	NaN	2	5	0.0741725096291569	0	1	NaN	16	1	16	1	120	220	320	NaN	520	0.361617769114673	2	1	NaN	3717465.2633998	NaN	3717466.2471085	3717466.76375443
99	21	0	0	90	36.1581920903955	36.241610738255	10	0.333355760015547	2	6	1	NaN	1	3	0.0741725096291569	0	1	NaN	17	1	17	1	120	220	320	NaN	520	0.334326069336385	1	1	NaN	3717467.9474401	NaN	3717468.9307936	3717469.44735543
99	21	0	0	90	36.1581920903955	36.241610738255	14	0.466698064021766	2	2	3	NaN	1	3	0.0741725096291569	0	1	NaN	18	1	18	1	120	220	320	NaN	520	0.451728121843189	2	0	NaN	3717470.5976863	NaN	3717471.5810629	3717472.09761848
99	21	0	0	90	36.1581920903955	36.241610738255	20	0.666711520031095	2	7	2	NaN	2	3	0.0741725096291569	0	1	NaN	19	1	19	1	120	220	320	NaN	520	0.406484174076468	2	1	NaN	3717473.731274	NaN	3717474.714737	3717475.23125913
99	21	0	0	90	36.1581920903955	36.241610738255	18	0.600040368027985	2	7	5	NaN	2	4	0.0741725096291569	0	1	NaN	20	1	20	1	120	220	320	NaN	520	0.309942821972072	2	1	NaN	3717476.9315078	NaN	3717477.9150356	3717478.43157598
99	21	0	0	90	36.1581920903955	36.241610738255	12	0.400026912018657	2	10	1	NaN	2	5	0.0741725096291569	0	1	NaN	21	1	21	1	120	220	320	NaN	520	0.0103933215141296	2	1	NaN	3717479.9652479	NaN	3717480.9486458	3717481.46522728
99	21	0	0	90	36.1581920903955	36.241610738255	16	0.533369216024876	2	5	1	NaN	1	5	0.0741725096291569	0	1	NaN	22	1	22	1	120	220	320	NaN	520	0.408666069619358	2	0	NaN	3717482.6487416	NaN	3717483.6322456	3717484.14879663
99	21	0	0	90	36.1581920903955	36.241610738255	17	0.56670479202643	2	1	5	NaN	1	4	0.0741725096291569	0	1	NaN	23	1	23	1	120	220	320	NaN	520	0.171081421431154	2	0	NaN	3717485.3824559	NaN	3717486.3658318	3717486.88241938
99	21	0	0	90	36.1581920903955	36.241610738255	20	0.666711520031095	2	8	1	NaN	2	5	0.0741725096291569	0	1	NaN	24	1	24	1	120	220	320	NaN	520	0.423542321659625	1	0	NaN	3717487.8661217	NaN	3717488.8494173	3717489.36598308
99	21	0	0	90	36.1581920903955	36.241610738255	7	0.233349032010883	2	11	2	NaN	2	5	0.0741725096291569	0	1	NaN	25	1	25	1	120	220	320	NaN	520	0.330980289727449	2	1	NaN	3717490.9663124	NaN	3717491.9497075	3717492.46628771
99	21	0	0	90	36.1581920903955	36.241610738255	8	0.266684608012438	2	9	2	NaN	2	3	0.0741725096291569	0	1	NaN	26	1	26	1	120	220	320	NaN	520	0.505668869242072	1	0	NaN	3717493.9999703	NaN	3717494.9833582	3717495.49992123
99	21	0	0	90	36.1581920903955	36.241610738255	21	0.700047096032649	2	9	1	NaN	2	5	0.0741725096291569	0	1	NaN	27	1	27	1	120	220	320	NaN	520	1.71989957941696	2	1	NaN	3717496.8335706	NaN	3717497.8169717	3717498.33352572
99	21	0	0	90	36.1581920903955	36.241610738255	10	0.333355760015547	2	11	1	NaN	2	4	0.0741725096291569	0	1	NaN	28	1	28	1	120	220	320	NaN	520	0.499602821655571	2	1	NaN	3717501.1339706	NaN	3717502.1174209	3717502.63395938
99	21	0	0	90	36.1581920903955	36.241610738255	17	0.56670479202643	2	7	4	NaN	2	4	0.0741725096291569	0	1	NaN	29	1	29	1	120	220	320	NaN	520	2.20250671682879	2	1	NaN	3717503.9509679	NaN	3717504.93424	3717505.45089818
99	21	0	0	90	36.1581920903955	36.241610738255	20	0.666711520031095	2	2	5	NaN	1	3	0.0741725096291569	0	1	NaN	30	1	30	1	120	220	320	NaN	520	2.61345336958766	2	0	NaN	3717508.4680674	NaN	3717509.4514706	3717509.96800133
99	21	0	0	90	36.1581920903955	36.241610738255	18	0.600040368027985	2	11	5	NaN	2	4	0.0741725096291569	0	1	NaN	31	1	31	1	120	220	320	NaN	520	0.447644469328225	2	1	NaN	3717513.4018807	NaN	3717514.3852644	3717514.90181883
99	21	0	0	90	36.1581920903955	36.241610738255	9	0.300020184013993	2	3	2	NaN	1	5	0.0741725096291569	0	1	NaN	32	1	32	1	120	220	320	NaN	520	2.37691982137039	1	1	NaN	3717516.1688142	NaN	3717517.1521922	3717517.66877238
99	21	0	0	90	36.1581920903955	36.241610738255	21	0.700047096032649	2	9	1	NaN	2	3	0.0741725096291569	0	1	NaN	33	1	33	1	120	220	320	NaN	520	1.46181112201884	1	0	NaN	3717521.2360036	NaN	3717522.219396	3717522.73593478
99	21	0	0	90	36.1581920903955	36.241610738255	25	0.833389400038868	2	10	1	NaN	2	4	0.0741725096291569	0	1	NaN	34	1	34	1	120	220	320	NaN	520	0.589965042192489	2	1	NaN	3717525.0196699	NaN	3717526.0030774	3717526.51963966
99	21	0	0	90	36.1581920903955	36.241610738255	0	0	1	2	3	NaN	1	3	0.0741725096291569	0	1	NaN	35	1	35	1	110	210	310	NaN	510	1.30279582133517	1	1	NaN	3717528.1866411	NaN	3717529.1700828	3717529.68660978
99	21	0	0	90	36.1581920903955	36.241610738255	7	0.233349032010883	2	8	2	NaN	2	3	0.0741725096291569	0	1	NaN	36	1	36	1	120	220	320	NaN	520	2.13758756918833	2	1	NaN	3717532.3036964	NaN	3717533.2871272	3717533.80367723
99	21	0	0	90	36.1581920903955	36.241610738255	23	0.766718248035759	2	4	5	NaN	1	3	0.0741725096291569	0	1	NaN	37	1	37	1	120	220	320	NaN	520	0.982923421543092	2	0	NaN	3717536.770823	NaN	3717537.7542337	3717538.27079068
99	21	0	0	90	36.1581920903955	36.241610738255	6	0.200013456009328	2	2	5	NaN	1	5	0.0741725096291569	0	1	NaN	38	1	38	1	120	220	320	NaN	520	0.419040221720934	2	0	NaN	3717540.0544852	NaN	3717541.0378967	3717541.55444838
99	21	0	0	90	36.1581920903955	36.241610738255	21	0.700047096032649	2	2	1	NaN	1	4	0.0741725096291569	0	1	NaN	39	1	39	1	120	220	320	NaN	520	0.405497142113745	2	0	NaN	3717542.7882033	NaN	3717543.7714985	3717544.28806036
99	21	0	0	90	36.1581920903955	36.241610738255	19	0.63337594402954	2	2	4	NaN	1	5	0.0741725096291569	0	1	NaN	40	1	40	1	120	220	320	NaN	520	1.09664516942576	2	0	NaN	3717545.5050377	NaN	3717546.4884225	3717547.00498613
99	21	0	0	90	36.1581920903955	36.241610738255	13	0.433362488020211	2	10	4	NaN	2	4	0.0741725096291569	0	1	NaN	41	1	41	1	120	220	320	NaN	520	0.350162769202143	2	1	NaN	3717549.3553403	NaN	3717550.3387997	3717550.85536593
99	21	0	0	90	36.1581920903955	36.241610738255	20	0.666711520031095	2	10	2	NaN	2	3	0.0741725096291569	0	1	NaN	42	1	42	1	120	220	320	NaN	520	0.307125421706587	1	0	NaN	3717552.022361	NaN	3717553.0057412	3717553.52229368
99	21	0	0	90	36.1581920903955	36.241610738255	17	0.56670479202643	2	9	3	NaN	2	3	0.0741725096291569	0	1	NaN	43	1	43	1	120	220	320	NaN	520	0.313640921842307	2	1	NaN	3717555.0559843	NaN	3717556.0393751	3717556.55591368
99	21	0	0	90	36.1581920903955	36.241610738255	12	0.400026912018657	2	2	4	NaN	1	3	0.0741725096291569	0	1	NaN	44	1	44	1	120	220	320	NaN	520	0.24025012133643	1	1	NaN	3717558.0895675	NaN	3717559.0730028	3717559.58955728
99	21	0	0	90	36.1581920903955	36.241610738255	11	0.366691336017102	2	2	6	NaN	1	5	0.0741725096291569	0	1	NaN	45	1	45	1	120	220	320	NaN	520	0.476011969149113	2	0	NaN	3717560.9897649	NaN	3717561.9732887	3717562.48983363
99	21	0	0	90	36.1581920903955	36.241610738255	16	0.533369216024876	2	7	3	NaN	2	5	0.0741725096291569	0	1	NaN	46	1	46	1	120	220	320	NaN	520	3.48368448484689	2	1	NaN	3717563.7901433	NaN	3717564.773567	3717565.29012152
99	21	0	0	90	36.1581920903955	36.241610738255	22	0.733382672034204	2	4	2	NaN	1	3	0.0741725096291569	0	1	NaN	47	1	47	1	120	220	320	NaN	520	0.458542521577328	1	1	NaN	3717569.5906077	NaN	3717570.5741252	3717571.09068468
99	21	0	0	90	36.1581920903955	36.241610738255	23	0.766718248035759	2	2	5	NaN	1	3	0.0741725096291569	0	1	NaN	48	1	48	1	120	220	320	NaN	520	2.1318725165911	1	1	NaN	3717572.357554	NaN	3717573.3410712	3717573.85762248
99	21	0	0	90	36.1581920903955	36.241610738255	0	0	1	12	3	NaN	2	3	0.0741725096291569	0	1	NaN	49	1	49	1	110	210	310	NaN	510	0.633535421919078	2	1	NaN	3717576.808118	NaN	3717577.791509	3717578.30805268
99	21	0	0	90	36.1581920903955	36.241610738255	20	0.666711520031095	2	4	6	NaN	1	4	0.0741725096291569	0	1	NaN	50	1	50	1	120	220	320	NaN	520	0.357820669654757	2	0	NaN	3717580.2917576	NaN	3717581.2752125	3717581.79172953
99	21	0	0	90	36.1581920903955	36.241610738255	0	0	1	6	5	NaN	1	3	0.0741725096291569	0	1	NaN	51	1	51	1	110	210	310	NaN	510	0.914526621811092	1	1	NaN	3717582.9587124	NaN	3717583.9421056	3717584.45866418
99	21	0	0	90	36.1581920903955	36.241610738255	9	0.300020184013993	2	1	4	NaN	1	5	0.0741725096291569	0	1	NaN	52	1	52	1	120	220	320	NaN	520	5.25752077950165	2	0	NaN	3717586.1923655	NaN	3717587.1757675	3717587.69231412
99	21	0	0	90	36.1581920903955	36.241610738255	17	0.56670479202643	2	5	1	NaN	1	4	0.0741725096291569	0	1	NaN	53	1	53	1	120	220	320	NaN	520	1.07408102182671	2	0	NaN	3717593.7597615	NaN	3717594.7431654	3717595.25972448
99	21	0	0	90	36.1581920903955	36.241610738255	21	0.700047096032649	2	10	3	NaN	2	3	0.0741725096291569	0	1	NaN	54	1	54	1	120	220	320	NaN	520	0.314425521530211	2	1	NaN	3717597.1433242	NaN	3717598.1268398	3717598.64339518
99	21	0	0	90	36.1581920903955	36.241610738255	6	0.200013456009328	2	3	2	NaN	1	4	0.0741725096291569	0	1	NaN	55	1	55	1	120	220	320	NaN	520	2.3444626792334	1	1	NaN	3717599.7770158	NaN	3717600.7604648	3717601.27698082
99	21	0	0	90	36.1581920903955	36.241610738255	24	0.800053824037313	2	5	5	NaN	1	3	0.0741725096291569	0	1	NaN	56	1	56	1	120	220	320	NaN	520	0.356794369406998	2	0	NaN	3717604.4607921	NaN	3717605.4442166	3717605.96077533
99	21	0	0	90	36.1581920903955	36.241610738255	22	0.733382672034204	2	12	1	NaN	2	5	0.0741725096291569	0	1	NaN	57	1	57	1	120	220	320	NaN	520	0.793184769339859	1	0	NaN	3717607.5444211	NaN	3717608.5278637	3717609.04442003
99	21	0	0	90	36.1581920903955	36.241610738255	8	0.266684608012438	2	8	3	NaN	2	3	0.0741725096291569	0	1	NaN	58	1	58	1	120	220	320	NaN	520	0.404107221867889	2	1	NaN	3717610.66143	NaN	3717611.6448395	3717612.16138778
99	21	0	0	90	36.1581920903955	36.241610738255	24	0.800053824037313	2	8	4	NaN	2	4	0.0741725096291569	0	1	NaN	59	1	59	1	120	220	320	NaN	520	0.41730842133984	1	0	NaN	3717613.7283737	NaN	3717614.7117965	3717615.22835508
99	21	0	0	90	36.1581920903955	36.241610738255	21	0.700047096032649	2	12	5	NaN	2	3	0.0741725096291569	0	1	NaN	60	1	60	1	120	220	320	NaN	520	1.53146681701764	2	1	NaN	3717616.4620487	NaN	3717617.4453972	3717617.96196218
99	21	0	0	90	36.1581920903955	36.241610738255	6	0.200013456009328	2	8	6	NaN	2	3	0.0741725096291569	0	1	NaN	61	1	61	1	120	220	320	NaN	520	0.545548969414085	2	1	NaN	3717620.3122909	NaN	3717621.2956954	3717621.81233883
99	21	0	0	90	36.1581920903955	36.241610738255	10	0.333355760015547	2	7	3	NaN	2	4	0.0741725096291569	0	1	NaN	62	1	62	1	120	220	320	NaN	520	0.166268917266279	2	1	NaN	3717623.1793218	NaN	3717624.1627147	3717624.67927828
99	21	0	0	90	36.1581920903955	36.241610738255	0	0	1	1	1	NaN	1	3	0.0741725096291569	0	1	NaN	63	1	63	1	110	210	310	NaN	510	0.0990951214917004	1	1	NaN	3717625.6628998	NaN	3717626.646301	3717627.16286138
99	21	0	0	90	36.1581920903955	36.241610738255	6	0.200013456009328	2	12	4	NaN	2	5	0.0741725096291569	0	1	NaN	64	2	1	1	120	220	320	NaN	520	0.872132521588355	2	1	NaN	3717658.8494457	NaN	3717659.8328996	3717660.34945898
99	21	0	0	90	36.1581920903955	36.241610738255	8	0.266684608012438	2	5	5	NaN	1	4	0.0741725096291569	0	1	NaN	65	2	2	1	120	220	320	NaN	520	0.488627442158759	2	0	NaN	3717662.4332042	NaN	3717663.416586	3717663.93315456
99	21	0	0	90	36.1581920903955	36.241610738255	15	0.500033640023321	2	5	1	NaN	1	5	0.0741725096291569	0	1	NaN	66	2	3	1	120	220	320	NaN	520	0.336334094870836	2	0	NaN	3717665.2334692	NaN	3717666.216859	3717666.73342201
99	21	0	0	90	36.1581920903955	36.241610738255	15	0.500033640023321	2	11	3	NaN	2	5	0.0741725096291569	0	1	NaN	67	2	4	1	120	220	320	NaN	520	0.598099721595645	2	1	NaN	3717667.8837146	NaN	3717668.8671312	3717669.38368048
99	21	0	0	90	36.1581920903955	36.241610738255	15	0.500033640023321	2	11	6	NaN	2	5	0.0741725096291569	0	1	NaN	68	2	5	1	120	220	320	NaN	520	0.305238917004317	2	1	NaN	3717670.8005499	NaN	3717671.7840915	3717672.30062468
99	21	0	0	90	36.1581920903955	36.241610738255	15	0.500033640023321	2	5	1	NaN	1	4	0.0741725096291569	0	1	NaN	69	2	6	1	120	220	320	NaN	520	0.0484064696356654	2	0	NaN	3717673.8009481	NaN	3717674.7843844	3717675.30092023
99	21	0	0	90	36.1581920903955	36.241610738255	20	0.666711520031095	2	8	3	NaN	2	3	0.0741725096291569	0	1	NaN	70	2	7	1	120	220	320	NaN	520	0.234513021539897	2	1	NaN	3717676.5512485	NaN	3717677.5346411	3717678.05119938
99	21	0	0	90	36.1581920903955	36.241610738255	25	0.833389400038868	2	3	6	NaN	1	4	0.0741725096291569	0	1	NaN	71	2	8	1	120	220	320	NaN	520	0.757485121954232	2	0	NaN	3717679.4681652	NaN	3717680.4515869	3717680.96815118
99	21	0	0	90	36.1581920903955	36.241610738255	11	0.366691336017102	2	3	4	NaN	1	5	0.0741725096291569	0	1	NaN	72	2	9	1	120	220	320	NaN	520	0.635906421579421	1	1	NaN	3717682.901852	NaN	3717683.8852706	3717684.40181918
99	21	0	0	90	36.1581920903955	36.241610738255	7	0.233349032010883	2	9	4	NaN	2	5	0.0741725096291569	0	1	NaN	73	2	10	1	120	220	320	NaN	520	0.165517116896808	1	0	NaN	3717686.2521782	NaN	3717687.2355993	3717687.75214308
99	21	0	0	90	36.1581920903955	36.241610738255	12	0.400026912018657	2	10	5	NaN	2	3	0.0741725096291569	0	1	NaN	74	2	11	1	120	220	320	NaN	520	0.361988794989884	1	0	NaN	3717688.7357629	NaN	3717689.7191673	3717690.23573491
99	21	0	0	90	36.1581920903955	36.241610738255	22	0.733382672034204	2	7	3	NaN	2	5	0.0741725096291569	0	1	NaN	75	2	12	1	120	220	320	NaN	520	0.279952969402075	2	1	NaN	3717691.7860716	NaN	3717692.769475	3717693.28602573
99	21	0	0	90	36.1581920903955	36.241610738255	14	0.466698064021766	2	7	6	NaN	2	5	0.0741725096291569	0	1	NaN	76	2	13	1	120	220	320	NaN	520	0.136203121393919	2	1	NaN	3717694.7696746	NaN	3717695.7531306	3717696.26965218
99	21	0	0	90	36.1581920903955	36.241610738255	22	0.733382672034204	2	6	6	NaN	1	4	0.0741725096291569	0	1	NaN	77	2	14	1	120	220	320	NaN	520	0.589849590323865	1	1	NaN	3717697.2198363	NaN	3717698.2033318	3717698.71989611
99	21	0	0	90	36.1581920903955	36.241610738255	21	0.700047096032649	2	12	5	NaN	2	5	0.0741725096291569	0	1	NaN	78	2	15	1	120	220	320	NaN	520	0.577653521671891	2	1	NaN	3717700.1201642	NaN	3717701.1036024	3717701.62017968
99	21	0	0	90	36.1581920903955	36.241610738255	9	0.300020184013993	2	3	6	NaN	1	5	0.0741725096291569	0	1	NaN	79	2	16	1	120	220	320	NaN	520	0.75002271682024	2	0	NaN	3717703.0038552	NaN	3717703.9872354	3717704.50380008
99	21	0	0	90	36.1581920903955	36.241610738255	7	0.233349032010883	2	3	5	NaN	1	3	0.0741725096291569	0	1	NaN	80	2	17	1	120	220	320	NaN	520	0.131077121477574	2	0	NaN	3717706.0708143	NaN	3717707.0542622	3717707.57077098
99	21	0	0	90	36.1581920903955	36.241610738255	15	0.500033640023321	2	3	2	NaN	1	3	0.0741725096291569	0	1	NaN	81	2	18	1	120	220	320	NaN	520	0.0726619213819504	1	1	NaN	3717708.5210656	NaN	3717709.5044411	3717710.02100648
99	21	0	0	90	36.1581920903955	36.241610738255	12	0.400026912018657	2	8	3	NaN	2	4	0.0741725096291569	0	1	NaN	82	2	19	1	120	220	320	NaN	520	1.92111372156069	2	1	NaN	3717710.9045148	NaN	3717711.8880158	3717712.40457118
99	21	0	0	90	36.1581920903955	36.241610738255	10	0.333355760015547	2	12	1	NaN	2	5	0.0741725096291569	0	1	NaN	83	2	20	1	120	220	320	NaN	520	0.356159821618348	1	0	NaN	3717715.4216848	NaN	3717716.4051348	3717716.92168228
99	21	0	0	90	36.1581920903955	36.241610738255	23	0.766718248035759	2	9	1	NaN	2	3	0.0741725096291569	0	1	NaN	84	2	21	1	120	220	320	NaN	520	0.497081769630313	2	1	NaN	3717718.0886607	NaN	3717719.0720313	3717719.58861303
99	21	0	0	90	36.1581920903955	36.241610738255	25	0.833389400038868	2	5	2	NaN	1	5	0.0741725096291569	0	1	NaN	85	2	22	1	120	220	320	NaN	520	0.529420921579003	1	1	NaN	3717721.2722772	NaN	3717722.2557044	3717722.77225588
99	21	0	0	90	36.1581920903955	36.241610738255	9	0.300020184013993	2	8	4	NaN	2	3	0.0741725096291569	0	1	NaN	86	2	23	1	120	220	320	NaN	520	0.163751769810915	2	1	NaN	3717724.405913	NaN	3717725.3893451	3717725.90590513
99	21	0	0	90	36.1581920903955	36.241610738255	15	0.500033640023321	2	2	5	NaN	1	5	0.0741725096291569	0	1	NaN	87	2	24	1	120	220	320	NaN	520	0.435026021674275	2	0	NaN	3717727.2228882	NaN	3717728.2062849	3717728.72284838
99	21	0	0	90	36.1581920903955	36.241610738255	18	0.600040368027985	2	2	3	NaN	1	5	0.0741725096291569	0	1	NaN	88	2	25	1	120	220	320	NaN	520	0.2687679217197	1	1	NaN	3717729.9731703	NaN	3717730.9565667	3717731.47311598
99	21	0	0	90	36.1581920903955	36.241610738255	11	0.366691336017102	2	10	6	NaN	2	4	0.0741725096291569	0	1	NaN	89	2	26	1	120	220	320	NaN	520	0.344178469385952	2	1	NaN	3717732.8901238	NaN	3717733.8735237	3717734.39006053
99	21	0	0	90	36.1581920903955	36.241610738255	22	0.733382672034204	2	8	1	NaN	2	4	0.0741725096291569	0	1	NaN	90	2	27	1	120	220	320	NaN	520	0.381713879760355	1	0	NaN	3717735.5404586	NaN	3717736.5237701	3717737.04033362
99	21	0	0	90	36.1581920903955	36.241610738255	20	0.666711520031095	2	12	4	NaN	2	4	0.0741725096291569	0	1	NaN	91	2	28	1	120	220	320	NaN	520	0.357683369424194	2	1	NaN	3717738.5240329	NaN	3717739.5073924	3717740.02395403
99	21	0	0	90	36.1581920903955	36.241610738255	19	0.63337594402954	2	6	2	NaN	1	4	0.0741725096291569	0	1	NaN	92	2	29	1	120	220	320	NaN	520	0.170943421311677	1	1	NaN	3717741.1910062	NaN	3717742.1743245	3717742.69088338
99	21	0	0	90	36.1581920903955	36.241610738255	18	0.600040368027985	2	6	2	NaN	1	4	0.0741725096291569	0	1	NaN	93	2	30	1	120	220	320	NaN	520	0.249259421601892	1	1	NaN	3717744.0245139	NaN	3717745.0079443	3717745.52449718
99	21	0	0	90	36.1581920903955	36.241610738255	0	0	1	6	6	NaN	1	5	0.0741725096291569	0	1	NaN	94	2	31	1	110	210	310	NaN	510	0.148474616929889	1	1	NaN	3717746.9414634	NaN	3717747.9248908	3717748.44145368
99	21	0	0	90	36.1581920903955	36.241610738255	16	0.533369216024876	2	6	3	NaN	1	3	0.0741725096291569	0	1	NaN	95	2	32	1	120	220	320	NaN	520	0.225332969799638	2	0	NaN	3717749.4082822	NaN	3717750.3918319	3717750.90836033
99	21	0	0	90	36.1581920903955	36.241610738255	21	0.700047096032649	2	7	4	NaN	2	3	0.0741725096291569	0	1	NaN	96	2	33	1	120	220	320	NaN	520	0.284138221759349	2	1	NaN	3717751.9420216	NaN	3717752.9253952	3717753.44194418
99	21	0	0	90	36.1581920903955	36.241610738255	20	0.666711520031095	2	9	6	NaN	2	4	0.0741725096291569	0	1	NaN	97	2	34	1	120	220	320	NaN	520	0.379903721623123	2	1	NaN	3717754.542235	NaN	3717755.5256275	3717756.04219888
99	21	0	0	90	36.1581920903955	36.241610738255	23	0.766718248035759	2	5	6	NaN	1	4	0.0741725096291569	0	1	NaN	98	2	35	1	120	220	320	NaN	520	0.335940621327609	2	0	NaN	3717757.2257871	NaN	3717758.2092143	3717758.72579548
99	21	0	0	90	36.1581920903955	36.241610738255	7	0.233349032010883	2	6	6	NaN	1	3	0.0741725096291569	0	1	NaN	99	2	36	1	120	220	320	NaN	520	0.0104132695123553	1	1	NaN	3717760.2261865	NaN	3717761.2095527	3717761.72608153
99	21	0	0	90	36.1581920903955	36.241610738255	25	0.833389400038868	2	4	5	NaN	1	3	0.0741725096291569	0	1	NaN	100	2	37	1	120	220	320	NaN	520	0.594462084583938	2	0	NaN	3717762.5597034	NaN	3717763.5430968	3717764.05964592
99	21	0	0	90	36.1581920903955	36.241610738255	20	0.666711520031095	2	7	6	NaN	2	3	0.0741725096291569	0	1	NaN	101	2	38	1	120	220	320	NaN	520	0.637359722051769	2	1	NaN	3717765.4766511	NaN	3717766.4600478	3717766.97662408
99	21	0	0	90	36.1581920903955	36.241610738255	8	0.266684608012438	2	6	4	NaN	1	4	0.0741725096291569	0	1	NaN	102	2	39	1	120	220	320	NaN	520	0.167028969619423	1	1	NaN	3717768.426949	NaN	3717769.4103472	3717769.92689303
99	21	0	0	90	36.1581920903955	36.241610738255	6	0.200013456009328	2	9	6	NaN	2	3	0.0741725096291569	0	1	NaN	103	2	40	1	120	220	320	NaN	520	0.166638121474534	2	1	NaN	3717771.2272066	NaN	3717772.21062	3717772.72716838
99	21	0	0	90	36.1581920903955	36.241610738255	23	0.766718248035759	2	3	1	NaN	1	4	0.0741725096291569	0	1	NaN	104	2	41	1	120	220	320	NaN	520	0.530999169684947	2	0	NaN	3717773.7108011	NaN	3717774.6941956	3717775.21074573
99	21	0	0	90	36.1581920903955	36.241610738255	19	0.63337594402954	2	10	4	NaN	2	3	0.0741725096291569	0	1	NaN	105	2	42	1	120	220	320	NaN	520	0.374017869587988	1	0	NaN	3717776.8277346	NaN	3717777.8111599	3717778.32771873
99	21	0	0	90	36.1581920903955	36.241610738255	23	0.766718248035759	2	7	2	NaN	2	3	0.0741725096291569	0	1	NaN	106	2	43	1	120	220	320	NaN	520	0.522016369272023	2	1	NaN	3717779.7280249	NaN	3717780.7114467	3717781.22800173
99	21	0	0	90	36.1581920903955	36.241610738255	11	0.366691336017102	2	6	1	NaN	1	3	0.0741725096291569	0	1	NaN	107	2	44	1	120	220	320	NaN	520	0.465790269430727	2	0	NaN	3717782.9283369	NaN	3717783.9117593	3717784.42831963
99	21	0	0	90	36.1581920903955	36.241610738255	24	0.800053824037313	2	11	5	NaN	2	3	0.0741725096291569	0	1	NaN	108	2	45	1	120	220	320	NaN	520	0.353939421474934	1	0	NaN	3717785.7119837	NaN	3717786.695375	3717787.21193048
99	21	0	0	90	36.1581920903955	36.241610738255	20	0.666711520031095	2	3	1	NaN	1	5	0.0741725096291569	0	1	NaN	109	2	46	1	120	220	320	NaN	520	1.22082482185215	2	0	NaN	3717789.2289572	NaN	3717790.2123853	3717790.72893708
99	21	0	0	90	36.1581920903955	36.241610738255	19	0.63337594402954	2	10	4	NaN	2	3	0.0741725096291569	0	1	NaN	110	2	47	1	120	220	320	NaN	520	0.503139021806419	2	1	NaN	3717792.7626691	NaN	3717793.7460517	3717794.26262288
99	21	0	0	90	36.1581920903955	36.241610738255	0	0	1	10	5	NaN	2	4	0.0741725096291569	0	1	NaN	111	2	48	1	110	210	310	NaN	510	0.114502269309014	2	1	NaN	3717795.8796023	NaN	3717796.8630459	3717797.37959353
99	21	0	0	90	36.1581920903955	36.241610738255	19	0.63337594402954	2	5	5	NaN	1	5	0.0741725096291569	0	1	NaN	112	2	49	1	120	220	320	NaN	520	0.0103935217484832	2	0	NaN	3717798.3132145	NaN	3717799.2965859	3717799.81316868
99	21	0	0	90	36.1581920903955	36.241610738255	18	0.600040368027985	2	5	6	NaN	1	4	0.0741725096291569	0	1	NaN	113	2	50	1	120	220	320	NaN	520	0.295863121747971	1	1	NaN	3717800.9301481	NaN	3717801.9135131	3717802.43008778
99	21	0	0	90	36.1581920903955	36.241610738255	17	0.56670479202643	2	8	5	NaN	2	3	0.0741725096291569	0	1	NaN	114	2	51	1	120	220	320	NaN	520	0.275571616832167	1	0	NaN	3717803.8303018	NaN	3717804.8138115	3717805.33036668
99	21	0	0	90	36.1581920903955	36.241610738255	0	0	1	2	3	NaN	1	4	0.0741725096291569	0	1	NaN	115	2	52	1	110	210	310	NaN	510	0.300059316679835	2	0	NaN	3717806.4138863	NaN	3717807.3973889	3717807.91396108
99	21	0	0	90	36.1581920903955	36.241610738255	13	0.433362488020211	2	12	1	NaN	2	3	0.0741725096291569	0	1	NaN	116	2	53	1	120	220	320	NaN	520	0.323180921841413	2	1	NaN	3717809.0309256	NaN	3717810.0143257	3717810.53090188
99	21	0	0	90	36.1581920903955	36.241610738255	17	0.56670479202643	2	11	6	NaN	2	5	0.0741725096291569	0	1	NaN	117	2	54	1	120	220	320	NaN	520	0.0104121691547334	2	1	NaN	3717811.6645255	NaN	3717812.6479181	3717813.16446903
99	21	0	0	90	36.1581920903955	36.241610738255	19	0.63337594402954	2	7	5	NaN	2	4	0.0741725096291569	0	1	NaN	118	2	55	1	120	220	320	NaN	520	0.339782621245831	2	1	NaN	3717813.9980746	NaN	3717814.9814828	3717815.49803758
99	21	0	0	90	36.1581920903955	36.241610738255	10	0.333355760015547	2	2	5	NaN	1	4	0.0741725096291569	0	1	NaN	119	2	56	1	120	220	320	NaN	520	0.177920969668776	2	0	NaN	3717816.6483386	NaN	3717817.6317411	3717818.14829493
99	21	0	0	90	36.1581920903955	36.241610738255	15	0.500033640023321	2	7	5	NaN	2	5	0.0741725096291569	0	1	NaN	120	2	57	1	120	220	320	NaN	520	0.0454671694897115	1	0	NaN	3717819.1485777	NaN	3717820.1319902	3717820.64854083
99	21	0	0	90	36.1581920903955	36.241610738255	20	0.666711520031095	2	9	1	NaN	2	3	0.0741725096291569	0	1	NaN	121	2	58	1	120	220	320	NaN	520	0.250075969379395	1	0	NaN	3717821.8320783	NaN	3717822.8156	3717823.33214273
99	21	0	0	90	36.1581920903955	36.241610738255	16	0.533369216024876	2	1	2	NaN	1	5	0.0741725096291569	0	1	NaN	122	2	59	1	120	220	320	NaN	520	0.339067521505058	2	0	NaN	3717824.3991113	NaN	3717825.3824847	3717825.89906448
99	21	0	0	90	36.1581920903955	36.241610738255	0	0	1	8	6	NaN	2	3	0.0741725096291569	0	1	NaN	123	2	60	1	110	210	310	NaN	510	0.46114846970886	2	1	NaN	3717827.3327776	NaN	3717828.3161221	3717828.83268063
99	21	0	0	90	36.1581920903955	36.241610738255	10	0.333355760015547	2	3	2	NaN	1	5	0.0741725096291569	0	1	NaN	124	2	61	1	120	220	320	NaN	520	0.385471289977431	2	0	NaN	3717830.4162584	NaN	3717831.3998496	3717831.91632461
99	21	0	0	90	36.1581920903955	36.241610738255	16	0.533369216024876	2	8	2	NaN	2	3	0.0741725096291569	0	1	NaN	125	2	62	1	120	220	320	NaN	520	0.680559237021953	2	1	NaN	3717833.4333429	NaN	3717834.4167236	3717834.93328716
99	21	0	0	90	36.1581920903955	36.241610738255	13	0.433362488020211	2	12	3	NaN	2	4	0.0741725096291569	0	1	NaN	126	2	63	1	120	220	320	NaN	520	0.71463896939531	2	1	NaN	3717836.5836035	NaN	3717837.5670314	3717838.08361333
99	21	0	0	90	36.1581920903955	36.241610738255	21	0.700047096032649	2	11	3	NaN	2	4	0.0741725096291569	0	1	NaN	127	3	1	1	120	220	320	NaN	520	0.201234921813011	2	1	NaN	3717917.8249275	NaN	3717918.8083488	3717919.32490128
99	21	0	0	90	36.1581920903955	36.241610738255	9	0.300020184013993	2	9	5	NaN	2	3	0.0741725096291569	0	1	NaN	128	3	2	1	120	220	320	NaN	520	0.180185869336128	2	1	NaN	3717920.3419637	NaN	3717921.3252627	3717921.84181733
99	21	0	0	90	36.1581920903955	36.241610738255	17	0.56670479202643	2	9	1	NaN	2	3	0.0741725096291569	0	1	NaN	129	3	3	1	120	220	320	NaN	520	0.104020221624523	2	1	NaN	3717922.8419784	NaN	3717923.8255145	3717924.34206768
99	21	0	0	90	36.1581920903955	36.241610738255	10	0.333355760015547	2	9	4	NaN	2	3	0.0741725096291569	0	1	NaN	130	3	4	1	120	220	320	NaN	520	0.61264916928485	2	1	NaN	3717925.5257237	NaN	3717926.5091135	3717927.02566173
99	21	0	0	90	36.1581920903955	36.241610738255	7	0.233349032010883	2	10	1	NaN	2	5	0.0741725096291569	0	1	NaN	131	3	5	1	120	220	320	NaN	520	0.350890579633415	2	1	NaN	3717928.4593414	NaN	3717929.4427276	3717929.95929152
99	21	0	0	90	36.1581920903955	36.241610738255	16	0.533369216024876	2	10	5	NaN	2	4	0.0741725096291569	0	1	NaN	132	3	6	1	120	220	320	NaN	520	0.181993369478732	2	1	NaN	3717931.4761725	NaN	3717932.459694	3717932.97624983
99	21	0	0	90	36.1581920903955	36.241610738255	12	0.400026912018657	2	1	1	NaN	1	4	0.0741725096291569	0	1	NaN	133	3	7	1	120	220	320	NaN	520	0.0668471166864038	1	1	NaN	3717934.3432125	NaN	3717935.3266365	3717935.84319038
99	21	0	0	90	36.1581920903955	36.241610738255	14	0.466698064021766	2	9	1	NaN	2	4	0.0741725096291569	0	1	NaN	134	3	8	1	120	220	320	NaN	520	0.414903721772134	2	1	NaN	3717937.0267505	NaN	3717938.0102509	3717938.52679888
99	21	0	0	90	36.1581920903955	36.241610738255	0	0	1	7	6	NaN	2	4	0.0741725096291569	0	1	NaN	135	3	9	1	110	210	310	NaN	510	0.171268021687865	2	1	NaN	3717940.1271615	NaN	3717941.1105413	3717941.62709938
99	21	0	0	90	36.1581920903955	36.241610738255	23	0.766718248035759	2	7	2	NaN	2	5	0.0741725096291569	0	1	NaN	136	3	10	1	120	220	320	NaN	520	0.240174169652164	2	1	NaN	3717942.9940825	NaN	3717943.9774949	3717944.49405193
99	21	0	0	90	36.1581920903955	36.241610738255	15	0.500033640023321	2	1	5	NaN	1	4	0.0741725096291569	0	1	NaN	137	3	11	1	120	220	320	NaN	520	0.274083321448416	2	0	NaN	3717945.544338	NaN	3717946.5277459	3717947.04429978
99	21	0	0	90	36.1581920903955	36.241610738255	9	0.300020184013993	2	6	5	NaN	1	4	0.0741725096291569	0	1	NaN	138	3	12	1	120	220	320	NaN	520	0.162197622004896	1	1	NaN	3717948.5278616	NaN	3717949.5113764	3717950.02792698
99	21	0	0	90	36.1581920903955	36.241610738255	14	0.466698064021766	2	11	4	NaN	2	5	0.0741725096291569	0	1	NaN	139	3	13	1	120	220	320	NaN	520	0.191540947649628	2	1	NaN	3717950.9947647	NaN	3717951.9782745	3717952.49485485
99	21	0	0	90	36.1581920903955	36.241610738255	19	0.63337594402954	2	12	1	NaN	2	5	0.0741725096291569	0	1	NaN	140	3	14	1	120	220	320	NaN	520	0.123067621607333	2	1	NaN	3717953.4951261	NaN	3717954.4785288	3717954.99508158
99	21	0	0	90	36.1581920903955	36.241610738255	6	0.200013456009328	2	5	3	NaN	1	5	0.0741725096291569	0	1	NaN	141	3	15	1	120	220	320	NaN	520	0.179743521846831	2	0	NaN	3717956.2787074	NaN	3717957.2621346	3717957.77868768
99	21	0	0	90	36.1581920903955	36.241610738255	19	0.63337594402954	2	5	3	NaN	1	5	0.0741725096291569	0	1	NaN	142	3	16	1	120	220	320	NaN	520	0.129240969661623	2	0	NaN	3717959.1290073	NaN	3717960.1124089	3717960.62896173
99	21	0	0	90	36.1581920903955	36.241610738255	24	0.800053824037313	2	8	6	NaN	2	5	0.0741725096291569	0	1	NaN	143	3	17	1	120	220	320	NaN	520	0.273003769107163	2	1	NaN	3717961.9292634	NaN	3717962.9126959	3717963.42923763
99	21	0	0	90	36.1581920903955	36.241610738255	19	0.63337594402954	2	8	5	NaN	2	5	0.0741725096291569	0	1	NaN	144	3	18	1	120	220	320	NaN	520	0.481238369364291	2	1	NaN	3717964.5127549	NaN	3717965.4962649	3717966.01282393
99	21	0	0	90	36.1581920903955	36.241610738255	24	0.800053824037313	2	6	6	NaN	1	4	0.0741725096291569	0	1	NaN	145	3	19	1	120	220	320	NaN	520	0.201028521638364	2	0	NaN	3717967.313165	NaN	3717968.2965393	3717968.81310128
99	21	0	0	90	36.1581920903955	36.241610738255	14	0.466698064021766	2	5	1	NaN	1	5	0.0741725096291569	0	1	NaN	146	3	20	1	120	220	320	NaN	520	0.124165221583098	2	0	NaN	3717969.8300767	NaN	3717970.8134547	3717971.33002188
99	21	0	0	90	36.1581920903955	36.241610738255	20	0.666711520031095	2	3	4	NaN	1	3	0.0741725096291569	0	1	NaN	147	3	21	1	120	220	320	NaN	520	0.042679869569838	1	1	NaN	3717972.2636476	NaN	3717973.2470341	3717973.76358653
99	21	0	0	90	36.1581920903955	36.241610738255	21	0.700047096032649	2	3	6	NaN	1	5	0.0741725096291569	0	1	NaN	148	3	22	1	120	220	320	NaN	520	1.21230012178421	1	1	NaN	3717974.6138733	NaN	3717975.5972707	3717976.11382318
99	21	0	0	90	36.1581920903955	36.241610738255	13	0.433362488020211	2	10	3	NaN	2	5	0.0741725096291569	0	1	NaN	149	3	23	1	120	220	320	NaN	520	0.31160182133317	2	1	NaN	3717978.1309794	NaN	3717979.1142935	3717979.63083298
99	21	0	0	90	36.1581920903955	36.241610738255	8	0.266684608012438	2	2	2	NaN	1	5	0.0741725096291569	0	1	NaN	150	3	24	1	120	220	320	NaN	520	0.150422074366361	1	1	NaN	3717980.7477894	NaN	3717981.7312049	3717982.24776023
99	21	0	0	90	36.1581920903955	36.241610738255	16	0.533369216024876	2	12	4	NaN	2	3	0.0741725096291569	0	1	NaN	151	3	25	1	120	220	320	NaN	520	0.347952121403068	2	1	NaN	3717983.1980367	NaN	3717984.1814391	3717984.69799918
99	21	0	0	90	36.1581920903955	36.241610738255	23	0.766718248035759	2	2	2	NaN	1	3	0.0741725096291569	0	1	NaN	152	3	26	1	120	220	320	NaN	520	0.185887269675732	1	1	NaN	3717986.2483459	NaN	3717987.2317381	3717987.74829443
99	21	0	0	90	36.1581920903955	36.241610738255	17	0.56670479202643	2	6	5	NaN	1	4	0.0741725096291569	0	1	NaN	153	3	27	1	120	220	320	NaN	520	0.0776191642507911	1	1	NaN	3717989.1485994	NaN	3717990.1320313	3717990.64857764
99	21	0	0	90	36.1581920903955	36.241610738255	21	0.700047096032649	2	10	6	NaN	2	3	0.0741725096291569	0	1	NaN	154	3	28	1	120	220	320	NaN	520	0.189923969563097	2	1	NaN	3717991.5321964	NaN	3717992.5155967	3717993.03214673
99	21	0	0	90	36.1581920903955	36.241610738255	25	0.833389400038868	2	12	6	NaN	2	4	0.0741725096291569	0	1	NaN	155	3	29	1	120	220	320	NaN	520	0.484135922044516	1	0	NaN	3717994.3824567	NaN	3717995.365855	3717995.88243618
99	21	0	0	90	36.1581920903955	36.241610738255	6	0.200013456009328	2	6	1	NaN	1	3	0.0741725096291569	0	1	NaN	156	3	30	1	120	220	320	NaN	520	0.0195753695443273	2	0	NaN	3717997.1827708	NaN	3717998.1661625	3717998.68270523
99	21	0	0	90	36.1581920903955	36.241610738255	8	0.266684608012438	2	12	3	NaN	2	3	0.0741725096291569	0	1	NaN	157	3	31	1	120	220	320	NaN	520	0.293839321937412	2	1	NaN	3717999.5163216	NaN	3718000.4997355	3718001.01627088
99	21	0	0	90	36.1581920903955	36.241610738255	11	0.366691336017102	2	9	5	NaN	2	4	0.0741725096291569	0	1	NaN	158	3	32	1	120	220	320	NaN	520	0.0617005215026438	1	0	NaN	3718002.1165785	NaN	3718003.0999674	3718003.61652518
99	21	0	0	90	36.1581920903955	36.241610738255	9	0.300020184013993	2	4	1	NaN	1	3	0.0741725096291569	0	1	NaN	159	3	33	1	120	220	320	NaN	520	0.0386775215156376	1	1	NaN	3718004.4833892	NaN	3718005.4668775	3718005.98342508
99	21	0	0	90	36.1581920903955	36.241610738255	0	0	1	5	3	NaN	1	5	0.0741725096291569	0	1	NaN	160	3	34	1	110	210	310	NaN	510	0.240484269801527	1	1	NaN	3718006.833654	NaN	3718007.8170966	3718008.33365843
99	21	0	0	90	36.1581920903955	36.241610738255	7	0.233349032010883	2	11	1	NaN	2	4	0.0741725096291569	0	1	NaN	161	3	35	1	120	220	320	NaN	520	0.258256021421403	2	1	NaN	3718009.3839476	NaN	3718010.3673482	3718010.88390808
99	21	0	0	90	36.1581920903955	36.241610738255	10	0.333355760015547	2	2	6	NaN	1	4	0.0741725096291569	0	1	NaN	162	3	36	1	120	220	320	NaN	520	0.32318586949259	2	0	NaN	3718011.9507247	NaN	3718012.9342706	3718013.45082043
99	21	0	0	90	36.1581920903955	36.241610738255	25	0.833389400038868	2	9	2	NaN	2	5	0.0741725096291569	0	1	NaN	163	3	37	1	120	220	320	NaN	520	0.0814928216859698	2	1	NaN	3718014.5844596	NaN	3718015.5678621	3718016.08442028
99	21	0	0	90	36.1581920903955	36.241610738255	6	0.200013456009328	2	1	1	NaN	1	3	0.0741725096291569	0	1	NaN	164	3	38	1	120	220	320	NaN	520	0.289822769351304	1	1	NaN	3718016.9847081	NaN	3718017.9681489	3718018.48465433
99	21	0	0	90	36.1581920903955	36.241610738255	10	0.333355760015547	2	4	1	NaN	1	3	0.0741725096291569	0	1	NaN	165	3	39	1	120	220	320	NaN	520	0.361321900039911	1	1	NaN	3718019.5849606	NaN	3718020.5683434	3718021.0849258
99	21	0	0	90	36.1581920903955	36.241610738255	21	0.700047096032649	2	4	6	NaN	1	4	0.0741725096291569	0	1	NaN	166	3	40	1	120	220	320	NaN	520	0.382700169458985	2	0	NaN	3718022.2518897	NaN	3718023.2352729	3718023.75183953
99	21	0	0	90	36.1581920903955	36.241610738255	7	0.233349032010883	2	2	6	NaN	1	4	0.0741725096291569	0	1	NaN	167	3	41	1	120	220	320	NaN	520	0.306849174201488	2	0	NaN	3718024.9354932	NaN	3718025.9188838	3718026.43543793
99	21	0	0	90	36.1581920903955	36.241610738255	18	0.600040368027985	2	6	4	NaN	1	3	0.0741725096291569	0	1	NaN	168	3	42	1	120	220	320	NaN	520	0.169927021954209	2	0	NaN	3718027.5523967	NaN	3718028.5358003	3718029.05236118
99	21	0	0	90	36.1581920903955	36.241610738255	13	0.433362488020211	2	8	6	NaN	2	3	0.0741725096291569	0	1	NaN	169	3	43	1	120	220	320	NaN	520	0.206742021720856	1	0	NaN	3718030.0359875	NaN	3718031.0193802	3718031.53593628
99	21	0	0	90	36.1581920903955	36.241610738255	24	0.800053824037313	2	2	5	NaN	1	3	0.0741725096291569	0	1	NaN	170	3	44	1	120	220	320	NaN	520	0.177394921891391	2	0	NaN	3718032.5528882	NaN	3718033.5362957	3718034.05284998
99	21	0	0	90	36.1581920903955	36.241610738255	18	0.600040368027985	2	10	3	NaN	2	4	0.0741725096291569	0	1	NaN	171	3	45	1	120	220	320	NaN	520	0.0618660692125559	1	0	NaN	3718035.036476	NaN	3718036.0198592	3718036.53642763
99	21	0	0	90	36.1581920903955	36.241610738255	21	0.700047096032649	2	8	5	NaN	2	4	0.0741725096291569	0	1	NaN	172	3	46	1	120	220	320	NaN	520	0.202879469376057	1	0	NaN	3718037.703421	NaN	3718038.6867926	3718039.20335973
99	21	0	0	90	36.1581920903955	36.241610738255	14	0.466698064021766	2	6	4	NaN	1	4	0.0741725096291569	0	1	NaN	173	3	47	1	120	220	320	NaN	520	0.150111969560385	1	1	NaN	3718040.2203011	NaN	3718041.203711	3718041.72027253
99	21	0	0	90	36.1581920903955	36.241610738255	20	0.666711520031095	2	5	3	NaN	1	3	0.0741725096291569	0	1	NaN	174	3	48	1	120	220	320	NaN	520	0.267120669595897	2	0	NaN	3718042.6872307	NaN	3718043.6706174	3718044.18717263
99	21	0	0	90	36.1581920903955	36.241610738255	7	0.233349032010883	2	1	6	NaN	1	3	0.0741725096291569	0	1	NaN	175	3	49	1	120	220	320	NaN	520	0.115483169443905	2	0	NaN	3718045.2707228	NaN	3718046.2542076	3718046.77076193
99	21	0	0	90	36.1581920903955	36.241610738255	20	0.666711520031095	2	2	2	NaN	1	5	0.0741725096291569	0	1	NaN	176	3	50	1	120	220	320	NaN	520	0.262776721268892	1	1	NaN	3718047.9876083	NaN	3718048.9711428	3718049.48770118
99	21	0	0	90	36.1581920903955	36.241610738255	25	0.833389400038868	2	3	1	NaN	1	4	0.0741725096291569	0	1	NaN	177	3	51	1	120	220	320	NaN	520	0.161638369783759	2	0	NaN	3718050.9046685	NaN	3718051.8880931	3718052.40464903
99	21	0	0	90	36.1581920903955	36.241610738255	7	0.233349032010883	2	5	5	NaN	1	5	0.0741725096291569	0	1	NaN	178	3	52	1	120	220	320	NaN	520	0.118232521694154	1	1	NaN	3718053.3881559	NaN	3718054.3716813	3718054.88824658
99	21	0	0	90	36.1581920903955	36.241610738255	25	0.833389400038868	2	5	5	NaN	1	5	0.0741725096291569	0	1	NaN	179	3	53	1	120	220	320	NaN	520	0.26126532163471	1	1	NaN	3718055.8051723	NaN	3718056.7885728	3718057.30513118
99	21	0	0	90	36.1581920903955	36.241610738255	19	0.63337594402954	2	1	6	NaN	1	4	0.0741725096291569	0	1	NaN	180	3	54	1	120	220	320	NaN	520	0.0103910216130316	2	0	NaN	3718058.372123	NaN	3718059.3554901	3718059.87204988
99	21	0	0	90	36.1581920903955	36.241610738255	8	0.266684608012438	2	3	3	NaN	1	4	0.0741725096291569	0	1	NaN	181	3	55	1	120	220	320	NaN	520	0.0493072741664946	1	1	NaN	3718060.6890128	NaN	3718061.67239	3718062.18895173
99	21	0	0	90	36.1581920903955	36.241610738255	23	0.766718248035759	2	4	6	NaN	1	3	0.0741725096291569	0	1	NaN	182	3	56	1	120	220	320	NaN	520	0.101746869273484	2	0	NaN	3718063.3726038	NaN	3718064.3559928	3718064.87253793
99	21	0	0	90	36.1581920903955	36.241610738255	24	0.800053824037313	2	7	2	NaN	2	5	0.0741725096291569	0	1	NaN	183	3	57	1	120	220	320	NaN	520	0.196995569393039	1	0	NaN	3718065.7893933	NaN	3718066.7729215	3718067.28944153
99	21	0	0	90	36.1581920903955	36.241610738255	12	0.400026912018657	2	6	4	NaN	1	3	0.0741725096291569	0	1	NaN	184	3	58	1	120	220	320	NaN	520	0.199769821949303	1	1	NaN	3718068.7064228	NaN	3718069.6898376	3718070.20640558
99	21	0	0	90	36.1581920903955	36.241610738255	11	0.366691336017102	2	1	6	NaN	1	4	0.0741725096291569	0	1	NaN	185	3	59	1	120	220	320	NaN	520	0.0104282167740166	2	0	NaN	3718071.5400255	NaN	3718072.5234518	3718073.04001628
99	21	0	0	90	36.1581920903955	36.241610738255	24	0.800053824037313	2	1	2	NaN	1	5	0.0741725096291569	0	1	NaN	186	3	60	1	120	220	320	NaN	520	0.817338494583964	2	0	NaN	3718073.8569609	NaN	3718074.8403497	3718075.35692691
99	21	0	0	90	36.1581920903955	36.241610738255	22	0.733382672034204	2	6	4	NaN	1	4	0.0741725096291569	0	1	NaN	187	3	61	1	120	220	320	NaN	520	0.33959802147001	1	1	NaN	3718076.990583	NaN	3718077.9739946	3718078.49054128
99	21	0	0	90	36.1581920903955	36.241610738255	14	0.466698064021766	2	3	4	NaN	1	4	0.0741725096291569	0	1	NaN	188	3	62	1	120	220	320	NaN	520	0.420794021803886	2	0	NaN	3718079.9575231	NaN	3718080.9409472	3718081.45750528
99	21	0	0	90	36.1581920903955	36.241610738255	16	0.533369216024876	2	4	5	NaN	1	4	0.0741725096291569	0	1	NaN	189	3	63	1	120	220	320	NaN	520	0.314946469385177	1	1	NaN	3718082.991162	NaN	3718083.9745864	3718084.49115343
99	21	0	0	90	36.1581920903955	36.241610738255	13	0.433362488020211	2	1	4	NaN	1	3	0.0741725096291569	0	1	NaN	190	4	1	1	120	220	320	NaN	520	0.431323621887714	2	0	NaN	3718156.5150481	NaN	3718157.4984516	3718158.01503408
99	21	0	0	90	36.1581920903955	36.241610738255	16	0.533369216024876	2	10	5	NaN	2	4	0.0741725096291569	0	1	NaN	191	4	2	1	120	220	320	NaN	520	0.185145721770823	2	1	NaN	3718159.2652298	NaN	3718160.2487961	3718160.76530248
99	21	0	0	90	36.1581920903955	36.241610738255	8	0.266684608012438	2	4	3	NaN	1	5	0.0741725096291569	0	1	NaN	192	4	3	1	120	220	320	NaN	520	0.189066695049405	1	1	NaN	3718161.7655944	NaN	3718162.7489814	3718163.26555341
99	21	0	0	90	36.1581920903955	36.241610738255	15	0.500033640023321	2	6	3	NaN	1	4	0.0741725096291569	0	1	NaN	193	4	4	1	120	220	320	NaN	520	0.255012069363147	1	1	NaN	3718164.6990889	NaN	3718165.6826064	3718166.19916953
99	21	0	0	90	36.1581920903955	36.241610738255	11	0.366691336017102	2	7	4	NaN	2	5	0.0741725096291569	0	1	NaN	194	4	5	1	120	220	320	NaN	520	0.17639866983518	2	1	NaN	3718167.2661388	NaN	3718168.2495342	3718168.76607813
99	21	0	0	90	36.1581920903955	36.241610738255	18	0.600040368027985	2	1	4	NaN	1	4	0.0741725096291569	0	1	NaN	195	4	6	1	120	220	320	NaN	520	0.780934769660234	2	0	NaN	3718169.7497265	NaN	3718170.733099	3718171.24965413
99	21	0	0	90	36.1581920903955	36.241610738255	12	0.400026912018657	2	11	5	NaN	2	4	0.0741725096291569	0	1	NaN	196	4	7	1	120	220	320	NaN	520	0.257071069441736	2	1	NaN	3718173.233047	NaN	3718174.2167679	3718174.73334233
99	21	0	0	90	36.1581920903955	36.241610738255	7	0.233349032010883	2	12	2	NaN	2	5	0.0741725096291569	0	1	NaN	197	4	8	1	120	220	320	NaN	520	0.842296069487929	2	1	NaN	3718175.8002042	NaN	3718176.7837358	3718177.30025543
99	21	0	0	90	36.1581920903955	36.241610738255	16	0.533369216024876	2	5	3	NaN	1	3	0.0741725096291569	0	1	NaN	198	4	9	1	120	220	320	NaN	520	6.18006905401126	2	0	NaN	3718178.950618	NaN	3718179.93399	3718180.45055345
99	21	0	0	90	36.1581920903955	36.241610738255	23	0.766718248035759	2	11	3	NaN	2	3	0.0741725096291569	0	1	NaN	199	4	10	1	120	220	320	NaN	520	0.287519621662796	2	1	NaN	3718187.4347787	NaN	3718188.4181848	3718188.93473708
99	21	0	0	90	36.1581920903955	36.241610738255	15	0.500033640023321	2	9	4	NaN	2	3	0.0741725096291569	0	1	NaN	200	4	11	1	120	220	320	NaN	520	0.159166779369116	2	1	NaN	3718190.0351428	NaN	3718191.0184122	3718191.53498482
99	21	0	0	90	36.1581920903955	36.241610738255	22	0.733382672034204	2	11	5	NaN	2	3	0.0741725096291569	0	1	NaN	201	4	12	1	120	220	320	NaN	520	0.108591732103378	1	0	NaN	3718192.5019456	NaN	3718193.4853422	3718194.00190527
99	21	0	0	90	36.1581920903955	36.241610738255	22	0.733382672034204	2	2	1	NaN	1	3	0.0741725096291569	0	1	NaN	202	4	13	1	120	220	320	NaN	520	0.0516685214824975	1	1	NaN	3718195.3188857	NaN	3718196.3022908	3718196.81883918
99	21	0	0	90	36.1581920903955	36.241610738255	11	0.366691336017102	2	10	6	NaN	2	3	0.0741725096291569	0	1	NaN	203	4	14	1	120	220	320	NaN	520	0.0104114217683673	2	1	NaN	3718197.6691166	NaN	3718198.6525025	3718199.16907188
99	21	0	0	90	36.1581920903955	36.241610738255	16	0.533369216024876	2	4	3	NaN	1	3	0.0741725096291569	0	1	NaN	204	4	15	1	120	220	320	NaN	520	0.193279221653938	1	1	NaN	3718200.3692761	NaN	3718201.3527828	3718201.86933378
99	21	0	0	90	36.1581920903955	36.241610738255	14	0.466698064021766	2	6	3	NaN	1	5	0.0741725096291569	0	1	NaN	205	4	16	1	120	220	320	NaN	520	1.5121595216915	1	1	NaN	3718203.1859196	NaN	3718204.1697286	3718204.68628218
99	21	0	0	90	36.1581920903955	36.241610738255	9	0.300020184013993	2	7	6	NaN	2	4	0.0741725096291569	0	1	NaN	206	4	17	1	120	220	320	NaN	520	0.3665238795802	2	1	NaN	3718207.0200226	NaN	3718208.0034432	3718208.51999782
99	21	0	0	90	36.1581920903955	36.241610738255	0	0	1	3	1	NaN	1	3	0.0741725096291569	0	1	NaN	207	4	18	1	110	210	310	NaN	510	0.266815821640193	2	0	NaN	3718209.7036234	NaN	3718210.687029	3718211.20358678
99	21	0	0	90	36.1581920903955	36.241610738255	14	0.466698064021766	2	10	5	NaN	2	4	0.0741725096291569	0	1	NaN	208	4	19	1	120	220	320	NaN	520	0.20326767442748	1	0	NaN	3718212.2872305	NaN	3718213.2706179	3718213.78717763
99	21	0	0	90	36.1581920903955	36.241610738255	7	0.233349032010883	2	12	1	NaN	2	3	0.0741725096291569	0	1	NaN	209	4	20	1	120	220	320	NaN	520	0.21430548466742	1	0	NaN	3718214.8040095	NaN	3718215.7875331	3718216.30408742
99	21	0	0	90	36.1581920903955	36.241610738255	17	0.56670479202643	2	6	1	NaN	1	3	0.0741725096291569	0	1	NaN	210	4	21	1	120	220	320	NaN	520	5.02507372153923	1	1	NaN	3718217.3376885	NaN	3718218.3210938	3718218.83767028
99	21	0	0	90	36.1581920903955	36.241610738255	21	0.700047096032649	2	5	6	NaN	1	5	0.0741725096291569	0	1	NaN	211	4	22	1	120	220	320	NaN	520	0.714741421863437	1	1	NaN	3718224.671764	NaN	3718225.6551994	3718226.17172218
99	21	0	0	90	36.1581920903955	36.241610738255	17	0.56670479202643	2	11	2	NaN	2	5	0.0741725096291569	0	1	NaN	212	4	23	1	120	220	320	NaN	520	0.234115622006357	2	1	NaN	3718227.6886533	NaN	3718228.6721318	3718229.18868988
99	21	0	0	90	36.1581920903955	36.241610738255	22	0.733382672034204	2	3	5	NaN	1	3	0.0741725096291569	0	1	NaN	213	4	24	1	120	220	320	NaN	520	0.467728921677917	2	0	NaN	3718230.2389791	NaN	3718231.2223822	3718231.73894168
99	21	0	0	90	36.1581920903955	36.241610738255	11	0.366691336017102	2	4	3	NaN	1	4	0.0741725096291569	0	1	NaN	214	4	25	1	120	220	320	NaN	520	0.116099164355546	1	1	NaN	3718233.0226072	NaN	3718234.0060101	3718234.52253574
99	21	0	0	90	36.1581920903955	36.241610738255	0	0	1	9	2	NaN	2	3	0.0741725096291569	0	1	NaN	215	4	26	1	110	210	310	NaN	510	0.170220869593322	2	1	NaN	3718235.4561694	NaN	3718236.4395543	3718236.95611053
99	21	0	0	90	36.1581920903955	36.241610738255	21	0.700047096032649	2	2	2	NaN	1	5	0.0741725096291569	0	1	NaN	216	4	27	1	120	220	320	NaN	520	0.271046221721917	1	1	NaN	3718237.9397354	NaN	3718238.9231377	3718239.43969508
99	21	0	0	90	36.1581920903955	36.241610738255	13	0.433362488020211	2	8	1	NaN	2	4	0.0741725096291569	0	1	NaN	217	4	28	1	120	220	320	NaN	520	0.663308469112962	1	0	NaN	3718240.5233187	NaN	3718241.506717	3718242.02328093
99	21	0	0	90	36.1581920903955	36.241610738255	25	0.833389400038868	2	2	4	NaN	1	5	0.0741725096291569	0	1	NaN	218	4	29	1	120	220	320	NaN	520	0.319558763876557	1	1	NaN	3718243.506955	NaN	3718244.4903556	3718245.00690294
99	21	0	0	90	36.1581920903955	36.241610738255	7	0.233349032010883	2	9	5	NaN	2	3	0.0741725096291569	0	1	NaN	219	4	30	1	120	220	320	NaN	520	0.415555241983384	2	1	NaN	3718246.5072256	NaN	3718247.4907232	3718248.00720836
99	21	0	0	90	36.1581920903955	36.241610738255	11	0.366691336017102	2	8	1	NaN	2	4	0.0741725096291569	0	1	NaN	220	4	31	1	120	220	320	NaN	520	0.0338045218959451	1	0	NaN	3718249.2408489	NaN	3718250.2242458	3718250.74080858
99	21	0	0	90	36.1581920903955	36.241610738255	18	0.600040368027985	2	4	3	NaN	1	4	0.0741725096291569	0	1	NaN	221	4	32	1	120	220	320	NaN	520	0.315469221677631	1	1	NaN	3718251.5911689	NaN	3718252.574471	3718253.09103858
99	21	0	0	90	36.1581920903955	36.241610738255	7	0.233349032010883	2	2	5	NaN	1	5	0.0741725096291569	0	1	NaN	222	4	33	1	120	220	320	NaN	520	0.409828121773899	2	0	NaN	3718254.2246642	NaN	3718255.2080704	3718255.72463198
99	21	0	0	90	36.1581920903955	36.241610738255	22	0.733382672034204	2	5	2	NaN	1	3	0.0741725096291569	0	1	NaN	223	4	34	1	120	220	320	NaN	520	0.252980817109346	2	0	NaN	3718256.9415419	NaN	3718257.9249859	3718258.44156358
99	21	0	0	90	36.1581920903955	36.241610738255	15	0.500033640023321	2	8	6	NaN	2	5	0.0741725096291569	0	1	NaN	224	4	35	1	120	220	320	NaN	520	0.254042821470648	2	1	NaN	3718259.5084162	NaN	3718260.4919761	3718261.00848328
99	21	0	0	90	36.1581920903955	36.241610738255	13	0.433362488020211	2	2	1	NaN	1	3	0.0741725096291569	0	1	NaN	225	4	36	1	120	220	320	NaN	520	2.04674684209749	2	0	NaN	3718262.0754438	NaN	3718263.0588363	3718263.57540626
99	21	0	0	90	36.1581920903955	36.241610738255	6	0.200013456009328	2	7	6	NaN	2	3	0.0741725096291569	0	1	NaN	226	4	37	1	120	220	320	NaN	520	5.28779582167044	2	1	NaN	3718266.4425291	NaN	3718267.4259325	3718267.94249288
99	21	0	0	90	36.1581920903955	36.241610738255	11	0.366691336017102	2	4	3	NaN	1	5	0.0741725096291569	0	1	NaN	227	4	38	1	120	220	320	NaN	520	0.455378416925669	2	0	NaN	3718274.0432117	NaN	3718275.0266819	3718275.54323708
99	21	0	0	90	36.1581920903955	36.241610738255	0	0	1	10	3	NaN	2	3	0.0741725096291569	0	1	NaN	228	4	39	1	110	210	310	NaN	510	0.120680521242321	1	0	NaN	3718276.8100868	NaN	3718277.7936232	3718278.31017278
99	21	0	0	90	36.1581920903955	36.241610738255	9	0.300020184013993	2	10	3	NaN	2	5	0.0741725096291569	0	1	NaN	229	4	40	1	120	220	320	NaN	520	0.321736227255315	2	1	NaN	3718279.577061	NaN	3718280.5605502	3718281.07711987
99	21	0	0	90	36.1581920903955	36.241610738255	12	0.400026912018657	2	5	1	NaN	1	3	0.0741725096291569	0	1	NaN	230	4	41	1	120	220	320	NaN	520	0.321166274137795	2	0	NaN	3718282.5774286	NaN	3718283.5608533	3718284.07742053
99	21	0	0	90	36.1581920903955	36.241610738255	17	0.56670479202643	2	12	6	NaN	2	5	0.0741725096291569	0	1	NaN	231	4	42	1	120	220	320	NaN	520	0.237311821430922	2	1	NaN	3718285.6610663	NaN	3718286.6444974	3718287.16104808
99	21	0	0	90	36.1581920903955	36.241610738255	13	0.433362488020211	2	6	5	NaN	1	5	0.0741725096291569	0	1	NaN	232	4	43	1	120	220	320	NaN	520	0.669977174140513	2	0	NaN	3718288.644691	NaN	3718289.6281379	3718290.14468253
99	21	0	0	90	36.1581920903955	36.241610738255	24	0.800053824037313	2	11	2	NaN	2	4	0.0741725096291569	0	1	NaN	233	4	44	1	120	220	320	NaN	520	0.81444782204926	2	1	NaN	3718291.6283424	NaN	3718292.6117431	3718293.12830158
99	21	0	0	90	36.1581920903955	36.241610738255	21	0.700047096032649	2	3	5	NaN	1	4	0.0741725096291569	0	1	NaN	234	4	45	1	120	220	320	NaN	520	0.200000637676567	1	1	NaN	3718295.178668	NaN	3718296.1620945	3718296.67865126
99	21	0	0	90	36.1581920903955	36.241610738255	24	0.800053824037313	2	3	3	NaN	1	3	0.0741725096291569	0	1	NaN	235	4	46	1	120	220	320	NaN	520	0.692300421651453	1	1	NaN	3718298.062194	NaN	3718299.0457825	3718299.56226878
99	21	0	0	90	36.1581920903955	36.241610738255	9	0.300020184013993	2	12	2	NaN	2	4	0.0741725096291569	0	1	NaN	236	4	47	1	120	220	320	NaN	520	0.275319221895188	2	1	NaN	3718301.079176	NaN	3718302.0627261	3718302.57922818
99	21	0	0	90	36.1581920903955	36.241610738255	13	0.433362488020211	2	7	2	NaN	2	3	0.0741725096291569	0	1	NaN	237	4	48	1	120	220	320	NaN	520	0.259039369411767	2	1	NaN	3718303.6795419	NaN	3718304.662946	3718305.17948163
99	21	0	0	90	36.1581920903955	36.241610738255	13	0.433362488020211	2	5	3	NaN	1	5	0.0741725096291569	0	1	NaN	238	4	49	1	120	220	320	NaN	520	0.22179741691798	1	1	NaN	3718306.6131207	NaN	3718307.5965525	3718308.11310848
99	21	0	0	90	36.1581920903955	36.241610738255	8	0.266684608012438	2	2	1	NaN	1	5	0.0741725096291569	0	1	NaN	239	4	50	1	120	220	320	NaN	520	0.338579721748829	2	0	NaN	3718309.4800999	NaN	3718310.4634993	3718310.98005528
99	21	0	0	90	36.1581920903955	36.241610738255	22	0.733382672034204	2	5	4	NaN	1	5	0.0741725096291569	0	1	NaN	240	4	51	1	120	220	320	NaN	520	0.0723916213028133	2	0	NaN	3718312.1303815	NaN	3718313.113761	3718313.63031838
99	21	0	0	90	36.1581920903955	36.241610738255	22	0.733382672034204	2	11	2	NaN	2	4	0.0741725096291569	0	1	NaN	241	4	52	1	120	220	320	NaN	520	0.183471569791436	2	1	NaN	3718314.54724	NaN	3718315.5306645	3718316.04722323
99	21	0	0	90	36.1581920903955	36.241610738255	7	0.233349032010883	2	1	2	NaN	1	4	0.0741725096291569	0	1	NaN	242	4	53	1	120	220	320	NaN	520	0.379386474378407	2	0	NaN	3718317.0475032	NaN	3718318.0309694	3718318.54747443
99	21	0	0	90	36.1581920903955	36.241610738255	11	0.366691336017102	2	3	1	NaN	1	3	0.0741725096291569	0	1	NaN	243	4	54	1	120	220	320	NaN	520	0.135471117217094	2	0	NaN	3718319.7311539	NaN	3718320.7145065	3718321.23106878
99	21	0	0	90	36.1581920903955	36.241610738255	6	0.200013456009328	2	4	5	NaN	1	3	0.0741725096291569	0	1	NaN	244	4	55	1	120	220	320	NaN	520	0.0214251219294965	2	0	NaN	3718322.181256	NaN	3718323.1647471	3718323.68130298
99	21	0	0	90	36.1581920903955	36.241610738255	6	0.200013456009328	2	11	3	NaN	2	5	0.0741725096291569	0	1	NaN	245	4	56	1	120	220	320	NaN	520	0.303942169528455	2	1	NaN	3718324.5149042	NaN	3718325.4983109	3718326.01486543
99	21	0	0	90	36.1581920903955	36.241610738255	15	0.500033640023321	2	12	6	NaN	2	3	0.0741725096291569	0	1	NaN	246	4	57	1	120	220	320	NaN	520	0.225732469465584	2	1	NaN	3718327.4651707	NaN	3718328.448606	3718328.96516193
99	21	0	0	90	36.1581920903955	36.241610738255	18	0.600040368027985	2	8	4	NaN	2	3	0.0741725096291569	0	1	NaN	247	4	58	1	120	220	320	NaN	520	0.260147069580853	2	1	NaN	3718329.9987687	NaN	3718330.9821673	3718331.49874233
99	21	0	0	90	36.1581920903955	36.241610738255	17	0.56670479202643	2	1	4	NaN	1	4	0.0741725096291569	0	1	NaN	248	4	59	1	120	220	320	NaN	520	0.245258621871471	1	1	NaN	3718332.5656937	NaN	3718333.5491024	3718334.06565618
99	21	0	0	90	36.1581920903955	36.241610738255	21	0.700047096032649	2	6	4	NaN	1	5	0.0741725096291569	0	1	NaN	249	4	60	1	120	220	320	NaN	520	0.0223411219194531	1	1	NaN	3718335.115946	NaN	3718336.099356	3718336.61591028
99	21	0	0	90	36.1581920903955	36.241610738255	25	0.833389400038868	2	6	6	NaN	1	5	0.0741725096291569	0	1	NaN	250	4	61	1	120	220	320	NaN	520	0.173168641980737	1	1	NaN	3718337.7488786	NaN	3718338.7329457	3718339.24949956
99	21	0	0	90	36.1581920903955	36.241610738255	6	0.200013456009328	2	10	2	NaN	2	3	0.0741725096291569	0	1	NaN	251	4	62	1	120	220	320	NaN	520	0.145694821607322	1	0	NaN	3718340.233114	NaN	3718341.2165408	3718341.73307898
99	21	0	0	90	36.1581920903955	36.241610738255	24	0.800053824037313	2	4	1	NaN	1	4	0.0741725096291569	0	1	NaN	252	4	63	1	120	220	320	NaN	520	0.118772969115525	2	0	NaN	3718342.6999321	NaN	3718343.6833341	3718344.19998433
99	21	0	0	90	36.1581920903955	36.241610738255	6	0.200013456009328	2	3	1	NaN	1	4	0.0741725096291569	0	1	NaN	253	5	1	1	120	220	320	NaN	520	0.186503921635449	2	0	NaN	3718358.3683204	NaN	3718359.3516349	3718359.86818898
99	21	0	0	90	36.1581920903955	36.241610738255	17	0.56670479202643	2	12	5	NaN	2	3	0.0741725096291569	0	1	NaN	254	5	2	1	120	220	320	NaN	520	0.142229021526873	2	1	NaN	3718360.8684901	NaN	3718361.8518701	3718362.36844638
99	21	0	0	90	36.1581920903955	36.241610738255	14	0.466698064021766	2	1	6	NaN	1	4	0.0741725096291569	0	1	NaN	255	5	3	1	120	220	320	NaN	520	0.15604792162776	2	0	NaN	3718363.3187158	NaN	3718364.3021225	3718364.81868108
99	21	0	0	90	36.1581920903955	36.241610738255	0	0	1	3	5	NaN	1	5	0.0741725096291569	0	1	NaN	256	5	4	1	110	210	310	NaN	510	12.3530388167128	2	0	NaN	3718365.7856366	NaN	3718366.7690398	3718367.28558288
99	21	0	0	90	36.1581920903955	36.241610738255	19	0.63337594402954	2	11	6	NaN	2	3	0.0741725096291569	0	1	NaN	257	5	5	1	120	220	320	NaN	520	0.652917621657252	2	1	NaN	3718380.4537534	NaN	3718381.437037	3718381.95369478
99	21	0	0	90	36.1581920903955	36.241610738255	19	0.63337594402954	2	11	4	NaN	2	4	0.0741725096291569	0	1	NaN	258	5	6	1	120	220	320	NaN	520	0.446057532448322	2	1	NaN	3718383.420714	NaN	3718384.404144	3718384.92066477
99	21	0	0	90	36.1581920903955	36.241610738255	20	0.666711520031095	2	5	2	NaN	1	5	0.0741725096291569	0	1	NaN	259	5	7	1	120	220	320	NaN	520	0.247024621348828	1	1	NaN	3718386.187658	NaN	3718387.1710376	3718387.68758808
99	21	0	0	90	36.1581920903955	36.241610738255	21	0.700047096032649	2	6	2	NaN	1	3	0.0741725096291569	0	1	NaN	260	5	8	1	120	220	320	NaN	520	0.473079574294388	2	0	NaN	3718388.7378945	NaN	3718389.7212842	3718390.23784983
99	21	0	0	90	36.1581920903955	36.241610738255	22	0.733382672034204	2	9	2	NaN	2	3	0.0741725096291569	0	1	NaN	261	5	9	1	120	220	320	NaN	520	0.184858621563762	2	1	NaN	3718391.5214802	NaN	3718392.5048947	3718393.02144918
99	21	0	0	90	36.1581920903955	36.241610738255	9	0.300020184013993	2	12	2	NaN	2	4	0.0741725096291569	0	1	NaN	262	5	10	1	120	220	320	NaN	520	0.15737346932292	1	0	NaN	3718394.0217679	NaN	3718395.0051344	3718395.52168993
99	21	0	0	90	36.1581920903955	36.241610738255	0	0	1	4	4	NaN	1	5	0.0741725096291569	0	1	NaN	263	5	11	1	110	210	310	NaN	510	0.186191121581942	2	0	NaN	3718396.4886554	NaN	3718397.4720612	3718397.98860708
99	21	0	0	90	36.1581920903955	36.241610738255	18	0.600040368027985	2	12	4	NaN	2	5	0.0741725096291569	0	1	NaN	264	5	12	1	120	220	320	NaN	520	0.566137021407485	2	1	NaN	3718398.9889018	NaN	3718399.9723043	3718400.48884968
99	21	0	0	90	36.1581920903955	36.241610738255	25	0.833389400038868	2	9	3	NaN	2	3	0.0741725096291569	0	1	NaN	265	5	13	1	120	220	320	NaN	520	0.212881321553141	2	1	NaN	3718402.2058673	NaN	3718403.1892882	3718403.70583538
99	21	0	0	90	36.1581920903955	36.241610738255	9	0.300020184013993	2	1	4	NaN	1	4	0.0741725096291569	0	1	NaN	266	5	14	1	120	220	320	NaN	520	0.191544921603054	1	1	NaN	3718404.7394563	NaN	3718405.7228475	3718406.23943288
99	21	0	0	90	36.1581920903955	36.241610738255	10	0.333355760015547	2	8	4	NaN	2	3	0.0741725096291569	0	1	NaN	267	5	15	1	120	220	320	NaN	520	0.602120321709663	2	1	NaN	3718407.2563953	NaN	3718408.2397681	3718408.75632758
99	21	0	0	90	36.1581920903955	36.241610738255	19	0.63337594402954	2	9	3	NaN	2	4	0.0741725096291569	0	1	NaN	268	5	16	1	120	220	320	NaN	520	0.221465269569308	2	1	NaN	3718410.1733145	NaN	3718411.1567408	3718411.67328473
99	21	0	0	90	36.1581920903955	36.241610738255	11	0.366691336017102	2	12	3	NaN	2	4	0.0741725096291569	0	1	NaN	269	5	17	1	120	220	320	NaN	520	0.271790869534016	2	1	NaN	3718412.7069734	NaN	3718413.6903076	3718414.20686823
99	21	0	0	90	36.1581920903955	36.241610738255	0	0	1	11	4	NaN	2	4	0.0741725096291569	0	1	NaN	270	5	18	1	110	210	310	NaN	510	0.264565269462764	2	1	NaN	3718415.2905253	NaN	3718416.2739378	3718416.79044623
99	21	0	0	90	36.1581920903955	36.241610738255	13	0.433362488020211	2	2	2	NaN	1	5	0.0741725096291569	0	1	NaN	271	5	19	1	120	220	320	NaN	520	0.632962069474161	1	1	NaN	3718417.874102	NaN	3718418.8574831	3718419.37403443
99	21	0	0	90	36.1581920903955	36.241610738255	12	0.400026912018657	2	4	4	NaN	1	5	0.0741725096291569	0	1	NaN	272	5	20	1	120	220	320	NaN	520	0.210485921707004	2	0	NaN	3718420.8243826	NaN	3718421.8077625	3718422.32433578
99	21	0	0	90	36.1581920903955	36.241610738255	13	0.433362488020211	2	3	6	NaN	1	3	0.0741725096291569	0	1	NaN	273	5	21	1	120	220	320	NaN	520	0.221592121757567	2	0	NaN	3718423.3412816	NaN	3718424.3246888	3718424.84124978
99	21	0	0	90	36.1581920903955	36.241610738255	19	0.63337594402954	2	12	2	NaN	2	4	0.0741725096291569	0	1	NaN	274	5	22	1	120	220	320	NaN	520	0.010396521538496	2	1	NaN	3718426.008145	NaN	3718426.9916139	3718427.50817068
99	21	0	0	90	36.1581920903955	36.241610738255	8	0.266684608012438	2	12	4	NaN	2	4	0.0741725096291569	0	1	NaN	275	5	23	1	120	220	320	NaN	520	0.285832521505654	2	1	NaN	3718428.3250165	NaN	3718429.3084988	3718429.82506538
99	21	0	0	90	36.1581920903955	36.241610738255	18	0.600040368027985	2	4	6	NaN	1	3	0.0741725096291569	0	1	NaN	276	5	24	1	120	220	320	NaN	520	0.12546162167564	1	1	NaN	3718430.9254635	NaN	3718431.9087935	3718432.42532788
99	21	0	0	90	36.1581920903955	36.241610738255	13	0.433362488020211	2	9	3	NaN	2	4	0.0741725096291569	0	1	NaN	277	5	25	1	120	220	320	NaN	520	0.219571721740067	1	0	NaN	3718433.3589439	NaN	3718434.3423743	3718434.85889788
99	21	0	0	90	36.1581920903955	36.241610738255	11	0.366691336017102	2	2	6	NaN	1	3	0.0741725096291569	0	1	NaN	278	5	26	1	120	220	320	NaN	520	0.086491521447897	2	0	NaN	3718435.8925177	NaN	3718436.8759285	3718437.39247878
99	21	0	0	90	36.1581920903955	36.241610738255	23	0.766718248035759	2	1	6	NaN	1	3	0.0741725096291569	0	1	NaN	279	5	27	1	120	220	320	NaN	520	0.0314304218627512	2	0	NaN	3718438.6594539	NaN	3718439.6428702	3718440.15941748
99	21	0	0	90	36.1581920903955	36.241610738255	22	0.733382672034204	2	3	3	NaN	1	4	0.0741725096291569	0	1	NaN	280	5	28	1	120	220	320	NaN	520	0.396429321262985	1	1	NaN	3718441.326417	NaN	3718442.3097914	3718442.82634418
99	21	0	0	90	36.1581920903955	36.241610738255	12	0.400026912018657	2	6	4	NaN	1	3	0.0741725096291569	0	1	NaN	281	5	29	1	120	220	320	NaN	520	0.160214516799897	1	1	NaN	3718444.0265352	NaN	3718445.0100485	3718445.52660218
99	21	0	0	90	36.1581920903955	36.241610738255	18	0.600040368027985	2	11	6	NaN	2	5	0.0741725096291569	0	1	NaN	282	5	30	1	120	220	320	NaN	520	0.383997269440442	2	1	NaN	3718446.6268912	NaN	3718447.6103067	3718448.12686893
99	21	0	0	90	36.1581920903955	36.241610738255	9	0.300020184013993	2	6	2	NaN	1	4	0.0741725096291569	0	1	NaN	283	5	31	1	120	220	320	NaN	520	0.467919221613556	1	1	NaN	3718449.3271718	NaN	3718450.3105751	3718450.82712758
99	21	0	0	90	36.1581920903955	36.241610738255	16	0.533369216024876	2	12	2	NaN	2	4	0.0741725096291569	0	1	NaN	284	5	32	1	120	220	320	NaN	520	0.907960021868348	2	1	NaN	3718452.1107851	NaN	3718453.0941789	3718453.61073978
99	21	0	0	90	36.1581920903955	36.241610738255	7	0.233349032010883	2	10	2	NaN	2	4	0.0741725096291569	0	1	NaN	285	5	33	1	120	220	320	NaN	520	0.450983021873981	1	0	NaN	3718455.3277774	NaN	3718456.3111696	3718456.82772088
99	21	0	0	90	36.1581920903955	36.241610738255	10	0.333355760015547	2	12	5	NaN	2	3	0.0741725096291569	0	1	NaN	286	5	34	1	120	220	320	NaN	520	0.30039576953277	2	1	NaN	3718458.0947541	NaN	3718459.0781052	3718459.59465383
99	21	0	0	90	36.1581920903955	36.241610738255	23	0.766718248035759	2	9	5	NaN	2	4	0.0741725096291569	0	1	NaN	287	5	35	1	120	220	320	NaN	520	0.555240753572434	2	1	NaN	3718460.7116365	NaN	3718461.6950262	3718462.21157365
99	21	0	0	90	36.1581920903955	36.241610738255	17	0.56670479202643	2	2	3	NaN	1	4	0.0741725096291569	0	1	NaN	288	5	36	1	120	220	320	NaN	520	0.486438016872853	2	0	NaN	3718463.6284509	NaN	3718464.6119934	3718465.12852948
99	21	0	0	90	36.1581920903955	36.241610738255	12	0.400026912018657	2	7	2	NaN	2	4	0.0741725096291569	0	1	NaN	289	5	37	1	120	220	320	NaN	520	1.07807746948674	2	1	NaN	3718466.4288483	NaN	3718467.4122637	3718467.92880883
99	21	0	0	90	36.1581920903955	36.241610738255	14	0.466698064021766	2	8	4	NaN	2	5	0.0741725096291569	0	1	NaN	290	5	38	1	120	220	320	NaN	520	1.88634882168844	1	0	NaN	3718469.812528	NaN	3718470.7959154	3718471.31247768
99	21	0	0	90	36.1581920903955	36.241610738255	13	0.433362488020211	2	7	1	NaN	2	5	0.0741725096291569	0	1	NaN	291	5	39	1	120	220	320	NaN	520	0.534137221518904	2	1	NaN	3718474.0129575	NaN	3718474.9963287	3718475.51288868
99	21	0	0	90	36.1581920903955	36.241610738255	25	0.833389400038868	2	7	4	NaN	2	5	0.0741725096291569	0	1	NaN	292	5	40	1	120	220	320	NaN	520	0.285879021510482	2	1	NaN	3718477.2131384	NaN	3718478.1966515	3718478.71319968
99	21	0	0	90	36.1581920903955	36.241610738255	22	0.733382672034204	2	8	1	NaN	2	4	0.0741725096291569	0	1	NaN	293	5	41	1	120	220	320	NaN	520	0.237577369436622	2	1	NaN	3718479.8135338	NaN	3718480.7969153	3718481.31345393
99	21	0	0	90	36.1581920903955	36.241610738255	23	0.766718248035759	2	11	3	NaN	2	3	0.0741725096291569	0	1	NaN	294	5	42	1	120	220	320	NaN	520	0.471351369284093	2	1	NaN	3718482.3637666	NaN	3718483.3471636	3718483.86370493
99	21	0	0	90	36.1581920903955	36.241610738255	25	0.833389400038868	2	8	2	NaN	2	5	0.0741725096291569	0	1	NaN	295	5	43	1	120	220	320	NaN	520	0.375632121693343	2	1	NaN	3718485.1473757	NaN	3718486.1307684	3718486.64731228
99	21	0	0	90	36.1581920903955	36.241610738255	25	0.833389400038868	2	2	6	NaN	1	4	0.0741725096291569	0	1	NaN	296	5	44	1	120	220	320	NaN	520	0.163602869492024	1	1	NaN	3718487.8308466	NaN	3718488.8143672	3718489.33091343
99	21	0	0	90	36.1581920903955	36.241610738255	17	0.56670479202643	2	10	1	NaN	2	5	0.0741725096291569	0	1	NaN	297	5	45	1	120	220	320	NaN	520	0.265097521711141	2	1	NaN	3718490.2978946	NaN	3718491.2812621	3718491.79781648
99	21	0	0	90	36.1581920903955	36.241610738255	21	0.700047096032649	2	11	3	NaN	2	4	0.0741725096291569	0	1	NaN	298	5	46	1	120	220	320	NaN	520	0.0974825168959796	2	1	NaN	3718492.8814581	NaN	3718493.8648519	3718494.38142158
99	21	0	0	90	36.1581920903955	36.241610738255	23	0.766718248035759	2	6	1	NaN	1	4	0.0741725096291569	0	1	NaN	299	5	47	1	120	220	320	NaN	520	0.0103955217637122	1	1	NaN	3718495.2982677	NaN	3718496.2817583	3718496.79831768
99	21	0	0	90	36.1581920903955	36.241610738255	0	0	1	7	5	NaN	2	5	0.0741725096291569	0	1	NaN	300	5	48	1	110	210	310	NaN	510	0.297580974176526	1	0	NaN	3718497.8651562	NaN	3718498.8486782	3718499.36524603
99	21	0	0	90	36.1581920903955	36.241610738255	7	0.233349032010883	2	3	3	NaN	1	5	0.0741725096291569	0	1	NaN	301	5	49	1	120	220	320	NaN	520	0.352951221633703	1	1	NaN	3718500.4822132	NaN	3718501.4656059	3718501.98216118
99	21	0	0	90	36.1581920903955	36.241610738255	24	0.800053824037313	2	10	6	NaN	2	4	0.0741725096291569	0	1	NaN	302	5	50	1	120	220	320	NaN	520	0.326147269457579	2	1	NaN	3718503.1491041	NaN	3718504.1325344	3718504.64908553
99	21	0	0	90	36.1581920903955	36.241610738255	18	0.600040368027985	2	10	4	NaN	2	3	0.0741725096291569	0	1	NaN	303	5	51	1	120	220	320	NaN	520	0.212330421898514	2	1	NaN	3718505.7826514	NaN	3718506.7661224	3718507.28268188
99	21	0	0	90	36.1581920903955	36.241610738255	15	0.500033640023321	2	8	3	NaN	2	4	0.0741725096291569	0	1	NaN	304	5	52	1	120	220	320	NaN	520	0.27907266933471	2	1	NaN	3718508.2995279	NaN	3718509.2830287	3718509.79959303
99	21	0	0	90	36.1581920903955	36.241610738255	12	0.400026912018657	2	7	3	NaN	2	3	0.0741725096291569	0	1	NaN	305	5	53	1	120	220	320	NaN	520	0.343138921540231	2	1	NaN	3718510.8997901	NaN	3718511.8833142	3718512.39984698
99	21	0	0	90	36.1581920903955	36.241610738255	15	0.500033640023321	2	7	6	NaN	2	4	0.0741725096291569	0	1	NaN	306	5	54	1	120	220	320	NaN	520	0.516792116686702	2	1	NaN	3718513.5501954	NaN	3718514.5335471	3718515.05010428
99	21	0	0	90	36.1581920903955	36.241610738255	14	0.466698064021766	2	3	1	NaN	1	5	0.0741725096291569	0	1	NaN	307	5	55	1	120	220	320	NaN	520	0.250733269378543	2	0	NaN	3718516.3837316	NaN	3718517.3671993	3718517.88371933
99	21	0	0	90	36.1581920903955	36.241610738255	19	0.63337594402954	2	3	2	NaN	1	5	0.0741725096291569	0	1	NaN	308	5	56	1	120	220	320	NaN	520	0.252344669774175	1	1	NaN	3718518.9506885	NaN	3718519.9340766	3718520.45063573
99	21	0	0	90	36.1581920903955	36.241610738255	9	0.300020184013993	2	10	2	NaN	2	3	0.0741725096291569	0	1	NaN	309	5	57	1	120	220	320	NaN	520	0.247294021770358	1	0	NaN	3718521.8676484	NaN	3718522.851036	3718523.36759258
99	21	0	0	90	36.1581920903955	36.241610738255	24	0.800053824037313	2	4	5	NaN	1	5	0.0741725096291569	0	1	NaN	310	5	58	1	120	220	320	NaN	520	0.240404694806784	1	1	NaN	3718524.4345547	NaN	3718525.4179491	3718525.93452221
99	21	0	0	90	36.1581920903955	36.241610738255	16	0.533369216024876	2	9	3	NaN	2	4	0.0741725096291569	0	1	NaN	311	5	59	1	120	220	320	NaN	520	0.218110573943704	2	1	NaN	3718526.9846877	NaN	3718527.9682049	3718528.48476633
99	21	0	0	90	36.1581920903955	36.241610738255	12	0.400026912018657	2	3	2	NaN	1	5	0.0741725096291569	0	1	NaN	312	5	60	1	120	220	320	NaN	520	0.244534721598029	1	1	NaN	3718529.5183987	NaN	3718530.5017477	3718531.01834378
99	21	0	0	90	36.1581920903955	36.241610738255	10	0.333355760015547	2	1	5	NaN	1	4	0.0741725096291569	0	1	NaN	313	5	61	1	120	220	320	NaN	520	0.117727169767022	2	0	NaN	3718532.0853091	NaN	3718533.0686851	3718533.58526563
99	21	0	0	90	36.1581920903955	36.241610738255	24	0.800053824037313	2	12	3	NaN	2	3	0.0741725096291569	0	1	NaN	314	5	62	1	120	220	320	NaN	520	0.172307869419456	2	1	NaN	3718534.5188207	NaN	3718535.5023202	3718536.01883093
99	21	0	0	90	36.1581920903955	36.241610738255	18	0.600040368027985	2	8	4	NaN	2	5	0.0741725096291569	0	1	NaN	315	5	63	1	120	220	320	NaN	520	0.152589121367782	2	1	NaN	3718537.0024564	NaN	3718537.9858854	3718538.50241338
99	21	0	0	90	36.1581920903955	36.241610738255	14	0.466698064021766	2	10	6	NaN	2	4	0.0741725096291569	0	1	NaN	316	6	1	1	120	220	320	NaN	520	0.302697769366205	2	1	NaN	3718567.7721436	NaN	3718568.7555586	3718569.27210213
99	21	0	0	90	36.1581920903955	36.241610738255	7	0.233349032010883	2	7	1	NaN	2	4	0.0741725096291569	0	1	NaN	317	6	2	1	120	220	320	NaN	520	0.302084921859205	2	1	NaN	3718570.3889482	NaN	3718571.3725003	3718571.88902398
99	21	0	0	90	36.1581920903955	36.241610738255	6	0.200013456009328	2	6	2	NaN	1	3	0.0741725096291569	0	1	NaN	318	6	3	1	120	220	320	NaN	520	0.197154921479523	1	1	NaN	3718573.0059947	NaN	3718573.9893953	3718574.50596528
99	21	0	0	90	36.1581920903955	36.241610738255	25	0.833389400038868	2	7	5	NaN	2	3	0.0741725096291569	0	1	NaN	319	6	4	1	120	220	320	NaN	520	0.160896421410143	2	1	NaN	3718575.5061369	NaN	3718576.4896306	3718577.00619538
99	21	0	0	90	36.1581920903955	36.241610738255	18	0.600040368027985	2	7	3	NaN	2	5	0.0741725096291569	0	1	NaN	320	6	5	1	120	220	320	NaN	520	0.229056021664292	2	1	NaN	3718577.9898074	NaN	3718578.9732189	3718579.48977198
99	21	0	0	90	36.1581920903955	36.241610738255	14	0.466698064021766	2	8	3	NaN	2	5	0.0741725096291569	0	1	NaN	321	6	6	1	120	220	320	NaN	520	0.0949771218001842	2	1	NaN	3718580.5400835	NaN	3718581.5234381	3718582.04002318
99	21	0	0	90	36.1581920903955	36.241610738255	9	0.300020184013993	2	11	4	NaN	2	4	0.0741725096291569	0	1	NaN	322	6	7	1	120	220	320	NaN	520	0.0620884215459228	2	1	NaN	3718582.9569861	NaN	3718583.9403639	3718584.45693118
99	21	0	0	90	36.1581920903955	36.241610738255	8	0.266684608012438	2	6	5	NaN	1	4	0.0741725096291569	0	1	NaN	323	6	8	1	120	220	320	NaN	520	0.942691717296839	1	1	NaN	3718585.3405572	NaN	3718586.3239416	3718586.84049178
99	21	0	0	90	36.1581920903955	36.241610738255	24	0.800053824037313	2	9	2	NaN	2	4	0.0741725096291569	0	1	NaN	324	6	9	1	120	220	320	NaN	520	0.221510721836239	2	1	NaN	3718588.9574653	NaN	3718589.9409571	3718590.45751958
99	21	0	0	90	36.1581920903955	36.241610738255	8	0.266684608012438	2	1	3	NaN	1	3	0.0741725096291569	0	1	NaN	325	6	10	1	120	220	320	NaN	520	0.0959094166755676	2	0	NaN	3718591.4911502	NaN	3718592.474533	3718592.99109338
99	21	0	0	90	36.1581920903955	36.241610738255	0	0	1	9	6	NaN	2	5	0.0741725096291569	0	1	NaN	326	6	11	1	110	210	310	NaN	510	0.270939521491528	2	1	NaN	3718593.908051	NaN	3718594.8914422	3718595.40800208
99	21	0	0	90	36.1581920903955	36.241610738255	12	0.400026912018657	2	8	1	NaN	2	5	0.0741725096291569	0	1	NaN	327	6	12	1	120	220	320	NaN	520	0.183487564325333	2	1	NaN	3718596.4916822	NaN	3718597.4750268	3718597.99159384
99	21	0	0	90	36.1581920903955	36.241610738255	17	0.56670479202643	2	10	6	NaN	2	4	0.0741725096291569	0	1	NaN	328	6	13	1	120	220	320	NaN	520	0.139119016937912	2	1	NaN	3718598.9918713	NaN	3718599.9752735	3718600.49183118
99	21	0	0	90	36.1581920903955	36.241610738255	12	0.400026912018657	2	12	1	NaN	2	3	0.0741725096291569	0	1	NaN	329	6	14	1	120	220	320	NaN	520	0.188544769305736	2	1	NaN	3718601.7421772	NaN	3718602.7255628	3718603.24210363
99	21	0	0	90	36.1581920903955	36.241610738255	23	0.766718248035759	2	12	3	NaN	2	5	0.0741725096291569	0	1	NaN	330	6	15	1	120	220	320	NaN	520	0.219129669480026	2	1	NaN	3718604.5756423	NaN	3718605.5591562	3718606.07572063
99	21	0	0	90	36.1581920903955	36.241610738255	10	0.333355760015547	2	5	5	NaN	1	5	0.0741725096291569	0	1	NaN	331	6	16	1	120	220	320	NaN	520	0.286100821569562	2	0	NaN	3718607.1093438	NaN	3718608.092742	3718608.60929668
99	21	0	0	90	36.1581920903955	36.241610738255	19	0.63337594402954	2	3	3	NaN	1	4	0.0741725096291569	0	1	NaN	332	6	17	1	120	220	320	NaN	520	0.125557421706617	1	1	NaN	3718609.7095763	NaN	3718610.6930104	3718611.20954958
99	21	0	0	90	36.1581920903955	36.241610738255	25	0.833389400038868	2	1	3	NaN	1	5	0.0741725096291569	0	1	NaN	333	6	18	1	120	220	320	NaN	520	0.339955969247967	2	0	NaN	3718612.1431691	NaN	3718613.1265738	3718613.64311823
99	21	0	0	90	36.1581920903955	36.241610738255	16	0.533369216024876	2	6	2	NaN	1	3	0.0741725096291569	0	1	NaN	334	6	19	1	120	220	320	NaN	520	0.153609069529921	1	1	NaN	3718614.7934343	NaN	3718615.776828	3718616.29338483
99	21	0	0	90	36.1581920903955	36.241610738255	22	0.733382672034204	2	9	3	NaN	2	4	0.0741725096291569	0	1	NaN	335	6	20	1	120	220	320	NaN	520	0.390902522020042	1	0	NaN	3718617.2603393	NaN	3718618.2437459	3718618.76029828
99	21	0	0	90	36.1581920903955	36.241610738255	7	0.233349032010883	2	4	4	NaN	1	5	0.0741725096291569	0	1	NaN	336	6	21	1	120	220	320	NaN	520	0.177874221932143	2	0	NaN	3718619.9772829	NaN	3718620.9606789	3718621.47722978
99	21	0	0	90	36.1581920903955	36.241610738255	9	0.300020184013993	2	2	4	NaN	1	3	0.0741725096291569	0	1	NaN	337	6	22	1	120	220	320	NaN	520	0.26145532168448	2	0	NaN	3718622.4775299	NaN	3718623.4609059	3718623.97747558
99	21	0	0	90	36.1581920903955	36.241610738255	8	0.266684608012438	2	9	6	NaN	2	3	0.0741725096291569	0	1	NaN	338	6	23	1	120	220	320	NaN	520	0.294077016878873	2	1	NaN	3718625.0611042	NaN	3718626.0445107	3718626.56105388
99	21	0	0	90	36.1581920903955	36.241610738255	21	0.700047096032649	2	1	1	NaN	1	3	0.0741725096291569	0	1	NaN	339	6	24	1	120	220	320	NaN	520	0.293945621699095	2	0	NaN	3718627.6613676	NaN	3718628.6447516	3718629.16131888
99	21	0	0	90	36.1581920903955	36.241610738255	8	0.266684608012438	2	10	1	NaN	2	3	0.0741725096291569	0	1	NaN	340	6	25	1	120	220	320	NaN	520	0.356877869926393	1	0	NaN	3718630.2782465	NaN	3718631.2617069	3718631.77824053
99	21	0	0	90	36.1581920903955	36.241610738255	21	0.700047096032649	2	8	5	NaN	2	4	0.0741725096291569	0	1	NaN	341	6	26	1	120	220	320	NaN	520	0.275504021439701	1	0	NaN	3718633.3118937	NaN	3718634.2953156	3718634.81187758
99	21	0	0	90	36.1581920903955	36.241610738255	7	0.233349032010883	2	7	3	NaN	2	5	0.0741725096291569	0	1	NaN	342	6	27	1	120	220	320	NaN	520	0.195443321485072	2	1	NaN	3718635.8954951	NaN	3718636.8789023	3718637.39545568
99	21	0	0	90	36.1581920903955	36.241610738255	13	0.433362488020211	2	11	1	NaN	2	3	0.0741725096291569	0	1	NaN	343	6	28	1	120	220	320	NaN	520	0.182663321960717	2	1	NaN	3718638.4123121	NaN	3718639.395858	3718639.91237758
99	21	0	0	90	36.1581920903955	36.241610738255	7	0.233349032010883	2	5	6	NaN	1	5	0.0741725096291569	0	1	NaN	344	6	29	1	120	220	320	NaN	520	0.248729821760207	1	1	NaN	3718641.1625655	NaN	3718642.1460947	3718642.66264268
99	21	0	0	90	36.1581920903955	36.241610738255	23	0.766718248035759	2	12	4	NaN	2	3	0.0741725096291569	0	1	NaN	345	6	30	1	120	220	320	NaN	520	0.201686221640557	2	1	NaN	3718643.7296063	NaN	3718644.713004	3718645.22956388
99	21	0	0	90	36.1581920903955	36.241610738255	13	0.433362488020211	2	3	4	NaN	1	3	0.0741725096291569	0	1	NaN	346	6	31	1	120	220	320	NaN	520	0.26894272165373	2	0	NaN	3718646.2465297	NaN	3718647.2299154	3718647.74647698
99	21	0	0	90	36.1581920903955	36.241610738255	24	0.800053824037313	2	12	2	NaN	2	3	0.0741725096291569	0	1	NaN	347	6	32	1	120	220	320	NaN	520	0.221239421516657	2	1	NaN	3718648.8300969	NaN	3718649.8135429	3718650.33005818
99	21	0	0	90	36.1581920903955	36.241610738255	7	0.233349032010883	2	8	6	NaN	2	3	0.0741725096291569	0	1	NaN	348	6	33	1	120	220	320	NaN	520	0.142973221372813	1	0	NaN	3718651.3803446	NaN	3718652.3637589	3718652.88031238
99	21	0	0	90	36.1581920903955	36.241610738255	22	0.733382672034204	2	4	3	NaN	1	4	0.0741725096291569	0	1	NaN	349	6	34	1	120	220	320	NaN	520	0.215343221556395	2	0	NaN	3718654.1639402	NaN	3718655.1473676	3718655.66392208
99	21	0	0	90	36.1581920903955	36.241610738255	8	0.266684608012438	2	8	2	NaN	2	3	0.0741725096291569	0	1	NaN	350	6	35	1	120	220	320	NaN	520	0.19385532150045	2	1	NaN	3718656.6975744	NaN	3718657.6809481	3718658.19750808
99	21	0	0	90	36.1581920903955	36.241610738255	17	0.56670479202643	2	4	1	NaN	1	4	0.0741725096291569	0	1	NaN	351	6	36	1	120	220	320	NaN	520	0.285682221874595	1	1	NaN	3718659.1976956	NaN	3718660.1812063	3718660.69774148
99	21	0	0	90	36.1581920903955	36.241610738255	24	0.800053824037313	2	6	5	NaN	1	4	0.0741725096291569	0	1	NaN	352	6	37	1	120	220	320	NaN	520	0.48511412134394	1	1	NaN	3718661.7979295	NaN	3718662.7814432	3718663.29802378
99	21	0	0	90	36.1581920903955	36.241610738255	19	0.63337594402954	2	6	3	NaN	1	4	0.0741725096291569	0	1	NaN	353	6	38	1	120	220	320	NaN	520	0.373719669878483	1	1	NaN	3718664.5984179	NaN	3718665.5817242	3718666.09827483
99	21	0	0	90	36.1581920903955	36.241610738255	25	0.833389400038868	2	8	3	NaN	2	3	0.0741725096291569	0	1	NaN	354	6	39	1	120	220	320	NaN	520	0.233618169557303	2	1	NaN	3718667.2819475	NaN	3718668.2653181	3718668.78187803
99	21	0	0	90	36.1581920903955	36.241610738255	7	0.233349032010883	2	6	6	NaN	1	4	0.0741725096291569	0	1	NaN	355	6	40	1	120	220	320	NaN	520	1.74694582168013	1	1	NaN	3718669.8321764	NaN	3718670.8155653	3718671.33212988
99	21	0	0	90	36.1581920903955	36.241610738255	25	0.833389400038868	2	1	2	NaN	1	3	0.0741725096291569	0	1	NaN	356	6	41	1	120	220	320	NaN	520	0.240310221910477	2	0	NaN	3718673.8992196	NaN	3718674.8826372	3718675.39918858
99	21	0	0	90	36.1581920903955	36.241610738255	9	0.300020184013993	2	5	4	NaN	1	4	0.0741725096291569	0	1	NaN	357	6	42	1	120	220	320	NaN	520	0.457499821670353	1	1	NaN	3718676.4495065	NaN	3718677.4328895	3718677.94944748
99	21	0	0	90	36.1581920903955	36.241610738255	18	0.600040368027985	2	12	6	NaN	2	4	0.0741725096291569	0	1	NaN	358	6	43	1	120	220	320	NaN	520	0.274975821841508	2	1	NaN	3718679.2164212	NaN	3718680.1998277	3718680.71637868
99	21	0	0	90	36.1581920903955	36.241610738255	23	0.766718248035759	2	3	4	NaN	1	4	0.0741725096291569	0	1	NaN	359	6	44	1	120	220	320	NaN	520	0.0104038217104971	1	1	NaN	3718681.9167022	NaN	3718682.9001542	3718683.41664758
99	21	0	0	90	36.1581920903955	36.241610738255	23	0.766718248035759	2	6	5	NaN	1	3	0.0741725096291569	0	1	NaN	360	6	45	1	120	220	320	NaN	520	0.297813921701163	1	1	NaN	3718684.2335681	NaN	3718685.2169837	3718685.73353998
99	21	0	0	90	36.1581920903955	36.241610738255	21	0.700047096032649	2	1	3	NaN	1	3	0.0741725096291569	0	1	NaN	361	6	46	1	120	220	320	NaN	520	0.624439521692693	2	0	NaN	3718686.8503966	NaN	3718687.8339008	3718688.35047118
99	21	0	0	90	36.1581920903955	36.241610738255	10	0.333355760015547	2	6	3	NaN	1	4	0.0741725096291569	0	1	NaN	362	6	47	1	120	220	320	NaN	520	0.235400469508022	2	0	NaN	3718689.7841214	NaN	3718690.7675138	3718691.28408783
99	21	0	0	90	36.1581920903955	36.241610738255	23	0.766718248035759	2	8	2	NaN	2	4	0.0741725096291569	0	1	NaN	363	6	48	1	120	220	320	NaN	520	0.484855069313198	2	1	NaN	3718692.334241	NaN	3718693.3177778	3718693.83433673
99	21	0	0	90	36.1581920903955	36.241610738255	6	0.200013456009328	2	10	4	NaN	2	5	0.0741725096291569	0	1	NaN	364	6	49	1	120	220	320	NaN	520	0.236827669665217	2	1	NaN	3718695.1346755	NaN	3718696.1180519	3718696.63461643
99	21	0	0	90	36.1581920903955	36.241610738255	10	0.333355760015547	2	10	3	NaN	2	4	0.0741725096291569	0	1	NaN	365	6	50	1	120	220	320	NaN	520	0.206345916725695	2	1	NaN	3718697.6848984	NaN	3718698.6682897	3718699.18486068
99	21	0	0	90	36.1581920903955	36.241610738255	23	0.766718248035759	2	10	5	NaN	2	3	0.0741725096291569	0	1	NaN	366	6	51	1	120	220	320	NaN	520	0.409479921683669	2	1	NaN	3718700.2018162	NaN	3718701.1852114	3718701.70178158
99	21	0	0	90	36.1581920903955	36.241610738255	18	0.600040368027985	2	3	6	NaN	1	3	0.0741725096291569	0	1	NaN	367	6	52	1	120	220	320	NaN	520	0.164689721539617	2	0	NaN	3718702.9187493	NaN	3718703.902153	3718704.41871298
99	21	0	0	90	36.1581920903955	36.241610738255	23	0.766718248035759	2	8	2	NaN	2	3	0.0741725096291569	0	1	NaN	368	6	53	1	120	220	320	NaN	520	0.241095626726747	2	1	NaN	3718705.4023614	NaN	3718706.3857407	3718706.90229517
99	21	0	0	90	36.1581920903955	36.241610738255	17	0.56670479202643	2	5	2	NaN	1	5	0.0741725096291569	0	1	NaN	369	6	54	1	120	220	320	NaN	520	0.0104095693677664	2	0	NaN	3718707.9525688	NaN	3718708.9359931	3718709.45253443
99	21	0	0	90	36.1581920903955	36.241610738255	16	0.533369216024876	2	3	5	NaN	1	5	0.0741725096291569	0	1	NaN	370	6	55	1	120	220	320	NaN	520	0.133336021564901	1	1	NaN	3718710.2861388	NaN	3718711.2695274	3718711.78609838
99	21	0	0	90	36.1581920903955	36.241610738255	8	0.266684608012438	2	7	3	NaN	2	5	0.0741725096291569	0	1	NaN	371	6	56	1	120	220	320	NaN	520	0.1110501694493	2	1	NaN	3718713.0363869	NaN	3718714.0198134	3718714.53636893
99	21	0	0	90	36.1581920903955	36.241610738255	13	0.433362488020211	2	11	4	NaN	2	4	0.0741725096291569	0	1	NaN	372	6	57	1	120	220	320	NaN	520	0.285552116576582	2	1	NaN	3718715.4699972	NaN	3718716.4533751	3718716.96993738
99	21	0	0	90	36.1581920903955	36.241610738255	24	0.800053824037313	2	7	5	NaN	2	3	0.0741725096291569	0	1	NaN	373	6	58	1	120	220	320	NaN	520	0.236929421778768	2	1	NaN	3718718.0702387	NaN	3718719.0536441	3718719.57021958
99	21	0	0	90	36.1581920903955	36.241610738255	25	0.833389400038868	2	11	5	NaN	2	4	0.0741725096291569	0	1	NaN	374	6	59	1	120	220	320	NaN	520	0.407269069459289	2	1	NaN	3718721.0038431	NaN	3718721.987264	3718722.50381663
99	21	0	0	90	36.1581920903955	36.241610738255	17	0.56670479202643	2	2	6	NaN	1	3	0.0741725096291569	0	1	NaN	375	6	60	1	120	220	320	NaN	520	0.634025769308209	2	0	NaN	3718723.7207876	NaN	3718724.7042469	3718725.22075083
99	21	0	0	90	36.1581920903955	36.241610738255	18	0.600040368027985	2	3	5	NaN	1	4	0.0741725096291569	0	1	NaN	376	6	61	1	120	220	320	NaN	520	0.25416492158547	1	1	NaN	3718727.021124	NaN	3718728.0045161	3718728.52107558
99	21	0	0	90	36.1581920903955	36.241610738255	24	0.800053824037313	2	9	2	NaN	2	4	0.0741725096291569	0	1	NaN	377	6	62	1	120	220	320	NaN	520	0.239055316895247	2	1	NaN	3718729.5880866	NaN	3718730.5714401	3718731.08799668
99	21	0	0	90	36.1581920903955	36.241610738255	16	0.533369216024876	2	1	5	NaN	1	4	0.0741725096291569	0	1	NaN	378	6	63	1	120	220	320	NaN	520	0.26490812189877	2	0	NaN	3718732.1381973	NaN	3718733.1217175	3718733.63824978
99	21	0	0	90	36.1581920903955	36.241610738255	20	0.666711520031095	2	11	1	NaN	2	4	0.0741725096291569	0	1	NaN	379	7	1	1	120	220	320	NaN	520	0.394443021621555	2	1	NaN	3718813.1129226	NaN	3718814.0963333	3718814.61286398
99	21	0	0	90	36.1581920903955	36.241610738255	25	0.833389400038868	2	12	5	NaN	2	4	0.0741725096291569	0	1	NaN	380	7	2	1	120	220	320	NaN	520	0.493831521831453	2	1	NaN	3718815.8131588	NaN	3718816.7965878	3718817.31313508
99	21	0	0	90	36.1581920903955	36.241610738255	8	0.266684608012438	2	1	6	NaN	1	5	0.0741725096291569	0	1	NaN	381	7	3	1	120	220	320	NaN	520	0.293457721825689	2	0	NaN	3718818.6301265	NaN	3718819.6135321	3718820.13007538
99	21	0	0	90	36.1581920903955	36.241610738255	15	0.500033640023321	2	2	2	NaN	1	3	0.0741725096291569	0	1	NaN	382	7	4	1	120	220	320	NaN	520	0.534992516972125	2	0	NaN	3718821.5803864	NaN	3718822.5638082	3718823.08036858
99	21	0	0	90	36.1581920903955	36.241610738255	16	0.533369216024876	2	2	4	NaN	1	3	0.0741725096291569	0	1	NaN	383	7	5	1	120	220	320	NaN	520	0.231668221764266	1	1	NaN	3718824.7472555	NaN	3718825.7307703	3718826.24734428
99	21	0	0	90	36.1581920903955	36.241610738255	0	0	1	1	3	NaN	1	5	0.0741725096291569	0	1	NaN	384	7	6	1	110	210	310	NaN	510	0.282618369441479	2	0	NaN	3718827.2809752	NaN	3718828.2643738	3718828.78092423
99	21	0	0	90	36.1581920903955	36.241610738255	18	0.600040368027985	2	9	6	NaN	2	5	0.0741725096291569	0	1	NaN	385	7	7	1	120	220	320	NaN	520	0.378094689920545	2	1	NaN	3718829.8811094	NaN	3718830.8646271	3718831.38119411
99	21	0	0	90	36.1581920903955	36.241610738255	24	0.800053824037313	2	1	3	NaN	1	5	0.0741725096291569	0	1	NaN	386	7	8	1	120	220	320	NaN	520	0.438573721796274	1	1	NaN	3718832.56482	NaN	3718833.5482174	3718834.06477808
99	21	0	0	90	36.1581920903955	36.241610738255	12	0.400026912018657	2	2	4	NaN	1	3	0.0741725096291569	0	1	NaN	387	7	9	1	120	220	320	NaN	520	0.264220616780221	1	1	NaN	3718835.3151037	NaN	3718836.2985079	3718836.81503838
99	21	0	0	90	36.1581920903955	36.241610738255	14	0.466698064021766	2	1	5	NaN	1	3	0.0741725096291569	0	1	NaN	388	7	10	1	120	220	320	NaN	520	0.256747769657522	2	0	NaN	3718837.8985501	NaN	3718838.8820876	3718839.39864263
99	21	0	0	90	36.1581920903955	36.241610738255	6	0.200013456009328	2	9	2	NaN	2	3	0.0741725096291569	0	1	NaN	389	7	11	1	120	220	320	NaN	520	0.305985521990806	2	1	NaN	3718840.4655951	NaN	3718841.4490022	3718841.96555568
99	21	0	0	90	36.1581920903955	36.241610738255	14	0.466698064021766	2	11	5	NaN	2	4	0.0741725096291569	0	1	NaN	390	7	12	1	120	220	320	NaN	520	0.384958521462977	2	1	NaN	3718843.0825241	NaN	3718844.0659316	3718844.58248148
99	21	0	0	90	36.1581920903955	36.241610738255	19	0.63337594402954	2	2	3	NaN	1	4	0.0741725096291569	0	1	NaN	391	7	13	1	120	220	320	NaN	520	0.404636521358043	2	0	NaN	3718845.7828155	NaN	3718846.7662074	3718847.28274218
99	21	0	0	90	36.1581920903955	36.241610738255	19	0.63337594402954	2	9	6	NaN	2	3	0.0741725096291569	0	1	NaN	392	7	14	1	120	220	320	NaN	520	0.471662821713835	2	1	NaN	3718848.4997177	NaN	3718849.483122	3718849.99967908
99	21	0	0	90	36.1581920903955	36.241610738255	24	0.800053824037313	2	10	3	NaN	2	4	0.0741725096291569	0	1	NaN	393	7	15	1	120	220	320	NaN	520	0.400088716764003	2	1	NaN	3718851.283341	NaN	3718852.2667265	3718852.78327748
99	21	0	0	90	36.1581920903955	36.241610738255	10	0.333355760015547	2	1	6	NaN	1	4	0.0741725096291569	0	1	NaN	394	7	16	1	120	220	320	NaN	520	0.179232921916991	2	0	NaN	3718854.0002628	NaN	3718854.9836528	3718855.50022018
99	21	0	0	90	36.1581920903955	36.241610738255	15	0.500033640023321	2	4	3	NaN	1	3	0.0741725096291569	0	1	NaN	395	7	17	1	120	220	320	NaN	520	1.06282594194636	2	0	NaN	3718856.5005173	NaN	3718857.4838821	3718858.00046476
99	21	0	0	90	36.1581920903955	36.241610738255	9	0.300020184013993	2	7	5	NaN	2	3	0.0741725096291569	0	1	NaN	396	7	18	1	120	220	320	NaN	520	0.287887269165367	2	1	NaN	3718859.8674979	NaN	3718860.8509063	3718861.36746163
99	21	0	0	90	36.1581920903955	36.241610738255	0	0	1	8	1	NaN	2	3	0.0741725096291569	0	1	NaN	397	7	19	1	110	210	310	NaN	510	0.279840969480574	1	0	NaN	3718862.467776	NaN	3718863.4511691	3718863.96771313
99	21	0	0	90	36.1581920903955	36.241610738255	25	0.833389400038868	2	10	1	NaN	2	4	0.0741725096291569	0	1	NaN	398	7	20	1	120	220	320	NaN	520	7.52741426974535	2	1	NaN	3718865.0680596	NaN	3718866.0514229	3718866.56796473
99	21	0	0	90	36.1581920903955	36.241610738255	7	0.233349032010883	2	4	4	NaN	1	5	0.0741725096291569	0	1	NaN	399	7	21	1	120	220	320	NaN	520	0.653487969189882	2	0	NaN	3718874.9022435	NaN	3718875.8857117	3718876.40227153
99	21	0	0	90	36.1581920903955	36.241610738255	23	0.766718248035759	2	5	4	NaN	1	4	0.0741725096291569	0	1	NaN	400	7	22	1	120	220	320	NaN	520	0.190138784702867	2	0	NaN	3718877.8692902	NaN	3718878.8526822	3718879.36923362
99	21	0	0	90	36.1581920903955	36.241610738255	19	0.63337594402954	2	8	6	NaN	2	3	0.0741725096291569	0	1	NaN	401	7	23	1	120	220	320	NaN	520	0.305800769943744	1	0	NaN	3718880.3695222	NaN	3718881.352927	3718881.86947893
99	21	0	0	90	36.1581920903955	36.241610738255	16	0.533369216024876	2	11	4	NaN	2	4	0.0741725096291569	0	1	NaN	402	7	24	1	120	220	320	NaN	520	0.289102021604776	2	1	NaN	3718882.9864819	NaN	3718883.9698503	3718884.48640558
99	21	0	0	90	36.1581920903955	36.241610738255	20	0.666711520031095	2	10	1	NaN	2	5	0.0741725096291569	0	1	NaN	403	7	25	1	120	220	320	NaN	520	0.520868979394436	2	1	NaN	3718885.5867002	NaN	3718886.5700922	3718887.08664682
99	21	0	0	90	36.1581920903955	36.241610738255	12	0.400026912018657	2	1	2	NaN	1	5	0.0741725096291569	0	1	NaN	404	7	26	1	120	220	320	NaN	520	0.359432569239289	2	0	NaN	3718888.4203152	NaN	3718889.403712	3718889.92026103
99	21	0	0	90	36.1581920903955	36.241610738255	8	0.266684608012438	2	3	3	NaN	1	5	0.0741725096291569	0	1	NaN	405	7	27	1	120	220	320	NaN	520	0.268282421864569	1	1	NaN	3718891.0872484	NaN	3718892.0706382	3718892.58718818
99	21	0	0	90	36.1581920903955	36.241610738255	16	0.533369216024876	2	11	1	NaN	2	3	0.0741725096291569	0	1	NaN	406	7	28	1	120	220	320	NaN	520	0.256020169239491	2	1	NaN	3718894.5876783	NaN	3718895.5709721	3718896.08753543
99	21	0	0	90	36.1581920903955	36.241610738255	16	0.533369216024876	2	3	4	NaN	1	4	0.0741725096291569	0	1	NaN	407	7	29	1	120	220	320	NaN	520	0.331716921646148	2	0	NaN	3718897.4878557	NaN	3718898.471261	3718898.98782398
99	21	0	0	90	36.1581920903955	36.241610738255	20	0.666711520031095	2	12	6	NaN	2	3	0.0741725096291569	0	1	NaN	408	7	30	1	120	220	320	NaN	520	0.196025669574738	2	1	NaN	3718900.471496	NaN	3718901.4548861	3718901.97144543
99	21	0	0	90	36.1581920903955	36.241610738255	12	0.400026912018657	2	5	6	NaN	1	5	0.0741725096291569	0	1	NaN	409	7	31	1	120	220	320	NaN	520	0.263217169325799	2	0	NaN	3718902.9883817	NaN	3718903.9717876	3718904.48835483
99	21	0	0	90	36.1581920903955	36.241610738255	10	0.333355760015547	2	5	5	NaN	1	3	0.0741725096291569	0	1	NaN	410	7	32	1	120	220	320	NaN	520	0.278865716885775	1	1	NaN	3718905.9886727	NaN	3718906.9720904	3718907.48865758
99	21	0	0	90	36.1581920903955	36.241610738255	22	0.733382672034204	2	1	1	NaN	1	3	0.0741725096291569	0	1	NaN	411	7	33	1	120	220	320	NaN	520	0.344796821475029	2	0	NaN	3718908.939008	NaN	3718909.9223981	3718910.43894128
99	21	0	0	90	36.1581920903955	36.241610738255	9	0.300020184013993	2	11	6	NaN	2	4	0.0741725096291569	0	1	NaN	412	7	34	1	120	220	320	NaN	520	0.302200469654053	2	1	NaN	3718911.5892451	NaN	3718912.5726653	3718913.08920123
99	21	0	0	90	36.1581920903955	36.241610738255	22	0.733382672034204	2	10	2	NaN	2	5	0.0741725096291569	0	1	NaN	413	7	35	1	120	220	320	NaN	520	0.077333269175142	2	1	NaN	3718914.2060762	NaN	3718915.1895702	3718915.70612493
99	21	0	0	90	36.1581920903955	36.241610738255	9	0.300020184013993	2	9	3	NaN	2	3	0.0741725096291569	0	1	NaN	414	7	36	1	120	220	320	NaN	520	0.159245716873556	2	1	NaN	3718916.9563343	NaN	3718917.9398497	3718918.45639238
99	21	0	0	90	36.1581920903955	36.241610738255	9	0.300020184013993	2	8	4	NaN	2	5	0.0741725096291569	0	1	NaN	415	7	37	1	120	220	320	NaN	520	0.165438617113978	2	1	NaN	3718919.7900248	NaN	3718920.773452	3718921.29000848
99	21	0	0	90	36.1581920903955	36.241610738255	22	0.733382672034204	2	1	2	NaN	1	4	0.0741725096291569	0	1	NaN	416	7	38	1	120	220	320	NaN	520	0.113941121846437	2	0	NaN	3718922.2736296	NaN	3718923.2570367	3718923.77359178
99	21	0	0	90	36.1581920903955	36.241610738255	8	0.266684608012438	2	11	4	NaN	2	3	0.0741725096291569	0	1	NaN	417	7	39	1	120	220	320	NaN	520	0.194969694595784	2	1	NaN	3718925.0399037	NaN	3718926.0239654	3718926.54053541
99	21	0	0	90	36.1581920903955	36.241610738255	25	0.833389400038868	2	4	2	NaN	1	3	0.0741725096291569	0	1	NaN	418	7	40	1	120	220	320	NaN	520	0.238887921441346	2	0	NaN	3718927.9408242	NaN	3718928.9242658	3718929.44081488
99	21	0	0	90	36.1581920903955	36.241610738255	10	0.333355760015547	2	4	2	NaN	1	5	0.0741725096291569	0	1	NaN	419	7	41	1	120	220	320	NaN	520	0.312650379724801	2	0	NaN	3718930.8911171	NaN	3718931.8745434	3718932.39110502
99	21	0	0	90	36.1581920903955	36.241610738255	6	0.200013456009328	2	4	2	NaN	1	3	0.0741725096291569	0	1	NaN	420	7	42	1	120	220	320	NaN	520	0.281917169690132	1	1	NaN	3718933.8414662	NaN	3718934.824866	3718935.34139033
99	21	0	0	90	36.1581920903955	36.241610738255	10	0.333355760015547	2	3	6	NaN	1	3	0.0741725096291569	0	1	NaN	421	7	43	1	120	220	320	NaN	520	0.227812484838068	2	0	NaN	3718936.791751	NaN	3718937.7751326	3718938.29168732
99	21	0	0	90	36.1581920903955	36.241610738255	21	0.700047096032649	2	4	4	NaN	1	5	0.0741725096291569	0	1	NaN	422	7	44	1	120	220	320	NaN	520	0.373535464052111	2	0	NaN	3718939.341974	NaN	3718940.3253823	3718940.84192484
99	21	0	0	90	36.1581920903955	36.241610738255	10	0.333355760015547	2	7	1	NaN	2	4	0.0741725096291569	0	1	NaN	423	7	45	1	120	220	320	NaN	520	0.19419452175498	1	0	NaN	3718942.0255798	NaN	3718943.0089773	3718943.52553088
99	21	0	0	90	36.1581920903955	36.241610738255	18	0.600040368027985	2	9	1	NaN	2	4	0.0741725096291569	0	1	NaN	424	7	46	1	120	220	320	NaN	520	0.14992436952889	2	1	NaN	3718944.5258357	NaN	3718945.5092207	3718946.02577063
99	21	0	0	90	36.1581920903955	36.241610738255	21	0.700047096032649	2	7	4	NaN	2	3	0.0741725096291569	0	1	NaN	425	7	47	1	120	220	320	NaN	520	0.010401769541204	2	1	NaN	3718946.9926103	NaN	3718947.9761333	3718948.49267863
99	21	0	0	90	36.1581920903955	36.241610738255	14	0.466698064021766	2	2	1	NaN	1	3	0.0741725096291569	0	1	NaN	426	7	48	1	120	220	320	NaN	520	0.0636351695284247	2	0	NaN	3718949.6596223	NaN	3718950.6430566	3718951.15960813
99	21	0	0	90	36.1581920903955	36.241610738255	20	0.666711520031095	2	6	2	NaN	1	5	0.0741725096291569	0	1	NaN	427	7	49	1	120	220	320	NaN	520	0.176586921792477	1	1	NaN	3718952.0433211	NaN	3718953.026633	3718953.54318298
99	21	0	0	90	36.1581920903955	36.241610738255	12	0.400026912018657	2	3	6	NaN	1	5	0.0741725096291569	0	1	NaN	428	7	50	1	120	220	320	NaN	520	0.341072721406817	2	0	NaN	3718954.5268392	NaN	3718955.5102049	3718956.02675968
99	21	0	0	90	36.1581920903955	36.241610738255	15	0.500033640023321	2	10	4	NaN	2	3	0.0741725096291569	0	1	NaN	429	7	51	1	120	220	320	NaN	520	0.218554869759828	2	1	NaN	3718957.1770672	NaN	3718958.1604685	3718958.67701463
99	21	0	0	90	36.1581920903955	36.241610738255	10	0.333355760015547	2	9	4	NaN	2	5	0.0741725096291569	0	1	NaN	430	7	52	1	120	220	320	NaN	520	0.180860469117761	2	1	NaN	3718959.7106526	NaN	3718960.6940334	3718961.21059573
99	21	0	0	90	36.1581920903955	36.241610738255	22	0.733382672034204	2	10	2	NaN	2	4	0.0741725096291569	0	1	NaN	431	7	53	1	120	220	320	NaN	520	0.19253366952762	1	0	NaN	3718962.2108178	NaN	3718963.1943494	3718963.71084953
99	21	0	0	90	36.1581920903955	36.241610738255	14	0.466698064021766	2	7	6	NaN	2	3	0.0741725096291569	0	1	NaN	432	7	54	1	120	220	320	NaN	520	0.11661316966638	2	1	NaN	3718964.7110046	NaN	3718965.6946122	3718966.21108473
99	21	0	0	90	36.1581920903955	36.241610738255	17	0.56670479202643	2	8	5	NaN	2	3	0.0741725096291569	0	1	NaN	433	7	55	1	120	220	320	NaN	520	0.251023317221552	2	1	NaN	3718967.1447037	NaN	3718968.1281109	3718968.64465358
99	21	0	0	90	36.1581920903955	36.241610738255	9	0.300020184013993	2	4	5	NaN	1	3	0.0741725096291569	0	1	NaN	434	7	56	1	120	220	320	NaN	520	0.235747022088617	1	1	NaN	3718969.7116212	NaN	3718970.6950261	3718971.21158288
99	21	0	0	90	36.1581920903955	36.241610738255	15	0.500033640023321	2	1	2	NaN	1	4	0.0741725096291569	0	1	NaN	435	7	57	1	120	220	320	NaN	520	0.165722021833062	2	0	NaN	3718972.2618682	NaN	3718973.2453206	3718973.76182758
99	21	0	0	90	36.1581920903955	36.241610738255	18	0.600040368027985	2	5	2	NaN	1	3	0.0741725096291569	0	1	NaN	436	7	58	1	120	220	320	NaN	520	0.10876032197848	1	1	NaN	3718975.0787872	NaN	3718976.0622121	3718976.57877918
99	21	0	0	90	36.1581920903955	36.241610738255	24	0.800053824037313	2	2	1	NaN	1	3	0.0741725096291569	0	1	NaN	437	7	59	1	120	220	320	NaN	520	0.182497221976519	1	1	NaN	3718977.8289634	NaN	3718978.8124971	3718979.32904548
99	21	0	0	90	36.1581920903955	36.241610738255	11	0.366691336017102	2	11	6	NaN	2	4	0.0741725096291569	0	1	NaN	438	7	60	1	120	220	320	NaN	520	0.186111021786928	2	1	NaN	3718980.3292028	NaN	3718981.3127372	3718981.82929118
99	21	0	0	90	36.1581920903955	36.241610738255	13	0.433362488020211	2	1	3	NaN	1	5	0.0741725096291569	0	1	NaN	439	7	61	1	120	220	320	NaN	520	0.120255521964282	2	0	NaN	3718983.1795826	NaN	3718984.1630117	3718984.67956918
99	21	0	0	90	36.1581920903955	36.241610738255	15	0.500033640023321	2	4	2	NaN	1	5	0.0741725096291569	0	1	NaN	440	7	62	1	120	220	320	NaN	520	0.0104092694818974	1	1	NaN	3718985.6131381	NaN	3718986.596599	3718987.11314083
99	21	0	0	90	36.1581920903955	36.241610738255	12	0.400026912018657	2	12	5	NaN	2	4	0.0741725096291569	0	1	NaN	441	7	63	1	120	220	320	NaN	520	0.217060321941972	2	1	NaN	3718988.3468179	NaN	3718989.3301924	3718989.84675048
99	21	0	0	90	36.1581920903955	36.241610738255	11	0.366691336017102	2	9	4	NaN	2	5	0.0741725096291569	0	1	NaN	442	8	1	1	120	220	320	NaN	520	2.0100072696805	2	1	NaN	3719084.6889268	NaN	3719085.673028	3719086.18953933
99	21	0	0	90	36.1581920903955	36.241610738255	15	0.500033640023321	2	3	4	NaN	1	4	0.0741725096291569	0	1	NaN	443	8	2	1	120	220	320	NaN	520	0.174468701239675	2	0	NaN	3719089.1732531	NaN	3719090.1567676	3719090.6733043
99	21	0	0	90	36.1581920903955	36.241610738255	10	0.333355760015547	2	10	6	NaN	2	5	0.0741725096291569	0	1	NaN	444	8	3	1	120	220	320	NaN	520	2.28533966932446	2	1	NaN	3719091.9902756	NaN	3719092.9737086	3719093.49026203
99	21	0	0	90	36.1581920903955	36.241610738255	0	0	1	12	5	NaN	2	5	0.0741725096291569	0	1	NaN	445	8	4	1	110	210	310	NaN	510	0.422671374399215	2	1	NaN	3719096.7571265	NaN	3719097.7408381	3719098.25739013
99	21	0	0	90	36.1581920903955	36.241610738255	20	0.666711520031095	2	1	1	NaN	1	5	0.0741725096291569	0	1	NaN	446	8	5	1	120	220	320	NaN	520	0.268113974481821	1	1	NaN	3719100.0073509	NaN	3719100.9911296	3719101.50770633
99	21	0	0	90	36.1581920903955	36.241610738255	23	0.766718248035759	2	10	4	NaN	2	4	0.0741725096291569	0	1	NaN	447	8	6	1	120	220	320	NaN	520	0.184342369437218	2	1	NaN	3719102.8913631	NaN	3719103.874769	3719104.39132873
99	21	0	0	90	36.1581920903955	36.241610738255	10	0.333355760015547	2	11	6	NaN	2	4	0.0741725096291569	0	1	NaN	448	8	7	1	120	220	320	NaN	520	0.655558221507818	2	1	NaN	3719106.9083126	NaN	3719107.8917444	3719108.40838698
99	21	0	0	90	36.1581920903955	36.241610738255	19	0.63337594402954	2	7	2	NaN	2	4	0.0741725096291569	0	1	NaN	449	8	8	1	120	220	320	NaN	520	0.255529321730137	1	0	NaN	3719112.0921637	NaN	3719113.0756859	3719113.59223328
99	21	0	0	90	36.1581920903955	36.241610738255	23	0.766718248035759	2	1	4	NaN	1	5	0.0741725096291569	0	1	NaN	450	8	9	1	120	220	320	NaN	520	0.256825769785792	1	1	NaN	3719114.6591793	NaN	3719115.6425734	3719116.15914073
99	21	0	0	90	36.1581920903955	36.241610738255	13	0.433362488020211	2	9	5	NaN	2	4	0.0741725096291569	0	1	NaN	451	8	10	1	120	220	320	NaN	520	0.345591469667852	2	1	NaN	3719117.2261206	NaN	3719118.2095185	3719118.72606703
99	21	0	0	90	36.1581920903955	36.241610738255	15	0.500033640023321	2	9	6	NaN	2	4	0.0741725096291569	0	1	NaN	452	8	11	1	120	220	320	NaN	520	1.66266742162406	2	1	NaN	3719119.8930339	NaN	3719120.8764456	3719121.39298978
99	21	0	0	90	36.1581920903955	36.241610738255	17	0.56670479202643	2	3	2	NaN	1	5	0.0741725096291569	0	1	NaN	453	8	12	1	120	220	320	NaN	520	0.143199021928012	2	0	NaN	3719123.8767662	NaN	3719124.8601548	3719125.37672518
99	21	0	0	90	36.1581920903955	36.241610738255	14	0.466698064021766	2	9	4	NaN	2	4	0.0741725096291569	0	1	NaN	454	8	13	1	120	220	320	NaN	520	1.95674282684922	2	1	NaN	3719126.3270004	NaN	3719127.3104027	3719127.82696947
99	21	0	0	90	36.1581920903955	36.241610738255	14	0.466698064021766	2	5	4	NaN	1	5	0.0741725096291569	0	1	NaN	455	8	14	1	120	220	320	NaN	520	0.993705069646239	2	0	NaN	3719130.5940984	NaN	3719131.5774975	3719132.09403913
99	21	0	0	90	36.1581920903955	36.241610738255	14	0.466698064021766	2	4	6	NaN	1	3	0.0741725096291569	0	1	NaN	456	8	15	1	120	220	320	NaN	520	0.348805721849203	1	1	NaN	3719134.1110801	NaN	3719135.0945051	3719135.61105518
99	21	0	0	90	36.1581920903955	36.241610738255	6	0.200013456009328	2	2	2	NaN	1	3	0.0741725096291569	0	1	NaN	457	8	16	1	120	220	320	NaN	520	0.244993121828884	1	1	NaN	3719138.0947981	NaN	3719139.0782472	3719139.59478938
99	21	0	0	90	36.1581920903955	36.241610738255	20	0.666711520031095	2	4	2	NaN	1	3	0.0741725096291569	0	1	NaN	458	8	17	1	120	220	320	NaN	520	0.214090821798891	1	1	NaN	3719140.6617657	NaN	3719141.6451476	3719142.16170748
