subjno	age	gender	isPractice	viewdist	CmToPixX	CmToPixY	SOA_frm	SOA_time	targNum	targID	targExample	targRace	targGender	firstTargPos	contrast	familiarity	curr_staircase	iStair	TrialNum	BlockNum	blktrl	sessionNum	TC_FIXATION	TC_RSVP_START	TC_RSVP_END	TC_BLANK	TC_RESPONSE_ONSET	RT2afc	resp_2afc	acc	RSVPOnsetVBL	RSVPOnsetTime	RSVPOffsetVBL	RSVPOffsetTime	startrt_2afc
37	19	0	0	90	36.1581920903955	36.241610738255	21	0.700047936039045	2	3	6	NaN	1	4	0.0428720246396203	0	1	NaN	1	1	1	1	120	220	320	NaN	520	0.0115101223345846	1	1	NaN	1802279.7125859	NaN	1802280.6958168	1802281.22896188
37	19	0	0	90	36.1581920903955	36.241610738255	6	0.200013696011156	2	9	2	NaN	2	4	0.0428720246396203	0	1	NaN	2	1	2	1	120	220	320	NaN	520	0.0112817271146923	2	1	NaN	1802282.096098	NaN	1802283.0793623	1802283.61252947
37	19	0	0	90	36.1581920903955	36.241610738255	18	0.600041088033468	2	4	4	NaN	1	3	0.0428720246396203	0	1	NaN	3	1	3	1	120	220	320	NaN	520	1.26843702723272	2	0	NaN	1802284.4461222	NaN	1802285.4295622	1802285.96276397
37	19	0	0	90	36.1581920903955	36.241610738255	10	0.333356160018593	2	8	3	NaN	2	5	0.0428720246396203	0	1	NaN	4	1	4	1	120	220	320	NaN	520	0.0104865746106952	1	0	NaN	1802288.2131489	NaN	1802289.1965676	1802289.71312903
37	19	0	0	90	36.1581920903955	36.241610738255	20	0.666712320037186	2	3	2	NaN	1	4	0.0428720246396203	0	1	NaN	5	1	5	1	120	220	320	NaN	520	1.56077502202243	1	1	NaN	1802290.5467583	NaN	1802291.5300311	1802292.04668568
37	19	0	0	90	36.1581920903955	36.241610738255	13	0.433363008024171	2	4	6	NaN	1	5	0.0428720246396203	0	1	NaN	6	1	6	1	120	220	320	NaN	520	2.3086968222633	2	0	NaN	1802294.4303208	NaN	1802295.4138563	1802295.93040788
37	19	0	0	90	36.1581920903955	36.241610738255	17	0.566705472031608	2	1	4	NaN	1	3	0.0428720246396203	0	1	NaN	7	1	7	1	120	220	320	NaN	520	0.042915522120893	2	0	NaN	1802299.0642242	NaN	1802300.0477655	1802300.56418458
37	19	0	0	90	36.1581920903955	36.241610738255	6	0.200013696011156	2	5	3	NaN	1	5	0.0428720246396203	0	1	NaN	8	1	8	1	120	220	320	NaN	520	0.034201274625957	1	1	NaN	1802301.8811442	NaN	1802302.8645714	1802303.38113633
37	19	0	0	90	36.1581920903955	36.241610738255	9	0.300020544016734	2	8	2	NaN	2	4	0.0428720246396203	0	1	NaN	9	1	9	1	120	220	320	NaN	520	0.164079569512978	2	1	NaN	1802304.6314346	NaN	1802305.6149361	1802306.13140783
37	19	0	0	90	36.1581920903955	36.241610738255	7	0.233349312013015	2	2	5	NaN	1	4	0.0428720246396203	0	1	NaN	10	1	10	1	120	220	320	NaN	520	0.385361022083089	2	0	NaN	1802307.4817092	NaN	1802308.4651048	1802308.98168108
37	19	0	0	90	36.1581920903955	36.241610738255	22	0.733383552040905	2	10	4	NaN	2	4	0.0428720246396203	0	1	NaN	11	1	11	1	120	220	320	NaN	520	0.117364569567144	2	1	NaN	1802310.1819885	NaN	1802311.1653958	1802311.68195193
37	19	0	0	90	36.1581920903955	36.241610738255	23	0.766719168042764	2	3	3	NaN	1	4	0.0428720246396203	0	1	NaN	12	1	12	1	120	220	320	NaN	520	0.539846322033554	2	0	NaN	1802312.6154356	NaN	1802313.5989765	1802314.11554148
37	19	0	0	90	36.1581920903955	36.241610738255	14	0.46669862402603	2	3	5	NaN	1	3	0.0428720246396203	0	1	NaN	13	1	13	1	120	220	320	NaN	520	0.0103905219584703	1	1	NaN	1802315.4825226	NaN	1802316.4659114	1802316.98247508
37	19	0	0	90	36.1581920903955	36.241610738255	9	0.300020544016734	2	5	2	NaN	1	5	0.0428720246396203	0	1	NaN	14	1	14	1	120	220	320	NaN	520	0.0591635222081095	1	1	NaN	1802317.8160861	NaN	1802318.7994864	1802319.31603058
37	19	0	0	90	36.1581920903955	36.241610738255	9	0.300020544016734	2	10	6	NaN	2	4	0.0428720246396203	0	1	NaN	15	1	15	1	120	220	320	NaN	520	0.323913522064686	2	1	NaN	1802320.1996452	NaN	1802321.1830474	1802321.69960538
37	19	0	0	90	36.1581920903955	36.241610738255	21	0.700047936039045	2	11	4	NaN	2	3	0.0428720246396203	0	1	NaN	16	1	16	1	120	220	320	NaN	520	0.169263322139159	2	1	NaN	1802322.8499127	NaN	1802323.8333111	1802324.34985678
37	19	0	0	90	36.1581920903955	36.241610738255	17	0.566705472031608	2	11	4	NaN	2	5	0.0428720246396203	0	1	NaN	17	1	17	1	120	220	320	NaN	520	0.20613342220895	1	0	NaN	1802325.3334627	NaN	1802326.3169332	1802326.83344238
37	19	0	0	90	36.1581920903955	36.241610738255	12	0.400027392022312	2	4	6	NaN	1	4	0.0428720246396203	0	1	NaN	18	1	18	1	120	220	320	NaN	520	0.0163205745629966	2	0	NaN	1802327.8670481	NaN	1802328.8504651	1802329.36702373
37	19	0	0	90	36.1581920903955	36.241610738255	25	0.833390400046483	2	10	3	NaN	2	4	0.0428720246396203	0	1	NaN	19	1	19	1	120	220	320	NaN	520	0.890656422125176	2	1	NaN	1802330.2005008	NaN	1802331.1840244	1802331.70058888
37	19	0	0	90	36.1581920903955	36.241610738255	6	0.200013696011156	2	4	1	NaN	1	3	0.0428720246396203	0	1	NaN	20	1	20	1	120	220	320	NaN	520	0.0104068694636226	1	1	NaN	1802333.4176508	NaN	1802334.4010028	1802334.91756363
37	19	0	0	90	36.1581920903955	36.241610738255	11	0.366691776020452	2	5	3	NaN	1	5	0.0428720246396203	0	1	NaN	21	1	21	1	120	220	320	NaN	520	0.852107474347576	1	1	NaN	1802335.7511838	NaN	1802336.7345571	1802337.25112943
37	19	0	0	90	36.1581920903955	36.241610738255	14	0.46669862402603	2	10	6	NaN	2	5	0.0428720246396203	0	1	NaN	22	1	22	1	120	220	320	NaN	520	0.0103759744670242	2	1	NaN	1802338.9181729	NaN	1802339.9015399	1802340.41811113
37	19	0	0	90	36.1581920903955	36.241610738255	0	0	1	12	6	NaN	2	3	0.0428720246396203	0	1	NaN	23	1	23	1	110	210	310	NaN	510	1.67151161679067	2	1	NaN	1802341.2517311	NaN	1802342.2351038	1802342.75166478
37	19	0	0	90	36.1581920903955	36.241610738255	24	0.800054784044623	2	6	6	NaN	1	4	0.0428720246396203	0	1	NaN	24	1	24	1	120	220	320	NaN	520	0.191213869489729	1	1	NaN	1802345.2521312	NaN	1802346.2355166	1802346.75205783
37	19	0	0	90	36.1581920903955	36.241610738255	25	0.833390400046483	2	11	1	NaN	2	4	0.0428720246396203	0	1	NaN	25	1	25	1	120	220	320	NaN	520	0.538385669467971	2	1	NaN	1802347.7690158	NaN	1802348.752415	1802349.26897863
37	19	0	0	90	36.1581920903955	36.241610738255	6	0.200013696011156	2	6	5	NaN	1	4	0.0428720246396203	0	1	NaN	26	1	26	1	120	220	320	NaN	520	0.0103883221745491	1	1	NaN	1802350.6359962	NaN	1802351.6193621	1802352.13591848
37	19	0	0	90	36.1581920903955	36.241610738255	21	0.700047936039045	2	5	6	NaN	1	4	0.0428720246396203	0	1	NaN	27	1	27	1	120	220	320	NaN	520	1.48175296443515	1	1	NaN	1802352.9695393	NaN	1802353.9529372	1802354.46949444
37	19	0	0	90	36.1581920903955	36.241610738255	0	0	1	6	2	NaN	1	4	0.0428720246396203	0	1	NaN	28	1	28	1	110	210	310	NaN	510	0.0996430746745318	1	1	NaN	1802357.1199288	NaN	1802358.1033294	1802358.61989723
37	19	0	0	90	36.1581920903955	36.241610738255	12	0.400027392022312	2	1	1	NaN	1	4	0.0428720246396203	0	1	NaN	29	1	29	1	120	220	320	NaN	520	0.618727022083476	1	1	NaN	1802359.5368524	NaN	1802360.5202404	1802361.03680528
37	19	0	0	90	36.1581920903955	36.241610738255	0	0	1	4	5	NaN	1	3	0.0428720246396203	0	1	NaN	30	1	30	1	110	210	310	NaN	510	0.084963922156021	1	1	NaN	1802362.4704858	NaN	1802363.4538558	1802363.97041898
37	19	0	0	90	36.1581920903955	36.241610738255	23	0.766719168042764	2	9	4	NaN	2	5	0.0428720246396203	0	1	NaN	31	1	31	1	120	220	320	NaN	520	2.02495042211376	2	1	NaN	1802365.3707063	NaN	1802366.3541514	1802366.87070678
37	19	0	0	90	36.1581920903955	36.241610738255	25	0.833390400046483	2	8	4	NaN	2	3	0.0428720246396203	0	1	NaN	32	1	32	1	120	220	320	NaN	520	0.506041069515049	1	0	NaN	1802369.7212027	NaN	1802370.7045757	1802371.22112463
37	19	0	0	90	36.1581920903955	36.241610738255	8	0.266684928014874	2	6	3	NaN	1	3	0.0428720246396203	0	1	NaN	33	1	33	1	120	220	320	NaN	520	0.0806739693507552	1	1	NaN	1802372.5548169	NaN	1802373.538189	1802374.05474503
37	19	0	0	90	36.1581920903955	36.241610738255	17	0.566705472031608	2	4	4	NaN	1	4	0.0428720246396203	0	1	NaN	34	1	34	1	120	220	320	NaN	520	0.138913922244683	2	0	NaN	1802375.2884234	NaN	1802376.271772	1802376.78834808
37	19	0	0	90	36.1581920903955	36.241610738255	16	0.533369856029749	2	1	6	NaN	1	3	0.0428720246396203	0	1	NaN	35	1	35	1	120	220	320	NaN	520	0.320854254299775	1	1	NaN	1802377.7387145	NaN	1802378.7220357	1802379.23858515
37	19	0	0	90	36.1581920903955	36.241610738255	7	0.233349312013015	2	1	3	NaN	1	3	0.0428720246396203	0	1	NaN	36	1	36	1	120	220	320	NaN	520	0.182671922026202	1	1	NaN	1802380.3888758	NaN	1802381.3723393	1802381.88885218
37	19	0	0	90	36.1581920903955	36.241610738255	16	0.533369856029749	2	4	6	NaN	1	5	0.0428720246396203	0	1	NaN	37	1	37	1	120	220	320	NaN	520	0.562334622023627	1	1	NaN	1802382.8892247	NaN	1802383.8725184	1802384.38909638
37	19	0	0	90	36.1581920903955	36.241610738255	11	0.366691776020452	2	6	4	NaN	1	3	0.0428720246396203	0	1	NaN	38	1	38	1	120	220	320	NaN	520	0.548965974478051	1	1	NaN	1802386.6061402	NaN	1802387.5895646	1802388.10613163
37	19	0	0	90	36.1581920903955	36.241610738255	25	0.833390400046483	2	9	2	NaN	2	3	0.0428720246396203	0	1	NaN	39	1	39	1	120	220	320	NaN	520	0.474177174502984	1	0	NaN	1802389.4731223	NaN	1802390.4565105	1802390.97307583
37	19	0	0	90	36.1581920903955	36.241610738255	17	0.566705472031608	2	10	5	NaN	2	4	0.0428720246396203	0	1	NaN	40	1	40	1	120	220	320	NaN	520	0.466548922238871	2	1	NaN	1802392.2567436	NaN	1802393.2402055	1802393.75668318
37	19	0	0	90	36.1581920903955	36.241610738255	0	0	1	6	2	NaN	1	4	0.0428720246396203	0	1	NaN	41	1	41	1	110	210	310	NaN	510	0.15502792224288	1	1	NaN	1802395.0403346	NaN	1802396.0237214	1802396.54029138
37	19	0	0	90	36.1581920903955	36.241610738255	16	0.533369856029749	2	8	1	NaN	2	3	0.0428720246396203	0	1	NaN	42	1	42	1	120	220	320	NaN	520	0.623991817003116	1	0	NaN	1802397.5072573	NaN	1802398.4906292	1802399.00719098
37	19	0	0	90	36.1581920903955	36.241610738255	8	0.266684928014874	2	10	1	NaN	2	5	0.0428720246396203	0	1	NaN	43	1	43	1	120	220	320	NaN	520	0.570712022017688	2	1	NaN	1802400.4408505	NaN	1802401.4242641	1802401.94082008
37	19	0	0	90	36.1581920903955	36.241610738255	8	0.266684928014874	2	10	3	NaN	2	5	0.0428720246396203	0	1	NaN	44	1	44	1	120	220	320	NaN	520	0.430720574455336	2	1	NaN	1802403.3244821	NaN	1802404.3078861	1802404.82443713
37	19	0	0	90	36.1581920903955	36.241610738255	25	0.833390400046483	2	6	5	NaN	1	5	0.0428720246396203	0	1	NaN	45	1	45	1	120	220	320	NaN	520	0.352590169524774	1	1	NaN	1802406.0747988	NaN	1802407.0581503	1802407.57470823
37	19	0	0	90	36.1581920903955	36.241610738255	9	0.300020544016734	2	12	4	NaN	2	4	0.0428720246396203	0	1	NaN	46	1	46	1	120	220	320	NaN	520	0.497303689830005	2	1	NaN	1802408.858332	NaN	1802409.8417487	1802410.35831891
37	19	0	0	90	36.1581920903955	36.241610738255	22	0.733383552040905	2	2	5	NaN	1	4	0.0428720246396203	0	1	NaN	47	1	47	1	120	220	320	NaN	520	0.416586416773498	2	0	NaN	1802411.6585171	NaN	1802412.6420301	1802413.15858408
37	19	0	0	90	36.1581920903955	36.241610738255	8	0.266684928014874	2	3	1	NaN	1	4	0.0428720246396203	0	1	NaN	48	1	48	1	120	220	320	NaN	520	0.635206117061898	2	0	NaN	1802414.3922547	NaN	1802415.3756313	1802415.89218478
37	19	0	0	90	36.1581920903955	36.241610738255	15	0.50003424002789	2	5	4	NaN	1	5	0.0428720246396203	0	1	NaN	49	1	49	1	120	220	320	NaN	520	0.19681256939657	2	0	NaN	1802417.3425385	NaN	1802418.32594	1802418.84248293
37	19	0	0	90	36.1581920903955	36.241610738255	14	0.46669862402603	2	5	1	NaN	1	3	0.0428720246396203	0	1	NaN	50	1	50	1	120	220	320	NaN	520	0.0102578951045871	1	1	NaN	1802420.2259885	NaN	1802421.2095237	1802421.72610341
37	19	0	0	90	36.1581920903955	36.241610738255	13	0.433363008024171	2	4	1	NaN	1	3	0.0428720246396203	0	1	NaN	51	1	51	1	120	220	320	NaN	520	0.427735922159627	1	1	NaN	1802422.5597142	NaN	1802423.5430917	1802424.05965828
37	19	0	0	90	36.1581920903955	36.241610738255	18	0.600041088033468	2	8	5	NaN	2	4	0.0428720246396203	0	1	NaN	52	1	52	1	120	220	320	NaN	520	0.548437274526805	2	1	NaN	1802426.1267708	NaN	1802427.1101288	1802427.62668153
37	19	0	0	90	36.1581920903955	36.241610738255	0	0	1	7	1	NaN	2	4	0.0428720246396203	0	1	NaN	53	1	53	1	110	210	310	NaN	510	0.529589122161269	2	1	NaN	1802428.9936853	NaN	1802429.9770523	1802430.49362568
37	19	0	0	90	36.1581920903955	36.241610738255	22	0.733383552040905	2	6	2	NaN	1	5	0.0428720246396203	0	1	NaN	54	1	54	1	120	220	320	NaN	520	0.20783666963689	2	0	NaN	1802431.8439509	NaN	1802432.8273421	1802433.34391333
37	19	0	0	90	36.1581920903955	36.241610738255	10	0.333356160018593	2	9	4	NaN	2	4	0.0428720246396203	0	1	NaN	55	1	55	1	120	220	320	NaN	520	0.010417869547382	1	0	NaN	1802434.360867	NaN	1802435.3442669	1802435.86082253
37	19	0	0	90	36.1581920903955	36.241610738255	22	0.733383552040905	2	3	4	NaN	1	3	0.0428720246396203	0	1	NaN	56	1	56	1	120	220	320	NaN	520	0.581759321969002	2	0	NaN	1802436.6777641	NaN	1802437.6611603	1802438.17770788
37	19	0	0	90	36.1581920903955	36.241610738255	19	0.633376704035327	2	3	4	NaN	1	4	0.0428720246396203	0	1	NaN	57	1	57	1	120	220	320	NaN	520	0.545185774564743	1	1	NaN	1802439.5780397	NaN	1802440.5614326	1802441.07798953
37	19	0	0	90	36.1581920903955	36.241610738255	10	0.333356160018593	2	7	6	NaN	2	5	0.0428720246396203	0	1	NaN	58	1	58	1	120	220	320	NaN	520	0.487128722015768	1	0	NaN	1802442.4283135	NaN	1802443.4117397	1802443.92827578
37	19	0	0	90	36.1581920903955	36.241610738255	16	0.533369856029749	2	5	3	NaN	1	5	0.0428720246396203	0	1	NaN	59	1	59	1	120	220	320	NaN	520	0.86275306949392	2	0	NaN	1802445.2285909	NaN	1802446.2120003	1802446.72855283
37	19	0	0	90	36.1581920903955	36.241610738255	8	0.266684928014874	2	1	2	NaN	1	5	0.0428720246396203	0	1	NaN	60	1	60	1	120	220	320	NaN	520	0.671467074425891	2	0	NaN	1802448.4122454	NaN	1802449.3956545	1802449.91220243
37	19	0	0	90	36.1581920903955	36.241610738255	19	0.633376704035327	2	3	2	NaN	1	3	0.0428720246396203	0	1	NaN	61	1	61	1	120	220	320	NaN	520	0.383610669523478	1	1	NaN	1802451.3958657	NaN	1802452.3791722	1802452.89582483
37	19	0	0	90	36.1581920903955	36.241610738255	20	0.666712320037186	2	1	6	NaN	1	5	0.0428720246396203	0	1	NaN	62	1	62	1	120	220	320	NaN	520	0.467603122116998	2	0	NaN	1802454.0961405	NaN	1802455.0795248	1802455.59608828
37	19	0	0	90	36.1581920903955	36.241610738255	17	0.566705472031608	2	4	6	NaN	1	4	0.0428720246396203	0	1	NaN	63	1	63	1	120	220	320	NaN	520	1.02064782218076	2	0	NaN	1802456.8630625	NaN	1802457.8464643	1802458.36302898
37	19	0	0	90	36.1581920903955	36.241610738255	24	0.800054784044623	2	2	2	NaN	1	4	0.0428720246396203	0	1	NaN	64	2	1	1	120	220	320	NaN	520	0.0111628321465105	2	0	NaN	1802482.8322741	NaN	1802483.8156858	1802484.33224007
37	19	0	0	90	36.1581920903955	36.241610738255	8	0.266684928014874	2	4	2	NaN	1	4	0.0428720246396203	0	1	NaN	65	2	2	1	120	220	320	NaN	520	0.589696542359889	2	0	NaN	1802485.1658747	NaN	1802486.1492527	1802486.66581776
37	19	0	0	90	36.1581920903955	36.241610738255	13	0.433363008024171	2	2	4	NaN	1	4	0.0428720246396203	0	1	NaN	66	2	3	1	120	220	320	NaN	520	0.161711069522426	1	1	NaN	1802488.0661459	NaN	1802489.0495218	1802489.56609153
37	19	0	0	90	36.1581920903955	36.241610738255	18	0.600041088033468	2	10	2	NaN	2	3	0.0428720246396203	0	1	NaN	67	2	4	1	120	220	320	NaN	520	0.108808122342452	2	1	NaN	1802490.9663878	NaN	1802491.9498107	1802492.46637878
37	19	0	0	90	36.1581920903955	36.241610738255	12	0.400027392022312	2	5	2	NaN	1	5	0.0428720246396203	0	1	NaN	68	2	5	1	120	220	320	NaN	520	0.676243769470602	2	0	NaN	1802493.3833207	NaN	1802494.3667372	1802494.88328173
37	19	0	0	90	36.1581920903955	36.241610738255	7	0.233349312013015	2	11	5	NaN	2	5	0.0428720246396203	0	1	NaN	69	2	6	1	120	220	320	NaN	520	0.0103919219691306	1	0	NaN	1802496.3669645	NaN	1802497.3503591	1802497.86690838
37	19	0	0	90	36.1581920903955	36.241610738255	17	0.566705472031608	2	2	1	NaN	1	3	0.0428720246396203	0	1	NaN	70	2	7	1	120	220	320	NaN	520	0.382562469458207	2	0	NaN	1802498.9170608	NaN	1802499.9006005	1802500.41715733
37	19	0	0	90	36.1581920903955	36.241610738255	19	0.633376704035327	2	2	2	NaN	1	5	0.0428720246396203	0	1	NaN	71	2	8	1	120	220	320	NaN	520	1.52196182217449	1	1	NaN	1802501.6174665	NaN	1802502.6008562	1802503.11741528
37	19	0	0	90	36.1581920903955	36.241610738255	16	0.533369856029749	2	12	6	NaN	2	4	0.0428720246396203	0	1	NaN	72	2	9	1	120	220	320	NaN	520	0.776487916940823	2	1	NaN	1802505.4511674	NaN	1802506.4345747	1802506.95112488
37	19	0	0	90	36.1581920903955	36.241610738255	15	0.50003424002789	2	9	1	NaN	2	3	0.0428720246396203	0	1	NaN	73	2	10	1	120	220	320	NaN	520	0.660918922163546	2	1	NaN	1802508.5348158	NaN	1802509.5182084	1802510.03477088
37	19	0	0	90	36.1581920903955	36.241610738255	15	0.50003424002789	2	2	4	NaN	1	3	0.0428720246396203	0	1	NaN	74	2	11	1	120	220	320	NaN	520	0.334113369463012	1	1	NaN	1802511.5017656	NaN	1802512.4851662	1802513.00172973
37	19	0	0	90	36.1581920903955	36.241610738255	18	0.600041088033468	2	12	3	NaN	2	4	0.0428720246396203	0	1	NaN	75	2	12	1	120	220	320	NaN	520	0.419720422243699	2	1	NaN	1802514.1520591	NaN	1802515.1354251	1802515.65198068
37	19	0	0	90	36.1581920903955	36.241610738255	22	0.733383552040905	2	7	2	NaN	2	4	0.0428720246396203	0	1	NaN	76	2	13	1	120	220	320	NaN	520	0.629925522021949	1	0	NaN	1802516.8856686	NaN	1802517.8690862	1802518.38558598
37	19	0	0	90	36.1581920903955	36.241610738255	14	0.46669862402603	2	12	4	NaN	2	3	0.0428720246396203	0	1	NaN	77	2	14	1	120	220	320	NaN	520	0.655710922088474	2	1	NaN	1802519.8359453	NaN	1802520.8193209	1802521.33587378
37	19	0	0	90	36.1581920903955	36.241610738255	25	0.833390400046483	2	8	4	NaN	2	5	0.0428720246396203	0	1	NaN	78	2	15	1	120	220	320	NaN	520	0.600856269476935	1	0	NaN	1802522.8028974	NaN	1802523.7862888	1802524.30283743
37	19	0	0	90	36.1581920903955	36.241610738255	7	0.233349312013015	2	9	4	NaN	2	3	0.0428720246396203	0	1	NaN	79	2	16	1	120	220	320	NaN	520	0.0103962221182883	2	1	NaN	1802525.7198331	NaN	1802526.7032249	1802527.21978748
37	19	0	0	90	36.1581920903955	36.241610738255	6	0.200013696011156	2	11	1	NaN	2	5	0.0428720246396203	0	1	NaN	80	2	17	1	120	220	320	NaN	520	0.40684387460351	2	1	NaN	1802528.0367378	NaN	1802529.0201347	1802529.53668733
37	19	0	0	90	36.1581920903955	36.241610738255	13	0.433363008024171	2	1	6	NaN	1	5	0.0428720246396203	0	1	NaN	81	2	18	1	120	220	320	NaN	520	0.7058663694188	2	0	NaN	1802530.753679	NaN	1802531.7370689	1802532.25361403
37	19	0	0	90	36.1581920903955	36.241610738255	24	0.800054784044623	2	4	4	NaN	1	5	0.0428720246396203	0	1	NaN	82	2	19	1	120	220	320	NaN	520	1.92883062222973	1	1	NaN	1802533.7705092	NaN	1802534.7540262	1802535.27058748
37	19	0	0	90	36.1581920903955	36.241610738255	7	0.233349312013015	2	7	1	NaN	2	4	0.0428720246396203	0	1	NaN	83	2	20	1	120	220	320	NaN	520	0.462514522252604	2	1	NaN	1802538.0210622	NaN	1802539.0044422	1802539.52099258
37	19	0	0	90	36.1581920903955	36.241610738255	6	0.200013696011156	2	7	3	NaN	2	4	0.0428720246396203	0	1	NaN	84	2	21	1	120	220	320	NaN	520	0.29566879500635	2	1	NaN	1802540.7878919	NaN	1802541.7713773	1802542.28794911
37	19	0	0	90	36.1581920903955	36.241610738255	24	0.800054784044623	2	7	2	NaN	2	5	0.0428720246396203	0	1	NaN	85	2	22	1	120	220	320	NaN	520	0.391310974722728	1	0	NaN	1802543.3882623	NaN	1802544.3716748	1802544.88819273
37	19	0	0	90	36.1581920903955	36.241610738255	9	0.300020544016734	2	6	4	NaN	1	5	0.0428720246396203	0	1	NaN	86	2	23	1	120	220	320	NaN	520	0.0104114694986492	1	1	NaN	1802546.4385119	NaN	1802547.4219424	1802547.93849293
37	19	0	0	90	36.1581920903955	36.241610738255	24	0.800054784044623	2	6	5	NaN	1	5	0.0428720246396203	0	1	NaN	87	2	24	1	120	220	320	NaN	520	0.408212222158909	1	1	NaN	1802548.7554586	NaN	1802549.7388218	1802550.25537998
37	19	0	0	90	36.1581920903955	36.241610738255	23	0.766719168042764	2	3	1	NaN	1	5	0.0428720246396203	0	1	NaN	88	2	25	1	120	220	320	NaN	520	0.402979316888377	2	0	NaN	1802551.4723637	NaN	1802552.455763	1802552.97231708
37	19	0	0	90	36.1581920903955	36.241610738255	19	0.633376704035327	2	9	3	NaN	2	5	0.0428720246396203	0	1	NaN	89	2	26	1	120	220	320	NaN	520	0.454144574468955	1	0	NaN	1802554.1893053	NaN	1802555.1726845	1802555.68926003
37	19	0	0	90	36.1581920903955	36.241610738255	0	0	1	9	3	NaN	2	5	0.0428720246396203	0	1	NaN	90	2	27	1	110	210	310	NaN	510	0.0103969222400337	2	1	NaN	1802556.956231	NaN	1802557.9396176	1802558.45618908
37	19	0	0	90	36.1581920903955	36.241610738255	21	0.700047936039045	2	2	2	NaN	1	5	0.0428720246396203	0	1	NaN	91	2	28	1	120	220	320	NaN	520	0.194561864482239	2	0	NaN	1802559.2731549	NaN	1802560.256524	1802560.77310674
37	19	0	0	90	36.1581920903955	36.241610738255	23	0.766719168042764	2	12	1	NaN	2	4	0.0428720246396203	0	1	NaN	92	2	29	1	120	220	320	NaN	520	0.0104069695807993	1	0	NaN	1802561.7732615	NaN	1802562.7567738	1802563.27333323
37	19	0	0	90	36.1581920903955	36.241610738255	22	0.733383552040905	2	8	5	NaN	2	4	0.0428720246396203	0	1	NaN	93	2	30	1	120	220	320	NaN	520	0.417588469572365	2	1	NaN	1802564.0901609	NaN	1802565.0736747	1802565.59022133
37	19	0	0	90	36.1581920903955	36.241610738255	15	0.50003424002789	2	7	5	NaN	2	5	0.0428720246396203	0	1	NaN	94	2	31	1	120	220	320	NaN	520	0.0103328321129084	1	0	NaN	1802566.8238661	NaN	1802567.8072741	1802568.32382747
37	19	0	0	90	36.1581920903955	36.241610738255	16	0.533369856029749	2	3	3	NaN	1	4	0.0428720246396203	0	1	NaN	95	2	32	1	120	220	320	NaN	520	1.71117392205633	1	1	NaN	1802569.1407691	NaN	1802570.1241658	1802570.64072018
37	19	0	0	90	36.1581920903955	36.241610738255	10	0.333356160018593	2	7	1	NaN	2	5	0.0428720246396203	0	1	NaN	96	2	33	1	120	220	320	NaN	520	0.0591193221043795	2	1	NaN	1802573.6245208	NaN	1802574.6079416	1802575.12449778
37	19	0	0	90	36.1581920903955	36.241610738255	21	0.700047936039045	2	12	2	NaN	2	5	0.0428720246396203	0	1	NaN	97	2	34	1	120	220	320	NaN	520	0.251427616924047	2	1	NaN	1802576.0081291	NaN	1802576.9915177	1802577.50806008
37	19	0	0	90	36.1581920903955	36.241610738255	9	0.300020544016734	2	9	6	NaN	2	4	0.0428720246396203	0	1	NaN	98	2	35	1	120	220	320	NaN	520	0.0206311694346368	2	1	NaN	1802578.5750194	NaN	1802579.5584207	1802580.07498533
37	19	0	0	90	36.1581920903955	36.241610738255	23	0.766719168042764	2	11	6	NaN	2	4	0.0428720246396203	0	1	NaN	99	2	36	1	120	220	320	NaN	520	0.478982522152364	2	1	NaN	1802581.3086513	NaN	1802582.2920253	1802582.80858518
37	19	0	0	90	36.1581920903955	36.241610738255	21	0.700047936039045	2	6	1	NaN	1	5	0.0428720246396203	0	1	NaN	100	2	37	1	120	220	320	NaN	520	0.247187522239983	2	0	NaN	1802584.0922562	NaN	1802585.0756321	1802585.59219408
37	19	0	0	90	36.1581920903955	36.241610738255	10	0.333356160018593	2	3	4	NaN	1	5	0.0428720246396203	0	1	NaN	101	2	38	1	120	220	320	NaN	520	0.55277317459695	1	1	NaN	1802586.659178	NaN	1802587.6425663	1802588.15911023
37	19	0	0	90	36.1581920903955	36.241610738255	7	0.233349312013015	2	1	3	NaN	1	5	0.0428720246396203	0	1	NaN	102	2	39	1	120	220	320	NaN	520	1.87785401684232	1	1	NaN	1802589.5261092	NaN	1802590.5094917	1802591.02604938
37	19	0	0	90	36.1581920903955	36.241610738255	25	0.833390400046483	2	2	4	NaN	1	4	0.0428720246396203	0	1	NaN	103	2	40	1	120	220	320	NaN	520	0.597303822170943	1	1	NaN	1802593.7265353	NaN	1802594.7099077	1802595.22646828
37	19	0	0	90	36.1581920903955	36.241610738255	6	0.200013696011156	2	3	2	NaN	1	4	0.0428720246396203	0	1	NaN	104	2	41	1	120	220	320	NaN	520	0.424136969493702	1	1	NaN	1802596.6434829	NaN	1802597.6268631	1802598.14342373
37	19	0	0	90	36.1581920903955	36.241610738255	21	0.700047936039045	2	1	5	NaN	1	4	0.0428720246396203	0	1	NaN	105	2	42	1	120	220	320	NaN	520	0.379055974539369	2	0	NaN	1802599.9604607	NaN	1802600.943869	1802601.46042233
37	19	0	0	90	36.1581920903955	36.241610738255	23	0.766719168042764	2	11	4	NaN	2	3	0.0428720246396203	0	1	NaN	106	2	43	1	120	220	320	NaN	520	0.174893522169441	1	0	NaN	1802602.6606158	NaN	1802603.6441302	1802604.16067308
37	19	0	0	90	36.1581920903955	36.241610738255	21	0.700047936039045	2	8	3	NaN	2	5	0.0428720246396203	0	1	NaN	107	2	44	1	120	220	320	NaN	520	1.06818442209624	2	1	NaN	1802605.5276457	NaN	1802606.5110853	1802607.02763198
37	19	0	0	90	36.1581920903955	36.241610738255	24	0.800054784044623	2	10	5	NaN	2	5	0.0428720246396203	0	1	NaN	108	2	45	1	120	220	320	NaN	520	0.835891127120703	2	1	NaN	1802609.3279329	NaN	1802610.3114377	1802610.82800037
37	19	0	0	90	36.1581920903955	36.241610738255	15	0.50003424002789	2	4	1	NaN	1	3	0.0428720246396203	0	1	NaN	109	2	46	1	120	220	320	NaN	520	0.125217069406062	1	1	NaN	1802612.478345	NaN	1802613.4617426	1802613.97831073
37	19	0	0	90	36.1581920903955	36.241610738255	19	0.633376704035327	2	7	5	NaN	2	5	0.0428720246396203	0	1	NaN	110	2	47	1	120	220	320	NaN	520	0.17894952208735	2	1	NaN	1802614.9286113	NaN	1802615.9120243	1802616.42855708
37	19	0	0	90	36.1581920903955	36.241610738255	18	0.600041088033468	2	3	2	NaN	1	5	0.0428720246396203	0	1	NaN	111	2	48	1	120	220	320	NaN	520	0.190625522052869	1	1	NaN	1802617.4288878	NaN	1802618.4122474	1802618.92880028
37	19	0	0	90	36.1581920903955	36.241610738255	21	0.700047936039045	2	6	6	NaN	1	5	0.0428720246396203	0	1	NaN	112	2	49	1	120	220	320	NaN	520	0.162525422172621	1	1	NaN	1802619.9291086	NaN	1802620.9125303	1802621.42904048
37	19	0	0	90	36.1581920903955	36.241610738255	24	0.800054784044623	2	9	2	NaN	2	5	0.0428720246396203	0	1	NaN	113	2	50	1	120	220	320	NaN	520	0.375917669618502	2	1	NaN	1802622.3958796	NaN	1802623.3794007	1802623.89594573
37	19	0	0	90	36.1581920903955	36.241610738255	14	0.46669862402603	2	11	2	NaN	2	5	0.0428720246396203	0	1	NaN	114	2	51	1	120	220	320	NaN	520	0.315433469600976	2	1	NaN	1802625.0962251	NaN	1802626.0797268	1802626.59622163
37	19	0	0	90	36.1581920903955	36.241610738255	8	0.266684928014874	2	5	2	NaN	1	4	0.0428720246396203	0	1	NaN	115	2	52	1	120	220	320	NaN	520	0.0103929222095758	1	1	NaN	1802627.7298703	NaN	1802628.7132548	1802629.22980568
37	19	0	0	90	36.1581920903955	36.241610738255	23	0.766719168042764	2	1	4	NaN	1	5	0.0428720246396203	0	1	NaN	116	2	53	1	120	220	320	NaN	520	0.527947222115472	2	0	NaN	1802630.3800222	NaN	1802631.3635158	1802631.88007198
37	19	0	0	90	36.1581920903955	36.241610738255	11	0.366691776020452	2	1	2	NaN	1	3	0.0428720246396203	0	1	NaN	117	2	54	1	120	220	320	NaN	520	0.366138474317268	1	1	NaN	1802633.2137482	NaN	1802634.1971369	1802634.71368373
37	19	0	0	90	36.1581920903955	36.241610738255	12	0.400027392022312	2	5	3	NaN	1	5	0.0428720246396203	0	1	NaN	118	2	55	1	120	220	320	NaN	520	0.147334769601002	1	1	NaN	1802635.8805858	NaN	1802636.864049	1802637.38061153
37	19	0	0	90	36.1581920903955	36.241610738255	16	0.533369856029749	2	1	5	NaN	1	4	0.0428720246396203	0	1	NaN	119	2	56	1	120	220	320	NaN	520	0.344380412017927	2	0	NaN	1802638.347578	NaN	1802639.3309562	1802639.84750969
37	19	0	0	90	36.1581920903955	36.241610738255	15	0.50003424002789	2	1	5	NaN	1	5	0.0428720246396203	0	1	NaN	120	2	57	1	120	220	320	NaN	520	0.525922616943717	1	1	NaN	1802641.3977693	NaN	1802642.3812506	1802642.89781058
37	19	0	0	90	36.1581920903955	36.241610738255	17	0.566705472031608	2	1	1	NaN	1	3	0.0428720246396203	0	1	NaN	121	2	58	1	120	220	320	NaN	520	0.164162342436612	1	1	NaN	1802644.2314691	NaN	1802645.2148622	1802645.73144096
37	19	0	0	90	36.1581920903955	36.241610738255	14	0.46669862402603	2	8	4	NaN	2	4	0.0428720246396203	0	1	NaN	122	2	59	1	120	220	320	NaN	520	0.0104153694119304	2	1	NaN	1802646.6982545	NaN	1802647.6817815	1802648.19834073
37	19	0	0	90	36.1581920903955	36.241610738255	10	0.333356160018593	2	1	3	NaN	1	3	0.0428720246396203	0	1	NaN	123	2	60	1	120	220	320	NaN	520	0.204319722251967	2	0	NaN	1802649.0152765	NaN	1802649.9986729	1802650.51522968
37	19	0	0	90	36.1581920903955	36.241610738255	7	0.233349312013015	2	10	4	NaN	2	3	0.0428720246396203	0	1	NaN	124	2	61	1	120	220	320	NaN	520	0.0102665424346924	1	0	NaN	1802651.532187	NaN	1802652.5155763	1802653.03215456
37	19	0	0	90	36.1581920903955	36.241610738255	25	0.833390400046483	2	7	3	NaN	2	5	0.0428720246396203	0	1	NaN	125	2	62	1	120	220	320	NaN	520	0.498844574671239	2	1	NaN	1802653.8491151	NaN	1802654.8324747	1802655.34904443
37	19	0	0	90	36.1581920903955	36.241610738255	10	0.333356160018593	2	3	5	NaN	1	3	0.0428720246396203	0	1	NaN	126	2	63	1	120	220	320	NaN	520	0.0104161221534014	1	1	NaN	1802656.6660182	NaN	1802657.6494309	1802658.16598298
37	19	0	0	90	36.1581920903955	36.241610738255	21	0.700047936039045	2	12	4	NaN	2	3	0.0428720246396203	0	1	NaN	127	3	1	1	120	220	320	NaN	520	1.60491402214393	2	1	NaN	1802679.7349416	NaN	1802680.718363	1802681.23491378
37	19	0	0	90	36.1581920903955	36.241610738255	9	0.300020544016734	2	7	4	NaN	2	4	0.0428720246396203	0	1	NaN	128	3	2	1	120	220	320	NaN	520	0.0103896220680326	1	0	NaN	1802683.6520437	NaN	1802684.6354117	1802685.15196738
37	19	0	0	90	36.1581920903955	36.241610738255	6	0.200013696011156	2	3	5	NaN	1	3	0.0428720246396203	0	1	NaN	129	3	3	1	120	220	320	NaN	520	0.0104365169536322	2	0	NaN	1802686.235616	NaN	1802687.2190066	1802687.73555488
37	19	0	0	90	36.1581920903955	36.241610738255	13	0.433363008024171	2	11	1	NaN	2	3	0.0428720246396203	0	1	NaN	130	3	4	1	120	220	320	NaN	520	0.0103957219980657	1	0	NaN	1802688.5525111	NaN	1802689.5359029	1802690.05244878
37	19	0	0	90	36.1581920903955	36.241610738255	17	0.566705472031608	2	2	6	NaN	1	5	0.0428720246396203	0	1	NaN	131	3	5	1	120	220	320	NaN	520	0.0103886222932488	1	1	NaN	1802690.8692697	NaN	1802691.852777	1802692.36934908
37	19	0	0	90	36.1581920903955	36.241610738255	19	0.633376704035327	2	12	3	NaN	2	4	0.0428720246396203	0	1	NaN	132	3	6	1	120	220	320	NaN	520	0.409356974530965	1	0	NaN	1802693.1863018	NaN	1802694.1696675	1802694.68623993
37	19	0	0	90	36.1581920903955	36.241610738255	11	0.366691776020452	2	3	4	NaN	1	5	0.0428720246396203	0	1	NaN	133	3	7	1	120	220	320	NaN	520	0.308871237561107	2	0	NaN	1802695.9032244	NaN	1802696.8866077	1802697.40317746
37	19	0	0	90	36.1581920903955	36.241610738255	20	0.666712320037186	2	3	3	NaN	1	5	0.0428720246396203	0	1	NaN	134	3	8	1	120	220	320	NaN	520	1.44389871694148	1	1	NaN	1802698.5201673	NaN	1802699.5035446	1802700.02009128
37	19	0	0	90	36.1581920903955	36.241610738255	11	0.366691776020452	2	2	6	NaN	1	3	0.0428720246396203	0	1	NaN	135	3	9	1	120	220	320	NaN	520	0.0372421694919467	2	0	NaN	1802702.2705044	NaN	1802703.2538954	1802703.77046573
37	19	0	0	90	36.1581920903955	36.241610738255	22	0.733383552040905	2	7	4	NaN	2	4	0.0428720246396203	0	1	NaN	136	3	10	1	120	220	320	NaN	520	0.279204822145402	2	1	NaN	1802704.6207549	NaN	1802705.6041532	1802706.12069288
37	19	0	0	90	36.1581920903955	36.241610738255	19	0.633376704035327	2	1	1	NaN	1	4	0.0428720246396203	0	1	NaN	137	3	11	1	120	220	320	NaN	520	1.38302368973382	1	1	NaN	1802707.2209892	NaN	1802708.2043809	1802708.72095931
37	19	0	0	90	36.1581920903955	36.241610738255	22	0.733383552040905	2	11	3	NaN	2	3	0.0428720246396203	0	1	NaN	138	3	12	1	120	220	320	NaN	520	0.148511422099546	2	1	NaN	1802711.2713806	NaN	1802712.2547972	1802712.77134498
37	19	0	0	90	36.1581920903955	36.241610738255	16	0.533369856029749	2	10	1	NaN	2	5	0.0428720246396203	0	1	NaN	139	3	13	1	120	220	320	NaN	520	1.27337481686845	2	1	NaN	1802713.7383175	NaN	1802714.7216916	1802715.23825288
37	19	0	0	90	36.1581920903955	36.241610738255	20	0.666712320037186	2	11	4	NaN	2	3	0.0428720246396203	0	1	NaN	140	3	14	1	120	220	320	NaN	520	0.817734142299742	1	0	NaN	1802717.3219693	NaN	1802718.3053976	1802718.82194856
37	19	0	0	90	36.1581920903955	36.241610738255	24	0.800054784044623	2	3	3	NaN	1	4	0.0428720246396203	0	1	NaN	141	3	15	1	120	220	320	NaN	520	0.0103910220786929	1	1	NaN	1802720.8723036	NaN	1802721.8557236	1802722.37229388
37	19	0	0	90	36.1581920903955	36.241610738255	18	0.600041088033468	2	7	6	NaN	2	5	0.0428720246396203	0	1	NaN	142	3	16	1	120	220	320	NaN	520	0.525662621948868	2	1	NaN	1802723.2059133	NaN	1802724.1893133	1802724.70585378
37	19	0	0	90	36.1581920903955	36.241610738255	16	0.533369856029749	2	2	1	NaN	1	3	0.0428720246396203	0	1	NaN	143	3	17	1	120	220	320	NaN	520	0.132333216723055	1	1	NaN	1802726.4395586	NaN	1802727.4229386	1802727.93949548
37	19	0	0	90	36.1581920903955	36.241610738255	13	0.433363008024171	2	10	3	NaN	2	5	0.0428720246396203	0	1	NaN	144	3	18	1	120	220	320	NaN	520	1.25066594243981	2	1	NaN	1802728.8731317	NaN	1802729.8565326	1802730.37308486
37	19	0	0	90	36.1581920903955	36.241610738255	25	0.833390400046483	2	6	5	NaN	1	5	0.0428720246396203	0	1	NaN	145	3	19	1	120	220	320	NaN	520	0.139683422166854	1	1	NaN	1802732.8400444	NaN	1802733.8235788	1802734.34013558
37	19	0	0	90	36.1581920903955	36.241610738255	12	0.400027392022312	2	9	3	NaN	2	5	0.0428720246396203	0	1	NaN	146	3	20	1	120	220	320	NaN	520	0.850564122200012	1	0	NaN	1802735.6570877	NaN	1802736.6405264	1802737.15707738
37	19	0	0	90	36.1581920903955	36.241610738255	19	0.633376704035327	2	4	3	NaN	1	5	0.0428720246396203	0	1	NaN	147	3	21	1	120	220	320	NaN	520	0.587636089883745	2	0	NaN	1802739.2240957	NaN	1802740.2075349	1802740.72409321
37	19	0	0	90	36.1581920903955	36.241610738255	18	0.600041088033468	2	3	5	NaN	1	3	0.0428720246396203	0	1	NaN	148	3	22	1	120	220	320	NaN	520	0.923467722255737	1	1	NaN	1802742.8243602	NaN	1802743.8078771	1802744.32444698
37	19	0	0	90	36.1581920903955	36.241610738255	20	0.666712320037186	2	10	1	NaN	2	4	0.0428720246396203	0	1	NaN	149	3	23	1	120	220	320	NaN	520	0.0103916220832616	2	1	NaN	1802746.0580213	NaN	1802747.0415437	1802747.55810398
37	19	0	0	90	36.1581920903955	36.241610738255	22	0.733383552040905	2	1	2	NaN	1	4	0.0428720246396203	0	1	NaN	150	3	24	1	120	220	320	NaN	520	2.10014337440953	2	0	NaN	1802748.3917073	NaN	1802749.3750926	1802749.89167333
37	19	0	0	90	36.1581920903955	36.241610738255	12	0.400027392022312	2	7	3	NaN	2	5	0.0428720246396203	0	1	NaN	151	3	25	1	120	220	320	NaN	520	0.371388416970149	2	1	NaN	1802752.8087971	NaN	1802753.792195	1802754.30875708
37	19	0	0	90	36.1581920903955	36.241610738255	13	0.433363008024171	2	9	2	NaN	2	5	0.0428720246396203	0	1	NaN	152	3	26	1	120	220	320	NaN	520	0.189442922128364	1	0	NaN	1802755.5424306	NaN	1802756.5258008	1802757.04236258
37	19	0	0	90	36.1581920903955	36.241610738255	9	0.300020544016734	2	8	5	NaN	2	4	0.0428720246396203	0	1	NaN	153	3	27	1	120	220	320	NaN	520	0.129458569455892	1	0	NaN	1802758.0425834	NaN	1802759.0260468	1802759.54259983
37	19	0	0	90	36.1581920903955	36.241610738255	0	0	1	3	1	NaN	1	4	0.0428720246396203	0	1	NaN	154	3	28	1	110	210	310	NaN	510	0.415865874616429	2	0	NaN	1802760.476097	NaN	1802761.4596287	1802761.97617833
37	19	0	0	90	36.1581920903955	36.241610738255	20	0.666712320037186	2	5	5	NaN	1	4	0.0428720246396203	0	1	NaN	155	3	29	1	120	220	320	NaN	520	2.10572271677665	1	1	NaN	1802763.2098325	NaN	1802764.1932234	1802764.70978478
37	19	0	0	90	36.1581920903955	36.241610738255	7	0.233349312013015	2	5	2	NaN	1	3	0.0428720246396203	0	1	NaN	156	3	30	1	120	220	320	NaN	520	0.145241822116077	1	1	NaN	1802767.6269442	NaN	1802768.6103261	1802769.12688558
37	19	0	0	90	36.1581920903955	36.241610738255	13	0.433363008024171	2	3	2	NaN	1	4	0.0428720246396203	0	1	NaN	157	3	31	1	120	220	320	NaN	520	0.0103910220786929	1	1	NaN	1802770.0771982	NaN	1802771.0605654	1802771.57712878
37	19	0	0	90	36.1581920903955	36.241610738255	20	0.666712320037186	2	4	1	NaN	1	5	0.0428720246396203	0	1	NaN	158	3	32	1	120	220	320	NaN	520	0.0257279220968485	1	1	NaN	1802772.3939346	NaN	1802773.3774671	1802773.89401578
37	19	0	0	90	36.1581920903955	36.241610738255	14	0.46669862402603	2	3	5	NaN	1	3	0.0428720246396203	0	1	NaN	159	3	33	1	120	220	320	NaN	520	0.0104093693662435	1	1	NaN	1802774.7276189	NaN	1802775.7110239	1802776.22758333
37	19	0	0	90	36.1581920903955	36.241610738255	23	0.766719168042764	2	7	6	NaN	2	4	0.0428720246396203	0	1	NaN	160	3	34	1	120	220	320	NaN	520	0.0103809745050967	1	0	NaN	1802777.0612119	NaN	1802778.0445774	1802778.56114723
37	19	0	0	90	36.1581920903955	36.241610738255	21	0.700047936039045	2	10	2	NaN	2	5	0.0428720246396203	0	1	NaN	161	3	35	1	120	220	320	NaN	520	0.0103876220528036	1	0	NaN	1802779.3946317	NaN	1802780.3781395	1802780.89470318
37	19	0	0	90	36.1581920903955	36.241610738255	12	0.400027392022312	2	6	6	NaN	1	5	0.0428720246396203	0	1	NaN	162	3	36	1	120	220	320	NaN	520	1.29205368482508	1	1	NaN	1802781.7116721	NaN	1802782.6950485	1802783.21160062
37	19	0	0	90	36.1581920903955	36.241610738255	21	0.700047936039045	2	9	1	NaN	2	5	0.0428720246396203	0	1	NaN	163	3	37	1	120	220	320	NaN	520	0.773744022240862	2	1	NaN	1802785.6620177	NaN	1802786.6455368	1802787.16198598
37	19	0	0	90	36.1581920903955	36.241610738255	16	0.533369856029749	2	4	2	NaN	1	3	0.0428720246396203	0	1	NaN	164	3	38	1	120	220	320	NaN	520	1.59400712209754	1	1	NaN	1802788.7457055	NaN	1802789.7290558	1802790.24562448
37	19	0	0	90	36.1581920903955	36.241610738255	8	0.266684928014874	2	6	6	NaN	1	5	0.0428720246396203	0	1	NaN	165	3	39	1	120	220	320	NaN	520	0.413447964470834	1	1	NaN	1802792.6627181	NaN	1802793.6461226	1802794.16267094
37	19	0	0	90	36.1581920903955	36.241610738255	15	0.50003424002789	2	7	6	NaN	2	5	0.0428720246396203	0	1	NaN	166	3	40	1	120	220	320	NaN	520	0.280232122167945	2	1	NaN	1802795.7796729	NaN	1802796.763104	1802797.27964528
37	19	0	0	90	36.1581920903955	36.241610738255	0	0	1	11	2	NaN	2	4	0.0428720246396203	0	1	NaN	167	3	41	1	110	210	310	NaN	510	0.481890622060746	2	1	NaN	1802798.729966	NaN	1802799.7133806	1802800.22993598
37	19	0	0	90	36.1581920903955	36.241610738255	18	0.600041088033468	2	9	6	NaN	2	4	0.0428720246396203	0	1	NaN	168	3	42	1	120	220	320	NaN	520	0.545626095030457	2	1	NaN	1802801.5302624	NaN	1802802.5136399	1802803.0302198
37	19	0	0	90	36.1581920903955	36.241610738255	22	0.733383552040905	2	4	4	NaN	1	4	0.0428720246396203	0	1	NaN	169	3	43	1	120	220	320	NaN	520	4.15889692702331	2	0	NaN	1802804.3972117	NaN	1802805.3806021	1802805.89715537
37	19	0	0	90	36.1581920903955	36.241610738255	10	0.333356160018593	2	8	3	NaN	2	4	0.0428720246396203	0	1	NaN	170	3	44	1	120	220	320	NaN	520	0.579433022066951	2	1	NaN	1802810.8643745	NaN	1802811.8479056	1802812.36446258
37	19	0	0	90	36.1581920903955	36.241610738255	17	0.566705472031608	2	7	1	NaN	2	5	0.0428720246396203	0	1	NaN	171	3	45	1	120	220	320	NaN	520	2.31566706951708	1	0	NaN	1802814.248156	NaN	1802815.2315713	1802815.74813013
37	19	0	0	90	36.1581920903955	36.241610738255	23	0.766719168042764	2	7	4	NaN	2	4	0.0428720246396203	0	1	NaN	172	3	46	1	120	220	320	NaN	520	0.385832969564945	2	1	NaN	1802818.8818702	NaN	1802819.8653741	1802820.38191193
37	19	0	0	90	36.1581920903955	36.241610738255	13	0.433363008024171	2	12	5	NaN	2	5	0.0428720246396203	0	1	NaN	173	3	47	1	120	220	320	NaN	520	0.461791422218084	2	1	NaN	1802821.5822319	NaN	1802822.5656377	1802823.08218598
37	19	0	0	90	36.1581920903955	36.241610738255	0	0	1	3	5	NaN	1	5	0.0428720246396203	0	1	NaN	174	3	48	1	110	210	310	NaN	510	0.0460453219711781	1	1	NaN	1802824.3658263	NaN	1802825.3492161	1802825.86578768
37	19	0	0	90	36.1581920903955	36.241610738255	19	0.633376704035327	2	5	5	NaN	1	4	0.0428720246396203	0	1	NaN	175	3	49	1	120	220	320	NaN	520	1.85643072216772	2	0	NaN	1802827.0993808	NaN	1802828.0828357	1802828.59939548
37	19	0	0	90	36.1581920903955	36.241610738255	19	0.633376704035327	2	12	6	NaN	2	4	0.0428720246396203	0	1	NaN	176	3	50	1	120	220	320	NaN	520	0.52970286947675	2	1	NaN	1802831.2665149	NaN	1802832.2499021	1802832.76646233
37	19	0	0	90	36.1581920903955	36.241610738255	9	0.300020544016734	2	4	3	NaN	1	3	0.0428720246396203	0	1	NaN	177	3	51	1	120	220	320	NaN	520	0.480081622023135	2	0	NaN	1802834.1001227	NaN	1802835.0835286	1802835.60008378
37	19	0	0	90	36.1581920903955	36.241610738255	22	0.733383552040905	2	1	6	NaN	1	5	0.0428720246396203	0	1	NaN	178	3	52	1	120	220	320	NaN	520	0.402537422254682	2	0	NaN	1802837.0337246	NaN	1802838.0171585	1802838.53370028
37	19	0	0	90	36.1581920903955	36.241610738255	14	0.46669862402603	2	4	2	NaN	1	5	0.0428720246396203	0	1	NaN	179	3	53	1	120	220	320	NaN	520	0.181561222067103	1	1	NaN	1802839.7507094	NaN	1802840.73407	1802841.25063468
37	19	0	0	90	36.1581920903955	36.241610738255	6	0.200013696011156	2	7	5	NaN	2	4	0.0428720246396203	0	1	NaN	180	3	54	1	120	220	320	NaN	520	0.209314122097567	1	0	NaN	1802842.2509202	NaN	1802843.2343327	1802843.75087208
37	19	0	0	90	36.1581920903955	36.241610738255	25	0.833390400046483	2	5	5	NaN	1	5	0.0428720246396203	0	1	NaN	181	3	55	1	120	220	320	NaN	520	0.155765322269872	2	0	NaN	1802844.7844931	NaN	1802845.7679042	1802846.28446688
37	19	0	0	90	36.1581920903955	36.241610738255	24	0.800054784044623	2	8	1	NaN	2	4	0.0428720246396203	0	1	NaN	182	3	56	1	120	220	320	NaN	520	0.36046963208355	1	0	NaN	1802847.2514368	NaN	1802848.2348632	1802848.75136647
37	19	0	0	90	36.1581920903955	36.241610738255	10	0.333356160018593	2	6	6	NaN	1	4	0.0428720246396203	0	1	NaN	183	3	57	1	120	220	320	NaN	520	1.60542912222445	1	1	NaN	1802849.9182318	NaN	1802850.9017345	1802851.41829638
37	19	0	0	90	36.1581920903955	36.241610738255	24	0.800054784044623	2	5	1	NaN	1	4	0.0428720246396203	0	1	NaN	184	3	58	1	120	220	320	NaN	520	0.464469169499353	2	0	NaN	1802853.8354059	NaN	1802854.8187886	1802855.33534353
37	19	0	0	90	36.1581920903955	36.241610738255	14	0.46669862402603	2	9	5	NaN	2	4	0.0428720246396203	0	1	NaN	185	3	59	1	120	220	320	NaN	520	0.281074869679287	2	1	NaN	1802856.6189958	NaN	1802857.6024008	1802858.11896223
37	19	0	0	90	36.1581920903955	36.241610738255	23	0.766719168042764	2	5	5	NaN	1	3	0.0428720246396203	0	1	NaN	186	3	60	1	120	220	320	NaN	520	0.0103759744670242	1	1	NaN	1802859.2191476	NaN	1802860.2026453	1802860.71921943
37	19	0	0	90	36.1581920903955	36.241610738255	9	0.300020544016734	2	2	1	NaN	1	5	0.0428720246396203	0	1	NaN	187	3	61	1	120	220	320	NaN	520	0.010389321949333	1	1	NaN	1802861.5360335	NaN	1802862.5195349	1802863.03610888
37	19	0	0	90	36.1581920903955	36.241610738255	11	0.366691776020452	2	9	5	NaN	2	5	0.0428720246396203	0	1	NaN	188	3	62	1	120	220	320	NaN	520	0.40655227471143	2	1	NaN	1802863.8697291	NaN	1802864.8531222	1802865.36966753
37	19	0	0	90	36.1581920903955	36.241610738255	11	0.366691776020452	2	11	3	NaN	2	3	0.0428720246396203	0	1	NaN	189	3	63	1	120	220	320	NaN	520	0.385410342365503	2	1	NaN	1802866.5865349	NaN	1802867.5700627	1802868.08660066
37	19	0	0	90	36.1581920903955	36.241610738255	15	0.50003424002789	2	3	6	NaN	1	5	0.0428720246396203	0	1	NaN	190	4	1	1	120	220	320	NaN	520	0.195360522018746	1	1	NaN	1802887.8887486	NaN	1802888.8721427	1802889.38871468
37	19	0	0	90	36.1581920903955	36.241610738255	23	0.766719168042764	2	5	6	NaN	1	3	0.0428720246396203	0	1	NaN	191	4	2	1	120	220	320	NaN	520	0.318828774616122	1	1	NaN	1802890.3889903	NaN	1802891.3723835	1802891.88894663
37	19	0	0	90	36.1581920903955	36.241610738255	12	0.400027392022312	2	2	2	NaN	1	4	0.0428720246396203	0	1	NaN	192	4	3	1	120	220	320	NaN	520	0.629707069601864	1	1	NaN	1802893.0225718	NaN	1802894.0059765	1802894.52253403
37	19	0	0	90	36.1581920903955	36.241610738255	11	0.366691776020452	2	8	4	NaN	2	3	0.0428720246396203	0	1	NaN	193	4	4	1	120	220	320	NaN	520	0.0104212695732713	2	1	NaN	1802895.9728663	NaN	1802896.9562634	1802897.47281763
37	19	0	0	90	36.1581920903955	36.241610738255	24	0.800054784044623	2	12	2	NaN	2	4	0.0428720246396203	0	1	NaN	194	4	5	1	120	220	320	NaN	520	1.39362936443649	2	1	NaN	1802898.3064169	NaN	1802899.2898232	1802899.80638394
37	19	0	0	90	36.1581920903955	36.241610738255	10	0.333356160018593	2	10	2	NaN	2	5	0.0428720246396203	0	1	NaN	195	4	6	1	120	220	320	NaN	520	0.805227506905794	1	0	NaN	1802902.0067931	NaN	1802902.9902245	1802903.50673709
37	19	0	0	90	36.1581920903955	36.241610738255	25	0.833390400046483	2	3	4	NaN	1	3	0.0428720246396203	0	1	NaN	196	4	7	1	120	220	320	NaN	520	0.0103910220786929	2	0	NaN	1802905.1237602	NaN	1802906.1071636	1802906.62372248
37	19	0	0	90	36.1581920903955	36.241610738255	18	0.600041088033468	2	5	4	NaN	1	4	0.0428720246396203	0	1	NaN	197	4	8	1	120	220	320	NaN	520	0.0593646222259849	1	1	NaN	1802907.4406603	NaN	1802908.4240409	1802908.94062048
37	19	0	0	90	36.1581920903955	36.241610738255	19	0.633376704035327	2	8	1	NaN	2	3	0.0428720246396203	0	1	NaN	198	4	9	1	120	220	320	NaN	520	0.292759474599734	1	0	NaN	1802909.8075709	NaN	1802910.7909453	1802911.30751613
37	19	0	0	90	36.1581920903955	36.241610738255	6	0.200013696011156	2	12	2	NaN	2	4	0.0428720246396203	0	1	NaN	199	4	10	1	120	220	320	NaN	520	1.38030326971784	2	1	NaN	1802912.4076942	NaN	1802913.3912501	1802913.90776343
37	19	0	0	90	36.1581920903955	36.241610738255	18	0.600041088033468	2	5	6	NaN	1	3	0.0428720246396203	0	1	NaN	200	4	11	1	120	220	320	NaN	520	0.0645700169261545	2	0	NaN	1802916.0915068	NaN	1802917.0749095	1802917.59146408
37	19	0	0	90	36.1581920903955	36.241610738255	13	0.433363008024171	2	6	4	NaN	1	5	0.0428720246396203	0	1	NaN	201	4	12	1	120	220	320	NaN	520	1.58500572224148	1	1	NaN	1802918.4750708	NaN	1802919.4584681	1802919.97502488
37	19	0	0	90	36.1581920903955	36.241610738255	23	0.766719168042764	2	6	3	NaN	1	5	0.0428720246396203	0	1	NaN	202	4	13	1	120	220	320	NaN	520	0.332503369543701	1	1	NaN	1802922.3754792	NaN	1802923.3588567	1802923.87540573
37	19	0	0	90	36.1581920903955	36.241610738255	16	0.533369856029749	2	3	6	NaN	1	3	0.0428720246396203	0	1	NaN	203	4	14	1	120	220	320	NaN	520	1.17043026955798	2	0	NaN	1802925.0257161	NaN	1802926.0091248	1802926.52567273
37	19	0	0	90	36.1581920903955	36.241610738255	8	0.266684928014874	2	9	5	NaN	2	4	0.0428720246396203	0	1	NaN	204	4	15	1	120	220	320	NaN	520	0.406460569472983	1	0	NaN	1802928.509394	NaN	1802929.4927957	1802930.00934953
37	19	0	0	90	36.1581920903955	36.241610738255	21	0.700047936039045	2	9	6	NaN	2	3	0.0428720246396203	0	1	NaN	205	4	16	1	120	220	320	NaN	520	0.0104185168165714	2	1	NaN	1802931.2263228	NaN	1802932.2097328	1802932.72628118
37	19	0	0	90	36.1581920903955	36.241610738255	22	0.733383552040905	2	11	2	NaN	2	4	0.0428720246396203	0	1	NaN	206	4	17	1	120	220	320	NaN	520	0.364197616931051	1	0	NaN	1802933.5599111	NaN	1802934.5433145	1802935.05983788
37	19	0	0	90	36.1581920903955	36.241610738255	0	0	1	5	2	NaN	1	4	0.0428720246396203	0	1	NaN	207	4	18	1	110	210	310	NaN	510	1.8004096695222	2	0	NaN	1802936.2435735	NaN	1802937.2268759	1802937.74343643
37	19	0	0	90	36.1581920903955	36.241610738255	8	0.266684928014874	2	1	6	NaN	1	3	0.0428720246396203	0	1	NaN	208	4	19	1	120	220	320	NaN	520	0.787528316956013	1	1	NaN	1802940.3605644	NaN	1802941.3439539	1802941.86050698
37	19	0	0	90	36.1581920903955	36.241610738255	25	0.833390400046483	2	4	4	NaN	1	4	0.0428720246396203	0	1	NaN	209	4	20	1	120	220	320	NaN	520	0.0953717220108956	2	0	NaN	1802943.4608663	NaN	1802944.4442702	1802944.96081198
37	19	0	0	90	36.1581920903955	36.241610738255	0	0	1	4	6	NaN	1	5	0.0428720246396203	0	1	NaN	210	4	21	1	110	210	310	NaN	510	1.22331601683982	2	0	NaN	1802945.8611103	NaN	1802946.8444984	1802947.36104878
37	19	0	0	90	36.1581920903955	36.241610738255	11	0.366691776020452	2	4	4	NaN	1	5	0.0428720246396203	0	1	NaN	211	4	22	1	120	220	320	NaN	520	1.98141822218895	2	0	NaN	1802949.6948324	NaN	1802950.6782009	1802951.19476188
37	19	0	0	90	36.1581920903955	36.241610738255	19	0.633376704035327	2	5	2	NaN	1	4	0.0428720246396203	0	1	NaN	212	4	23	1	120	220	320	NaN	520	0.480663122143596	2	0	NaN	1802953.9952202	NaN	1802954.9786215	1802955.49519048
37	19	0	0	90	36.1581920903955	36.241610738255	12	0.400027392022312	2	12	3	NaN	2	5	0.0428720246396203	0	1	NaN	213	4	24	1	120	220	320	NaN	520	0.0104001220315695	2	1	NaN	1802956.7788569	NaN	1802957.7622418	1802958.27878688
37	19	0	0	90	36.1581920903955	36.241610738255	7	0.233349312013015	2	3	1	NaN	1	4	0.0428720246396203	0	1	NaN	214	4	25	1	120	220	320	NaN	520	1.29227531701326	1	1	NaN	1802959.0958235	NaN	1802960.0791245	1802960.59569168
37	19	0	0	90	36.1581920903955	36.241610738255	17	0.566705472031608	2	9	2	NaN	2	3	0.0428720246396203	0	1	NaN	215	4	26	1	120	220	320	NaN	520	1.57076002215035	2	1	NaN	1802963.1294428	NaN	1802964.1128555	1802964.62941628
37	19	0	0	90	36.1581920903955	36.241610738255	13	0.433363008024171	2	5	5	NaN	1	5	0.0428720246396203	0	1	NaN	216	4	27	1	120	220	320	NaN	520	0.0104067695792764	1	1	NaN	1802967.0131881	NaN	1802967.996574	1802968.51313113
37	19	0	0	90	36.1581920903955	36.241610738255	24	0.800054784044623	2	9	5	NaN	2	4	0.0428720246396203	0	1	NaN	217	4	28	1	120	220	320	NaN	520	0.613336522132158	1	0	NaN	1802969.4467183	NaN	1802970.4301595	1802970.94669908
37	19	0	0	90	36.1581920903955	36.241610738255	14	0.46669862402603	2	9	1	NaN	2	4	0.0428720246396203	0	1	NaN	218	4	29	1	120	220	320	NaN	520	0.263565369416028	1	0	NaN	1802972.3803728	NaN	1802973.3637563	1802973.88032843
37	19	0	0	90	36.1581920903955	36.241610738255	11	0.366691776020452	2	4	5	NaN	1	3	0.0428720246396203	0	1	NaN	219	4	30	1	120	220	320	NaN	520	0.312202222179621	1	1	NaN	1802975.5639473	NaN	1802976.547407	1802977.06396978
37	19	0	0	90	36.1581920903955	36.241610738255	16	0.533369856029749	2	9	3	NaN	2	4	0.0428720246396203	0	1	NaN	220	4	31	1	120	220	320	NaN	520	0.71136482222937	1	0	NaN	1802978.1809318	NaN	1802979.1643333	1802979.68090088
37	19	0	0	90	36.1581920903955	36.241610738255	0	0	1	2	2	NaN	1	3	0.0428720246396203	0	1	NaN	221	4	32	1	110	210	310	NaN	510	0.0301415219437331	2	0	NaN	1802981.1979272	NaN	1802982.1813166	1802982.69785908
37	19	0	0	90	36.1581920903955	36.241610738255	6	0.200013696011156	2	8	5	NaN	2	5	0.0428720246396203	0	1	NaN	222	4	33	1	120	220	320	NaN	520	0.488646416924894	2	1	NaN	1802983.53146	NaN	1802984.5148645	1802985.03141768
37	19	0	0	90	36.1581920903955	36.241610738255	17	0.566705472031608	2	8	6	NaN	2	4	0.0428720246396203	0	1	NaN	223	4	34	1	120	220	320	NaN	520	0.440649222116917	1	0	NaN	1802986.3317717	NaN	1802987.3151498	1802987.83169308
37	19	0	0	90	36.1581920903955	36.241610738255	14	0.46669862402603	2	4	5	NaN	1	4	0.0428720246396203	0	1	NaN	224	4	35	1	120	220	320	NaN	520	0.234374669380486	1	1	NaN	1802989.0818842	NaN	1802990.06541	1802990.58196933
37	19	0	0	90	36.1581920903955	36.241610738255	10	0.333356160018593	2	2	6	NaN	1	4	0.0428720246396203	0	1	NaN	225	4	36	1	120	220	320	NaN	520	0.339408322004601	1	1	NaN	1802992.0489851	NaN	1802993.0323521	1802993.54892658
37	19	0	0	90	36.1581920903955	36.241610738255	11	0.366691776020452	2	12	5	NaN	2	3	0.0428720246396203	0	1	NaN	226	4	37	1	120	220	320	NaN	520	0.489246769575402	1	0	NaN	1802994.6992414	NaN	1802995.682634	1802996.19918413
37	19	0	0	90	36.1581920903955	36.241610738255	6	0.200013696011156	2	6	2	NaN	1	3	0.0428720246396203	0	1	NaN	227	4	38	1	120	220	320	NaN	520	0.264942522160709	1	1	NaN	1802997.8996445	NaN	1802998.8829389	1802999.39949088
37	19	0	0	90	36.1581920903955	36.241610738255	13	0.433363008024171	2	6	4	NaN	1	4	0.0428720246396203	0	1	NaN	228	4	39	1	120	220	320	NaN	520	0.161113622132689	1	1	NaN	1803000.4831354	NaN	1803001.4665238	1803001.98309028
37	19	0	0	90	36.1581920903955	36.241610738255	22	0.733383552040905	2	9	5	NaN	2	5	0.0428720246396203	0	1	NaN	229	4	40	1	120	220	320	NaN	520	0.431756422156468	2	1	NaN	1803003.3167417	NaN	1803004.3001288	1803004.81670318
37	19	0	0	90	36.1581920903955	36.241610738255	10	0.333356160018593	2	6	1	NaN	1	5	0.0428720246396203	0	1	NaN	230	4	41	1	120	220	320	NaN	520	0.409269522177055	1	1	NaN	1803006.0670688	NaN	1803007.0504359	1803007.56696928
37	19	0	0	90	36.1581920903955	36.241610738255	12	0.400027392022312	2	12	3	NaN	2	3	0.0428720246396203	0	1	NaN	231	4	42	1	120	220	320	NaN	520	0.0103001373354346	2	1	NaN	1803010.0673772	NaN	1803011.0508004	1803011.56736686
37	19	0	0	90	36.1581920903955	36.241610738255	15	0.50003424002789	2	10	4	NaN	2	4	0.0428720246396203	0	1	NaN	232	4	43	1	120	220	320	NaN	520	0.297020969446748	2	1	NaN	1803012.6505848	NaN	1803013.6343972	1803014.15094653
37	19	0	0	90	36.1581920903955	36.241610738255	6	0.200013696011156	2	2	4	NaN	1	3	0.0428720246396203	0	1	NaN	233	4	44	1	120	220	320	NaN	520	0.303940922254696	2	0	NaN	1803015.2677913	NaN	1803016.2513311	1803016.76786948
37	19	0	0	90	36.1581920903955	36.241610738255	11	0.366691776020452	2	8	1	NaN	2	4	0.0428720246396203	0	1	NaN	234	4	45	1	120	220	320	NaN	520	0.353271816857159	2	1	NaN	1803018.234871	NaN	1803019.2182734	1803019.73482438
37	19	0	0	90	36.1581920903955	36.241610738255	10	0.333356160018593	2	11	5	NaN	2	4	0.0428720246396203	0	1	NaN	235	4	46	1	120	220	320	NaN	520	0.35421167453751	1	0	NaN	1803021.2018423	NaN	1803022.18522	1803022.70178613
37	19	0	0	90	36.1581920903955	36.241610738255	19	0.633376704035327	2	6	1	NaN	1	3	0.0428720246396203	0	1	NaN	236	4	47	1	120	220	320	NaN	520	1.0516480745282	2	0	NaN	1803024.5689015	NaN	1803025.5522231	1803026.06878923
37	19	0	0	90	36.1581920903955	36.241610738255	9	0.300020544016734	2	7	6	NaN	2	5	0.0428720246396203	0	1	NaN	237	4	48	1	120	220	320	NaN	520	0.164078974630684	2	1	NaN	1803029.9359275	NaN	1803030.9194035	1803031.43598283
37	19	0	0	90	36.1581920903955	36.241610738255	17	0.566705472031608	2	8	5	NaN	2	4	0.0428720246396203	0	1	NaN	238	4	49	1	120	220	320	NaN	520	0.262638974469155	1	0	NaN	1803032.469512	NaN	1803033.4529986	1803033.96955393
37	19	0	0	90	36.1581920903955	36.241610738255	9	0.300020544016734	2	4	6	NaN	1	5	0.0428720246396203	0	1	NaN	239	4	50	1	120	220	320	NaN	520	0.448944122064859	1	1	NaN	1803036.2032772	NaN	1803037.1866976	1803037.70325938
37	19	0	0	90	36.1581920903955	36.241610738255	19	0.633376704035327	2	9	6	NaN	2	5	0.0428720246396203	0	1	NaN	240	4	51	1	120	220	320	NaN	520	0.266605537384748	1	0	NaN	1803038.9535091	NaN	1803039.937049	1803040.45353066
37	19	0	0	90	36.1581920903955	36.241610738255	14	0.46669862402603	2	6	1	NaN	1	3	0.0428720246396203	0	1	NaN	241	4	52	1	120	220	320	NaN	520	0.450841022189707	1	1	NaN	1803044.1374347	NaN	1803045.1208011	1803045.63736878
37	19	0	0	90	36.1581920903955	36.241610738255	19	0.633376704035327	2	11	2	NaN	2	4	0.0428720246396203	0	1	NaN	242	4	53	1	120	220	320	NaN	520	0.347751769470051	2	1	NaN	1803046.9042593	NaN	1803047.8877652	1803048.40431603
37	19	0	0	90	36.1581920903955	36.241610738255	15	0.50003424002789	2	8	1	NaN	2	4	0.0428720246396203	0	1	NaN	243	4	54	1	120	220	320	NaN	520	0.897272469475865	2	1	NaN	1803049.5712752	NaN	1803050.5546632	1803051.07123593
37	19	0	0	90	36.1581920903955	36.241610738255	13	0.433363008024171	2	7	4	NaN	2	3	0.0428720246396203	0	1	NaN	244	4	55	1	120	220	320	NaN	520	0.485464422032237	1	0	NaN	1803052.8548695	NaN	1803053.8383425	1803054.35489908
37	19	0	0	90	36.1581920903955	36.241610738255	12	0.400027392022312	2	3	6	NaN	1	4	0.0428720246396203	0	1	NaN	245	4	56	1	120	220	320	NaN	520	0.477406522026286	1	1	NaN	1803055.6552318	NaN	1803056.6386187	1803057.15516408
37	19	0	0	90	36.1581920903955	36.241610738255	24	0.800054784044623	2	12	1	NaN	2	3	0.0428720246396203	0	1	NaN	246	4	57	1	120	220	320	NaN	520	0.0104584272485226	1	0	NaN	1803058.4554746	NaN	1803059.4388837	1803059.95544587
37	19	0	0	90	36.1581920903955	36.241610738255	14	0.46669862402603	2	8	1	NaN	2	4	0.0428720246396203	0	1	NaN	247	4	58	1	120	220	320	NaN	520	0.264048022218049	2	1	NaN	1803060.7723163	NaN	1803061.7557762	1803062.27234138
37	19	0	0	90	36.1581920903955	36.241610738255	8	0.266684928014874	2	2	2	NaN	1	4	0.0428720246396203	0	1	NaN	248	4	59	1	120	220	320	NaN	520	0.496412822045386	2	0	NaN	1803063.3560176	NaN	1803064.3393596	1803064.85592538
37	19	0	0	90	36.1581920903955	36.241610738255	13	0.433363008024171	2	9	5	NaN	2	3	0.0428720246396203	0	1	NaN	249	4	60	1	120	220	320	NaN	520	0.0102591949980706	1	0	NaN	1803066.1728978	NaN	1803067.1563209	1803067.67288021
37	19	0	0	90	36.1581920903955	36.241610738255	0	0	1	1	4	NaN	1	4	0.0428720246396203	0	1	NaN	250	4	61	1	110	210	310	NaN	510	0.010406069457531	1	1	NaN	1803068.506469	NaN	1803069.4898851	1803070.00643233
37	19	0	0	90	36.1581920903955	36.241610738255	23	0.766719168042764	2	4	3	NaN	1	3	0.0428720246396203	0	1	NaN	251	4	62	1	120	220	320	NaN	520	0.358675979776308	1	1	NaN	1803071.3733977	NaN	1803072.3568149	1803072.87338432
37	19	0	0	90	36.1581920903955	36.241610738255	10	0.333356160018593	2	5	6	NaN	1	3	0.0428720246396203	0	1	NaN	252	4	63	1	120	220	320	NaN	520	0.107881222153082	1	1	NaN	1803074.0403448	NaN	1803075.0237424	1803075.54030678
37	19	0	0	90	36.1581920903955	36.241610738255	7	0.233349312013015	2	6	5	NaN	1	4	0.0428720246396203	0	1	NaN	253	5	1	1	120	220	320	NaN	520	0.143501669401303	2	0	NaN	1803098.8927791	NaN	1803099.8761921	1803100.39274163
37	19	0	0	90	36.1581920903955	36.241610738255	8	0.266684928014874	2	9	1	NaN	2	3	0.0428720246396203	0	1	NaN	254	5	2	1	120	220	320	NaN	520	0.255101122194901	2	1	NaN	1803101.6930451	NaN	1803102.6764696	1803103.19302198
37	19	0	0	90	36.1581920903955	36.241610738255	0	0	1	12	6	NaN	2	4	0.0428720246396203	0	1	NaN	255	5	3	1	110	210	310	NaN	510	0.48063337453641	2	1	NaN	1803104.2599948	NaN	1803105.2433817	1803105.75993743
37	19	0	0	90	36.1581920903955	36.241610738255	21	0.700047936039045	2	10	2	NaN	2	5	0.0428720246396203	0	1	NaN	256	5	4	1	120	220	320	NaN	520	0.337084022117779	2	1	NaN	1803107.0436179	NaN	1803108.0269803	1803108.54354528
37	19	0	0	90	36.1581920903955	36.241610738255	20	0.666712320037186	2	12	1	NaN	2	4	0.0428720246396203	0	1	NaN	257	5	5	1	120	220	320	NaN	520	0.398518169531599	1	0	NaN	1803109.6938502	NaN	1803110.6772824	1803111.19381193
37	19	0	0	90	36.1581920903955	36.241610738255	18	0.600041088033468	2	6	5	NaN	1	4	0.0428720246396203	0	1	NaN	258	5	6	1	120	220	320	NaN	520	0.255551674636081	1	1	NaN	1803112.4607595	NaN	1803113.4442005	1803113.96075083
37	19	0	0	90	36.1581920903955	36.241610738255	20	0.666712320037186	2	9	4	NaN	2	5	0.0428720246396203	0	1	NaN	259	5	7	1	120	220	320	NaN	520	0.248782269423828	1	0	NaN	1803115.0275694	NaN	1803116.0110988	1803116.52766733
37	19	0	0	90	36.1581920903955	36.241610738255	16	0.533369856029749	2	2	6	NaN	1	3	0.0428720246396203	0	1	NaN	260	5	8	1	120	220	320	NaN	520	0.44201232213527	1	1	NaN	1803117.5946342	NaN	1803118.5780361	1803119.09458018
37	19	0	0	90	36.1581920903955	36.241610738255	23	0.766719168042764	2	9	5	NaN	2	4	0.0428720246396203	0	1	NaN	261	5	9	1	120	220	320	NaN	520	0.0104219694621861	1	0	NaN	1803120.3448906	NaN	1803121.3282175	1803121.84485963
37	19	0	0	90	36.1581920903955	36.241610738255	21	0.700047936039045	2	1	2	NaN	1	3	0.0428720246396203	0	1	NaN	262	5	10	1	120	220	320	NaN	520	0.294565922114998	2	0	NaN	1803122.6616654	NaN	1803123.6452118	1803124.16174168
37	19	0	0	90	36.1581920903955	36.241610738255	23	0.766719168042764	2	8	6	NaN	2	5	0.0428720246396203	0	1	NaN	263	5	11	1	120	220	320	NaN	520	0.206332174362615	1	0	NaN	1803125.2620086	NaN	1803126.2454495	1803126.76201183
37	19	0	0	90	36.1581920903955	36.241610738255	9	0.300020544016734	2	6	3	NaN	1	5	0.0428720246396203	0	1	NaN	264	5	12	1	120	220	320	NaN	520	0.241856722161174	2	0	NaN	1803127.7789785	NaN	1803128.7623968	1803129.27891988
37	19	0	0	90	36.1581920903955	36.241610738255	23	0.766719168042764	2	4	5	NaN	1	5	0.0428720246396203	0	1	NaN	265	5	13	1	120	220	320	NaN	520	0.235379716847092	1	1	NaN	1803130.3292186	NaN	1803131.312643	1803131.82916848
37	19	0	0	90	36.1581920903955	36.241610738255	6	0.200013696011156	2	4	5	NaN	1	3	0.0428720246396203	0	1	NaN	266	5	14	1	120	220	320	NaN	520	0.295947922160849	1	1	NaN	1803133.3961483	NaN	1803134.379587	1803134.89613588
37	19	0	0	90	36.1581920903955	36.241610738255	9	0.300020544016734	2	9	1	NaN	2	4	0.0428720246396203	0	1	NaN	267	5	15	1	120	220	320	NaN	520	0.381130322115496	2	1	NaN	1803136.463198	NaN	1803137.4465582	1803137.96311238
37	19	0	0	90	36.1581920903955	36.241610738255	14	0.46669862402603	2	7	6	NaN	2	5	0.0428720246396203	0	1	NaN	268	5	16	1	120	220	320	NaN	520	0.31288762204349	2	1	NaN	1803139.1634207	NaN	1803140.1468254	1803140.66337578
37	19	0	0	90	36.1581920903955	36.241610738255	18	0.600041088033468	2	4	2	NaN	1	3	0.0428720246396203	0	1	NaN	269	5	17	1	120	220	320	NaN	520	0.136066469363868	1	1	NaN	1803141.7803239	NaN	1803142.7636448	1803143.28029673
37	19	0	0	90	36.1581920903955	36.241610738255	17	0.566705472031608	2	9	6	NaN	2	4	0.0428720246396203	0	1	NaN	270	5	18	1	120	220	320	NaN	520	0.261847274610773	2	1	NaN	1803144.230592	NaN	1803145.2139914	1803145.73054013
37	19	0	0	90	36.1581920903955	36.241610738255	21	0.700047936039045	2	4	2	NaN	1	4	0.0428720246396203	0	1	NaN	271	5	19	1	120	220	320	NaN	520	0.214239369379357	1	1	NaN	1803146.8141785	NaN	1803147.7975969	1803148.31412483
37	19	0	0	90	36.1581920903955	36.241610738255	24	0.800054784044623	2	10	6	NaN	2	4	0.0428720246396203	0	1	NaN	272	5	20	1	120	220	320	NaN	520	0.37229372235015	2	1	NaN	1803149.464401	NaN	1803150.4478157	1803150.96437708
37	19	0	0	90	36.1581920903955	36.241610738255	9	0.300020544016734	2	1	2	NaN	1	3	0.0428720246396203	0	1	NaN	273	5	21	1	120	220	320	NaN	520	0.416454522171989	1	1	NaN	1803152.1480336	NaN	1803153.1314178	1803153.64798118
37	19	0	0	90	36.1581920903955	36.241610738255	15	0.50003424002789	2	6	2	NaN	1	4	0.0428720246396203	0	1	NaN	274	5	22	1	120	220	320	NaN	520	0.331043594982475	1	1	NaN	1803154.8816374	NaN	1803155.8649173	1803156.3815804
37	19	0	0	90	36.1581920903955	36.241610738255	19	0.633376704035327	2	1	2	NaN	1	5	0.0428720246396203	0	1	NaN	275	5	23	1	120	220	320	NaN	520	0.37625372223556	1	1	NaN	1803157.531826	NaN	1803158.5152832	1803159.03184228
37	19	0	0	90	36.1581920903955	36.241610738255	16	0.533369856029749	2	8	5	NaN	2	4	0.0428720246396203	0	1	NaN	276	5	24	1	120	220	320	NaN	520	0.298203837359324	2	1	NaN	1803160.68213	NaN	1803161.6656085	1803162.18214826
37	19	0	0	90	36.1581920903955	36.241610738255	12	0.400027392022312	2	7	1	NaN	2	5	0.0428720246396203	0	1	NaN	277	5	25	1	120	220	320	NaN	520	0.31406952207908	2	1	NaN	1803163.2825539	NaN	1803164.2658753	1803164.78240878
37	19	0	0	90	36.1581920903955	36.241610738255	7	0.233349312013015	2	8	2	NaN	2	3	0.0428720246396203	0	1	NaN	278	5	26	1	120	220	320	NaN	520	0.288372622104362	2	1	NaN	1803165.9160579	NaN	1803166.8994489	1803167.41599288
37	19	0	0	90	36.1581920903955	36.241610738255	8	0.266684928014874	2	8	4	NaN	2	3	0.0428720246396203	0	1	NaN	279	5	27	1	120	220	320	NaN	520	0.280178822111338	1	0	NaN	1803168.5162904	NaN	1803169.4996903	1803170.01625928
37	19	0	0	90	36.1581920903955	36.241610738255	20	0.666712320037186	2	1	3	NaN	1	5	0.0428720246396203	0	1	NaN	280	5	28	1	120	220	320	NaN	520	0.0880629220046103	2	0	NaN	1803171.1165763	NaN	1803172.0999514	1803172.61650698
37	19	0	0	90	36.1581920903955	36.241610738255	22	0.733383552040905	2	5	3	NaN	1	4	0.0428720246396203	0	1	NaN	281	5	29	1	120	220	320	NaN	520	0.0555612221360207	2	0	NaN	1803173.5166614	NaN	1803174.5001877	1803175.01674998
37	19	0	0	90	36.1581920903955	36.241610738255	25	0.833390400046483	2	5	4	NaN	1	5	0.0428720246396203	0	1	NaN	282	5	30	1	120	220	320	NaN	520	0.272734522121027	1	1	NaN	1803175.8837098	NaN	1803176.8670789	1803177.38363478
37	19	0	0	90	36.1581920903955	36.241610738255	7	0.233349312013015	2	2	5	NaN	1	3	0.0428720246396203	0	1	NaN	283	5	31	1	120	220	320	NaN	520	0.0104049693327397	1	1	NaN	1803178.4672862	NaN	1803179.4506693	1803179.96723363
37	19	0	0	90	36.1581920903955	36.241610738255	11	0.366691776020452	2	2	6	NaN	1	5	0.0428720246396203	0	1	NaN	284	5	32	1	120	220	320	NaN	520	0.460389022249728	1	1	NaN	1803180.7841908	NaN	1803181.7675644	1803182.28412078
37	19	0	0	90	36.1581920903955	36.241610738255	16	0.533369856029749	2	11	5	NaN	2	4	0.0428720246396203	0	1	NaN	285	5	33	1	120	220	320	NaN	520	2.98295811703429	2	1	NaN	1803183.9011128	NaN	1803184.8845343	1803185.40109138
37	19	0	0	90	36.1581920903955	36.241610738255	6	0.200013696011156	2	9	3	NaN	2	4	0.0428720246396203	0	1	NaN	286	5	34	1	120	220	320	NaN	520	0.57871022215113	2	1	NaN	1803189.20157	NaN	1803190.1850588	1803190.70161458
37	19	0	0	90	36.1581920903955	36.241610738255	20	0.666712320037186	2	2	5	NaN	1	5	0.0428720246396203	0	1	NaN	287	5	35	1	120	220	320	NaN	520	1.50277022225782	1	1	NaN	1803192.1018267	NaN	1803193.0853482	1803193.60190338
37	19	0	0	90	36.1581920903955	36.241610738255	11	0.366691776020452	2	9	1	NaN	2	3	0.0428720246396203	0	1	NaN	288	5	36	1	120	220	320	NaN	520	0.0103781744837761	2	1	NaN	1803196.7017664	NaN	1803197.6858107	1803198.20235933
37	19	0	0	90	36.1581920903955	36.241610738255	9	0.300020544016734	2	5	3	NaN	1	5	0.0428720246396203	0	1	NaN	289	5	37	1	120	220	320	NaN	520	0.24708224227652	2	0	NaN	1803199.4693171	NaN	1803200.4527459	1803200.96929246
37	19	0	0	90	36.1581920903955	36.241610738255	11	0.366691776020452	2	7	2	NaN	2	4	0.0428720246396203	0	1	NaN	290	5	38	1	120	220	320	NaN	520	0.304950922029093	2	1	NaN	1803202.0196328	NaN	1803203.0029982	1803203.51954418
37	19	0	0	90	36.1581920903955	36.241610738255	19	0.633376704035327	2	4	5	NaN	1	4	0.0428720246396203	0	1	NaN	291	5	39	1	120	220	320	NaN	520	0.335857969708741	2	0	NaN	1803204.6365214	NaN	1803205.6199151	1803206.13646873
37	19	0	0	90	36.1581920903955	36.241610738255	15	0.50003424002789	2	5	1	NaN	1	3	0.0428720246396203	0	1	NaN	292	5	40	1	120	220	320	NaN	520	1.39778066962026	1	1	NaN	1803207.2867931	NaN	1803208.2701607	1803208.78673513
37	19	0	0	90	36.1581920903955	36.241610738255	18	0.600041088033468	2	2	3	NaN	1	5	0.0428720246396203	0	1	NaN	293	5	41	1	120	220	320	NaN	520	0.0246323221363127	1	1	NaN	1803211.0038032	NaN	1803211.9872038	1803212.50376028
37	19	0	0	90	36.1581920903955	36.241610738255	20	0.666712320037186	2	6	1	NaN	1	4	0.0428720246396203	0	1	NaN	294	5	42	1	120	220	320	NaN	520	0.0103974221274257	1	1	NaN	1803213.3372367	NaN	1803214.3207646	1803214.83733558
37	19	0	0	90	36.1581920903955	36.241610738255	12	0.400027392022312	2	10	4	NaN	2	4	0.0428720246396203	0	1	NaN	295	5	43	1	120	220	320	NaN	520	0.394515322055668	2	1	NaN	1803215.7542509	NaN	1803216.7376602	1803217.25422018
37	19	0	0	90	36.1581920903955	36.241610738255	6	0.200013696011156	2	11	4	NaN	2	3	0.0428720246396203	0	1	NaN	296	5	44	1	120	220	320	NaN	520	0.0103729744441807	2	1	NaN	1803218.4545554	NaN	1803219.4379255	1803219.95449623
37	19	0	0	90	36.1581920903955	36.241610738255	24	0.800054784044623	2	3	5	NaN	1	3	0.0428720246396203	0	1	NaN	297	5	45	1	120	220	320	NaN	520	0.010415569646284	1	1	NaN	1803220.9880754	NaN	1803221.971522	1803222.48807693
37	19	0	0	90	36.1581920903955	36.241610738255	24	0.800054784044623	2	1	3	NaN	1	5	0.0428720246396203	0	1	NaN	298	5	46	1	120	220	320	NaN	520	0.385069716954604	1	1	NaN	1803223.5716783	NaN	1803224.5551154	1803225.07165628
37	19	0	0	90	36.1581920903955	36.241610738255	6	0.200013696011156	2	8	5	NaN	2	3	0.0428720246396203	0	1	NaN	299	5	47	1	120	220	320	NaN	520	0.379827616969123	2	1	NaN	1803226.6886932	NaN	1803227.6720769	1803228.18863258
37	19	0	0	90	36.1581920903955	36.241610738255	9	0.300020544016734	2	11	3	NaN	2	3	0.0428720246396203	0	1	NaN	300	5	48	1	120	220	320	NaN	520	0.791782894870266	1	0	NaN	1803229.3889425	NaN	1803230.372352	1803230.88890761
37	19	0	0	90	36.1581920903955	36.241610738255	19	0.633376704035327	2	10	5	NaN	2	3	0.0428720246396203	0	1	NaN	301	5	49	1	120	220	320	NaN	520	0.051555369514972	1	0	NaN	1803232.4892576	NaN	1803233.4726397	1803233.98920133
37	19	0	0	90	36.1581920903955	36.241610738255	15	0.50003424002789	2	4	3	NaN	1	4	0.0428720246396203	0	1	NaN	302	5	50	1	120	220	320	NaN	520	0.27551519498229	2	0	NaN	1803235.27282	NaN	1803236.2562766	1803236.77281831
37	19	0	0	90	36.1581920903955	36.241610738255	8	0.266684928014874	2	5	6	NaN	1	5	0.0428720246396203	0	1	NaN	303	5	51	1	120	220	320	NaN	520	0.428370722336695	1	1	NaN	1803237.8564453	NaN	1803238.8398505	1803239.35640848
37	19	0	0	90	36.1581920903955	36.241610738255	22	0.733383552040905	2	9	4	NaN	2	4	0.0428720246396203	0	1	NaN	304	5	52	1	120	220	320	NaN	520	0.190493742469698	1	0	NaN	1803240.5899309	NaN	1803241.5734259	1803242.09000326
37	19	0	0	90	36.1581920903955	36.241610738255	6	0.200013696011156	2	1	5	NaN	1	3	0.0428720246396203	0	1	NaN	305	5	53	1	120	220	320	NaN	520	0.018317369511351	1	1	NaN	1803243.0902445	NaN	1803244.0737382	1803244.59024333
37	19	0	0	90	36.1581920903955	36.241610738255	15	0.50003424002789	2	2	1	NaN	1	5	0.0428720246396203	0	1	NaN	306	5	54	1	120	220	320	NaN	520	0.308263322105631	1	1	NaN	1803245.4404794	NaN	1803246.4239019	1803246.94047278
37	19	0	0	90	36.1581920903955	36.241610738255	16	0.533369856029749	2	10	5	NaN	2	4	0.0428720246396203	0	1	NaN	307	5	55	1	120	220	320	NaN	520	0.250310642411932	1	0	NaN	1803248.0741242	NaN	1803249.0575149	1803249.57406566
37	19	0	0	90	36.1581920903955	36.241610738255	24	0.800054784044623	2	11	4	NaN	2	4	0.0428720246396203	0	1	NaN	308	5	56	1	120	220	320	NaN	520	0.0103935222141445	2	1	NaN	1803251.0909553	NaN	1803252.074454	1803252.59102598
37	19	0	0	90	36.1581920903955	36.241610738255	14	0.46669862402603	2	2	6	NaN	1	4	0.0428720246396203	0	1	NaN	309	5	57	1	120	220	320	NaN	520	0.0104074694681913	1	1	NaN	1803253.6746334	NaN	1803254.6580509	1803255.17461673
37	19	0	0	90	36.1581920903955	36.241610738255	24	0.800054784044623	2	5	1	NaN	1	4	0.0428720246396203	0	1	NaN	310	5	58	1	120	220	320	NaN	520	0.492903922218829	2	0	NaN	1803255.9914829	NaN	1803256.974982	1803257.49150188
37	19	0	0	90	36.1581920903955	36.241610738255	15	0.50003424002789	2	8	1	NaN	2	4	0.0428720246396203	0	1	NaN	311	5	59	1	120	220	320	NaN	520	0.460912469541654	2	1	NaN	1803258.791825	NaN	1803259.7752483	1803260.29178353
37	19	0	0	90	36.1581920903955	36.241610738255	10	0.333356160018593	2	2	2	NaN	1	3	0.0428720246396203	0	1	NaN	312	5	60	1	120	220	320	NaN	520	0.0103770745918155	1	1	NaN	1803261.5587346	NaN	1803262.5421748	1803263.05872913
37	19	0	0	90	36.1581920903955	36.241610738255	14	0.46669862402603	2	1	6	NaN	1	5	0.0428720246396203	0	1	NaN	313	5	61	1	120	220	320	NaN	520	0.152989369351417	2	0	NaN	1803263.8756999	NaN	1803264.8590641	1803265.37561963
37	19	0	0	90	36.1581920903955	36.241610738255	20	0.666712320037186	2	7	5	NaN	2	5	0.0428720246396203	0	1	NaN	314	5	62	1	120	220	320	NaN	520	0.0103917219676077	2	1	NaN	1803266.3424435	NaN	1803267.3259813	1803267.84251748
37	19	0	0	90	36.1581920903955	36.241610738255	23	0.766719168042764	2	2	4	NaN	1	4	0.0428720246396203	0	1	NaN	315	5	63	1	120	220	320	NaN	520	2.16845774254762	1	1	NaN	1803268.6761489	NaN	1803269.6595543	1803270.17609746
37	19	0	0	90	36.1581920903955	36.241610738255	12	0.400027392022312	2	3	3	NaN	1	5	0.0428720246396203	0	1	NaN	316	6	1	1	120	220	320	NaN	520	1.06958037964068	1	1	NaN	1803275.1267503	NaN	1803276.1101648	1803276.62672422
37	19	0	0	90	36.1581920903955	36.241610738255	21	0.700047936039045	2	4	6	NaN	1	5	0.0428720246396203	0	1	NaN	317	6	2	1	120	220	320	NaN	520	0.214280674466863	1	1	NaN	1803278.5104609	NaN	1803279.4938422	1803280.01039383
37	19	0	0	90	36.1581920903955	36.241610738255	12	0.400027392022312	2	10	1	NaN	2	3	0.0428720246396203	0	1	NaN	318	6	3	1	120	220	320	NaN	520	1.4484770167619	2	1	NaN	1803281.0440222	NaN	1803282.0274522	1803282.54396538
37	19	0	0	90	36.1581920903955	36.241610738255	16	0.533369856029749	2	7	2	NaN	2	4	0.0428720246396203	0	1	NaN	319	6	4	1	120	220	320	NaN	520	0.0103758745826781	2	1	NaN	1803284.8110622	NaN	1803285.7944463	1803286.31101063
37	19	0	0	90	36.1581920903955	36.241610738255	18	0.600041088033468	2	11	6	NaN	2	4	0.0428720246396203	0	1	NaN	320	6	5	1	120	220	320	NaN	520	0.501787269487977	2	1	NaN	1803287.2946008	NaN	1803288.2780221	1803288.79458773
37	19	0	0	90	36.1581920903955	36.241610738255	19	0.633376704035327	2	10	3	NaN	2	4	0.0428720246396203	0	1	NaN	321	6	6	1	120	220	320	NaN	520	0.28478483739309	1	0	NaN	1803290.1115778	NaN	1803291.0949749	1803291.61152366
37	19	0	0	90	36.1581920903955	36.241610738255	22	0.733383552040905	2	5	1	NaN	1	3	0.0428720246396203	0	1	NaN	322	6	7	1	120	220	320	NaN	520	0.204869069391862	2	0	NaN	1803292.7117	NaN	1803293.6952243	1803294.21178463
37	19	0	0	90	36.1581920903955	36.241610738255	11	0.366691776020452	2	10	1	NaN	2	3	0.0428720246396203	0	1	NaN	323	6	8	1	120	220	320	NaN	520	1.99996182206087	2	1	NaN	1803295.2287414	NaN	1803296.2121182	1803296.72869658
37	19	0	0	90	36.1581920903955	36.241610738255	11	0.366691776020452	2	6	4	NaN	1	5	0.0428720246396203	0	1	NaN	324	6	9	1	120	220	320	NaN	520	0.0275427694432437	1	1	NaN	1803299.529182	NaN	1803300.5125676	1803301.02911923
37	19	0	0	90	36.1581920903955	36.241610738255	25	0.833390400046483	2	9	6	NaN	2	4	0.0428720246396203	0	1	NaN	325	6	10	1	120	220	320	NaN	520	1.15816882206127	2	1	NaN	1803301.8626665	NaN	1803302.8461262	1803303.36267348
37	19	0	0	90	36.1581920903955	36.241610738255	20	0.666712320037186	2	10	5	NaN	2	3	0.0428720246396203	0	1	NaN	326	6	11	1	120	220	320	NaN	520	2.97076102206483	2	1	NaN	1803305.3297341	NaN	1803306.3131054	1803306.82969078
37	19	0	0	90	36.1581920903955	36.241610738255	23	0.766719168042764	2	12	6	NaN	2	5	0.0428720246396203	0	1	NaN	327	6	12	1	120	220	320	NaN	520	0.127066289773211	2	1	NaN	1803310.6135671	NaN	1803311.5969841	1803312.11356561
37	19	0	0	90	36.1581920903955	36.241610738255	12	0.400027392022312	2	11	4	NaN	2	5	0.0428720246396203	0	1	NaN	328	6	13	1	120	220	320	NaN	520	0.0105176167562604	1	0	NaN	1803313.0638182	NaN	1803314.0472175	1803314.56379228
37	19	0	0	90	36.1581920903955	36.241610738255	6	0.200013696011156	2	2	1	NaN	1	5	0.0428720246396203	0	1	NaN	329	6	14	1	120	220	320	NaN	520	0.359944874653593	1	1	NaN	1803315.3807368	NaN	1803316.3641109	1803316.88068013
37	19	0	0	90	36.1581920903955	36.241610738255	20	0.666712320037186	2	12	5	NaN	2	3	0.0428720246396203	0	1	NaN	330	6	15	1	120	220	320	NaN	520	0.24530062219128	1	0	NaN	1803318.0476456	NaN	1803319.031046	1803319.54759748
37	19	0	0	90	36.1581920903955	36.241610738255	25	0.833390400046483	2	3	1	NaN	1	3	0.0428720246396203	0	1	NaN	331	6	16	1	120	220	320	NaN	520	0.510076979873702	1	1	NaN	1803320.6146133	NaN	1803321.5979565	1803322.11452232
37	19	0	0	90	36.1581920903955	36.241610738255	19	0.633376704035327	2	7	2	NaN	2	4	0.0428720246396203	0	1	NaN	332	6	17	1	120	220	320	NaN	520	0.261011569527909	2	1	NaN	1803323.4314995	NaN	1803324.4149028	1803324.93146963
37	19	0	0	90	36.1581920903955	36.241610738255	21	0.700047936039045	2	5	4	NaN	1	3	0.0428720246396203	0	1	NaN	333	6	18	1	120	220	320	NaN	520	0.34588812221773	1	1	NaN	1803327.8985874	NaN	1803328.8820811	1803329.39857478
37	19	0	0	90	36.1581920903955	36.241610738255	8	0.266684928014874	2	3	3	NaN	1	4	0.0428720246396203	0	1	NaN	334	6	19	1	120	220	320	NaN	520	0.295654569286853	1	1	NaN	1803330.5487351	NaN	1803331.5322783	1803332.04882933
37	19	0	0	90	36.1581920903955	36.241610738255	15	0.50003424002789	2	11	2	NaN	2	3	0.0428720246396203	0	1	NaN	335	6	20	1	120	220	320	NaN	520	0.903135422151536	2	1	NaN	1803333.1658012	NaN	1803334.1492015	1803334.66575238
37	19	0	0	90	36.1581920903955	36.241610738255	0	0	1	7	5	NaN	2	3	0.0428720246396203	0	1	NaN	336	6	21	1	110	210	310	NaN	510	0.30187962227501	1	0	NaN	1803336.3828033	NaN	1803337.3661717	1803337.88273708
37	19	0	0	90	36.1581920903955	36.241610738255	20	0.666712320037186	2	5	6	NaN	1	4	0.0428720246396203	0	1	NaN	337	6	22	1	120	220	320	NaN	520	0.831594147486612	1	1	NaN	1803339.5330648	NaN	1803340.5164732	1803341.03305575
37	19	0	0	90	36.1581920903955	36.241610738255	11	0.366691776020452	2	7	3	NaN	2	3	0.0428720246396203	0	1	NaN	338	6	23	1	120	220	320	NaN	520	0.88811356946826	2	1	NaN	1803343.1167593	NaN	1803344.1001598	1803344.61673363
37	19	0	0	90	36.1581920903955	36.241610738255	10	0.333356160018593	2	5	3	NaN	1	4	0.0428720246396203	0	1	NaN	339	6	24	1	120	220	320	NaN	520	0.631403422215953	2	0	NaN	1803346.3171103	NaN	1803347.3004788	1803347.81704018
37	19	0	0	90	36.1581920903955	36.241610738255	14	0.46669862402603	2	6	3	NaN	1	4	0.0428720246396203	0	1	NaN	340	6	25	1	120	220	320	NaN	520	0.0104196695610881	1	1	NaN	1803349.2673987	NaN	1803350.250772	1803350.76733563
37	19	0	0	90	36.1581920903955	36.241610738255	11	0.366691776020452	2	11	6	NaN	2	3	0.0428720246396203	0	1	NaN	341	6	26	1	120	220	320	NaN	520	1.38042019493878	2	1	NaN	1803351.5842823	NaN	1803352.5676861	1803353.0842359
37	19	0	0	90	36.1581920903955	36.241610738255	6	0.200013696011156	2	5	5	NaN	1	5	0.0428720246396203	0	1	NaN	342	6	27	1	120	220	320	NaN	520	0.407856022007763	2	0	NaN	1803355.2846421	NaN	1803356.2680798	1803356.78459298
37	19	0	0	90	36.1581920903955	36.241610738255	17	0.566705472031608	2	7	2	NaN	2	4	0.0428720246396203	0	1	NaN	343	6	28	1	120	220	320	NaN	520	0.443286669440567	1	0	NaN	1803358.0015676	NaN	1803358.9850071	1803359.50151633
37	19	0	0	90	36.1581920903955	36.241610738255	17	0.566705472031608	2	12	5	NaN	2	5	0.0428720246396203	0	1	NaN	344	6	29	1	120	220	320	NaN	520	0.461076469626278	2	1	NaN	1803360.7517108	NaN	1803361.7352334	1803362.25179763
37	19	0	0	90	36.1581920903955	36.241610738255	18	0.600041088033468	2	9	2	NaN	2	5	0.0428720246396203	0	1	NaN	345	6	30	1	120	220	320	NaN	520	1.22111727460288	1	0	NaN	1803363.535453	NaN	1803364.5188506	1803365.03540733
37	19	0	0	90	36.1581920903955	36.241610738255	10	0.333356160018593	2	4	1	NaN	1	5	0.0428720246396203	0	1	NaN	346	6	31	1	120	220	320	NaN	520	0.391816917108372	1	1	NaN	1803367.0689997	NaN	1803368.0525202	1803368.56907418
37	19	0	0	90	36.1581920903955	36.241610738255	8	0.266684928014874	2	12	4	NaN	2	3	0.0428720246396203	0	1	NaN	347	6	32	1	120	220	320	NaN	520	0.4191566221416	1	0	NaN	1803369.7694035	NaN	1803370.7527807	1803371.26935218
37	19	0	0	90	36.1581920903955	36.241610738255	13	0.433363008024171	2	10	1	NaN	2	3	0.0428720246396203	0	1	NaN	348	6	33	1	120	220	320	NaN	520	0.0104039220605046	2	1	NaN	1803372.5029798	NaN	1803373.4863855	1803374.00295428
37	19	0	0	90	36.1581920903955	36.241610738255	16	0.533369856029749	2	12	6	NaN	2	4	0.0428720246396203	0	1	NaN	349	6	34	1	120	220	320	NaN	520	0.393020094837993	2	1	NaN	1803374.8199138	NaN	1803375.8032947	1803376.31984731
37	19	0	0	90	36.1581920903955	36.241610738255	7	0.233349312013015	2	3	3	NaN	1	3	0.0428720246396203	0	1	NaN	350	6	35	1	120	220	320	NaN	520	0.364627122180536	1	1	NaN	1803377.5201385	NaN	1803378.5035434	1803379.02011158
37	19	0	0	90	36.1581920903955	36.241610738255	16	0.533369856029749	2	9	4	NaN	2	5	0.0428720246396203	0	1	NaN	351	6	36	1	120	220	320	NaN	520	0.0901516743469983	2	1	NaN	1803380.5704873	NaN	1803381.5538726	1803382.07041403
37	19	0	0	90	36.1581920903955	36.241610738255	9	0.300020544016734	2	10	4	NaN	2	4	0.0428720246396203	0	1	NaN	352	6	37	1	120	220	320	NaN	520	0.0103899221867323	2	1	NaN	1803382.9706837	NaN	1803383.9541483	1803384.47064858
37	19	0	0	90	36.1581920903955	36.241610738255	18	0.600041088033468	2	10	1	NaN	2	4	0.0428720246396203	0	1	NaN	353	6	38	1	120	220	320	NaN	520	0.172803974477574	2	1	NaN	1803385.3042681	NaN	1803386.287656	1803386.80421143
37	19	0	0	90	36.1581920903955	36.241610738255	14	0.46669862402603	2	7	5	NaN	2	5	0.0428720246396203	0	1	NaN	354	6	39	1	120	220	320	NaN	520	0.412545869592577	1	0	NaN	1803387.9044942	NaN	1803388.8879114	1803389.40446113
37	19	0	0	90	36.1581920903955	36.241610738255	0	0	1	10	5	NaN	2	3	0.0428720246396203	0	1	NaN	355	6	40	1	110	210	310	NaN	510	1.36760862218216	2	1	NaN	1803390.6213209	NaN	1803391.6048232	1803392.12139278
37	19	0	0	90	36.1581920903955	36.241610738255	18	0.600041088033468	2	2	1	NaN	1	5	0.0428720246396203	0	1	NaN	356	6	41	1	120	220	320	NaN	520	0.355704106856138	2	0	NaN	1803394.3051675	NaN	1803395.2885161	1803395.80508479
37	19	0	0	90	36.1581920903955	36.241610738255	23	0.766719168042764	2	6	3	NaN	1	5	0.0428720246396203	0	1	NaN	357	6	42	1	120	220	320	NaN	520	0.254603669513017	1	1	NaN	1803397.422135	NaN	1803398.4055128	1803398.92205863
37	19	0	0	90	36.1581920903955	36.241610738255	25	0.833390400046483	2	7	4	NaN	2	5	0.0428720246396203	0	1	NaN	358	6	43	1	120	220	320	NaN	520	0.263640422141179	2	1	NaN	1803400.1890769	NaN	1803401.172476	1803401.68899798
37	19	0	0	90	36.1581920903955	36.241610738255	8	0.266684928014874	2	7	1	NaN	2	3	0.0428720246396203	0	1	NaN	359	6	44	1	120	220	320	NaN	520	0.265604274580255	1	0	NaN	1803403.1392118	NaN	1803404.122726	1803404.63929713
37	19	0	0	90	36.1581920903955	36.241610738255	9	0.300020544016734	2	3	1	NaN	1	4	0.0428720246396203	0	1	NaN	360	6	45	1	120	220	320	NaN	520	0.365887522231787	2	0	NaN	1803405.823049	NaN	1803406.8063245	1803407.32289238
37	19	0	0	90	36.1581920903955	36.241610738255	7	0.233349312013015	2	9	1	NaN	2	5	0.0428720246396203	0	1	NaN	361	6	46	1	120	220	320	NaN	520	0.0353604222182184	1	0	NaN	1803409.07324	NaN	1803410.0566358	1803410.57319958
37	19	0	0	90	36.1581920903955	36.241610738255	11	0.366691776020452	2	5	4	NaN	1	5	0.0428720246396203	0	1	NaN	362	6	47	1	120	220	320	NaN	520	0.397622569464147	2	0	NaN	1803411.423491	NaN	1803412.406877	1803412.92343053
37	19	0	0	90	36.1581920903955	36.241610738255	21	0.700047936039045	2	2	4	NaN	1	4	0.0428720246396203	0	1	NaN	363	6	48	1	120	220	320	NaN	520	0.352242921944708	2	0	NaN	1803414.1405149	NaN	1803415.1238198	1803415.64037308
37	19	0	0	90	36.1581920903955	36.241610738255	7	0.233349312013015	2	7	3	NaN	2	5	0.0428720246396203	0	1	NaN	364	6	49	1	120	220	320	NaN	520	1.8532378168311	2	1	NaN	1803416.8073566	NaN	1803417.790746	1803418.30729258
37	19	0	0	90	36.1581920903955	36.241610738255	14	0.46669862402603	2	12	5	NaN	2	3	0.0428720246396203	0	1	NaN	365	6	50	1	120	220	320	NaN	520	0.278276422061026	1	0	NaN	1803420.9744326	NaN	1803421.9578398	1803422.47436848
37	19	0	0	90	36.1581920903955	36.241610738255	6	0.200013696011156	2	12	2	NaN	2	5	0.0428720246396203	0	1	NaN	366	6	51	1	120	220	320	NaN	520	0.25357706961222	2	1	NaN	1803423.5913224	NaN	1803424.5747418	1803425.09130353
37	19	0	0	90	36.1581920903955	36.241610738255	15	0.50003424002789	2	6	6	NaN	1	3	0.0428720246396203	0	1	NaN	367	6	52	1	120	220	320	NaN	520	0.335059022065252	2	0	NaN	1803426.9415351	NaN	1803427.9250798	1803428.44162428
37	19	0	0	90	36.1581920903955	36.241610738255	7	0.233349312013015	2	11	1	NaN	2	3	0.0428720246396203	0	1	NaN	368	6	53	1	120	220	320	NaN	520	0.156854569679126	2	1	NaN	1803429.5919322	NaN	1803430.5753865	1803431.09188933
37	19	0	0	90	36.1581920903955	36.241610738255	23	0.766719168042764	2	10	3	NaN	2	4	0.0428720246396203	0	1	NaN	369	6	54	1	120	220	320	NaN	520	0.967745522037148	2	1	NaN	1803432.3088483	NaN	1803433.2922507	1803433.80882088
37	19	0	0	90	36.1581920903955	36.241610738255	24	0.800054784044623	2	7	5	NaN	2	5	0.0428720246396203	0	1	NaN	370	6	55	1	120	220	320	NaN	520	0.460255222162232	2	1	NaN	1803435.5925212	NaN	1803436.5759248	1803437.09247848
37	19	0	0	90	36.1581920903955	36.241610738255	14	0.46669862402603	2	11	3	NaN	2	3	0.0428720246396203	0	1	NaN	371	6	56	1	120	220	320	NaN	520	0.41292992210947	2	1	NaN	1803438.7761345	NaN	1803439.7595691	1803440.27612008
37	19	0	0	90	36.1581920903955	36.241610738255	17	0.566705472031608	2	6	4	NaN	1	4	0.0428720246396203	0	1	NaN	372	6	57	1	120	220	320	NaN	520	2.73564546951093	1	1	NaN	1803441.4929551	NaN	1803442.4764856	1803442.99305813
37	19	0	0	90	36.1581920903955	36.241610738255	21	0.700047936039045	2	7	2	NaN	2	5	0.0428720246396203	0	1	NaN	373	6	58	1	120	220	320	NaN	520	0.65314402198419	2	1	NaN	1803446.5436181	NaN	1803447.5270039	1803448.04354478
37	19	0	0	90	36.1581920903955	36.241610738255	0	0	1	5	6	NaN	1	4	0.0428720246396203	0	1	NaN	374	6	59	1	110	210	310	NaN	510	0.0783043222036213	2	0	NaN	1803449.5105704	NaN	1803450.4940152	1803451.01050698
37	19	0	0	90	36.1581920903955	36.241610738255	10	0.333356160018593	2	12	3	NaN	2	5	0.0428720246396203	0	1	NaN	375	6	60	1	120	220	320	NaN	520	0.846329574473202	2	1	NaN	1803451.9107331	NaN	1803452.8941797	1803453.41075203
37	19	0	0	90	36.1581920903955	36.241610738255	10	0.333356160018593	2	4	2	NaN	1	3	0.0428720246396203	0	1	NaN	376	6	61	1	120	220	320	NaN	520	0.0104192169383168	1	1	NaN	1803455.0777661	NaN	1803456.0611691	1803456.57771888
37	19	0	0	90	36.1581920903955	36.241610738255	21	0.700047936039045	2	8	6	NaN	2	3	0.0428720246396203	0	1	NaN	377	6	62	1	120	220	320	NaN	520	0.114139216952026	1	0	NaN	1803457.5946088	NaN	1803458.5780812	1803459.09463308
37	19	0	0	90	36.1581920903955	36.241610738255	22	0.733383552040905	2	12	4	NaN	2	4	0.0428720246396203	0	1	NaN	378	6	63	1	120	220	320	NaN	520	0.888589874375612	2	1	NaN	1803460.0282498	NaN	1803461.0116407	1803461.52820453
37	19	0	0	90	36.1581920903955	36.241610738255	15	0.50003424002789	2	1	5	NaN	1	3	0.0428720246396203	0	1	NaN	379	7	1	1	120	220	320	NaN	520	0.0103927219752222	1	1	NaN	1803485.897438	NaN	1803486.8808556	1803487.39741958
37	19	0	0	90	36.1581920903955	36.241610738255	24	0.800054784044623	2	11	3	NaN	2	5	0.0428720246396203	0	1	NaN	380	7	2	1	120	220	320	NaN	520	1.37481887452304	2	1	NaN	1803488.2143781	NaN	1803489.1977485	1803489.71431283
37	19	0	0	90	36.1581920903955	36.241610738255	18	0.600041088033468	2	11	6	NaN	2	5	0.0428720246396203	0	1	NaN	381	7	3	1	120	220	320	NaN	520	0.425382069544867	2	1	NaN	1803492.3314046	NaN	1803493.3148259	1803493.83138363
37	19	0	0	90	36.1581920903955	36.241610738255	9	0.300020544016734	2	12	2	NaN	2	4	0.0428720246396203	0	1	NaN	382	7	4	1	120	220	320	NaN	520	2.22816422232427	2	1	NaN	1803495.0650444	NaN	1803496.0484345	1803496.56497948
37	19	0	0	90	36.1581920903955	36.241610738255	12	0.400027392022312	2	8	3	NaN	2	4	0.0428720246396203	0	1	NaN	383	7	5	1	120	220	320	NaN	520	0.261999822221696	2	1	NaN	1803499.5988147	NaN	1803500.5821952	1803501.09876548
37	19	0	0	90	36.1581920903955	36.241610738255	11	0.366691776020452	2	10	6	NaN	2	4	0.0428720246396203	0	1	NaN	384	7	6	1	120	220	320	NaN	520	0.286853422177956	2	1	NaN	1803502.1823899	NaN	1803503.1657842	1803503.68234008
37	19	0	0	90	36.1581920903955	36.241610738255	22	0.733383552040905	2	10	6	NaN	2	3	0.0428720246396203	0	1	NaN	385	7	7	1	120	220	320	NaN	520	0.31861196947284	2	1	NaN	1803504.7827384	NaN	1803505.7660354	1803506.28260703
37	19	0	0	90	36.1581920903955	36.241610738255	23	0.766719168042764	2	2	3	NaN	1	5	0.0428720246396203	0	1	NaN	386	7	8	1	120	220	320	NaN	520	0.0104028694331646	2	0	NaN	1803507.4162321	NaN	1803508.3996463	1803508.91619343
37	19	0	0	90	36.1581920903955	36.241610738255	17	0.566705472031608	2	10	4	NaN	2	4	0.0428720246396203	0	1	NaN	387	7	9	1	120	220	320	NaN	520	0.0877027695532888	2	1	NaN	1803509.7331417	NaN	1803510.7165419	1803511.23308963
37	19	0	0	90	36.1581920903955	36.241610738255	25	0.833390400046483	2	10	3	NaN	2	5	0.0428720246396203	0	1	NaN	388	7	10	1	120	220	320	NaN	520	0.447710022097453	1	0	NaN	1803512.1333942	NaN	1803513.1167737	1803513.63332698
37	19	0	0	90	36.1581920903955	36.241610738255	0	0	1	8	6	NaN	2	5	0.0428720246396203	0	1	NaN	389	7	11	1	110	210	310	NaN	510	1.62476582196541	2	1	NaN	1803514.9003003	NaN	1803515.883759	1803516.40029478
37	19	0	0	90	36.1581920903955	36.241610738255	19	0.633376704035327	2	6	5	NaN	1	3	0.0428720246396203	0	1	NaN	390	7	12	1	120	220	320	NaN	520	1.81879577436484	1	1	NaN	1803518.8339788	NaN	1803519.8174192	1803520.33398723
37	19	0	0	90	36.1581920903955	36.241610738255	14	0.46669862402603	2	5	2	NaN	1	4	0.0428720246396203	0	1	NaN	391	7	13	1	120	220	320	NaN	520	0.533326769480482	1	1	NaN	1803522.9677728	NaN	1803523.9511664	1803524.46772553
37	19	0	0	90	36.1581920903955	36.241610738255	25	0.833390400046483	2	2	5	NaN	1	3	0.0428720246396203	0	1	NaN	392	7	14	1	120	220	320	NaN	520	1.20275661698543	2	0	NaN	1803525.8180401	NaN	1803526.8014672	1803527.31799788
37	19	0	0	90	36.1581920903955	36.241610738255	18	0.600041088033468	2	6	4	NaN	1	4	0.0428720246396203	0	1	NaN	393	7	15	1	120	220	320	NaN	520	1.87027421686798	1	1	NaN	1803529.335046	NaN	1803530.3184881	1803530.83501048
37	19	0	0	90	36.1581920903955	36.241610738255	18	0.600041088033468	2	8	2	NaN	2	5	0.0428720246396203	0	1	NaN	394	7	16	1	120	220	320	NaN	520	0.278202742338181	2	1	NaN	1803533.5188294	NaN	1803534.5022189	1803535.01876166
37	19	0	0	90	36.1581920903955	36.241610738255	17	0.566705472031608	2	5	1	NaN	1	5	0.0428720246396203	0	1	NaN	395	7	17	1	120	220	320	NaN	520	0.126131116878241	2	0	NaN	1803536.7189995	NaN	1803537.702514	1803538.21906838
37	19	0	0	90	36.1581920903955	36.241610738255	23	0.766719168042764	2	8	4	NaN	2	3	0.0428720246396203	0	1	NaN	396	7	18	1	120	220	320	NaN	520	0.0276248219888657	2	1	NaN	1803539.1693614	NaN	1803540.1527566	1803540.66930998
37	19	0	0	90	36.1581920903955	36.241610738255	10	0.333356160018593	2	9	3	NaN	2	3	0.0428720246396203	0	1	NaN	397	7	19	1	120	220	320	NaN	520	1.4212326167617	1	0	NaN	1803541.5195989	NaN	1803542.5029836	1803543.01954148
37	19	0	0	90	36.1581920903955	36.241610738255	9	0.300020544016734	2	11	6	NaN	2	5	0.0428720246396203	0	1	NaN	398	7	20	1	120	220	320	NaN	520	0.103318222099915	1	0	NaN	1803545.253315	NaN	1803546.2366948	1803546.75324378
37	19	0	0	90	36.1581920903955	36.241610738255	18	0.600041088033468	2	1	1	NaN	1	4	0.0428720246396203	0	1	NaN	399	7	21	1	120	220	320	NaN	520	1.82270106952637	2	0	NaN	1803547.670194	NaN	1803548.6535973	1803549.17015233
37	19	0	0	90	36.1581920903955	36.241610738255	22	0.733383552040905	2	12	4	NaN	2	5	0.0428720246396203	0	1	NaN	400	7	22	1	120	220	320	NaN	520	0.160945374518633	2	1	NaN	1803551.8039355	NaN	1803552.7873253	1803553.30389303
37	19	0	0	90	36.1581920903955	36.241610738255	19	0.633376704035327	2	8	2	NaN	2	4	0.0428720246396203	0	1	NaN	401	7	23	1	120	220	320	NaN	520	0.0103906220756471	2	1	NaN	1803554.2875116	NaN	1803555.2709152	1803555.78746838
37	19	0	0	90	36.1581920903955	36.241610738255	20	0.666712320037186	2	7	3	NaN	2	3	0.0428720246396203	0	1	NaN	402	7	24	1	120	220	320	NaN	520	1.0958553222008	1	0	NaN	1803556.6210696	NaN	1803557.604476	1803558.12102578
37	19	0	0	90	36.1581920903955	36.241610738255	22	0.733383552040905	2	6	1	NaN	1	5	0.0428720246396203	0	1	NaN	403	7	25	1	120	220	320	NaN	520	0.0104390643537045	2	0	NaN	1803560.0213931	NaN	1803561.0048568	1803561.52135394
37	19	0	0	90	36.1581920903955	36.241610738255	25	0.833390400046483	2	4	2	NaN	1	5	0.0428720246396203	0	1	NaN	404	7	26	1	120	220	320	NaN	520	0.338741874555126	1	1	NaN	1803562.3382248	NaN	1803563.3216928	1803563.83826133
37	19	0	0	90	36.1581920903955	36.241610738255	7	0.233349312013015	2	4	1	NaN	1	5	0.0428720246396203	0	1	NaN	405	7	27	1	120	220	320	NaN	520	0.0104358168318868	1	1	NaN	1803565.4719082	NaN	1803566.4553478	1803566.97189568
37	19	0	0	90	36.1581920903955	36.241610738255	12	0.400027392022312	2	9	6	NaN	2	5	0.0428720246396203	0	1	NaN	406	7	28	1	120	220	320	NaN	520	1.27201952203177	2	1	NaN	1803567.7888578	NaN	1803568.7722437	1803569.28878768
37	19	0	0	90	36.1581920903955	36.241610738255	20	0.666712320037186	2	8	2	NaN	2	5	0.0428720246396203	0	1	NaN	407	7	29	1	120	220	320	NaN	520	0.0885114169213921	1	0	NaN	1803571.3725176	NaN	1803572.3559081	1803572.87246868
37	19	0	0	90	36.1581920903955	36.241610738255	12	0.400027392022312	2	11	5	NaN	2	4	0.0428720246396203	0	1	NaN	408	7	30	1	120	220	320	NaN	520	0.860918222228065	2	1	NaN	1803574.2561139	NaN	1803575.2395525	1803575.75609108
37	19	0	0	90	36.1581920903955	36.241610738255	17	0.566705472031608	2	3	2	NaN	1	3	0.0428720246396203	0	1	NaN	409	7	31	1	120	220	320	NaN	520	0.0103954221121967	2	0	NaN	1803577.9564653	NaN	1803578.9399153	1803579.45645888
37	19	0	0	90	36.1581920903955	36.241610738255	19	0.633376704035327	2	11	5	NaN	2	3	0.0428720246396203	0	1	NaN	410	7	32	1	120	220	320	NaN	520	0.314840069506317	2	1	NaN	1803580.2900586	NaN	1803581.2734501	1803581.79001533
37	19	0	0	90	36.1581920903955	36.241610738255	8	0.266684928014874	2	8	4	NaN	2	5	0.0428720246396203	0	1	NaN	411	7	33	1	120	220	320	NaN	520	0.01040526968427	2	1	NaN	1803583.2902532	NaN	1803584.273752	1803584.79031643
37	19	0	0	90	36.1581920903955	36.241610738255	16	0.533369856029749	2	7	6	NaN	2	5	0.0428720246396203	0	1	NaN	412	7	34	1	120	220	320	NaN	520	0.0104047220665962	2	1	NaN	1803585.6071515	NaN	1803586.5906576	1803587.10720938
37	19	0	0	90	36.1581920903955	36.241610738255	12	0.400027392022312	2	2	3	NaN	1	5	0.0428720246396203	0	1	NaN	413	7	35	1	120	220	320	NaN	520	1.61673432216048	1	1	NaN	1803587.9241579	NaN	1803588.9075472	1803589.42409798
37	19	0	0	90	36.1581920903955	36.241610738255	13	0.433363008024171	2	8	6	NaN	2	3	0.0428720246396203	0	1	NaN	414	7	36	1	120	220	320	NaN	520	2.07506602210924	1	0	NaN	1803591.8578952	NaN	1803592.8412537	1803593.35781358
37	19	0	0	90	36.1581920903955	36.241610738255	16	0.533369856029749	2	5	4	NaN	1	5	0.0428720246396203	0	1	NaN	415	7	37	1	120	220	320	NaN	520	1.98377846949734	2	0	NaN	1803596.7416612	NaN	1803597.7250699	1803598.24163753
37	19	0	0	90	36.1581920903955	36.241610738255	7	0.233349312013015	2	5	4	NaN	1	3	0.0428720246396203	0	1	NaN	416	7	38	1	120	220	320	NaN	520	0.0103735744487494	2	0	NaN	1803601.0421002	NaN	1803602.0255339	1803602.54206223
37	19	0	0	90	36.1581920903955	36.241610738255	12	0.400027392022312	2	8	6	NaN	2	5	0.0428720246396203	0	1	NaN	417	7	39	1	120	220	320	NaN	520	0.805551222059876	2	1	NaN	1803603.5756911	NaN	1803604.5590982	1803605.07564318
37	19	0	0	90	36.1581920903955	36.241610738255	23	0.766719168042764	2	1	1	NaN	1	4	0.0428720246396203	0	1	NaN	418	7	40	1	120	220	320	NaN	520	0.0103973220102489	1	1	NaN	1803607.1925966	NaN	1803608.1761038	1803608.69266508
37	19	0	0	90	36.1581920903955	36.241610738255	24	0.800054784044623	2	4	4	NaN	1	3	0.0428720246396203	0	1	NaN	419	7	41	1	120	220	320	NaN	520	0.319352569524199	2	0	NaN	1803610.1096586	NaN	1803611.0930503	1803611.60960463
37	19	0	0	90	36.1581920903955	36.241610738255	17	0.566705472031608	2	12	1	NaN	2	4	0.0428720246396203	0	1	NaN	420	7	42	1	120	220	320	NaN	520	1.4857085745316	2	1	NaN	1803612.7432522	NaN	1803613.7266345	1803614.24321073
37	19	0	0	90	36.1581920903955	36.241610738255	13	0.433363008024171	2	8	3	NaN	2	4	0.0428720246396203	0	1	NaN	421	7	43	1	120	220	320	NaN	520	1.38938676961698	2	1	NaN	1803616.543612	NaN	1803617.52702	1803618.04357973
37	19	0	0	90	36.1581920903955	36.241610738255	8	0.266684928014874	2	11	5	NaN	2	4	0.0428720246396203	0	1	NaN	422	7	44	1	120	220	320	NaN	520	0.0103731744457036	1	0	NaN	1803620.2440116	NaN	1803621.2274088	1803621.74394833
37	19	0	0	90	36.1581920903955	36.241610738255	8	0.266684928014874	2	7	3	NaN	2	4	0.0428720246396203	0	1	NaN	423	7	45	1	120	220	320	NaN	520	1.20350156957284	1	0	NaN	1803622.5774486	NaN	1803623.5609424	1803624.07750543
37	19	0	0	90	36.1581920903955	36.241610738255	25	0.833390400046483	2	12	3	NaN	2	3	0.0428720246396203	0	1	NaN	424	7	46	1	120	220	320	NaN	520	0.214685474522412	2	1	NaN	1803626.0945838	NaN	1803627.0779582	1803627.59451783
37	19	0	0	90	36.1581920903955	36.241610738255	13	0.433363008024171	2	7	4	NaN	2	3	0.0428720246396203	0	1	NaN	425	7	47	1	120	220	320	NaN	520	1.65852112229913	2	1	NaN	1803628.7947903	NaN	1803629.7782283	1803630.29477918
37	19	0	0	90	36.1581920903955	36.241610738255	22	0.733383552040905	2	2	3	NaN	1	3	0.0428720246396203	0	1	NaN	426	7	48	1	120	220	320	NaN	520	0.45947610703297	2	0	NaN	1803632.7618842	NaN	1803633.7452879	1803634.26184039
37	19	0	0	90	36.1581920903955	36.241610738255	20	0.666712320037186	2	11	6	NaN	2	3	0.0428720246396203	0	1	NaN	427	7	49	1	120	220	320	NaN	520	0.539569622138515	1	0	NaN	1803635.7455908	NaN	1803636.728912	1803637.24546968
37	19	0	0	90	36.1581920903955	36.241610738255	6	0.200013696011156	2	10	6	NaN	2	4	0.0428720246396203	0	1	NaN	428	7	50	1	120	220	320	NaN	520	0.0103824746329337	2	1	NaN	1803639.1624849	NaN	1803640.1458916	1803640.66246983
37	19	0	0	90	36.1581920903955	36.241610738255	20	0.666712320037186	2	8	3	NaN	2	3	0.0428720246396203	0	1	NaN	429	7	51	1	120	220	320	NaN	520	0.819236122304574	2	1	NaN	1803641.9460909	NaN	1803642.9295059	1803643.44607718
37	19	0	0	90	36.1581920903955	36.241610738255	17	0.566705472031608	2	6	3	NaN	1	4	0.0428720246396203	0	1	NaN	430	7	52	1	120	220	320	NaN	520	0.284626574488357	1	1	NaN	1803645.0964059	NaN	1803646.0798446	1803646.59638913
37	19	0	0	90	36.1581920903955	36.241610738255	11	0.366691776020452	2	3	2	NaN	1	5	0.0428720246396203	0	1	NaN	431	7	53	1	120	220	320	NaN	520	0.300207027234137	2	0	NaN	1803647.696662	NaN	1803648.6801109	1803649.19664177
37	19	0	0	90	36.1581920903955	36.241610738255	0	0	1	11	1	NaN	2	3	0.0428720246396203	0	1	NaN	432	7	54	1	110	210	310	NaN	510	0.307326022069901	2	1	NaN	1803650.3136079	NaN	1803651.2970131	1803651.81356008
37	19	0	0	90	36.1581920903955	36.241610738255	21	0.700047936039045	2	11	5	NaN	2	5	0.0428720246396203	0	1	NaN	433	7	55	1	120	220	320	NaN	520	1.48829934746027	2	1	NaN	1803653.3805618	NaN	1803654.3639788	1803654.88053365
37	19	0	0	90	36.1581920903955	36.241610738255	25	0.833390400046483	2	1	6	NaN	1	4	0.0428720246396203	0	1	NaN	434	7	56	1	120	220	320	NaN	520	2.21590542211197	1	1	NaN	1803657.1972078	NaN	1803658.1810122	1803658.69756518
37	19	0	0	90	36.1581920903955	36.241610738255	25	0.833390400046483	2	11	6	NaN	2	4	0.0428720246396203	0	1	NaN	435	7	57	1	120	220	320	NaN	520	0.0102598948869854	2	1	NaN	1803661.7313341	NaN	1803662.7146911	1803663.23135931
37	19	0	0	90	36.1581920903955	36.241610738255	9	0.300020544016734	2	3	6	NaN	1	4	0.0428720246396203	0	1	NaN	436	7	58	1	120	220	320	NaN	520	0.0104229694698006	2	0	NaN	1803664.0483168	NaN	1803665.0317143	1803665.54823553
37	19	0	0	90	36.1581920903955	36.241610738255	24	0.800054784044623	2	1	3	NaN	1	3	0.0428720246396203	0	1	NaN	437	7	59	1	120	220	320	NaN	520	1.31180542218499	2	0	NaN	1803666.3652079	NaN	1803667.3485778	1803667.86513448
37	19	0	0	90	36.1581920903955	36.241610738255	10	0.333356160018593	2	12	6	NaN	2	4	0.0428720246396203	0	1	NaN	438	7	60	1	120	220	320	NaN	520	0.8260540694464	2	1	NaN	1803670.2987782	NaN	1803671.2822883	1803671.79885423
37	19	0	0	90	36.1581920903955	36.241610738255	25	0.833390400046483	2	1	5	NaN	1	3	0.0428720246396203	0	1	NaN	439	7	61	1	120	220	320	NaN	520	0.764571722131222	2	0	NaN	1803673.432531	NaN	1803674.4159437	1803674.93249458
37	19	0	0	90	36.1581920903955	36.241610738255	12	0.400027392022312	2	6	2	NaN	1	4	0.0428720246396203	0	1	NaN	440	7	62	1	120	220	320	NaN	520	0.0103920220863074	2	0	NaN	1803676.5161967	NaN	1803677.4996061	1803678.01613658
37	19	0	0	90	36.1581920903955	36.241610738255	13	0.433363008024171	2	3	1	NaN	1	4	0.0428720246396203	0	1	NaN	441	7	63	1	120	220	320	NaN	520	0.0591344221029431	1	1	NaN	1803678.8497535	NaN	1803679.8332212	1803680.34970058
37	19	0	0	90	36.1581920903955	36.241610738255	17	0.566705472031608	2	11	3	NaN	2	3	0.0428720246396203	0	1	NaN	442	8	1	1	120	220	320	NaN	520	1.60000002221204	2	1	NaN	1803683.3334787	NaN	1803684.3169852	1803684.83347418
37	19	0	0	90	36.1581920903955	36.241610738255	20	0.666712320037186	2	6	6	NaN	1	5	0.0428720246396203	0	1	NaN	443	8	2	1	120	220	320	NaN	520	1.04290522215888	1	1	NaN	1803687.2505603	NaN	1803688.2340088	1803688.75052188
37	19	0	0	90	36.1581920903955	36.241610738255	15	0.50003424002789	2	11	3	NaN	2	3	0.0428720246396203	0	1	NaN	444	8	3	1	120	220	320	NaN	520	0.0104076694697142	2	1	NaN	1803690.6175628	NaN	1803691.6009893	1803692.11752233
37	19	0	0	90	36.1581920903955	36.241610738255	7	0.233349312013015	2	4	5	NaN	1	4	0.0428720246396203	0	1	NaN	445	8	4	1	120	220	320	NaN	520	0.0103738745674491	2	0	NaN	1803693.4011562	NaN	1803694.3845578	1803694.90113153
37	19	0	0	90	36.1581920903955	36.241610738255	12	0.400027392022312	2	1	4	NaN	1	5	0.0428720246396203	0	1	NaN	446	8	5	1	120	220	320	NaN	520	1.44574122224003	2	0	NaN	1803695.9514746	NaN	1803696.9348142	1803697.45138018
37	19	0	0	90	36.1581920903955	36.241610738255	22	0.733383552040905	2	3	4	NaN	1	3	0.0428720246396203	0	1	NaN	447	8	6	1	120	220	320	NaN	520	0.68296922231093	2	0	NaN	1803700.4185034	NaN	1803701.4019177	1803701.91847988
37	19	0	0	90	36.1581920903955	36.241610738255	7	0.233349312013015	2	12	4	NaN	2	4	0.0428720246396203	0	1	NaN	448	8	7	1	120	220	320	NaN	520	1.17058382206596	2	1	NaN	1803703.4188631	NaN	1803704.4022146	1803704.91878118
37	19	0	0	90	36.1581920903955	36.241610738255	0	0	1	8	2	NaN	2	5	0.0428720246396203	0	1	NaN	449	8	8	1	110	210	310	NaN	510	0.326932022115216	1	0	NaN	1803706.9024934	NaN	1803707.8858935	1803708.40244448
37	19	0	0	90	36.1581920903955	36.241610738255	20	0.666712320037186	2	4	3	NaN	1	4	0.0428720246396203	0	1	NaN	450	8	9	1	120	220	320	NaN	520	0.284031622111797	2	0	NaN	1803709.9695255	NaN	1803710.9528454	1803711.46941758
37	19	0	0	90	36.1581920903955	36.241610738255	8	0.266684928014874	2	12	5	NaN	2	3	0.0428720246396203	0	1	NaN	451	8	10	1	120	220	320	NaN	520	0.0104023220483214	2	1	NaN	1803713.253006	NaN	1803714.2365272	1803714.75306828
37	19	0	0	90	36.1581920903955	36.241610738255	24	0.800054784044623	2	2	6	NaN	1	5	0.0428720246396203	0	1	NaN	452	8	11	1	120	220	320	NaN	520	2.61493106954731	2	0	NaN	1803715.8700144	NaN	1803716.853442	1803717.37000053
37	19	0	0	90	36.1581920903955	36.241610738255	10	0.333356160018593	2	1	2	NaN	1	3	0.0428720246396203	0	1	NaN	453	8	12	1	120	220	320	NaN	520	0.164792022202164	2	0	NaN	1803721.1205334	NaN	1803722.1039776	1803722.62050818
37	19	0	0	90	36.1581920903955	36.241610738255	15	0.50003424002789	2	12	5	NaN	2	5	0.0428720246396203	0	1	NaN	454	8	13	1	120	220	320	NaN	520	0.0103979220148176	2	1	NaN	1803723.6040677	NaN	1803724.5875334	1803725.10409178
37	19	0	0	90	36.1581920903955	36.241610738255	15	0.50003424002789	2	9	4	NaN	2	5	0.0428720246396203	0	1	NaN	455	8	14	1	120	220	320	NaN	520	0.588510569417849	2	1	NaN	1803725.9210457	NaN	1803726.9044381	1803727.42097933
37	19	0	0	90	36.1581920903955	36.241610738255	13	0.433363008024171	2	5	5	NaN	1	3	0.0428720246396203	0	1	NaN	456	8	15	1	120	220	320	NaN	520	1.41590902209282	2	0	NaN	1803728.8213248	NaN	1803729.8046816	1803730.32126738
37	19	0	0	90	36.1581920903955	36.241610738255	24	0.800054784044623	2	8	2	NaN	2	5	0.0428720246396203	0	1	NaN	457	8	16	1	120	220	320	NaN	520	0.0103870220482349	1	0	NaN	1803732.5550244	NaN	1803733.5384066	1803734.05496388
