subjno	age	gender	isPractice	viewdist	CmToPixX	CmToPixY	SOA_frm	SOA_time	targNum	targID	targExample	targRace	targGender	firstTargPos	contrast	familiarity	curr_staircase	iStair	TrialNum	BlockNum	blktrl	sessionNum	TC_FIXATION	TC_RSVP_START	TC_RSVP_END	TC_BLANK	TC_RESPONSE_ONSET	RT2afc	resp_2afc	acc	RSVPOnsetVBL	RSVPOnsetTime	RSVPOffsetVBL	RSVPOffsetTime	startrt_2afc
73	21	0	0	90	36.1581920903955	36.241610738255	21	0.700046088024974	2	2	3	NaN	1	3	0.0224140145070856	1	1	NaN	1	1	1	2	121	221	321	NaN	521	2.68306447379291	1	1	NaN	4566028.9099157	NaN	4566029.8931171	4566030.42622013
73	21	0	0	90	36.1581920903955	36.241610738255	24	0.800052672028542	2	4	4	NaN	1	5	0.0224140145070856	1	1	NaN	2	1	2	2	121	221	321	NaN	521	0.621670278720558	1	1	NaN	4566034.6436866	NaN	4566035.6269823	4566036.14343792
73	21	0	0	90	36.1581920903955	36.241610738255	10	0.333355280011892	2	3	5	NaN	1	5	0.0224140145070856	1	1	NaN	3	1	3	2	121	221	321	NaN	521	1.16745547391474	1	1	NaN	4566039.9773418	NaN	4566040.9607648	4566041.49397083
73	21	0	0	90	36.1581920903955	36.241610738255	0	0	1	10	5	NaN	2	5	0.0224140145070856	1	1	NaN	4	1	4	2	111	211	311	NaN	511	0.706939374096692	2	1	NaN	4566043.4942619	NaN	4566044.4777715	4566044.99431693
73	21	0	0	90	36.1581920903955	36.241610738255	9	0.300019752010703	2	10	2	NaN	2	3	0.0224140145070856	1	1	NaN	5	1	5	2	121	221	321	NaN	521	2.2762758275494	1	0	NaN	4566101.1333421	NaN	4566102.1167751	4566102.63330157
73	21	0	0	90	36.1581920903955	36.241610738255	15	0.500032920017839	2	8	1	NaN	2	5	0.0224140145070856	1	1	NaN	6	1	6	2	121	221	321	NaN	521	4.93106622155756	2	1	NaN	4566105.7504901	NaN	4566106.7338957	4566107.25042978
73	21	0	0	90	36.1581920903955	36.241610738255	16	0.533368448019028	2	7	3	NaN	2	5	0.0224140145070856	1	1	NaN	7	1	7	2	121	221	321	NaN	521	0.897925668396056	1	0	NaN	4566113.5512853	NaN	4566114.5347041	4566115.05119523
73	21	0	0	90	36.1581920903955	36.241610738255	15	0.500032920017839	2	4	4	NaN	1	5	0.0224140145070856	1	1	NaN	8	1	8	2	121	221	321	NaN	521	1.59216991625726	1	1	NaN	4566116.7847381	NaN	4566117.7683797	4566118.28484068
73	21	0	0	90	36.1581920903955	36.241610738255	20	0.666710560023785	2	10	4	NaN	2	4	0.0224140145070856	1	1	NaN	9	1	9	2	121	221	321	NaN	521	1.60330091696233	1	0	NaN	4566120.7018267	NaN	4566121.6853543	4566122.20188948
73	21	0	0	90	36.1581920903955	36.241610738255	10	0.333355280011892	2	9	2	NaN	2	4	0.0224140145070856	1	1	NaN	10	1	10	2	121	221	321	NaN	521	1.88548846915364	2	1	NaN	4566124.6356739	NaN	4566125.6191117	4566126.13561003
73	21	0	0	90	36.1581920903955	36.241610738255	18	0.600039504021406	2	10	2	NaN	2	3	0.0224140145070856	1	1	NaN	11	1	11	2	121	221	321	NaN	521	2.45409076847136	2	1	NaN	4566129.2194379	NaN	4566130.2028439	4566130.71940533
73	21	0	0	90	36.1581920903955	36.241610738255	11	0.366690808013082	2	3	3	NaN	1	4	0.0224140145070856	1	1	NaN	12	1	12	2	121	221	321	NaN	521	1.51808916870505	1	1	NaN	4566134.0032648	NaN	4566134.9866671	4566135.50321083
73	21	0	0	90	36.1581920903955	36.241610738255	12	0.400026336014271	2	2	5	NaN	1	5	0.0224140145070856	1	1	NaN	13	1	13	2	121	221	321	NaN	521	1.13148686848581	2	0	NaN	4566137.8536517	NaN	4566138.8370427	4566139.35358283
73	21	0	0	90	36.1581920903955	36.241610738255	12	0.400026336014271	2	4	1	NaN	1	4	0.0224140145070856	1	1	NaN	14	1	14	2	121	221	321	NaN	521	1.1686151213944	1	1	NaN	4566141.3206525	NaN	4566142.3040534	4566142.82058168
73	21	0	0	90	36.1581920903955	36.241610738255	11	0.366690808013082	2	7	6	NaN	2	3	0.0224140145070856	1	1	NaN	15	1	15	2	121	221	321	NaN	521	2.59632262121886	1	0	NaN	4566144.8209854	NaN	4566145.8044076	4566146.32092848
73	21	0	0	90	36.1581920903955	36.241610738255	19	0.633375032022595	2	5	4	NaN	1	5	0.0224140145070856	1	1	NaN	16	1	16	2	121	221	321	NaN	521	1.49515462201089	1	1	NaN	4566149.7381612	NaN	4566150.7215308	4566151.23809038
73	21	0	0	90	36.1581920903955	36.241610738255	7	0.233348696008325	2	7	4	NaN	2	3	0.0224140145070856	1	1	NaN	17	1	17	2	121	221	321	NaN	521	1.18241122178733	2	1	NaN	4566153.5551723	NaN	4566154.5385966	4566155.05511598
73	21	0	0	90	36.1581920903955	36.241610738255	15	0.500032920017839	2	10	5	NaN	2	5	0.0224140145070856	1	1	NaN	18	1	18	2	121	221	321	NaN	521	2.4810309689492	1	0	NaN	4566157.0721918	NaN	4566158.0556155	4566158.57213053
73	21	0	0	90	36.1581920903955	36.241610738255	18	0.600039504021406	2	8	3	NaN	2	5	0.0224140145070856	1	1	NaN	19	1	19	2	121	221	321	NaN	521	1.02403052709997	1	0	NaN	4566161.8893325	NaN	4566162.872738	4566163.38927347
73	21	0	0	90	36.1581920903955	36.241610738255	23	0.766717144027352	2	9	1	NaN	2	4	0.0224140145070856	1	1	NaN	20	1	20	2	121	221	321	NaN	521	0.769696089439094	1	0	NaN	4566165.2396721	NaN	4566166.2230873	4566166.73960321
73	21	0	0	90	36.1581920903955	36.241610738255	11	0.366690808013082	2	5	6	NaN	1	5	0.0224140145070856	1	1	NaN	21	1	21	2	121	221	321	NaN	521	0.965322227217257	2	0	NaN	4566168.3399591	NaN	4566169.3233493	4566169.83990087
73	21	0	0	90	36.1581920903955	36.241610738255	0	0	1	2	5	NaN	1	3	0.0224140145070856	1	1	NaN	22	1	22	2	111	211	311	NaN	511	0.889561373740435	2	0	NaN	4566171.6236659	NaN	4566172.6070336	4566173.12356973
73	21	0	0	90	36.1581920903955	36.241610738255	11	0.366690808013082	2	2	2	NaN	1	4	0.0224140145070856	1	1	NaN	23	1	23	2	121	221	321	NaN	521	0.776746137067676	1	1	NaN	4566174.8406298	NaN	4566175.8240331	4566176.34054636
73	21	0	0	90	36.1581920903955	36.241610738255	21	0.700046088024974	2	11	5	NaN	2	4	0.0224140145070856	1	1	NaN	24	1	24	2	121	221	321	NaN	521	1.70058032125235	2	1	NaN	4566177.9409093	NaN	4566178.9243156	4566179.44085498
73	21	0	0	90	36.1581920903955	36.241610738255	14	0.466697392016649	2	2	3	NaN	1	4	0.0224140145070856	1	1	NaN	25	1	25	2	121	221	321	NaN	521	1.03468406386673	1	1	NaN	4566181.9746348	NaN	4566182.9581	4566183.47457624
73	21	0	0	90	36.1581920903955	36.241610738255	18	0.600039504021406	2	9	5	NaN	2	4	0.0224140145070856	1	1	NaN	26	1	26	2	121	221	321	NaN	521	1.33159797359258	1	0	NaN	4566185.3417075	NaN	4566186.32503	4566186.84158523
73	21	0	0	90	36.1581920903955	36.241610738255	25	0.833388200029731	2	12	2	NaN	2	5	0.0224140145070856	1	1	NaN	27	1	27	2	121	221	321	NaN	521	1.24050164222717	2	1	NaN	4566189.0086965	NaN	4566189.9920883	4566190.50860146
73	21	0	0	90	36.1581920903955	36.241610738255	22	0.733381616026163	2	9	4	NaN	2	3	0.0224140145070856	1	1	NaN	28	1	28	2	121	221	321	NaN	521	0.737659573554993	1	0	NaN	4566192.5757207	NaN	4566193.5590835	4566194.07562803
73	21	0	0	90	36.1581920903955	36.241610738255	0	0	1	7	3	NaN	2	4	0.0224140145070856	1	1	NaN	29	1	29	2	111	211	311	NaN	511	0.702744621783495	2	1	NaN	4566195.642501	NaN	4566196.6260584	4566197.14258338
73	21	0	0	90	36.1581920903955	36.241610738255	13	0.43336186401546	2	9	4	NaN	2	4	0.0224140145070856	1	1	NaN	30	1	30	2	121	221	321	NaN	521	0.725048137828708	1	0	NaN	4566198.6762937	NaN	4566199.6596834	4566200.17621596
73	21	0	0	90	36.1581920903955	36.241610738255	11	0.366690808013082	2	3	3	NaN	1	5	0.0224140145070856	1	1	NaN	31	1	31	2	121	221	321	NaN	521	2.25216155964881	1	1	NaN	4566202.0934099	NaN	4566203.0766932	4566203.59321774
73	21	0	0	90	36.1581920903955	36.241610738255	9	0.300019752010703	2	3	1	NaN	1	3	0.0224140145070856	1	1	NaN	32	1	32	2	121	221	321	NaN	521	0.828738778829575	1	1	NaN	4566206.6771223	NaN	4566207.6604739	4566208.17700762
73	21	0	0	90	36.1581920903955	36.241610738255	16	0.533368448019028	2	5	2	NaN	1	4	0.0224140145070856	1	1	NaN	33	1	33	2	121	221	321	NaN	521	1.38245596829802	1	1	NaN	4566209.8273797	NaN	4566210.8107574	4566211.32731843
73	21	0	0	90	36.1581920903955	36.241610738255	15	0.500032920017839	2	1	4	NaN	1	4	0.0224140145070856	1	1	NaN	34	1	34	2	121	221	321	NaN	521	1.81705517973751	1	1	NaN	4566213.5443985	NaN	4566214.5278154	4566215.04434252
73	21	0	0	90	36.1581920903955	36.241610738255	18	0.600039504021406	2	7	2	NaN	2	3	0.0224140145070856	1	1	NaN	35	1	35	2	121	221	321	NaN	521	1.30653237365186	1	0	NaN	4566217.6947003	NaN	4566218.6781776	4566219.19476093
73	21	0	0	90	36.1581920903955	36.241610738255	19	0.633375032022595	2	2	6	NaN	1	5	0.0224140145070856	1	1	NaN	36	1	36	2	121	221	321	NaN	521	1.17665546387434	1	1	NaN	4566221.3284917	NaN	4566222.3119244	4566222.82843914
73	21	0	0	90	36.1581920903955	36.241610738255	15	0.500032920017839	2	11	1	NaN	2	4	0.0224140145070856	1	1	NaN	37	1	37	2	121	221	321	NaN	521	1.31644231639802	1	0	NaN	4566224.8287473	NaN	4566225.8122718	4566226.32877948
73	21	0	0	90	36.1581920903955	36.241610738255	19	0.633375032022595	2	10	5	NaN	2	3	0.0224140145070856	1	1	NaN	38	1	38	2	121	221	321	NaN	521	0.626916268840432	2	1	NaN	4566228.4625474	NaN	4566229.4459515	4566229.96247993
73	21	0	0	90	36.1581920903955	36.241610738255	25	0.833388200029731	2	5	6	NaN	1	5	0.0224140145070856	1	1	NaN	39	1	39	2	121	221	321	NaN	521	0.924641716293991	1	1	NaN	4566231.4128053	NaN	4566232.3962303	4566232.91275928
73	21	0	0	90	36.1581920903955	36.241610738255	19	0.633375032022595	2	4	5	NaN	1	5	0.0224140145070856	1	1	NaN	40	1	40	2	121	221	321	NaN	521	0.554172968491912	1	1	NaN	4566234.6631616	NaN	4566235.6465497	4566236.16309253
73	21	0	0	90	36.1581920903955	36.241610738255	17	0.566703976020217	2	10	6	NaN	2	4	0.0224140145070856	1	1	NaN	41	1	41	2	121	221	321	NaN	521	0.863191668875515	2	1	NaN	4566237.5301068	NaN	4566238.5134949	4566239.03003553
73	21	0	0	90	36.1581920903955	36.241610738255	11	0.366690808013082	2	11	6	NaN	2	3	0.0224140145070856	1	1	NaN	42	1	42	2	121	221	321	NaN	521	1.88767566811293	2	1	NaN	4566240.7137446	NaN	4566241.6971616	4566242.21368353
73	21	0	0	90	36.1581920903955	36.241610738255	6	0.200013168007135	2	7	4	NaN	2	5	0.0224140145070856	1	1	NaN	43	1	43	2	121	221	321	NaN	521	1.0546694425866	1	0	NaN	4566244.9308252	NaN	4566245.9142272	4566246.43076666
73	21	0	0	90	36.1581920903955	36.241610738255	13	0.43336186401546	2	2	2	NaN	1	5	0.0224140145070856	1	1	NaN	44	1	44	2	121	221	321	NaN	521	2.07105902116746	2	0	NaN	4566248.314366	NaN	4566249.2979354	4566249.81443138
73	21	0	0	90	36.1581920903955	36.241610738255	18	0.600039504021406	2	5	3	NaN	1	4	0.0224140145070856	1	1	NaN	45	1	45	2	121	221	321	NaN	521	0.798863421194255	2	0	NaN	4566252.7149536	NaN	4566253.698322	4566254.21485328
73	21	0	0	90	36.1581920903955	36.241610738255	7	0.233348696008325	2	4	3	NaN	1	3	0.0224140145070856	1	1	NaN	46	1	46	2	121	221	321	NaN	521	2.50602663774043	1	1	NaN	4566255.8319098	NaN	4566256.8152906	4566257.33182966
73	21	0	0	90	36.1581920903955	36.241610738255	11	0.366690808013082	2	10	6	NaN	2	3	0.0224140145070856	1	1	NaN	47	1	47	2	121	221	321	NaN	521	0.768085815943778	2	1	NaN	4566260.6657103	NaN	4566261.6491072	4566262.16563508
73	21	0	0	90	36.1581920903955	36.241610738255	22	0.733381616026163	2	2	3	NaN	1	3	0.0224140145070856	1	1	NaN	48	1	48	2	121	221	321	NaN	521	1.51545556820929	2	0	NaN	4566263.7660079	NaN	4566264.7494074	4566265.26594683
73	21	0	0	90	36.1581920903955	36.241610738255	8	0.266684224009514	2	1	3	NaN	1	5	0.0224140145070856	1	1	NaN	49	1	49	2	121	221	321	NaN	521	0.63384545315057	2	0	NaN	4566267.59959	NaN	4566268.5831156	4566269.09964935
73	21	0	0	90	36.1581920903955	36.241610738255	12	0.400026336014271	2	6	2	NaN	1	4	0.0224140145070856	1	1	NaN	50	1	50	2	121	221	321	NaN	521	1.33942888397723	1	1	NaN	4566270.5500865	NaN	4566271.5334291	4566272.04994832
73	21	0	0	90	36.1581920903955	36.241610738255	20	0.666710560023785	2	7	2	NaN	2	3	0.0224140145070856	1	1	NaN	51	1	51	2	121	221	321	NaN	521	1.00826061610132	1	0	NaN	4566274.2170396	NaN	4566275.2004316	4566275.71697268
73	21	0	0	90	36.1581920903955	36.241610738255	18	0.600039504021406	2	5	6	NaN	1	5	0.0224140145070856	1	1	NaN	52	1	52	2	121	221	321	NaN	521	0.819252016954124	2	0	NaN	4566277.5506753	NaN	4566278.5341154	4566279.05062958
73	21	0	0	90	36.1581920903955	36.241610738255	0	0	1	8	4	NaN	2	4	0.0224140145070856	1	1	NaN	53	1	53	2	111	211	311	NaN	511	1.7644411791116	1	0	NaN	4566280.7010216	NaN	4566281.6844056	4566282.20093862
73	21	0	0	90	36.1581920903955	36.241610738255	23	0.766717144027352	2	9	1	NaN	2	5	0.0224140145070856	1	1	NaN	54	1	54	2	121	221	321	NaN	521	1.97419051639736	2	1	NaN	4566284.8514382	NaN	4566285.8348495	4566286.35134448
73	21	0	0	90	36.1581920903955	36.241610738255	13	0.43336186401546	2	10	3	NaN	2	5	0.0224140145070856	1	1	NaN	55	1	55	2	121	221	321	NaN	521	1.18692071642727	2	1	NaN	4566290.9186353	NaN	4566291.902091	4566292.41860508
73	21	0	0	90	36.1581920903955	36.241610738255	7	0.233348696008325	2	12	3	NaN	2	4	0.0224140145070856	1	1	NaN	56	1	56	2	121	221	321	NaN	521	3.8301357217133	2	1	NaN	4566294.4355514	NaN	4566295.4191869	4566295.93562788
73	21	0	0	90	36.1581920903955	36.241610738255	20	0.666710560023785	2	9	6	NaN	2	5	0.0224140145070856	1	1	NaN	57	1	57	2	121	221	321	NaN	521	0.650475778616965	2	1	NaN	4566328.8390342	NaN	4566329.8224673	4566330.33899572
73	21	0	0	90	36.1581920903955	36.241610738255	0	0	1	7	3	NaN	2	5	0.0224140145070856	1	1	NaN	58	1	58	2	111	211	311	NaN	511	0.731591873802245	1	0	NaN	4566331.8060189	NaN	4566332.7894239	4566333.30597563
73	21	0	0	90	36.1581920903955	36.241610738255	18	0.600039504021406	2	12	1	NaN	2	3	0.0224140145070856	1	1	NaN	59	1	59	2	121	221	321	NaN	521	0.897280079312623	2	1	NaN	4566334.8563005	NaN	4566335.839726	4566336.35625722
73	21	0	0	90	36.1581920903955	36.241610738255	11	0.366690808013082	2	9	6	NaN	2	5	0.0224140145070856	1	1	NaN	60	1	60	2	121	221	321	NaN	521	0.96807202603668	2	1	NaN	4566338.0732782	NaN	4566339.0567405	4566339.57328947
73	21	0	0	90	36.1581920903955	36.241610738255	24	0.800052672028542	2	8	6	NaN	2	3	0.0224140145070856	1	1	NaN	61	1	61	2	121	221	321	NaN	521	3.11634688451886	1	0	NaN	4566341.3734876	NaN	4566342.3570614	4566342.87356572
73	21	0	0	90	36.1581920903955	36.241610738255	13	0.43336186401546	2	8	6	NaN	2	3	0.0224140145070856	1	1	NaN	62	1	62	2	121	221	321	NaN	521	0.948367416858673	2	1	NaN	4566348.3410201	NaN	4566349.3243661	4566349.84091288
73	21	0	0	90	36.1581920903955	36.241610738255	0	0	1	1	1	NaN	1	5	0.0224140145070856	1	1	NaN	63	1	63	2	111	211	311	NaN	511	1.77813826873899	1	1	NaN	4566352.1913383	NaN	4566353.1747504	4566353.69128483
73	21	0	0	90	36.1581920903955	36.241610738255	13	0.43336186401546	2	12	5	NaN	2	5	0.0224140145070856	1	1	NaN	64	2	1	2	121	221	321	NaN	521	1.92158066853881	2	1	NaN	4566369.7597504	NaN	4566370.7431474	4566371.25967663
73	21	0	0	90	36.1581920903955	36.241610738255	6	0.200013168007135	2	5	5	NaN	1	5	0.0224140145070856	1	1	NaN	65	2	2	2	121	221	321	NaN	521	1.79077356867492	1	1	NaN	4566374.626849	NaN	4566375.6102925	4566376.12683153
73	21	0	0	90	36.1581920903955	36.241610738255	11	0.366690808013082	2	8	6	NaN	2	4	0.0224140145070856	1	1	NaN	66	2	3	2	121	221	321	NaN	521	2.24204036500305	2	1	NaN	4566378.743811	NaN	4566379.7273689	4566380.24388884
73	21	0	0	90	36.1581920903955	36.241610738255	13	0.43336186401546	2	9	4	NaN	2	5	0.0224140145070856	1	1	NaN	67	2	4	2	121	221	321	NaN	521	1.91693312674761	2	1	NaN	4566384.0444724	NaN	4566385.0278659	4566385.54441067
73	21	0	0	90	36.1581920903955	36.241610738255	7	0.233348696008325	2	10	3	NaN	2	4	0.0224140145070856	1	1	NaN	68	2	5	2	121	221	321	NaN	521	1.43528811633587	1	0	NaN	4566388.2782326	NaN	4566389.2616355	4566389.77816858
73	21	0	0	90	36.1581920903955	36.241610738255	8	0.266684224009514	2	9	3	NaN	2	5	0.0224140145070856	1	1	NaN	69	2	6	2	121	221	321	NaN	521	1.9723364841193	2	1	NaN	4566392.0452788	NaN	4566393.0286611	4566393.54519882
73	21	0	0	90	36.1581920903955	36.241610738255	19	0.633375032022595	2	12	4	NaN	2	5	0.0224140145070856	1	1	NaN	70	2	7	2	121	221	321	NaN	521	0.815915169194341	1	0	NaN	4566396.3456933	NaN	4566397.3290746	4566397.84561583
73	21	0	0	90	36.1581920903955	36.241610738255	24	0.800052672028542	2	3	3	NaN	1	3	0.0224140145070856	1	1	NaN	71	2	8	2	121	221	321	NaN	521	0.770235821604729	2	0	NaN	4566399.4791915	NaN	4566400.4627065	4566400.97926238
73	21	0	0	90	36.1581920903955	36.241610738255	9	0.300019752010703	2	2	4	NaN	1	5	0.0224140145070856	1	1	NaN	72	2	9	2	121	221	321	NaN	521	1.05437393207103	1	1	NaN	4566402.5796243	NaN	4566403.5630555	4566404.07957657
73	21	0	0	90	36.1581920903955	36.241610738255	14	0.466697392016649	2	12	4	NaN	2	5	0.0224140145070856	1	1	NaN	73	2	10	2	121	221	321	NaN	521	3.63138145394623	2	1	NaN	4566405.9466166	NaN	4566406.9300102	4566407.44655645
73	21	0	0	90	36.1581920903955	36.241610738255	6	0.200013168007135	2	12	4	NaN	2	3	0.0224140145070856	1	1	NaN	74	2	11	2	121	221	321	NaN	521	0.736345668323338	2	1	NaN	4566411.8972021	NaN	4566412.8806237	4566413.39714243
73	21	0	0	90	36.1581920903955	36.241610738255	23	0.766717144027352	2	2	2	NaN	1	5	0.0224140145070856	1	1	NaN	75	2	12	2	121	221	321	NaN	521	1.26149976905435	1	1	NaN	4566414.9640742	NaN	4566415.9476007	4566416.46411283
73	21	0	0	90	36.1581920903955	36.241610738255	11	0.366690808013082	2	9	1	NaN	2	3	0.0224140145070856	1	1	NaN	76	2	13	2	121	221	321	NaN	521	1.57391126826406	2	1	NaN	4566418.5478805	NaN	4566419.5312854	4566420.04779603
73	21	0	0	90	36.1581920903955	36.241610738255	23	0.766717144027352	2	2	2	NaN	1	3	0.0224140145070856	1	1	NaN	77	2	14	2	121	221	321	NaN	521	0.785446263849735	1	1	NaN	4566422.448218	NaN	4566423.4316603	4566423.94817654
73	21	0	0	90	36.1581920903955	36.241610738255	15	0.500032920017839	2	10	2	NaN	2	5	0.0224140145070856	1	1	NaN	78	2	15	2	121	221	321	NaN	521	0.564900389872491	1	0	NaN	4566425.5484299	NaN	4566426.5319819	4566427.04849751
73	21	0	0	90	36.1581920903955	36.241610738255	25	0.833388200029731	2	2	6	NaN	1	3	0.0224140145070856	1	1	NaN	79	2	16	2	121	221	321	NaN	521	0.83080736361444	1	1	NaN	4566428.6987354	NaN	4566429.6822684	4566430.19879164
73	21	0	0	90	36.1581920903955	36.241610738255	6	0.200013168007135	2	6	6	NaN	1	4	0.0224140145070856	1	1	NaN	80	2	17	2	121	221	321	NaN	521	0.816405879333615	1	1	NaN	4566431.8492075	NaN	4566432.8325981	4566433.34910822
73	21	0	0	90	36.1581920903955	36.241610738255	23	0.766717144027352	2	1	5	NaN	1	3	0.0224140145070856	1	1	NaN	81	2	18	2	121	221	321	NaN	521	0.563300115987659	2	0	NaN	4566434.9828043	NaN	4566435.9662307	4566436.48274908
73	21	0	0	90	36.1581920903955	36.241610738255	21	0.700046088024974	2	11	1	NaN	2	4	0.0224140145070856	1	1	NaN	82	2	19	2	121	221	321	NaN	521	0.871563264168799	1	0	NaN	4566437.8664284	NaN	4566438.8498545	4566439.36636054
73	21	0	0	90	36.1581920903955	36.241610738255	24	0.800052672028542	2	9	4	NaN	2	5	0.0224140145070856	1	1	NaN	83	2	20	2	121	221	321	NaN	521	0.959241268225014	1	0	NaN	4566441.0667246	NaN	4566442.050142	4566442.56667803
73	21	0	0	90	36.1581920903955	36.241610738255	25	0.833388200029731	2	8	3	NaN	2	4	0.0224140145070856	1	1	NaN	84	2	21	2	121	221	321	NaN	521	1.5550086479634	2	1	NaN	4566444.3503832	NaN	4566445.3338251	4566445.85035975
73	21	0	0	90	36.1581920903955	36.241610738255	13	0.43336186401546	2	4	6	NaN	1	4	0.0224140145070856	1	1	NaN	85	2	22	2	121	221	321	NaN	521	0.463978168554604	2	0	NaN	4566448.2341167	NaN	4566449.2174842	4566449.73404833
73	21	0	0	90	36.1581920903955	36.241610738255	0	0	1	3	6	NaN	1	5	0.0224140145070856	1	1	NaN	86	2	23	2	111	211	311	NaN	511	0.680426369421184	1	1	NaN	4566451.0177459	NaN	4566452.0011236	4566452.51765873
73	21	0	0	90	36.1581920903955	36.241610738255	13	0.43336186401546	2	7	1	NaN	2	3	0.0224140145070856	1	1	NaN	87	2	24	2	121	221	321	NaN	521	0.664070785045624	1	0	NaN	4566454.0179911	NaN	4566455.0014133	4566455.51794942
73	21	0	0	90	36.1581920903955	36.241610738255	6	0.200013168007135	2	6	1	NaN	1	4	0.0224140145070856	1	1	NaN	88	2	25	2	121	221	321	NaN	521	3.01721257902682	1	1	NaN	4566457.168193	NaN	4566458.1517221	4566458.66826392
73	21	0	0	90	36.1581920903955	36.241610738255	16	0.533368448019028	2	2	3	NaN	1	3	0.0224140145070856	1	1	NaN	89	2	26	2	121	221	321	NaN	521	0.755842942744493	1	1	NaN	4566462.5021463	NaN	4566463.4855887	4566464.00212676
73	21	0	0	90	36.1581920903955	36.241610738255	13	0.43336186401546	2	1	1	NaN	1	5	0.0224140145070856	1	1	NaN	90	2	27	2	121	221	321	NaN	521	1.89630082156509	1	1	NaN	4566465.585823	NaN	4566466.5692274	4566467.08575578
73	21	0	0	90	36.1581920903955	36.241610738255	23	0.766717144027352	2	11	2	NaN	2	4	0.0224140145070856	1	1	NaN	91	2	28	2	121	221	321	NaN	521	0.754403822124004	2	1	NaN	4566470.1195176	NaN	4566471.1029942	4566471.61952498
73	21	0	0	90	36.1581920903955	36.241610738255	8	0.266684224009514	2	12	6	NaN	2	4	0.0224140145070856	1	1	NaN	92	2	29	2	121	221	321	NaN	521	0.662827436812222	2	1	NaN	4566473.203224	NaN	4566474.1866378	4566474.70316656
73	21	0	0	90	36.1581920903955	36.241610738255	6	0.200013168007135	2	7	5	NaN	2	3	0.0224140145070856	1	1	NaN	93	2	30	2	121	221	321	NaN	521	3.85493216849864	2	1	NaN	4566476.1867452	NaN	4566477.1702564	4566477.68679493
73	21	0	0	90	36.1581920903955	36.241610738255	22	0.733381616026163	2	2	2	NaN	1	4	0.0224140145070856	1	1	NaN	94	2	31	2	121	221	321	NaN	521	0.815271364524961	1	1	NaN	4566482.3707937	NaN	4566483.3542231	4566483.87073514
73	21	0	0	90	36.1581920903955	36.241610738255	21	0.700046088024974	2	1	1	NaN	1	5	0.0224140145070856	1	1	NaN	95	2	32	2	121	221	321	NaN	521	2.06514453794807	1	1	NaN	4566485.5044252	NaN	4566486.4878337	4566487.00437686
73	21	0	0	90	36.1581920903955	36.241610738255	22	0.733381616026163	2	11	1	NaN	2	4	0.0224140145070856	1	1	NaN	96	2	33	2	121	221	321	NaN	521	0.825498120859265	1	0	NaN	4566489.8881855	NaN	4566490.8716052	4566491.38813978
73	21	0	0	90	36.1581920903955	36.241610738255	25	0.833388200029731	2	7	2	NaN	2	5	0.0224140145070856	1	1	NaN	97	2	34	2	121	221	321	NaN	521	2.81910238415003	1	0	NaN	4566493.0383942	NaN	4566494.021917	4566494.53844352
73	21	0	0	90	36.1581920903955	36.241610738255	13	0.43336186401546	2	4	4	NaN	1	3	0.0224140145070856	1	1	NaN	98	2	35	2	121	221	321	NaN	521	3.02173626888543	1	1	NaN	4566498.172344	NaN	4566499.1557414	4566499.67228223
73	21	0	0	90	36.1581920903955	36.241610738255	12	0.400026336014271	2	4	2	NaN	1	3	0.0224140145070856	1	1	NaN	99	2	36	2	121	221	321	NaN	521	1.24721951689571	1	1	NaN	4566503.5228657	NaN	4566504.5062582	4566505.02281508
73	21	0	0	90	36.1581920903955	36.241610738255	17	0.566703976020217	2	1	2	NaN	1	5	0.0224140145070856	1	1	NaN	100	2	37	2	121	221	321	NaN	521	0.840317768976092	1	1	NaN	4566507.0899922	NaN	4566508.0732924	4566508.58982483
73	21	0	0	90	36.1581920903955	36.241610738255	25	0.833388200029731	2	12	5	NaN	2	3	0.0224140145070856	1	1	NaN	101	2	38	2	121	221	321	NaN	521	0.464947964064777	2	1	NaN	4566510.2568707	NaN	4566511.2402856	4566511.75682064
73	21	0	0	90	36.1581920903955	36.241610738255	7	0.233348696008325	2	3	4	NaN	1	3	0.0224140145070856	1	1	NaN	102	2	39	2	121	221	321	NaN	521	0.977577879093587	1	1	NaN	4566513.040394	NaN	4566514.0238797	4566514.54041242
73	21	0	0	90	36.1581920903955	36.241610738255	22	0.733381616026163	2	11	5	NaN	2	5	0.0224140145070856	1	1	NaN	103	2	40	2	121	221	321	NaN	521	2.68500456865877	1	0	NaN	4566516.3408619	NaN	4566517.3241832	4566517.84073313
73	21	0	0	90	36.1581920903955	36.241610738255	17	0.566703976020217	2	12	2	NaN	2	5	0.0224140145070856	1	1	NaN	104	2	41	2	121	221	321	NaN	521	0.519879794679582	2	1	NaN	4566521.6578767	NaN	4566522.6413938	4566523.15793721
73	21	0	0	90	36.1581920903955	36.241610738255	14	0.466697392016649	2	6	5	NaN	1	3	0.0224140145070856	1	1	NaN	105	2	42	2	121	221	321	NaN	521	1.24630236439407	1	1	NaN	4566524.4916088	NaN	4566525.4750111	4566525.99152644
73	21	0	0	90	36.1581920903955	36.241610738255	8	0.266684224009514	2	8	1	NaN	2	3	0.0224140145070856	1	1	NaN	106	2	43	2	121	221	321	NaN	521	2.31163014285266	2	1	NaN	4566528.0586167	NaN	4566529.0420426	4566529.55856156
73	21	0	0	90	36.1581920903955	36.241610738255	25	0.833388200029731	2	3	1	NaN	1	3	0.0224140145070856	1	1	NaN	107	2	44	2	121	221	321	NaN	521	1.11732361651957	1	1	NaN	4566532.6923707	NaN	4566533.6758295	4566534.19233118
73	21	0	0	90	36.1581920903955	36.241610738255	6	0.200013168007135	2	4	3	NaN	1	3	0.0224140145070856	1	1	NaN	108	2	45	2	121	221	321	NaN	521	1.08371812198311	2	0	NaN	4566536.1260751	NaN	4566537.1094689	4566537.62600648
73	21	0	0	90	36.1581920903955	36.241610738255	9	0.300019752010703	2	10	5	NaN	2	5	0.0224140145070856	1	1	NaN	109	2	46	2	121	221	321	NaN	521	3.88374246377498	2	1	NaN	4566539.526419	NaN	4566540.5098122	4566541.02634614
73	21	0	0	90	36.1581920903955	36.241610738255	18	0.600039504021406	2	3	6	NaN	1	4	0.0224140145070856	1	1	NaN	110	2	47	2	121	221	321	NaN	521	1.66717872116715	2	0	NaN	4566545.7270195	NaN	4566546.7104155	4566547.22697318
73	21	0	0	90	36.1581920903955	36.241610738255	8	0.266684224009514	2	10	5	NaN	2	3	0.0224140145070856	1	1	NaN	111	2	48	2	121	221	321	NaN	521	2.77828356809914	1	0	NaN	4566549.7273927	NaN	4566550.7108214	4566551.22734533
73	21	0	0	90	36.1581920903955	36.241610738255	14	0.466697392016649	2	1	6	NaN	1	5	0.0224140145070856	1	1	NaN	112	2	49	2	121	221	321	NaN	521	1.51819297391921	1	1	NaN	4566554.8279657	NaN	4566555.8113106	4566556.32785243
73	21	0	0	90	36.1581920903955	36.241610738255	16	0.533368448019028	2	6	3	NaN	1	5	0.0224140145070856	1	1	NaN	113	2	50	2	121	221	321	NaN	521	1.36428712215275	1	1	NaN	4566558.6616177	NaN	4566559.6450229	4566560.16154888
73	21	0	0	90	36.1581920903955	36.241610738255	25	0.833388200029731	2	10	3	NaN	2	5	0.0224140145070856	1	1	NaN	114	2	51	2	121	221	321	NaN	521	1.19281732197851	2	1	NaN	4566562.3453287	NaN	4566563.3287122	4566563.84526988
73	21	0	0	90	36.1581920903955	36.241610738255	23	0.766717144027352	2	5	2	NaN	1	4	0.0224140145070856	1	1	NaN	115	2	52	2	121	221	321	NaN	521	1.13208707887679	1	1	NaN	4566565.8622216	NaN	4566566.8457249	4566567.36226682
73	21	0	0	90	36.1581920903955	36.241610738255	23	0.766717144027352	2	7	3	NaN	2	3	0.0224140145070856	1	1	NaN	116	2	53	2	121	221	321	NaN	521	2.06574036832899	2	1	NaN	4566569.3126696	NaN	4566570.2960671	4566570.81259273
73	21	0	0	90	36.1581920903955	36.241610738255	20	0.666710560023785	2	6	3	NaN	1	5	0.0224140145070856	1	1	NaN	117	2	54	2	121	221	321	NaN	521	0.617484473623335	1	1	NaN	4566573.6964541	NaN	4566574.6798502	4566575.19637043
73	21	0	0	90	36.1581920903955	36.241610738255	14	0.466697392016649	2	11	1	NaN	2	4	0.0224140145070856	1	1	NaN	118	2	55	2	121	221	321	NaN	521	1.88404772710055	2	1	NaN	4566576.6299637	NaN	4566577.6134366	4566578.12997927
73	21	0	0	90	36.1581920903955	36.241610738255	12	0.400026336014271	2	3	3	NaN	1	5	0.0224140145070856	1	1	NaN	119	2	56	2	121	221	321	NaN	521	0.451763421297073	1	1	NaN	4566580.8303694	NaN	4566581.813865	4566582.33039178
73	21	0	0	90	36.1581920903955	36.241610738255	8	0.266684224009514	2	1	3	NaN	1	3	0.0224140145070856	1	1	NaN	120	2	57	2	121	221	321	NaN	521	0.39982526935637	2	0	NaN	4566583.7140731	NaN	4566584.6974777	4566585.21400733
73	21	0	0	90	36.1581920903955	36.241610738255	15	0.500032920017839	2	8	5	NaN	2	5	0.0224140145070856	1	1	NaN	121	2	58	2	121	221	321	NaN	521	0.315392916090786	1	0	NaN	4566586.4310893	NaN	4566587.4144645	4566587.93093798
73	21	0	0	90	36.1581920903955	36.241610738255	19	0.633375032022595	2	10	1	NaN	2	3	0.0224140145070856	1	1	NaN	122	2	59	2	121	221	321	NaN	521	0.593205168843269	1	0	NaN	4566589.0644949	NaN	4566590.0480202	4566590.56453633
73	21	0	0	90	36.1581920903955	36.241610738255	24	0.800052672028542	2	6	2	NaN	1	4	0.0224140145070856	1	1	NaN	123	2	60	2	121	221	321	NaN	521	0.540224064141512	1	1	NaN	4566591.9815726	NaN	4566592.964963	4566593.48148874
73	21	0	0	90	36.1581920903955	36.241610738255	16	0.533368448019028	2	11	4	NaN	2	4	0.0224140145070856	1	1	NaN	124	2	61	2	121	221	321	NaN	521	2.31333082169294	2	1	NaN	4566594.8484969	NaN	4566595.8319453	4566596.34844208
73	21	0	0	90	36.1581920903955	36.241610738255	10	0.333355280011892	2	6	5	NaN	1	4	0.0224140145070856	1	1	NaN	125	2	62	2	121	221	321	NaN	521	0.760011964477599	1	1	NaN	4566599.4822688	NaN	4566600.4656951	4566600.98223314
73	21	0	0	90	36.1581920903955	36.241610738255	0	0	1	4	1	NaN	1	5	0.0224140145070856	1	1	NaN	126	2	63	2	111	211	311	NaN	511	0.723912268877029	2	0	NaN	4566602.5657964	NaN	4566603.5493147	4566604.06585623
73	21	0	0	90	36.1581920903955	36.241610738255	12	0.400026336014271	2	8	1	NaN	2	5	0.0224140145070856	1	1	NaN	127	3	1	2	121	221	321	NaN	521	4.2514131218195	2	1	NaN	4566621.5344774	NaN	4566622.5179124	4566623.03439638
73	21	0	0	90	36.1581920903955	36.241610738255	12	0.400026336014271	2	10	3	NaN	2	5	0.0224140145070856	1	1	NaN	128	3	2	2	121	221	321	NaN	521	2.84359512664378	2	1	NaN	4566628.1184562	NaN	4566629.1018737	4566629.61836727
73	21	0	0	90	36.1581920903955	36.241610738255	19	0.633375032022595	2	11	3	NaN	2	5	0.0224140145070856	1	1	NaN	129	3	3	2	121	221	321	NaN	521	0.452294263988733	1	0	NaN	4566633.2856069	NaN	4566634.2689724	4566634.78554174
73	21	0	0	90	36.1581920903955	36.241610738255	18	0.600039504021406	2	12	4	NaN	2	5	0.0224140145070856	1	1	NaN	130	3	4	2	121	221	321	NaN	521	1.68470146879554	2	1	NaN	4566636.0692078	NaN	4566637.0525865	4566637.56914853
73	21	0	0	90	36.1581920903955	36.241610738255	24	0.800052672028542	2	6	5	NaN	1	3	0.0224140145070856	1	1	NaN	131	3	5	2	121	221	321	NaN	521	1.49232307914644	2	0	NaN	4566640.0695856	NaN	4566641.0529737	4566641.56954592
73	21	0	0	90	36.1581920903955	36.241610738255	0	0	1	5	5	NaN	1	5	0.0224140145070856	1	1	NaN	132	3	6	2	111	211	311	NaN	511	1.29934182204306	2	0	NaN	4566643.8866486	NaN	4566644.870034	4566645.38658048
73	21	0	0	90	36.1581920903955	36.241610738255	6	0.200013168007135	2	11	4	NaN	2	5	0.0224140145070856	1	1	NaN	133	3	7	2	121	221	321	NaN	521	0.450641616247594	2	1	NaN	4566647.5035154	NaN	4566648.4870912	4566649.00361048
73	21	0	0	90	36.1581920903955	36.241610738255	13	0.43336186401546	2	10	6	NaN	2	5	0.0224140145070856	1	1	NaN	134	3	8	2	121	221	321	NaN	521	0.315654468722641	1	0	NaN	4566650.2705732	NaN	4566651.2540187	4566651.77054593
73	21	0	0	90	36.1581920903955	36.241610738255	22	0.733381616026163	2	7	4	NaN	2	5	0.0224140145070856	1	1	NaN	135	3	9	2	121	221	321	NaN	521	0.79386917874217	1	0	NaN	4566652.9042186	NaN	4566653.8876211	4566654.40414012
73	21	0	0	90	36.1581920903955	36.241610738255	16	0.533368448019028	2	7	1	NaN	2	5	0.0224140145070856	1	1	NaN	136	3	10	2	121	221	321	NaN	521	2.42074568942189	2	1	NaN	4566656.021203	NaN	4566657.0045717	4566657.52111431
73	21	0	0	90	36.1581920903955	36.241610738255	10	0.333355280011892	2	11	6	NaN	2	4	0.0224140145070856	1	1	NaN	137	3	11	2	121	221	321	NaN	521	0.831385816447437	1	0	NaN	4566660.754953	NaN	4566661.7383964	4566662.25490638
73	21	0	0	90	36.1581920903955	36.241610738255	12	0.400026336014271	2	1	4	NaN	1	3	0.0224140145070856	1	1	NaN	138	3	12	2	121	221	321	NaN	521	0.832997026853263	1	1	NaN	4566663.9052681	NaN	4566664.8887194	4566665.40521757
73	21	0	0	90	36.1581920903955	36.241610738255	14	0.466697392016649	2	10	1	NaN	2	3	0.0224140145070856	1	1	NaN	139	3	13	2	121	221	321	NaN	521	0.786753522232175	1	0	NaN	4566667.0555921	NaN	4566668.0389881	4566668.55553108
73	21	0	0	90	36.1581920903955	36.241610738255	22	0.733381616026163	2	6	5	NaN	1	4	0.0224140145070856	1	1	NaN	140	3	14	2	121	221	321	NaN	521	1.04883177299052	1	1	NaN	4566670.4892367	NaN	4566671.4726983	4566671.98920113
73	21	0	0	90	36.1581920903955	36.241610738255	21	0.700046088024974	2	12	5	NaN	2	5	0.0224140145070856	1	1	NaN	141	3	15	2	121	221	321	NaN	521	0.203270073980093	2	1	NaN	4566678.006601	NaN	4566678.9900568	4566679.50660963
73	21	0	0	90	36.1581920903955	36.241610738255	20	0.666710560023785	2	4	6	NaN	1	5	0.0224140145070856	1	1	NaN	142	3	16	2	121	221	321	NaN	521	0.0105048641562462	1	1	NaN	4566681.9070104	NaN	4566682.8904244	4566683.40697734
73	21	0	0	90	36.1581920903955	36.241610738255	11	0.366690808013082	2	1	2	NaN	1	4	0.0224140145070856	1	1	NaN	143	3	17	2	121	221	321	NaN	521	1.58443277422339	2	0	NaN	4566685.657403	NaN	4566686.6408005	4566687.15735833
73	21	0	0	90	36.1581920903955	36.241610738255	12	0.400026336014271	2	1	6	NaN	1	5	0.0224140145070856	1	1	NaN	144	3	18	2	121	221	321	NaN	521	1.50297557376325	1	1	NaN	4566689.6911078	NaN	4566690.6745178	4566691.19108203
73	21	0	0	90	36.1581920903955	36.241610738255	24	0.800052672028542	2	5	4	NaN	1	3	0.0224140145070856	1	1	NaN	145	3	19	2	121	221	321	NaN	521	0.922889867797494	1	1	NaN	4566854.407305	NaN	4566855.3906946	4566855.90725083
73	21	0	0	90	36.1581920903955	36.241610738255	14	0.466697392016649	2	8	5	NaN	2	3	0.0224140145070856	1	1	NaN	146	3	20	2	121	221	321	NaN	521	2.04077141638845	1	0	NaN	4566857.6576414	NaN	4566858.6410375	4566859.15756238
73	21	0	0	90	36.1581920903955	36.241610738255	22	0.733381616026163	2	8	4	NaN	2	3	0.0224140145070856	1	1	NaN	147	3	21	2	121	221	321	NaN	521	1.7936769220978	1	0	NaN	4566862.024709	NaN	4566863.0081289	4566863.52465998
73	21	0	0	90	36.1581920903955	36.241610738255	11	0.366690808013082	2	1	6	NaN	1	4	0.0224140145070856	1	1	NaN	148	3	22	2	121	221	321	NaN	521	2.9324392369017	2	0	NaN	4566866.141782	NaN	4566867.1252173	4566867.64174206
73	21	0	0	90	36.1581920903955	36.241610738255	14	0.466697392016649	2	7	6	NaN	2	4	0.0224140145070856	1	1	NaN	149	3	23	2	121	221	321	NaN	521	3.35375267453492	2	1	NaN	4566871.3923128	NaN	4566872.3757193	4566872.89225213
73	21	0	0	90	36.1581920903955	36.241610738255	12	0.400026336014271	2	6	6	NaN	1	3	0.0224140145070856	1	1	NaN	150	3	24	2	121	221	321	NaN	521	1.11865281686187	1	1	NaN	4566877.0595291	NaN	4566878.0429224	4566878.55946908
73	21	0	0	90	36.1581920903955	36.241610738255	22	0.733381616026163	2	6	6	NaN	1	5	0.0224140145070856	1	1	NaN	151	3	25	2	121	221	321	NaN	521	0.925073022022843	1	1	NaN	4566880.4932238	NaN	4566881.4765938	4566881.99313818
73	21	0	0	90	36.1581920903955	36.241610738255	6	0.200013168007135	2	8	5	NaN	2	3	0.0224140145070856	1	1	NaN	152	3	26	2	121	221	321	NaN	521	1.37077352125198	2	1	NaN	4566883.7435261	NaN	4566884.7269146	4566885.24347808
73	21	0	0	90	36.1581920903955	36.241610738255	21	0.700046088024974	2	12	3	NaN	2	5	0.0224140145070856	1	1	NaN	153	3	27	2	121	221	321	NaN	521	2.43830232229084	2	1	NaN	4566887.4438121	NaN	4566888.4272795	4566888.94381468
73	21	0	0	90	36.1581920903955	36.241610738255	17	0.566703976020217	2	9	5	NaN	2	4	0.0224140145070856	1	1	NaN	154	3	28	2	121	221	321	NaN	521	1.28767846804112	2	1	NaN	4566892.2110128	NaN	4566893.1944351	4566893.71095253
73	21	0	0	90	36.1581920903955	36.241610738255	0	0	1	4	3	NaN	1	3	0.0224140145070856	1	1	NaN	155	3	29	2	111	211	311	NaN	511	0.358239868655801	1	1	NaN	4566895.8280268	NaN	4566896.8114491	4566897.32799353
73	21	0	0	90	36.1581920903955	36.241610738255	11	0.366690808013082	2	10	6	NaN	2	3	0.0224140145070856	1	1	NaN	156	3	30	2	121	221	321	NaN	521	0.514833131805062	1	0	NaN	4566898.5116233	NaN	4566899.4950676	4566900.01158207
73	21	0	0	90	36.1581920903955	36.241610738255	22	0.733381616026163	2	3	4	NaN	1	4	0.0224140145070856	1	1	NaN	157	3	31	2	121	221	321	NaN	521	0.640989121980965	1	1	NaN	4566901.3452529	NaN	4566902.3286363	4566902.84519088
73	21	0	0	90	36.1581920903955	36.241610738255	7	0.233348696008325	2	11	3	NaN	2	4	0.0224140145070856	1	1	NaN	158	3	32	2	121	221	321	NaN	521	1.17043546400964	1	0	NaN	4566904.3120638	NaN	4566905.295611	4566905.81214614
73	21	0	0	90	36.1581920903955	36.241610738255	9	0.300019752010703	2	7	6	NaN	2	4	0.0224140145070856	1	1	NaN	159	3	33	2	121	221	321	NaN	521	0.485797221772373	2	1	NaN	4566907.8125533	NaN	4566908.7959476	4566909.31249118
73	21	0	0	90	36.1581920903955	36.241610738255	6	0.200013168007135	2	1	3	NaN	1	5	0.0224140145070856	1	1	NaN	160	3	34	2	121	221	321	NaN	521	1.21308306884021	1	1	NaN	4566910.6294869	NaN	4566911.6129036	4566912.12943753
73	21	0	0	90	36.1581920903955	36.241610738255	6	0.200013168007135	2	9	2	NaN	2	3	0.0224140145070856	1	1	NaN	161	3	35	2	121	221	321	NaN	521	0.559297168627381	2	1	NaN	4566914.1631675	NaN	4566915.1465663	4566915.66311093
73	21	0	0	90	36.1581920903955	36.241610738255	7	0.233348696008325	2	6	4	NaN	1	5	0.0224140145070856	1	1	NaN	162	3	36	2	121	221	321	NaN	521	2.49989401642233	1	1	NaN	4566917.0466602	NaN	4566918.0302142	4566918.54672368
73	21	0	0	90	36.1581920903955	36.241610738255	21	0.700046088024974	2	8	5	NaN	2	4	0.0224140145070856	1	1	NaN	163	3	37	2	121	221	321	NaN	521	1.92285646870732	1	0	NaN	4566921.863984	NaN	4566922.8473361	4566923.36386703
73	21	0	0	90	36.1581920903955	36.241610738255	17	0.566703976020217	2	7	5	NaN	2	5	0.0224140145070856	1	1	NaN	164	3	38	2	121	221	321	NaN	521	0.719891921617091	2	1	NaN	4566926.1143362	NaN	4566927.0977432	4566927.61429068
73	21	0	0	90	36.1581920903955	36.241610738255	24	0.800052672028542	2	1	6	NaN	1	4	0.0224140145070856	1	1	NaN	165	3	39	2	121	221	321	NaN	521	0.670782247558236	1	1	NaN	4566929.1478519	NaN	4566930.1314035	4566930.64793045
73	21	0	0	90	36.1581920903955	36.241610738255	20	0.666710560023785	2	10	4	NaN	2	4	0.0224140145070856	1	1	NaN	166	3	40	2	121	221	321	NaN	521	1.49417742155492	1	0	NaN	4566932.1482837	NaN	4566933.1316887	4566933.64822998
73	21	0	0	90	36.1581920903955	36.241610738255	25	0.833388200029731	2	5	5	NaN	1	5	0.0224140145070856	1	1	NaN	167	3	41	2	121	221	321	NaN	521	0.757464116439223	1	1	NaN	4566935.965325	NaN	4566936.9487433	4566937.46524848
73	21	0	0	90	36.1581920903955	36.241610738255	14	0.466697392016649	2	11	2	NaN	2	3	0.0224140145070856	1	1	NaN	168	3	42	2	121	221	321	NaN	521	1.53779756836593	1	0	NaN	4566939.0489495	NaN	4566940.0323713	4566940.54888273
73	21	0	0	90	36.1581920903955	36.241610738255	17	0.566703976020217	2	6	6	NaN	1	3	0.0224140145070856	1	1	NaN	169	3	43	2	121	221	321	NaN	521	1.00636298954487	1	1	NaN	4566942.915992	NaN	4566943.899398	4566944.41593911
73	21	0	0	90	36.1581920903955	36.241610738255	18	0.600039504021406	2	11	6	NaN	2	5	0.0224140145070856	1	1	NaN	170	3	44	2	121	221	321	NaN	521	0.816646922379732	1	0	NaN	4566946.249657	NaN	4566947.2330499	4566947.74958938
73	21	0	0	90	36.1581920903955	36.241610738255	16	0.533368448019028	2	1	4	NaN	1	3	0.0224140145070856	1	1	NaN	171	3	45	2	121	221	321	NaN	521	1.02756016887724	1	1	NaN	4566949.3832906	NaN	4566950.3666797	4566950.88323303
73	21	0	0	90	36.1581920903955	36.241610738255	6	0.200013168007135	2	1	2	NaN	1	3	0.0224140145070856	1	1	NaN	172	3	46	2	121	221	321	NaN	521	0.940662979148328	1	1	NaN	4566952.7336652	NaN	4566953.7170306	4566954.23357992
73	21	0	0	90	36.1581920903955	36.241610738255	16	0.533368448019028	2	8	6	NaN	2	5	0.0224140145070856	1	1	NaN	173	3	47	2	121	221	321	NaN	521	3.01795166824013	1	0	NaN	4566956.0006337	NaN	4566956.9840388	4566957.50054893
73	21	0	0	90	36.1581920903955	36.241610738255	19	0.633375032022595	2	9	4	NaN	2	4	0.0224140145070856	1	1	NaN	174	3	48	2	121	221	321	NaN	521	0.747938917018473	1	0	NaN	4566961.3344195	NaN	4566962.317882	4566962.83440108
73	21	0	0	90	36.1581920903955	36.241610738255	20	0.666710560023785	2	11	6	NaN	2	3	0.0224140145070856	1	1	NaN	175	3	49	2	121	221	321	NaN	521	0.305001921951771	2	1	NaN	4566964.4014408	NaN	4566965.3848281	4566965.90137388
73	21	0	0	90	36.1581920903955	36.241610738255	20	0.666710560023785	2	8	4	NaN	2	4	0.0224140145070856	1	1	NaN	176	3	50	2	121	221	321	NaN	521	3.87363912165165	2	1	NaN	4566968.5851381	NaN	4566969.5685859	4566970.08513608
73	21	0	0	90	36.1581920903955	36.241610738255	25	0.833388200029731	2	1	1	NaN	1	5	0.0224140145070856	1	1	NaN	177	3	51	2	121	221	321	NaN	521	0.975097267888486	1	1	NaN	4566976.2192487	NaN	4566977.2027046	4566977.71920403
73	21	0	0	90	36.1581920903955	36.241610738255	13	0.43336186401546	2	5	1	NaN	1	5	0.0224140145070856	1	1	NaN	178	3	52	2	121	221	321	NaN	521	0.987513421103358	2	0	NaN	4566979.5028921	NaN	4566980.4862986	4566981.00286918
73	21	0	0	90	36.1581920903955	36.241610738255	14	0.466697392016649	2	4	3	NaN	1	3	0.0224140145070856	1	1	NaN	179	3	53	2	121	221	321	NaN	521	1.71051206812263	2	0	NaN	4566982.8198951	NaN	4566983.8032873	4566984.31986733
73	21	0	0	90	36.1581920903955	36.241610738255	20	0.666710560023785	2	12	6	NaN	2	5	0.0224140145070856	1	1	NaN	180	3	54	2	121	221	321	NaN	521	3.26115672104061	1	0	NaN	4566986.8536509	NaN	4566987.8370389	4566988.35357328
73	21	0	0	90	36.1581920903955	36.241610738255	6	0.200013168007135	2	8	4	NaN	2	5	0.0224140145070856	1	1	NaN	181	3	55	2	121	221	321	NaN	521	1.31726892199367	1	0	NaN	4566992.4373887	NaN	4566993.4208079	4566993.93748028
73	21	0	0	90	36.1581920903955	36.241610738255	12	0.400026336014271	2	8	6	NaN	2	3	0.0224140145070856	1	1	NaN	182	3	56	2	121	221	321	NaN	521	2.12264882121235	1	0	NaN	4566996.0878851	NaN	4566997.0712757	4566997.58781968
73	21	0	0	90	36.1581920903955	36.241610738255	19	0.633375032022595	2	12	2	NaN	2	3	0.0224140145070856	1	1	NaN	183	3	57	2	121	221	321	NaN	521	2.21645504236221	2	1	NaN	4567000.5382984	NaN	4567001.521712	4567002.03825526
73	21	0	0	90	36.1581920903955	36.241610738255	8	0.266684224009514	2	3	6	NaN	1	4	0.0224140145070856	1	1	NaN	184	3	58	2	121	221	321	NaN	521	0.530357863754034	1	1	NaN	4567005.0721441	NaN	4567006.0554869	4567006.57203314
73	21	0	0	90	36.1581920903955	36.241610738255	25	0.833388200029731	2	7	5	NaN	2	4	0.0224140145070856	1	1	NaN	185	3	59	2	121	221	321	NaN	521	0.744208469055593	2	1	NaN	4567007.9223974	NaN	4567008.9057772	4567009.42231213
73	21	0	0	90	36.1581920903955	36.241610738255	21	0.700046088024974	2	2	2	NaN	1	3	0.0224140145070856	1	1	NaN	186	3	60	2	121	221	321	NaN	521	1.1412087213248	2	0	NaN	4567010.9893389	NaN	4567011.9727351	4567012.48928138
73	21	0	0	90	36.1581920903955	36.241610738255	8	0.266684224009514	2	5	1	NaN	1	3	0.0224140145070856	1	1	NaN	187	3	61	2	121	221	321	NaN	521	0.466508589684963	1	1	NaN	4567014.4397024	NaN	4567015.4230803	4567015.93961371
73	21	0	0	90	36.1581920903955	36.241610738255	20	0.666710560023785	2	1	5	NaN	1	4	0.0224140145070856	1	1	NaN	188	3	62	2	121	221	321	NaN	521	0.954925715923309	2	0	NaN	4567017.2233151	NaN	4567018.2066962	4567018.72322138
73	21	0	0	90	36.1581920903955	36.241610738255	24	0.800052672028542	2	4	5	NaN	1	4	0.0224140145070856	1	1	NaN	189	3	63	2	121	221	321	NaN	521	0.615545668639243	1	1	NaN	4567020.5069465	NaN	4567021.490331	4567022.00688333
73	21	0	0	90	36.1581920903955	36.241610738255	22	0.733381616026163	2	4	2	NaN	1	3	0.0224140145070856	1	1	NaN	190	4	1	2	121	221	321	NaN	521	1.63702616840601	1	1	NaN	4567063.0777613	NaN	4567064.0612069	4567064.57772573
73	21	0	0	90	36.1581920903955	36.241610738255	23	0.766717144027352	2	3	1	NaN	1	5	0.0224140145070856	1	1	NaN	191	4	2	2	121	221	321	NaN	521	1.50949774775654	1	1	NaN	4567067.0448252	NaN	4567068.0282488	4567068.54480155
73	21	0	0	90	36.1581920903955	36.241610738255	20	0.666710560023785	2	2	5	NaN	1	3	0.0224140145070856	1	1	NaN	192	4	3	2	121	221	321	NaN	521	0.081163321621716	1	1	NaN	4567073.7454763	NaN	4567074.7288961	4567075.24544168
73	21	0	0	90	36.1581920903955	36.241610738255	9	0.300019752010703	2	9	5	NaN	2	3	0.0224140145070856	1	1	NaN	193	4	4	2	121	221	321	NaN	521	0.944873222149909	1	0	NaN	4567076.1457469	NaN	4567077.12903	4567077.64566628
73	21	0	0	90	36.1581920903955	36.241610738255	18	0.600039504021406	2	10	1	NaN	2	3	0.0224140145070856	1	1	NaN	194	4	5	2	121	221	321	NaN	521	1.06997487414628	1	0	NaN	4567079.4127704	NaN	4567080.3961335	4567080.91266243
73	21	0	0	90	36.1581920903955	36.241610738255	25	0.833388200029731	2	1	6	NaN	1	5	0.0224140145070856	1	1	NaN	195	4	6	2	121	221	321	NaN	521	0.214422869496047	2	0	NaN	4567082.7962719	NaN	4567083.7798014	4567084.29632283
73	21	0	0	90	36.1581920903955	36.241610738255	7	0.233348696008325	2	12	2	NaN	2	5	0.0224140145070856	1	1	NaN	196	4	7	2	121	221	321	NaN	521	0.55255682207644	2	1	NaN	4567085.3299887	NaN	4567086.3133889	4567086.82991058
73	21	0	0	90	36.1581920903955	36.241610738255	17	0.566703976020217	2	2	6	NaN	1	4	0.0224140145070856	1	1	NaN	197	4	8	2	121	221	321	NaN	521	1.18996514845639	1	1	NaN	4567088.1969415	NaN	4567089.1803327	4567089.69687015
73	21	0	0	90	36.1581920903955	36.241610738255	23	0.766717144027352	2	8	3	NaN	2	5	0.0224140145070856	1	1	NaN	198	4	9	2	121	221	321	NaN	521	0.705636489205062	2	1	NaN	4567091.6972667	NaN	4567092.6806818	4567093.19720471
73	21	0	0	90	36.1581920903955	36.241610738255	21	0.700046088024974	2	6	6	NaN	1	5	0.0224140145070856	1	1	NaN	199	4	10	2	121	221	321	NaN	521	3.07160072121769	1	1	NaN	4567094.7308845	NaN	4567095.7143086	4567096.23083148
73	21	0	0	90	36.1581920903955	36.241610738255	10	0.333355280011892	2	5	1	NaN	1	3	0.0224140145070856	1	1	NaN	200	4	11	2	121	221	321	NaN	521	0.439490621909499	1	1	NaN	4567100.1314395	NaN	4567101.1148733	4567101.63135878
73	21	0	0	90	36.1581920903955	36.241610738255	9	0.300019752010703	2	8	2	NaN	2	5	0.0224140145070856	1	1	NaN	201	4	12	2	121	221	321	NaN	521	3.48859896417707	2	1	NaN	4567102.8983537	NaN	4567103.8817669	4567104.39829344
73	21	0	0	90	36.1581920903955	36.241610738255	14	0.466697392016649	2	2	4	NaN	1	4	0.0224140145070856	1	1	NaN	202	4	13	2	121	221	321	NaN	521	0.51123936381191	1	1	NaN	4567108.7155865	NaN	4567109.6990282	4567110.21553964
73	21	0	0	90	36.1581920903955	36.241610738255	13	0.43336186401546	2	8	4	NaN	2	4	0.0224140145070856	1	1	NaN	203	4	14	2	121	221	321	NaN	521	0.445783168077469	1	0	NaN	4567111.5492127	NaN	4567112.5326074	4567113.04915973
73	21	0	0	90	36.1581920903955	36.241610738255	17	0.566703976020217	2	12	4	NaN	2	4	0.0224140145070856	1	1	NaN	204	4	15	2	121	221	321	NaN	521	0.598570317029953	2	1	NaN	4567114.3161583	NaN	4567115.2995632	4567115.81608508
73	21	0	0	90	36.1581920903955	36.241610738255	20	0.666710560023785	2	1	2	NaN	1	4	0.0224140145070856	1	1	NaN	205	4	16	2	121	221	321	NaN	521	1.13740586861968	2	0	NaN	4567117.2331155	NaN	4567118.2165118	4567118.73304573
73	21	0	0	90	36.1581920903955	36.241610738255	23	0.766717144027352	2	11	5	NaN	2	5	0.0224140145070856	1	1	NaN	206	4	17	2	121	221	321	NaN	521	0.478616121225059	1	0	NaN	4567120.7001983	NaN	4567121.6835298	4567122.20004358
73	21	0	0	90	36.1581920903955	36.241610738255	7	0.233348696008325	2	5	2	NaN	1	5	0.0224140145070856	1	1	NaN	207	4	18	2	121	221	321	NaN	521	1.43034801073372	1	1	NaN	4567123.5002684	NaN	4567124.4837964	4567125.00031479
73	21	0	0	90	36.1581920903955	36.241610738255	10	0.333355280011892	2	6	3	NaN	1	4	0.0224140145070856	1	1	NaN	208	4	19	2	121	221	321	NaN	521	0.600265668705106	1	1	NaN	4567127.2507561	NaN	4567128.2341596	4567128.75069913
73	21	0	0	90	36.1581920903955	36.241610738255	12	0.400026336014271	2	5	4	NaN	1	3	0.0224140145070856	1	1	NaN	209	4	20	2	121	221	321	NaN	521	0.658780142664909	1	1	NaN	4567130.1676883	NaN	4567131.1511036	4567131.66765026
73	21	0	0	90	36.1581920903955	36.241610738255	22	0.733381616026163	2	10	4	NaN	2	4	0.0224140145070856	1	1	NaN	210	4	21	2	121	221	321	NaN	521	0.395165527239442	1	0	NaN	4567133.1512591	NaN	4567134.1347747	4567134.65126097
73	21	0	0	90	36.1581920903955	36.241610738255	7	0.233348696008325	2	7	1	NaN	2	5	0.0224140145070856	1	1	NaN	211	4	22	2	121	221	321	NaN	521	0.0383328683674335	2	1	NaN	4567135.8682544	NaN	4567136.8516818	4567137.36820413
73	21	0	0	90	36.1581920903955	36.241610738255	11	0.366690808013082	2	12	1	NaN	2	5	0.0224140145070856	1	1	NaN	212	4	23	2	121	221	321	NaN	521	0.90350956376642	2	1	NaN	4567138.2351531	NaN	4567139.2185662	4567139.73509694
73	21	0	0	90	36.1581920903955	36.241610738255	23	0.766717144027352	2	7	3	NaN	2	5	0.0224140145070856	1	1	NaN	213	4	24	2	121	221	321	NaN	521	2.02291522733867	2	1	NaN	4567141.4521686	NaN	4567142.4355321	4567142.95207897
73	21	0	0	90	36.1581920903955	36.241610738255	0	0	1	12	1	NaN	2	4	0.0224140145070856	1	1	NaN	214	4	25	2	111	211	311	NaN	511	0.432075422257185	2	1	NaN	4567145.8025718	NaN	4567146.7859864	4567147.30252798
73	21	0	0	90	36.1581920903955	36.241610738255	13	0.43336186401546	2	5	1	NaN	1	4	0.0224140145070856	1	1	NaN	215	4	26	2	121	221	321	NaN	521	2.2898976681754	2	0	NaN	4567148.5528549	NaN	4567149.5362307	4567150.05277403
73	21	0	0	90	36.1581920903955	36.241610738255	7	0.233348696008325	2	1	5	NaN	1	3	0.0224140145070856	1	1	NaN	216	4	27	2	121	221	321	NaN	521	0.648797821253538	2	0	NaN	4567153.1698129	NaN	4567154.1534237	4567154.66990618
73	21	0	0	90	36.1581920903955	36.241610738255	22	0.733381616026163	2	7	4	NaN	2	3	0.0224140145070856	1	1	NaN	217	4	28	2	121	221	321	NaN	521	1.17814221698791	2	1	NaN	4567156.1367874	NaN	4567157.1203216	4567157.63685218
73	21	0	0	90	36.1581920903955	36.241610738255	24	0.800052672028542	2	10	6	NaN	2	5	0.0224140145070856	1	1	NaN	218	4	29	2	121	221	321	NaN	521	1.34125556889921	2	1	NaN	4567159.637282	NaN	4567160.620663	4567161.13721213
73	21	0	0	90	36.1581920903955	36.241610738255	15	0.500032920017839	2	2	4	NaN	1	5	0.0224140145070856	1	1	NaN	219	4	30	2	121	221	321	NaN	521	2.05846645403653	2	0	NaN	4567163.3043211	NaN	4567164.2876993	4567164.80422995
73	21	0	0	90	36.1581920903955	36.241610738255	22	0.733381616026163	2	4	3	NaN	1	3	0.0224140145070856	1	1	NaN	220	4	31	2	121	221	321	NaN	521	2.27494012750685	1	1	NaN	4567167.688064	NaN	4567168.6714578	4567169.18798987
73	21	0	0	90	36.1581920903955	36.241610738255	21	0.700046088024974	2	5	6	NaN	1	3	0.0224140145070856	1	1	NaN	221	4	32	2	121	221	321	NaN	521	2.10613541677594	2	0	NaN	4567172.288508	NaN	4567173.2719191	4567173.78843978
73	21	0	0	90	36.1581920903955	36.241610738255	19	0.633375032022595	2	3	2	NaN	1	3	0.0224140145070856	1	1	NaN	222	4	33	2	121	221	321	NaN	521	0.824496421962976	1	1	NaN	4567176.722289	NaN	4567177.7056958	4567178.22221238
73	21	0	0	90	36.1581920903955	36.241610738255	15	0.500032920017839	2	9	1	NaN	2	3	0.0224140145070856	1	1	NaN	223	4	34	2	121	221	321	NaN	521	1.99448546860367	1	0	NaN	4567179.8725939	NaN	4567180.855945	4567181.37251363
73	21	0	0	90	36.1581920903955	36.241610738255	10	0.333355280011892	2	4	5	NaN	1	5	0.0224140145070856	1	1	NaN	224	4	35	2	121	221	321	NaN	521	1.1893420740962	1	1	NaN	4567184.1897978	NaN	4567185.1731269	4567185.68963693
73	21	0	0	90	36.1581920903955	36.241610738255	7	0.233348696008325	2	2	1	NaN	1	3	0.0224140145070856	1	1	NaN	225	4	36	2	121	221	321	NaN	521	3.37574007920921	1	1	NaN	4567187.7066629	NaN	4567188.6900869	4567189.20663122
73	21	0	0	90	36.1581920903955	36.241610738255	17	0.566703976020217	2	4	5	NaN	1	4	0.0224140145070856	1	1	NaN	226	4	37	2	121	221	321	NaN	521	3.02752601634711	1	1	NaN	4567193.4072455	NaN	4567194.3906394	4567194.90717028
73	21	0	0	90	36.1581920903955	36.241610738255	18	0.600039504021406	2	6	4	NaN	1	3	0.0224140145070856	1	1	NaN	227	4	38	2	121	221	321	NaN	521	1.4291180158034	2	0	NaN	4567198.7577624	NaN	4567199.7411743	4567200.25769848
73	21	0	0	90	36.1581920903955	36.241610738255	18	0.600039504021406	2	4	1	NaN	1	3	0.0224140145070856	1	1	NaN	228	4	39	2	121	221	321	NaN	521	1.16652823239565	1	1	NaN	4567202.5080392	NaN	4567203.4915401	4567204.00808047
73	21	0	0	90	36.1581920903955	36.241610738255	11	0.366690808013082	2	2	1	NaN	1	4	0.0224140145070856	1	1	NaN	229	4	40	2	121	221	321	NaN	521	1.00324334297329	1	1	NaN	4567205.9918395	NaN	4567206.9752064	4567207.49175456
73	21	0	0	90	36.1581920903955	36.241610738255	21	0.700046088024974	2	7	1	NaN	2	4	0.0224140145070856	1	1	NaN	230	4	41	2	121	221	321	NaN	521	1.36563970055431	2	1	NaN	4567209.3254999	NaN	4567210.3089484	4567210.8254064
73	21	0	0	90	36.1581920903955	36.241610738255	15	0.500032920017839	2	5	6	NaN	1	4	0.0224140145070856	1	1	NaN	231	4	42	2	121	221	321	NaN	521	1.44192822184414	2	0	NaN	4567213.0091648	NaN	4567213.9925906	4567214.50910348
73	21	0	0	90	36.1581920903955	36.241610738255	23	0.766717144027352	2	6	4	NaN	1	3	0.0224140145070856	1	1	NaN	232	4	43	2	121	221	321	NaN	521	1.23457386903465	2	0	NaN	4567216.7761392	NaN	4567217.7596276	4567218.27614033
73	21	0	0	90	36.1581920903955	36.241610738255	12	0.400026336014271	2	11	2	NaN	2	4	0.0224140145070856	1	1	NaN	233	4	44	2	121	221	321	NaN	521	2.21259131655097	1	0	NaN	4567220.3265572	NaN	4567221.3099776	4567221.82648578
73	21	0	0	90	36.1581920903955	36.241610738255	25	0.833388200029731	2	9	3	NaN	2	5	0.0224140145070856	1	1	NaN	234	4	45	2	121	221	321	NaN	521	3.10235272161663	2	1	NaN	4567224.8604268	NaN	4567225.8437321	4567226.36026468
73	21	0	0	90	36.1581920903955	36.241610738255	7	0.233348696008325	2	3	2	NaN	1	3	0.0224140145070856	1	1	NaN	235	4	46	2	121	221	321	NaN	521	0.901103268377483	2	0	NaN	4567230.2774065	NaN	4567231.2608443	4567231.77747593
73	21	0	0	90	36.1581920903955	36.241610738255	10	0.333355280011892	2	9	3	NaN	2	5	0.0224140145070856	1	1	NaN	236	4	47	2	121	221	321	NaN	521	1.54880557954311	1	0	NaN	4567233.4945112	NaN	4567234.4779173	4567234.99444862
73	21	0	0	90	36.1581920903955	36.241610738255	15	0.500032920017839	2	6	3	NaN	1	3	0.0224140145070856	1	1	NaN	237	4	48	2	121	221	321	NaN	521	1.98532972112298	1	1	NaN	4567237.3614954	NaN	4567238.3449684	4567238.86150038
73	21	0	0	90	36.1581920903955	36.241610738255	23	0.766717144027352	2	4	5	NaN	1	5	0.0224140145070856	1	1	NaN	238	4	49	2	121	221	321	NaN	521	0.589231168851256	1	1	NaN	4567241.6618932	NaN	4567242.6453842	4567243.16190963
73	21	0	0	90	36.1581920903955	36.241610738255	12	0.400026336014271	2	9	6	NaN	2	5	0.0224140145070856	1	1	NaN	239	4	50	2	121	221	321	NaN	521	3.62391476798803	1	0	NaN	4567244.578935	NaN	4567245.5623216	4567246.07887333
73	21	0	0	90	36.1581920903955	36.241610738255	21	0.700046088024974	2	6	1	NaN	1	4	0.0224140145070856	1	1	NaN	240	4	51	2	121	221	321	NaN	521	1.13767008949071	2	0	NaN	4567250.5295266	NaN	4567251.5128956	4567252.02945191
73	21	0	0	90	36.1581920903955	36.241610738255	10	0.333355280011892	2	3	2	NaN	1	5	0.0224140145070856	1	1	NaN	241	4	52	2	121	221	321	NaN	521	1.46260084304959	2	0	NaN	4567253.9965362	NaN	4567254.979929	4567255.49646746
73	21	0	0	90	36.1581920903955	36.241610738255	23	0.766717144027352	2	8	2	NaN	2	4	0.0224140145070856	1	1	NaN	242	4	53	2	121	221	321	NaN	521	1.3824915215373	1	0	NaN	4567257.7803041	NaN	4567258.7636934	4567259.28016498
73	21	0	0	90	36.1581920903955	36.241610738255	13	0.43336186401546	2	11	4	NaN	2	5	0.0224140145070856	1	1	NaN	243	4	54	2	121	221	321	NaN	521	0.625784922391176	1	0	NaN	4567261.4973508	NaN	4567262.4806404	4567262.99719428
73	21	0	0	90	36.1581920903955	36.241610738255	17	0.566703976020217	2	5	4	NaN	1	3	0.0224140145070856	1	1	NaN	244	4	55	2	121	221	321	NaN	521	0.4351890636608	1	1	NaN	4567264.4475527	NaN	4567265.4309754	4567265.94748084
73	21	0	0	90	36.1581920903955	36.241610738255	12	0.400026336014271	2	7	2	NaN	2	4	0.0224140145070856	1	1	NaN	245	4	56	2	121	221	321	NaN	521	0.212381568737328	1	0	NaN	4567267.2145012	NaN	4567268.1978641	4567268.71441563
73	21	0	0	90	36.1581920903955	36.241610738255	12	0.400026336014271	2	9	4	NaN	2	5	0.0224140145070856	1	1	NaN	246	4	57	2	121	221	321	NaN	521	0.838731321506202	2	1	NaN	4567269.7479278	NaN	4567270.7314724	4567271.24801808
73	21	0	0	90	36.1581920903955	36.241610738255	8	0.266684224009514	2	9	5	NaN	2	3	0.0224140145070856	1	1	NaN	247	4	58	2	121	221	321	NaN	521	1.44040846824646	2	1	NaN	4567272.8983795	NaN	4567273.8817858	4567274.39831833
73	21	0	0	90	36.1581920903955	36.241610738255	11	0.366690808013082	2	4	2	NaN	1	4	0.0224140145070856	1	1	NaN	248	4	59	2	121	221	321	NaN	521	0.737438468262553	1	1	NaN	4567276.6654188	NaN	4567277.6488523	4567278.16534863
73	21	0	0	90	36.1581920903955	36.241610738255	24	0.800052672028542	2	8	4	NaN	2	5	0.0224140145070856	1	1	NaN	249	4	60	2	121	221	321	NaN	521	0.286785773932934	1	0	NaN	4567279.7324133	NaN	4567280.7157859	4567281.23232573
73	21	0	0	90	36.1581920903955	36.241610738255	22	0.733381616026163	2	9	2	NaN	2	5	0.0224140145070856	1	1	NaN	250	4	61	2	121	221	321	NaN	521	1.08567266445607	2	1	NaN	4567282.3493293	NaN	4567283.3327146	4567283.84926044
73	21	0	0	90	36.1581920903955	36.241610738255	9	0.300019752010703	2	1	5	NaN	1	4	0.0224140145070856	1	1	NaN	251	4	62	2	121	221	321	NaN	521	0.396294468082488	2	0	NaN	4567285.7663153	NaN	4567286.7497018	4567287.26624343
73	21	0	0	90	36.1581920903955	36.241610738255	8	0.266684224009514	2	8	1	NaN	2	3	0.0224140145070856	1	1	NaN	252	4	63	2	121	221	321	NaN	521	2.0476319687441	1	0	NaN	4567288.4832517	NaN	4567289.4666323	4567289.98318543
73	21	0	0	90	36.1581920903955	36.241610738255	25	0.833388200029731	2	9	6	NaN	2	4	0.0224140145070856	1	1	NaN	253	5	1	2	121	221	321	NaN	521	3.60985182132572	2	1	NaN	4567311.7854776	NaN	4567312.7689164	4567313.28548318
73	21	0	0	90	36.1581920903955	36.241610738255	22	0.733381616026163	2	1	2	NaN	1	5	0.0224140145070856	1	1	NaN	254	5	2	2	121	221	321	NaN	521	1.24345596786588	1	1	NaN	4567317.7194537	NaN	4567318.7028401	4567319.21938443
73	21	0	0	90	36.1581920903955	36.241610738255	9	0.300019752010703	2	6	4	NaN	1	3	0.0224140145070856	1	1	NaN	255	5	3	2	121	221	321	NaN	521	1.2206859216094	1	1	NaN	4567321.2864967	NaN	4567322.2698568	4567322.78639358
73	21	0	0	90	36.1581920903955	36.241610738255	15	0.500032920017839	2	5	4	NaN	1	3	0.0224140145070856	1	1	NaN	256	5	4	2	121	221	321	NaN	521	2.03005022741854	1	1	NaN	4567324.8367935	NaN	4567325.8202108	4567326.33674787
73	21	0	0	90	36.1581920903955	36.241610738255	19	0.633375032022595	2	6	1	NaN	1	5	0.0224140145070856	1	1	NaN	257	5	5	2	121	221	321	NaN	521	0.319529121741652	2	0	NaN	4567329.1872189	NaN	4567330.1706541	4567330.68717768
73	21	0	0	90	36.1581920903955	36.241610738255	20	0.666710560023785	2	6	5	NaN	1	4	0.0224140145070856	1	1	NaN	258	5	6	2	121	221	321	NaN	521	2.81407767347991	2	0	NaN	4567331.8209359	NaN	4567332.8042903	4567333.32077163
73	21	0	0	90	36.1581920903955	36.241610738255	8	0.266684224009514	2	3	1	NaN	1	4	0.0224140145070856	1	1	NaN	259	5	7	2	121	221	321	NaN	521	1.09630326926708	2	0	NaN	4567336.9546551	NaN	4567337.9380588	4567338.45459183
73	21	0	0	90	36.1581920903955	36.241610738255	17	0.566703976020217	2	2	1	NaN	1	4	0.0224140145070856	1	1	NaN	260	5	8	2	121	221	321	NaN	521	0.479346816428006	2	0	NaN	4567340.371507	NaN	4567341.3550847	4567341.87160308
73	21	0	0	90	36.1581920903955	36.241610738255	10	0.333355280011892	2	12	3	NaN	2	5	0.0224140145070856	1	1	NaN	261	5	9	2	121	221	321	NaN	521	0.694731721654534	1	0	NaN	4567343.1719581	NaN	4567344.1553274	4567344.67188048
73	21	0	0	90	36.1581920903955	36.241610738255	20	0.666710560023785	2	5	3	NaN	1	5	0.0224140145070856	1	1	NaN	262	5	10	2	121	221	321	NaN	521	1.31806766800582	2	0	NaN	4567346.1887915	NaN	4567347.1723445	4567347.68883523
73	21	0	0	90	36.1581920903955	36.241610738255	16	0.533368448019028	2	12	5	NaN	2	4	0.0224140145070856	1	1	NaN	263	5	11	2	121	221	321	NaN	521	1.97271276917309	1	0	NaN	4567349.8226051	NaN	4567350.8060103	4567351.32253273
73	21	0	0	90	36.1581920903955	36.241610738255	12	0.400026336014271	2	7	2	NaN	2	5	0.0224140145070856	1	1	NaN	264	5	12	2	121	221	321	NaN	521	0.0505716474726796	2	1	NaN	4567355.6564882	NaN	4567356.6399039	4567357.15646725
73	21	0	0	90	36.1581920903955	36.241610738255	10	0.333355280011892	2	12	6	NaN	2	3	0.0224140145070856	1	1	NaN	265	5	13	2	121	221	321	NaN	521	0.475487389601767	2	1	NaN	4567358.0234315	NaN	4567359.0067905	4567359.52335161
73	21	0	0	90	36.1581920903955	36.241610738255	9	0.300019752010703	2	3	5	NaN	1	3	0.0224140145070856	1	1	NaN	266	5	14	2	121	221	321	NaN	521	0.091352416202426	2	0	NaN	4567360.8236808	NaN	4567361.8070904	4567362.32360158
73	21	0	0	90	36.1581920903955	36.241610738255	17	0.566703976020217	2	4	5	NaN	1	3	0.0224140145070856	1	1	NaN	267	5	15	2	121	221	321	NaN	521	0.570319222286344	1	1	NaN	4567363.2406561	NaN	4567364.2239921	4567364.74051118
73	21	0	0	90	36.1581920903955	36.241610738255	7	0.233348696008325	2	8	4	NaN	2	5	0.0224140145070856	1	1	NaN	268	5	16	2	121	221	321	NaN	521	0.559210921637714	2	1	NaN	4567366.124189	NaN	4567367.107592	4567367.62413328
73	21	0	0	90	36.1581920903955	36.241610738255	18	0.600039504021406	2	7	4	NaN	2	4	0.0224140145070856	1	1	NaN	269	5	17	2	121	221	321	NaN	521	1.21915930043906	2	1	NaN	4567369.00765	NaN	4567369.991228	4567370.5077586
73	21	0	0	90	36.1581920903955	36.241610738255	20	0.666710560023785	2	8	2	NaN	2	5	0.0224140145070856	1	1	NaN	270	5	18	2	121	221	321	NaN	521	2.68590562231839	1	0	NaN	4567372.5414668	NaN	4567373.5249087	4567374.04141928
73	21	0	0	90	36.1581920903955	36.241610738255	25	0.833388200029731	2	2	3	NaN	1	3	0.0224140145070856	1	1	NaN	271	5	19	2	121	221	321	NaN	521	0.348408021964133	1	1	NaN	4567377.5586576	NaN	4567378.5420331	4567379.05858108
73	21	0	0	90	36.1581920903955	36.241610738255	9	0.300019752010703	2	4	2	NaN	1	4	0.0224140145070856	1	1	NaN	272	5	20	2	121	221	321	NaN	521	1.46591782197356	1	1	NaN	4567380.2255957	NaN	4567381.2089771	4567381.72551528
73	21	0	0	90	36.1581920903955	36.241610738255	19	0.633375032022595	2	1	2	NaN	1	5	0.0224140145070856	1	1	NaN	273	5	21	2	121	221	321	NaN	521	2.45783062186092	2	0	NaN	4567384.0092778	NaN	4567384.9926848	4567385.50921348
73	21	0	0	90	36.1581920903955	36.241610738255	0	0	1	11	6	NaN	2	5	0.0224140145070856	1	1	NaN	274	5	22	2	111	211	311	NaN	511	1.41838182136416	2	1	NaN	4567388.7931126	NaN	4567389.7764961	4567390.29302948
73	21	0	0	90	36.1581920903955	36.241610738255	20	0.666710560023785	2	4	5	NaN	1	3	0.0224140145070856	1	1	NaN	275	5	23	2	121	221	321	NaN	521	1.1640750374645	1	1	NaN	4567392.5266077	NaN	4567393.510241	4567394.02671746
73	21	0	0	90	36.1581920903955	36.241610738255	16	0.533368448019028	2	4	4	NaN	1	3	0.0224140145070856	1	1	NaN	276	5	24	2	121	221	321	NaN	521	0.728628021664917	1	1	NaN	4567396.0104846	NaN	4567396.9938488	4567397.51041178
73	21	0	0	90	36.1581920903955	36.241610738255	23	0.766717144027352	2	5	5	NaN	1	4	0.0224140145070856	1	1	NaN	277	5	25	2	121	221	321	NaN	521	0.694285715930164	1	1	NaN	4567399.0607524	NaN	4567400.0441515	4567400.56068568
73	21	0	0	90	36.1581920903955	36.241610738255	15	0.500032920017839	2	7	5	NaN	2	5	0.0224140145070856	1	1	NaN	278	5	26	2	121	221	321	NaN	521	0.917576269246638	2	1	NaN	4567402.077706	NaN	4567403.0611324	4567403.57765913
73	21	0	0	90	36.1581920903955	36.241610738255	14	0.466697392016649	2	1	1	NaN	1	5	0.0224140145070856	1	1	NaN	279	5	27	2	121	221	321	NaN	521	1.8194241002202	2	0	NaN	4567405.3280458	NaN	4567406.3114703	4567406.8279792
73	21	0	0	90	36.1581920903955	36.241610738255	8	0.266684224009514	2	2	5	NaN	1	3	0.0224140145070856	1	1	NaN	280	5	28	2	121	221	321	NaN	521	1.88451092131436	2	0	NaN	4567409.4785328	NaN	4567410.4617349	4567410.97839108
73	21	0	0	90	36.1581920903955	36.241610738255	9	0.300019752010703	2	4	4	NaN	1	5	0.0224140145070856	1	1	NaN	281	5	29	2	121	221	321	NaN	521	1.08456592168659	2	0	NaN	4567413.6787373	NaN	4567414.6622625	4567415.17879818
73	21	0	0	90	36.1581920903955	36.241610738255	21	0.700046088024974	2	9	1	NaN	2	3	0.0224140145070856	1	1	NaN	282	5	30	2	121	221	321	NaN	521	0.70728746894747	1	0	NaN	4567417.095891	NaN	4567418.0793006	4567418.59579543
73	21	0	0	90	36.1581920903955	36.241610738255	8	0.266684224009514	2	11	5	NaN	2	3	0.0224140145070856	1	1	NaN	283	5	31	2	121	221	321	NaN	521	0.122263021767139	2	1	NaN	4567420.1128283	NaN	4567421.096219	4567421.61278118
73	21	0	0	90	36.1581920903955	36.241610738255	9	0.300019752010703	2	7	1	NaN	2	3	0.0224140145070856	1	1	NaN	284	5	32	2	121	221	321	NaN	521	0.75271762162447	2	1	NaN	4567422.546274	NaN	4567423.5298082	4567424.04633858
73	21	0	0	90	36.1581920903955	36.241610738255	21	0.700046088024974	2	3	1	NaN	1	4	0.0224140145070856	1	1	NaN	285	5	33	2	121	221	321	NaN	521	3.24509238917381	1	1	NaN	4567425.6300662	NaN	4567426.6134639	4567427.12997241
73	21	0	0	90	36.1581920903955	36.241610738255	7	0.233348696008325	2	9	2	NaN	2	3	0.0224140145070856	1	1	NaN	286	5	34	2	121	221	321	NaN	521	1.76610002201051	2	1	NaN	4567431.1972755	NaN	4567432.1806801	4567432.69717588
73	21	0	0	90	36.1581920903955	36.241610738255	7	0.233348696008325	2	1	4	NaN	1	3	0.0224140145070856	1	1	NaN	287	5	35	2	121	221	321	NaN	521	0.553948468528688	1	1	NaN	4567435.2976336	NaN	4567436.2810447	4567436.79759103
73	21	0	0	90	36.1581920903955	36.241610738255	0	0	1	6	6	NaN	1	3	0.0224140145070856	1	1	NaN	288	5	36	2	111	211	311	NaN	511	0.0945325419306755	2	0	NaN	4567438.1646209	NaN	4567439.1480045	4567439.66453376
73	21	0	0	90	36.1581920903955	36.241610738255	17	0.566703976020217	2	11	2	NaN	2	4	0.0224140145070856	1	1	NaN	289	5	37	2	121	221	321	NaN	521	1.97360506933182	2	1	NaN	4567440.5815084	NaN	4567441.564892	4567442.08143373
73	21	0	0	90	36.1581920903955	36.241610738255	7	0.233348696008325	2	11	2	NaN	2	5	0.0224140145070856	1	1	NaN	290	5	38	2	121	221	321	NaN	521	1.03323857393116	2	1	NaN	4567444.8817848	NaN	4567445.8653134	4567446.38186483
73	21	0	0	90	36.1581920903955	36.241610738255	7	0.233348696008325	2	8	1	NaN	2	3	0.0224140145070856	1	1	NaN	291	5	39	2	121	221	321	NaN	521	0.594860568642616	2	1	NaN	4567448.232258	NaN	4567449.2156575	4567449.73218893
73	21	0	0	90	36.1581920903955	36.241610738255	0	0	1	3	5	NaN	1	3	0.0224140145070856	1	1	NaN	292	5	40	2	111	211	311	NaN	511	1.26190904248506	2	0	NaN	4567451.1490711	NaN	4567452.1326068	4567452.64914176
73	21	0	0	90	36.1581920903955	36.241610738255	6	0.200013168007135	2	5	5	NaN	1	3	0.0224140145070856	1	1	NaN	293	5	41	2	121	221	321	NaN	521	1.11025916878134	1	1	NaN	4567454.7328896	NaN	4567455.7162893	4567456.23281633
73	21	0	0	90	36.1581920903955	36.241610738255	22	0.733381616026163	2	1	3	NaN	1	3	0.0224140145070856	1	1	NaN	294	5	42	2	121	221	321	NaN	521	0.316581042483449	2	0	NaN	4567458.1666077	NaN	4567459.1499723	4567459.66649916
73	21	0	0	90	36.1581920903955	36.241610738255	25	0.833388200029731	2	4	6	NaN	1	5	0.0224140145070856	1	1	NaN	295	5	43	2	121	221	321	NaN	521	1.52256888896227	1	1	NaN	4567460.8168443	NaN	4567461.8002214	4567462.31676091
73	21	0	0	90	36.1581920903955	36.241610738255	8	0.266684224009514	2	4	2	NaN	1	4	0.0224140145070856	1	1	NaN	296	5	44	2	121	221	321	NaN	521	0.0104270158335567	2	0	NaN	4567464.6505231	NaN	4567465.6339641	4567466.15046438
73	21	0	0	90	36.1581920903955	36.241610738255	21	0.700046088024974	2	4	4	NaN	1	5	0.0224140145070856	1	1	NaN	297	5	45	2	121	221	321	NaN	521	0.227667227387428	1	1	NaN	4567466.9672874	NaN	4567467.9508599	4567468.46736997
73	21	0	0	90	36.1581920903955	36.241610738255	9	0.300019752010703	2	8	3	NaN	2	5	0.0224140145070856	1	1	NaN	298	5	46	2	121	221	321	NaN	521	0.0103748375549912	2	1	NaN	4567469.5177083	NaN	4567470.5010594	4567471.01761126
73	21	0	0	90	36.1581920903955	36.241610738255	0	0	1	1	5	NaN	1	3	0.0224140145070856	1	1	NaN	299	5	47	2	111	211	311	NaN	511	1.05631357897073	2	0	NaN	4567471.8512335	NaN	4567472.8346345	4567473.35118252
73	21	0	0	90	36.1581920903955	36.241610738255	15	0.500032920017839	2	11	4	NaN	2	3	0.0224140145070856	1	1	NaN	300	5	48	2	121	221	321	NaN	521	0.0104109682142735	1	0	NaN	4567475.2348968	NaN	4567476.2183108	4567476.73483473
73	21	0	0	90	36.1581920903955	36.241610738255	23	0.766717144027352	2	12	1	NaN	2	4	0.0224140145070856	1	1	NaN	301	5	49	2	121	221	321	NaN	521	0.451228922232985	2	1	NaN	4567477.5517833	NaN	4567478.5351989	4567479.05172918
73	21	0	0	90	36.1581920903955	36.241610738255	17	0.566703976020217	2	3	2	NaN	1	4	0.0224140145070856	1	1	NaN	302	5	50	2	121	221	321	NaN	521	0.596497458405793	1	1	NaN	4567480.3186158	NaN	4567481.3021138	4567481.81866944
73	21	0	0	90	36.1581920903955	36.241610738255	10	0.333355280011892	2	8	3	NaN	2	4	0.0224140145070856	1	1	NaN	303	5	51	2	121	221	321	NaN	521	0.791507674381137	2	1	NaN	4567483.2357081	NaN	4567484.2190821	4567484.73562743
73	21	0	0	90	36.1581920903955	36.241610738255	14	0.466697392016649	2	5	1	NaN	1	4	0.0224140145070856	1	1	NaN	304	5	52	2	121	221	321	NaN	521	0.538697868585587	1	1	NaN	4567486.352636	NaN	4567487.3360942	4567487.85259713
73	21	0	0	90	36.1581920903955	36.241610738255	20	0.666710560023785	2	2	6	NaN	1	4	0.0224140145070856	1	1	NaN	305	5	53	2	121	221	321	NaN	521	0.735400773584843	1	1	NaN	4567489.2196336	NaN	4567490.202992	4567490.71954603
73	21	0	0	90	36.1581920903955	36.241610738255	20	0.666710560023785	2	5	3	NaN	1	3	0.0224140145070856	1	1	NaN	306	5	54	2	121	221	321	NaN	521	0.212863426655531	1	1	NaN	4567492.2865586	NaN	4567493.2699807	4567493.78651177
73	21	0	0	90	36.1581920903955	36.241610738255	22	0.733381616026163	2	3	4	NaN	1	3	0.0224140145070856	1	1	NaN	307	5	55	2	121	221	321	NaN	521	0.607145321555436	1	1	NaN	4567494.8201676	NaN	4567495.8035859	4567496.32009208
73	21	0	0	90	36.1581920903955	36.241610738255	14	0.466697392016649	2	7	6	NaN	2	3	0.0224140145070856	1	1	NaN	308	5	56	2	121	221	321	NaN	521	0.52939036861062	2	1	NaN	4567497.7537722	NaN	4567498.7371917	4567499.25371373
73	21	0	0	90	36.1581920903955	36.241610738255	13	0.43336186401546	2	11	5	NaN	2	3	0.0224140145070856	1	1	NaN	309	5	57	2	121	221	321	NaN	521	0.430900800041854	1	0	NaN	4567500.6040628	NaN	4567501.587464	4567502.1040111
73	21	0	0	90	36.1581920903955	36.241610738255	12	0.400026336014271	2	11	2	NaN	2	3	0.0224140145070856	1	1	NaN	310	5	58	2	121	221	321	NaN	521	0.936881668865681	2	1	NaN	4567503.3543182	NaN	4567504.3377338	4567504.85427793
73	21	0	0	90	36.1581920903955	36.241610738255	14	0.466697392016649	2	4	3	NaN	1	5	0.0224140145070856	1	1	NaN	311	5	59	2	121	221	321	NaN	521	3.13375812210143	2	0	NaN	4567506.6214357	NaN	4567507.6047376	4567508.12126668
73	21	0	0	90	36.1581920903955	36.241610738255	7	0.233348696008325	2	4	6	NaN	1	4	0.0224140145070856	1	1	NaN	312	5	60	2	121	221	321	NaN	521	1.54660936817527	2	0	NaN	4567512.0884946	NaN	4567513.0719316	4567513.58844593
73	21	0	0	90	36.1581920903955	36.241610738255	8	0.266684224009514	2	4	6	NaN	1	3	0.0224140145070856	1	1	NaN	313	5	61	2	121	221	321	NaN	521	0.263624968007207	1	1	NaN	4567515.9556456	NaN	4567516.9389645	4567517.45550943
73	21	0	0	90	36.1581920903955	36.241610738255	25	0.833388200029731	2	10	1	NaN	2	3	0.0224140145070856	1	1	NaN	314	5	62	2	121	221	321	NaN	521	0.600349368527532	1	0	NaN	4567518.5390503	NaN	4567519.5225655	4567520.03910733
73	21	0	0	90	36.1581920903955	36.241610738255	9	0.300019752010703	2	12	3	NaN	2	3	0.0224140145070856	1	1	NaN	315	5	63	2	121	221	321	NaN	521	0.899078068323433	1	0	NaN	4567521.4561479	NaN	4567522.43956	4567522.95604963
73	21	0	0	90	36.1581920903955	36.241610738255	16	0.533368448019028	2	12	5	NaN	2	3	0.0224140145070856	1	1	NaN	316	6	1	2	121	221	321	NaN	521	2.18155931588262	2	1	NaN	4567551.5256923	NaN	4567552.509134	4567553.02565498
73	21	0	0	90	36.1581920903955	36.241610738255	14	0.466697392016649	2	10	1	NaN	2	4	0.0224140145070856	1	1	NaN	317	6	2	2	121	221	321	NaN	521	2.5972607685253	1	0	NaN	4567558.1259423	NaN	4567559.109791	4567559.62630293
73	21	0	0	90	36.1581920903955	36.241610738255	6	0.200013168007135	2	3	4	NaN	1	5	0.0224140145070856	1	1	NaN	318	6	3	2	121	221	321	NaN	521	0.383849267847836	1	1	NaN	4567563.0435468	NaN	4567564.0269043	4567564.54347183
73	21	0	0	90	36.1581920903955	36.241610738255	8	0.266684224009514	2	7	1	NaN	2	4	0.0224140145070856	1	1	NaN	319	6	4	2	121	221	321	NaN	521	0.0104159684851766	2	1	NaN	4567565.7437806	NaN	4567566.7271941	4567567.24372823
73	21	0	0	90	36.1581920903955	36.241610738255	22	0.733381616026163	2	5	2	NaN	1	4	0.0224140145070856	1	1	NaN	320	6	5	2	121	221	321	NaN	521	0.358182288706303	2	0	NaN	4567568.0772231	NaN	4567569.0607604	4567569.57729101
73	21	0	0	90	36.1581920903955	36.241610738255	0	0	1	9	2	NaN	2	4	0.0224140145070856	1	1	NaN	321	6	6	2	111	211	311	NaN	511	0.626310268417001	2	1	NaN	4567570.7609422	NaN	4567571.7443358	4567572.26088723
73	21	0	0	90	36.1581920903955	36.241610738255	6	0.200013168007135	2	4	6	NaN	1	5	0.0224140145070856	1	1	NaN	322	6	7	2	121	221	321	NaN	521	0.0282702213153243	1	1	NaN	4567573.7112806	NaN	4567574.6946536	4567575.21116248
73	21	0	0	90	36.1581920903955	36.241610738255	7	0.233348696008325	2	9	6	NaN	2	4	0.0224140145070856	1	1	NaN	323	6	8	2	121	221	321	NaN	521	2.03780836798251	2	1	NaN	4567576.0614691	NaN	4567577.0448542	4567577.56139523
73	21	0	0	90	36.1581920903955	36.241610738255	11	0.366690808013082	2	11	3	NaN	2	3	0.0224140145070856	1	1	NaN	324	6	9	2	121	221	321	NaN	521	1.37493782117963	1	0	NaN	4567580.4285799	NaN	4567581.4119648	4567581.92851108
73	21	0	0	90	36.1581920903955	36.241610738255	17	0.566703976020217	2	1	4	NaN	1	5	0.0224140145070856	1	1	NaN	325	6	10	2	121	221	321	NaN	521	0.154327678494155	1	1	NaN	4567584.1289149	NaN	4567585.112315	4567585.62886632
73	21	0	0	90	36.1581920903955	36.241610738255	19	0.633375032022595	2	7	2	NaN	2	3	0.0224140145070856	1	1	NaN	326	6	11	2	121	221	321	NaN	521	0.0104076685383916	2	1	NaN	4567586.5957382	NaN	4567587.5792408	4567588.09576093
73	21	0	0	90	36.1581920903955	36.241610738255	13	0.43336186401546	2	3	3	NaN	1	3	0.0224140145070856	1	1	NaN	327	6	12	2	121	221	321	NaN	521	0.322321437299252	2	0	NaN	4567588.9127061	NaN	4567589.8961367	4567590.41266426
73	21	0	0	90	36.1581920903955	36.241610738255	7	0.233348696008325	2	6	4	NaN	1	4	0.0224140145070856	1	1	NaN	328	6	13	2	121	221	321	NaN	521	1.02433461137116	1	1	NaN	4567591.5629412	NaN	4567592.5463728	4567593.06291749
73	21	0	0	90	36.1581920903955	36.241610738255	18	0.600039504021406	2	6	1	NaN	1	4	0.0224140145070856	1	1	NaN	329	6	14	2	121	221	321	NaN	521	1.88995446823537	2	0	NaN	4567594.9133202	NaN	4567595.8967208	4567596.41325093
73	21	0	0	90	36.1581920903955	36.241610738255	12	0.400026336014271	2	10	4	NaN	2	5	0.0224140145070856	1	1	NaN	330	6	15	2	121	221	321	NaN	521	0.440892868675292	2	1	NaN	4567599.1303359	NaN	4567600.1138123	4567600.63033023
73	21	0	0	90	36.1581920903955	36.241610738255	10	0.333355280011892	2	2	4	NaN	1	4	0.0224140145070856	1	1	NaN	331	6	16	2	121	221	321	NaN	521	1.37025676853955	2	0	NaN	4567601.897331	NaN	4567602.8806927	4567603.39726373
73	21	0	0	90	36.1581920903955	36.241610738255	18	0.600039504021406	2	11	4	NaN	2	4	0.0224140145070856	1	1	NaN	332	6	17	2	121	221	321	NaN	521	1.91041682194918	2	1	NaN	4567605.5809166	NaN	4567606.5644978	4567607.08097108
73	21	0	0	90	36.1581920903955	36.241610738255	9	0.300019752010703	2	2	5	NaN	1	4	0.0224140145070856	1	1	NaN	333	6	18	2	121	221	321	NaN	521	0.796473868191242	1	1	NaN	4567609.8146834	NaN	4567610.7981828	4567611.31471073
73	21	0	0	90	36.1581920903955	36.241610738255	23	0.766717144027352	2	3	5	NaN	1	3	0.0224140145070856	1	1	NaN	334	6	19	2	121	221	321	NaN	521	1.00736376829445	1	1	NaN	4567612.9317586	NaN	4567613.9151401	4567614.43167943
73	21	0	0	90	36.1581920903955	36.241610738255	23	0.766717144027352	2	1	4	NaN	1	5	0.0224140145070856	1	1	NaN	335	6	20	2	121	221	321	NaN	521	0.609939568676054	1	1	NaN	4567616.2654048	NaN	4567617.2488018	4567617.76534183
73	21	0	0	90	36.1581920903955	36.241610738255	24	0.800052672028542	2	12	1	NaN	2	5	0.0224140145070856	1	1	NaN	336	6	21	2	121	221	321	NaN	521	0.692202121950686	2	1	NaN	4567619.199036	NaN	4567620.1824348	4567620.69896568
73	21	0	0	90	36.1581920903955	36.241610738255	7	0.233348696008325	2	10	6	NaN	2	3	0.0224140145070856	1	1	NaN	337	6	22	2	121	221	321	NaN	521	1.37937702145427	2	1	NaN	4567622.2159791	NaN	4567623.1994211	4567623.71593718
73	21	0	0	90	36.1581920903955	36.241610738255	6	0.200013168007135	2	2	1	NaN	1	4	0.0224140145070856	1	1	NaN	338	6	23	2	121	221	321	NaN	521	1.33497156947851	1	1	NaN	4567625.9162564	NaN	4567626.8997246	4567627.41629373
73	21	0	0	90	36.1581920903955	36.241610738255	21	0.700046088024974	2	5	3	NaN	1	5	0.0224140145070856	1	1	NaN	339	6	24	2	121	221	321	NaN	521	0.0607092687860131	2	0	NaN	4567629.5665775	NaN	4567630.5500071	4567631.06666073
73	21	0	0	90	36.1581920903955	36.241610738255	9	0.300019752010703	2	12	4	NaN	2	4	0.0224140145070856	1	1	NaN	340	6	25	2	121	221	321	NaN	521	1.18914292193949	2	1	NaN	4567631.9502793	NaN	4567632.9336813	4567633.45022068
73	21	0	0	90	36.1581920903955	36.241610738255	22	0.733381616026163	2	5	5	NaN	1	4	0.0224140145070856	1	1	NaN	341	6	26	2	121	221	321	NaN	521	0.512307916767895	1	1	NaN	4567635.4672877	NaN	4567636.4507092	4567636.96724528
73	21	0	0	90	36.1581920903955	36.241610738255	24	0.800052672028542	2	11	3	NaN	2	4	0.0224140145070856	1	1	NaN	342	6	27	2	121	221	321	NaN	521	2.18248501606286	1	0	NaN	4567638.300921	NaN	4567639.2842926	4567639.80083738
73	21	0	0	90	36.1581920903955	36.241610738255	17	0.566703976020217	2	9	3	NaN	2	4	0.0224140145070856	1	1	NaN	343	6	28	2	121	221	321	NaN	521	1.0093624163419	2	1	NaN	4567642.8181007	NaN	4567643.8014022	4567644.31795338
73	21	0	0	90	36.1581920903955	36.241610738255	19	0.633375032022595	2	4	1	NaN	1	5	0.0224140145070856	1	1	NaN	344	6	29	2	121	221	321	NaN	521	1.50769421644509	2	0	NaN	4567646.1517002	NaN	4567647.1351126	4567647.65161178
73	21	0	0	90	36.1581920903955	36.241610738255	17	0.566703976020217	2	6	5	NaN	1	3	0.0224140145070856	1	1	NaN	345	6	30	2	121	221	321	NaN	521	0.202230716124177	1	1	NaN	4567649.9852753	NaN	4567650.968785	4567651.48531068
73	21	0	0	90	36.1581920903955	36.241610738255	24	0.800052672028542	2	3	4	NaN	1	5	0.0224140145070856	1	1	NaN	346	6	31	2	121	221	321	NaN	521	0.37350563146174	2	0	NaN	4567652.5023033	NaN	4567653.4857171	4567654.00223317
73	21	0	0	90	36.1581920903955	36.241610738255	0	0	1	12	4	NaN	2	4	0.0224140145070856	1	1	NaN	347	6	32	2	111	211	311	NaN	511	0.465175168588758	2	1	NaN	4567655.2026139	NaN	4567656.1859636	4567656.70249663
73	21	0	0	90	36.1581920903955	36.241610738255	15	0.500032920017839	2	2	3	NaN	1	3	0.0224140145070856	1	1	NaN	348	6	33	2	121	221	321	NaN	521	0.297170321457088	1	1	NaN	4567657.9861688	NaN	4567658.9695871	4567659.48610298
73	21	0	0	90	36.1581920903955	36.241610738255	25	0.833388200029731	2	11	6	NaN	2	4	0.0224140145070856	1	1	NaN	349	6	34	2	121	221	321	NaN	521	1.55214935913682	2	1	NaN	4567660.6031545	NaN	4567661.5865326	4567662.10302634
73	21	0	0	90	36.1581920903955	36.241610738255	23	0.766717144027352	2	10	2	NaN	2	5	0.0224140145070856	1	1	NaN	350	6	35	2	121	221	321	NaN	521	1.04460616502911	1	0	NaN	4567664.4869037	NaN	4567665.4701992	4567665.98674394
73	21	0	0	90	36.1581920903955	36.241610738255	15	0.500032920017839	2	9	6	NaN	2	5	0.0224140145070856	1	1	NaN	351	6	36	2	121	221	321	NaN	521	1.13358933199197	2	1	NaN	4567667.8538181	NaN	4567668.8372133	4567669.35374787
73	21	0	0	90	36.1581920903955	36.241610738255	16	0.533368448019028	2	8	6	NaN	2	5	0.0224140145070856	1	1	NaN	352	6	37	2	121	221	321	NaN	521	0.491319064050913	2	1	NaN	4567671.3041866	NaN	4567672.2875517	4567672.80408004
73	21	0	0	90	36.1581920903955	36.241610738255	17	0.566703976020217	2	10	4	NaN	2	3	0.0224140145070856	1	1	NaN	353	6	38	2	121	221	321	NaN	521	0.386667342856526	2	1	NaN	4567674.1210905	NaN	4567675.1044946	4567675.62103316
73	21	0	0	90	36.1581920903955	36.241610738255	18	0.600039504021406	2	4	2	NaN	1	4	0.0224140145070856	1	1	NaN	354	6	39	2	121	221	321	NaN	521	0.0103927217423916	1	1	NaN	4567676.8212278	NaN	4567677.8047713	4567678.32127878
73	21	0	0	90	36.1581920903955	36.241610738255	9	0.300019752010703	2	11	1	NaN	2	5	0.0224140145070856	1	1	NaN	355	6	40	2	121	221	321	NaN	521	2.40512476861477	2	1	NaN	4567679.2381304	NaN	4567680.2216741	4567680.73818533
73	21	0	0	90	36.1581920903955	36.241610738255	16	0.533368448019028	2	10	3	NaN	2	3	0.0224140145070856	1	1	NaN	356	6	41	2	121	221	321	NaN	521	0.21514942124486	2	1	NaN	4567685.972123	NaN	4567686.9556401	4567687.47219008
73	21	0	0	90	36.1581920903955	36.241610738255	16	0.533368448019028	2	5	2	NaN	1	4	0.0224140145070856	1	1	NaN	357	6	42	2	121	221	321	NaN	521	0.0336096314713359	1	1	NaN	4567688.5057947	NaN	4567689.4892259	4567690.00577017
73	21	0	0	90	36.1581920903955	36.241610738255	18	0.600039504021406	2	1	3	NaN	1	5	0.0224140145070856	1	1	NaN	358	6	43	2	121	221	321	NaN	521	0.0904286224395037	1	1	NaN	4567690.8727469	NaN	4567691.8561231	4567692.37268258
73	21	0	0	90	36.1581920903955	36.241610738255	22	0.733381616026163	2	10	3	NaN	2	3	0.0224140145070856	1	1	NaN	359	6	44	2	121	221	321	NaN	521	0.490496759302914	2	1	NaN	4567693.2729581	NaN	4567694.2563293	4567694.77289964
73	21	0	0	90	36.1581920903955	36.241610738255	25	0.833388200029731	2	3	1	NaN	1	4	0.0224140145070856	1	1	NaN	360	6	45	2	121	221	321	NaN	521	1.42561312112957	1	1	NaN	4567696.0899022	NaN	4567697.0733319	4567697.58984868
73	21	0	0	90	36.1581920903955	36.241610738255	0	0	1	2	2	NaN	1	3	0.0224140145070856	1	1	NaN	361	6	46	2	111	211	311	NaN	511	2.88426372688264	1	1	NaN	4567699.8236212	NaN	4567700.8069046	4567701.32354047
73	21	0	0	90	36.1581920903955	36.241610738255	16	0.533368448019028	2	11	5	NaN	2	3	0.0224140145070856	1	1	NaN	362	6	47	2	121	221	321	NaN	521	0.851336016319692	2	1	NaN	4567705.0239901	NaN	4567706.0075353	4567706.52405878
73	21	0	0	90	36.1581920903955	36.241610738255	24	0.800052672028542	2	5	6	NaN	1	4	0.0224140145070856	1	1	NaN	363	6	48	2	121	221	321	NaN	521	2.36443522199988	2	0	NaN	4567708.1911183	NaN	4567709.1744984	4567709.69103098
73	21	0	0	90	36.1581920903955	36.241610738255	19	0.633375032022595	2	11	3	NaN	2	3	0.0224140145070856	1	1	NaN	364	6	49	2	121	221	321	NaN	521	3.28848592191935	1	0	NaN	4567712.8748832	NaN	4567713.8582967	4567714.37483088
73	21	0	0	90	36.1581920903955	36.241610738255	7	0.233348696008325	2	2	4	NaN	1	5	0.0224140145070856	1	1	NaN	365	6	50	2	121	221	321	NaN	521	1.80729482136667	2	0	NaN	4567718.4921031	NaN	4567719.47548	4567719.99204718
73	21	0	0	90	36.1581920903955	36.241610738255	21	0.700046088024974	2	8	2	NaN	2	4	0.0224140145070856	1	1	NaN	366	6	51	2	121	221	321	NaN	521	0.26613702159375	2	1	NaN	4567722.625844	NaN	4567723.6092522	4567724.12578678
73	21	0	0	90	36.1581920903955	36.241610738255	9	0.300019752010703	2	6	3	NaN	1	4	0.0224140145070856	1	1	NaN	367	6	52	2	121	221	321	NaN	521	0.490057968534529	1	1	NaN	4567725.2093133	NaN	4567726.1928469	4567726.70942153
73	21	0	0	90	36.1581920903955	36.241610738255	16	0.533368448019028	2	2	5	NaN	1	4	0.0224140145070856	1	1	NaN	368	6	53	2	121	221	321	NaN	521	0.761060921475291	1	1	NaN	4567728.0263905	NaN	4567729.0097739	4567729.52631348
73	21	0	0	90	36.1581920903955	36.241610738255	10	0.333355280011892	2	1	5	NaN	1	5	0.0224140145070856	1	1	NaN	369	6	54	2	121	221	321	NaN	521	0.477574173361063	2	0	NaN	4567731.1100764	NaN	4567732.0934217	4567732.60994903
73	21	0	0	90	36.1581920903955	36.241610738255	17	0.566703976020217	2	3	6	NaN	1	5	0.0224140145070856	1	1	NaN	370	6	55	2	121	221	321	NaN	521	0.0372868217527866	1	1	NaN	4567733.9102805	NaN	4567734.8937014	4567735.41023868
73	21	0	0	90	36.1581920903955	36.241610738255	13	0.43336186401546	2	6	4	NaN	1	3	0.0224140145070856	1	1	NaN	371	6	56	2	121	221	321	NaN	521	2.58273811638355	2	0	NaN	4567736.2772065	NaN	4567737.2605879	4567737.77711868
73	21	0	0	90	36.1581920903955	36.241610738255	14	0.466697392016649	2	8	2	NaN	2	4	0.0224140145070856	1	1	NaN	372	6	57	2	121	221	321	NaN	521	0.298163178376853	2	1	NaN	4567741.177651	NaN	4567742.1610987	4567742.67760732
73	21	0	0	90	36.1581920903955	36.241610738255	25	0.833388200029731	2	8	3	NaN	2	4	0.0224140145070856	1	1	NaN	373	6	58	2	121	221	321	NaN	521	0.432858168147504	1	0	NaN	4567743.7944478	NaN	4567744.778029	4567745.29452933
73	21	0	0	90	36.1581920903955	36.241610738255	21	0.700046088024974	2	4	6	NaN	1	3	0.0224140145070856	1	1	NaN	374	6	59	2	121	221	321	NaN	521	0.818684221245348	2	0	NaN	4567746.5447622	NaN	4567747.5282822	4567748.04479868
73	21	0	0	90	36.1581920903955	36.241610738255	24	0.800052672028542	2	7	5	NaN	2	3	0.0224140145070856	1	1	NaN	375	6	60	2	121	221	321	NaN	521	0.981404269114137	1	0	NaN	4567749.6785158	NaN	4567750.6619035	4567751.17843243
73	21	0	0	90	36.1581920903955	36.241610738255	17	0.566703976020217	2	5	2	NaN	1	5	0.0224140145070856	1	1	NaN	376	6	61	2	121	221	321	NaN	521	2.19302412122488	1	1	NaN	4567752.9788168	NaN	4567753.962145	4567754.47877828
73	21	0	0	90	36.1581920903955	36.241610738255	10	0.333355280011892	2	2	5	NaN	1	5	0.0224140145070856	1	1	NaN	377	6	62	2	121	221	321	NaN	521	0.123436811380088	1	1	NaN	4567757.4959632	NaN	4567758.4793184	4567758.99586759
73	21	0	0	90	36.1581920903955	36.241610738255	15	0.500032920017839	2	12	6	NaN	2	4	0.0224140145070856	1	1	NaN	378	6	63	2	121	221	321	NaN	521	0.0978819215670228	2	1	NaN	4567759.9294971	NaN	4567760.9129006	4567761.42944658
73	21	0	0	90	36.1581920903955	36.241610738255	7	0.233348696008325	2	5	3	NaN	1	3	0.0224140145070856	1	1	NaN	379	7	1	2	121	221	321	NaN	521	2.18702774774283	1	1	NaN	4567784.4485459	NaN	4567785.4319661	4567785.94853015
73	21	0	0	90	36.1581920903955	36.241610738255	24	0.800052672028542	2	11	6	NaN	2	3	0.0224140145070856	1	1	NaN	380	7	2	2	121	221	321	NaN	521	1.06300032697618	2	1	NaN	4567788.949053	NaN	4567789.9324264	4567790.44897607
73	21	0	0	90	36.1581920903955	36.241610738255	22	0.733381616026163	2	8	1	NaN	2	3	0.0224140145070856	1	1	NaN	381	7	3	2	121	221	321	NaN	521	0.783295474015176	2	1	NaN	4567792.3325841	NaN	4567793.3160951	4567793.83263063
73	21	0	0	90	36.1581920903955	36.241610738255	12	0.400026336014271	2	3	3	NaN	1	3	0.0224140145070856	1	1	NaN	382	7	4	2	121	221	321	NaN	521	3.17065296880901	1	1	NaN	4567795.433002	NaN	4567796.4163839	4567796.93292483
73	21	0	0	90	36.1581920903955	36.241610738255	21	0.700046088024974	2	7	6	NaN	2	4	0.0224140145070856	1	1	NaN	383	7	5	2	121	221	321	NaN	521	1.95072277355939	2	1	NaN	4567800.9167474	NaN	4567801.9002852	4567802.41680123
73	21	0	0	90	36.1581920903955	36.241610738255	14	0.466697392016649	2	12	1	NaN	2	3	0.0224140145070856	1	1	NaN	384	7	6	2	121	221	321	NaN	521	1.60369343776256	1	0	NaN	4567805.1838272	NaN	4567806.1673422	4567806.68388686
73	21	0	0	90	36.1581920903955	36.241610738255	14	0.466697392016649	2	3	6	NaN	1	3	0.0224140145070856	1	1	NaN	385	7	7	2	121	221	321	NaN	521	1.33438861649483	2	0	NaN	4567809.1176485	NaN	4567810.101083	4567810.61760068
73	21	0	0	90	36.1581920903955	36.241610738255	11	0.366690808013082	2	6	6	NaN	1	4	0.0224140145070856	1	1	NaN	386	7	8	2	121	221	321	NaN	521	3.13117941096425	1	1	NaN	4567812.7847749	NaN	4567813.76808	4567814.28462699
73	21	0	0	90	36.1581920903955	36.241610738255	6	0.200013168007135	2	3	1	NaN	1	5	0.0224140145070856	1	1	NaN	387	7	9	2	121	221	321	NaN	521	1.12875277921557	1	1	NaN	4567818.2352467	NaN	4567819.2186533	4567819.73516192
73	21	0	0	90	36.1581920903955	36.241610738255	17	0.566703976020217	2	8	2	NaN	2	3	0.0224140145070856	1	1	NaN	388	7	10	2	121	221	321	NaN	521	3.33396806847304	2	1	NaN	4567821.685654	NaN	4567822.6689563	4567823.18550123
73	21	0	0	90	36.1581920903955	36.241610738255	8	0.266684224009514	2	7	1	NaN	2	3	0.0224140145070856	1	1	NaN	389	7	11	2	121	221	321	NaN	521	2.13161741662771	2	1	NaN	4567827.3361542	NaN	4567828.3195499	4567828.83605988
73	21	0	0	90	36.1581920903955	36.241610738255	17	0.566703976020217	2	8	5	NaN	2	5	0.0224140145070856	1	1	NaN	390	7	12	2	121	221	321	NaN	521	2.09723501559347	1	0	NaN	4567831.786421	NaN	4567832.7699525	4567833.28648998
73	21	0	0	90	36.1581920903955	36.241610738255	14	0.466697392016649	2	3	4	NaN	1	3	0.0224140145070856	1	1	NaN	391	7	13	2	121	221	321	NaN	521	2.16829146444798	1	1	NaN	4567836.2036754	NaN	4567837.1870702	4567837.70359484
73	21	0	0	90	36.1581920903955	36.241610738255	23	0.766717144027352	2	6	2	NaN	1	4	0.0224140145070856	1	1	NaN	392	7	14	2	121	221	321	NaN	521	3.96347461640835	1	1	NaN	4567840.7041044	NaN	4567841.6874908	4567842.20404008
73	21	0	0	90	36.1581920903955	36.241610738255	20	0.666710560023785	2	3	3	NaN	1	3	0.0224140145070856	1	1	NaN	393	7	15	2	121	221	321	NaN	521	0.967714422382414	2	0	NaN	4567846.988046	NaN	4567847.9714639	4567848.48798598
73	21	0	0	90	36.1581920903955	36.241610738255	6	0.200013168007135	2	12	2	NaN	2	5	0.0224140145070856	1	1	NaN	394	7	16	2	121	221	321	NaN	521	1.73129292204976	2	1	NaN	4567850.2883533	NaN	4567851.2717927	4567851.78833118
73	21	0	0	90	36.1581920903955	36.241610738255	0	0	1	8	1	NaN	2	4	0.0224140145070856	1	1	NaN	395	7	17	2	111	211	311	NaN	511	0.665283564478159	2	1	NaN	4567854.3387154	NaN	4567855.3221404	4567855.83870134
73	21	0	0	90	36.1581920903955	36.241610738255	21	0.700046088024974	2	10	2	NaN	2	3	0.0224140145070856	1	1	NaN	396	7	18	2	121	221	321	NaN	521	0.161341268569231	1	0	NaN	4567857.3224084	NaN	4567858.3057951	4567858.82232883
73	21	0	0	90	36.1581920903955	36.241610738255	21	0.700046088024974	2	9	4	NaN	2	5	0.0224140145070856	1	1	NaN	397	7	19	2	121	221	321	NaN	521	0.758759821765125	2	1	NaN	4567859.7892945	NaN	4567860.7726956	4567861.28925608
73	21	0	0	90	36.1581920903955	36.241610738255	21	0.700046088024974	2	1	1	NaN	1	5	0.0224140145070856	1	1	NaN	398	7	20	2	121	221	321	NaN	521	1.26682416908443	1	1	NaN	4567862.8728143	NaN	4567863.8563272	4567864.37289183
73	21	0	0	90	36.1581920903955	36.241610738255	14	0.466697392016649	2	6	5	NaN	1	4	0.0224140145070856	1	1	NaN	399	7	21	2	121	221	321	NaN	521	1.8023815266788	1	1	NaN	4567866.4733478	NaN	4567867.4567014	4567867.97323257
73	21	0	0	90	36.1581920903955	36.241610738255	23	0.766717144027352	2	12	2	NaN	2	5	0.0224140145070856	1	1	NaN	400	7	22	2	121	221	321	NaN	521	0.677374917082489	2	1	NaN	4567870.5903602	NaN	4567871.5738075	4567872.09029578
73	21	0	0	90	36.1581920903955	36.241610738255	11	0.366690808013082	2	4	3	NaN	1	3	0.0224140145070856	1	1	NaN	401	7	23	2	121	221	321	NaN	521	1.53340779989958	2	0	NaN	4567873.5906539	NaN	4567874.5740866	4567875.0906216
73	21	0	0	90	36.1581920903955	36.241610738255	18	0.600039504021406	2	2	4	NaN	1	5	0.0224140145070856	1	1	NaN	402	7	24	2	121	221	321	NaN	521	0.338754268363118	1	1	NaN	4567877.4408893	NaN	4567878.4244492	4567878.94097063
73	21	0	0	90	36.1581920903955	36.241610738255	18	0.600039504021406	2	9	6	NaN	2	5	0.0224140145070856	1	1	NaN	403	7	25	2	121	221	321	NaN	521	0.192598732188344	2	1	NaN	4567880.0911675	NaN	4567881.074782	4567881.59123647
73	21	0	0	90	36.1581920903955	36.241610738255	19	0.633375032022595	2	7	4	NaN	2	4	0.0224140145070856	1	1	NaN	404	7	26	2	121	221	321	NaN	521	0.163467468693852	2	1	NaN	4567882.6082262	NaN	4567883.5916305	4567884.10814283
73	21	0	0	90	36.1581920903955	36.241610738255	19	0.633375032022595	2	9	5	NaN	2	5	0.0224140145070856	1	1	NaN	405	7	27	2	121	221	321	NaN	521	1.72026337403804	1	0	NaN	4567885.0918024	NaN	4567886.0751879	4567886.59172783
73	21	0	0	90	36.1581920903955	36.241610738255	19	0.633375032022595	2	2	6	NaN	1	5	0.0224140145070856	1	1	NaN	406	7	28	2	121	221	321	NaN	521	1.78172362130135	2	0	NaN	4567889.1422116	NaN	4567890.1255537	4567890.64212858
73	21	0	0	90	36.1581920903955	36.241610738255	18	0.600039504021406	2	3	2	NaN	1	4	0.0224140145070856	1	1	NaN	407	7	29	2	121	221	321	NaN	521	1.18527602124959	2	0	NaN	4567896.0261825	NaN	4567897.0095923	4567897.52613348
73	21	0	0	90	36.1581920903955	36.241610738255	16	0.533368448019028	2	3	4	NaN	1	3	0.0224140145070856	1	1	NaN	408	7	30	2	121	221	321	NaN	521	0.245606568641961	2	0	NaN	4567899.5265698	NaN	4567900.5099597	4567901.02649033
73	21	0	0	90	36.1581920903955	36.241610738255	24	0.800052672028542	2	9	3	NaN	2	3	0.0224140145070856	1	1	NaN	409	7	31	2	121	221	321	NaN	521	0.126508364453912	2	1	NaN	4567902.0933114	NaN	4567903.0768724	4567903.59339044
73	21	0	0	90	36.1581920903955	36.241610738255	17	0.566703976020217	2	7	5	NaN	2	5	0.0224140145070856	1	1	NaN	410	7	32	2	121	221	321	NaN	521	1.18808491621166	2	1	NaN	4567904.5437141	NaN	4567905.5271072	4567906.04363148
73	21	0	0	90	36.1581920903955	36.241610738255	10	0.333355280011892	2	10	1	NaN	2	5	0.0224140145070856	1	1	NaN	411	7	33	2	121	221	321	NaN	521	0.207060037180781	2	1	NaN	4567908.0607058	NaN	4567909.0441048	4567909.56065416
73	21	0	0	90	36.1581920903955	36.241610738255	0	0	1	6	4	NaN	1	5	0.0224140145070856	1	1	NaN	412	7	34	2	111	211	311	NaN	511	0.024889568798244	1	1	NaN	4567910.8109498	NaN	4567911.794398	4567912.31091483
73	21	0	0	90	36.1581920903955	36.241610738255	19	0.633375032022595	2	5	1	NaN	1	5	0.0224140145070856	1	1	NaN	413	7	35	2	121	221	321	NaN	521	0.802420142106712	2	0	NaN	4567913.1612022	NaN	4567914.1446081	4567914.66115066
73	21	0	0	90	36.1581920903955	36.241610738255	8	0.266684224009514	2	5	6	NaN	1	4	0.0224140145070856	1	1	NaN	414	7	36	2	121	221	321	NaN	521	0.0536483684554696	2	0	NaN	4567916.2780668	NaN	4567917.261587	4567917.77812813
73	21	0	0	90	36.1581920903955	36.241610738255	17	0.566703976020217	2	11	3	NaN	2	3	0.0224140145070856	1	1	NaN	415	7	37	2	121	221	321	NaN	521	0.0540850693359971	1	0	NaN	4567918.6616172	NaN	4567919.645139	4567920.16169383
73	21	0	0	90	36.1581920903955	36.241610738255	0	0	1	9	5	NaN	2	3	0.0224140145070856	1	1	NaN	416	7	38	2	111	211	311	NaN	511	0.222498768940568	2	1	NaN	4567921.0453142	NaN	4567922.0287329	4567922.54525383
73	21	0	0	90	36.1581920903955	36.241610738255	22	0.733381616026163	2	12	1	NaN	2	5	0.0224140145070856	1	1	NaN	417	7	39	2	121	221	321	NaN	521	1.97604822181165	2	1	NaN	4567923.5954454	NaN	4567924.578888	4567925.09551418
73	21	0	0	90	36.1581920903955	36.241610738255	9	0.300019752010703	2	5	5	NaN	1	4	0.0224140145070856	1	1	NaN	418	7	40	2	121	221	321	NaN	521	1.36423726845533	2	0	NaN	4567927.8958771	NaN	4567928.8793975	4567929.39592013
73	21	0	0	90	36.1581920903955	36.241610738255	16	0.533368448019028	2	3	6	NaN	1	3	0.0224140145070856	1	1	NaN	419	7	41	2	121	221	321	NaN	521	0.376160921528935	2	0	NaN	4567931.5796731	NaN	4567932.5629527	4567933.07962368
73	21	0	0	90	36.1581920903955	36.241610738255	13	0.43336186401546	2	3	2	NaN	1	5	0.0224140145070856	1	1	NaN	420	7	42	2	121	221	321	NaN	521	0.010425616055727	2	0	NaN	4567934.2799268	NaN	4567935.2633508	4567935.77988438
73	21	0	0	90	36.1581920903955	36.241610738255	13	0.43336186401546	2	1	1	NaN	1	4	0.0224140145070856	1	1	NaN	421	7	43	2	121	221	321	NaN	521	0.598863968625665	2	0	NaN	4567936.5967194	NaN	4567937.5802498	4567938.09677653
73	21	0	0	90	36.1581920903955	36.241610738255	16	0.533368448019028	2	1	6	NaN	1	4	0.0224140145070856	1	1	NaN	422	7	44	2	121	221	321	NaN	521	0.282088369131088	1	1	NaN	4567939.51388	NaN	4567940.4971838	4567941.01372453
73	21	0	0	90	36.1581920903955	36.241610738255	14	0.466697392016649	2	9	1	NaN	2	3	0.0224140145070856	1	1	NaN	423	7	45	2	121	221	321	NaN	521	1.71377016790211	1	0	NaN	4567942.1140589	NaN	4567943.0974857	4567943.61400373
73	21	0	0	90	36.1581920903955	36.241610738255	11	0.366690808013082	2	12	3	NaN	2	4	0.0224140145070856	1	1	NaN	424	7	46	2	121	221	321	NaN	521	0.200001516379416	2	1	NaN	4567946.147779	NaN	4567947.1311747	4567947.64771368
73	21	0	0	90	36.1581920903955	36.241610738255	8	0.266684224009514	2	2	6	NaN	1	5	0.0224140145070856	1	1	NaN	425	7	47	2	121	221	321	NaN	521	0.634866436943412	2	0	NaN	4567948.6813782	NaN	4567949.6647594	4567950.18130636
73	21	0	0	90	36.1581920903955	36.241610738255	10	0.333355280011892	2	7	2	NaN	2	3	0.0224140145070856	1	1	NaN	426	7	48	2	121	221	321	NaN	521	1.89214836899191	2	1	NaN	4567951.631512	NaN	4567952.6150417	4567953.13158623
73	21	0	0	90	36.1581920903955	36.241610738255	20	0.666710560023785	2	3	5	NaN	1	5	0.0224140145070856	1	1	NaN	427	7	49	2	121	221	321	NaN	521	1.98720442131162	1	1	NaN	4567955.8487438	NaN	4567956.8321599	4567957.34866548
73	21	0	0	90	36.1581920903955	36.241610738255	11	0.366690808013082	2	7	6	NaN	2	4	0.0224140145070856	1	1	NaN	428	7	50	2	121	221	321	NaN	521	0.756223221309483	2	1	NaN	4567971.5836092	NaN	4567972.5670362	4567973.08354648
73	21	0	0	90	36.1581920903955	36.241610738255	11	0.366690808013082	2	5	1	NaN	1	4	0.0224140145070856	1	1	NaN	429	7	51	2	121	221	321	NaN	521	0.441443621180952	1	1	NaN	4567974.65046	NaN	4567975.6339719	4567976.15050968
73	21	0	0	90	36.1581920903955	36.241610738255	18	0.600039504021406	2	1	4	NaN	1	3	0.0224140145070856	1	1	NaN	430	7	52	2	121	221	321	NaN	521	0.666260521858931	1	1	NaN	4567977.4175546	NaN	4567978.4008017	4567978.91748088
73	21	0	0	90	36.1581920903955	36.241610738255	13	0.43336186401546	2	2	1	NaN	1	4	0.0224140145070856	1	1	NaN	431	7	53	2	121	221	321	NaN	521	0.85059292241931	2	0	NaN	4567980.4011426	NaN	4567981.3845384	4567981.90109838
73	21	0	0	90	36.1581920903955	36.241610738255	15	0.500032920017839	2	1	2	NaN	1	4	0.0224140145070856	1	1	NaN	432	7	54	2	121	221	321	NaN	521	1.25170512218028	2	0	NaN	4567983.5681569	NaN	4567984.5515193	4567985.06805378
73	21	0	0	90	36.1581920903955	36.241610738255	24	0.800052672028542	2	12	5	NaN	2	4	0.0224140145070856	1	1	NaN	433	7	55	2	121	221	321	NaN	521	0.900883432477713	1	0	NaN	4567987.1350196	NaN	4567988.1185581	4567988.63508087
73	21	0	0	90	36.1581920903955	36.241610738255	8	0.266684224009514	2	10	1	NaN	2	3	0.0224140145070856	1	1	NaN	434	7	56	2	121	221	321	NaN	521	0.0104624219238758	2	1	NaN	4567990.3521333	NaN	4567991.3355108	4567991.85205398
73	21	0	0	90	36.1581920903955	36.241610738255	6	0.200013168007135	2	11	4	NaN	2	5	0.0224140145070856	1	1	NaN	435	7	57	2	121	221	321	NaN	521	1.51813162118196	2	1	NaN	4567992.685674	NaN	4567993.6691038	4567994.18562368
73	21	0	0	90	36.1581920903955	36.241610738255	10	0.333355280011892	2	5	3	NaN	1	5	0.0224140145070856	1	1	NaN	436	7	58	2	121	221	321	NaN	521	0.387670279480517	1	1	NaN	4567996.5360561	NaN	4567997.5194505	4567998.03600622
73	21	0	0	90	36.1581920903955	36.241610738255	24	0.800052672028542	2	10	2	NaN	2	3	0.0224140145070856	1	1	NaN	437	7	59	2	121	221	321	NaN	521	0.375740868970752	2	1	NaN	4567999.2363373	NaN	4568000.2197468	4568000.73627183
73	21	0	0	90	36.1581920903955	36.241610738255	19	0.633375032022595	2	8	5	NaN	2	3	0.0224140145070856	1	1	NaN	438	7	60	2	121	221	321	NaN	521	0.427629074081779	1	0	NaN	4568001.9365965	NaN	4568002.919983	4568003.43652963
73	21	0	0	90	36.1581920903955	36.241610738255	16	0.533368448019028	2	10	6	NaN	2	5	0.0224140145070856	1	1	NaN	439	7	61	2	121	221	321	NaN	521	0.564867516048253	1	0	NaN	4568004.6868414	NaN	4568005.6702671	4568006.18679368
73	21	0	0	90	36.1581920903955	36.241610738255	13	0.43336186401546	2	12	3	NaN	2	5	0.0224140145070856	1	1	NaN	440	7	62	2	121	221	321	NaN	521	0.385323364287615	2	1	NaN	4568007.5704797	NaN	4568008.5539558	4568009.07040414
73	21	0	0	90	36.1581920903955	36.241610738255	8	0.266684224009514	2	11	5	NaN	2	4	0.0224140145070856	1	1	NaN	441	7	63	2	121	221	321	NaN	521	0.468763768672943	1	0	NaN	4568010.2874197	NaN	4568011.2707949	4568011.78735003
73	21	0	0	90	36.1581920903955	36.241610738255	24	0.800052672028542	2	2	3	NaN	1	3	0.0224140145070856	1	1	NaN	442	8	1	2	121	221	321	NaN	521	0.547521621920168	2	0	NaN	4568030.2726811	NaN	4568031.2561085	4568031.77263708
73	21	0	0	90	36.1581920903955	36.241610738255	23	0.766717144027352	2	10	5	NaN	2	3	0.0224140145070856	1	1	NaN	443	8	2	2	121	221	321	NaN	521	1.43241856433451	2	1	NaN	4568033.1396308	NaN	4568034.1230479	4568034.63958604
73	21	0	0	90	36.1581920903955	36.241610738255	12	0.400026336014271	2	5	4	NaN	1	3	0.0224140145070856	1	1	NaN	444	8	3	2	121	221	321	NaN	521	0.825990368612111	2	0	NaN	4568036.8899356	NaN	4568037.8734317	4568038.38996723
73	21	0	0	90	36.1581920903955	36.241610738255	15	0.500032920017839	2	4	1	NaN	1	4	0.0224140145070856	1	1	NaN	445	8	4	2	121	221	321	NaN	521	0.875656869262457	1	1	NaN	4568040.0403658	NaN	4568041.0237326	4568041.54026423
73	21	0	0	90	36.1581920903955	36.241610738255	10	0.333355280011892	2	1	6	NaN	1	4	0.0224140145070856	1	1	NaN	446	8	5	2	121	221	321	NaN	521	0.651421269401908	1	1	NaN	4568043.2406847	NaN	4568044.2240481	4568044.74057673
73	21	0	0	90	36.1581920903955	36.241610738255	16	0.533368448019028	2	9	2	NaN	2	3	0.0224140145070856	1	1	NaN	447	8	6	2	121	221	321	NaN	521	0.500403321348131	1	0	NaN	4568046.2074697	NaN	4568047.1910064	4568047.70754318
73	21	0	0	90	36.1581920903955	36.241610738255	20	0.666710560023785	2	7	6	NaN	2	4	0.0224140145070856	1	1	NaN	448	8	7	2	121	221	321	NaN	521	0.555849837139249	2	1	NaN	4568049.0245405	NaN	4568050.0079459	4568050.52449626
73	21	0	0	90	36.1581920903955	36.241610738255	24	0.800052672028542	2	7	5	NaN	2	4	0.0224140145070856	1	1	NaN	449	8	8	2	121	221	321	NaN	521	1.05576846841723	1	0	NaN	4568051.9081569	NaN	4568052.8916132	4568053.40808993
73	21	0	0	90	36.1581920903955	36.241610738255	9	0.300019752010703	2	5	4	NaN	1	3	0.0224140145070856	1	1	NaN	450	8	9	2	121	221	321	NaN	521	1.96021276433021	1	1	NaN	4568055.2918855	NaN	4568056.2752425	4568056.79175264
73	21	0	0	90	36.1581920903955	36.241610738255	15	0.500032920017839	2	3	5	NaN	1	3	0.0224140145070856	1	1	NaN	451	8	10	2	121	221	321	NaN	521	0.700360221788287	2	0	NaN	4568059.5754944	NaN	4568060.5589826	4568061.07551458
73	21	0	0	90	36.1581920903955	36.241610738255	6	0.200013168007135	2	10	4	NaN	2	4	0.0224140145070856	1	1	NaN	452	8	11	2	121	221	321	NaN	521	0.531560137867928	1	0	NaN	4568062.5925392	NaN	4568063.5759549	4568064.09248646
73	21	0	0	90	36.1581920903955	36.241610738255	16	0.533368448019028	2	6	2	NaN	1	4	0.0224140145070856	1	1	NaN	453	8	12	2	121	221	321	NaN	521	0.457306768745184	2	0	NaN	4568065.4426817	NaN	4568066.4262115	4568066.94274993
73	21	0	0	90	36.1581920903955	36.241610738255	15	0.500032920017839	2	12	6	NaN	2	5	0.0224140145070856	1	1	NaN	454	8	13	2	121	221	321	NaN	521	0.553886268287897	1	0	NaN	4568068.2264493	NaN	4568069.2098503	4568069.72635953
73	21	0	0	90	36.1581920903955	36.241610738255	13	0.43336186401546	2	6	3	NaN	1	5	0.0224140145070856	1	1	NaN	455	8	14	2	121	221	321	NaN	521	0.686052716337144	2	0	NaN	4568071.1099728	NaN	4568072.0934692	4568072.60997288
73	21	0	0	90	36.1581920903955	36.241610738255	15	0.500032920017839	2	3	6	NaN	1	4	0.0224140145070856	1	1	NaN	456	8	15	2	121	221	321	NaN	521	0.0938270222395658	1	1	NaN	4568074.1103199	NaN	4568075.093704	4568075.61028028
73	21	0	0	90	36.1581920903955	36.241610738255	18	0.600039504021406	2	2	1	NaN	1	5	0.0224140145070856	1	1	NaN	457	8	16	2	121	221	321	NaN	521	0.436531137675047	1	1	NaN	4568076.5272556	NaN	4568077.5106897	4568078.02718806
73	21	0	0	90	36.1581920903955	36.241610738255	19	0.633375032022595	2	3	5	NaN	1	3	0.0224140145070856	1	1	NaN	458	8	17	2	121	221	321	NaN	521	0.614277568645775	2	0	NaN	4568079.2941859	NaN	4568080.2775484	4568080.79410953
73	21	0	0	90	36.1581920903955	36.241610738255	24	0.800052672028542	2	1	3	NaN	1	5	0.0224140145070856	1	1	NaN	459	8	18	2	121	221	321	NaN	521	1.04843156877905	1	1	NaN	4568082.2278036	NaN	4568083.2112431	4568083.72773743
