subjno	age	gender	isPractice	viewdist	CmToPixX	CmToPixY	SOA_frm	SOA_time	targNum	targID	targExample	targRace	targGender	firstTargPos	contrast	familiarity	curr_staircase	iStair	TrialNum	BlockNum	blktrl	sessionNum	TC_FIXATION	TC_RSVP_START	TC_RSVP_END	TC_BLANK	TC_RESPONSE_ONSET	RT2afc	resp_2afc	acc	RSVPOnsetVBL	RSVPOnsetTime	RSVPOffsetVBL	RSVPOffsetTime	startrt_2afc
106	19	0	0	90	36.1581920903955	36.241610738255	21	0.700071623828262	2	12	6	NaN	2	5	0.118274082371019	1	1	NaN	1	1	1	1	121	221	321	NaN	521	0.655422579497099	2	1	NaN	3722108.520046	NaN	3722109.5033434	3722110.03645462
106	19	0	0	90	36.1581920903955	36.241610738255	8	0.266693951934576	2	10	2	NaN	2	4	0.118274082371019	1	1	NaN	2	1	2	1	121	221	321	NaN	521	0.999732831958681	2	1	NaN	3722111.720362	NaN	3722112.7036388	3722113.23676667
106	19	0	0	90	36.1581920903955	36.241610738255	23	0.766745111811906	2	7	2	NaN	2	3	0.118274082371019	1	1	NaN	3	1	3	1	121	221	321	NaN	521	0.561744327656925	2	1	NaN	3722115.0704657	NaN	3722116.0538845	3722116.57042347
106	19	0	0	90	36.1581920903955	36.241610738255	0	0	1	10	4	NaN	2	5	0.118274082371019	1	1	NaN	4	1	4	1	111	211	311	NaN	511	1.19820118835196	2	1	NaN	3722117.9539851	NaN	3722118.9374876	3722119.45405391
106	19	0	0	90	36.1581920903955	36.241610738255	7	0.233357207942754	2	6	6	NaN	1	3	0.118274082371019	1	1	NaN	5	1	5	1	121	221	321	NaN	521	0.448961427435279	1	1	NaN	3722121.4711058	NaN	3722122.4545119	3722122.97106037
106	19	0	0	90	36.1581920903955	36.241610738255	20	0.66673487983644	2	7	5	NaN	2	3	0.118274082371019	1	1	NaN	6	1	6	1	121	221	321	NaN	521	1.61810917546973	2	1	NaN	3722124.2380551	NaN	3722125.2214591	3722125.73799502
106	19	0	0	90	36.1581920903955	36.241610738255	18	0.600061391852796	2	7	6	NaN	2	4	0.118274082371019	1	1	NaN	7	1	7	1	121	221	321	NaN	521	1.28384137526155	2	1	NaN	3722128.1884405	NaN	3722129.171821	3722129.68837932
106	19	0	0	90	36.1581920903955	36.241610738255	22	0.733408367820084	2	11	6	NaN	2	3	0.118274082371019	1	1	NaN	8	1	8	1	121	221	321	NaN	521	2.55517132766545	1	0	NaN	3722131.7888649	NaN	3722132.7721754	3722133.28873737
106	19	0	0	90	36.1581920903955	36.241610738255	23	0.766745111811906	2	5	1	NaN	1	4	0.118274082371019	1	1	NaN	9	1	9	1	121	221	321	NaN	521	0.896047127898782	1	1	NaN	3722136.6559218	NaN	3722137.6393574	3722138.15588697
106	19	0	0	90	36.1581920903955	36.241610738255	23	0.766745111811906	2	9	1	NaN	2	5	0.118274082371019	1	1	NaN	10	1	10	1	121	221	321	NaN	521	1.27903492795303	2	1	NaN	3722139.8729257	NaN	3722140.8563101	3722141.37287117
106	19	0	0	90	36.1581920903955	36.241610738255	24	0.800081855803728	2	5	1	NaN	1	4	0.118274082371019	1	1	NaN	11	1	11	1	121	221	321	NaN	521	0.799036575481296	1	1	NaN	3722143.473255	NaN	3722144.4566909	3722144.97321272
106	19	0	0	90	36.1581920903955	36.241610738255	25	0.83341859979555	2	11	4	NaN	2	4	0.118274082371019	1	1	NaN	12	1	12	1	121	221	321	NaN	521	4.96965477569029	2	1	NaN	3722146.5902305	NaN	3722147.5736395	3722148.09018552
106	19	0	0	90	36.1581920903955	36.241610738255	8	0.266693951934576	2	4	5	NaN	1	5	0.118274082371019	1	1	NaN	13	1	13	1	121	221	321	NaN	521	1.65366267552599	1	1	NaN	3722153.8743035	NaN	3722154.8576947	3722155.37423482
106	19	0	0	90	36.1581920903955	36.241610738255	18	0.600061391852796	2	12	2	NaN	2	5	0.118274082371019	1	1	NaN	14	1	14	1	121	221	321	NaN	521	0.726694223936647	2	1	NaN	3722157.8412161	NaN	3722158.8247453	3722159.34129898
106	19	0	0	90	36.1581920903955	36.241610738255	14	0.466714415885508	2	3	2	NaN	1	3	0.118274082371019	1	1	NaN	15	1	15	1	121	221	321	NaN	521	0.876587939914316	1	1	NaN	3722160.8916579	NaN	3722161.8750442	3722162.39160556
106	19	0	0	90	36.1581920903955	36.241610738255	15	0.50005115987733	2	12	5	NaN	2	3	0.118274082371019	1	1	NaN	16	1	16	1	121	221	321	NaN	521	5.64400832727551	1	0	NaN	3722164.0919785	NaN	3722165.0753534	3722165.59191117
106	19	0	0	90	36.1581920903955	36.241610738255	22	0.733408367820084	2	9	6	NaN	2	4	0.118274082371019	1	1	NaN	17	1	17	1	121	221	321	NaN	521	0.580902063753456	2	1	NaN	3722172.05931	NaN	3722173.0428111	3722173.55934994
106	19	0	0	90	36.1581920903955	36.241610738255	19	0.633398135844618	2	10	6	NaN	2	3	0.118274082371019	1	1	NaN	18	1	18	1	121	221	321	NaN	521	0.560476075392216	2	1	NaN	3722174.9595616	NaN	3722175.9430823	3722176.45963942
106	19	0	0	90	36.1581920903955	36.241610738255	21	0.700071623828262	2	11	2	NaN	2	5	0.118274082371019	1	1	NaN	19	1	19	1	121	221	321	NaN	521	4.18062883941457	2	1	NaN	3722177.8433111	NaN	3722178.8266978	3722179.34325886
106	19	0	0	90	36.1581920903955	36.241610738255	7	0.233357207942754	2	2	1	NaN	1	4	0.118274082371019	1	1	NaN	20	1	20	1	121	221	321	NaN	521	0.624107427429408	1	1	NaN	3722184.3439478	NaN	3722185.3273471	3722185.84390247
106	19	0	0	90	36.1581920903955	36.241610738255	23	0.766745111811906	2	8	5	NaN	2	5	0.118274082371019	1	1	NaN	21	1	21	1	121	221	321	NaN	521	0.410146775655448	2	1	NaN	3722187.2942531	NaN	3722188.2776271	3722188.79418632
106	19	0	0	90	36.1581920903955	36.241610738255	22	0.733408367820084	2	8	3	NaN	2	4	0.118274082371019	1	1	NaN	22	1	22	1	121	221	321	NaN	521	0.900546628050506	2	1	NaN	3722190.0278336	NaN	3722191.0112414	3722191.52779417
106	19	0	0	90	36.1581920903955	36.241610738255	20	0.66673487983644	2	11	3	NaN	2	4	0.118274082371019	1	1	NaN	23	1	23	1	121	221	321	NaN	521	6.27519947569817	1	0	NaN	3722193.2448357	NaN	3722194.2282271	3722194.74477462
106	19	0	0	90	36.1581920903955	36.241610738255	14	0.466714415885508	2	12	2	NaN	2	3	0.118274082371019	1	1	NaN	24	1	24	1	121	221	321	NaN	521	1.04269577562809	2	1	NaN	3722201.8456897	NaN	3722202.8290605	3722203.34561482
106	19	0	0	90	36.1581920903955	36.241610738255	13	0.433377671893686	2	11	4	NaN	2	3	0.118274082371019	1	1	NaN	25	1	25	1	121	221	321	NaN	521	1.54783977521583	2	1	NaN	3722205.2126496	NaN	3722206.1960772	3722206.71261572
106	19	0	0	90	36.1581920903955	36.241610738255	15	0.50005115987733	2	4	2	NaN	1	3	0.118274082371019	1	1	NaN	26	1	26	1	121	221	321	NaN	521	1.32054598769173	1	1	NaN	3722209.0797256	NaN	3722210.0630951	3722210.57968241
106	19	0	0	90	36.1581920903955	36.241610738255	13	0.433377671893686	2	11	6	NaN	2	4	0.118274082371019	1	1	NaN	27	1	27	1	121	221	321	NaN	521	0.862219027709216	2	1	NaN	3722213.1300884	NaN	3722214.1134538	3722214.63006767
106	19	0	0	90	36.1581920903955	36.241610738255	21	0.700071623828262	2	5	1	NaN	1	5	0.118274082371019	1	1	NaN	28	1	28	1	121	221	321	NaN	521	0.774127675686032	1	1	NaN	3722216.3137713	NaN	3722217.2971565	3722217.81370202
106	19	0	0	90	36.1581920903955	36.241610738255	6	0.200020463950932	2	12	6	NaN	2	4	0.118274082371019	1	1	NaN	29	1	29	1	121	221	321	NaN	521	0.345916675403714	2	1	NaN	3722219.414063	NaN	3722220.3975473	3722220.91400632
106	19	0	0	90	36.1581920903955	36.241610738255	11	0.366704183910042	2	2	2	NaN	1	3	0.118274082371019	1	1	NaN	30	1	30	1	121	221	321	NaN	521	0.471105027478188	1	1	NaN	3722222.0808861	NaN	3722223.06439	3722223.58094037
106	19	0	0	90	36.1581920903955	36.241610738255	25	0.83341859979555	2	6	2	NaN	1	3	0.118274082371019	1	1	NaN	31	1	31	1	121	221	321	NaN	521	0.695110927801579	1	1	NaN	3722224.8811397	NaN	3722225.8646702	3722226.38121867
106	19	0	0	90	36.1581920903955	36.241610738255	24	0.800081855803728	2	12	3	NaN	2	4	0.118274082371019	1	1	NaN	32	1	32	1	121	221	321	NaN	521	0.382229323964566	2	1	NaN	3722227.8981283	NaN	3722228.8816749	3722229.39817588
106	19	0	0	90	36.1581920903955	36.241610738255	20	0.66673487983644	2	11	3	NaN	2	5	0.118274082371019	1	1	NaN	33	1	33	1	121	221	321	NaN	521	1.29790442343801	2	1	NaN	3722230.5984871	NaN	3722231.5819037	3722232.09844098
106	19	0	0	90	36.1581920903955	36.241610738255	17	0.566724647860974	2	9	4	NaN	2	3	0.118274082371019	1	1	NaN	34	1	34	1	121	221	321	NaN	521	11.0566282756627	2	1	NaN	3722234.2156216	NaN	3722235.1989016	3722235.71546112
106	19	0	0	90	36.1581920903955	36.241610738255	6	0.200020463950932	2	9	3	NaN	2	3	0.118274082371019	1	1	NaN	35	1	35	1	121	221	321	NaN	521	0.536709127947688	2	1	NaN	3722247.7835008	NaN	3722248.766899	3722249.28347107
106	19	0	0	90	36.1581920903955	36.241610738255	25	0.83341859979555	2	3	2	NaN	1	4	0.118274082371019	1	1	NaN	36	1	36	1	121	221	321	NaN	521	0.495608096010983	1	1	NaN	3722250.8004486	NaN	3722251.7838791	3722252.3004475
106	19	0	0	90	36.1581920903955	36.241610738255	22	0.733408367820084	2	7	3	NaN	2	4	0.118274082371019	1	1	NaN	37	1	37	1	121	221	321	NaN	521	0.606682323850691	1	0	NaN	3722253.6174229	NaN	3722254.6008117	3722255.11737208
106	19	0	0	90	36.1581920903955	36.241610738255	14	0.466714415885508	2	12	4	NaN	2	4	0.118274082371019	1	1	NaN	38	1	38	1	121	221	321	NaN	521	0.570044423919171	2	1	NaN	3722256.5343682	NaN	3722257.5177772	3722258.03431978
106	19	0	0	90	36.1581920903955	36.241610738255	14	0.466714415885508	2	5	4	NaN	1	3	0.118274082371019	1	1	NaN	39	1	39	1	121	221	321	NaN	521	0.476726127322763	1	1	NaN	3722259.4513108	NaN	3722260.4346933	3722260.95128497
106	19	0	0	90	36.1581920903955	36.241610738255	18	0.600061391852796	2	2	6	NaN	1	4	0.118274082371019	1	1	NaN	40	1	40	1	121	221	321	NaN	521	1.07709492789581	1	1	NaN	3722262.2349256	NaN	3722263.218338	3722263.73489127
106	19	0	0	90	36.1581920903955	36.241610738255	17	0.566724647860974	2	5	3	NaN	1	3	0.118274082371019	1	1	NaN	41	1	41	1	121	221	321	NaN	521	0.541718828026205	1	1	NaN	3722265.6185941	NaN	3722266.6020051	3722267.11855417
106	19	0	0	90	36.1581920903955	36.241610738255	6	0.200020463950932	2	2	1	NaN	1	4	0.118274082371019	1	1	NaN	42	1	42	1	121	221	321	NaN	521	0.627045827917755	1	1	NaN	3722268.4855479	NaN	3722269.4689284	3722269.98550597
106	19	0	0	90	36.1581920903955	36.241610738255	11	0.366704183910042	2	7	3	NaN	2	5	0.118274082371019	1	1	NaN	43	1	43	1	121	221	321	NaN	521	0.780623127706349	2	1	NaN	3722271.4357094	NaN	3722272.4192448	3722272.93579617
106	19	0	0	90	36.1581920903955	36.241610738255	10	0.33336743991822	2	11	4	NaN	2	4	0.118274082371019	1	1	NaN	44	1	44	1	121	221	321	NaN	521	0.48908562771976	2	1	NaN	3722274.5194652	NaN	3722275.5028796	3722276.01942837
106	19	0	0	90	36.1581920903955	36.241610738255	22	0.733408367820084	2	12	2	NaN	2	4	0.118274082371019	1	1	NaN	45	1	45	1	121	221	321	NaN	521	10.0002733278088	1	0	NaN	3722277.3197535	NaN	3722278.3031585	3722278.81970817
106	19	0	0	90	36.1581920903955	36.241610738255	9	0.300030695926398	2	2	4	NaN	1	5	0.118274082371019	1	1	NaN	46	1	46	1	121	221	321	NaN	521	0.282558627892286	1	1	NaN	3722289.6376281	NaN	3722290.6210119	3722291.13758447
106	19	0	0	90	36.1581920903955	36.241610738255	24	0.800081855803728	2	11	3	NaN	2	4	0.118274082371019	1	1	NaN	47	1	47	1	121	221	321	NaN	521	0.40231272764504	2	1	NaN	3722292.2378976	NaN	3722293.221285	3722293.73784097
106	19	0	0	90	36.1581920903955	36.241610738255	9	0.300030695926398	2	4	4	NaN	1	4	0.118274082371019	1	1	NaN	48	1	48	1	121	221	321	NaN	521	2.32570917578414	1	1	NaN	3722294.9548439	NaN	3722295.9382353	3722296.45476072
106	19	0	0	90	36.1581920903955	36.241610738255	18	0.600061391852796	2	1	6	NaN	1	3	0.118274082371019	1	1	NaN	49	1	49	1	121	221	321	NaN	521	0.499847975559533	1	1	NaN	3722299.5886155	NaN	3722300.5720057	3722301.08855612
106	19	0	0	90	36.1581920903955	36.241610738255	20	0.66673487983644	2	3	5	NaN	1	4	0.118274082371019	1	1	NaN	50	1	50	1	121	221	321	NaN	521	0.962919744197279	1	1	NaN	3722302.4055413	NaN	3722303.3889406	3722303.90551246
106	19	0	0	90	36.1581920903955	36.241610738255	7	0.233357207942754	2	7	4	NaN	2	5	0.118274082371019	1	1	NaN	51	1	51	1	121	221	321	NaN	521	0.751289275474846	2	1	NaN	3722305.6890821	NaN	3722306.6725966	3722307.18915212
106	19	0	0	90	36.1581920903955	36.241610738255	23	0.766745111811906	2	7	2	NaN	2	4	0.118274082371019	1	1	NaN	52	1	52	1	121	221	321	NaN	521	0.668137923814356	1	0	NaN	3722308.7561776	NaN	3722309.7395925	3722310.25612448
106	19	0	0	90	36.1581920903955	36.241610738255	13	0.433377671893686	2	1	6	NaN	1	4	0.118274082371019	1	1	NaN	53	1	53	1	121	221	321	NaN	521	0.63631842751056	1	1	NaN	3722311.7397851	NaN	3722312.7231843	3722313.23975367
106	19	0	0	90	36.1581920903955	36.241610738255	23	0.766745111811906	2	12	1	NaN	2	3	0.118274082371019	1	1	NaN	54	1	54	1	121	221	321	NaN	521	7.98214272782207	2	1	NaN	3722314.6901062	NaN	3722315.673489	3722316.19004577
106	19	0	0	90	36.1581920903955	36.241610738255	11	0.366704183910042	2	11	3	NaN	2	3	0.118274082371019	1	1	NaN	55	1	55	1	121	221	321	NaN	521	2.23319337517023	2	1	NaN	3722324.9909832	NaN	3722325.9745068	3722326.49104772
106	19	0	0	90	36.1581920903955	36.241610738255	10	0.33336743991822	2	12	6	NaN	2	4	0.118274082371019	1	1	NaN	56	1	56	1	121	221	321	NaN	521	0.586602027527988	2	1	NaN	3722329.5415475	NaN	3722330.5249365	3722331.04150607
106	19	0	0	90	36.1581920903955	36.241610738255	17	0.566724647860974	2	5	1	NaN	1	4	0.118274082371019	1	1	NaN	57	1	57	1	121	221	321	NaN	521	0.606450675521046	1	1	NaN	3722332.4418328	NaN	3722333.4252252	3722333.94178062
106	19	0	0	90	36.1581920903955	36.241610738255	8	0.266693951934576	2	11	3	NaN	2	5	0.118274082371019	1	1	NaN	58	1	58	1	121	221	321	NaN	521	5.31341407541186	2	1	NaN	3722335.358826	NaN	3722336.3421822	3722336.85873302
106	19	0	0	90	36.1581920903955	36.241610738255	0	0	1	6	6	NaN	1	3	0.118274082371019	1	1	NaN	59	1	59	1	111	211	311	NaN	511	0.424243844114244	1	1	NaN	3722342.9762459	NaN	3722343.9596128	3722344.47615856
106	19	0	0	90	36.1581920903955	36.241610738255	24	0.800081855803728	2	8	6	NaN	2	5	0.118274082371019	1	1	NaN	60	1	60	1	121	221	321	NaN	521	0.258368087932467	2	1	NaN	3722345.709811	NaN	3722346.6932002	3722347.20975951
106	19	0	0	90	36.1581920903955	36.241610738255	19	0.633398135844618	2	11	1	NaN	2	5	0.118274082371019	1	1	NaN	61	1	61	1	121	221	321	NaN	521	0.795514675788581	2	1	NaN	3722348.2767261	NaN	3722349.260132	3722349.77667082
106	19	0	0	90	36.1581920903955	36.241610738255	14	0.466714415885508	2	7	5	NaN	2	3	0.118274082371019	1	1	NaN	62	1	62	1	121	221	321	NaN	521	1.30307547561824	2	1	NaN	3722351.376906	NaN	3722352.3604184	3722352.87697352
106	19	0	0	90	36.1581920903955	36.241610738255	12	0.400040927901864	2	2	4	NaN	1	3	0.118274082371019	1	1	NaN	63	1	63	1	121	221	321	NaN	521	3.19857562799007	1	1	NaN	3722354.9940511	NaN	3722355.9774579	3722356.49400607
106	19	0	0	90	36.1581920903955	36.241610738255	15	0.50005115987733	2	12	6	NaN	2	5	0.118274082371019	1	1	NaN	64	2	1	1	121	221	321	NaN	521	2.98688302794471	2	1	NaN	3722369.6454772	NaN	3722370.6289138	3722371.14544197
106	19	0	0	90	36.1581920903955	36.241610738255	15	0.50005115987733	2	2	3	NaN	1	3	0.118274082371019	1	1	NaN	65	2	2	1	121	221	321	NaN	521	1.05509372800589	1	1	NaN	3722375.3292526	NaN	3722376.3127588	3722376.82933267
106	19	0	0	90	36.1581920903955	36.241610738255	0	0	1	10	3	NaN	2	3	0.118274082371019	1	1	NaN	66	2	3	1	111	211	311	NaN	511	1.28824217570946	2	1	NaN	3722378.696372	NaN	3722379.679786	3722380.19632442
106	19	0	0	90	36.1581920903955	36.241610738255	13	0.433377671893686	2	12	2	NaN	2	5	0.118274082371019	1	1	NaN	67	2	4	1	121	221	321	NaN	521	0.799981275573373	2	1	NaN	3722382.2967457	NaN	3722383.2801441	3722383.79667942
106	19	0	0	90	36.1581920903955	36.241610738255	19	0.633398135844618	2	4	6	NaN	1	3	0.118274082371019	1	1	NaN	68	2	5	1	121	221	321	NaN	521	0.66673257574439	1	1	NaN	3722385.6137304	NaN	3722386.5971239	3722387.11368252
106	19	0	0	90	36.1581920903955	36.241610738255	14	0.466714415885508	2	9	1	NaN	2	5	0.118274082371019	1	1	NaN	69	2	6	1	121	221	321	NaN	521	3.91491606365889	1	0	NaN	3722388.5973623	NaN	3722389.5807533	3722390.09729834
106	19	0	0	90	36.1581920903955	36.241610738255	6	0.200020463950932	2	5	5	NaN	1	5	0.118274082371019	1	1	NaN	70	2	7	1	121	221	321	NaN	521	0.753084175754339	1	1	NaN	3722394.8311736	NaN	3722395.8147053	3722396.33124482
106	19	0	0	90	36.1581920903955	36.241610738255	0	0	1	11	2	NaN	2	3	0.118274082371019	1	1	NaN	71	2	8	1	111	211	311	NaN	511	0.50219762371853	2	1	NaN	3722397.8982657	NaN	3722398.8816656	3722399.39820898
106	19	0	0	90	36.1581920903955	36.241610738255	21	0.700071623828262	2	3	1	NaN	1	3	0.118274082371019	1	1	NaN	72	2	9	1	121	221	321	NaN	521	0.72501292778179	1	1	NaN	3722400.7151167	NaN	3722401.6985985	3722402.21516257
106	19	0	0	90	36.1581920903955	36.241610738255	11	0.366704183910042	2	4	5	NaN	1	3	0.118274082371019	1	1	NaN	73	2	10	1	121	221	321	NaN	521	0.939622275531292	1	1	NaN	3722403.7488585	NaN	3722404.7322261	3722405.24878432
106	19	0	0	90	36.1581920903955	36.241610738255	6	0.200020463950932	2	2	5	NaN	1	4	0.118274082371019	1	1	NaN	74	2	11	1	121	221	321	NaN	521	1.15321642765775	1	1	NaN	3722406.9992231	NaN	3722407.9825643	3722408.49911357
106	19	0	0	90	36.1581920903955	36.241610738255	14	0.466714415885508	2	6	6	NaN	1	5	0.118274082371019	1	1	NaN	75	2	12	1	121	221	321	NaN	521	0.678310843650252	1	1	NaN	3722410.4661694	NaN	3722411.4495876	3722411.96612866
106	19	0	0	90	36.1581920903955	36.241610738255	25	0.83341859979555	2	8	2	NaN	2	3	0.118274082371019	1	1	NaN	76	2	13	1	121	221	321	NaN	521	0.293856575619429	2	1	NaN	3722413.4664652	NaN	3722414.4498737	3722414.96641152
106	19	0	0	90	36.1581920903955	36.241610738255	23	0.766745111811906	2	5	6	NaN	1	3	0.118274082371019	1	1	NaN	77	2	14	1	121	221	321	NaN	521	0.506701375823468	1	1	NaN	3722416.3332849	NaN	3722417.3167987	3722417.83335692
106	19	0	0	90	36.1581920903955	36.241610738255	16	0.533387903869152	2	3	5	NaN	1	3	0.118274082371019	1	1	NaN	78	2	15	1	121	221	321	NaN	521	0.978333523496985	1	1	NaN	3722419.1503463	NaN	3722420.1337564	3722420.65030848
106	19	0	0	90	36.1581920903955	36.241610738255	9	0.300030695926398	2	10	1	NaN	2	5	0.118274082371019	1	1	NaN	79	2	16	1	121	221	321	NaN	521	0.445600527804345	2	1	NaN	3722422.4506957	NaN	3722423.4340742	3722423.95063407
106	19	0	0	90	36.1581920903955	36.241610738255	16	0.533387903869152	2	3	1	NaN	1	5	0.118274082371019	1	1	NaN	80	2	17	1	121	221	321	NaN	521	0.831105527468026	1	1	NaN	3722425.2176161	NaN	3722426.2011015	3722426.71756367
106	19	0	0	90	36.1581920903955	36.241610738255	10	0.33336743991822	2	6	5	NaN	1	4	0.118274082371019	1	1	NaN	81	2	18	1	121	221	321	NaN	521	0.944770227652043	1	1	NaN	3722428.3679328	NaN	3722429.3513169	3722429.86788437
106	19	0	0	90	36.1581920903955	36.241610738255	0	0	1	12	3	NaN	2	3	0.118274082371019	1	1	NaN	82	2	19	1	111	211	311	NaN	511	1.02992914384231	1	0	NaN	3722431.6349078	NaN	3722432.6183144	3722433.13487086
106	19	0	0	90	36.1581920903955	36.241610738255	23	0.766745111811906	2	3	4	NaN	1	4	0.118274082371019	1	1	NaN	83	2	20	1	121	221	321	NaN	521	0.75931352796033	1	1	NaN	3722434.9852614	NaN	3722435.9686321	3722436.48519777
106	19	0	0	90	36.1581920903955	36.241610738255	18	0.600061391852796	2	6	1	NaN	1	5	0.118274082371019	1	1	NaN	84	2	21	1	121	221	321	NaN	521	1.14804662810639	1	1	NaN	3722438.0522092	NaN	3722439.0356122	3722439.55216557
106	19	0	0	90	36.1581920903955	36.241610738255	11	0.366704183910042	2	1	2	NaN	1	5	0.118274082371019	1	1	NaN	85	2	22	1	121	221	321	NaN	521	1.16923187999055	1	1	NaN	3722441.5192166	NaN	3722442.5026151	3722443.01916312
106	19	0	0	90	36.1581920903955	36.241610738255	11	0.366704183910042	2	12	3	NaN	2	4	0.118274082371019	1	1	NaN	86	2	23	1	121	221	321	NaN	521	0.541773075703532	2	1	NaN	3722445.002812	NaN	3722445.9863076	3722446.50284192
106	19	0	0	90	36.1581920903955	36.241610738255	25	0.83341859979555	2	2	3	NaN	1	5	0.118274082371019	1	1	NaN	87	2	24	1	121	221	321	NaN	521	0.35514552751556	1	1	NaN	3722447.8531726	NaN	3722448.8365667	3722449.35313017
106	19	0	0	90	36.1581920903955	36.241610738255	9	0.300030695926398	2	6	4	NaN	1	3	0.118274082371019	1	1	NaN	88	2	25	1	121	221	321	NaN	521	0.864742535632104	1	1	NaN	3722450.520102	NaN	3722451.503514	3722452.02006326
106	19	0	0	90	36.1581920903955	36.241610738255	10	0.33336743991822	2	4	3	NaN	1	3	0.118274082371019	1	1	NaN	89	2	26	1	121	221	321	NaN	521	0.464800227899104	1	1	NaN	3722453.7037479	NaN	3722454.6871743	3722455.20370677
106	19	0	0	90	36.1581920903955	36.241610738255	25	0.83341859979555	2	12	1	NaN	2	5	0.118274082371019	1	1	NaN	90	2	27	1	121	221	321	NaN	521	0.417472775559872	2	1	NaN	3722456.4873735	NaN	3722457.470772	3722457.98730092
106	19	0	0	90	36.1581920903955	36.241610738255	24	0.800081855803728	2	4	6	NaN	1	3	0.118274082371019	1	1	NaN	91	2	28	1	121	221	321	NaN	521	5.05142962746322	2	0	NaN	3722459.2209512	NaN	3722460.2043664	3722460.72091497
106	19	0	0	90	36.1581920903955	36.241610738255	6	0.200020463950932	2	11	6	NaN	2	3	0.118274082371019	1	1	NaN	92	2	29	1	121	221	321	NaN	521	2.09220084361732	1	0	NaN	3722466.5883901	NaN	3722467.5717465	3722468.08830396
106	19	0	0	90	36.1581920903955	36.241610738255	25	0.83341859979555	2	9	5	NaN	2	3	0.118274082371019	1	1	NaN	93	2	30	1	121	221	321	NaN	521	0.555993475485593	2	1	NaN	3722470.9887787	NaN	3722471.9721901	3722472.48873082
106	19	0	0	90	36.1581920903955	36.241610738255	8	0.266693951934576	2	3	1	NaN	1	5	0.118274082371019	1	1	NaN	94	2	31	1	121	221	321	NaN	521	0.433063027448952	1	1	NaN	3722473.8557259	NaN	3722474.8391461	3722475.35568427
106	19	0	0	90	36.1581920903955	36.241610738255	9	0.300030695926398	2	9	3	NaN	2	3	0.118274082371019	1	1	NaN	95	2	32	1	121	221	321	NaN	521	0.378712228033692	2	1	NaN	3722476.6060137	NaN	3722477.5893962	3722478.10594987
106	19	0	0	90	36.1581920903955	36.241610738255	24	0.800081855803728	2	6	2	NaN	1	4	0.118274082371019	1	1	NaN	96	2	33	1	121	221	321	NaN	521	0.679106676019728	1	1	NaN	3722479.2895235	NaN	3722480.2729976	3722480.78955012
106	19	0	0	90	36.1581920903955	36.241610738255	0	0	1	9	5	NaN	2	3	0.118274082371019	1	1	NaN	97	2	34	1	111	211	311	NaN	511	3.01487792795524	2	1	NaN	3722482.2899381	NaN	3722483.2733556	3722483.78984667
106	19	0	0	90	36.1581920903955	36.241610738255	12	0.400040927901864	2	4	4	NaN	1	5	0.118274082371019	1	1	NaN	98	2	35	1	121	221	321	NaN	521	0.488816275261343	1	1	NaN	3722487.6237521	NaN	3722488.6071288	3722489.12369572
106	19	0	0	90	36.1581920903955	36.241610738255	12	0.400040927901864	2	5	6	NaN	1	5	0.118274082371019	1	1	NaN	99	2	36	1	121	221	321	NaN	521	0.832451175898314	1	1	NaN	3722490.4240336	NaN	3722491.4074294	3722491.92396982
106	19	0	0	90	36.1581920903955	36.241610738255	12	0.400040927901864	2	3	3	NaN	1	5	0.118274082371019	1	1	NaN	100	2	37	1	121	221	321	NaN	521	0.594115979969501	1	1	NaN	3722493.5743426	NaN	3722494.5577442	3722495.07429282
106	19	0	0	90	36.1581920903955	36.241610738255	9	0.300030695926398	2	4	5	NaN	1	5	0.118274082371019	1	1	NaN	101	2	38	1	121	221	321	NaN	521	0.621244227979332	1	1	NaN	3722496.4912933	NaN	3722497.4747137	3722497.99123967
106	19	0	0	90	36.1581920903955	36.241610738255	8	0.266693951934576	2	6	1	NaN	1	4	0.118274082371019	1	1	NaN	102	2	39	1	121	221	321	NaN	521	0.591578575316817	1	1	NaN	3722499.4249009	NaN	3722500.40832	3722500.92485782
106	19	0	0	90	36.1581920903955	36.241610738255	15	0.50005115987733	2	5	4	NaN	1	5	0.118274082371019	1	1	NaN	103	2	40	1	121	221	321	NaN	521	0.755624127574265	1	1	NaN	3722502.3252001	NaN	3722503.3085961	3722503.82514947
106	19	0	0	90	36.1581920903955	36.241610738255	13	0.433377671893686	2	5	5	NaN	1	4	0.118274082371019	1	1	NaN	104	2	41	1	121	221	321	NaN	521	0.520742975641042	1	1	NaN	3722505.392162	NaN	3722506.3755467	3722506.89211662
106	19	0	0	90	36.1581920903955	36.241610738255	22	0.733408367820084	2	10	5	NaN	2	4	0.118274082371019	1	1	NaN	105	2	42	1	121	221	321	NaN	521	0.398390475660563	2	1	NaN	3722508.2257624	NaN	3722509.2091731	3722509.72571772
106	19	0	0	90	36.1581920903955	36.241610738255	10	0.33336743991822	2	8	6	NaN	2	4	0.118274082371019	1	1	NaN	106	2	43	1	121	221	321	NaN	521	0.0498811756260693	2	1	NaN	3722510.9426998	NaN	3722511.9261157	3722512.44265152
106	19	0	0	90	36.1581920903955	36.241610738255	16	0.533387903869152	2	11	4	NaN	2	5	0.118274082371019	1	1	NaN	107	2	44	1	121	221	321	NaN	521	3.46687622787431	2	1	NaN	3722513.3096073	NaN	3722514.2930018	3722514.80955777
106	19	0	0	90	36.1581920903955	36.241610738255	17	0.566724647860974	2	10	5	NaN	2	4	0.118274082371019	1	1	NaN	108	2	45	1	121	221	321	NaN	521	0.867023431695998	2	1	NaN	3722519.0935128	NaN	3722520.0769074	3722520.59345337
106	19	0	0	90	36.1581920903955	36.241610738255	8	0.266693951934576	2	7	6	NaN	2	5	0.118274082371019	1	1	NaN	109	2	46	1	121	221	321	NaN	521	7.14735002815723	1	0	NaN	3722522.2771627	NaN	3722523.2605515	3722523.77710867
106	19	0	0	90	36.1581920903955	36.241610738255	16	0.533387903869152	2	9	1	NaN	2	4	0.118274082371019	1	1	NaN	110	2	47	1	121	221	321	NaN	521	0.54464467568323	2	1	NaN	3722531.7280792	NaN	3722532.7114924	3722533.22803012
106	19	0	0	90	36.1581920903955	36.241610738255	9	0.300030695926398	2	1	3	NaN	1	3	0.118274082371019	1	1	NaN	111	2	48	1	121	221	321	NaN	521	0.533772527705878	1	1	NaN	3722534.5950317	NaN	3722535.5784222	3722536.09498157
106	19	0	0	90	36.1581920903955	36.241610738255	13	0.433377671893686	2	2	1	NaN	1	3	0.118274082371019	1	1	NaN	112	2	49	1	121	221	321	NaN	521	0.339205427560955	1	1	NaN	3722537.4451712	NaN	3722538.428719	3722538.94526707
106	19	0	0	90	36.1581920903955	36.241610738255	15	0.50005115987733	2	11	5	NaN	2	3	0.118274082371019	1	1	NaN	113	2	50	1	121	221	321	NaN	521	1.60081592807546	1	0	NaN	3722540.0955626	NaN	3722541.0789641	3722541.59552917
106	19	0	0	90	36.1581920903955	36.241610738255	20	0.66673487983644	2	12	6	NaN	2	5	0.118274082371019	1	1	NaN	114	2	51	1	121	221	321	NaN	521	0.635696823708713	2	1	NaN	3722544.0125029	NaN	3722544.9960518	3722545.51256738
106	19	0	0	90	36.1581920903955	36.241610738255	15	0.50005115987733	2	2	6	NaN	1	5	0.118274082371019	1	1	NaN	115	2	52	1	121	221	321	NaN	521	0.773966928012669	1	1	NaN	3722546.9629348	NaN	3722547.9463098	3722548.46286607
106	19	0	0	90	36.1581920903955	36.241610738255	17	0.566724647860974	2	7	4	NaN	2	3	0.118274082371019	1	1	NaN	116	2	53	1	121	221	321	NaN	521	0.473956127651036	2	1	NaN	3722550.0465437	NaN	3722551.029939	3722551.54650277
106	19	0	0	90	36.1581920903955	36.241610738255	24	0.800081855803728	2	4	6	NaN	1	3	0.118274082371019	1	1	NaN	117	2	54	1	121	221	321	NaN	521	0.474203075747937	1	1	NaN	3722552.8300568	NaN	3722553.8135498	3722554.33010252
106	19	0	0	90	36.1581920903955	36.241610738255	12	0.400040927901864	2	8	1	NaN	2	4	0.118274082371019	1	1	NaN	118	2	55	1	121	221	321	NaN	521	0.32261682394892	2	1	NaN	3722555.6136384	NaN	3722556.5971822	3722557.11370638
106	19	0	0	90	36.1581920903955	36.241610738255	17	0.566724647860974	2	2	4	NaN	1	3	0.118274082371019	1	1	NaN	119	2	56	1	121	221	321	NaN	521	0.465131579898298	1	1	NaN	3722558.2473431	NaN	3722559.2307462	3722559.74731042
106	19	0	0	90	36.1581920903955	36.241610738255	11	0.366704183910042	2	11	5	NaN	2	4	0.118274082371019	1	1	NaN	120	2	57	1	121	221	321	NaN	521	0.481870327610523	2	1	NaN	3722561.0309452	NaN	3722562.0143519	3722562.53091237
106	19	0	0	90	36.1581920903955	36.241610738255	10	0.33336743991822	2	1	3	NaN	1	4	0.118274082371019	1	1	NaN	121	2	58	1	121	221	321	NaN	521	0.561549128033221	1	1	NaN	3722563.8312328	NaN	3722564.8146265	3722565.33119417
106	19	0	0	90	36.1581920903955	36.241610738255	21	0.700071623828262	2	9	2	NaN	2	4	0.118274082371019	1	1	NaN	122	2	59	1	121	221	321	NaN	521	0.365621875505894	2	1	NaN	3722566.7148465	NaN	3722567.6982479	3722568.21480042
106	19	0	0	90	36.1581920903955	36.241610738255	25	0.83341859979555	2	10	5	NaN	2	5	0.118274082371019	1	1	NaN	123	2	60	1	121	221	321	NaN	521	0.354017527773976	2	1	NaN	3722569.3984474	NaN	3722570.3818509	3722570.89840337
106	19	0	0	90	36.1581920903955	36.241610738255	23	0.766745111811906	2	11	1	NaN	2	5	0.118274082371019	1	1	NaN	124	2	61	1	121	221	321	NaN	521	0.695526575669646	2	1	NaN	3722572.065374	NaN	3722573.0487877	3722573.56532822
106	19	0	0	90	36.1581920903955	36.241610738255	0	0	1	3	2	NaN	1	4	0.118274082371019	1	1	NaN	125	2	62	1	111	211	311	NaN	511	0.358534927479923	1	1	NaN	3722575.0823508	NaN	3722576.0657383	3722576.58229877
106	19	0	0	90	36.1581920903955	36.241610738255	20	0.66673487983644	2	5	6	NaN	1	3	0.118274082371019	1	1	NaN	126	2	63	1	121	221	321	NaN	521	0.723324027843773	1	1	NaN	3722577.7492531	NaN	3722578.7326717	3722579.24922767
106	19	0	0	90	36.1581920903955	36.241610738255	25	0.83341859979555	2	10	1	NaN	2	4	0.118274082371019	1	1	NaN	127	3	1	1	121	221	321	NaN	521	0.452016639523208	2	1	NaN	3722599.2847206	NaN	3722600.2681717	3722600.78467556
106	19	0	0	90	36.1581920903955	36.241610738255	11	0.366704183910042	2	3	5	NaN	1	3	0.118274082371019	1	1	NaN	128	3	2	1	121	221	321	NaN	521	0.476802127435803	1	1	NaN	3722602.0516616	NaN	3722603.0350831	3722603.55161077
106	19	0	0	90	36.1581920903955	36.241610738255	22	0.733408367820084	2	2	2	NaN	1	4	0.118274082371019	1	1	NaN	129	3	3	1	121	221	321	NaN	521	0.405201827641577	1	1	NaN	3722604.8352619	NaN	3722605.8186597	3722606.33521887
106	19	0	0	90	36.1581920903955	36.241610738255	8	0.266693951934576	2	1	4	NaN	1	3	0.118274082371019	1	1	NaN	130	3	4	1	121	221	321	NaN	521	0.36825592815876	1	1	NaN	3722607.5521914	NaN	3722608.5355975	3722609.05215087
106	19	0	0	90	36.1581920903955	36.241610738255	24	0.800081855803728	2	10	1	NaN	2	3	0.118274082371019	1	1	NaN	131	3	5	1	121	221	321	NaN	521	0.308906571939588	2	1	NaN	3722610.2357847	NaN	3722611.219213	3722611.73574223
106	19	0	0	90	36.1581920903955	36.241610738255	7	0.233357207942754	2	10	3	NaN	2	4	0.118274082371019	1	1	NaN	132	3	6	1	121	221	321	NaN	521	0.547627575695515	2	1	NaN	3722612.8528065	NaN	3722613.8361254	3722614.35267252
106	19	0	0	90	36.1581920903955	36.241610738255	25	0.83341859979555	2	9	2	NaN	2	3	0.118274082371019	1	1	NaN	133	3	7	1	121	221	321	NaN	521	0.777784075587988	2	1	NaN	3722615.7028892	NaN	3722616.6864039	3722617.20294652
106	19	0	0	90	36.1581920903955	36.241610738255	9	0.300030695926398	2	8	6	NaN	2	3	0.118274082371019	1	1	NaN	134	3	8	1	121	221	321	NaN	521	0.485401627607644	2	1	NaN	3722618.8033166	NaN	3722619.7867033	3722620.30325677
106	19	0	0	90	36.1581920903955	36.241610738255	21	0.700071623828262	2	10	2	NaN	2	3	0.118274082371019	1	1	NaN	135	3	9	1	121	221	321	NaN	521	0.565175075549632	2	1	NaN	3722621.6035728	NaN	3722622.5869895	3722623.10352242
106	19	0	0	90	36.1581920903955	36.241610738255	16	0.533387903869152	2	7	4	NaN	2	3	0.118274082371019	1	1	NaN	136	3	10	1	121	221	321	NaN	521	0.377481727860868	2	1	NaN	3722624.4872199	NaN	3722625.4705874	3722625.98715047
106	19	0	0	90	36.1581920903955	36.241610738255	7	0.233357207942754	2	9	5	NaN	2	3	0.118274082371019	1	1	NaN	137	3	11	1	121	221	321	NaN	521	0.373507627751678	2	1	NaN	3722627.1874553	NaN	3722628.1708681	3722628.68741207
106	19	0	0	90	36.1581920903955	36.241610738255	10	0.33336743991822	2	3	3	NaN	1	5	0.118274082371019	1	1	NaN	138	3	12	1	121	221	321	NaN	521	0.161275427788496	1	1	NaN	3722629.871071	NaN	3722630.8544499	3722631.37101447
106	19	0	0	90	36.1581920903955	36.241610738255	19	0.633398135844618	2	12	2	NaN	2	4	0.118274082371019	1	1	NaN	139	3	13	1	121	221	321	NaN	521	1.42993649607524	1	0	NaN	3722632.3546235	NaN	3722633.3380589	3722633.8545874
106	19	0	0	90	36.1581920903955	36.241610738255	18	0.600061391852796	2	5	3	NaN	1	3	0.118274082371019	1	1	NaN	140	3	14	1	121	221	321	NaN	521	0.479720275849104	1	1	NaN	3722636.1050966	NaN	3722637.0883949	3722637.60494842
106	19	0	0	90	36.1581920903955	36.241610738255	21	0.700071623828262	2	9	4	NaN	2	3	0.118274082371019	1	1	NaN	141	3	15	1	121	221	321	NaN	521	5.32006087526679	1	0	NaN	3722638.8886074	NaN	3722639.8719995	3722640.38855372
106	19	0	0	90	36.1581920903955	36.241610738255	16	0.533387903869152	2	2	2	NaN	1	4	0.118274082371019	1	1	NaN	142	3	16	1	121	221	321	NaN	521	0.604356428142637	1	1	NaN	3722646.7727202	NaN	3722647.7561269	3722648.27267527
106	19	0	0	90	36.1581920903955	36.241610738255	15	0.50005115987733	2	1	6	NaN	1	4	0.118274082371019	1	1	NaN	143	3	17	1	121	221	321	NaN	521	0.50301362760365	1	1	NaN	3722649.6896636	NaN	3722650.6730962	3722651.18962497
106	19	0	0	90	36.1581920903955	36.241610738255	16	0.533387903869152	2	4	6	NaN	1	3	0.118274082371019	1	1	NaN	144	3	18	1	121	221	321	NaN	521	1.30218632752076	2	0	NaN	3722652.5066115	NaN	3722653.4900178	3722654.00657117
106	19	0	0	90	36.1581920903955	36.241610738255	6	0.200020463950932	2	1	2	NaN	1	5	0.118274082371019	1	1	NaN	145	3	19	1	121	221	321	NaN	521	0.61326554371044	1	1	NaN	3722656.1236252	NaN	3722657.1070238	3722657.62359906
106	19	0	0	90	36.1581920903955	36.241610738255	16	0.533387903869152	2	2	2	NaN	1	5	0.118274082371019	1	1	NaN	146	3	20	1	121	221	321	NaN	521	0.536173275671899	1	1	NaN	3722659.0406147	NaN	3722660.0239914	3722660.54053512
106	19	0	0	90	36.1581920903955	36.241610738255	17	0.566724647860974	2	6	2	NaN	1	3	0.118274082371019	1	1	NaN	147	3	21	1	121	221	321	NaN	521	0.581500927451998	1	1	NaN	3722662.1074556	NaN	3722663.0909495	3722663.60751387
106	19	0	0	90	36.1581920903955	36.241610738255	21	0.700071623828262	2	7	1	NaN	2	4	0.118274082371019	1	1	NaN	148	3	22	1	121	221	321	NaN	521	0.561123727820814	2	1	NaN	3722665.0078543	NaN	3722665.991241	3722666.50779387
106	19	0	0	90	36.1581920903955	36.241610738255	16	0.533387903869152	2	6	4	NaN	1	4	0.118274082371019	1	1	NaN	149	3	23	1	121	221	321	NaN	521	0.733346644323319	1	1	NaN	3722667.8914637	NaN	3722668.8748696	3722669.39142186
106	19	0	0	90	36.1581920903955	36.241610738255	7	0.233357207942754	2	12	5	NaN	2	5	0.118274082371019	1	1	NaN	150	3	24	1	121	221	321	NaN	521	2.34699117532	2	1	NaN	3722670.9417604	NaN	3722671.9251519	3722672.44170522
106	19	0	0	90	36.1581920903955	36.241610738255	8	0.266693951934576	2	5	4	NaN	1	4	0.118274082371019	1	1	NaN	151	3	25	1	121	221	321	NaN	521	0.600233527831733	1	1	NaN	3722675.5922201	NaN	3722676.5756084	3722677.09217337
106	19	0	0	90	36.1581920903955	36.241610738255	22	0.733408367820084	2	6	1	NaN	1	4	0.118274082371019	1	1	NaN	152	3	26	1	121	221	321	NaN	521	0.403894275426865	1	1	NaN	3722678.5091604	NaN	3722679.4925673	3722680.00911472
106	19	0	0	90	36.1581920903955	36.241610738255	14	0.466714415885508	2	8	3	NaN	2	5	0.118274082371019	1	1	NaN	153	3	27	1	121	221	321	NaN	521	0.478664027992636	2	1	NaN	3722681.2260963	NaN	3722682.2095072	3722682.72605817
106	19	0	0	90	36.1581920903955	36.241610738255	0	0	1	11	1	NaN	2	4	0.118274082371019	1	1	NaN	154	3	28	1	111	211	311	NaN	511	1.91093462752178	2	1	NaN	3722684.0097058	NaN	3722684.9931084	3722685.50966627
106	19	0	0	90	36.1581920903955	36.241610738255	6	0.200020463950932	2	10	4	NaN	2	5	0.118274082371019	1	1	NaN	155	3	29	1	121	221	321	NaN	521	0.82986332802102	2	1	NaN	3722688.2267822	NaN	3722689.2101922	3722689.72674457
106	19	0	0	90	36.1581920903955	36.241610738255	8	0.266693951934576	2	2	5	NaN	1	5	0.118274082371019	1	1	NaN	156	3	30	1	121	221	321	NaN	521	0.64759922772646	1	1	NaN	3722691.3770966	NaN	3722692.3604967	3722692.87705697
106	19	0	0	90	36.1581920903955	36.241610738255	23	0.766745111811906	2	4	6	NaN	1	5	0.118274082371019	1	1	NaN	157	3	31	1	121	221	321	NaN	521	6.84853567555547	2	0	NaN	3722694.3440619	NaN	3722695.3274715	3722695.84400352
106	19	0	0	90	36.1581920903955	36.241610738255	10	0.33336743991822	2	6	3	NaN	1	5	0.118274082371019	1	1	NaN	158	3	32	1	121	221	321	NaN	521	0.673173223622143	1	1	NaN	3722703.5117236	NaN	3722704.495023	3722705.01157548
106	19	0	0	90	36.1581920903955	36.241610738255	6	0.200020463950932	2	5	5	NaN	1	3	0.118274082371019	1	1	NaN	159	3	33	1	121	221	321	NaN	521	0.912845124024898	2	0	NaN	3722706.7119471	NaN	3722707.6953559	3722708.21189238
106	19	0	0	90	36.1581920903955	36.241610738255	7	0.233357207942754	2	11	6	NaN	2	5	0.118274082371019	1	1	NaN	160	3	34	1	121	221	321	NaN	521	0.703124027699232	2	1	NaN	3722709.9455933	NaN	3722710.9290244	3722711.44556317
106	19	0	0	90	36.1581920903955	36.241610738255	20	0.66673487983644	2	12	4	NaN	2	3	0.118274082371019	1	1	NaN	161	3	35	1	121	221	321	NaN	521	0.62088497588411	2	1	NaN	3722712.9958769	NaN	3722713.979298	3722714.49583962
106	19	0	0	90	36.1581920903955	36.241610738255	20	0.66673487983644	2	1	2	NaN	1	4	0.118274082371019	1	1	NaN	162	3	36	1	121	221	321	NaN	521	0.495163544081151	1	1	NaN	3722715.9295056	NaN	3722716.9129067	3722717.42946626
106	19	0	0	90	36.1581920903955	36.241610738255	24	0.800081855803728	2	1	4	NaN	1	3	0.118274082371019	1	1	NaN	163	3	37	1	121	221	321	NaN	521	1.83890187554061	1	1	NaN	3722718.7297774	NaN	3722719.7131903	3722720.22974012
106	19	0	0	90	36.1581920903955	36.241610738255	7	0.233357207942754	2	8	3	NaN	2	4	0.118274082371019	1	1	NaN	164	3	38	1	121	221	321	NaN	521	1.10472097527236	2	1	NaN	3722722.8801803	NaN	3722723.8635899	3722724.38014742
106	19	0	0	90	36.1581920903955	36.241610738255	0	0	1	3	3	NaN	1	3	0.118274082371019	1	1	NaN	165	3	39	1	111	211	311	NaN	511	1.40797352371737	1	1	NaN	3722726.2972116	NaN	3722727.280617	3722727.79714728
106	19	0	0	90	36.1581920903955	36.241610738255	22	0.733408367820084	2	9	5	NaN	2	5	0.118274082371019	1	1	NaN	166	3	40	1	121	221	321	NaN	521	0.794746375642717	2	1	NaN	3722730.014221	NaN	3722730.9976451	3722731.51417302
106	19	0	0	90	36.1581920903955	36.241610738255	17	0.566724647860974	2	6	5	NaN	1	4	0.118274082371019	1	1	NaN	167	3	41	1	121	221	321	NaN	521	1.15798497991636	1	1	NaN	3722733.1312044	NaN	3722734.1146068	3722734.63116012
106	19	0	0	90	36.1581920903955	36.241610738255	8	0.266693951934576	2	3	2	NaN	1	4	0.118274082371019	1	1	NaN	168	3	42	1	121	221	321	NaN	521	0.866533527616411	1	1	NaN	3722736.5980966	NaN	3722737.5815857	3722738.09816327
106	19	0	0	90	36.1581920903955	36.241610738255	18	0.600061391852796	2	11	1	NaN	2	5	0.118274082371019	1	1	NaN	169	3	43	1	121	221	321	NaN	521	1.05020262766629	2	1	NaN	3722740.5986177	NaN	3722741.5820054	3722742.09855067
106	19	0	0	90	36.1581920903955	36.241610738255	7	0.233357207942754	2	12	5	NaN	2	4	0.118274082371019	1	1	NaN	170	3	44	1	121	221	321	NaN	521	8.13112657563761	2	1	NaN	3722743.9656106	NaN	3722744.9489959	3722745.46554722
106	19	0	0	90	36.1581920903955	36.241610738255	12	0.400040927901864	2	1	4	NaN	1	5	0.118274082371019	1	1	NaN	171	3	45	1	121	221	321	NaN	521	0.344072175677866	1	1	NaN	3722754.4166229	NaN	3722755.4000405	3722755.91657462
106	19	0	0	90	36.1581920903955	36.241610738255	22	0.733408367820084	2	5	6	NaN	1	4	0.118274082371019	1	1	NaN	172	3	46	1	121	221	321	NaN	521	0.519878027494997	1	1	NaN	3722757.817001	NaN	3722758.8003725	3722759.31691687
106	19	0	0	90	36.1581920903955	36.241610738255	7	0.233357207942754	2	1	5	NaN	1	4	0.118274082371019	1	1	NaN	173	3	47	1	121	221	321	NaN	521	0.646580080036074	1	1	NaN	3722760.6505823	NaN	3722761.634059	3722762.15052402
106	19	0	0	90	36.1581920903955	36.241610738255	13	0.433377671893686	2	2	6	NaN	1	5	0.118274082371019	1	1	NaN	174	3	48	1	121	221	321	NaN	521	8.53692797571421	1	1	NaN	3722764.5842871	NaN	3722765.5676975	3722766.08424242
106	19	0	0	90	36.1581920903955	36.241610738255	12	0.400040927901864	2	12	5	NaN	2	4	0.118274082371019	1	1	NaN	175	3	49	1	121	221	321	NaN	521	0.333947575185448	2	1	NaN	3722775.4353543	NaN	3722776.4187669	3722776.93530272
106	19	0	0	90	36.1581920903955	36.241610738255	18	0.600061391852796	2	2	3	NaN	1	3	0.118274082371019	1	1	NaN	176	3	50	1	121	221	321	NaN	521	0.23509632749483	1	1	NaN	3722778.0856166	NaN	3722779.0690143	3722779.58557217
106	19	0	0	90	36.1581920903955	36.241610738255	18	0.600061391852796	2	4	1	NaN	1	3	0.118274082371019	1	1	NaN	177	3	51	1	121	221	321	NaN	521	0.236940875649452	1	1	NaN	3722780.6357441	NaN	3722781.61936	3722782.13582262
106	19	0	0	90	36.1581920903955	36.241610738255	14	0.466714415885508	2	5	4	NaN	1	5	0.118274082371019	1	1	NaN	178	3	52	1	121	221	321	NaN	521	0.422834335826337	1	1	NaN	3722783.1861702	NaN	3722784.1695271	3722784.68607106
106	19	0	0	90	36.1581920903955	36.241610738255	13	0.433377671893686	2	9	2	NaN	2	4	0.118274082371019	1	1	NaN	179	3	53	1	121	221	321	NaN	521	0.393362727481872	2	1	NaN	3722785.9197168	NaN	3722786.9031192	3722787.41967757
106	19	0	0	90	36.1581920903955	36.241610738255	21	0.700071623828262	2	4	5	NaN	1	5	0.118274082371019	1	1	NaN	180	3	54	1	121	221	321	NaN	521	0.572242635767907	1	1	NaN	3722788.636668	NaN	3722789.6200645	3722790.13660456
106	19	0	0	90	36.1581920903955	36.241610738255	18	0.600061391852796	2	10	1	NaN	2	5	0.118274082371019	1	1	NaN	181	3	55	1	121	221	321	NaN	521	0.16050107544288	2	1	NaN	3722791.5203705	NaN	3722792.5036933	3722793.02021602
106	19	0	0	90	36.1581920903955	36.241610738255	21	0.700071623828262	2	8	1	NaN	2	3	0.118274082371019	1	1	NaN	182	3	56	1	121	221	321	NaN	521	0.485090227797627	2	1	NaN	3722794.0038422	NaN	3722794.9872496	3722795.50380497
106	19	0	0	90	36.1581920903955	36.241610738255	24	0.800081855803728	2	9	4	NaN	2	3	0.118274082371019	1	1	NaN	183	3	57	1	121	221	321	NaN	521	1.27698807558045	2	1	NaN	3722798.0042508	NaN	3722798.987648	3722799.50419042
106	19	0	0	90	36.1581920903955	36.241610738255	12	0.400040927901864	2	9	4	NaN	2	4	0.118274082371019	1	1	NaN	184	3	58	1	121	221	321	NaN	521	0.70135627547279	2	1	NaN	3722801.5879281	NaN	3722802.5714201	3722803.08787722
106	19	0	0	90	36.1581920903955	36.241610738255	20	0.66673487983644	2	9	1	NaN	2	4	0.118274082371019	1	1	NaN	185	3	59	1	121	221	321	NaN	521	0.692289179656655	2	1	NaN	3722804.6048905	NaN	3722805.5882883	3722806.10484122
106	19	0	0	90	36.1581920903955	36.241610738255	22	0.733408367820084	2	1	5	NaN	1	5	0.118274082371019	1	1	NaN	186	3	60	1	121	221	321	NaN	521	0.500031975563616	1	1	NaN	3722807.6051941	NaN	3722808.5885706	3722809.10513752
106	19	0	0	90	36.1581920903955	36.241610738255	12	0.400040927901864	2	5	6	NaN	1	3	0.118274082371019	1	1	NaN	187	3	61	1	121	221	321	NaN	521	0.738685075659305	1	1	NaN	3722810.422132	NaN	3722811.4055258	3722811.92207782
106	19	0	0	90	36.1581920903955	36.241610738255	19	0.633398135844618	2	3	1	NaN	1	5	0.118274082371019	1	1	NaN	188	3	62	1	121	221	321	NaN	521	0.616332432255149	1	1	NaN	3722813.4724245	NaN	3722814.4558605	3722814.97237777
106	19	0	0	90	36.1581920903955	36.241610738255	20	0.66673487983644	2	8	3	NaN	2	3	0.118274082371019	1	1	NaN	189	3	63	1	121	221	321	NaN	521	7.35502442764118	2	1	NaN	3722816.40605	NaN	3722817.3894564	3722817.90600427
106	19	0	0	90	36.1581920903955	36.241610738255	11	0.366704183910042	2	12	1	NaN	2	5	0.118274082371019	1	1	NaN	190	4	1	1	121	221	321	NaN	521	6.07169642811641	2	1	NaN	3722853.0096204	NaN	3722853.9930579	3722854.50959247
106	19	0	0	90	36.1581920903955	36.241610738255	12	0.400040927901864	2	2	4	NaN	1	3	0.118274082371019	1	1	NaN	191	4	2	1	121	221	321	NaN	521	0.703503644093871	2	0	NaN	3722861.3937919	NaN	3722862.3772112	3722862.89377896
106	19	0	0	90	36.1581920903955	36.241610738255	21	0.700071623828262	2	10	5	NaN	2	4	0.118274082371019	1	1	NaN	192	4	3	1	121	221	321	NaN	521	0.670383875723928	2	1	NaN	3722864.4107557	NaN	3722865.3941592	3722865.91071022
106	19	0	0	90	36.1581920903955	36.241610738255	13	0.433377671893686	2	6	4	NaN	1	3	0.118274082371019	1	1	NaN	193	4	4	1	121	221	321	NaN	521	0.494919327553362	1	1	NaN	3722867.394266	NaN	3722868.3776911	3722868.89434497
106	19	0	0	90	36.1581920903955	36.241610738255	12	0.400040927901864	2	10	2	NaN	2	5	0.118274082371019	1	1	NaN	194	4	5	1	121	221	321	NaN	521	0.798645027913153	2	1	NaN	3722870.1946601	NaN	3722871.1780533	3722871.69462147
106	19	0	0	90	36.1581920903955	36.241610738255	8	0.266693951934576	2	5	1	NaN	1	3	0.118274082371019	1	1	NaN	195	4	6	1	121	221	321	NaN	521	0.169468727428466	1	1	NaN	3722873.3116558	NaN	3722874.2950507	3722874.81159617
106	19	0	0	90	36.1581920903955	36.241610738255	15	0.50005115987733	2	10	1	NaN	2	4	0.118274082371019	1	1	NaN	196	4	7	1	121	221	321	NaN	521	0.333794028032571	2	1	NaN	3722875.7952419	NaN	3722876.7786205	3722877.29517417
106	19	0	0	90	36.1581920903955	36.241610738255	16	0.533387903869152	2	1	2	NaN	1	5	0.118274082371019	1	1	NaN	197	4	8	1	121	221	321	NaN	521	1.23538102768362	1	1	NaN	3722878.4454814	NaN	3722879.4288611	3722879.94543097
106	19	0	0	90	36.1581920903955	36.241610738255	10	0.33336743991822	2	9	4	NaN	2	3	0.118274082371019	1	1	NaN	198	4	9	1	121	221	321	NaN	521	0.221351875923574	2	1	NaN	3722881.9958365	NaN	3722882.9792846	3722883.49577492
106	19	0	0	90	36.1581920903955	36.241610738255	8	0.266693951934576	2	9	5	NaN	2	4	0.118274082371019	1	1	NaN	199	4	10	1	121	221	321	NaN	521	0.45588007569313	2	1	NaN	3722884.5295149	NaN	3722885.5128026	3722886.02935662
106	19	0	0	90	36.1581920903955	36.241610738255	17	0.566724647860974	2	1	4	NaN	1	5	0.118274082371019	1	1	NaN	200	4	11	1	121	221	321	NaN	521	0.480739975348115	1	1	NaN	3722887.2963302	NaN	3722888.2797421	3722888.79630072
106	19	0	0	90	36.1581920903955	36.241610738255	9	0.300030695926398	2	6	4	NaN	1	5	0.118274082371019	1	1	NaN	201	4	12	1	121	221	321	NaN	521	0.488742128014565	1	1	NaN	3722890.0966155	NaN	3722891.0800208	3722891.59657947
106	19	0	0	90	36.1581920903955	36.241610738255	8	0.266693951934576	2	2	2	NaN	1	5	0.118274082371019	1	1	NaN	202	4	13	1	121	221	321	NaN	521	0.432484975550324	1	1	NaN	3722892.8967655	NaN	3722893.8803062	3722894.39684352
106	19	0	0	90	36.1581920903955	36.241610738255	7	0.233357207942754	2	9	1	NaN	2	3	0.118274082371019	1	1	NaN	203	4	14	1	121	221	321	NaN	521	0.258821275550872	2	1	NaN	3722895.6305044	NaN	3722896.613903	3722897.13044552
106	19	0	0	90	36.1581920903955	36.241610738255	23	0.766745111811906	2	9	3	NaN	2	4	0.118274082371019	1	1	NaN	204	4	15	1	121	221	321	NaN	521	1.13934127567336	2	1	NaN	3722898.1974153	NaN	3722899.1808394	3722899.69737512
106	19	0	0	90	36.1581920903955	36.241610738255	11	0.366704183910042	2	3	5	NaN	1	4	0.118274082371019	1	1	NaN	205	4	16	1	121	221	321	NaN	521	0.41717462753877	1	1	NaN	3722901.6477497	NaN	3722902.6311501	3722903.14770807
106	19	0	0	90	36.1581920903955	36.241610738255	13	0.433377671893686	2	4	3	NaN	1	4	0.118274082371019	1	1	NaN	206	4	17	1	121	221	321	NaN	521	0.87571497540921	1	1	NaN	3722904.3813517	NaN	3722905.3647638	3722905.88130372
106	19	0	0	90	36.1581920903955	36.241610738255	12	0.400040927901864	2	3	6	NaN	1	3	0.118274082371019	1	1	NaN	207	4	18	1	121	221	321	NaN	521	0.50850542774424	1	1	NaN	3722908.1483031	NaN	3722909.1317898	3722909.64834787
106	19	0	0	90	36.1581920903955	36.241610738255	24	0.800081855803728	2	12	4	NaN	2	4	0.118274082371019	1	1	NaN	208	4	19	1	121	221	321	NaN	521	1.00352583220229	2	1	NaN	3722910.9653321	NaN	3722911.9487464	3722912.46529057
106	19	0	0	90	36.1581920903955	36.241610738255	15	0.50005115987733	2	9	2	NaN	2	5	0.118274082371019	1	1	NaN	209	4	20	1	121	221	321	NaN	521	10.6870122277178	2	1	NaN	3722914.2822141	NaN	3722915.2657481	3722915.78228437
106	19	0	0	90	36.1581920903955	36.241610738255	16	0.533387903869152	2	6	3	NaN	1	5	0.118274082371019	1	1	NaN	210	4	21	1	121	221	321	NaN	521	0.317808427382261	1	1	NaN	3722927.2836065	NaN	3722928.2670143	3722928.78356477
106	19	0	0	90	36.1581920903955	36.241610738255	6	0.200020463950932	2	3	3	NaN	1	4	0.118274082371019	1	1	NaN	211	4	22	1	121	221	321	NaN	521	0.132116428110749	1	1	NaN	3722929.9170764	NaN	3722930.9006389	3722931.41715267
106	19	0	0	90	36.1581920903955	36.241610738255	16	0.533387903869152	2	9	1	NaN	2	4	0.118274082371019	1	1	NaN	212	4	23	1	121	221	321	NaN	521	0.481992175336927	2	1	NaN	3722932.3674469	NaN	3722933.3508499	3722933.86738562
106	19	0	0	90	36.1581920903955	36.241610738255	8	0.266693951934576	2	8	5	NaN	2	5	0.118274082371019	1	1	NaN	213	4	24	1	121	221	321	NaN	521	0.537311227526516	2	1	NaN	3722935.1678147	NaN	3722936.1511184	3722936.66767107
106	19	0	0	90	36.1581920903955	36.241610738255	9	0.300030695926398	2	5	5	NaN	1	4	0.118274082371019	1	1	NaN	214	4	25	1	121	221	321	NaN	521	2.68736103968695	2	0	NaN	3722938.0179992	NaN	3722939.0014157	3722939.51794626
106	19	0	0	90	36.1581920903955	36.241610738255	15	0.50005115987733	2	11	1	NaN	2	5	0.118274082371019	1	1	NaN	215	4	26	1	121	221	321	NaN	521	0.438630675431341	2	1	NaN	3722943.0183621	NaN	3722944.0018968	3722944.51843962
106	19	0	0	90	36.1581920903955	36.241610738255	25	0.83341859979555	2	5	5	NaN	1	5	0.118274082371019	1	1	NaN	216	4	27	1	121	221	321	NaN	521	0.264817975461483	1	1	NaN	3722945.7687601	NaN	3722946.7521718	3722947.26870262
106	19	0	0	90	36.1581920903955	36.241610738255	25	0.83341859979555	2	2	6	NaN	1	4	0.118274082371019	1	1	NaN	217	4	28	1	121	221	321	NaN	521	0.696652927901596	1	1	NaN	3722948.3523505	NaN	3722949.335741	3722949.85230367
106	19	0	0	90	36.1581920903955	36.241610738255	22	0.733408367820084	2	7	5	NaN	2	4	0.118274082371019	1	1	NaN	218	4	29	1	121	221	321	NaN	521	0.880281127989292	2	1	NaN	3722951.3693065	NaN	3722952.3527114	3722952.86926277
106	19	0	0	90	36.1581920903955	36.241610738255	21	0.700071623828262	2	8	4	NaN	2	4	0.118274082371019	1	1	NaN	219	4	30	1	121	221	321	NaN	521	0.608437327668071	2	1	NaN	3722954.5529837	NaN	3722955.5363617	3722956.05290897
106	19	0	0	90	36.1581920903955	36.241610738255	17	0.566724647860974	2	3	1	NaN	1	4	0.118274082371019	1	1	NaN	220	4	31	1	121	221	321	NaN	521	0.466881127562374	1	1	NaN	3722957.486459	NaN	3722958.4699842	3722958.98653317
106	19	0	0	90	36.1581920903955	36.241610738255	6	0.200020463950932	2	7	3	NaN	2	5	0.118274082371019	1	1	NaN	221	4	32	1	121	221	321	NaN	521	8.1552819753997	2	1	NaN	3722960.2702784	NaN	3722961.2535822	3722961.77013372
106	19	0	0	90	36.1581920903955	36.241610738255	12	0.400040927901864	2	11	2	NaN	2	5	0.118274082371019	1	1	NaN	222	4	33	1	121	221	321	NaN	521	0.543285675346851	1	0	NaN	3722970.7378658	NaN	3722971.7212811	3722972.23782602
106	19	0	0	90	36.1581920903955	36.241610738255	12	0.400040927901864	2	4	4	NaN	1	5	0.118274082371019	1	1	NaN	223	4	34	1	121	221	321	NaN	521	0.431549627799541	2	0	NaN	3722974.3215538	NaN	3722975.3049828	3722975.82151797
106	19	0	0	90	36.1581920903955	36.241610738255	10	0.33336743991822	2	10	6	NaN	2	3	0.118274082371019	1	1	NaN	224	4	35	1	121	221	321	NaN	521	0.441672827582806	2	1	NaN	3722977.0718372	NaN	3722978.0552487	3722978.57178957
106	19	0	0	90	36.1581920903955	36.241610738255	0	0	1	2	4	NaN	1	3	0.118274082371019	1	1	NaN	225	4	36	1	111	211	311	NaN	511	0.483394075650722	1	1	NaN	3722979.8219876	NaN	3722980.8055022	3722981.32205562
106	19	0	0	90	36.1581920903955	36.241610738255	6	0.200020463950932	2	4	5	NaN	1	4	0.118274082371019	1	1	NaN	226	4	37	1	121	221	321	NaN	521	2.69064937578514	2	0	NaN	3722982.6222525	NaN	3722983.6057885	3722984.12232642
106	19	0	0	90	36.1581920903955	36.241610738255	19	0.633398135844618	2	8	3	NaN	2	4	0.118274082371019	1	1	NaN	227	4	38	1	121	221	321	NaN	521	0.754207975696772	2	1	NaN	3722987.6229672	NaN	3722988.6062608	3722989.12282372
106	19	0	0	90	36.1581920903955	36.241610738255	16	0.533387903869152	2	10	4	NaN	2	4	0.118274082371019	1	1	NaN	228	4	39	1	121	221	321	NaN	521	4.63098737550899	2	1	NaN	3722990.6898547	NaN	3722991.6732538	3722992.18980332
106	19	0	0	90	36.1581920903955	36.241610738255	8	0.266693951934576	2	8	1	NaN	2	5	0.118274082371019	1	1	NaN	229	4	40	1	121	221	321	NaN	521	0.496068375185132	2	1	NaN	3722997.6571915	NaN	3722998.6405889	3722999.15713462
106	19	0	0	90	36.1581920903955	36.241610738255	10	0.33336743991822	2	5	3	NaN	1	4	0.118274082371019	1	1	NaN	230	4	41	1	121	221	321	NaN	521	0.0103966277092695	1	1	NaN	3723000.4741322	NaN	3723001.4575409	3723001.97408977
106	19	0	0	90	36.1581920903955	36.241610738255	6	0.200020463950932	2	7	1	NaN	2	5	0.118274082371019	1	1	NaN	231	4	42	1	121	221	321	NaN	521	1.06648752791807	2	1	NaN	3723002.7910559	NaN	3723003.7744257	3723004.29098367
106	19	0	0	90	36.1581920903955	36.241610738255	13	0.433377671893686	2	5	1	NaN	1	4	0.118274082371019	1	1	NaN	232	4	43	1	121	221	321	NaN	521	0.770880227442831	1	1	NaN	3723006.1746822	NaN	3723007.1581131	3723007.67463967
106	19	0	0	90	36.1581920903955	36.241610738255	0	0	1	8	3	NaN	2	5	0.118274082371019	1	1	NaN	233	4	44	1	111	211	311	NaN	511	0.310642175842077	2	1	NaN	3723009.2583361	NaN	3723010.2417215	3723010.75827432
106	19	0	0	90	36.1581920903955	36.241610738255	15	0.50005115987733	2	10	4	NaN	2	5	0.118274082371019	1	1	NaN	234	4	45	1	121	221	321	NaN	521	0.806062527932227	2	1	NaN	3723011.8751234	NaN	3723012.8586633	3723013.37520667
106	19	0	0	90	36.1581920903955	36.241610738255	7	0.233357207942754	2	10	2	NaN	2	5	0.118274082371019	1	1	NaN	235	4	46	1	121	221	321	NaN	521	0.792903327848762	2	1	NaN	3723014.9922223	NaN	3723015.9756244	3723016.49218367
106	19	0	0	90	36.1581920903955	36.241610738255	24	0.800081855803728	2	6	4	NaN	1	5	0.118274082371019	1	1	NaN	236	4	47	1	121	221	321	NaN	521	0.380771375726908	1	1	NaN	3723018.0924231	NaN	3723019.0759402	3723019.59247732
106	19	0	0	90	36.1581920903955	36.241610738255	23	0.766745111811906	2	3	1	NaN	1	3	0.118274082371019	1	1	NaN	237	4	48	1	121	221	321	NaN	521	0.504528735764325	1	1	NaN	3723020.7927908	NaN	3723021.7762012	3723022.29275006
106	19	0	0	90	36.1581920903955	36.241610738255	9	0.300030695926398	2	12	4	NaN	2	5	0.118274082371019	1	1	NaN	238	4	49	1	121	221	321	NaN	521	0.447280748281628	2	1	NaN	3723023.6097468	NaN	3723024.593141	3723025.10969955
106	19	0	0	90	36.1581920903955	36.241610738255	13	0.433377671893686	2	12	2	NaN	2	3	0.118274082371019	1	1	NaN	239	4	50	1	121	221	321	NaN	521	1.87280902732164	1	0	NaN	3723026.3766713	NaN	3723027.3600715	3723027.87663407
106	19	0	0	90	36.1581920903955	36.241610738255	16	0.533387903869152	2	4	2	NaN	1	3	0.118274082371019	1	1	NaN	240	4	51	1	121	221	321	NaN	521	0.708237075712532	2	0	NaN	3723031.2770674	NaN	3723032.2605647	3723032.77710812
106	19	0	0	90	36.1581920903955	36.241610738255	9	0.300030695926398	2	8	4	NaN	2	5	0.118274082371019	1	1	NaN	241	4	52	1	121	221	321	NaN	521	0.626918043941259	2	1	NaN	3723034.2941498	NaN	3723035.2775228	3723035.79407356
106	19	0	0	90	36.1581920903955	36.241610738255	0	0	1	9	6	NaN	2	3	0.118274082371019	1	1	NaN	242	4	53	1	111	211	311	NaN	511	5.55423937551677	2	1	NaN	3723037.7111056	NaN	3723038.694441	3723039.21108082
106	19	0	0	90	36.1581920903955	36.241610738255	0	0	1	8	5	NaN	2	3	0.118274082371019	1	1	NaN	243	4	54	1	111	211	311	NaN	511	0.878769927658141	2	1	NaN	3723045.5785542	NaN	3723046.5620048	3723047.07851577
106	19	0	0	90	36.1581920903955	36.241610738255	12	0.400040927901864	2	10	6	NaN	2	4	0.118274082371019	1	1	NaN	244	4	55	1	121	221	321	NaN	521	0.756641075480729	2	1	NaN	3723049.8290792	NaN	3723050.8123124	3723051.32892992
106	19	0	0	90	36.1581920903955	36.241610738255	20	0.66673487983644	2	7	4	NaN	2	5	0.118274082371019	1	1	NaN	245	4	56	1	121	221	321	NaN	521	0.657739628106356	2	1	NaN	3723052.8958462	NaN	3723053.879346	3723054.39590607
106	19	0	0	90	36.1581920903955	36.241610738255	19	0.633398135844618	2	7	1	NaN	2	4	0.118274082371019	1	1	NaN	246	4	57	1	121	221	321	NaN	521	0.858661175239831	2	1	NaN	3723055.8629115	NaN	3723056.8463265	3723057.36285342
106	19	0	0	90	36.1581920903955	36.241610738255	7	0.233357207942754	2	3	6	NaN	1	5	0.118274082371019	1	1	NaN	247	4	58	1	121	221	321	NaN	521	0.499069427605718	1	1	NaN	3723059.0464353	NaN	3723060.0299962	3723060.54650997
106	19	0	0	90	36.1581920903955	36.241610738255	18	0.600061391852796	2	3	2	NaN	1	5	0.118274082371019	1	1	NaN	248	4	59	1	121	221	321	NaN	521	0.545766139868647	1	1	NaN	3723061.8635104	NaN	3723062.8469271	3723063.36344826
106	19	0	0	90	36.1581920903955	36.241610738255	9	0.300030695926398	2	5	2	NaN	1	3	0.118274082371019	1	1	NaN	249	4	60	1	121	221	321	NaN	521	0.551826524082571	1	1	NaN	3723064.7137528	NaN	3723065.6971914	3723066.21372028
106	19	0	0	90	36.1581920903955	36.241610738255	8	0.266693951934576	2	6	4	NaN	1	4	0.118274082371019	1	1	NaN	250	4	61	1	121	221	321	NaN	521	0.564804727677256	1	1	NaN	3723067.5807349	NaN	3723068.5641263	3723069.08067257
106	19	0	0	90	36.1581920903955	36.241610738255	24	0.800081855803728	2	10	1	NaN	2	4	0.118274082371019	1	1	NaN	251	4	62	1	121	221	321	NaN	521	0.409120727796108	2	1	NaN	3723070.464337	NaN	3723071.4477297	3723071.96430107
106	19	0	0	90	36.1581920903955	36.241610738255	25	0.83341859979555	2	4	5	NaN	1	4	0.118274082371019	1	1	NaN	252	4	63	1	121	221	321	NaN	521	0.874154527671635	1	1	NaN	3723073.4313008	NaN	3723074.4147014	3723074.93125747
106	19	0	0	90	36.1581920903955	36.241610738255	20	0.66673487983644	2	2	2	NaN	1	4	0.118274082371019	1	1	NaN	253	5	1	1	121	221	321	NaN	521	1.10979482810944	1	1	NaN	3723106.467877	NaN	3723107.4512996	3723107.96783237
106	19	0	0	90	36.1581920903955	36.241610738255	18	0.600061391852796	2	4	4	NaN	1	5	0.118274082371019	1	1	NaN	254	5	2	1	121	221	321	NaN	521	0.9166992274113	1	1	NaN	3723109.884883	NaN	3723110.8682811	3723111.38484027
106	19	0	0	90	36.1581920903955	36.241610738255	19	0.633398135844618	2	2	4	NaN	1	3	0.118274082371019	1	1	NaN	255	5	3	1	121	221	321	NaN	521	1.27504792809486	1	1	NaN	3723113.1185367	NaN	3723114.1019361	3723114.61850367
106	19	0	0	90	36.1581920903955	36.241610738255	16	0.533387903869152	2	7	3	NaN	2	5	0.118274082371019	1	1	NaN	256	5	4	1	121	221	321	NaN	521	1.267488675192	2	1	NaN	3723116.7022098	NaN	3723117.6856395	3723118.20216362
106	19	0	0	90	36.1581920903955	36.241610738255	10	0.33336743991822	2	8	2	NaN	2	4	0.118274082371019	1	1	NaN	257	5	5	1	121	221	321	NaN	521	1.23388707544655	2	1	NaN	3723120.5192685	NaN	3723121.5026676	3723122.01920792
106	19	0	0	90	36.1581920903955	36.241610738255	20	0.66673487983644	2	3	3	NaN	1	3	0.118274082371019	1	1	NaN	258	5	6	1	121	221	321	NaN	521	1.52380862785503	1	1	NaN	3723124.0696049	NaN	3723125.0530402	3723125.56956397
106	19	0	0	90	36.1581920903955	36.241610738255	7	0.233357207942754	2	11	6	NaN	2	3	0.118274082371019	1	1	NaN	259	5	7	1	121	221	321	NaN	521	1.81039312807843	2	1	NaN	3723127.9033314	NaN	3723128.8867299	3723129.40327507
106	19	0	0	90	36.1581920903955	36.241610738255	13	0.433377671893686	2	7	6	NaN	2	3	0.118274082371019	1	1	NaN	260	5	8	1	121	221	321	NaN	521	1.25302752805874	2	1	NaN	3723132.020392	NaN	3723133.0037932	3723133.52033897
106	19	0	0	90	36.1581920903955	36.241610738255	25	0.83341859979555	2	4	2	NaN	1	3	0.118274082371019	1	1	NaN	261	5	9	1	121	221	321	NaN	521	2.64590352773666	1	1	NaN	3723135.5872943	NaN	3723136.5708102	3723137.08736277
106	19	0	0	90	36.1581920903955	36.241610738255	12	0.400040927901864	2	12	3	NaN	2	4	0.118274082371019	1	1	NaN	262	5	10	1	121	221	321	NaN	521	0.598621027544141	2	1	NaN	3723140.554567	NaN	3723141.5379682	3723142.05451447
106	19	0	0	90	36.1581920903955	36.241610738255	22	0.733408367820084	2	2	5	NaN	1	4	0.118274082371019	1	1	NaN	263	5	11	1	121	221	321	NaN	521	0.914172175340354	1	1	NaN	3723143.4714997	NaN	3723144.4549303	3723144.97146302
106	19	0	0	90	36.1581920903955	36.241610738255	11	0.366704183910042	2	8	2	NaN	2	3	0.118274082371019	1	1	NaN	264	5	12	1	121	221	321	NaN	521	1.01620322745293	2	1	NaN	3723146.705159	NaN	3723147.6884883	3723148.20511577
106	19	0	0	90	36.1581920903955	36.241610738255	13	0.433377671893686	2	3	4	NaN	1	3	0.118274082371019	1	1	NaN	265	5	13	1	121	221	321	NaN	521	1.93886987585574	2	0	NaN	3723150.0388377	NaN	3723151.0222299	3723151.53876972
106	19	0	0	90	36.1581920903955	36.241610738255	11	0.366704183910042	2	8	6	NaN	2	3	0.118274082371019	1	1	NaN	266	5	14	1	121	221	321	NaN	521	0.850380027666688	2	1	NaN	3723154.6392793	NaN	3723155.6226701	3723156.13922867
106	19	0	0	90	36.1581920903955	36.241610738255	24	0.800081855803728	2	7	5	NaN	2	3	0.118274082371019	1	1	NaN	267	5	15	1	121	221	321	NaN	521	4.31525332806632	1	0	NaN	3723157.8062506	NaN	3723158.7896589	3723159.30621117
106	19	0	0	90	36.1581920903955	36.241610738255	6	0.200020463950932	2	6	4	NaN	1	4	0.118274082371019	1	1	NaN	268	5	16	1	121	221	321	NaN	521	0.56994482781738	1	1	NaN	3723164.4235645	NaN	3723165.4069611	3723165.92352527
106	19	0	0	90	36.1581920903955	36.241610738255	21	0.700071623828262	2	2	1	NaN	1	4	0.118274082371019	1	1	NaN	269	5	17	1	121	221	321	NaN	521	0.894321327563375	1	1	NaN	3723167.3072015	NaN	3723168.2905885	3723168.80714647
106	19	0	0	90	36.1581920903955	36.241610738255	12	0.400040927901864	2	7	2	NaN	2	4	0.118274082371019	1	1	NaN	270	5	18	1	121	221	321	NaN	521	1.02154582785442	2	1	NaN	3723170.5241718	NaN	3723171.507573	3723172.02412657
106	19	0	0	90	36.1581920903955	36.241610738255	20	0.66673487983644	2	1	6	NaN	1	4	0.118274082371019	1	1	NaN	271	5	19	1	121	221	321	NaN	521	1.20748733216897	1	1	NaN	3723173.8578243	NaN	3723174.8412374	3723175.35779937
106	19	0	0	90	36.1581920903955	36.241610738255	18	0.600061391852796	2	6	3	NaN	1	4	0.118274082371019	1	1	NaN	272	5	20	1	121	221	321	NaN	521	1.28289437526837	1	1	NaN	3723177.3748507	NaN	3723178.3583532	3723178.87478932
106	19	0	0	90	36.1581920903955	36.241610738255	19	0.633398135844618	2	9	2	NaN	2	5	0.118274082371019	1	1	NaN	273	5	21	1	121	221	321	NaN	521	1.22610757546499	2	1	NaN	3723180.9752053	NaN	3723181.9586021	3723182.47514322
106	19	0	0	90	36.1581920903955	36.241610738255	16	0.533387903869152	2	10	4	NaN	2	3	0.118274082371019	1	1	NaN	274	5	22	1	121	221	321	NaN	521	0.980943027883768	2	1	NaN	3723184.5088753	NaN	3723185.4922486	3723186.00882687
106	19	0	0	90	36.1581920903955	36.241610738255	15	0.50005115987733	2	3	3	NaN	1	5	0.118274082371019	1	1	NaN	275	5	23	1	121	221	321	NaN	521	0.472549427766353	1	1	NaN	3723187.8092082	NaN	3723188.7926167	3723189.30915787
106	19	0	0	90	36.1581920903955	36.241610738255	8	0.266693951934576	2	7	1	NaN	2	4	0.118274082371019	1	1	NaN	276	5	24	1	121	221	321	NaN	521	0.552687127608806	2	1	NaN	3723190.5926899	NaN	3723191.5761991	3723192.09276697
106	19	0	0	90	36.1581920903955	36.241610738255	23	0.766745111811906	2	8	5	NaN	2	4	0.118274082371019	1	1	NaN	277	5	25	1	121	221	321	NaN	521	0.765685627702624	2	1	NaN	3723193.459755	NaN	3723194.4431644	3723194.95971637
106	19	0	0	90	36.1581920903955	36.241610738255	0	0	1	2	3	NaN	1	4	0.118274082371019	1	1	NaN	278	5	26	1	111	211	311	NaN	511	6.21104407543316	1	1	NaN	3723196.5267332	NaN	3723197.5101368	3723198.02667152
106	19	0	0	90	36.1581920903955	36.241610738255	24	0.800081855803728	2	3	4	NaN	1	3	0.118274082371019	1	1	NaN	279	5	27	1	121	221	321	NaN	521	6.28483092738315	2	0	NaN	3723205.0608894	NaN	3723206.0443004	3723206.56085307
106	19	0	0	90	36.1581920903955	36.241610738255	7	0.233357207942754	2	6	5	NaN	1	3	0.118274082371019	1	1	NaN	280	5	28	1	121	221	321	NaN	521	0.684020039625466	2	0	NaN	3723213.6617313	NaN	3723214.6451315	3723215.16169866
106	19	0	0	90	36.1581920903955	36.241610738255	22	0.733408367820084	2	11	5	NaN	2	5	0.118274082371019	1	1	NaN	281	5	29	1	121	221	321	NaN	521	0.81115762796253	2	1	NaN	3723216.6620524	NaN	3723217.6454428	3723218.16199097
106	19	0	0	90	36.1581920903955	36.241610738255	12	0.400040927901864	2	6	1	NaN	1	5	0.118274082371019	1	1	NaN	282	5	30	1	121	221	321	NaN	521	0.446085575502366	1	1	NaN	3723219.7955702	NaN	3723220.7790792	3723221.29563432
106	19	0	0	90	36.1581920903955	36.241610738255	10	0.33336743991822	2	10	5	NaN	2	5	0.118274082371019	1	1	NaN	283	5	31	1	121	221	321	NaN	521	0.398744028061628	2	1	NaN	3723222.5625301	NaN	3723223.546024	3723224.06257437
106	19	0	0	90	36.1581920903955	36.241610738255	15	0.50005115987733	2	7	5	NaN	2	3	0.118274082371019	1	1	NaN	284	5	32	1	121	221	321	NaN	521	6.66381794400513	2	1	NaN	3723226.1296231	NaN	3723227.1130354	3723227.62958676
106	19	0	0	90	36.1581920903955	36.241610738255	11	0.366704183910042	2	6	2	NaN	1	3	0.118274082371019	1	1	NaN	285	5	33	1	121	221	321	NaN	521	0.376658627763391	1	1	NaN	3723235.0970681	NaN	3723236.0805903	3723236.59713747
106	19	0	0	90	36.1581920903955	36.241610738255	9	0.300030695926398	2	2	6	NaN	1	5	0.118274082371019	1	1	NaN	286	5	34	1	121	221	321	NaN	521	0.117010027635843	1	1	NaN	3723237.7808743	NaN	3723238.7641737	3723239.28073207
106	19	0	0	90	36.1581920903955	36.241610738255	25	0.83341859979555	2	8	2	NaN	2	3	0.118274082371019	1	1	NaN	287	5	35	1	121	221	321	NaN	521	0.411460927687585	2	1	NaN	3723240.2143485	NaN	3723241.1978348	3723241.71430877
106	19	0	0	90	36.1581920903955	36.241610738255	21	0.700071623828262	2	5	2	NaN	1	4	0.118274082371019	1	1	NaN	288	5	36	1	121	221	321	NaN	521	0.366164975333959	1	1	NaN	3723242.9312937	NaN	3723243.9146621	3723244.43123122
106	19	0	0	90	36.1581920903955	36.241610738255	14	0.466714415885508	2	10	6	NaN	2	5	0.118274082371019	1	1	NaN	289	5	37	1	121	221	321	NaN	521	0.674645175691694	2	1	NaN	3723245.6148926	NaN	3723246.5982746	3723247.11483072
106	19	0	0	90	36.1581920903955	36.241610738255	16	0.533387903869152	2	12	6	NaN	2	5	0.118274082371019	1	1	NaN	290	5	38	1	121	221	321	NaN	521	1.00300467573106	2	1	NaN	3723248.5983837	NaN	3723249.581905	3723250.09845372
106	19	0	0	90	36.1581920903955	36.241610738255	19	0.633398135844618	2	9	1	NaN	2	3	0.118274082371019	1	1	NaN	291	5	39	1	121	221	321	NaN	521	1.01397957559675	2	1	NaN	3723251.9155023	NaN	3723252.8989242	3723253.41544782
106	19	0	0	90	36.1581920903955	36.241610738255	21	0.700071623828262	2	12	1	NaN	2	4	0.118274082371019	1	1	NaN	292	5	40	1	121	221	321	NaN	521	1.18534497544169	2	1	NaN	3723255.2324991	NaN	3723256.2158947	3723256.73244552
106	19	0	0	90	36.1581920903955	36.241610738255	15	0.50005115987733	2	1	4	NaN	1	3	0.118274082371019	1	1	NaN	293	5	41	1	121	221	321	NaN	521	3.15710682794452	2	0	NaN	3723258.7328396	NaN	3723259.7162449	3723260.23279147
106	19	0	0	90	36.1581920903955	36.241610738255	0	0	1	6	6	NaN	1	5	0.118274082371019	1	1	NaN	294	5	42	1	111	211	311	NaN	511	0.40782517567277	1	1	NaN	3723264.2500459	NaN	3723265.2334365	3723265.74999062
106	19	0	0	90	36.1581920903955	36.241610738255	18	0.600061391852796	2	10	5	NaN	2	4	0.118274082371019	1	1	NaN	295	5	43	1	121	221	321	NaN	521	0.858945432119071	2	1	NaN	3723266.9669749	NaN	3723267.9503726	3723268.46693837
106	19	0	0	90	36.1581920903955	36.241610738255	6	0.200020463950932	2	12	1	NaN	2	5	0.118274082371019	1	1	NaN	296	5	44	1	121	221	321	NaN	521	1.42689197976142	2	1	NaN	3723270.1506214	NaN	3723271.1340169	3723271.65058322
106	19	0	0	90	36.1581920903955	36.241610738255	17	0.566724647860974	2	3	6	NaN	1	3	0.118274082371019	1	1	NaN	297	5	45	1	121	221	321	NaN	521	0.797556427773088	1	1	NaN	3723273.8843152	NaN	3723274.8677637	3723275.38428197
106	19	0	0	90	36.1581920903955	36.241610738255	11	0.366704183910042	2	1	6	NaN	1	3	0.118274082371019	1	1	NaN	298	5	46	1	121	221	321	NaN	521	0.736391075421125	1	1	NaN	3723277.0013097	NaN	3723277.9847157	3723278.50124682
106	19	0	0	90	36.1581920903955	36.241610738255	8	0.266693951934576	2	9	5	NaN	2	3	0.118274082371019	1	1	NaN	299	5	47	1	121	221	321	NaN	521	1.15841149166226	2	1	NaN	3723280.0516077	NaN	3723281.0349985	3723281.55154841
106	19	0	0	90	36.1581920903955	36.241610738255	19	0.633398135844618	2	1	6	NaN	1	4	0.118274082371019	1	1	NaN	300	5	48	1	121	221	321	NaN	521	0.570483847986907	1	1	NaN	3723283.535272	NaN	3723284.5186736	3723285.03525015
106	19	0	0	90	36.1581920903955	36.241610738255	17	0.566724647860974	2	10	2	NaN	2	4	0.118274082371019	1	1	NaN	301	5	49	1	121	221	321	NaN	521	0.422649975400418	2	1	NaN	3723286.4189024	NaN	3723287.4022914	3723287.91884312
106	19	0	0	90	36.1581920903955	36.241610738255	14	0.466714415885508	2	10	5	NaN	2	5	0.118274082371019	1	1	NaN	302	5	50	1	121	221	321	NaN	521	0.808928075246513	2	1	NaN	3723289.152478	NaN	3723290.1358828	3723290.65243762
106	19	0	0	90	36.1581920903955	36.241610738255	6	0.200020463950932	2	10	2	NaN	2	5	0.118274082371019	1	1	NaN	303	5	51	1	121	221	321	NaN	521	0.772297475486994	2	1	NaN	3723292.2694586	NaN	3723293.2528715	3723293.76941312
106	19	0	0	90	36.1581920903955	36.241610738255	16	0.533387903869152	2	1	4	NaN	1	5	0.118274082371019	1	1	NaN	304	5	52	1	121	221	321	NaN	521	0.448409995995462	1	1	NaN	3723295.3530919	NaN	3723296.3365005	3723296.8530713
106	19	0	0	90	36.1581920903955	36.241610738255	14	0.466714415885508	2	7	3	NaN	2	3	0.118274082371019	1	1	NaN	305	5	53	1	121	221	321	NaN	521	0.313431875314564	2	1	NaN	3723298.1200406	NaN	3723299.1034402	3723299.61999662
106	19	0	0	90	36.1581920903955	36.241610738255	22	0.733408367820084	2	10	4	NaN	2	4	0.118274082371019	1	1	NaN	306	5	54	1	121	221	321	NaN	521	2.12814662745222	1	0	NaN	3723300.7536251	NaN	3723301.7370636	3723302.25358327
106	19	0	0	90	36.1581920903955	36.241610738255	22	0.733408367820084	2	4	1	NaN	1	4	0.118274082371019	1	1	NaN	307	5	55	1	121	221	321	NaN	521	0.598539875820279	1	1	NaN	3723305.1872841	NaN	3723306.1707904	3723306.68734702
106	19	0	0	90	36.1581920903955	36.241610738255	0	0	1	7	4	NaN	2	5	0.118274082371019	1	1	NaN	308	5	56	1	111	211	311	NaN	511	0.72961782803759	2	1	NaN	3723308.1043661	NaN	3723309.0877489	3723309.60430497
106	19	0	0	90	36.1581920903955	36.241610738255	10	0.33336743991822	2	3	6	NaN	1	3	0.118274082371019	1	1	NaN	309	5	57	1	121	221	321	NaN	521	0.895794744137675	1	1	NaN	3723311.1380022	NaN	3723312.1213906	3723312.63794586
106	19	0	0	90	36.1581920903955	36.241610738255	6	0.200020463950932	2	8	4	NaN	2	5	0.118274082371019	1	1	NaN	310	5	58	1	121	221	321	NaN	521	0.798949528019875	2	1	NaN	3723314.3549713	NaN	3723315.338367	3723315.85492607
106	19	0	0	90	36.1581920903955	36.241610738255	10	0.33336743991822	2	1	3	NaN	1	3	0.118274082371019	1	1	NaN	311	5	59	1	121	221	321	NaN	521	1.08175537548959	1	1	NaN	3723317.4719403	NaN	3723318.4553409	3723318.97189622
106	19	0	0	90	36.1581920903955	36.241610738255	22	0.733408367820084	2	3	5	NaN	1	3	0.118274082371019	1	1	NaN	312	5	60	1	121	221	321	NaN	521	1.00238022767007	1	1	NaN	3723320.8556064	NaN	3723321.8389942	3723322.35556007
106	19	0	0	90	36.1581920903955	36.241610738255	25	0.83341859979555	2	1	3	NaN	1	4	0.118274082371019	1	1	NaN	313	5	61	1	121	221	321	NaN	521	0.557014127727598	1	1	NaN	3723324.1726079	NaN	3723325.1560041	3723325.67255397
106	19	0	0	90	36.1581920903955	36.241610738255	7	0.233357207942754	2	5	2	NaN	1	4	0.118274082371019	1	1	NaN	314	5	62	1	121	221	321	NaN	521	0.898499963805079	1	1	NaN	3723327.039565	NaN	3723328.0229571	3723328.53949084
106	19	0	0	90	36.1581920903955	36.241610738255	14	0.466714415885508	2	2	5	NaN	1	5	0.118274082371019	1	1	NaN	315	5	63	1	121	221	321	NaN	521	0.801414827350527	1	1	NaN	3723330.256532	NaN	3723331.2399684	3723331.75648787
106	19	0	0	90	36.1581920903955	36.241610738255	14	0.466714415885508	2	8	4	NaN	2	4	0.118274082371019	1	1	NaN	316	6	1	1	121	221	321	NaN	521	1.32448199624196	2	1	NaN	3723360.3094711	NaN	3723361.2928672	3723361.8094416
106	19	0	0	90	36.1581920903955	36.241610738255	13	0.433377671893686	2	7	5	NaN	2	4	0.118274082371019	1	1	NaN	317	6	2	1	121	221	321	NaN	521	1.17082847561687	2	1	NaN	3723363.9432059	NaN	3723364.9265712	3723365.44312532
106	19	0	0	90	36.1581920903955	36.241610738255	6	0.200020463950932	2	4	6	NaN	1	3	0.118274082371019	1	1	NaN	318	6	3	1	121	221	321	NaN	521	0.439146275632083	1	1	NaN	3723367.4267128	NaN	3723368.4102597	3723368.92680342
106	19	0	0	90	36.1581920903955	36.241610738255	13	0.433377671893686	2	9	3	NaN	2	4	0.118274082371019	1	1	NaN	319	6	4	1	121	221	321	NaN	521	7.41663647582754	1	0	NaN	3723370.1772174	NaN	3723371.1605191	3723371.67707302
106	19	0	0	90	36.1581920903955	36.241610738255	0	0	1	1	1	NaN	1	4	0.118274082371019	1	1	NaN	320	6	5	1	111	211	311	NaN	511	0.490668375510722	1	1	NaN	3723379.9114066	NaN	3723380.8948071	3723381.41135322
106	19	0	0	90	36.1581920903955	36.241610738255	18	0.600061391852796	2	8	5	NaN	2	3	0.118274082371019	1	1	NaN	321	6	6	1	121	221	321	NaN	521	1.17001192737371	2	1	NaN	3723382.7115806	NaN	3723383.6950837	3723384.21163327
106	19	0	0	90	36.1581920903955	36.241610738255	10	0.33336743991822	2	11	3	NaN	2	5	0.118274082371019	1	1	NaN	322	6	7	1	121	221	321	NaN	521	2.01441267551854	2	1	NaN	3723386.1953698	NaN	3723387.1787643	3723387.69530582
106	19	0	0	90	36.1581920903955	36.241610738255	12	0.400040927901864	2	6	2	NaN	1	5	0.118274082371019	1	1	NaN	323	6	8	1	121	221	321	NaN	521	0.384879575576633	1	1	NaN	3723390.5291292	NaN	3723391.5125209	3723392.02907022
106	19	0	0	90	36.1581920903955	36.241610738255	19	0.633398135844618	2	7	2	NaN	2	4	0.118274082371019	1	1	NaN	324	6	9	1	121	221	321	NaN	521	0.652371975593269	2	1	NaN	3723393.2293827	NaN	3723394.2127829	3723394.72933572
106	19	0	0	90	36.1581920903955	36.241610738255	13	0.433377671893686	2	8	3	NaN	2	3	0.118274082371019	1	1	NaN	325	6	10	1	121	221	321	NaN	521	0.621705475728959	2	1	NaN	3723396.1962265	NaN	3723397.1797312	3723397.69630892
106	19	0	0	90	36.1581920903955	36.241610738255	9	0.300030695926398	2	7	5	NaN	2	3	0.118274082371019	1	1	NaN	326	6	11	1	121	221	321	NaN	521	1.05595492757857	2	1	NaN	3723399.1299477	NaN	3723400.1133735	3723400.62991897
106	19	0	0	90	36.1581920903955	36.241610738255	18	0.600061391852796	2	9	6	NaN	2	4	0.118274082371019	1	1	NaN	327	6	12	1	121	221	321	NaN	521	1.03284457558766	2	1	NaN	3723402.4969753	NaN	3723403.4803592	3723403.99692852
106	19	0	0	90	36.1581920903955	36.241610738255	8	0.266693951934576	2	10	6	NaN	2	4	0.118274082371019	1	1	NaN	328	6	13	1	121	221	321	NaN	521	0.539194575510919	2	1	NaN	3723405.8306343	NaN	3723406.814023	3723407.33059072
106	19	0	0	90	36.1581920903955	36.241610738255	21	0.700071623828262	2	7	3	NaN	2	4	0.118274082371019	1	1	NaN	329	6	14	1	121	221	321	NaN	521	1.33689482789487	2	1	NaN	3723408.6809114	NaN	3723409.6642934	3723410.18085307
106	19	0	0	90	36.1581920903955	36.241610738255	21	0.700071623828262	2	2	1	NaN	1	4	0.118274082371019	1	1	NaN	330	6	15	1	121	221	321	NaN	521	0.470455327536911	1	1	NaN	3723412.331256	NaN	3723413.3146704	3723413.83120627
106	19	0	0	90	36.1581920903955	36.241610738255	10	0.33336743991822	2	2	6	NaN	1	5	0.118274082371019	1	1	NaN	331	6	16	1	121	221	321	NaN	521	0.74321717582643	1	1	NaN	3723415.114877	NaN	3723416.0983191	3723416.61481162
106	19	0	0	90	36.1581920903955	36.241610738255	14	0.466714415885508	2	11	5	NaN	2	4	0.118274082371019	1	1	NaN	332	6	17	1	121	221	321	NaN	521	0.899801327381283	2	1	NaN	3723418.1818289	NaN	3723419.165247	3723419.68180477
106	19	0	0	90	36.1581920903955	36.241610738255	11	0.366704183910042	2	5	3	NaN	1	3	0.118274082371019	1	1	NaN	333	6	18	1	121	221	321	NaN	521	0.442910775542259	1	1	NaN	3723421.3988124	NaN	3723422.3822124	3723422.89876852
106	19	0	0	90	36.1581920903955	36.241610738255	7	0.233357207942754	2	8	1	NaN	2	4	0.118274082371019	1	1	NaN	334	6	19	1	121	221	321	NaN	521	0.404862475581467	2	1	NaN	3723424.1490998	NaN	3723425.132493	3723425.64903292
106	19	0	0	90	36.1581920903955	36.241610738255	21	0.700071623828262	2	11	1	NaN	2	5	0.118274082371019	1	1	NaN	335	6	20	1	121	221	321	NaN	521	0.495443879626691	2	1	NaN	3723426.8660228	NaN	3723427.8494192	3723428.36597772
106	19	0	0	90	36.1581920903955	36.241610738255	13	0.433377671893686	2	1	6	NaN	1	5	0.118274082371019	1	1	NaN	336	6	21	1	121	221	321	NaN	521	0.31888422742486	1	1	NaN	3723429.6829477	NaN	3723430.6663852	3723431.18291987
106	19	0	0	90	36.1581920903955	36.241610738255	10	0.33336743991822	2	5	4	NaN	1	3	0.118274082371019	1	1	NaN	337	6	22	1	121	221	321	NaN	521	0.381303227972239	1	1	NaN	3723432.316553	NaN	3723433.2999587	3723433.81651017
106	19	0	0	90	36.1581920903955	36.241610738255	19	0.633398135844618	2	8	2	NaN	2	3	0.118274082371019	1	1	NaN	338	6	23	1	121	221	321	NaN	521	0.352935227565467	2	1	NaN	3723435.0168234	NaN	3723436.0002228	3723436.51677727
106	19	0	0	90	36.1581920903955	36.241610738255	11	0.366704183910042	2	4	1	NaN	1	4	0.118274082371019	1	1	NaN	339	6	24	1	121	221	321	NaN	521	0.590025575365871	1	1	NaN	3723437.6837755	NaN	3723438.6671455	3723439.18370392
106	19	0	0	90	36.1581920903955	36.241610738255	10	0.33336743991822	2	7	2	NaN	2	5	0.118274082371019	1	1	NaN	340	6	25	1	121	221	321	NaN	521	0.537773688323796	2	1	NaN	3723440.5839082	NaN	3723441.5674428	3723442.08399241
106	19	0	0	90	36.1581920903955	36.241610738255	24	0.800081855803728	2	3	2	NaN	1	3	0.118274082371019	1	1	NaN	341	6	26	1	121	221	321	NaN	521	0.599394244141877	1	1	NaN	3723443.4343193	NaN	3723444.4177129	3723444.93427556
106	19	0	0	90	36.1581920903955	36.241610738255	15	0.50005115987733	2	5	1	NaN	1	3	0.118274082371019	1	1	NaN	342	6	27	1	121	221	321	NaN	521	0.330497175455093	1	1	NaN	3723446.3512746	NaN	3723447.3346835	3723447.85121612
106	19	0	0	90	36.1581920903955	36.241610738255	0	0	1	4	5	NaN	1	4	0.118274082371019	1	1	NaN	343	6	28	1	111	211	311	NaN	511	0.566603475715965	2	0	NaN	3723449.0515711	NaN	3723450.0349327	3723450.55147892
106	19	0	0	90	36.1581920903955	36.241610738255	0	0	1	5	6	NaN	1	4	0.118274082371019	1	1	NaN	344	6	29	1	111	211	311	NaN	511	0.474511975422502	1	1	NaN	3723451.9350175	NaN	3723452.9185752	3723453.43509672
106	19	0	0	90	36.1581920903955	36.241610738255	25	0.83341859979555	2	7	1	NaN	2	3	0.118274082371019	1	1	NaN	345	6	30	1	121	221	321	NaN	521	0.403003875631839	2	1	NaN	3723454.7187683	NaN	3723455.7021536	3723456.21870872
106	19	0	0	90	36.1581920903955	36.241610738255	18	0.600061391852796	2	5	5	NaN	1	3	0.118274082371019	1	1	NaN	346	6	31	1	121	221	321	NaN	521	0.646174175199121	1	1	NaN	3723457.4356853	NaN	3723458.4191118	3723458.93563772
106	19	0	0	90	36.1581920903955	36.241610738255	11	0.366704183910042	2	10	3	NaN	2	4	0.118274082371019	1	1	NaN	347	6	32	1	121	221	321	NaN	521	3.71916312770918	2	1	NaN	3723460.40264	NaN	3723461.3860465	3723461.90260007
106	19	0	0	90	36.1581920903955	36.241610738255	7	0.233357207942754	2	7	6	NaN	2	5	0.118274082371019	1	1	NaN	348	6	33	1	121	221	321	NaN	521	0.821095791645348	2	1	NaN	3723466.4365803	NaN	3723467.4199761	3723467.93653851
106	19	0	0	90	36.1581920903955	36.241610738255	10	0.33336743991822	2	4	1	NaN	1	4	0.118274082371019	1	1	NaN	349	6	34	1	121	221	321	NaN	521	2.3665691758506	1	1	NaN	3723469.8035579	NaN	3723470.7869905	3723471.30351652
106	19	0	0	90	36.1581920903955	36.241610738255	6	0.200020463950932	2	1	2	NaN	1	3	0.118274082371019	1	1	NaN	350	6	35	1	121	221	321	NaN	521	0.618787475395948	1	1	NaN	3723474.487236	NaN	3723475.4707687	3723475.98731202
106	19	0	0	90	36.1581920903955	36.241610738255	11	0.366704183910042	2	10	6	NaN	2	3	0.118274082371019	1	1	NaN	351	6	36	1	121	221	321	NaN	521	1.00485837552696	2	1	NaN	3723477.4210054	NaN	3723478.4043763	3723478.92093012
106	19	0	0	90	36.1581920903955	36.241610738255	24	0.800081855803728	2	9	3	NaN	2	3	0.118274082371019	1	1	NaN	352	6	37	1	121	221	321	NaN	521	5.47996257571504	2	1	NaN	3723480.7379695	NaN	3723481.7213881	3723482.23793632
106	19	0	0	90	36.1581920903955	36.241610738255	21	0.700071623828262	2	3	4	NaN	1	4	0.118274082371019	1	1	NaN	353	6	38	1	121	221	321	NaN	521	0.639612827450037	1	1	NaN	3723491.1223128	NaN	3723492.1057351	3723492.62228477
106	19	0	0	90	36.1581920903955	36.241610738255	7	0.233357207942754	2	4	4	NaN	1	5	0.118274082371019	1	1	NaN	354	6	39	1	121	221	321	NaN	521	1.12094517564401	2	0	NaN	3723494.0726209	NaN	3723495.056042	3723495.57257002
106	19	0	0	90	36.1581920903955	36.241610738255	18	0.600061391852796	2	11	6	NaN	2	5	0.118274082371019	1	1	NaN	355	6	40	1	121	221	321	NaN	521	2.99890202749521	2	1	NaN	3723497.5228409	NaN	3723498.5063805	3723499.02290567
106	19	0	0	90	36.1581920903955	36.241610738255	17	0.566724647860974	2	7	2	NaN	2	3	0.118274082371019	1	1	NaN	356	6	41	1	121	221	321	NaN	521	0.641630527563393	1	0	NaN	3723502.8400381	NaN	3723503.8235613	3723504.34010477
106	19	0	0	90	36.1581920903955	36.241610738255	23	0.766745111811906	2	12	5	NaN	2	3	0.118274082371019	1	1	NaN	357	6	42	1	121	221	321	NaN	521	0.403302227612585	2	1	NaN	3723505.7903194	NaN	3723506.7738368	3723507.29039477
106	19	0	0	90	36.1581920903955	36.241610738255	20	0.66673487983644	2	9	5	NaN	2	5	0.118274082371019	1	1	NaN	358	6	43	1	121	221	321	NaN	521	1.06257118005306	2	1	NaN	3723508.5073838	NaN	3723509.490756	3723510.00732132
106	19	0	0	90	36.1581920903955	36.241610738255	22	0.733408367820084	2	1	3	NaN	1	4	0.118274082371019	1	1	NaN	359	6	44	1	121	221	321	NaN	521	0.743856727611274	1	1	NaN	3723511.8742577	NaN	3723512.8576719	3723513.37432417
106	19	0	0	90	36.1581920903955	36.241610738255	13	0.433377671893686	2	10	3	NaN	2	5	0.118274082371019	1	1	NaN	360	6	45	1	121	221	321	NaN	521	3.2762465281412	1	0	NaN	3723514.9413488	NaN	3723515.9247419	3723516.44129277
106	19	0	0	90	36.1581920903955	36.241610738255	6	0.200020463950932	2	3	4	NaN	1	4	0.118274082371019	1	1	NaN	361	6	46	1	121	221	321	NaN	521	0.770280627999455	1	1	NaN	3723520.5918975	NaN	3723521.5752988	3723522.09185287
106	19	0	0	90	36.1581920903955	36.241610738255	24	0.800081855803728	2	8	1	NaN	2	4	0.118274082371019	1	1	NaN	362	6	47	1	121	221	321	NaN	521	0.646302527748048	2	1	NaN	3723523.6755264	NaN	3723524.6589353	3723525.17548607
106	19	0	0	90	36.1581920903955	36.241610738255	19	0.633398135844618	2	6	3	NaN	1	5	0.118274082371019	1	1	NaN	363	6	48	1	121	221	321	NaN	521	0.911575675476342	1	1	NaN	3723526.6425057	NaN	3723527.625894	3723528.14244152
106	19	0	0	90	36.1581920903955	36.241610738255	8	0.266693951934576	2	4	1	NaN	1	3	0.118274082371019	1	1	NaN	364	6	49	1	121	221	321	NaN	521	4.86183062754571	1	1	NaN	3723529.8761557	NaN	3723530.8595498	3723531.37609637
106	19	0	0	90	36.1581920903955	36.241610738255	23	0.766745111811906	2	10	3	NaN	2	4	0.118274082371019	1	1	NaN	365	6	50	1	121	221	321	NaN	521	0.935605727601796	2	1	NaN	3723537.2101877	NaN	3723538.1935961	3723538.71014437
106	19	0	0	90	36.1581920903955	36.241610738255	14	0.466714415885508	2	4	2	NaN	1	4	0.118274082371019	1	1	NaN	366	6	51	1	121	221	321	NaN	521	0.821692075580359	1	1	NaN	3723540.4605101	NaN	3723541.4439177	3723541.96046002
106	19	0	0	90	36.1581920903955	36.241610738255	16	0.533387903869152	2	5	2	NaN	1	5	0.118274082371019	1	1	NaN	367	6	52	1	121	221	321	NaN	521	0.783830327447504	1	1	NaN	3723543.5942457	NaN	3723544.5775347	3723545.09410637
106	19	0	0	90	36.1581920903955	36.241610738255	19	0.633398135844618	2	5	5	NaN	1	3	0.118274082371019	1	1	NaN	368	6	53	1	121	221	321	NaN	521	0.835856424178928	1	1	NaN	3723546.6944573	NaN	3723547.6778665	3723548.19440738
106	19	0	0	90	36.1581920903955	36.241610738255	19	0.633398135844618	2	10	3	NaN	2	5	0.118274082371019	1	1	NaN	369	6	54	1	121	221	321	NaN	521	1.25347892381251	2	1	NaN	3723549.8447787	NaN	3723550.8281606	3723551.34471188
106	19	0	0	90	36.1581920903955	36.241610738255	17	0.566724647860974	2	8	4	NaN	2	3	0.118274082371019	1	1	NaN	370	6	55	1	121	221	321	NaN	521	0.566071127541363	2	1	NaN	3723553.4117928	NaN	3723554.3951963	3723554.91173987
106	19	0	0	90	36.1581920903955	36.241610738255	8	0.266693951934576	2	11	6	NaN	2	3	0.118274082371019	1	1	NaN	371	6	56	1	121	221	321	NaN	521	1.01889142394066	2	1	NaN	3723556.2954118	NaN	3723557.2788273	3723557.79534548
106	19	0	0	90	36.1581920903955	36.241610738255	17	0.566724647860974	2	8	6	NaN	2	4	0.118274082371019	1	1	NaN	372	6	57	1	121	221	321	NaN	521	0.732826227787882	2	1	NaN	3723559.6290682	NaN	3723560.6124875	3723561.12901957
106	19	0	0	90	36.1581920903955	36.241610738255	13	0.433377671893686	2	8	6	NaN	2	4	0.118274082371019	1	1	NaN	373	6	58	1	121	221	321	NaN	521	0.746724827680737	2	1	NaN	3723562.6793567	NaN	3723563.6627614	3723564.17931957
106	19	0	0	90	36.1581920903955	36.241610738255	18	0.600061391852796	2	1	3	NaN	1	5	0.118274082371019	1	1	NaN	374	6	59	1	121	221	321	NaN	521	0.695931627880782	1	1	NaN	3723565.7463334	NaN	3723566.729723	3723567.24628647
106	19	0	0	90	36.1581920903955	36.241610738255	23	0.766745111811906	2	2	1	NaN	1	4	0.118274082371019	1	1	NaN	375	6	60	1	121	221	321	NaN	521	2.78262527519837	2	0	NaN	3723568.7633101	NaN	3723569.7466936	3723570.26325642
106	19	0	0	90	36.1581920903955	36.241610738255	16	0.533387903869152	2	11	3	NaN	2	5	0.118274082371019	1	1	NaN	376	6	61	1	121	221	321	NaN	521	2.00199222750962	2	1	NaN	3723573.8637934	NaN	3723574.8472228	3723575.36374907
106	19	0	0	90	36.1581920903955	36.241610738255	14	0.466714415885508	2	1	1	NaN	1	3	0.118274082371019	1	1	NaN	377	6	62	1	121	221	321	NaN	521	0.165131075773388	1	1	NaN	3723578.1808309	NaN	3723579.1642856	3723579.68083772
106	19	0	0	90	36.1581920903955	36.241610738255	15	0.50005115987733	2	9	6	NaN	2	4	0.118274082371019	1	1	NaN	378	6	63	1	121	221	321	NaN	521	0.329472675453871	2	1	NaN	3723580.6644571	NaN	3723581.6478579	3723582.16441232
106	19	0	0	90	36.1581920903955	36.241610738255	21	0.700071623828262	2	1	4	NaN	1	5	0.118274082371019	1	1	NaN	379	7	1	1	121	221	321	NaN	521	0.70802842779085	1	1	NaN	3723613.5176863	NaN	3723614.5010938	3723615.01764307
106	19	0	0	90	36.1581920903955	36.241610738255	23	0.766745111811906	2	6	5	NaN	1	4	0.118274082371019	1	1	NaN	380	7	2	1	121	221	321	NaN	521	1.41141982795671	1	1	NaN	3723616.5346473	NaN	3723617.5180484	3723618.03460967
106	19	0	0	90	36.1581920903955	36.241610738255	22	0.733408367820084	2	5	2	NaN	1	3	0.118274082371019	1	1	NaN	381	7	3	1	121	221	321	NaN	521	0.661700575612485	1	1	NaN	3723620.2683448	NaN	3723621.2517543	3723621.76830292
106	19	0	0	90	36.1581920903955	36.241610738255	8	0.266693951934576	2	12	4	NaN	2	4	0.118274082371019	1	1	NaN	382	7	4	1	121	221	321	NaN	521	0.757854727562517	2	1	NaN	3723623.2518415	NaN	3723624.23538	3723624.75193727
106	19	0	0	90	36.1581920903955	36.241610738255	18	0.600061391852796	2	12	3	NaN	2	4	0.118274082371019	1	1	NaN	383	7	5	1	121	221	321	NaN	521	0.570909475907683	2	1	NaN	3723626.3189349	NaN	3723627.3023505	3723627.81889462
106	19	0	0	90	36.1581920903955	36.241610738255	16	0.533387903869152	2	12	3	NaN	2	4	0.118274082371019	1	1	NaN	384	7	6	1	121	221	321	NaN	521	0.928011075593531	2	1	NaN	3723629.2025785	NaN	3723630.1859641	3723630.70251772
106	19	0	0	90	36.1581920903955	36.241610738255	13	0.433377671893686	2	4	2	NaN	1	4	0.118274082371019	1	1	NaN	385	7	7	1	121	221	321	NaN	521	0.725847328081727	1	1	NaN	3723632.4362014	NaN	3723633.4196296	3723633.93616867
106	19	0	0	90	36.1581920903955	36.241610738255	23	0.766745111811906	2	6	5	NaN	1	4	0.118274082371019	1	1	NaN	386	7	8	1	121	221	321	NaN	521	0.708149927668273	1	1	NaN	3723635.4698957	NaN	3723636.4531452	3723636.96979857
106	19	0	0	90	36.1581920903955	36.241610738255	19	0.633398135844618	2	6	3	NaN	1	4	0.118274082371019	1	1	NaN	387	7	9	1	121	221	321	NaN	521	0.427243075333536	1	1	NaN	3723638.4869033	NaN	3723639.4702236	3723639.98675782
106	19	0	0	90	36.1581920903955	36.241610738255	6	0.200020463950932	2	8	1	NaN	2	4	0.118274082371019	1	1	NaN	388	7	10	1	121	221	321	NaN	521	0.64583197562024	2	1	NaN	3723641.2204477	NaN	3723642.2038148	3723642.72035502
106	19	0	0	90	36.1581920903955	36.241610738255	24	0.800081855803728	2	5	3	NaN	1	3	0.118274082371019	1	1	NaN	389	7	11	1	121	221	321	NaN	521	1.15901582408696	1	1	NaN	3723644.1873756	NaN	3723645.170753	3723645.68731818
106	19	0	0	90	36.1581920903955	36.241610738255	22	0.733408367820084	2	12	5	NaN	2	4	0.118274082371019	1	1	NaN	390	7	12	1	121	221	321	NaN	521	1.17190619604662	2	1	NaN	3723647.6543886	NaN	3723648.6377686	3723649.1543383
106	19	0	0	90	36.1581920903955	36.241610738255	18	0.600061391852796	2	7	3	NaN	2	3	0.118274082371019	1	1	NaN	391	7	13	1	121	221	321	NaN	521	5.80786818359047	2	1	NaN	3723651.1380561	NaN	3723652.1214684	3723652.63800332
106	19	0	0	90	36.1581920903955	36.241610738255	17	0.566724647860974	2	1	1	NaN	1	5	0.118274082371019	1	1	NaN	392	7	14	1	121	221	321	NaN	521	0.650697123724967	1	1	NaN	3723659.255524	NaN	3723660.2389555	3723660.75546508
106	19	0	0	90	36.1581920903955	36.241610738255	21	0.700071623828262	2	6	5	NaN	1	4	0.118274082371019	1	1	NaN	393	7	15	1	121	221	321	NaN	521	3.34490477573127	1	1	NaN	3723662.4891712	NaN	3723663.4725735	3723663.98911782
106	19	0	0	90	36.1581920903955	36.241610738255	11	0.366704183910042	2	9	4	NaN	2	5	0.118274082371019	1	1	NaN	394	7	16	1	121	221	321	NaN	521	0.678104027640074	2	1	NaN	3723668.1397185	NaN	3723669.1231419	3723669.63967577
106	19	0	0	90	36.1581920903955	36.241610738255	17	0.566724647860974	2	11	4	NaN	2	3	0.118274082371019	1	1	NaN	395	7	17	1	121	221	321	NaN	521	5.16683737561107	2	1	NaN	3723671.1233426	NaN	3723672.1067499	3723672.62330392
106	19	0	0	90	36.1581920903955	36.241610738255	17	0.566724647860974	2	4	4	NaN	1	5	0.118274082371019	1	1	NaN	396	7	18	1	121	221	321	NaN	521	5.80271892761812	2	0	NaN	3723678.6074263	NaN	3723679.5908078	3723680.10737317
106	19	0	0	90	36.1581920903955	36.241610738255	0	0	1	7	2	NaN	2	5	0.118274082371019	1	1	NaN	397	7	19	1	111	211	311	NaN	511	1.33329512784258	2	1	NaN	3723686.7247556	NaN	3723687.7083084	3723688.22483827
106	19	0	0	90	36.1581920903955	36.241610738255	10	0.33336743991822	2	2	4	NaN	1	4	0.118274082371019	1	1	NaN	398	7	20	1	121	221	321	NaN	521	0.539143127854913	1	1	NaN	3723690.3752341	NaN	3723691.3586348	3723691.87519357
106	19	0	0	90	36.1581920903955	36.241610738255	12	0.400040927901864	2	7	6	NaN	2	4	0.118274082371019	1	1	NaN	399	7	21	1	121	221	321	NaN	521	2.01643182802945	1	0	NaN	3723693.2255043	NaN	3723694.208932	3723694.72547447
106	19	0	0	90	36.1581920903955	36.241610738255	21	0.700071623828262	2	4	6	NaN	1	5	0.118274082371019	1	1	NaN	400	7	22	1	121	221	321	NaN	521	0.387613127939403	1	1	NaN	3723697.5592883	NaN	3723698.5426913	3723699.05924487
106	19	0	0	90	36.1581920903955	36.241610738255	20	0.66673487983644	2	4	1	NaN	1	3	0.118274082371019	1	1	NaN	401	7	23	1	121	221	321	NaN	521	0.711015627719462	1	1	NaN	3723700.2595361	NaN	3723701.2429507	3723701.75949877
106	19	0	0	90	36.1581920903955	36.241610738255	6	0.200020463950932	2	9	3	NaN	2	3	0.118274082371019	1	1	NaN	402	7	24	1	121	221	321	NaN	521	0.652886227704585	2	1	NaN	3723703.2931675	NaN	3723704.2765821	3723704.79312717
106	19	0	0	90	36.1581920903955	36.241610738255	11	0.366704183910042	2	7	1	NaN	2	3	0.118274082371019	1	1	NaN	403	7	25	1	121	221	321	NaN	521	0.966099327430129	2	1	NaN	3723706.2601236	NaN	3723707.2435682	3723707.76009027
106	19	0	0	90	36.1581920903955	36.241610738255	17	0.566724647860974	2	12	5	NaN	2	4	0.118274082371019	1	1	NaN	404	7	26	1	121	221	321	NaN	521	2.85825772769749	2	1	NaN	3723709.543788	NaN	3723710.527193	3723711.04374367
106	19	0	0	90	36.1581920903955	36.241610738255	20	0.66673487983644	2	10	2	NaN	2	5	0.118274082371019	1	1	NaN	405	7	27	1	121	221	321	NaN	521	0.715528475586325	2	1	NaN	3723714.7108636	NaN	3723715.6943723	3723716.21091272
106	19	0	0	90	36.1581920903955	36.241610738255	25	0.83341859979555	2	7	6	NaN	2	5	0.118274082371019	1	1	NaN	406	7	28	1	121	221	321	NaN	521	0.689779175911099	2	1	NaN	3723717.7445087	NaN	3723718.7279933	3723719.24454212
106	19	0	0	90	36.1581920903955	36.241610738255	9	0.300030695926398	2	9	3	NaN	2	3	0.118274082371019	1	1	NaN	407	7	29	1	121	221	321	NaN	521	0.809415775816888	2	1	NaN	3723720.7447545	NaN	3723721.7282978	3723722.24483582
106	19	0	0	90	36.1581920903955	36.241610738255	7	0.233357207942754	2	5	2	NaN	1	3	0.118274082371019	1	1	NaN	408	7	30	1	121	221	321	NaN	521	0.604218375869095	1	1	NaN	3723723.8618684	NaN	3723724.8452591	3723725.36181992
106	19	0	0	90	36.1581920903955	36.241610738255	0	0	1	4	4	NaN	1	5	0.118274082371019	1	1	NaN	409	7	31	1	111	211	311	NaN	511	0.423703827895224	1	1	NaN	3723726.7788243	NaN	3723727.7622092	3723728.27877467
106	19	0	0	90	36.1581920903955	36.241610738255	15	0.50005115987733	2	4	3	NaN	1	3	0.118274082371019	1	1	NaN	410	7	32	1	121	221	321	NaN	521	0.553682675585151	1	1	NaN	3723729.512304	NaN	3723730.495819	3723731.01236742
106	19	0	0	90	36.1581920903955	36.241610738255	10	0.33336743991822	2	12	4	NaN	2	5	0.118274082371019	1	1	NaN	411	7	33	1	121	221	321	NaN	521	5.69484882801771	2	1	NaN	3723732.3793702	NaN	3723733.3627703	3723733.87932097
106	19	0	0	90	36.1581920903955	36.241610738255	15	0.50005115987733	2	7	4	NaN	2	4	0.118274082371019	1	1	NaN	412	7	34	1	121	221	321	NaN	521	0.645728427451104	2	1	NaN	3723740.3968264	NaN	3723741.3802159	3723741.89677817
106	19	0	0	90	36.1581920903955	36.241610738255	15	0.50005115987733	2	6	6	NaN	1	5	0.118274082371019	1	1	NaN	413	7	35	1	121	221	321	NaN	521	0.303153575863689	1	1	NaN	3723743.3471125	NaN	3723744.3305201	3723744.84706672
106	19	0	0	90	36.1581920903955	36.241610738255	13	0.433377671893686	2	6	6	NaN	1	4	0.118274082371019	1	1	NaN	414	7	36	1	121	221	321	NaN	521	0.494239731691778	1	1	NaN	3723745.9640682	NaN	3723746.9474329	3723747.46398897
106	19	0	0	90	36.1581920903955	36.241610738255	20	0.66673487983644	2	5	4	NaN	1	3	0.118274082371019	1	1	NaN	415	7	37	1	121	221	321	NaN	521	0.677534075453877	1	1	NaN	3723748.7809768	NaN	3723749.7643878	3723750.28092482
106	19	0	0	90	36.1581920903955	36.241610738255	19	0.633398135844618	2	4	1	NaN	1	4	0.118274082371019	1	1	NaN	416	7	38	1	121	221	321	NaN	521	0.397705775685608	1	1	NaN	3723751.7644586	NaN	3723752.7479995	3723753.26456012
106	19	0	0	90	36.1581920903955	36.241610738255	23	0.766745111811906	2	1	2	NaN	1	5	0.118274082371019	1	1	NaN	417	7	39	1	121	221	321	NaN	521	0.24870614381507	1	1	NaN	3723754.4815399	NaN	3723755.4649493	3723755.98149366
106	19	0	0	90	36.1581920903955	36.241610738255	24	0.800081855803728	2	11	4	NaN	2	5	0.118274082371019	1	1	NaN	418	7	40	1	121	221	321	NaN	521	0.338040375616401	2	1	NaN	3723757.0484774	NaN	3723758.0318661	3723758.54840132
106	19	0	0	90	36.1581920903955	36.241610738255	17	0.566724647860974	2	4	3	NaN	1	3	0.118274082371019	1	1	NaN	419	7	41	1	121	221	321	NaN	521	0.511352675501257	2	0	NaN	3723759.6987282	NaN	3723760.6821255	3723761.19866442
106	19	0	0	90	36.1581920903955	36.241610738255	20	0.66673487983644	2	6	2	NaN	1	4	0.118274082371019	1	1	NaN	420	7	42	1	121	221	321	NaN	521	0.486206475645304	1	1	NaN	3723762.5323215	NaN	3723763.5156344	3723764.03229112
106	19	0	0	90	36.1581920903955	36.241610738255	17	0.566724647860974	2	9	6	NaN	2	3	0.118274082371019	1	1	NaN	421	7	43	1	121	221	321	NaN	521	0.662054027430713	2	1	NaN	3723765.3326098	NaN	3723766.3160021	3723766.83255557
106	19	0	0	90	36.1581920903955	36.241610738255	24	0.800081855803728	2	2	5	NaN	1	3	0.118274082371019	1	1	NaN	422	7	44	1	121	221	321	NaN	521	0.870039927773178	1	1	NaN	3723768.3162309	NaN	3723769.2996261	3723769.81618827
106	19	0	0	90	36.1581920903955	36.241610738255	7	0.233357207942754	2	1	2	NaN	1	4	0.118274082371019	1	1	NaN	423	7	45	1	121	221	321	NaN	521	0.918368028011173	1	1	NaN	3723771.4998642	NaN	3723772.4832893	3723772.99983467
106	19	0	0	90	36.1581920903955	36.241610738255	24	0.800081855803728	2	1	5	NaN	1	4	0.118274082371019	1	1	NaN	424	7	46	1	121	221	321	NaN	521	0.460688775405288	1	1	NaN	3723774.7335192	NaN	3723775.7169279	3723776.23347282
106	19	0	0	90	36.1581920903955	36.241610738255	13	0.433377671893686	2	3	6	NaN	1	4	0.118274082371019	1	1	NaN	425	7	47	1	121	221	321	NaN	521	0.813253744039685	1	1	NaN	3723777.5171259	NaN	3723778.5005619	3723779.01709326
106	19	0	0	90	36.1581920903955	36.241610738255	25	0.83341859979555	2	3	5	NaN	1	3	0.118274082371019	1	1	NaN	426	7	48	1	121	221	321	NaN	521	0.54397027567029	1	1	NaN	3723780.6507735	NaN	3723781.6342004	3723782.15072182
106	19	0	0	90	36.1581920903955	36.241610738255	9	0.300030695926398	2	11	5	NaN	2	5	0.118274082371019	1	1	NaN	427	7	49	1	121	221	321	NaN	521	0.581371027510613	2	1	NaN	3723783.500934	NaN	3723784.4844628	3723785.00100847
106	19	0	0	90	36.1581920903955	36.241610738255	9	0.300030695926398	2	3	2	NaN	1	5	0.118274082371019	1	1	NaN	428	7	50	1	121	221	321	NaN	521	7.44110077572986	2	0	NaN	3723786.4013279	NaN	3723787.3847459	3723787.90128582
106	19	0	0	90	36.1581920903955	36.241610738255	22	0.733408367820084	2	4	2	NaN	1	5	0.118274082371019	1	1	NaN	429	7	51	1	121	221	321	NaN	521	1.21807262767106	1	1	NaN	3723796.1522858	NaN	3723797.1357361	3723797.65225247
106	19	0	0	90	36.1581920903955	36.241610738255	12	0.400040927901864	2	1	1	NaN	1	4	0.118274082371019	1	1	NaN	430	7	52	1	121	221	321	NaN	521	3.32460983190686	1	1	NaN	3723799.6858658	NaN	3723800.6693941	3723801.18593157
106	19	0	0	90	36.1581920903955	36.241610738255	14	0.466714415885508	2	3	6	NaN	1	3	0.118274082371019	1	1	NaN	431	7	53	1	121	221	321	NaN	521	0.4745685281232	1	1	NaN	3723805.3198524	NaN	3723806.303271	3723806.81982287
106	19	0	0	90	36.1581920903955	36.241610738255	14	0.466714415885508	2	1	1	NaN	1	3	0.118274082371019	1	1	NaN	432	7	54	1	121	221	321	NaN	521	1.74693034403026	1	1	NaN	3723808.1034449	NaN	3723809.0868694	3723809.60343476
106	19	0	0	90	36.1581920903955	36.241610738255	24	0.800081855803728	2	7	6	NaN	2	4	0.118274082371019	1	1	NaN	433	7	55	1	121	221	321	NaN	521	0.480011727660894	2	1	NaN	3723812.1705566	NaN	3723813.15397	3723813.67049627
106	19	0	0	90	36.1581920903955	36.241610738255	23	0.766745111811906	2	10	3	NaN	2	4	0.118274082371019	1	1	NaN	434	7	56	1	121	221	321	NaN	521	0.463271027896553	2	1	NaN	3723814.9708121	NaN	3723815.9542232	3723816.47076797
106	19	0	0	90	36.1581920903955	36.241610738255	12	0.400040927901864	2	8	4	NaN	2	4	0.118274082371019	1	1	NaN	435	7	57	1	121	221	321	NaN	521	0.688068927731365	2	1	NaN	3723817.754423	NaN	3723818.7378342	3723819.25437557
106	19	0	0	90	36.1581920903955	36.241610738255	6	0.200020463950932	2	11	2	NaN	2	3	0.118274082371019	1	1	NaN	436	7	58	1	121	221	321	NaN	521	0.607597027905285	2	1	NaN	3723820.7547146	NaN	3723821.7381233	3723822.25467117
106	19	0	0	90	36.1581920903955	36.241610738255	21	0.700071623828262	2	1	5	NaN	1	5	0.118274082371019	1	1	NaN	437	7	59	1	121	221	321	NaN	521	0.626522827427834	1	1	NaN	3723823.6715358	NaN	3723824.6550698	3723825.17162607
106	19	0	0	90	36.1581920903955	36.241610738255	9	0.300030695926398	2	1	5	NaN	1	5	0.118274082371019	1	1	NaN	438	7	60	1	121	221	321	NaN	521	0.64536417555064	1	1	NaN	3723826.6052908	NaN	3723827.5886929	3723828.10523582
106	19	0	0	90	36.1581920903955	36.241610738255	19	0.633398135844618	2	5	6	NaN	1	3	0.118274082371019	1	1	NaN	439	7	61	1	121	221	321	NaN	521	1.16636857576668	1	1	NaN	3723829.5722551	NaN	3723830.5556466	3723831.07220422
106	19	0	0	90	36.1581920903955	36.241610738255	9	0.300030695926398	2	7	1	NaN	2	4	0.118274082371019	1	1	NaN	440	7	62	1	121	221	321	NaN	521	0.706748427823186	2	1	NaN	3723833.0559415	NaN	3723834.039308	3723834.55588207
106	19	0	0	90	36.1581920903955	36.241610738255	23	0.766745111811906	2	1	5	NaN	1	3	0.118274082371019	1	1	NaN	441	7	63	1	121	221	321	NaN	521	0.385782139841467	1	1	NaN	3723836.0728916	NaN	3723837.0562898	3723837.57284246
106	19	0	0	90	36.1581920903955	36.241610738255	15	0.50005115987733	2	3	4	NaN	1	3	0.118274082371019	1	1	NaN	442	8	1	1	121	221	321	NaN	521	0.219076327513903	2	0	NaN	3723867.1592698	NaN	3723868.1426844	3723868.65922907
106	19	0	0	90	36.1581920903955	36.241610738255	0	0	1	1	5	NaN	1	5	0.118274082371019	1	1	NaN	443	8	2	1	111	211	311	NaN	511	0.421662575565279	1	1	NaN	3723869.6928585	NaN	3723870.6762551	3723871.19280142
106	19	0	0	90	36.1581920903955	36.241610738255	11	0.366704183910042	2	2	6	NaN	1	5	0.118274082371019	1	1	NaN	444	8	3	1	121	221	321	NaN	521	0.527826928067952	1	1	NaN	3723872.4264642	NaN	3723873.409863	3723873.92641297
106	19	0	0	90	36.1581920903955	36.241610738255	15	0.50005115987733	2	8	5	NaN	2	3	0.118274082371019	1	1	NaN	445	8	4	1	121	221	321	NaN	521	0.517957128118724	2	1	NaN	3723875.2766007	NaN	3723876.2601747	3723876.77669417
106	19	0	0	90	36.1581920903955	36.241610738255	20	0.66673487983644	2	4	3	NaN	1	5	0.118274082371019	1	1	NaN	446	8	5	1	121	221	321	NaN	521	0.588023775722831	1	1	NaN	3723878.1103539	NaN	3723879.0937435	3723879.61029562
106	19	0	0	90	36.1581920903955	36.241610738255	14	0.466714415885508	2	4	3	NaN	1	4	0.118274082371019	1	1	NaN	447	8	6	1	121	221	321	NaN	521	0.304102327674627	1	1	NaN	3723881.0105095	NaN	3723881.9940316	3723882.51058607
106	19	0	0	90	36.1581920903955	36.241610738255	0	0	1	12	2	NaN	2	4	0.118274082371019	1	1	NaN	448	8	7	1	111	211	311	NaN	511	0.463174175471067	2	1	NaN	3723883.6275565	NaN	3723884.6109585	3723885.12750592
106	19	0	0	90	36.1581920903955	36.241610738255	6	0.200020463950932	2	6	6	NaN	1	5	0.118274082371019	1	1	NaN	449	8	8	1	121	221	321	NaN	521	0.727156827691942	1	1	NaN	3723886.4110402	NaN	3723887.3945638	3723887.91111987
106	19	0	0	90	36.1581920903955	36.241610738255	10	0.33336743991822	2	7	4	NaN	2	4	0.118274082371019	1	1	NaN	450	8	9	1	121	221	321	NaN	521	0.869148375466466	2	1	NaN	3723889.4614744	NaN	3723890.4448741	3723890.96141262
106	19	0	0	90	36.1581920903955	36.241610738255	9	0.300030695926398	2	10	1	NaN	2	5	0.118274082371019	1	1	NaN	451	8	10	1	121	221	321	NaN	521	0.557655475568026	2	1	NaN	3723892.6450952	NaN	3723893.6285072	3723894.14505632
106	19	0	0	90	36.1581920903955	36.241610738255	14	0.466714415885508	2	2	5	NaN	1	3	0.118274082371019	1	1	NaN	452	8	11	1	121	221	321	NaN	521	0.426469075493515	1	1	NaN	3723895.5120611	NaN	3723896.4954532	3723897.01200762
106	19	0	0	90	36.1581920903955	36.241610738255	25	0.83341859979555	2	5	3	NaN	1	3	0.118274082371019	1	1	NaN	453	8	12	1	121	221	321	NaN	521	0.420979875605553	1	1	NaN	3723898.2456696	NaN	3723899.2290482	3723899.74561042
106	19	0	0	90	36.1581920903955	36.241610738255	8	0.266693951934576	2	12	4	NaN	2	3	0.118274082371019	1	1	NaN	454	8	13	1	121	221	321	NaN	521	0.334857027977705	2	1	NaN	3723900.995916	NaN	3723901.9793314	3723902.49588337
106	19	0	0	90	36.1581920903955	36.241610738255	25	0.83341859979555	2	6	3	NaN	1	5	0.118274082371019	1	1	NaN	455	8	14	1	121	221	321	NaN	521	0.196484427433461	1	1	NaN	3723903.6461856	NaN	3723904.6295768	3723905.14614437
106	19	0	0	90	36.1581920903955	36.241610738255	11	0.366704183910042	2	6	1	NaN	1	3	0.118274082371019	1	1	NaN	456	8	15	1	121	221	321	NaN	521	0.197929027490318	1	1	NaN	3723906.5964527	NaN	3723907.5798628	3723908.09643717
106	19	0	0	90	36.1581920903955	36.241610738255	14	0.466714415885508	2	11	1	NaN	2	3	0.118274082371019	1	1	NaN	457	8	16	1	121	221	321	NaN	521	0.273075275588781	2	1	NaN	3723909.1133804	NaN	3723910.0967988	3723910.61333972
106	19	0	0	90	36.1581920903955	36.241610738255	23	0.766745111811906	2	2	5	NaN	1	4	0.118274082371019	1	1	NaN	458	8	17	1	121	221	321	NaN	521	0.0575258755125105	1	1	NaN	3723911.6969794	NaN	3723912.6803952	3723913.19693162
106	19	0	0	90	36.1581920903955	36.241610738255	9	0.300030695926398	2	11	2	NaN	2	5	0.118274082371019	1	1	NaN	459	8	18	1	121	221	321	NaN	521	0.49783297535032	2	1	NaN	3723914.0805631	NaN	3723915.0638542	3723915.58049942
