subjno	age	gender	isPractice	viewdist	CmToPixX	CmToPixY	SOA_frm	SOA_time	targNum	targID	targExample	targRace	targGender	firstTargPos	contrast	familiarity	curr_staircase	iStair	TrialNum	BlockNum	blktrl	sessionNum	TC_FIXATION	TC_RSVP_START	TC_RSVP_END	TC_BLANK	TC_RESPONSE_ONSET	RT2afc	resp_2afc	acc	RSVPOnsetVBL	RSVPOnsetTime	RSVPOffsetVBL	RSVPOffsetTime	startrt_2afc
63	25	0	0	90	36.1581920903955	36.241610738255	0	0	1	3	2	NaN	1	5	0.0463390450497508	0	1	NaN	1	1	1	1	110	210	310	NaN	510	0.17239218018949	1	1	NaN	4309647.0856176	NaN	4309648.0688905	4309648.60200392
63	25	0	0	90	36.1581920903955	36.241610738255	12	0.400041743963957	2	11	6	NaN	2	3	0.0463390450497508	0	1	NaN	2	1	2	1	120	220	320	NaN	520	0.373166480101645	2	1	NaN	4309649.8524928	NaN	4309650.8357964	4309651.36894002
63	25	0	0	90	36.1581920903955	36.241610738255	19	0.633399427942932	2	10	4	NaN	2	5	0.0463390450497508	0	1	NaN	3	1	3	1	120	220	320	NaN	520	0.449140632525086	2	1	NaN	4309652.5692423	NaN	4309653.552675	4309654.06921327
63	25	0	0	90	36.1581920903955	36.241610738255	25	0.83342029992491	2	2	2	NaN	1	5	0.0463390450497508	0	1	NaN	4	1	4	1	120	220	320	NaN	520	0.442201680503786	1	1	NaN	4309655.336196	NaN	4309656.3195894	4309656.83614222
63	25	0	0	90	36.1581920903955	36.241610738255	14	0.46671536795795	2	12	6	NaN	2	5	0.0463390450497508	0	1	NaN	5	1	5	1	120	220	320	NaN	520	0.318566923961043	2	1	NaN	4309658.4198551	NaN	4309659.4032156	4309659.91978508
63	25	0	0	90	36.1581920903955	36.241610738255	6	0.200020871981978	2	2	4	NaN	1	5	0.0463390450497508	0	1	NaN	6	1	6	1	120	220	320	NaN	520	0.332985675893724	2	0	NaN	4309661.4368071	NaN	4309662.4201669	4309662.93674072
63	25	0	0	90	36.1581920903955	36.241610738255	0	0	1	12	6	NaN	2	5	0.0463390450497508	0	1	NaN	7	1	7	1	110	210	310	NaN	510	0.347199727781117	2	1	NaN	4309664.0870505	NaN	4309665.07048	4309665.58700807
63	25	0	0	90	36.1581920903955	36.241610738255	11	0.36670493196696	2	11	6	NaN	2	4	0.0463390450497508	0	1	NaN	8	1	8	1	120	220	320	NaN	520	0.375986428931355	2	1	NaN	4309666.7539394	NaN	4309667.7373826	4309668.25392977
63	25	0	0	90	36.1581920903955	36.241610738255	18	0.600062615945935	2	3	3	NaN	1	4	0.0463390450497508	0	1	NaN	9	1	9	1	120	220	320	NaN	520	0.323809128254652	1	1	NaN	4309669.4542406	NaN	4309670.4376448	4309670.95420357
63	25	0	0	90	36.1581920903955	36.241610738255	12	0.400041743963957	2	3	3	NaN	1	4	0.0463390450497508	0	1	NaN	10	1	10	1	120	220	320	NaN	520	0.266877828165889	2	0	NaN	4309672.4711032	NaN	4309673.4546057	4309673.97118217
63	25	0	0	90	36.1581920903955	36.241610738255	11	0.36670493196696	2	3	4	NaN	1	5	0.0463390450497508	0	1	NaN	11	1	11	1	120	220	320	NaN	520	0.611182975582778	2	0	NaN	4309675.0547787	NaN	4309676.0382289	4309676.55473942
63	25	0	0	90	36.1581920903955	36.241610738255	17	0.566725803948939	2	6	1	NaN	1	4	0.0463390450497508	0	1	NaN	12	1	12	1	120	220	320	NaN	520	0.520166288129985	1	1	NaN	4309678.1216327	NaN	4309679.1051728	4309679.62171871
63	25	0	0	90	36.1581920903955	36.241610738255	10	0.333368119969964	2	12	3	NaN	2	5	0.0463390450497508	0	1	NaN	13	1	13	1	120	220	320	NaN	520	0.350734476000071	1	0	NaN	4309680.9553762	NaN	4309681.9387805	4309682.45532392
63	25	0	0	90	36.1581920903955	36.241610738255	23	0.766746675930917	2	2	3	NaN	1	4	0.0463390450497508	0	1	NaN	14	1	14	1	120	220	320	NaN	520	0.331871228292584	2	0	NaN	4309683.6222908	NaN	4309684.6057011	4309685.12225887
63	25	0	0	90	36.1581920903955	36.241610738255	0	0	1	5	5	NaN	1	3	0.0463390450497508	0	1	NaN	15	1	15	1	110	210	310	NaN	510	0.315105528570712	1	1	NaN	4309686.4391674	NaN	4309687.4226448	4309687.93919827
63	25	0	0	90	36.1581920903955	36.241610738255	21	0.700073051936924	2	12	6	NaN	2	3	0.0463390450497508	0	1	NaN	16	1	16	1	120	220	320	NaN	520	0.411944728344679	2	1	NaN	4309689.4062161	NaN	4309690.3895979	4309690.90615937
63	25	0	0	90	36.1581920903955	36.241610738255	22	0.733409863933921	2	5	2	NaN	1	3	0.0463390450497508	0	1	NaN	17	1	17	1	120	220	320	NaN	520	0.311230875551701	1	1	NaN	4309692.523057	NaN	4309693.5065823	4309694.02312242
63	25	0	0	90	36.1581920903955	36.241610738255	6	0.200020871981978	2	10	2	NaN	2	5	0.0463390450497508	0	1	NaN	18	1	18	1	120	220	320	NaN	520	0.285986075177789	2	1	NaN	4309695.1401387	NaN	4309696.1234956	4309696.64005332
63	25	0	0	90	36.1581920903955	36.241610738255	24	0.800083487927914	2	11	6	NaN	2	3	0.0463390450497508	0	1	NaN	19	1	19	1	120	220	320	NaN	520	0.813791376538575	1	0	NaN	4309697.7403414	NaN	4309698.7237635	4309699.24029852
63	25	0	0	90	36.1581920903955	36.241610738255	10	0.333368119969964	2	5	5	NaN	1	3	0.0463390450497508	0	1	NaN	20	1	20	1	120	220	320	NaN	520	0.424527128227055	2	0	NaN	4309700.8739904	NaN	4309701.8573962	4309702.37393787
63	25	0	0	90	36.1581920903955	36.241610738255	19	0.633399427942932	2	3	3	NaN	1	3	0.0463390450497508	0	1	NaN	21	1	21	1	120	220	320	NaN	520	0.418336128816009	2	0	NaN	4309703.6075834	NaN	4309704.5910158	4309705.10755947
63	25	0	0	90	36.1581920903955	36.241610738255	17	0.566725803948939	2	9	6	NaN	2	5	0.0463390450497508	0	1	NaN	22	1	22	1	120	220	320	NaN	520	0.301244284026325	2	1	NaN	4309706.3411977	NaN	4309707.3245812	4309707.84114372
63	25	0	0	90	36.1581920903955	36.241610738255	16	0.533388991951942	2	6	2	NaN	1	4	0.0463390450497508	0	1	NaN	23	1	23	1	120	220	320	NaN	520	0.332391975447536	1	1	NaN	4309708.9581649	NaN	4309709.941518	4309710.45806622
63	25	0	0	90	36.1581920903955	36.241610738255	17	0.566725803948939	2	10	1	NaN	2	5	0.0463390450497508	0	1	NaN	24	1	24	1	120	220	320	NaN	520	0.250454176217318	2	1	NaN	4309711.7917275	NaN	4309712.7751225	4309713.29168572
63	25	0	0	90	36.1581920903955	36.241610738255	18	0.600062615945935	2	10	4	NaN	2	4	0.0463390450497508	0	1	NaN	25	1	25	1	120	220	320	NaN	520	0.259731028228998	2	1	NaN	4309714.3585193	NaN	4309715.3420381	4309715.85860597
63	25	0	0	90	36.1581920903955	36.241610738255	22	0.733409863933921	2	1	1	NaN	1	4	0.0463390450497508	0	1	NaN	26	1	26	1	120	220	320	NaN	520	0.324129527434707	2	0	NaN	4309716.9422354	NaN	4309717.9256394	4309718.44219177
63	25	0	0	90	36.1581920903955	36.241610738255	21	0.700073051936924	2	5	1	NaN	1	3	0.0463390450497508	0	1	NaN	27	1	27	1	120	220	320	NaN	520	0.297379375435412	1	1	NaN	4309719.5924915	NaN	4309720.5758939	4309721.09243862
63	25	0	0	90	36.1581920903955	36.241610738255	9	0.300031307972968	2	7	2	NaN	2	3	0.0463390450497508	0	1	NaN	28	1	28	1	120	220	320	NaN	520	0.460647976025939	2	1	NaN	4309722.3094447	NaN	4309723.292808	4309723.80938052
63	25	0	0	90	36.1581920903955	36.241610738255	14	0.46671536795795	2	3	5	NaN	1	4	0.0463390450497508	0	1	NaN	29	1	29	1	120	220	320	NaN	520	0.621101223863661	1	1	NaN	4309725.0930758	NaN	4309726.0764425	4309726.59298338
63	25	0	0	90	36.1581920903955	36.241610738255	17	0.566725803948939	2	2	4	NaN	1	4	0.0463390450497508	0	1	NaN	30	1	30	1	120	220	320	NaN	520	0.343526828102767	1	1	NaN	4309728.0266578	NaN	4309729.0100693	4309729.52661247
63	25	0	0	90	36.1581920903955	36.241610738255	21	0.700073051936924	2	8	2	NaN	2	5	0.0463390450497508	0	1	NaN	31	1	31	1	120	220	320	NaN	520	0.276460228487849	2	1	NaN	4309730.6935721	NaN	4309731.6769832	4309732.19352797
63	25	0	0	90	36.1581920903955	36.241610738255	13	0.433378555960953	2	12	1	NaN	2	4	0.0463390450497508	0	1	NaN	32	1	32	1	120	220	320	NaN	520	0.292413676157594	2	1	NaN	4309733.2937392	NaN	4309734.2772368	4309734.79378012
63	25	0	0	90	36.1581920903955	36.241610738255	21	0.700073051936924	2	7	2	NaN	2	5	0.0463390450497508	0	1	NaN	33	1	33	1	120	220	320	NaN	520	0.827429476194084	2	1	NaN	4309735.910766	NaN	4309736.8941508	4309737.41070512
63	25	0	0	90	36.1581920903955	36.241610738255	21	0.700073051936924	2	9	4	NaN	2	3	0.0463390450497508	0	1	NaN	34	1	34	1	120	220	320	NaN	520	0.26935082860291	1	0	NaN	4309739.0610678	NaN	4309740.0444726	4309740.56102647
63	25	0	0	90	36.1581920903955	36.241610738255	23	0.766746675930917	2	7	6	NaN	2	5	0.0463390450497508	0	1	NaN	35	1	35	1	120	220	320	NaN	520	0.389450276270509	2	1	NaN	4309741.6447511	NaN	4309742.6280578	4309743.14462672
63	25	0	0	90	36.1581920903955	36.241610738255	20	0.666736239939928	2	5	6	NaN	1	4	0.0463390450497508	0	1	NaN	36	1	36	1	120	220	320	NaN	520	0.22480427660048	1	1	NaN	4309744.3615824	NaN	4309745.3449827	4309745.86153372
63	25	0	0	90	36.1581920903955	36.241610738255	21	0.700073051936924	2	8	3	NaN	2	3	0.0463390450497508	0	1	NaN	37	1	37	1	120	220	320	NaN	520	0.362514545209706	1	0	NaN	4309746.9118446	NaN	4309747.8952452	4309748.41180106
63	25	0	0	90	36.1581920903955	36.241610738255	20	0.666736239939928	2	11	5	NaN	2	4	0.0463390450497508	0	1	NaN	38	1	38	1	120	220	320	NaN	520	0.622600927948952	2	1	NaN	4309749.5954252	NaN	4309750.578838	4309751.09539327
63	25	0	0	90	36.1581920903955	36.241610738255	12	0.400041743963957	2	8	3	NaN	2	3	0.0463390450497508	0	1	NaN	39	1	39	1	120	220	320	NaN	520	0.97708837594837	1	0	NaN	4309752.5290538	NaN	4309753.5124677	4309754.02900352
63	25	0	0	90	36.1581920903955	36.241610738255	9	0.300031307972968	2	5	1	NaN	1	4	0.0463390450497508	0	1	NaN	40	1	40	1	120	220	320	NaN	520	0.397725428454578	1	1	NaN	4309755.8125812	NaN	4309756.7961113	4309757.31266157
63	25	0	0	90	36.1581920903955	36.241610738255	7	0.233357683978975	2	12	1	NaN	2	3	0.0463390450497508	0	1	NaN	41	1	41	1	120	220	320	NaN	520	0.272567523643374	2	1	NaN	4309758.5296343	NaN	4309759.5130532	4309760.02958698
63	25	0	0	90	36.1581920903955	36.241610738255	7	0.233357683978975	2	11	2	NaN	2	5	0.0463390450497508	0	1	NaN	42	1	42	1	120	220	320	NaN	520	0.644384640268981	2	1	NaN	4309761.2298743	NaN	4309762.2133091	4309762.72986516
63	25	0	0	90	36.1581920903955	36.241610738255	23	0.766746675930917	2	10	5	NaN	2	4	0.0463390450497508	0	1	NaN	43	1	43	1	120	220	320	NaN	520	0.332352928817272	2	1	NaN	4309764.4302098	NaN	4309765.4136585	4309765.93018047
63	25	0	0	90	36.1581920903955	36.241610738255	15	0.500052179954946	2	1	4	NaN	1	4	0.0463390450497508	0	1	NaN	44	1	44	1	120	220	320	NaN	520	0.266097124665976	1	1	NaN	4309767.0805212	NaN	4309768.0638847	4309768.58043348
63	25	0	0	90	36.1581920903955	36.241610738255	14	0.46671536795795	2	9	2	NaN	2	5	0.0463390450497508	0	1	NaN	45	1	45	1	120	220	320	NaN	520	0.249750828370452	2	1	NaN	4309770.0806559	NaN	4309771.0640791	4309771.58072537
63	25	0	0	90	36.1581920903955	36.241610738255	18	0.600062615945935	2	2	1	NaN	1	3	0.0463390450497508	0	1	NaN	46	1	46	1	120	220	320	NaN	520	0.418498727492988	1	1	NaN	4309772.6476762	NaN	4309773.6310873	4309774.14765197
63	25	0	0	90	36.1581920903955	36.241610738255	6	0.200020871981978	2	2	3	NaN	1	4	0.0463390450497508	0	1	NaN	47	1	47	1	120	220	320	NaN	520	0.469205375760794	2	0	NaN	4309775.3812945	NaN	4309776.3646918	4309776.88124032
63	25	0	0	90	36.1581920903955	36.241610738255	16	0.533388991951942	2	2	3	NaN	1	3	0.0463390450497508	0	1	NaN	48	1	48	1	120	220	320	NaN	520	0.603402975946665	1	1	NaN	4309778.4149039	NaN	4309779.3983176	4309779.91487672
63	25	0	0	90	36.1581920903955	36.241610738255	20	0.666736239939928	2	12	2	NaN	2	4	0.0463390450497508	0	1	NaN	49	1	49	1	120	220	320	NaN	520	0.566190376877785	2	1	NaN	4309781.3318792	NaN	4309782.315257	4309782.83182502
63	25	0	0	90	36.1581920903955	36.241610738255	25	0.83342029992491	2	12	2	NaN	2	5	0.0463390450497508	0	1	NaN	50	1	50	1	120	220	320	NaN	520	0.498442028649151	2	1	NaN	4309784.432156	NaN	4309785.4155816	4309785.93214037
63	25	0	0	90	36.1581920903955	36.241610738255	8	0.266694495975971	2	8	1	NaN	2	5	0.0463390450497508	0	1	NaN	51	1	51	1	120	220	320	NaN	520	1.55312447529286	1	0	NaN	4309787.2491193	NaN	4309788.2325287	4309788.74907102
63	25	0	0	90	36.1581920903955	36.241610738255	8	0.266694495975971	2	1	5	NaN	1	4	0.0463390450497508	0	1	NaN	52	1	52	1	120	220	320	NaN	520	0.902008376084268	2	0	NaN	4309791.1161881	NaN	4309792.0995839	4309792.61611782
63	25	0	0	90	36.1581920903955	36.241610738255	19	0.633399427942932	2	2	1	NaN	1	5	0.0463390450497508	0	1	NaN	53	1	53	1	120	220	320	NaN	520	0.341427076607943	1	1	NaN	4309794.3331805	NaN	4309795.3165638	4309795.83309952
63	25	0	0	90	36.1581920903955	36.241610738255	17	0.566725803948939	2	4	1	NaN	1	4	0.0463390450497508	0	1	NaN	54	1	54	1	120	220	320	NaN	520	0.282751176506281	2	0	NaN	4309796.983398	NaN	4309797.9668049	4309798.48335852
63	25	0	0	90	36.1581920903955	36.241610738255	20	0.666736239939928	2	11	2	NaN	2	4	0.0463390450497508	0	1	NaN	55	1	55	1	120	220	320	NaN	520	0.665047476068139	2	1	NaN	4309800.0170642	NaN	4309801.0004461	4309801.51699162
63	25	0	0	90	36.1581920903955	36.241610738255	11	0.36670493196696	2	5	6	NaN	1	5	0.0463390450497508	0	1	NaN	56	1	56	1	120	220	320	NaN	520	0.281696728430688	1	1	NaN	4309803.0007189	NaN	4309803.9841333	4309804.50062727
63	25	0	0	90	36.1581920903955	36.241610738255	22	0.733409863933921	2	7	4	NaN	2	5	0.0463390450497508	0	1	NaN	57	1	57	1	120	220	320	NaN	520	0.929301275871694	1	0	NaN	4309805.6008459	NaN	4309806.5843224	4309807.10087222
63	25	0	0	90	36.1581920903955	36.241610738255	6	0.200020871981978	2	1	4	NaN	1	3	0.0463390450497508	0	1	NaN	58	1	58	1	120	220	320	NaN	520	0.31916337646544	1	1	NaN	4309808.8512343	NaN	4309809.8345827	4309810.35119632
63	25	0	0	90	36.1581920903955	36.241610738255	18	0.600062615945935	2	3	5	NaN	1	3	0.0463390450497508	0	1	NaN	59	1	59	1	120	220	320	NaN	520	0.321078775450587	1	1	NaN	4309811.6014878	NaN	4309812.5849142	4309813.10146812
63	25	0	0	90	36.1581920903955	36.241610738255	6	0.200020871981978	2	7	4	NaN	2	4	0.0463390450497508	0	1	NaN	60	1	60	1	120	220	320	NaN	520	0.399124028161168	2	1	NaN	4309814.2351892	NaN	4309815.2185005	4309815.73506067
63	25	0	0	90	36.1581920903955	36.241610738255	13	0.433378555960953	2	10	6	NaN	2	5	0.0463390450497508	0	1	NaN	61	1	61	1	120	220	320	NaN	520	0.290356127545238	2	1	NaN	4309816.952026	NaN	4309817.9354301	4309818.45198967
63	25	0	0	90	36.1581920903955	36.241610738255	25	0.83342029992491	2	5	2	NaN	1	5	0.0463390450497508	0	1	NaN	62	1	62	1	120	220	320	NaN	520	0.346283923834562	1	1	NaN	4309819.7522887	NaN	4309820.7357017	4309821.25225758
63	25	0	0	90	36.1581920903955	36.241610738255	6	0.200020871981978	2	4	5	NaN	1	3	0.0463390450497508	0	1	NaN	63	1	63	1	120	220	320	NaN	520	0.223878376185894	1	1	NaN	4309822.402539	NaN	4309823.3859797	4309823.90252462
63	25	0	0	90	36.1581920903955	36.241610738255	9	0.300031307972968	2	11	3	NaN	2	5	0.0463390450497508	0	1	NaN	64	2	1	1	120	220	320	NaN	520	0.266198528930545	1	0	NaN	4309838.3040655	NaN	4309839.2875313	4309839.80407887
63	25	0	0	90	36.1581920903955	36.241610738255	6	0.200020871981978	2	12	5	NaN	2	4	0.0463390450497508	0	1	NaN	65	2	2	1	120	220	320	NaN	520	0.259207328781486	1	0	NaN	4309841.0710398	NaN	4309842.0544668	4309842.57102217
63	25	0	0	90	36.1581920903955	36.241610738255	0	0	1	4	4	NaN	1	4	0.0463390450497508	0	1	NaN	66	2	3	1	110	210	310	NaN	510	0.14040747564286	2	0	NaN	4309843.6379955	NaN	4309844.6213866	4309845.13793892
63	25	0	0	90	36.1581920903955	36.241610738255	12	0.400041743963957	2	5	5	NaN	1	4	0.0463390450497508	0	1	NaN	67	2	4	1	120	220	320	NaN	520	0.266196475364268	1	1	NaN	4309846.0882763	NaN	4309847.0716189	4309847.58817922
63	25	0	0	90	36.1581920903955	36.241610738255	20	0.666736239939928	2	7	3	NaN	2	4	0.0463390450497508	0	1	NaN	68	2	5	1	120	220	320	NaN	520	0.301233976148069	1	0	NaN	4309848.805135	NaN	4309849.7885663	4309850.30510832
63	25	0	0	90	36.1581920903955	36.241610738255	19	0.633399427942932	2	2	1	NaN	1	4	0.0463390450497508	0	1	NaN	69	2	6	1	120	220	320	NaN	520	0.364167028106749	2	0	NaN	4309851.4220858	NaN	4309852.4054725	4309852.92203817
63	25	0	0	90	36.1581920903955	36.241610738255	19	0.633399427942932	2	1	2	NaN	1	4	0.0463390450497508	0	1	NaN	70	2	7	1	120	220	320	NaN	520	0.265907868742943	1	1	NaN	4309854.2723648	NaN	4309855.255762	4309855.77230473
63	25	0	0	90	36.1581920903955	36.241610738255	21	0.700073051936924	2	4	4	NaN	1	5	0.0463390450497508	0	1	NaN	71	2	8	1	120	220	320	NaN	520	0.253948227502406	1	1	NaN	4309856.9726074	NaN	4309857.9560251	4309858.47257907
63	25	0	0	90	36.1581920903955	36.241610738255	19	0.633399427942932	2	5	5	NaN	1	3	0.0463390450497508	0	1	NaN	72	2	9	1	120	220	320	NaN	520	0.270884576253593	1	1	NaN	4309859.5395464	NaN	4309860.5229427	4309861.03949952
63	25	0	0	90	36.1581920903955	36.241610738255	25	0.83342029992491	2	11	1	NaN	2	3	0.0463390450497508	0	1	NaN	73	2	10	1	120	220	320	NaN	520	0.527338127605617	2	1	NaN	4309862.1231606	NaN	4309863.106523	4309863.62308647
63	25	0	0	90	36.1581920903955	36.241610738255	18	0.600062615945935	2	4	2	NaN	1	4	0.0463390450497508	0	1	NaN	74	2	11	1	120	220	320	NaN	520	0.285426836460829	1	1	NaN	4309864.9734096	NaN	4309865.9568093	4309866.47336126
63	25	0	0	90	36.1581920903955	36.241610738255	22	0.733409863933921	2	9	5	NaN	2	4	0.0463390450497508	0	1	NaN	75	2	12	1	120	220	320	NaN	520	0.323464628309011	2	1	NaN	4309868.207036	NaN	4309869.1904579	4309869.70701597
63	25	0	0	90	36.1581920903955	36.241610738255	0	0	1	2	3	NaN	1	5	0.0463390450497508	0	1	NaN	76	2	13	1	110	210	310	NaN	510	0.323914228007197	2	0	NaN	4309870.9906705	NaN	4309871.9740631	4309872.49062017
63	25	0	0	90	36.1581920903955	36.241610738255	17	0.566725803948939	2	6	4	NaN	1	3	0.0463390450497508	0	1	NaN	77	2	14	1	120	220	320	NaN	520	0.0104129277169704	1	1	NaN	4309874.0074999	NaN	4309874.9910209	4309875.50758267
63	25	0	0	90	36.1581920903955	36.241610738255	20	0.666736239939928	2	1	4	NaN	1	5	0.0463390450497508	0	1	NaN	78	2	15	1	120	220	320	NaN	520	0.0848464239388704	1	1	NaN	4309876.7411713	NaN	4309877.7246341	4309878.24118128
63	25	0	0	90	36.1581920903955	36.241610738255	11	0.36670493196696	2	5	6	NaN	1	3	0.0463390450497508	0	1	NaN	79	2	16	1	120	220	320	NaN	520	0.570869276300073	1	1	NaN	4309879.5914872	NaN	4309880.5749214	4309881.09145212
63	25	0	0	90	36.1581920903955	36.241610738255	12	0.400041743963957	2	1	1	NaN	1	4	0.0463390450497508	0	1	NaN	80	2	17	1	120	220	320	NaN	520	0.559517728164792	1	1	NaN	4309882.4750076	NaN	4309883.4585198	4309883.97508017
63	25	0	0	90	36.1581920903955	36.241610738255	17	0.566725803948939	2	3	6	NaN	1	4	0.0463390450497508	0	1	NaN	81	2	18	1	120	220	320	NaN	520	0.308634076267481	2	0	NaN	4309885.3420962	NaN	4309886.3255055	4309886.84202072
63	25	0	0	90	36.1581920903955	36.241610738255	14	0.46671536795795	2	5	2	NaN	1	3	0.0463390450497508	0	1	NaN	82	2	19	1	120	220	320	NaN	520	0.251296375878155	1	1	NaN	4309887.9589901	NaN	4309888.942402	4309889.45893982
63	25	0	0	90	36.1581920903955	36.241610738255	7	0.233357683978975	2	6	2	NaN	1	5	0.0463390450497508	0	1	NaN	83	2	20	1	120	220	320	NaN	520	0.252705328166485	1	1	NaN	4309890.5259089	NaN	4309891.5093294	4309892.02586847
63	25	0	0	90	36.1581920903955	36.241610738255	16	0.533388991951942	2	9	1	NaN	2	3	0.0463390450497508	0	1	NaN	84	2	21	1	120	220	320	NaN	520	0.342917875386775	1	0	NaN	4309893.2593835	NaN	4309894.2429172	4309894.75946172
63	25	0	0	90	36.1581920903955	36.241610738255	19	0.633399427942932	2	8	1	NaN	2	4	0.0463390450497508	0	1	NaN	85	2	22	1	120	220	320	NaN	520	0.71652152761817	2	1	NaN	4309895.9097547	NaN	4309896.8931766	4309897.40972047
63	25	0	0	90	36.1581920903955	36.241610738255	6	0.200020871981978	2	1	3	NaN	1	4	0.0463390450497508	0	1	NaN	86	2	23	1	120	220	320	NaN	520	0.235316428355873	1	1	NaN	4309898.9434142	NaN	4309899.9268184	4309900.44336007
63	25	0	0	90	36.1581920903955	36.241610738255	15	0.500052179954946	2	9	5	NaN	2	5	0.0463390450497508	0	1	NaN	87	2	24	1	120	220	320	NaN	520	0.252885728143156	1	0	NaN	4309901.4935227	NaN	4309902.4770642	4309902.99361227
63	25	0	0	90	36.1581920903955	36.241610738255	7	0.233357683978975	2	11	1	NaN	2	5	0.0463390450497508	0	1	NaN	88	2	25	1	120	220	320	NaN	520	0.805844575166702	2	1	NaN	4309904.0605783	NaN	4309905.043965	4309905.56051992
63	25	0	0	90	36.1581920903955	36.241610738255	9	0.300031307972968	2	4	1	NaN	1	5	0.0463390450497508	0	1	NaN	89	2	26	1	120	220	320	NaN	520	0.281198828481138	1	1	NaN	4309907.1775969	NaN	4309908.1610548	4309908.67750287
63	25	0	0	90	36.1581920903955	36.241610738255	15	0.500052179954946	2	8	1	NaN	2	4	0.0463390450497508	0	1	NaN	90	2	27	1	120	220	320	NaN	520	0.273233775980771	1	0	NaN	4309909.7611339	NaN	4309910.7445209	4309911.26108502
63	25	0	0	90	36.1581920903955	36.241610738255	22	0.733409863933921	2	5	4	NaN	1	4	0.0463390450497508	0	1	NaN	91	2	28	1	120	220	320	NaN	520	0.185962676070631	2	0	NaN	4309912.3447373	NaN	4309913.328104	4309913.84466652
63	25	0	0	90	36.1581920903955	36.241610738255	9	0.300031307972968	2	11	1	NaN	2	5	0.0463390450497508	0	1	NaN	92	2	29	1	120	220	320	NaN	520	0.221475675702095	1	0	NaN	4309914.8449715	NaN	4309915.8283651	4309916.34490852
63	25	0	0	90	36.1581920903955	36.241610738255	15	0.500052179954946	2	2	1	NaN	1	4	0.0463390450497508	0	1	NaN	93	2	30	1	120	220	320	NaN	520	0.488010575994849	1	1	NaN	4309917.3785655	NaN	4309918.3619404	4309918.87849172
63	25	0	0	90	36.1581920903955	36.241610738255	9	0.300031307972968	2	9	5	NaN	2	4	0.0463390450497508	0	1	NaN	94	2	31	1	120	220	320	NaN	520	0.247779175639153	2	1	NaN	4309920.1788251	NaN	4309921.1622165	4309921.67876452
63	25	0	0	90	36.1581920903955	36.241610738255	24	0.800083487927914	2	10	3	NaN	2	4	0.0463390450497508	0	1	NaN	95	2	32	1	120	220	320	NaN	520	0.257022527977824	1	0	NaN	4309922.7457406	NaN	4309923.7291293	4309924.24569297
63	25	0	0	90	36.1581920903955	36.241610738255	6	0.200020871981978	2	5	4	NaN	1	4	0.0463390450497508	0	1	NaN	96	2	33	1	120	220	320	NaN	520	0.217907875776291	2	0	NaN	4309925.3126128	NaN	4309926.2960575	4309926.81260482
63	25	0	0	90	36.1581920903955	36.241610738255	12	0.400041743963957	2	3	3	NaN	1	4	0.0463390450497508	0	1	NaN	97	2	34	1	120	220	320	NaN	520	0.412311128340662	2	0	NaN	4309927.8462239	NaN	4309928.8296275	4309929.34619457
63	25	0	0	90	36.1581920903955	36.241610738255	18	0.600062615945935	2	5	2	NaN	1	5	0.0463390450497508	0	1	NaN	98	2	35	1	120	220	320	NaN	520	0.982636427506804	1	1	NaN	4309930.5798231	NaN	4309931.5632416	4309932.07979447
63	25	0	0	90	36.1581920903955	36.241610738255	14	0.46671536795795	2	10	1	NaN	2	3	0.0463390450497508	0	1	NaN	99	2	36	1	120	220	320	NaN	520	0.234519327990711	2	1	NaN	4309933.8801596	NaN	4309934.8635713	4309935.38011917
63	25	0	0	90	36.1581920903955	36.241610738255	11	0.36670493196696	2	7	5	NaN	2	4	0.0463390450497508	0	1	NaN	100	2	37	1	120	220	320	NaN	520	0.323906528763473	1	0	NaN	4309936.4304096	NaN	4309937.4138122	4309937.93036427
63	25	0	0	90	36.1581920903955	36.241610738255	23	0.766746675930917	2	9	1	NaN	2	5	0.0463390450497508	0	1	NaN	101	2	38	1	120	220	320	NaN	520	0.314448676072061	2	1	NaN	4309939.0640705	NaN	4309940.0474035	4309940.56395742
63	25	0	0	90	36.1581920903955	36.241610738255	16	0.533388991951942	2	5	4	NaN	1	3	0.0463390450497508	0	1	NaN	102	2	39	1	120	220	320	NaN	520	0.248958428390324	1	1	NaN	4309941.6975903	NaN	4309942.6809914	4309943.19754677
63	25	0	0	90	36.1581920903955	36.241610738255	14	0.46671536795795	2	6	5	NaN	1	5	0.0463390450497508	0	1	NaN	103	2	40	1	120	220	320	NaN	520	0.242643827572465	1	1	NaN	4309944.2478311	NaN	4309945.2312446	4309945.74779997
63	25	0	0	90	36.1581920903955	36.241610738255	19	0.633399427942932	2	7	5	NaN	2	4	0.0463390450497508	0	1	NaN	104	2	41	1	120	220	320	NaN	520	0.27674757130444	1	0	NaN	4309946.798123	NaN	4309947.7815102	4309948.29803873
63	25	0	0	90	36.1581920903955	36.241610738255	22	0.733409863933921	2	3	4	NaN	1	5	0.0463390450497508	0	1	NaN	105	2	42	1	120	220	320	NaN	520	0.0208041276782751	1	1	NaN	4309949.3816807	NaN	4309950.3651133	4309950.88165497
63	25	0	0	90	36.1581920903955	36.241610738255	16	0.533388991951942	2	12	1	NaN	2	3	0.0463390450497508	0	1	NaN	106	2	43	1	120	220	320	NaN	520	0.263420628383756	2	1	NaN	4309951.7152232	NaN	4309952.6986581	4309953.21519217
63	25	0	0	90	36.1581920903955	36.241610738255	7	0.233357683978975	2	8	1	NaN	2	3	0.0463390450497508	0	1	NaN	107	2	44	1	120	220	320	NaN	520	0.511898975819349	2	1	NaN	4309954.2988296	NaN	4309955.2822262	4309955.79877702
63	25	0	0	90	36.1581920903955	36.241610738255	23	0.766746675930917	2	4	1	NaN	1	5	0.0463390450497508	0	1	NaN	108	2	45	1	120	220	320	NaN	520	0.302133628167212	1	1	NaN	4309957.1323931	NaN	4309958.1158494	4309958.63238927
63	25	0	0	90	36.1581920903955	36.241610738255	13	0.433378555960953	2	7	4	NaN	2	5	0.0463390450497508	0	1	NaN	109	2	46	1	120	220	320	NaN	520	0.293248232454062	1	0	NaN	4309959.7493816	NaN	4309960.7327551	4309961.24931077
63	25	0	0	90	36.1581920903955	36.241610738255	22	0.733409863933921	2	12	5	NaN	2	3	0.0463390450497508	0	1	NaN	110	2	47	1	120	220	320	NaN	520	0.429173927754164	2	1	NaN	4309962.3496191	NaN	4309963.3330711	4309963.84957687
63	25	0	0	90	36.1581920903955	36.241610738255	20	0.666736239939928	2	10	2	NaN	2	4	0.0463390450497508	0	1	NaN	111	2	48	1	120	220	320	NaN	520	0.29453512839973	2	1	NaN	4309965.0998894	NaN	4309966.0832746	4309966.59984477
63	25	0	0	90	36.1581920903955	36.241610738255	25	0.83342029992491	2	4	6	NaN	1	4	0.0463390450497508	0	1	NaN	112	2	49	1	120	220	320	NaN	520	0.0219060759991407	1	1	NaN	4309967.7168065	NaN	4309968.7002173	4309969.21675832
63	25	0	0	90	36.1581920903955	36.241610738255	22	0.733409863933921	2	8	1	NaN	2	3	0.0463390450497508	0	1	NaN	113	2	50	1	120	220	320	NaN	520	0.245664328336716	1	0	NaN	4309970.5171754	NaN	4309971.5004847	4309972.01703507
63	25	0	0	90	36.1581920903955	36.241610738255	11	0.36670493196696	2	8	2	NaN	2	4	0.0463390450497508	0	1	NaN	114	2	51	1	120	220	320	NaN	520	0.238556676544249	2	1	NaN	4309973.0840209	NaN	4309974.0674093	4309974.58395222
63	25	0	0	90	36.1581920903955	36.241610738255	17	0.566725803948939	2	3	1	NaN	1	3	0.0463390450497508	0	1	NaN	115	2	52	1	120	220	320	NaN	520	0.480232400819659	2	0	NaN	4309975.6343014	NaN	4309976.6176492	4309977.1342285
63	25	0	0	90	36.1581920903955	36.241610738255	9	0.300031307972968	2	3	6	NaN	1	4	0.0463390450497508	0	1	NaN	116	2	53	1	120	220	320	NaN	520	0.0103968279436231	1	1	NaN	4309978.4178526	NaN	4309979.40127	4309979.91781657
63	25	0	0	90	36.1581920903955	36.241610738255	20	0.666736239939928	2	3	1	NaN	1	4	0.0463390450497508	0	1	NaN	117	2	54	1	120	220	320	NaN	520	0.420024575665593	1	1	NaN	4309980.7347751	NaN	4309981.7181282	4309982.23469982
63	25	0	0	90	36.1581920903955	36.241610738255	15	0.500052179954946	2	4	4	NaN	1	3	0.0463390450497508	0	1	NaN	118	2	55	1	120	220	320	NaN	520	0.262410035356879	1	1	NaN	4309983.4683617	NaN	4309984.4517631	4309984.96830296
63	25	0	0	90	36.1581920903955	36.241610738255	21	0.700073051936924	2	12	3	NaN	2	5	0.0463390450497508	0	1	NaN	119	2	56	1	120	220	320	NaN	520	0.959188528358936	2	1	NaN	4309986.0352972	NaN	4309987.0186881	4309987.53522897
63	25	0	0	90	36.1581920903955	36.241610738255	18	0.600062615945935	2	6	5	NaN	1	4	0.0463390450497508	0	1	NaN	120	2	57	1	120	220	320	NaN	520	0.252188523299992	1	1	NaN	4309989.3022905	NaN	4309990.2856647	4309990.80220748
63	25	0	0	90	36.1581920903955	36.241610738255	0	0	1	7	6	NaN	2	5	0.0463390450497508	0	1	NaN	121	2	58	1	110	210	310	NaN	510	0.389683776535094	2	1	NaN	4309991.8691778	NaN	4309992.8525688	4309993.36912902
63	25	0	0	90	36.1581920903955	36.241610738255	8	0.266694495975971	2	4	2	NaN	1	3	0.0463390450497508	0	1	NaN	122	2	59	1	120	220	320	NaN	520	0.161195987835526	1	1	NaN	4309994.5693228	NaN	4309995.5528258	4309996.06940691
63	25	0	0	90	36.1581920903955	36.241610738255	25	0.83342029992491	2	12	4	NaN	2	5	0.0463390450497508	0	1	NaN	123	2	60	1	120	220	320	NaN	520	0.262194876559079	2	1	NaN	4309997.0364287	NaN	4309998.0197548	4309998.53629882
63	25	0	0	90	36.1581920903955	36.241610738255	18	0.600062615945935	2	6	4	NaN	1	4	0.0463390450497508	0	1	NaN	124	2	61	1	120	220	320	NaN	520	0.223192128352821	1	1	NaN	4309999.6032598	NaN	4310000.5866834	4310001.10322327
63	25	0	0	90	36.1581920903955	36.241610738255	6	0.200020871981978	2	8	2	NaN	2	4	0.0463390450497508	0	1	NaN	125	2	62	1	120	220	320	NaN	520	0.957632675766945	2	1	NaN	4310002.6368638	NaN	4310003.6202999	4310004.13685132
63	25	0	0	90	36.1581920903955	36.241610738255	7	0.233357683978975	2	3	2	NaN	1	5	0.0463390450497508	0	1	NaN	126	2	63	1	120	220	320	NaN	520	0.393976976163685	1	1	NaN	4310005.9205637	NaN	4310006.9039627	4310007.42050112
63	25	0	0	90	36.1581920903955	36.241610738255	19	0.633399427942932	2	10	5	NaN	2	4	0.0463390450497508	0	1	NaN	127	3	1	1	120	220	320	NaN	520	0.747653375379741	1	0	NaN	4310019.4552083	NaN	4310020.4386098	4310020.95515852
63	25	0	0	90	36.1581920903955	36.241610738255	7	0.233357683978975	2	5	3	NaN	1	5	0.0463390450497508	0	1	NaN	128	3	2	1	120	220	320	NaN	520	0.433263228274882	2	0	NaN	4310022.9055382	NaN	4310023.888951	4310024.40551037
63	25	0	0	90	36.1581920903955	36.241610738255	11	0.36670493196696	2	10	3	NaN	2	3	0.0463390450497508	0	1	NaN	129	3	3	1	120	220	320	NaN	520	0.335514944046736	2	1	NaN	4310025.9392568	NaN	4310026.9225696	4310027.43914506
63	25	0	0	90	36.1581920903955	36.241610738255	24	0.800083487927914	2	1	2	NaN	1	5	0.0463390450497508	0	1	NaN	130	3	4	1	120	220	320	NaN	520	0.381434991955757	2	0	NaN	4310028.5894334	NaN	4310029.5728458	4310030.08939481
63	25	0	0	90	36.1581920903955	36.241610738255	0	0	1	8	5	NaN	2	5	0.0463390450497508	0	1	NaN	131	3	5	1	110	210	310	NaN	510	0.281642975285649	2	1	NaN	4310031.2729119	NaN	4310032.2565311	4310032.77298502
63	25	0	0	90	36.1581920903955	36.241610738255	17	0.566725803948939	2	5	3	NaN	1	4	0.0463390450497508	0	1	NaN	132	3	6	1	120	220	320	NaN	520	0.26537982840091	2	0	NaN	4310033.8732958	NaN	4310034.8565919	4310035.37325257
63	25	0	0	90	36.1581920903955	36.241610738255	16	0.533388991951942	2	9	2	NaN	2	4	0.0463390450497508	0	1	NaN	133	3	7	1	120	220	320	NaN	520	0.561752876266837	2	1	NaN	4310036.4568709	NaN	4310037.4402889	4310037.95683662
63	25	0	0	90	36.1581920903955	36.241610738255	14	0.46671536795795	2	4	3	NaN	1	4	0.0463390450497508	0	1	NaN	134	3	8	1	120	220	320	NaN	520	0.374272388406098	2	0	NaN	4310039.3404942	NaN	4310040.3238867	4310040.84045351
63	25	0	0	90	36.1581920903955	36.241610738255	23	0.766746675930917	2	9	3	NaN	2	3	0.0463390450497508	0	1	NaN	135	3	9	1	120	220	320	NaN	520	0.330621628090739	2	1	NaN	4310042.0241011	NaN	4310043.0074879	4310043.52404417
63	25	0	0	90	36.1581920903955	36.241610738255	14	0.46671536795795	2	4	3	NaN	1	4	0.0463390450497508	0	1	NaN	136	3	10	1	120	220	320	NaN	520	0.344105828553438	2	0	NaN	4310044.674353	NaN	4310045.6577541	4310046.17431057
63	25	0	0	90	36.1581920903955	36.241610738255	7	0.233357683978975	2	4	3	NaN	1	4	0.0463390450497508	0	1	NaN	137	3	11	1	120	220	320	NaN	520	0.438051476143301	2	0	NaN	4310047.3245976	NaN	4310048.3080119	4310048.82457022
63	25	0	0	90	36.1581920903955	36.241610738255	7	0.233357683978975	2	10	2	NaN	2	4	0.0463390450497508	0	1	NaN	138	3	12	1	120	220	320	NaN	520	0.407760339789093	2	1	NaN	4310050.0748837	NaN	4310051.0582772	4310051.57483186
63	25	0	0	90	36.1581920903955	36.241610738255	24	0.800083487927914	2	3	3	NaN	1	3	0.0463390450497508	0	1	NaN	139	3	13	1	120	220	320	NaN	520	0.242966376245022	1	1	NaN	4310052.7919123	NaN	4310053.7752167	4310054.29176162
63	25	0	0	90	36.1581920903955	36.241610738255	25	0.83342029992491	2	1	3	NaN	1	4	0.0463390450497508	0	1	NaN	140	3	14	1	120	220	320	NaN	520	0.244577076286077	2	0	NaN	4310055.3420696	NaN	4310056.3254625	4310056.84201972
63	25	0	0	90	36.1581920903955	36.241610738255	17	0.566725803948939	2	11	1	NaN	2	3	0.0463390450497508	0	1	NaN	141	3	15	1	120	220	320	NaN	520	0.212307227775455	2	1	NaN	4310058.3422417	NaN	4310059.3257611	4310059.84231537
63	25	0	0	90	36.1581920903955	36.241610738255	13	0.433378555960953	2	5	6	NaN	1	3	0.0463390450497508	0	1	NaN	142	3	16	1	120	220	320	NaN	520	0.263070575892925	1	1	NaN	4310060.8759568	NaN	4310061.8593657	4310062.37589542
63	25	0	0	90	36.1581920903955	36.241610738255	7	0.233357683978975	2	9	5	NaN	2	3	0.0463390450497508	0	1	NaN	143	3	17	1	120	220	320	NaN	520	0.199103423394263	1	0	NaN	4310063.4595541	NaN	4310064.4429284	4310064.95947818
63	25	0	0	90	36.1581920903955	36.241610738255	14	0.46671536795795	2	7	6	NaN	2	4	0.0463390450497508	0	1	NaN	144	3	18	1	120	220	320	NaN	520	0.29820382874459	2	1	NaN	4310065.9764379	NaN	4310066.9598341	4310067.47639187
63	25	0	0	90	36.1581920903955	36.241610738255	23	0.766746675930917	2	7	2	NaN	2	5	0.0463390450497508	0	1	NaN	145	3	19	1	120	220	320	NaN	520	0.497597583569586	2	1	NaN	4310068.5933855	NaN	4310069.5767686	4310070.09331742
63	25	0	0	90	36.1581920903955	36.241610738255	23	0.766746675930917	2	5	3	NaN	1	4	0.0463390450497508	0	1	NaN	146	3	20	1	120	220	320	NaN	520	0.256587645038962	1	1	NaN	4310071.4103122	NaN	4310072.3936919	4310072.91025876
63	25	0	0	90	36.1581920903955	36.241610738255	19	0.633399427942932	2	6	5	NaN	1	5	0.0463390450497508	0	1	NaN	147	3	21	1	120	220	320	NaN	520	0.438467576168478	1	1	NaN	4310074.4605783	NaN	4310075.444007	4310075.96055152
63	25	0	0	90	36.1581920903955	36.241610738255	10	0.333368119969964	2	2	5	NaN	1	5	0.0463390450497508	0	1	NaN	148	3	22	1	120	220	320	NaN	520	0.303798528388143	2	0	NaN	4310077.2108726	NaN	4310078.1942641	4310078.71083127
63	25	0	0	90	36.1581920903955	36.241610738255	24	0.800083487927914	2	6	1	NaN	1	5	0.0463390450497508	0	1	NaN	149	3	23	1	120	220	320	NaN	520	0.231225628405809	1	1	NaN	4310079.8278015	NaN	4310080.8112034	4310081.32774987
63	25	0	0	90	36.1581920903955	36.241610738255	6	0.200020871981978	2	11	6	NaN	2	4	0.0463390450497508	0	1	NaN	150	3	24	1	120	220	320	NaN	520	0.288957975804806	1	0	NaN	4310082.3780471	NaN	4310083.3614597	4310083.87799992
63	25	0	0	90	36.1581920903955	36.241610738255	22	0.733409863933921	2	6	2	NaN	1	4	0.0463390450497508	0	1	NaN	151	3	25	1	120	220	320	NaN	520	0.264430975541472	1	1	NaN	4310084.9783003	NaN	4310085.9617057	4310086.47824832
63	25	0	0	90	36.1581920903955	36.241610738255	24	0.800083487927914	2	1	3	NaN	1	3	0.0463390450497508	0	1	NaN	152	3	26	1	120	220	320	NaN	520	0.288834435865283	1	1	NaN	4310087.5619078	NaN	4310088.5453012	4310089.06184596
63	25	0	0	90	36.1581920903955	36.241610738255	11	0.36670493196696	2	9	4	NaN	2	3	0.0463390450497508	0	1	NaN	153	3	27	1	120	220	320	NaN	520	0.213943028822541	1	0	NaN	4310090.6288288	NaN	4310091.6122657	4310092.12880897
63	25	0	0	90	36.1581920903955	36.241610738255	20	0.666736239939928	2	3	4	NaN	1	5	0.0463390450497508	0	1	NaN	154	3	28	1	120	220	320	NaN	520	0.264472328126431	1	1	NaN	4310093.1624753	NaN	4310094.1458351	4310094.66238967
63	25	0	0	90	36.1581920903955	36.241610738255	21	0.700073051936924	2	4	6	NaN	1	3	0.0463390450497508	0	1	NaN	155	3	29	1	120	220	320	NaN	520	0.224695276468992	1	1	NaN	4310095.746026	NaN	4310096.7294302	4310097.24597542
63	25	0	0	90	36.1581920903955	36.241610738255	6	0.200020871981978	2	7	1	NaN	2	4	0.0463390450497508	0	1	NaN	156	3	30	1	120	220	320	NaN	520	0.226996875368059	2	1	NaN	4310098.2796057	NaN	4310099.2630227	4310099.77954952
63	25	0	0	90	36.1581920903955	36.241610738255	8	0.266694495975971	2	7	4	NaN	2	3	0.0463390450497508	0	1	NaN	157	3	31	1	120	220	320	NaN	520	0.245606076903641	1	0	NaN	4310100.8132632	NaN	4310101.7965875	4310102.31314402
63	25	0	0	90	36.1581920903955	36.241610738255	25	0.83342029992491	2	10	4	NaN	2	5	0.0463390450497508	0	1	NaN	158	3	32	1	120	220	320	NaN	520	0.231389327906072	1	0	NaN	4310103.3634291	NaN	4310104.3468309	4310104.86338847
63	25	0	0	90	36.1581920903955	36.241610738255	14	0.46671536795795	2	1	5	NaN	1	5	0.0463390450497508	0	1	NaN	159	3	33	1	120	220	320	NaN	520	0.273307728581131	2	0	NaN	4310105.9136182	NaN	4310106.8971173	4310107.41364327
63	25	0	0	90	36.1581920903955	36.241610738255	9	0.300031307972968	2	12	6	NaN	2	3	0.0463390450497508	0	1	NaN	160	3	34	1	120	220	320	NaN	520	0.331129427999258	2	1	NaN	4310108.6638956	NaN	4310109.6473681	4310110.16391437
63	25	0	0	90	36.1581920903955	36.241610738255	10	0.333368119969964	2	7	3	NaN	2	4	0.0463390450497508	0	1	NaN	161	3	35	1	120	220	320	NaN	520	0.360451376065612	2	1	NaN	4310111.3142173	NaN	4310112.2976348	4310112.81417432
63	25	0	0	90	36.1581920903955	36.241610738255	14	0.46671536795795	2	1	1	NaN	1	3	0.0463390450497508	0	1	NaN	162	3	36	1	120	220	320	NaN	520	0.19787167571485	1	1	NaN	4310113.9811461	NaN	4310114.9645477	4310115.48108862
63	25	0	0	90	36.1581920903955	36.241610738255	11	0.36670493196696	2	7	4	NaN	2	4	0.0463390450497508	0	1	NaN	163	3	37	1	120	220	320	NaN	520	0.272520228289068	1	0	NaN	4310116.4981544	NaN	4310117.4814633	4310117.99800707
63	25	0	0	90	36.1581920903955	36.241610738255	13	0.433378555960953	2	10	6	NaN	2	4	0.0463390450497508	0	1	NaN	164	3	38	1	120	220	320	NaN	520	0.225280628539622	2	1	NaN	4310119.0816653	NaN	4310120.065046	4310120.58159987
63	25	0	0	90	36.1581920903955	36.241610738255	16	0.533388991951942	2	6	1	NaN	1	4	0.0463390450497508	0	1	NaN	165	3	39	1	120	220	320	NaN	520	0.275711423717439	1	1	NaN	4310121.6152293	NaN	4310122.5986316	4310123.11519258
63	25	0	0	90	36.1581920903955	36.241610738255	21	0.700073051936924	2	2	2	NaN	1	3	0.0463390450497508	0	1	NaN	166	3	40	1	120	220	320	NaN	520	0.219841827638447	1	1	NaN	4310124.5988247	NaN	4310125.5822518	4310126.09880337
63	25	0	0	90	36.1581920903955	36.241610738255	8	0.266694495975971	2	9	4	NaN	2	5	0.0463390450497508	0	1	NaN	167	3	41	1	120	220	320	NaN	520	0.358349828980863	1	0	NaN	4310127.1324365	NaN	4310128.1158349	4310128.63239147
63	25	0	0	90	36.1581920903955	36.241610738255	16	0.533388991951942	2	5	1	NaN	1	5	0.0463390450497508	0	1	NaN	168	3	42	1	120	220	320	NaN	520	0.24158872757107	1	1	NaN	4310130.2493912	NaN	4310131.2328114	4310131.74936127
63	25	0	0	90	36.1581920903955	36.241610738255	23	0.766746675930917	2	5	1	NaN	1	4	0.0463390450497508	0	1	NaN	169	3	43	1	120	220	320	NaN	520	0.211032624356449	1	1	NaN	4310132.799638	NaN	4310133.7830575	4310134.29960278
63	25	0	0	90	36.1581920903955	36.241610738255	22	0.733409863933921	2	4	4	NaN	1	5	0.0463390450497508	0	1	NaN	170	3	44	1	120	220	320	NaN	520	0.365827975794673	2	0	NaN	4310135.3332447	NaN	4310136.3166153	4310136.83318522
63	25	0	0	90	36.1581920903955	36.241610738255	12	0.400041743963957	2	7	3	NaN	2	4	0.0463390450497508	0	1	NaN	171	3	45	1	120	220	320	NaN	520	0.242846176028252	1	0	NaN	4310138.0001849	NaN	4310138.983569	4310139.50011042
63	25	0	0	90	36.1581920903955	36.241610738255	20	0.666736239939928	2	6	2	NaN	1	3	0.0463390450497508	0	1	NaN	172	3	46	1	120	220	320	NaN	520	4.96435082796961	1	1	NaN	4310140.5504332	NaN	4310141.5338421	4310142.05037117
63	25	0	0	90	36.1581920903955	36.241610738255	10	0.333368119969964	2	4	2	NaN	1	3	0.0463390450497508	0	1	NaN	173	3	47	1	120	220	320	NaN	520	0.22457302827388	1	1	NaN	4310147.8344498	NaN	4310148.8178632	4310149.33440997
63	25	0	0	90	36.1581920903955	36.241610738255	0	0	1	6	1	NaN	1	3	0.0463390450497508	0	1	NaN	174	3	48	1	110	210	310	NaN	510	0.274953828193247	2	0	NaN	4310150.3680493	NaN	4310151.3514517	4310151.86800147
63	25	0	0	90	36.1581920903955	36.241610738255	22	0.733409863933921	2	7	1	NaN	2	4	0.0463390450497508	0	1	NaN	175	3	49	1	120	220	320	NaN	520	0.571202276274562	1	0	NaN	4310152.9515054	NaN	4310153.935052	4310154.45157832
63	25	0	0	90	36.1581920903955	36.241610738255	11	0.36670493196696	2	2	6	NaN	1	5	0.0463390450497508	0	1	NaN	176	3	50	1	120	220	320	NaN	520	0.599439527839422	2	0	NaN	4310155.8352512	NaN	4310156.8186458	4310157.33520157
63	25	0	0	90	36.1581920903955	36.241610738255	15	0.500052179954946	2	7	3	NaN	2	4	0.0463390450497508	0	1	NaN	177	3	51	1	120	220	320	NaN	520	0.329000628553331	1	0	NaN	4310159.1855707	NaN	4310160.1689779	4310160.68552647
63	25	0	0	90	36.1581920903955	36.241610738255	6	0.200020871981978	2	9	3	NaN	2	3	0.0463390450497508	0	1	NaN	178	3	52	1	120	220	320	NaN	520	0.271970428526402	1	0	NaN	4310161.8190505	NaN	4310162.8025653	4310163.31912287
63	25	0	0	90	36.1581920903955	36.241610738255	11	0.36670493196696	2	1	2	NaN	1	4	0.0463390450497508	0	1	NaN	179	3	53	1	120	220	320	NaN	520	0.256370727904141	1	1	NaN	4310164.4027616	NaN	4310165.3861813	4310165.90270917
63	25	0	0	90	36.1581920903955	36.241610738255	18	0.600062615945935	2	2	4	NaN	1	4	0.0463390450497508	0	1	NaN	180	3	54	1	120	220	320	NaN	520	0.233172480948269	1	1	NaN	4310166.9695606	NaN	4310167.9530531	4310168.46961652
63	25	0	0	90	36.1581920903955	36.241610738255	24	0.800083487927914	2	5	3	NaN	1	5	0.0463390450497508	0	1	NaN	181	3	55	1	120	220	320	NaN	520	0.0103925280272961	1	1	NaN	4310169.5199092	NaN	4310170.5033194	4310171.01987217
63	25	0	0	90	36.1581920903955	36.241610738255	16	0.533388991951942	2	10	1	NaN	2	4	0.0463390450497508	0	1	NaN	182	3	56	1	120	220	320	NaN	520	0.238097427412868	2	1	NaN	4310171.8368096	NaN	4310172.8202254	4310173.33677257
63	25	0	0	90	36.1581920903955	36.241610738255	10	0.333368119969964	2	1	1	NaN	1	3	0.0463390450497508	0	1	NaN	183	3	57	1	120	220	320	NaN	520	0.232086824253201	1	1	NaN	4310174.3869825	NaN	4310175.3704686	4310175.88700878
63	25	0	0	90	36.1581920903955	36.241610738255	7	0.233357683978975	2	3	6	NaN	1	3	0.0463390450497508	0	1	NaN	184	3	58	1	120	220	320	NaN	520	0.249861376360059	1	1	NaN	4310176.9373315	NaN	4310177.9207139	4310178.43727002
63	25	0	0	90	36.1581920903955	36.241610738255	8	0.266694495975971	2	10	3	NaN	2	4	0.0463390450497508	0	1	NaN	185	3	59	1	120	220	320	NaN	520	0.346623175777495	2	1	NaN	4310179.5041995	NaN	4310180.4876738	4310181.00418042
63	25	0	0	90	36.1581920903955	36.241610738255	13	0.433378555960953	2	9	2	NaN	2	5	0.0463390450497508	0	1	NaN	186	3	60	1	120	220	320	NaN	520	0.311721828766167	1	0	NaN	4310182.171199	NaN	4310183.15458	4310183.67111637
63	25	0	0	90	36.1581920903955	36.241610738255	12	0.400041743963957	2	5	1	NaN	1	4	0.0463390450497508	0	1	NaN	187	3	61	1	120	220	320	NaN	520	0.238752176053822	1	1	NaN	4310184.7880755	NaN	4310185.7713793	4310186.28802652
63	25	0	0	90	36.1581920903955	36.241610738255	17	0.566725803948939	2	2	3	NaN	1	3	0.0463390450497508	0	1	NaN	188	3	62	1	120	220	320	NaN	520	0.176672629080713	2	0	NaN	4310187.3381997	NaN	4310188.3217275	4310188.83829027
63	25	0	0	90	36.1581920903955	36.241610738255	13	0.433378555960953	2	1	6	NaN	1	3	0.0463390450497508	0	1	NaN	189	3	63	1	120	220	320	NaN	520	0.251369476318359	1	1	NaN	4310190.2552995	NaN	4310191.238691	4310191.75523172
63	25	0	0	90	36.1581920903955	36.241610738255	12	0.400041743963957	2	12	4	NaN	2	4	0.0463390450497508	0	1	NaN	190	4	1	1	120	220	320	NaN	520	1.12900522816926	2	1	NaN	4310206.8735527	NaN	4310207.8570882	4310208.37352757
63	25	0	0	90	36.1581920903955	36.241610738255	20	0.666736239939928	2	5	3	NaN	1	5	0.0463390450497508	0	1	NaN	191	4	2	1	120	220	320	NaN	520	0.663216575980186	1	1	NaN	4310210.3239557	NaN	4310211.3073191	4310211.82386212
63	25	0	0	90	36.1581920903955	36.241610738255	25	0.83342029992491	2	8	6	NaN	2	4	0.0463390450497508	0	1	NaN	192	4	3	1	120	220	320	NaN	520	0.456067427992821	1	0	NaN	4310213.2907646	NaN	4310214.274266	4310214.79083447
63	25	0	0	90	36.1581920903955	36.241610738255	24	0.800083487927914	2	2	6	NaN	1	4	0.0463390450497508	0	1	NaN	193	4	4	1	120	220	320	NaN	520	0.288957099430263	2	0	NaN	4310216.0578265	NaN	4310217.0412197	4310217.5577576
63	25	0	0	90	36.1581920903955	36.241610738255	11	0.36670493196696	2	8	3	NaN	2	4	0.0463390450497508	0	1	NaN	194	4	5	1	120	220	320	NaN	520	0.328849476762116	2	1	NaN	4310218.6580574	NaN	4310219.6414738	4310220.15802072
63	25	0	0	90	36.1581920903955	36.241610738255	25	0.83342029992491	2	7	1	NaN	2	3	0.0463390450497508	0	1	NaN	195	4	6	1	120	220	320	NaN	520	0.606829828582704	2	1	NaN	4310221.7083629	NaN	4310222.6917641	4310223.20832447
63	25	0	0	90	36.1581920903955	36.241610738255	13	0.433378555960953	2	4	1	NaN	1	5	0.0463390450497508	0	1	NaN	196	4	7	1	120	220	320	NaN	520	0.289569824002683	2	0	NaN	4310224.6253162	NaN	4310225.6087342	4310226.12527028
63	25	0	0	90	36.1581920903955	36.241610738255	10	0.333368119969964	2	5	4	NaN	1	4	0.0463390450497508	0	1	NaN	197	4	8	1	120	220	320	NaN	520	0.281475228257477	1	1	NaN	4310227.2255754	NaN	4310228.2089775	4310228.72553337
63	25	0	0	90	36.1581920903955	36.241610738255	8	0.266694495975971	2	3	5	NaN	1	3	0.0463390450497508	0	1	NaN	198	4	9	1	120	220	320	NaN	520	0.279715968295932	1	1	NaN	4310230.2591947	NaN	4310231.2425858	4310231.75915883
63	25	0	0	90	36.1581920903955	36.241610738255	14	0.46671536795795	2	12	2	NaN	2	3	0.0463390450497508	0	1	NaN	199	4	10	1	120	220	320	NaN	520	0.27168872859329	2	1	NaN	4310233.2595293	NaN	4310234.2429021	4310234.75945567
63	25	0	0	90	36.1581920903955	36.241610738255	20	0.666736239939928	2	7	2	NaN	2	3	0.0463390450497508	0	1	NaN	200	4	11	1	120	220	320	NaN	520	0.311945276334882	2	1	NaN	4310235.8430872	NaN	4310236.8264842	4310237.34303472
63	25	0	0	90	36.1581920903955	36.241610738255	12	0.400041743963957	2	9	1	NaN	2	3	0.0463390450497508	0	1	NaN	201	4	12	1	120	220	320	NaN	520	0.255858927965164	2	1	NaN	4310238.8429721	NaN	4310239.8268082	4310240.34333797
63	25	0	0	90	36.1581920903955	36.241610738255	12	0.400041743963957	2	11	1	NaN	2	4	0.0463390450497508	0	1	NaN	202	4	13	1	120	220	320	NaN	520	0.263770587742329	2	1	NaN	4310241.8270198	NaN	4310242.8104092	4310243.32698391
63	25	0	0	90	36.1581920903955	36.241610738255	25	0.83342029992491	2	6	1	NaN	1	5	0.0463390450497508	0	1	NaN	203	4	14	1	120	220	320	NaN	520	0.376268427819014	1	1	NaN	4310244.4106084	NaN	4310245.3939954	4310245.91054817
63	25	0	0	90	36.1581920903955	36.241610738255	23	0.766746675930917	2	3	2	NaN	1	5	0.0463390450497508	0	1	NaN	204	4	15	1	120	220	320	NaN	520	0.342085428535938	1	1	NaN	4310247.4608629	NaN	4310248.4443102	4310248.96084857
63	25	0	0	90	36.1581920903955	36.241610738255	20	0.666736239939928	2	8	6	NaN	2	3	0.0463390450497508	0	1	NaN	205	4	16	1	120	220	320	NaN	520	0.236062827520072	1	0	NaN	4310250.1110232	NaN	4310251.0945425	4310251.61110487
63	25	0	0	90	36.1581920903955	36.241610738255	9	0.300031307972968	2	5	4	NaN	1	5	0.0463390450497508	0	1	NaN	206	4	17	1	120	220	320	NaN	520	0.269548027776182	2	0	NaN	4310252.6614226	NaN	4310253.6448104	4310254.16135357
63	25	0	0	90	36.1581920903955	36.241610738255	23	0.766746675930917	2	6	1	NaN	1	3	0.0463390450497508	0	1	NaN	207	4	18	1	120	220	320	NaN	520	0.374261876568198	2	0	NaN	4310255.2449862	NaN	4310256.228385	4310256.74493582
63	25	0	0	90	36.1581920903955	36.241610738255	14	0.46671536795795	2	3	2	NaN	1	5	0.0463390450497508	0	1	NaN	208	4	19	1	120	220	320	NaN	520	0.170546328648925	1	1	NaN	4310257.9285873	NaN	4310258.9119861	4310259.42853927
63	25	0	0	90	36.1581920903955	36.241610738255	14	0.46671536795795	2	5	6	NaN	1	5	0.0463390450497508	0	1	NaN	209	4	20	1	120	220	320	NaN	520	0.23088242765516	1	1	NaN	4310260.4120402	NaN	4310261.3955492	4310261.91211557
63	25	0	0	90	36.1581920903955	36.241610738255	23	0.766746675930917	2	12	3	NaN	2	5	0.0463390450497508	0	1	NaN	210	4	21	1	120	220	320	NaN	520	0.257150076329708	2	1	NaN	4310263.3456654	NaN	4310264.329185	4310264.84572722
63	25	0	0	90	36.1581920903955	36.241610738255	22	0.733409863933921	2	8	6	NaN	2	5	0.0463390450497508	0	1	NaN	211	4	22	1	120	220	320	NaN	520	0.394480228424072	1	0	NaN	4310265.9125759	NaN	4310266.8960906	4310267.41265337
63	25	0	0	90	36.1581920903955	36.241610738255	18	0.600062615945935	2	8	5	NaN	2	5	0.0463390450497508	0	1	NaN	212	4	23	1	120	220	320	NaN	520	0.270037075504661	1	0	NaN	4310268.6129595	NaN	4310269.5963859	4310270.11291152
63	25	0	0	90	36.1581920903955	36.241610738255	0	0	1	1	3	NaN	1	5	0.0463390450497508	0	1	NaN	213	4	24	1	110	210	310	NaN	510	0.398347727954388	2	0	NaN	4310271.1965587	NaN	4310272.1799471	4310272.69649997
63	25	0	0	90	36.1581920903955	36.241610738255	16	0.533388991951942	2	3	5	NaN	1	5	0.0463390450497508	0	1	NaN	214	4	25	1	120	220	320	NaN	520	0.465516475960612	1	1	NaN	4310273.9135067	NaN	4310274.8968918	4310275.41342922
63	25	0	0	90	36.1581920903955	36.241610738255	24	0.800083487927914	2	4	2	NaN	1	4	0.0463390450497508	0	1	NaN	215	4	26	1	120	220	320	NaN	520	0.18625087570399	1	1	NaN	4310276.6971146	NaN	4310277.6804765	4310278.19703362
63	25	0	0	90	36.1581920903955	36.241610738255	16	0.533388991951942	2	4	1	NaN	1	3	0.0463390450497508	0	1	NaN	216	4	27	1	120	220	320	NaN	520	0.237505676224828	2	0	NaN	4310279.1972089	NaN	4310280.1807318	4310280.69727992
63	25	0	0	90	36.1581920903955	36.241610738255	13	0.433378555960953	2	11	3	NaN	2	5	0.0463390450497508	0	1	NaN	217	4	28	1	120	220	320	NaN	520	0.575736528262496	2	1	NaN	4310281.7475803	NaN	4310282.7309936	4310283.24754217
63	25	0	0	90	36.1581920903955	36.241610738255	23	0.766746675930917	2	1	6	NaN	1	5	0.0463390450497508	0	1	NaN	218	4	29	1	120	220	320	NaN	520	0.307955176569521	2	0	NaN	4310284.6312139	NaN	4310285.6146168	4310286.13114772
63	25	0	0	90	36.1581920903955	36.241610738255	21	0.700073051936924	2	7	1	NaN	2	5	0.0463390450497508	0	1	NaN	219	4	30	1	120	220	320	NaN	520	0.354859828017652	2	1	NaN	4310287.2481512	NaN	4310288.2315346	4310288.74808027
63	25	0	0	90	36.1581920903955	36.241610738255	0	0	1	11	4	NaN	2	4	0.0463390450497508	0	1	NaN	220	4	31	1	110	210	310	NaN	510	0.535983224399388	2	1	NaN	4310289.9150464	NaN	4310290.8984577	4310291.41500158
63	25	0	0	90	36.1581920903955	36.241610738255	23	0.766746675930917	2	12	1	NaN	2	5	0.0463390450497508	0	1	NaN	221	4	32	1	120	220	320	NaN	520	0.197750627994537	2	1	NaN	4310292.7653352	NaN	4310293.7487148	4310294.26528927
63	25	0	0	90	36.1581920903955	36.241610738255	0	0	1	9	1	NaN	2	5	0.0463390450497508	0	1	NaN	222	4	33	1	110	210	310	NaN	510	0.273038928397	2	1	NaN	4310295.2822533	NaN	4310296.2656591	4310296.78220097
63	25	0	0	90	36.1581920903955	36.241610738255	25	0.83342029992491	2	3	1	NaN	1	3	0.0463390450497508	0	1	NaN	223	4	34	1	120	220	320	NaN	520	0.22533832769841	1	1	NaN	4310297.8657045	NaN	4310298.8492229	4310299.36578737
63	25	0	0	90	36.1581920903955	36.241610738255	7	0.233357683978975	2	4	4	NaN	1	5	0.0463390450497508	0	1	NaN	224	4	35	1	120	220	320	NaN	520	0.323718728497624	2	0	NaN	4310300.399414	NaN	4310301.3828133	4310301.89935687
63	25	0	0	90	36.1581920903955	36.241610738255	14	0.46671536795795	2	2	2	NaN	1	3	0.0463390450497508	0	1	NaN	225	4	36	1	120	220	320	NaN	520	0.864871327765286	1	1	NaN	4310303.4663602	NaN	4310304.4497602	4310304.96633567
63	25	0	0	90	36.1581920903955	36.241610738255	22	0.733409863933921	2	3	1	NaN	1	3	0.0463390450497508	0	1	NaN	226	4	37	1	120	220	320	NaN	520	0.264815875329077	2	0	NaN	4310306.6500262	NaN	4310307.6334299	4310308.14997552
63	25	0	0	90	36.1581920903955	36.241610738255	13	0.433378555960953	2	6	1	NaN	1	3	0.0463390450497508	0	1	NaN	227	4	38	1	120	220	320	NaN	520	0.201469227671623	1	1	NaN	4310309.2336101	NaN	4310310.2170533	4310310.73356817
63	25	0	0	90	36.1581920903955	36.241610738255	10	0.333368119969964	2	6	3	NaN	1	5	0.0463390450497508	0	1	NaN	228	4	39	1	120	220	320	NaN	520	0.300518528558314	1	1	NaN	4310311.7505378	NaN	4310312.7339411	4310313.25047467
63	25	0	0	90	36.1581920903955	36.241610738255	20	0.666736239939928	2	9	3	NaN	2	5	0.0463390450497508	0	1	NaN	229	4	40	1	120	220	320	NaN	520	0.283499928191304	1	0	NaN	4310314.3674538	NaN	4310315.350849	4310315.86740267
63	25	0	0	90	36.1581920903955	36.241610738255	12	0.400041743963957	2	7	4	NaN	2	4	0.0463390450497508	0	1	NaN	230	4	41	1	120	220	320	NaN	520	0.25166682805866	2	1	NaN	4310316.9677022	NaN	4310317.9511053	4310318.46765917
63	25	0	0	90	36.1581920903955	36.241610738255	6	0.200020871981978	2	12	3	NaN	2	4	0.0463390450497508	0	1	NaN	231	4	42	1	120	220	320	NaN	520	0.300773575901985	2	1	NaN	4310319.5346337	NaN	4310320.5180515	4310321.03456482
63	25	0	0	90	36.1581920903955	36.241610738255	7	0.233357683978975	2	8	4	NaN	2	5	0.0463390450497508	0	1	NaN	232	4	43	1	120	220	320	NaN	520	0.244314627721906	2	1	NaN	4310322.1348782	NaN	4310323.1182894	4310323.63482807
63	25	0	0	90	36.1581920903955	36.241610738255	8	0.266694495975971	2	3	2	NaN	1	3	0.0463390450497508	0	1	NaN	233	4	44	1	120	220	320	NaN	520	0.236803327687085	1	1	NaN	4310325.1184805	NaN	4310326.1019035	4310326.61845027
63	25	0	0	90	36.1581920903955	36.241610738255	12	0.400041743963957	2	10	3	NaN	2	3	0.0463390450497508	0	1	NaN	234	4	45	1	120	220	320	NaN	520	0.32495279610157	2	1	NaN	4310328.1021009	NaN	4310329.0855444	4310329.602086
63	25	0	0	90	36.1581920903955	36.241610738255	20	0.666736239939928	2	1	6	NaN	1	4	0.0463390450497508	0	1	NaN	235	4	46	1	120	220	320	NaN	520	0.235453876666725	1	1	NaN	4310330.7357169	NaN	4310331.719103	4310332.23566122
63	25	0	0	90	36.1581920903955	36.241610738255	17	0.566725803948939	2	4	6	NaN	1	3	0.0463390450497508	0	1	NaN	236	4	47	1	120	220	320	NaN	520	0.244700076058507	1	1	NaN	4310333.3026598	NaN	4310334.2860346	4310334.80258352
63	25	0	0	90	36.1581920903955	36.241610738255	21	0.700073051936924	2	11	1	NaN	2	3	0.0463390450497508	0	1	NaN	237	4	48	1	120	220	320	NaN	520	0.269452528096735	2	1	NaN	4310335.8695522	NaN	4310336.8529604	4310337.36951217
63	25	0	0	90	36.1581920903955	36.241610738255	14	0.46671536795795	2	7	1	NaN	2	4	0.0463390450497508	0	1	NaN	238	4	49	1	120	220	320	NaN	520	0.221770936623216	2	1	NaN	4310338.4531376	NaN	4310339.4365454	4310339.95308886
63	25	0	0	90	36.1581920903955	36.241610738255	21	0.700073051936924	2	1	4	NaN	1	5	0.0463390450497508	0	1	NaN	239	4	50	1	120	220	320	NaN	520	0.224215927533805	1	1	NaN	4310340.9867587	NaN	4310341.9701216	4310342.48667247
63	25	0	0	90	36.1581920903955	36.241610738255	14	0.46671536795795	2	8	4	NaN	2	5	0.0463390450497508	0	1	NaN	240	4	51	1	120	220	320	NaN	520	0.306820075958967	2	1	NaN	4310343.5202579	NaN	4310344.5036899	4310345.02024972
63	25	0	0	90	36.1581920903955	36.241610738255	9	0.300031307972968	2	12	3	NaN	2	3	0.0463390450497508	0	1	NaN	241	4	52	1	120	220	320	NaN	520	0.305852128192782	1	0	NaN	4310346.1372233	NaN	4310347.1206383	4310347.63718317
63	25	0	0	90	36.1581920903955	36.241610738255	17	0.566725803948939	2	1	3	NaN	1	4	0.0463390450497508	0	1	NaN	242	4	53	1	120	220	320	NaN	520	0.209247288294137	1	1	NaN	4310348.7541502	NaN	4310349.7375585	4310350.25410241
63	25	0	0	90	36.1581920903955	36.241610738255	8	0.266694495975971	2	2	4	NaN	1	3	0.0463390450497508	0	1	NaN	243	4	54	1	120	220	320	NaN	520	1.34803562797606	1	1	NaN	4310351.2710651	NaN	4310352.2545054	4310352.77102017
63	25	0	0	90	36.1581920903955	36.241610738255	18	0.600062615945935	2	5	6	NaN	1	4	0.0463390450497508	0	1	NaN	244	4	55	1	120	220	320	NaN	520	0.233591775409877	2	0	NaN	4310355.3214307	NaN	4310356.3048963	4310356.82140772
63	25	0	0	90	36.1581920903955	36.241610738255	17	0.566725803948939	2	11	4	NaN	2	3	0.0463390450497508	0	1	NaN	245	4	56	1	120	220	320	NaN	520	0.227502771653235	2	1	NaN	4310357.871714	NaN	4310358.8551063	4310359.37166643
63	25	0	0	90	36.1581920903955	36.241610738255	13	0.433378555960953	2	2	5	NaN	1	5	0.0463390450497508	0	1	NaN	246	4	57	1	120	220	320	NaN	520	0.24514792393893	2	0	NaN	4310360.4219674	NaN	4310361.4053651	4310361.92191038
63	25	0	0	90	36.1581920903955	36.241610738255	22	0.733409863933921	2	11	2	NaN	2	5	0.0463390450497508	0	1	NaN	247	4	58	1	120	220	320	NaN	520	0.470176576636732	2	1	NaN	4310362.9888811	NaN	4310363.972262	4310364.48882462
63	25	0	0	90	36.1581920903955	36.241610738255	7	0.233357683978975	2	1	1	NaN	1	5	0.0463390450497508	0	1	NaN	248	4	59	1	120	220	320	NaN	520	0.238516128621995	1	1	NaN	4310365.7725073	NaN	4310366.7559202	4310367.27244217
63	25	0	0	90	36.1581920903955	36.241610738255	16	0.533388991951942	2	12	6	NaN	2	4	0.0463390450497508	0	1	NaN	249	4	60	1	120	220	320	NaN	520	0.346327427774668	2	1	NaN	4310368.4727777	NaN	4310369.4561477	4310369.97270717
63	25	0	0	90	36.1581920903955	36.241610738255	20	0.666736239939928	2	6	4	NaN	1	4	0.0463390450497508	0	1	NaN	250	4	61	1	120	220	320	NaN	520	0.304140576161444	1	1	NaN	4310371.1230047	NaN	4310372.1064145	4310372.62295372
63	25	0	0	90	36.1581920903955	36.241610738255	12	0.400041743963957	2	4	1	NaN	1	5	0.0463390450497508	0	1	NaN	251	4	62	1	120	220	320	NaN	520	0.742990428581834	1	1	NaN	4310373.739942	NaN	4310374.723331	4310375.23989037
63	25	0	0	90	36.1581920903955	36.241610738255	6	0.200020871981978	2	3	1	NaN	1	3	0.0463390450497508	0	1	NaN	252	4	63	1	120	220	320	NaN	520	0.23692097608	2	0	NaN	4310376.7901253	NaN	4310377.7736306	4310378.29018722
63	25	0	0	90	36.1581920903955	36.241610738255	11	0.36670493196696	2	4	1	NaN	1	5	0.0463390450497508	0	1	NaN	253	5	1	1	120	220	320	NaN	520	0.236742376349866	2	0	NaN	4310403.7260802	NaN	4310404.7096055	4310405.22614952
63	25	0	0	90	36.1581920903955	36.241610738255	9	0.300031307972968	2	8	6	NaN	2	4	0.0463390450497508	0	1	NaN	254	5	2	1	120	220	320	NaN	520	0.255082876421511	1	0	NaN	4310406.2764606	NaN	4310407.2598459	4310407.77640202
63	25	0	0	90	36.1581920903955	36.241610738255	24	0.800083487927914	2	3	6	NaN	1	4	0.0463390450497508	0	1	NaN	255	5	3	1	120	220	320	NaN	520	0.33572447579354	1	1	NaN	4310408.8433658	NaN	4310409.8267944	4310410.34332122
63	25	0	0	90	36.1581920903955	36.241610738255	11	0.36670493196696	2	4	5	NaN	1	4	0.0463390450497508	0	1	NaN	256	5	4	1	120	220	320	NaN	520	0.365322575904429	1	1	NaN	4310411.4936608	NaN	4310412.4770308	4310412.99357452
63	25	0	0	90	36.1581920903955	36.241610738255	12	0.400041743963957	2	2	2	NaN	1	3	0.0463390450497508	0	1	NaN	257	5	5	1	120	220	320	NaN	520	2.1938063763082	1	1	NaN	4310414.1770929	NaN	4310415.1606315	4310415.67717182
63	25	0	0	90	36.1581920903955	36.241610738255	24	0.800083487927914	2	11	5	NaN	2	4	0.0463390450497508	0	1	NaN	258	5	6	1	120	220	320	NaN	520	0.234456744045019	2	1	NaN	4310419.1610245	NaN	4310420.1444592	4310420.66101116
63	25	0	0	90	36.1581920903955	36.241610738255	15	0.500052179954946	2	9	6	NaN	2	5	0.0463390450497508	0	1	NaN	259	5	7	1	120	220	320	NaN	520	0.259873283095658	2	1	NaN	4310421.7112861	NaN	4310422.6947107	4310423.21125562
63	25	0	0	90	36.1581920903955	36.241610738255	19	0.633399427942932	2	8	4	NaN	2	3	0.0463390450497508	0	1	NaN	260	5	8	1	120	220	320	NaN	520	0.461153076030314	1	0	NaN	4310424.2782441	NaN	4310425.2616137	4310425.77817342
63	25	0	0	90	36.1581920903955	36.241610738255	9	0.300031307972968	2	2	3	NaN	1	3	0.0463390450497508	0	1	NaN	261	5	9	1	120	220	320	NaN	520	0.260244876146317	2	0	NaN	4310427.2951837	NaN	4310428.2785833	4310428.79512722
63	25	0	0	90	36.1581920903955	36.241610738255	0	0	1	2	6	NaN	1	5	0.0463390450497508	0	1	NaN	262	5	10	1	110	210	310	NaN	510	0.261318127624691	2	0	NaN	4310430.2621392	NaN	4310431.2455456	4310431.76209357
63	25	0	0	90	36.1581920903955	36.241610738255	0	0	1	4	3	NaN	1	5	0.0463390450497508	0	1	NaN	263	5	11	1	110	210	310	NaN	510	0.228699975647032	1	1	NaN	4310433.0623757	NaN	4310434.0458168	4310434.56235842
63	25	0	0	90	36.1581920903955	36.241610738255	15	0.500052179954946	2	2	6	NaN	1	4	0.0463390450497508	0	1	NaN	264	5	12	1	120	220	320	NaN	520	0.343365327455103	2	0	NaN	4310435.5959895	NaN	4310436.5793835	4310437.09594967
63	25	0	0	90	36.1581920903955	36.241610738255	9	0.300031307972968	2	1	1	NaN	1	4	0.0463390450497508	0	1	NaN	265	5	13	1	120	220	320	NaN	520	0.244826028123498	1	1	NaN	4310438.2462693	NaN	4310439.2296562	4310439.74620057
63	25	0	0	90	36.1581920903955	36.241610738255	0	0	1	8	4	NaN	2	5	0.0463390450497508	0	1	NaN	266	5	14	1	110	210	310	NaN	510	0.253972676582634	2	1	NaN	4310440.8131722	NaN	4310441.7965666	4310442.31312822
63	25	0	0	90	36.1581920903955	36.241610738255	11	0.36670493196696	2	1	4	NaN	1	3	0.0463390450497508	0	1	NaN	267	5	15	1	120	220	320	NaN	520	0.344593776389956	1	1	NaN	4310443.7468139	NaN	4310444.7301891	4310445.24674132
63	25	0	0	90	36.1581920903955	36.241610738255	25	0.83342029992491	2	10	1	NaN	2	5	0.0463390450497508	0	1	NaN	268	5	16	1	120	220	320	NaN	520	0.254028328694403	2	1	NaN	4310446.397144	NaN	4310447.3804499	4310447.89700407
63	25	0	0	90	36.1581920903955	36.241610738255	8	0.266694495975971	2	8	3	NaN	2	3	0.0463390450497508	0	1	NaN	269	5	17	1	120	220	320	NaN	520	0.399326424114406	1	0	NaN	4310448.963959	NaN	4310449.9473738	4310450.46391438
63	25	0	0	90	36.1581920903955	36.241610738255	10	0.333368119969964	2	8	1	NaN	2	4	0.0463390450497508	0	1	NaN	270	5	18	1	120	220	320	NaN	520	0.24259162787348	1	0	NaN	4310451.6808998	NaN	4310452.6642928	4310453.18085797
63	25	0	0	90	36.1581920903955	36.241610738255	8	0.266694495975971	2	12	5	NaN	2	3	0.0463390450497508	0	1	NaN	271	5	19	1	120	220	320	NaN	520	1.55596327595413	1	0	NaN	4310454.2311618	NaN	4310455.2145662	4310455.73110072
63	25	0	0	90	36.1581920903955	36.241610738255	6	0.200020871981978	2	5	3	NaN	1	3	0.0463390450497508	0	1	NaN	272	5	20	1	120	220	320	NaN	520	0.401303227990866	1	1	NaN	4310458.0982297	NaN	4310459.0815992	4310459.59815247
63	25	0	0	90	36.1581920903955	36.241610738255	15	0.500052179954946	2	12	2	NaN	2	4	0.0463390450497508	0	1	NaN	273	5	21	1	120	220	320	NaN	520	0.243926328606904	1	0	NaN	4310460.8151258	NaN	4310461.7985516	4310462.31508567
63	25	0	0	90	36.1581920903955	36.241610738255	8	0.266694495975971	2	1	3	NaN	1	3	0.0463390450497508	0	1	NaN	274	5	22	1	120	220	320	NaN	520	0.0103945275768638	1	1	NaN	4310463.3820542	NaN	4310464.3654523	4310464.88200507
63	25	0	0	90	36.1581920903955	36.241610738255	18	0.600062615945935	2	1	2	NaN	1	5	0.0463390450497508	0	1	NaN	275	5	23	1	120	220	320	NaN	520	0.424093728885055	1	1	NaN	4310465.6989695	NaN	4310466.6823492	4310467.19889647
63	25	0	0	90	36.1581920903955	36.241610738255	22	0.733409863933921	2	6	3	NaN	1	3	0.0463390450497508	0	1	NaN	276	5	24	1	120	220	320	NaN	520	0.275003428570926	1	1	NaN	4310468.4325474	NaN	4310469.4159428	4310469.93249217
63	25	0	0	90	36.1581920903955	36.241610738255	9	0.300031307972968	2	4	5	NaN	1	4	0.0463390450497508	0	1	NaN	277	5	25	1	120	220	320	NaN	520	0.355454176664352	1	1	NaN	4310471.0161153	NaN	4310471.9995276	4310472.51607952
63	25	0	0	90	36.1581920903955	36.241610738255	19	0.633399427942932	2	9	2	NaN	2	3	0.0463390450497508	0	1	NaN	278	5	26	1	120	220	320	NaN	520	0.296440328471363	2	1	NaN	4310473.6830566	NaN	4310474.6664565	4310475.18301567
63	25	0	0	90	36.1581920903955	36.241610738255	7	0.233357683978975	2	6	2	NaN	1	3	0.0463390450497508	0	1	NaN	279	5	27	1	120	220	320	NaN	520	0.22479388397187	1	1	NaN	4310476.6666689	NaN	4310477.6500855	4310478.16664322
63	25	0	0	90	36.1581920903955	36.241610738255	16	0.533388991951942	2	11	4	NaN	2	5	0.0463390450497508	0	1	NaN	280	5	28	1	120	220	320	NaN	520	0.243257628753781	2	1	NaN	4310479.2001624	NaN	4310480.1836603	4310480.70021987
63	25	0	0	90	36.1581920903955	36.241610738255	13	0.433378555960953	2	2	5	NaN	1	4	0.0463390450497508	0	1	NaN	281	5	29	1	120	220	320	NaN	520	0.249907775782049	2	0	NaN	4310481.8338399	NaN	4310482.8172316	4310483.33380722
63	25	0	0	90	36.1581920903955	36.241610738255	15	0.500052179954946	2	5	6	NaN	1	4	0.0463390450497508	0	1	NaN	282	5	30	1	120	220	320	NaN	520	0.258627075701952	1	1	NaN	4310484.4007598	NaN	4310485.3841883	4310485.90072072
63	25	0	0	90	36.1581920903955	36.241610738255	15	0.500052179954946	2	1	6	NaN	1	5	0.0463390450497508	0	1	NaN	283	5	31	1	120	220	320	NaN	520	0.354964144527912	1	1	NaN	4310486.9843614	NaN	4310487.9677623	4310488.48432856
63	25	0	0	90	36.1581920903955	36.241610738255	13	0.433378555960953	2	11	3	NaN	2	4	0.0463390450497508	0	1	NaN	284	5	32	1	120	220	320	NaN	520	0.29474172834307	2	1	NaN	4310489.6846068	NaN	4310490.6680262	4310491.18458977
63	25	0	0	90	36.1581920903955	36.241610738255	16	0.533388991951942	2	8	6	NaN	2	3	0.0463390450497508	0	1	NaN	285	5	33	1	120	220	320	NaN	520	0.446330780163407	1	0	NaN	4310492.2848468	NaN	4310493.2682817	4310493.78484022
63	25	0	0	90	36.1581920903955	36.241610738255	20	0.666736239939928	2	9	4	NaN	2	4	0.0463390450497508	0	1	NaN	286	5	34	1	120	220	320	NaN	520	0.366871227510273	1	0	NaN	4310495.4684586	NaN	4310496.4519314	4310496.96847817
63	25	0	0	90	36.1581920903955	36.241610738255	22	0.733409863933921	2	10	2	NaN	2	5	0.0463390450497508	0	1	NaN	287	5	35	1	120	220	320	NaN	520	0.251130076125264	1	0	NaN	4310498.152145	NaN	4310499.1355221	4310499.65207022
63	25	0	0	90	36.1581920903955	36.241610738255	9	0.300031307972968	2	7	2	NaN	2	5	0.0463390450497508	0	1	NaN	288	5	36	1	120	220	320	NaN	520	0.260657475329936	1	0	NaN	4310500.7190414	NaN	4310501.7024434	4310502.21899722
63	25	0	0	90	36.1581920903955	36.241610738255	23	0.766746675930917	2	8	5	NaN	2	3	0.0463390450497508	0	1	NaN	289	5	37	1	120	220	320	NaN	520	0.22959752753377	2	1	NaN	4310503.285959	NaN	4310504.2693715	4310504.78591267
63	25	0	0	90	36.1581920903955	36.241610738255	8	0.266694495975971	2	5	2	NaN	1	4	0.0463390450497508	0	1	NaN	290	5	38	1	120	220	320	NaN	520	0.255217376165092	1	1	NaN	4310505.8362122	NaN	4310506.8196174	4310507.33615762
63	25	0	0	90	36.1581920903955	36.241610738255	18	0.600062615945935	2	1	6	NaN	1	5	0.0463390450497508	0	1	NaN	291	5	39	1	120	220	320	NaN	520	0.248168428428471	2	0	NaN	4310508.4031588	NaN	4310509.3865225	4310509.90308267
63	25	0	0	90	36.1581920903955	36.241610738255	24	0.800083487927914	2	12	5	NaN	2	4	0.0463390450497508	0	1	NaN	292	5	40	1	120	220	320	NaN	520	0.209402276203036	1	0	NaN	4310510.970043	NaN	4310511.9534444	4310512.46998822
63	25	0	0	90	36.1581920903955	36.241610738255	18	0.600062615945935	2	11	4	NaN	2	4	0.0463390450497508	0	1	NaN	293	5	41	1	120	220	320	NaN	520	0.436750176362693	2	1	NaN	4310513.4868637	NaN	4310514.4703451	4310514.98690992
63	25	0	0	90	36.1581920903955	36.241610738255	23	0.766746675930917	2	10	6	NaN	2	4	0.0463390450497508	0	1	NaN	294	5	42	1	120	220	320	NaN	520	0.301888428628445	2	1	NaN	4310516.2372203	NaN	4310517.2206262	4310517.73718357
63	25	0	0	90	36.1581920903955	36.241610738255	0	0	1	1	2	NaN	1	3	0.0463390450497508	0	1	NaN	295	5	43	1	110	210	310	NaN	510	0.317633875645697	2	0	NaN	4310519.0374783	NaN	4310520.0208587	4310520.53744622
63	25	0	0	90	36.1581920903955	36.241610738255	17	0.566725803948939	2	7	5	NaN	2	5	0.0463390450497508	0	1	NaN	296	5	44	1	120	220	320	NaN	520	0.325919623486698	1	0	NaN	4310521.8377555	NaN	4310522.8211761	4310523.33773248
63	25	0	0	90	36.1581920903955	36.241610738255	23	0.766746675930917	2	11	2	NaN	2	3	0.0463390450497508	0	1	NaN	297	5	45	1	120	220	320	NaN	520	0.300032075494528	1	0	NaN	4310524.4712658	NaN	4310525.4547567	4310525.97131262
63	25	0	0	90	36.1581920903955	36.241610738255	0	0	1	5	2	NaN	1	5	0.0463390450497508	0	1	NaN	298	5	46	1	110	210	310	NaN	510	0.427276288159192	1	1	NaN	4310527.0882879	NaN	4310528.0716917	4310528.58824171
63	25	0	0	90	36.1581920903955	36.241610738255	20	0.666736239939928	2	2	3	NaN	1	5	0.0463390450497508	0	1	NaN	299	5	47	1	120	220	320	NaN	520	0.269464676268399	2	0	NaN	4310529.8219196	NaN	4310530.8052952	4310531.32184912
63	25	0	0	90	36.1581920903955	36.241610738255	15	0.500052179954946	2	8	2	NaN	2	3	0.0463390450497508	0	1	NaN	300	5	48	1	120	220	320	NaN	520	0.333683228120208	2	1	NaN	4310532.4053691	NaN	4310533.3888807	4310533.90543567
63	25	0	0	90	36.1581920903955	36.241610738255	24	0.800083487927914	2	8	2	NaN	2	4	0.0463390450497508	0	1	NaN	301	5	49	1	120	220	320	NaN	520	0.764074175618589	2	1	NaN	4310535.0390736	NaN	4310536.0224724	4310536.53901572
63	25	0	0	90	36.1581920903955	36.241610738255	7	0.233357683978975	2	10	1	NaN	2	4	0.0463390450497508	0	1	NaN	302	5	50	1	120	220	320	NaN	520	0.33647732809186	2	1	NaN	4310538.1227004	NaN	4310539.1061089	4310539.62266317
63	25	0	0	90	36.1581920903955	36.241610738255	20	0.666736239939928	2	4	5	NaN	1	5	0.0463390450497508	0	1	NaN	303	5	51	1	120	220	320	NaN	520	0.286381123587489	1	1	NaN	4310540.7728602	NaN	4310541.7563978	4310542.27292068
63	25	0	0	90	36.1581920903955	36.241610738255	0	0	1	11	5	NaN	2	3	0.0463390450497508	0	1	NaN	304	5	52	1	110	210	310	NaN	510	0.390291227959096	2	1	NaN	4310543.3732137	NaN	4310544.3565977	4310544.87317727
63	25	0	0	90	36.1581920903955	36.241610738255	0	0	1	7	4	NaN	2	3	0.0463390450497508	0	1	NaN	305	5	53	1	110	210	310	NaN	510	0.377757928334177	1	0	NaN	4310546.0734895	NaN	4310547.056888	4310547.57344077
63	25	0	0	90	36.1581920903955	36.241610738255	6	0.200020871981978	2	6	3	NaN	1	4	0.0463390450497508	0	1	NaN	306	5	54	1	120	220	320	NaN	520	0.2226258283481	1	1	NaN	4310548.7570847	NaN	4310549.7405451	4310550.25703147
63	25	0	0	90	36.1581920903955	36.241610738255	25	0.83342029992491	2	3	5	NaN	1	4	0.0463390450497508	0	1	NaN	307	5	55	1	120	220	320	NaN	520	0.01043292414397	2	0	NaN	4310551.2906575	NaN	4310552.2740636	4310552.79060688
63	25	0	0	90	36.1581920903955	36.241610738255	7	0.233357683978975	2	1	3	NaN	1	5	0.0463390450497508	0	1	NaN	308	5	56	1	120	220	320	NaN	520	0.211720428429544	1	1	NaN	4310553.6074302	NaN	4310554.5909533	4310555.10753047
63	25	0	0	90	36.1581920903955	36.241610738255	13	0.433378555960953	2	12	6	NaN	2	3	0.0463390450497508	0	1	NaN	309	5	57	1	120	220	320	NaN	520	1.21527302358299	2	1	NaN	4310556.1244615	NaN	4310557.1078731	4310557.62442388
63	25	0	0	90	36.1581920903955	36.241610738255	16	0.533388991951942	2	3	5	NaN	1	5	0.0463390450497508	0	1	NaN	310	5	58	1	120	220	320	NaN	520	0.265164976008236	1	1	NaN	4310559.6581434	NaN	4310560.6415509	4310561.15809472
63	25	0	0	90	36.1581920903955	36.241610738255	11	0.36670493196696	2	3	5	NaN	1	4	0.0463390450497508	0	1	NaN	311	5	59	1	120	220	320	NaN	520	0.193748128600419	2	0	NaN	4310562.2417648	NaN	4310563.2251368	4310563.74169077
63	25	0	0	90	36.1581920903955	36.241610738255	10	0.333368119969964	2	10	3	NaN	2	3	0.0463390450497508	0	1	NaN	312	5	60	1	120	220	320	NaN	520	0.2454270767048	2	1	NaN	4310564.7419816	NaN	4310565.7253567	4310566.24192682
63	25	0	0	90	36.1581920903955	36.241610738255	21	0.700073051936924	2	10	5	NaN	2	3	0.0463390450497508	0	1	NaN	313	5	61	1	120	220	320	NaN	520	0.294971227645874	1	0	NaN	4310567.2922256	NaN	4310568.2755754	4310568.79218797
63	25	0	0	90	36.1581920903955	36.241610738255	15	0.500052179954946	2	5	1	NaN	1	5	0.0463390450497508	0	1	NaN	314	5	62	1	120	220	320	NaN	520	0.367089775390923	2	0	NaN	4310569.8923646	NaN	4310570.8758946	4310571.39243082
63	25	0	0	90	36.1581920903955	36.241610738255	15	0.500052179954946	2	11	6	NaN	2	4	0.0463390450497508	0	1	NaN	315	5	63	1	120	220	320	NaN	520	0.26769794523716	1	0	NaN	4310572.5759647	NaN	4310573.5594916	4310574.07603086
63	25	0	0	90	36.1581920903955	36.241610738255	18	0.600062615945935	2	7	5	NaN	2	4	0.0463390450497508	0	1	NaN	316	6	1	1	120	220	320	NaN	520	0.188542827963829	1	0	NaN	4310587.9108052	NaN	4310588.8943824	4310589.41086467
63	25	0	0	90	36.1581920903955	36.241610738255	0	0	1	12	3	NaN	2	4	0.0463390450497508	0	1	NaN	317	6	2	1	110	210	310	NaN	510	0.256498675793409	1	0	NaN	4310590.4111612	NaN	4310591.3945741	4310591.91111072
63	25	0	0	90	36.1581920903955	36.241610738255	25	0.83342029992491	2	2	6	NaN	1	5	0.0463390450497508	0	1	NaN	318	6	3	1	120	220	320	NaN	520	0.217643127776682	2	0	NaN	4310592.9780757	NaN	4310593.9614824	4310594.47803827
63	25	0	0	90	36.1581920903955	36.241610738255	25	0.83342029992491	2	5	4	NaN	1	4	0.0463390450497508	0	1	NaN	319	6	4	1	120	220	320	NaN	520	0.286411428824067	1	1	NaN	4310595.8450086	NaN	4310596.8284228	4310597.34498377
63	25	0	0	90	36.1581920903955	36.241610738255	14	0.46671536795795	2	11	3	NaN	2	3	0.0463390450497508	0	1	NaN	320	6	5	1	120	220	320	NaN	520	0.398289028555155	1	0	NaN	4310598.4453244	NaN	4310599.4285831	4310599.94522867
63	25	0	0	90	36.1581920903955	36.241610738255	7	0.233357683978975	2	5	2	NaN	1	4	0.0463390450497508	0	1	NaN	321	6	6	1	120	220	320	NaN	520	0.250008121132851	1	1	NaN	4310601.1455603	NaN	4310602.1289485	4310602.64549328
63	25	0	0	90	36.1581920903955	36.241610738255	20	0.666736239939928	2	4	3	NaN	1	3	0.0463390450497508	0	1	NaN	322	6	7	1	120	220	320	NaN	520	0.31528059206903	1	1	NaN	4310603.712473	NaN	4310604.6958568	4310605.21241741
63	25	0	0	90	36.1581920903955	36.241610738255	0	0	1	10	2	NaN	2	3	0.0463390450497508	0	1	NaN	323	6	8	1	110	210	310	NaN	510	0.292108128778636	1	0	NaN	4310606.479381	NaN	4310607.4628064	4310607.97936047
63	25	0	0	90	36.1581920903955	36.241610738255	22	0.733409863933921	2	11	3	NaN	2	5	0.0463390450497508	0	1	NaN	324	6	9	1	120	220	320	NaN	520	0.244589775800705	2	1	NaN	4310609.2630019	NaN	4310610.2464121	4310610.76295702
63	25	0	0	90	36.1581920903955	36.241610738255	0	0	1	9	5	NaN	2	5	0.0463390450497508	0	1	NaN	325	6	10	1	110	210	310	NaN	510	0.327423027716577	2	1	NaN	4310611.9798865	NaN	4310612.9633604	4310613.47989907
63	25	0	0	90	36.1581920903955	36.241610738255	24	0.800083487927914	2	9	5	NaN	2	3	0.0463390450497508	0	1	NaN	326	6	11	1	120	220	320	NaN	520	0.285801275633276	2	1	NaN	4310614.6134061	NaN	4310615.5969388	4310616.11347922
63	25	0	0	90	36.1581920903955	36.241610738255	18	0.600062615945935	2	4	5	NaN	1	3	0.0463390450497508	0	1	NaN	327	6	12	1	120	220	320	NaN	520	0.301986276172101	1	1	NaN	4310617.2137923	NaN	4310618.19719	4310618.71375312
63	25	0	0	90	36.1581920903955	36.241610738255	9	0.300031307972968	2	6	2	NaN	1	3	0.0463390450497508	0	1	NaN	328	6	13	1	120	220	320	NaN	520	0.44509787671268	1	1	NaN	4310619.8308078	NaN	4310620.8141164	4310621.33067552
63	25	0	0	90	36.1581920903955	36.241610738255	10	0.333368119969964	2	4	3	NaN	1	4	0.0463390450497508	0	1	NaN	329	6	14	1	120	220	320	NaN	520	0.302420728839934	1	1	NaN	4310622.5808573	NaN	4310623.5643931	4310624.08096467
63	25	0	0	90	36.1581920903955	36.241610738255	11	0.36670493196696	2	12	6	NaN	2	3	0.0463390450497508	0	1	NaN	330	6	15	1	120	220	320	NaN	520	0.293763528577983	2	1	NaN	4310625.1978954	NaN	4310626.1812888	4310626.69786967
63	25	0	0	90	36.1581920903955	36.241610738255	17	0.566725803948939	2	8	4	NaN	2	4	0.0463390450497508	0	1	NaN	331	6	16	1	120	220	320	NaN	520	0.356976827606559	1	0	NaN	4310627.8148348	NaN	4310628.7982377	4310629.31477797
63	25	0	0	90	36.1581920903955	36.241610738255	25	0.83342029992491	2	9	4	NaN	2	3	0.0463390450497508	0	1	NaN	332	6	17	1	120	220	320	NaN	520	0.394025680609047	1	0	NaN	4310630.4817466	NaN	4310631.4652102	4310631.98171302
63	25	0	0	90	36.1581920903955	36.241610738255	21	0.700073051936924	2	5	5	NaN	1	3	0.0463390450497508	0	1	NaN	333	6	18	1	120	220	320	NaN	520	0.17329272814095	1	1	NaN	4310633.1820222	NaN	4310634.1654232	4310634.68197687
63	25	0	0	90	36.1581920903955	36.241610738255	10	0.333368119969964	2	3	2	NaN	1	5	0.0463390450497508	0	1	NaN	334	6	19	1	120	220	320	NaN	520	0.337853175587952	1	1	NaN	4310635.6656068	NaN	4310636.649003	4310637.16555062
63	25	0	0	90	36.1581920903955	36.241610738255	22	0.733409863933921	2	4	3	NaN	1	3	0.0463390450497508	0	1	NaN	335	6	20	1	120	220	320	NaN	520	0.368570875376463	1	1	NaN	4310638.6992027	NaN	4310639.6826244	4310640.19917342
63	25	0	0	90	36.1581920903955	36.241610738255	16	0.533388991951942	2	7	3	NaN	2	5	0.0463390450497508	0	1	NaN	336	6	21	1	120	220	320	NaN	520	0.292820928618312	2	1	NaN	4310641.3828225	NaN	4310642.3662217	4310642.88277307
63	25	0	0	90	36.1581920903955	36.241610738255	12	0.400041743963957	2	6	5	NaN	1	4	0.0463390450497508	0	1	NaN	337	6	22	1	120	220	320	NaN	520	0.237869028002024	1	1	NaN	4310644.3497736	NaN	4310645.3331881	4310645.84973657
63	25	0	0	90	36.1581920903955	36.241610738255	11	0.36670493196696	2	2	1	NaN	1	3	0.0463390450497508	0	1	NaN	338	6	23	1	120	220	320	NaN	520	0.545014823786914	2	0	NaN	4310647.2667149	NaN	4310648.2501415	4310648.76668028
63	25	0	0	90	36.1581920903955	36.241610738255	25	0.83342029992491	2	4	2	NaN	1	4	0.0463390450497508	0	1	NaN	339	6	24	1	120	220	320	NaN	520	0.341731227934361	1	1	NaN	4310650.1336792	NaN	4310651.1170901	4310651.63363887
63	25	0	0	90	36.1581920903955	36.241610738255	25	0.83342029992491	2	1	5	NaN	1	3	0.0463390450497508	0	1	NaN	340	6	25	1	120	220	320	NaN	520	0.387878328561783	2	0	NaN	4310652.7838226	NaN	4310653.7673368	4310654.28389687
63	25	0	0	90	36.1581920903955	36.241610738255	22	0.733409863933921	2	2	5	NaN	1	5	0.0463390450497508	0	1	NaN	341	6	26	1	120	220	320	NaN	520	0.471051828935742	1	1	NaN	4310655.4842038	NaN	4310656.4676266	4310656.98416137
63	25	0	0	90	36.1581920903955	36.241610738255	22	0.733409863933921	2	12	4	NaN	2	3	0.0463390450497508	0	1	NaN	342	6	27	1	120	220	320	NaN	520	0.279556727968156	2	1	NaN	4310658.2678206	NaN	4310659.2512137	4310659.76776597
63	25	0	0	90	36.1581920903955	36.241610738255	18	0.600062615945935	2	12	2	NaN	2	3	0.0463390450497508	0	1	NaN	343	6	28	1	120	220	320	NaN	520	0.471692499704659	1	0	NaN	4310660.8680727	NaN	4310661.8514694	4310662.3680291
63	25	0	0	90	36.1581920903955	36.241610738255	15	0.500052179954946	2	12	1	NaN	2	3	0.0463390450497508	0	1	NaN	344	6	29	1	120	220	320	NaN	520	0.296243627555668	2	1	NaN	4310663.6516718	NaN	4310664.6350715	4310665.15162947
63	25	0	0	90	36.1581920903955	36.241610738255	19	0.633399427942932	2	12	1	NaN	2	3	0.0463390450497508	0	1	NaN	345	6	30	1	120	220	320	NaN	520	0.311679327860475	2	1	NaN	4310666.4518162	NaN	4310667.4353466	4310667.95190427
63	25	0	0	90	36.1581920903955	36.241610738255	13	0.433378555960953	2	8	6	NaN	2	5	0.0463390450497508	0	1	NaN	346	6	31	1	120	220	320	NaN	520	0.294475176371634	2	1	NaN	4310669.0688833	NaN	4310670.0522763	4310670.56882482
63	25	0	0	90	36.1581920903955	36.241610738255	9	0.300031307972968	2	8	5	NaN	2	3	0.0463390450497508	0	1	NaN	347	6	32	1	120	220	320	NaN	520	0.293760776519775	1	0	NaN	4310671.685808	NaN	4310672.6691867	4310673.18573632
63	25	0	0	90	36.1581920903955	36.241610738255	18	0.600062615945935	2	7	2	NaN	2	4	0.0463390450497508	0	1	NaN	348	6	33	1	120	220	320	NaN	520	0.333519328385592	1	0	NaN	4310674.2860844	NaN	4310675.2694514	4310675.78600257
63	25	0	0	90	36.1581920903955	36.241610738255	7	0.233357683978975	2	9	3	NaN	2	5	0.0463390450497508	0	1	NaN	349	6	34	1	120	220	320	NaN	520	0.232563428580761	2	1	NaN	4310677.0029779	NaN	4310677.9863776	4310678.50293507
63	25	0	0	90	36.1581920903955	36.241610738255	6	0.200020871981978	2	6	2	NaN	1	5	0.0463390450497508	0	1	NaN	350	6	35	1	120	220	320	NaN	520	0.266189023852348	1	1	NaN	4310679.5532268	NaN	4310680.5366334	4310681.05317618
63	25	0	0	90	36.1581920903955	36.241610738255	8	0.266694495975971	2	11	4	NaN	2	5	0.0463390450497508	0	1	NaN	351	6	36	1	120	220	320	NaN	520	0.259094828739762	2	1	NaN	4310682.1368187	NaN	4310683.1202172	4310683.63677187
63	25	0	0	90	36.1581920903955	36.241610738255	22	0.733409863933921	2	9	5	NaN	2	3	0.0463390450497508	0	1	NaN	352	6	37	1	120	220	320	NaN	520	0.317007776349783	2	1	NaN	4310684.8705063	NaN	4310685.853822	4310686.37036472
63	25	0	0	90	36.1581920903955	36.241610738255	12	0.400041743963957	2	4	5	NaN	1	4	0.0463390450497508	0	1	NaN	353	6	38	1	120	220	320	NaN	520	0.283468675799668	1	1	NaN	4310687.5040072	NaN	4310688.487387	4310689.00395582
63	25	0	0	90	36.1581920903955	36.241610738255	18	0.600062615945935	2	11	6	NaN	2	3	0.0463390450497508	0	1	NaN	354	6	39	1	120	220	320	NaN	520	0.323324827477336	2	1	NaN	4310690.1042649	NaN	4310691.0876701	4310691.60421807
63	25	0	0	90	36.1581920903955	36.241610738255	15	0.500052179954946	2	4	6	NaN	1	5	0.0463390450497508	0	1	NaN	355	6	40	1	120	220	320	NaN	520	0.257747976109385	1	1	NaN	4310692.7378559	NaN	4310693.7212668	4310694.23779852
63	25	0	0	90	36.1581920903955	36.241610738255	19	0.633399427942932	2	3	4	NaN	1	5	0.0463390450497508	0	1	NaN	356	6	41	1	120	220	320	NaN	520	0.288827528245747	2	0	NaN	4310695.3546622	NaN	4310696.3381804	4310696.85473407
63	25	0	0	90	36.1581920903955	36.241610738255	15	0.500052179954946	2	6	6	NaN	1	4	0.0463390450497508	0	1	NaN	357	6	42	1	120	220	320	NaN	520	0.264825928024948	1	1	NaN	4310697.9550387	NaN	4310698.9384367	4310699.45498797
63	25	0	0	90	36.1581920903955	36.241610738255	8	0.266694495975971	2	6	6	NaN	1	4	0.0463390450497508	0	1	NaN	358	6	43	1	120	220	320	NaN	520	0.497595723718405	2	0	NaN	4310700.5218741	NaN	4310701.5053793	4310702.02190078
63	25	0	0	90	36.1581920903955	36.241610738255	24	0.800083487927914	2	7	5	NaN	2	3	0.0463390450497508	0	1	NaN	359	6	44	1	120	220	320	NaN	520	0.265379328280687	2	1	NaN	4310703.3222266	NaN	4310704.3056251	4310704.82218067
63	25	0	0	90	36.1581920903955	36.241610738255	10	0.333368119969964	2	12	5	NaN	2	3	0.0463390450497508	0	1	NaN	360	6	45	1	120	220	320	NaN	520	0.234671223908663	1	0	NaN	4310705.88901	NaN	4310706.8725482	4310707.38909038
63	25	0	0	90	36.1581920903955	36.241610738255	12	0.400041743963957	2	12	3	NaN	2	3	0.0463390450497508	0	1	NaN	361	6	46	1	120	220	320	NaN	520	0.244039828889072	2	1	NaN	4310708.4392601	NaN	4310709.4228045	4310709.93935057
63	25	0	0	90	36.1581920903955	36.241610738255	13	0.433378555960953	2	6	3	NaN	1	3	0.0463390450497508	0	1	NaN	362	6	47	1	120	220	320	NaN	520	0.342181923799217	1	1	NaN	4310710.9896308	NaN	4310711.9730446	4310712.48959068
63	25	0	0	90	36.1581920903955	36.241610738255	13	0.433378555960953	2	8	3	NaN	2	3	0.0463390450497508	0	1	NaN	363	6	48	1	120	220	320	NaN	520	1.45151662826538	2	1	NaN	4310713.6398909	NaN	4310714.6233102	4310715.13985917
63	25	0	0	90	36.1581920903955	36.241610738255	24	0.800083487927914	2	8	5	NaN	2	4	0.0463390450497508	0	1	NaN	364	6	49	1	120	220	320	NaN	520	0.277657176367939	1	0	NaN	4310717.390267	NaN	4310718.3736939	4310718.89022582
63	25	0	0	90	36.1581920903955	36.241610738255	13	0.433378555960953	2	3	6	NaN	1	5	0.0463390450497508	0	1	NaN	365	6	50	1	120	220	320	NaN	520	0.502078276127577	1	1	NaN	4310719.9737267	NaN	4310720.9572635	4310721.47381152
63	25	0	0	90	36.1581920903955	36.241610738255	15	0.500052179954946	2	3	2	NaN	1	3	0.0463390450497508	0	1	NaN	366	6	51	1	120	220	320	NaN	520	0.236832328140736	1	1	NaN	4310722.7907957	NaN	4310723.7742327	4310724.29075067
63	25	0	0	90	36.1581920903955	36.241610738255	23	0.766746675930917	2	6	4	NaN	1	4	0.0463390450497508	0	1	NaN	367	6	52	1	120	220	320	NaN	520	0.214601527899504	1	1	NaN	4310725.3410897	NaN	4310726.3244552	4310726.84100597
63	25	0	0	90	36.1581920903955	36.241610738255	16	0.533388991951942	2	10	2	NaN	2	4	0.0463390450497508	0	1	NaN	368	6	53	1	120	220	320	NaN	520	0.248891199938953	1	0	NaN	4310727.8746227	NaN	4310728.8580517	4310729.3745889
63	25	0	0	90	36.1581920903955	36.241610738255	12	0.400041743963957	2	6	4	NaN	1	4	0.0463390450497508	0	1	NaN	369	6	54	1	120	220	320	NaN	520	0.267293827608228	1	1	NaN	4310730.6082608	NaN	4310731.5915993	4310732.10818647
63	25	0	0	90	36.1581920903955	36.241610738255	13	0.433378555960953	2	9	6	NaN	2	5	0.0463390450497508	0	1	NaN	370	6	55	1	120	220	320	NaN	520	0.315747275948524	1	0	NaN	4310733.1917744	NaN	4310734.1752247	4310734.69176962
63	25	0	0	90	36.1581920903955	36.241610738255	19	0.633399427942932	2	11	4	NaN	2	3	0.0463390450497508	0	1	NaN	371	6	56	1	120	220	320	NaN	520	0.321881775744259	2	1	NaN	4310735.8253679	NaN	4310736.808855	4310737.32535642
63	25	0	0	90	36.1581920903955	36.241610738255	20	0.666736239939928	2	2	6	NaN	1	3	0.0463390450497508	0	1	NaN	372	6	57	1	120	220	320	NaN	520	0.312017776072025	1	1	NaN	4310738.4755461	NaN	4310739.4590984	4310739.97562552
63	25	0	0	90	36.1581920903955	36.241610738255	10	0.333368119969964	2	7	2	NaN	2	5	0.0463390450497508	0	1	NaN	373	6	58	1	120	220	320	NaN	520	0.358267376199365	2	1	NaN	4310741.1091311	NaN	4310742.0926821	4310742.60921202
63	25	0	0	90	36.1581920903955	36.241610738255	16	0.533388991951942	2	1	5	NaN	1	3	0.0463390450497508	0	1	NaN	374	6	59	1	120	220	320	NaN	520	0.290546528063715	1	1	NaN	4310743.7928654	NaN	4310744.7763009	4310745.29282917
63	25	0	0	90	36.1581920903955	36.241610738255	8	0.266694495975971	2	9	1	NaN	2	5	0.0463390450497508	0	1	NaN	375	6	60	1	120	220	320	NaN	520	0.233848892152309	2	1	NaN	4310746.4096827	NaN	4310747.3931985	4310747.90974261
63	25	0	0	90	36.1581920903955	36.241610738255	24	0.800083487927914	2	2	2	NaN	1	5	0.0463390450497508	0	1	NaN	376	6	61	1	120	220	320	NaN	520	0.236564223654568	1	1	NaN	4310748.9433712	NaN	4310749.9267746	4310750.44331228
63	25	0	0	90	36.1581920903955	36.241610738255	24	0.800083487927914	2	6	6	NaN	1	4	0.0463390450497508	0	1	NaN	377	6	62	1	120	220	320	NaN	520	0.334335776045918	1	1	NaN	4310751.4936186	NaN	4310752.4770147	4310752.99355452
63	25	0	0	90	36.1581920903955	36.241610738255	13	0.433378555960953	2	5	4	NaN	1	5	0.0463390450497508	0	1	NaN	378	6	63	1	120	220	320	NaN	520	0.235749076120555	1	1	NaN	4310754.1438696	NaN	4310755.1272738	4310755.64382022
63	25	0	0	90	36.1581920903955	36.241610738255	19	0.633399427942932	2	4	4	NaN	1	4	0.0463390450497508	0	1	NaN	379	7	1	1	120	220	320	NaN	520	0.219713628292084	2	0	NaN	4310775.8960129	NaN	4310776.8794177	4310777.39594887
63	25	0	0	90	36.1581920903955	36.241610738255	16	0.533388991951942	2	4	2	NaN	1	5	0.0463390450497508	0	1	NaN	380	7	2	1	120	220	320	NaN	520	0.382446927949786	1	1	NaN	4310778.4294896	NaN	4310779.4129792	4310779.92953947
63	25	0	0	90	36.1581920903955	36.241610738255	17	0.566725803948939	2	9	6	NaN	2	4	0.0463390450497508	0	1	NaN	381	7	3	1	120	220	320	NaN	520	0.377654075622559	2	1	NaN	4310781.1298733	NaN	4310782.113252	4310782.62979182
63	25	0	0	90	36.1581920903955	36.241610738255	10	0.333368119969964	2	10	5	NaN	2	5	0.0463390450497508	0	1	NaN	382	7	4	1	120	220	320	NaN	520	3.97386402077973	2	1	NaN	4310783.8301352	NaN	4310784.8135441	4310785.33006838
63	25	0	0	90	36.1581920903955	36.241610738255	12	0.400041743963957	2	8	3	NaN	2	3	0.0463390450497508	0	1	NaN	383	7	5	1	120	220	320	NaN	520	0.369545576162636	1	0	NaN	4310790.114063	NaN	4310791.0974637	4310791.61400692
63	25	0	0	90	36.1581920903955	36.241610738255	20	0.666736239939928	2	10	3	NaN	2	3	0.0463390450497508	0	1	NaN	384	7	6	1	120	220	320	NaN	520	0.222008327953517	1	0	NaN	4310792.7975376	NaN	4310793.7810494	4310794.29761587
63	25	0	0	90	36.1581920903955	36.241610738255	21	0.700073051936924	2	6	4	NaN	1	5	0.0463390450497508	0	1	NaN	385	7	7	1	120	220	320	NaN	520	0.296715575270355	1	1	NaN	4310795.3312752	NaN	4310796.3146534	4310796.83118792
63	25	0	0	90	36.1581920903955	36.241610738255	25	0.83342029992491	2	7	3	NaN	2	5	0.0463390450497508	0	1	NaN	386	7	8	1	120	220	320	NaN	520	0.362691627815366	2	1	NaN	4310798.6649007	NaN	4310799.6482867	4310800.16485547
63	25	0	0	90	36.1581920903955	36.241610738255	11	0.36670493196696	2	9	6	NaN	2	4	0.0463390450497508	0	1	NaN	387	7	9	1	120	220	320	NaN	520	0.316435776650906	2	1	NaN	4310801.8151844	NaN	4310802.7986082	4310803.31515612
63	25	0	0	90	36.1581920903955	36.241610738255	6	0.200020871981978	2	10	5	NaN	2	4	0.0463390450497508	0	1	NaN	388	7	10	1	120	220	320	NaN	520	0.363180127926171	2	1	NaN	4310804.4488029	NaN	4310805.4321992	4310805.94875567
63	25	0	0	90	36.1581920903955	36.241610738255	14	0.46671536795795	2	9	1	NaN	2	5	0.0463390450497508	0	1	NaN	389	7	11	1	120	220	320	NaN	520	11.2982155764475	2	1	NaN	4310807.665768	NaN	4310808.6491641	4310809.16573032
63	25	0	0	90	36.1581920903955	36.241610738255	23	0.766746675930917	2	11	5	NaN	2	3	0.0463390450497508	0	1	NaN	390	7	12	1	120	220	320	NaN	520	0.264072528108954	2	1	NaN	4310821.2837833	NaN	4310822.2671791	4310822.78373737
63	25	0	0	90	36.1581920903955	36.241610738255	21	0.700073051936924	2	1	1	NaN	1	4	0.0463390450497508	0	1	NaN	391	7	13	1	120	220	320	NaN	520	0.200596475973725	1	1	NaN	4310823.8674526	NaN	4310824.850761	4310825.36731262
63	25	0	0	90	36.1581920903955	36.241610738255	10	0.333368119969964	2	6	3	NaN	1	3	0.0463390450497508	0	1	NaN	392	7	14	1	120	220	320	NaN	520	0.235793875530362	1	1	NaN	4310826.384279	NaN	4310827.3676915	4310827.88422892
63	25	0	0	90	36.1581920903955	36.241610738255	25	0.83342029992491	2	9	1	NaN	2	3	0.0463390450497508	0	1	NaN	393	7	15	1	120	220	320	NaN	520	0.305065676569939	2	1	NaN	4310829.2345346	NaN	4310830.2179663	4310830.73451152
63	25	0	0	90	36.1581920903955	36.241610738255	14	0.46671536795795	2	8	5	NaN	2	4	0.0463390450497508	0	1	NaN	394	7	16	1	120	220	320	NaN	520	0.272599628195167	1	0	NaN	4310831.851492	NaN	4310832.8348855	4310833.35144117
63	25	0	0	90	36.1581920903955	36.241610738255	12	0.400041743963957	2	9	4	NaN	2	5	0.0463390450497508	0	1	NaN	395	7	17	1	120	220	320	NaN	520	0.190422423183918	2	1	NaN	4310834.5017585	NaN	4310835.4851699	4310836.00169658
63	25	0	0	90	36.1581920903955	36.241610738255	8	0.266694495975971	2	5	5	NaN	1	5	0.0463390450497508	0	1	NaN	396	7	18	1	120	220	320	NaN	520	0.234530627727509	1	1	NaN	4310837.185204	NaN	4310838.1687519	4310838.68529757
63	25	0	0	90	36.1581920903955	36.241610738255	18	0.600062615945935	2	9	3	NaN	2	4	0.0463390450497508	0	1	NaN	397	7	19	1	120	220	320	NaN	520	0.236455727368593	1	0	NaN	4310839.7356323	NaN	4310840.7189928	4310841.23553587
63	25	0	0	90	36.1581920903955	36.241610738255	8	0.266694495975971	2	10	5	NaN	2	4	0.0463390450497508	0	1	NaN	398	7	20	1	120	220	320	NaN	520	0.357934675179422	1	0	NaN	4310842.2857215	NaN	4310843.2692464	4310843.78579482
63	25	0	0	90	36.1581920903955	36.241610738255	16	0.533388991951942	2	2	2	NaN	1	3	0.0463390450497508	0	1	NaN	399	7	21	1	120	220	320	NaN	520	0.211109028197825	1	1	NaN	4310844.9527766	NaN	4310845.936163	4310846.45272567
63	25	0	0	90	36.1581920903955	36.241610738255	6	0.200020871981978	2	9	3	NaN	2	3	0.0463390450497508	0	1	NaN	400	7	22	1	120	220	320	NaN	520	0.750188480131328	2	1	NaN	4310847.4695699	NaN	4310848.453077	4310848.96963802
63	25	0	0	90	36.1581920903955	36.241610738255	11	0.36670493196696	2	6	6	NaN	1	5	0.0463390450497508	0	1	NaN	401	7	23	1	120	220	320	NaN	520	0.227234076708555	1	1	NaN	4310850.5366727	NaN	4310851.5200505	4310852.03660562
63	25	0	0	90	36.1581920903955	36.241610738255	22	0.733409863933921	2	10	1	NaN	2	5	0.0463390450497508	0	1	NaN	402	7	24	1	120	220	320	NaN	520	0.233123795129359	2	1	NaN	4310853.5865431	NaN	4310854.5703438	4310855.0869036
63	25	0	0	90	36.1581920903955	36.241610738255	7	0.233357683978975	2	7	5	NaN	2	4	0.0463390450497508	0	1	NaN	403	7	25	1	120	220	320	NaN	520	0.242815376259387	1	0	NaN	4310856.1371959	NaN	4310857.1206032	4310857.63714522
63	25	0	0	90	36.1581920903955	36.241610738255	10	0.333368119969964	2	1	6	NaN	1	4	0.0463390450497508	0	1	NaN	404	7	26	1	120	220	320	NaN	520	0.292154327966273	2	0	NaN	4310858.6874677	NaN	4310859.6708438	4310860.18740487
63	25	0	0	90	36.1581920903955	36.241610738255	15	0.500052179954946	2	10	6	NaN	2	3	0.0463390450497508	0	1	NaN	405	7	27	1	120	220	320	NaN	520	0.252069528214633	2	1	NaN	4310861.2877956	NaN	4310862.271107	4310862.78765937
63	25	0	0	90	36.1581920903955	36.241610738255	12	0.400041743963957	2	1	6	NaN	1	4	0.0463390450497508	0	1	NaN	406	7	28	1	120	220	320	NaN	520	0.245089376345277	2	0	NaN	4310863.8546239	NaN	4310864.8380278	4310865.35456952
63	25	0	0	90	36.1581920903955	36.241610738255	17	0.566725803948939	2	12	2	NaN	2	4	0.0463390450497508	0	1	NaN	407	7	29	1	120	220	320	NaN	520	0.236783328466117	2	1	NaN	4310866.8548901	NaN	4310867.8383168	4310868.35487117
63	25	0	0	90	36.1581920903955	36.241610738255	0	0	1	3	4	NaN	1	4	0.0463390450497508	0	1	NaN	408	7	30	1	110	210	310	NaN	510	0.6386972758919	2	0	NaN	4310869.4051548	NaN	4310870.3885603	4310870.90511082
63	25	0	0	90	36.1581920903955	36.241610738255	11	0.36670493196696	2	10	4	NaN	2	3	0.0463390450497508	0	1	NaN	409	7	31	1	120	220	320	NaN	520	0.264343575574458	2	1	NaN	4310872.3554746	NaN	4310873.338859	4310873.85540232
63	25	0	0	90	36.1581920903955	36.241610738255	18	0.600062615945935	2	9	2	NaN	2	5	0.0463390450497508	0	1	NaN	410	7	32	1	120	220	320	NaN	520	0.361083728261292	2	1	NaN	4310874.9390297	NaN	4310875.9224506	4310876.43899817
63	25	0	0	90	36.1581920903955	36.241610738255	19	0.633399427942932	2	4	6	NaN	1	4	0.0463390450497508	0	1	NaN	411	7	33	1	120	220	320	NaN	520	0.398138576187193	1	1	NaN	4310877.6059711	NaN	4310878.5893933	4310879.10591442
63	25	0	0	90	36.1581920903955	36.241610738255	25	0.83342029992491	2	11	2	NaN	2	4	0.0463390450497508	0	1	NaN	412	7	34	1	120	220	320	NaN	520	0.441861776635051	2	1	NaN	4310880.3061079	NaN	4310881.2896129	4310881.80617892
63	25	0	0	90	36.1581920903955	36.241610738255	9	0.300031307972968	2	10	1	NaN	2	4	0.0463390450497508	0	1	NaN	413	7	35	1	120	220	320	NaN	520	0.251323576085269	2	1	NaN	4310883.0565053	NaN	4310884.0399174	4310884.55644892
63	25	0	0	90	36.1581920903955	36.241610738255	14	0.46671536795795	2	11	5	NaN	2	5	0.0463390450497508	0	1	NaN	414	7	36	1	120	220	320	NaN	520	0.228501575998962	2	1	NaN	4310885.6234047	NaN	4310886.6068215	4310887.12336682
63	25	0	0	90	36.1581920903955	36.241610738255	13	0.433378555960953	2	1	5	NaN	1	4	0.0463390450497508	0	1	NaN	415	7	37	1	120	220	320	NaN	520	0.206121628172696	1	1	NaN	4310888.1736677	NaN	4310889.1570721	4310889.67362437
63	25	0	0	90	36.1581920903955	36.241610738255	22	0.733409863933921	2	2	5	NaN	1	5	0.0463390450497508	0	1	NaN	416	7	38	1	120	220	320	NaN	520	0.265517028048635	1	1	NaN	4310890.6906809	NaN	4310891.6739776	4310892.19054937
63	25	0	0	90	36.1581920903955	36.241610738255	19	0.633399427942932	2	5	1	NaN	1	5	0.0463390450497508	0	1	NaN	417	7	39	1	120	220	320	NaN	520	0.233565423637629	1	1	NaN	4310893.2741689	NaN	4310894.2575696	4310894.77412668
63	25	0	0	90	36.1581920903955	36.241610738255	23	0.766746675930917	2	3	6	NaN	1	4	0.0463390450497508	0	1	NaN	418	7	40	1	120	220	320	NaN	520	0.25144312903285	1	1	NaN	4310895.8242951	NaN	4310896.8078104	4310897.32437057
63	25	0	0	90	36.1581920903955	36.241610738255	24	0.800083487927914	2	4	5	NaN	1	4	0.0463390450497508	0	1	NaN	419	7	41	1	120	220	320	NaN	520	0.260389988310635	1	1	NaN	4310898.391338	NaN	4310899.3747325	4310899.89128921
63	25	0	0	90	36.1581920903955	36.241610738255	16	0.533388991951942	2	7	3	NaN	2	4	0.0463390450497508	0	1	NaN	420	7	42	1	120	220	320	NaN	520	0.238837475888431	1	0	NaN	4310901.1249154	NaN	4310902.1083394	4310902.62489502
63	25	0	0	90	36.1581920903955	36.241610738255	24	0.800083487927914	2	9	4	NaN	2	4	0.0463390450497508	0	1	NaN	421	7	43	1	120	220	320	NaN	520	0.285673776641488	1	0	NaN	4310903.7584113	NaN	4310904.7419273	4310905.25847572
63	25	0	0	90	36.1581920903955	36.241610738255	6	0.200020871981978	2	4	6	NaN	1	3	0.0463390450497508	0	1	NaN	422	7	44	1	120	220	320	NaN	520	0.245345627889037	1	1	NaN	4310906.3587899	NaN	4310907.342177	4310907.85874347
63	25	0	0	90	36.1581920903955	36.241610738255	21	0.700073051936924	2	11	3	NaN	2	5	0.0463390450497508	0	1	NaN	423	7	45	1	120	220	320	NaN	520	0.38293587602675	2	1	NaN	4310908.9090434	NaN	4310909.8924236	4310910.40898202
63	25	0	0	90	36.1581920903955	36.241610738255	0	0	1	6	5	NaN	1	3	0.0463390450497508	0	1	NaN	424	7	46	1	110	210	310	NaN	510	0.28323432803154	1	1	NaN	4310911.592478	NaN	4310912.5760309	4310913.09258857
63	25	0	0	90	36.1581920903955	36.241610738255	9	0.300031307972968	2	1	4	NaN	1	5	0.0463390450497508	0	1	NaN	425	7	47	1	120	220	320	NaN	520	0.291014027781785	1	1	NaN	4310914.1927692	NaN	4310915.1762834	4310915.69284357
63	25	0	0	90	36.1581920903955	36.241610738255	10	0.333368119969964	2	9	3	NaN	2	5	0.0463390450497508	0	1	NaN	426	7	48	1	120	220	320	NaN	520	0.306686327792704	1	0	NaN	4310916.7930841	NaN	4310917.7765387	4310918.29309797
63	25	0	0	90	36.1581920903955	36.241610738255	8	0.266694495975971	2	4	2	NaN	1	3	0.0463390450497508	0	1	NaN	427	7	49	1	120	220	320	NaN	520	0.249873575754464	1	1	NaN	4310919.4100606	NaN	4310920.3935008	4310920.91001182
63	25	0	0	90	36.1581920903955	36.241610738255	11	0.36670493196696	2	11	3	NaN	2	5	0.0463390450497508	0	1	NaN	428	7	50	1	120	220	320	NaN	520	0.234839928336442	1	0	NaN	4310921.9770375	NaN	4310922.9603801	4310923.47693807
63	25	0	0	90	36.1581920903955	36.241610738255	6	0.200020871981978	2	11	2	NaN	2	3	0.0463390450497508	0	1	NaN	429	7	51	1	120	220	320	NaN	520	0.236936723813415	2	1	NaN	4310924.5272395	NaN	4310925.5106372	4310926.02717478
63	25	0	0	90	36.1581920903955	36.241610738255	10	0.333368119969964	2	2	4	NaN	1	5	0.0463390450497508	0	1	NaN	430	7	52	1	120	220	320	NaN	520	0.238802127540112	1	1	NaN	4310927.0774775	NaN	4310928.0608643	4310928.57743707
63	25	0	0	90	36.1581920903955	36.241610738255	23	0.766746675930917	2	4	6	NaN	1	4	0.0463390450497508	0	1	NaN	431	7	53	1	120	220	320	NaN	520	0.208399727940559	1	1	NaN	4310929.6277319	NaN	4310930.6111289	4310931.12768687
63	25	0	0	90	36.1581920903955	36.241610738255	11	0.36670493196696	2	6	3	NaN	1	3	0.0463390450497508	0	1	NaN	432	7	54	1	120	220	320	NaN	520	0.227521928027272	1	1	NaN	4310932.1446419	NaN	4310933.1280432	4310933.64460227
63	25	0	0	90	36.1581920903955	36.241610738255	23	0.766746675930917	2	1	2	NaN	1	5	0.0463390450497508	0	1	NaN	433	7	55	1	120	220	320	NaN	520	0.200913676060736	1	1	NaN	4310934.9949365	NaN	4310935.9783546	4310936.49487192
63	25	0	0	90	36.1581920903955	36.241610738255	15	0.500052179954946	2	7	6	NaN	2	3	0.0463390450497508	0	1	NaN	434	7	56	1	120	220	320	NaN	520	0.236336887814105	1	0	NaN	4310937.5118802	NaN	4310938.4952358	4310939.01178631
63	25	0	0	90	36.1581920903955	36.241610738255	15	0.500052179954946	2	10	4	NaN	2	4	0.0463390450497508	0	1	NaN	435	7	57	1	120	220	320	NaN	520	0.21384737547487	1	0	NaN	4310940.0619477	NaN	4310941.0454861	4310941.56203072
63	25	0	0	90	36.1581920903955	36.241610738255	8	0.266694495975971	2	2	4	NaN	1	3	0.0463390450497508	0	1	NaN	436	7	58	1	120	220	320	NaN	520	0.249181727878749	1	1	NaN	4310942.5789903	NaN	4310943.5624017	4310944.07895617
63	25	0	0	90	36.1581920903955	36.241610738255	9	0.300031307972968	2	3	1	NaN	1	5	0.0463390450497508	0	1	NaN	437	7	59	1	120	220	320	NaN	520	0.226161728613079	1	1	NaN	4310945.1459224	NaN	4310946.1293038	4310946.64586847
63	25	0	0	90	36.1581920903955	36.241610738255	0	0	1	10	6	NaN	2	4	0.0463390450497508	0	1	NaN	438	7	60	1	110	210	310	NaN	510	0.244421727955341	1	0	NaN	4310947.6794627	NaN	4310948.6629185	4310949.17945617
63	25	0	0	90	36.1581920903955	36.241610738255	17	0.566725803948939	2	1	5	NaN	1	4	0.0463390450497508	0	1	NaN	439	7	61	1	120	220	320	NaN	520	0.51009092759341	1	1	NaN	4310950.2297363	NaN	4310951.2131522	4310951.72969887
63	25	0	0	90	36.1581920903955	36.241610738255	8	0.266694495975971	2	6	6	NaN	1	3	0.0463390450497508	0	1	NaN	440	7	62	1	120	220	320	NaN	520	0.196907528676093	1	1	NaN	4310953.063366	NaN	4310954.0466554	4310954.56330827
63	25	0	0	90	36.1581920903955	36.241610738255	11	0.36670493196696	2	12	4	NaN	2	5	0.0463390450497508	0	1	NaN	441	7	63	1	120	220	320	NaN	520	0.295360975898802	1	0	NaN	4310955.5802853	NaN	4310956.563676	4310957.08021892
63	25	0	0	90	36.1581920903955	36.241610738255	13	0.433378555960953	2	7	6	NaN	2	5	0.0463390450497508	0	1	NaN	442	8	1	1	120	220	320	NaN	520	0.251507076434791	2	1	NaN	4310970.4483876	NaN	4310971.4318015	4310971.94835232
63	25	0	0	90	36.1581920903955	36.241610738255	10	0.333368119969964	2	8	5	NaN	2	5	0.0463390450497508	0	1	NaN	443	8	2	1	120	220	320	NaN	520	0.15690662804991	2	1	NaN	4310973.0153005	NaN	4310973.9987319	4310974.51526807
63	25	0	0	90	36.1581920903955	36.241610738255	15	0.500052179954946	2	11	4	NaN	2	3	0.0463390450497508	0	1	NaN	444	8	3	1	120	220	320	NaN	520	0.138027328066528	2	1	NaN	4310975.4821202	NaN	4310976.465631	4310976.98217567
63	25	0	0	90	36.1581920903955	36.241610738255	24	0.800083487927914	2	10	4	NaN	2	4	0.0463390450497508	0	1	NaN	445	8	4	1	120	220	320	NaN	520	0.239805527962744	2	1	NaN	4310977.9324653	NaN	4310978.9158812	4310979.43241367
63	25	0	0	90	36.1581920903955	36.241610738255	10	0.333368119969964	2	11	1	NaN	2	4	0.0463390450497508	0	1	NaN	446	8	5	1	120	220	320	NaN	520	0.281585187651217	2	1	NaN	4310980.4826918	NaN	4310981.4661159	4310981.98266321
63	25	0	0	90	36.1581920903955	36.241610738255	6	0.200020871981978	2	8	2	NaN	2	5	0.0463390450497508	0	1	NaN	447	8	6	1	120	220	320	NaN	520	0.313115027733147	2	1	NaN	4310983.0830622	NaN	4310984.0663682	4310984.58292587
63	25	0	0	90	36.1581920903955	36.241610738255	8	0.266694495975971	2	12	5	NaN	2	5	0.0463390450497508	0	1	NaN	448	8	7	1	120	220	320	NaN	520	0.384130476042628	1	0	NaN	4310985.6997755	NaN	4310986.6832944	4310987.19983732
63	25	0	0	90	36.1581920903955	36.241610738255	22	0.733409863933921	2	1	5	NaN	1	3	0.0463390450497508	0	1	NaN	449	8	8	1	120	220	320	NaN	520	0.283793327398598	1	1	NaN	4310988.4000337	NaN	4310989.3835442	4310989.90011307
63	25	0	0	90	36.1581920903955	36.241610738255	25	0.83342029992491	2	6	3	NaN	1	4	0.0463390450497508	0	1	NaN	450	8	9	1	120	220	320	NaN	520	0.21977237612009	1	1	NaN	4310991.0004235	NaN	4310991.9838079	4310992.50036612
63	25	0	0	90	36.1581920903955	36.241610738255	24	0.800083487927914	2	12	4	NaN	2	4	0.0463390450497508	0	1	NaN	451	8	10	1	120	220	320	NaN	520	0.301964532583952	2	1	NaN	4310993.5340087	NaN	4310994.5174349	4310995.03394167
63	25	0	0	90	36.1581920903955	36.241610738255	18	0.600062615945935	2	8	6	NaN	2	3	0.0463390450497508	0	1	NaN	452	8	11	1	120	220	320	NaN	520	0.21301612816751	1	0	NaN	4310996.1509184	NaN	4310997.1343122	4310997.65087037
63	25	0	0	90	36.1581920903955	36.241610738255	25	0.83342029992491	2	8	3	NaN	2	5	0.0463390450497508	0	1	NaN	453	8	12	1	120	220	320	NaN	520	0.255656728520989	1	0	NaN	4310998.6845052	NaN	4310999.6678986	4311000.18445297
63	25	0	0	90	36.1581920903955	36.241610738255	19	0.633399427942932	2	9	6	NaN	2	3	0.0463390450497508	0	1	NaN	454	8	13	1	120	220	320	NaN	520	0.212880028411746	2	1	NaN	4311001.3514224	NaN	4311002.3348258	4311002.85137747
63	25	0	0	90	36.1581920903955	36.241610738255	9	0.300031307972968	2	9	2	NaN	2	3	0.0463390450497508	0	1	NaN	455	8	14	1	120	220	320	NaN	520	0.25360312871635	2	1	NaN	4311004.1183382	NaN	4311005.1017541	4311005.61831567
63	25	0	0	90	36.1581920903955	36.241610738255	23	0.766746675930917	2	2	6	NaN	1	4	0.0463390450497508	0	1	NaN	456	8	15	1	120	220	320	NaN	520	0.190982692874968	1	1	NaN	4311006.6852832	NaN	4311007.6686667	4311008.18523481
63	25	0	0	90	36.1581920903955	36.241610738255	17	0.566725803948939	2	12	4	NaN	2	4	0.0463390450497508	0	1	NaN	457	8	16	1	120	220	320	NaN	520	0.162592228502035	1	0	NaN	4311009.1855517	NaN	4311010.168921	4311010.68548237
63	25	0	0	90	36.1581920903955	36.241610738255	18	0.600062615945935	2	12	1	NaN	2	5	0.0463390450497508	0	1	NaN	458	8	17	1	120	220	320	NaN	520	0.310905076563358	1	0	NaN	4311011.6690907	NaN	4311012.6525053	4311013.16904902
