subjno	age	gender	isPractice	viewdist	CmToPixX	CmToPixY	SOA_frm	SOA_time	targNum	targID	targExample	targRace	targGender	firstTargPos	contrast	familiarity	curr_staircase	iStair	TrialNum	BlockNum	blktrl	sessionNum	TC_FIXATION	TC_RSVP_START	TC_RSVP_END	TC_BLANK	TC_RESPONSE_ONSET	RT2afc	resp_2afc	acc	RSVPOnsetVBL	RSVPOnsetTime	RSVPOffsetVBL	RSVPOffsetTime	startrt_2afc
102	18	0	0	90	36.1581920903955	36.241610738255	16	0.533381504118443	2	1	4	NaN	1	3	0.0884714403412524	1	1	NaN	1	1	1	1	121	221	321	NaN	521	0.41991303442046	1	1	NaN	3350288.8282216	NaN	3350289.8115789	3350290.34470537
102	18	0	0	90	36.1581920903955	36.241610738255	25	0.833408600185066	2	9	6	NaN	2	5	0.0884714403412524	1	1	NaN	2	1	2	1	121	221	321	NaN	521	0.219540077727288	2	1	NaN	3350291.6285612	NaN	3350292.6118237	3350293.14497762
102	18	0	0	90	36.1581920903955	36.241610738255	21	0.700063224155456	2	4	4	NaN	1	4	0.0884714403412524	1	1	NaN	3	1	3	1	121	221	321	NaN	521	0.357110134791583	1	1	NaN	3350294.1952722	NaN	3350295.1786773	3350295.69523637
102	18	0	0	90	36.1581920903955	36.241610738255	15	0.50004516011104	2	12	5	NaN	2	3	0.0884714403412524	1	1	NaN	4	1	4	1	121	221	321	NaN	521	0.985952968709171	2	1	NaN	3350296.8787615	NaN	3350297.8622686	3350298.37881823
102	18	0	0	90	36.1581920903955	36.241610738255	19	0.633390536140651	2	2	3	NaN	1	4	0.0884714403412524	1	1	NaN	5	1	5	1	121	221	321	NaN	521	0.0103570823557675	1	1	NaN	3350300.1791843	NaN	3350301.1626032	3350301.67915032
102	18	0	0	90	36.1581920903955	36.241610738255	8	0.266690752059221	2	4	5	NaN	1	4	0.0884714403412524	1	1	NaN	6	1	6	1	121	221	321	NaN	521	0.400127973407507	2	0	NaN	3350302.5126984	NaN	3350303.496138	3350304.01272033
102	18	0	0	90	36.1581920903955	36.241610738255	9	0.300027096066624	2	10	2	NaN	2	4	0.0884714403412524	1	1	NaN	7	1	7	1	121	221	321	NaN	521	0.0103929257020354	2	1	NaN	3350305.2463928	NaN	3350306.2298009	3350306.74631747
102	18	0	0	90	36.1581920903955	36.241610738255	21	0.700063224155456	2	5	1	NaN	1	4	0.0884714403412524	1	1	NaN	8	1	8	1	121	221	321	NaN	521	0.0103988260962069	1	1	NaN	3350307.5799438	NaN	3350308.5633419	3350309.07988477
102	18	0	0	90	36.1581920903955	36.241610738255	18	0.600054192133248	2	6	6	NaN	1	4	0.0884714403412524	1	1	NaN	9	1	9	1	121	221	321	NaN	521	0.0104079260490835	1	1	NaN	3350309.9137784	NaN	3350310.8968769	3350311.41344697
102	18	0	0	90	36.1581920903955	36.241610738255	17	0.566717848125845	2	10	5	NaN	2	5	0.0884714403412524	1	1	NaN	10	1	10	1	121	221	321	NaN	521	0.0104133738204837	2	1	NaN	3350312.2470547	NaN	3350313.2304539	3350313.74700693
102	18	0	0	90	36.1581920903955	36.241610738255	25	0.833408600185066	2	9	3	NaN	2	4	0.0884714403412524	1	1	NaN	11	1	11	1	121	221	321	NaN	521	0.0104919737204909	2	1	NaN	3350314.5806131	NaN	3350315.5640244	3350316.08056423
102	18	0	0	90	36.1581920903955	36.241610738255	21	0.700063224155456	2	10	2	NaN	2	4	0.0884714403412524	1	1	NaN	12	1	12	1	121	221	321	NaN	521	0.0104087740182877	2	1	NaN	3350316.9142177	NaN	3350317.8975717	3350318.41413133
102	18	0	0	90	36.1581920903955	36.241610738255	10	0.333363440074027	2	9	3	NaN	2	5	0.0884714403412524	1	1	NaN	13	1	13	1	121	221	321	NaN	521	0.392847326118499	2	1	NaN	3350319.2477349	NaN	3350320.2311436	3350320.74769787
102	18	0	0	90	36.1581920903955	36.241610738255	11	0.366699784081429	2	5	3	NaN	1	4	0.0884714403412524	1	1	NaN	14	1	14	1	121	221	321	NaN	521	0.0103811779990792	1	1	NaN	3350321.9480028	NaN	3350322.9314021	3350323.44796272
102	18	0	0	90	36.1581920903955	36.241610738255	14	0.466708816103637	2	11	6	NaN	2	5	0.0884714403412524	1	1	NaN	15	1	15	1	121	221	321	NaN	521	0.0102821914479136	2	1	NaN	3350324.2814384	NaN	3350325.2649716	3350325.78154501
102	18	0	0	90	36.1581920903955	36.241610738255	11	0.366699784081429	2	12	6	NaN	2	5	0.0884714403412524	1	1	NaN	16	1	16	1	121	221	321	NaN	521	0.0104219736531377	2	1	NaN	3350326.5984655	NaN	3350327.5818694	3350328.09842173
102	18	0	0	90	36.1581920903955	36.241610738255	0	0	1	8	2	NaN	2	3	0.0884714403412524	1	1	NaN	17	1	17	1	111	211	311	NaN	511	0.852593895513564	2	1	NaN	3350328.9319068	NaN	3350329.9154358	3350330.4319874
102	18	0	0	90	36.1581920903955	36.241610738255	12	0.400036128088832	2	11	2	NaN	2	4	0.0884714403412524	1	1	NaN	18	1	18	1	121	221	321	NaN	521	0.453504773788154	2	1	NaN	3350332.0988885	NaN	3350333.0823917	3350333.59896343
102	18	0	0	90	36.1581920903955	36.241610738255	20	0.666726880148053	2	3	1	NaN	1	4	0.0884714403412524	1	1	NaN	19	1	19	1	121	221	321	NaN	521	0.0105688739567995	1	1	NaN	3350334.8658309	NaN	3350335.8493507	3350336.36590433
102	18	0	0	90	36.1581920903955	36.241610738255	11	0.366699784081429	2	6	1	NaN	1	3	0.0884714403412524	1	1	NaN	20	1	20	1	121	221	321	NaN	521	0.0104131735861301	1	1	NaN	3350337.1995292	NaN	3350338.1829111	3350338.69946033
102	18	0	0	90	36.1581920903955	36.241610738255	12	0.400036128088832	2	4	4	NaN	1	3	0.0884714403412524	1	1	NaN	21	1	21	1	121	221	321	NaN	521	0.147566026076674	1	1	NaN	3350339.5330617	NaN	3350340.5164848	3350341.03302717
102	18	0	0	90	36.1581920903955	36.241610738255	7	0.233354408051819	2	7	1	NaN	2	5	0.0884714403412524	1	1	NaN	22	1	22	1	121	221	321	NaN	521	0.0102530955336988	2	1	NaN	3350341.9999748	NaN	3350342.9833175	3350343.4999446
102	18	0	0	90	36.1581920903955	36.241610738255	13	0.433372472096235	2	9	3	NaN	2	5	0.0884714403412524	1	1	NaN	23	1	23	1	121	221	321	NaN	521	1.05890442570671	2	1	NaN	3350344.3335551	NaN	3350345.3169452	3350345.83350087
102	18	0	0	90	36.1581920903955	36.241610738255	12	0.400036128088832	2	10	1	NaN	2	4	0.0884714403412524	1	1	NaN	24	1	24	1	121	221	321	NaN	521	1.97926497366279	2	1	NaN	3350347.7172147	NaN	3350348.7006063	3350349.21716603
102	18	0	0	90	36.1581920903955	36.241610738255	23	0.766735912170261	2	7	4	NaN	2	5	0.0884714403412524	1	1	NaN	25	1	25	1	121	221	321	NaN	521	0.0103966258466244	2	1	NaN	3350352.0176373	NaN	3350353.0010814	3350353.51759387
102	18	0	0	90	36.1581920903955	36.241610738255	0	0	1	12	3	NaN	2	4	0.0884714403412524	1	1	NaN	26	1	26	1	111	211	311	NaN	511	0.010456373449415	2	1	NaN	3350354.3510737	NaN	3350355.334595	3350355.85114763
102	18	0	0	90	36.1581920903955	36.241610738255	24	0.800072256177664	2	6	5	NaN	1	4	0.0884714403412524	1	1	NaN	27	1	27	1	121	221	321	NaN	521	0.0102972388267517	1	1	NaN	3350356.6680986	NaN	3350357.6514866	3350358.16805536
102	18	0	0	90	36.1581920903955	36.241610738255	25	0.833408600185066	2	1	3	NaN	1	5	0.0884714403412524	1	1	NaN	28	1	28	1	121	221	321	NaN	521	0.0104223736561835	1	1	NaN	3350359.001658	NaN	3350359.9850544	3350360.50160383
102	18	0	0	90	36.1581920903955	36.241610738255	22	0.733399568162858	2	6	1	NaN	1	3	0.0884714403412524	1	1	NaN	29	1	29	1	121	221	321	NaN	521	0.0104106734506786	1	1	NaN	3350361.335224	NaN	3350362.3186436	3350362.83517473
102	18	0	0	90	36.1581920903955	36.241610738255	23	0.766735912170261	2	4	5	NaN	1	5	0.0884714403412524	1	1	NaN	30	1	30	1	121	221	321	NaN	521	0.0359080736525357	1	1	NaN	3350363.6687867	NaN	3350364.6521833	3350365.16873563
102	18	0	0	90	36.1581920903955	36.241610738255	9	0.300027096066624	2	1	3	NaN	1	3	0.0884714403412524	1	1	NaN	31	1	31	1	121	221	321	NaN	521	0.0104108261875808	1	1	NaN	3350366.018966	NaN	3350367.0024229	3350367.51897277
102	18	0	0	90	36.1581920903955	36.241610738255	10	0.333363440074027	2	2	5	NaN	1	3	0.0884714403412524	1	1	NaN	32	1	32	1	121	221	321	NaN	521	0.479982525575906	1	1	NaN	3350368.3525906	NaN	3350369.3359751	3350369.85253207
102	18	0	0	90	36.1581920903955	36.241610738255	6	0.200018064044416	2	3	2	NaN	1	5	0.0884714403412524	1	1	NaN	33	1	33	1	121	221	321	NaN	521	0.0103941261768341	1	1	NaN	3350371.1527316	NaN	3350372.1362813	3350372.65280967
102	18	0	0	90	36.1581920903955	36.241610738255	18	0.600054192133248	2	1	3	NaN	1	5	0.0884714403412524	1	1	NaN	34	1	34	1	121	221	321	NaN	521	0.0104368212632835	1	1	NaN	3350373.4864004	NaN	3350374.4698104	3350374.98637188
102	18	0	0	90	36.1581920903955	36.241610738255	23	0.766735912170261	2	6	3	NaN	1	4	0.0884714403412524	1	1	NaN	35	1	35	1	121	221	321	NaN	521	0.0288499258458614	1	1	NaN	3350375.8199727	NaN	3350376.8033842	3350377.31993287
102	18	0	0	90	36.1581920903955	36.241610738255	16	0.533381504118443	2	7	4	NaN	2	5	0.0884714403412524	1	1	NaN	36	1	36	1	121	221	321	NaN	521	0.0865313736721873	1	0	NaN	3350378.1702122	NaN	3350379.1536043	3350379.67016743
102	18	0	0	90	36.1581920903955	36.241610738255	11	0.366699784081429	2	11	5	NaN	2	3	0.0884714403412524	1	1	NaN	37	1	37	1	121	221	321	NaN	521	2.34150642575696	2	1	NaN	3350380.5871102	NaN	3350381.5704079	3350382.08707187
102	18	0	0	90	36.1581920903955	36.241610738255	17	0.566717848125845	2	12	6	NaN	2	3	0.0884714403412524	1	1	NaN	38	1	38	1	121	221	321	NaN	521	0.0103978258557618	2	1	NaN	3350385.4376001	NaN	3350386.4209891	3350386.93754497
102	18	0	0	90	36.1581920903955	36.241610738255	13	0.433372472096235	2	12	1	NaN	2	4	0.0884714403412524	1	1	NaN	39	1	39	1	121	221	321	NaN	521	0.0615982385352254	2	1	NaN	3350387.7711773	NaN	3350388.7545541	3350389.27110386
102	18	0	0	90	36.1581920903955	36.241610738255	11	0.366699784081429	2	9	4	NaN	2	5	0.0884714403412524	1	1	NaN	40	1	40	1	121	221	321	NaN	521	0.310647973790765	2	1	NaN	3350390.1379343	NaN	3350391.1214832	3350391.63800643
102	18	0	0	90	36.1581920903955	36.241610738255	10	0.333363440074027	2	6	3	NaN	1	3	0.0884714403412524	1	1	NaN	41	1	41	1	121	221	321	NaN	521	0.197721225675195	1	1	NaN	3350392.9549791	NaN	3350393.9384055	3350394.45495017
102	18	0	0	90	36.1581920903955	36.241610738255	10	0.333363440074027	2	8	4	NaN	2	3	0.0884714403412524	1	1	NaN	42	1	42	1	121	221	321	NaN	521	0.120943073648959	2	1	NaN	3350395.4719268	NaN	3350396.4553107	3350396.97186333
102	18	0	0	90	36.1581920903955	36.241610738255	11	0.366699784081429	2	5	4	NaN	1	4	0.0884714403412524	1	1	NaN	43	1	43	1	121	221	321	NaN	521	0.010420273989439	1	1	NaN	3350397.9054941	NaN	3350398.8888908	3350399.40543033
102	18	0	0	90	36.1581920903955	36.241610738255	22	0.733399568162858	2	7	3	NaN	2	5	0.0884714403412524	1	1	NaN	44	1	44	1	121	221	321	NaN	521	0.0104270214214921	2	1	NaN	3350400.2223952	NaN	3350401.2057926	3350401.72232848
102	18	0	0	90	36.1581920903955	36.241610738255	9	0.300027096066624	2	2	1	NaN	1	3	0.0884714403412524	1	1	NaN	45	1	45	1	121	221	321	NaN	521	0.156821321696043	1	1	NaN	3350402.5558753	NaN	3350403.539355	3350404.05588948
102	18	0	0	90	36.1581920903955	36.241610738255	15	0.50004516011104	2	8	4	NaN	2	3	0.0884714403412524	1	1	NaN	46	1	46	1	121	221	321	NaN	521	0.313901973422617	2	1	NaN	3350405.0228507	NaN	3350406.0062507	3350406.52280553
102	18	0	0	90	36.1581920903955	36.241610738255	15	0.50004516011104	2	6	3	NaN	1	3	0.0884714403412524	1	1	NaN	47	1	47	1	121	221	321	NaN	521	0.0103617301210761	1	1	NaN	3350407.6397884	NaN	3350408.6231792	3350409.13972427
102	18	0	0	90	36.1581920903955	36.241610738255	14	0.466708816103637	2	1	6	NaN	1	5	0.0884714403412524	1	1	NaN	48	1	48	1	121	221	321	NaN	521	0.0104110734537244	1	1	NaN	3350409.9566712	NaN	3350410.9400825	3350411.45662293
102	18	0	0	90	36.1581920903955	36.241610738255	11	0.366699784081429	2	10	5	NaN	2	3	0.0884714403412524	1	1	NaN	49	1	49	1	121	221	321	NaN	521	0.126944926101714	2	1	NaN	3350412.2734545	NaN	3350413.256972	3350413.77352377
102	18	0	0	90	36.1581920903955	36.241610738255	18	0.600054192133248	2	12	6	NaN	2	5	0.0884714403412524	1	1	NaN	50	1	50	1	121	221	321	NaN	521	0.0104208732955158	2	1	NaN	3350414.7071451	NaN	3350415.6905315	3350416.20709743
102	18	0	0	90	36.1581920903955	36.241610738255	9	0.300027096066624	2	11	1	NaN	2	4	0.0884714403412524	1	1	NaN	51	1	51	1	121	221	321	NaN	521	0.0104044741019607	2	1	NaN	3350417.0240421	NaN	3350418.007432	3350418.52398833
102	18	0	0	90	36.1581920903955	36.241610738255	17	0.566717848125845	2	1	5	NaN	1	5	0.0884714403412524	1	1	NaN	52	1	52	1	121	221	321	NaN	521	0.0104272258467972	1	1	NaN	3350419.3408009	NaN	3350420.3243338	3350420.84087597
102	18	0	0	90	36.1581920903955	36.241610738255	13	0.433372472096235	2	5	1	NaN	1	5	0.0884714403412524	1	1	NaN	53	1	53	1	121	221	321	NaN	521	0.110785121563822	1	1	NaN	3350421.6577696	NaN	3350422.6412289	3350423.15777358
102	18	0	0	90	36.1581920903955	36.241610738255	13	0.433372472096235	2	7	5	NaN	2	5	0.0884714403412524	1	1	NaN	54	1	54	1	121	221	321	NaN	521	0.43788747349754	2	1	NaN	3350424.0747262	NaN	3350425.0581299	3350425.57468053
102	18	0	0	90	36.1581920903955	36.241610738255	0	0	1	12	6	NaN	2	3	0.0884714403412524	1	1	NaN	55	1	55	1	111	211	311	NaN	511	0.0104008261114359	2	1	NaN	3350426.824875	NaN	3350427.8083927	3350428.32495817
102	18	0	0	90	36.1581920903955	36.241610738255	8	0.266690752059221	2	1	1	NaN	1	5	0.0884714403412524	1	1	NaN	56	1	56	1	121	221	321	NaN	521	0.426719038747251	1	1	NaN	3350429.1419156	NaN	3350430.1252948	3350430.64184956
102	18	0	0	90	36.1581920903955	36.241610738255	15	0.50004516011104	2	4	6	NaN	1	5	0.0884714403412524	1	1	NaN	57	1	57	1	121	221	321	NaN	521	0.253329925704747	2	0	NaN	3350431.8753679	NaN	3350432.8588972	3350433.37545527
102	18	0	0	90	36.1581920903955	36.241610738255	0	0	1	1	5	NaN	1	4	0.0884714403412524	1	1	NaN	58	1	58	1	111	211	311	NaN	511	0.0104181738570333	1	1	NaN	3350434.4424198	NaN	3350435.4258133	3350435.94236543
102	18	0	0	90	36.1581920903955	36.241610738255	19	0.633390536140651	2	2	5	NaN	1	3	0.0884714403412524	1	1	NaN	59	1	59	1	121	221	321	NaN	521	0.0734283258207142	1	1	NaN	3350436.7591838	NaN	3350437.7427134	3350438.25926407
102	18	0	0	90	36.1581920903955	36.241610738255	0	0	1	2	4	NaN	1	5	0.0884714403412524	1	1	NaN	60	1	60	1	111	211	311	NaN	511	0.0104067740030587	1	1	NaN	3350439.1428899	NaN	3350440.1262755	3350440.64282753
102	18	0	0	90	36.1581920903955	36.241610738255	13	0.433372472096235	2	12	5	NaN	2	4	0.0884714403412524	1	1	NaN	61	1	61	1	121	221	321	NaN	521	0.0104052261449397	2	1	NaN	3350441.4597868	NaN	3350442.4431809	3350442.95972897
102	18	0	0	90	36.1581920903955	36.241610738255	11	0.366699784081429	2	3	6	NaN	1	4	0.0884714403412524	1	1	NaN	62	1	62	1	121	221	321	NaN	521	0.0103172869421542	1	1	NaN	3350443.7766676	NaN	3350444.7600648	3350445.27661931
102	18	0	0	90	36.1581920903955	36.241610738255	6	0.200018064044416	2	12	4	NaN	2	3	0.0884714403412524	1	1	NaN	63	1	63	1	121	221	321	NaN	521	0.635375960264355	2	1	NaN	3350446.0935648	NaN	3350447.07696	3350447.59351574
102	18	0	0	90	36.1581920903955	36.241610738255	7	0.233354408051819	2	2	6	NaN	1	5	0.0884714403412524	1	1	NaN	64	2	1	1	121	221	321	NaN	521	0.175690026022494	1	1	NaN	3350454.7610645	NaN	3350455.7444871	3350456.26103347
102	18	0	0	90	36.1581920903955	36.241610738255	16	0.533381504118443	2	6	6	NaN	1	4	0.0884714403412524	1	1	NaN	65	2	2	1	121	221	321	NaN	521	0.0104448688216507	1	1	NaN	3350457.2447299	NaN	3350458.2280697	3350458.74460573
102	18	0	0	90	36.1581920903955	36.241610738255	18	0.600054192133248	2	6	6	NaN	1	3	0.0884714403412524	1	1	NaN	66	2	3	1	121	221	321	NaN	521	0.010393425822258	1	1	NaN	3350459.561441	NaN	3350460.5449508	3350461.06151377
102	18	0	0	90	36.1581920903955	36.241610738255	24	0.800072256177664	2	6	3	NaN	1	3	0.0884714403412524	1	1	NaN	67	2	4	1	121	221	321	NaN	521	0.0104250214062631	1	1	NaN	3350461.8784557	NaN	3350462.861838	3350463.37839418
102	18	0	0	90	36.1581920903955	36.241610738255	14	0.466708816103637	2	9	5	NaN	2	4	0.0884714403412524	1	1	NaN	68	2	5	1	121	221	321	NaN	521	1.50093802623451	2	1	NaN	3350464.2120074	NaN	3350465.1953045	3350465.71197117
102	18	0	0	90	36.1581920903955	36.241610738255	11	0.366699784081429	2	9	6	NaN	2	3	0.0884714403412524	1	1	NaN	69	2	6	1	121	221	321	NaN	521	0.0104292216710746	2	1	NaN	3350468.2957501	NaN	3350469.2791695	3350469.79569958
102	18	0	0	90	36.1581920903955	36.241610738255	24	0.800072256177664	2	5	1	NaN	1	4	0.0884714403412524	1	1	NaN	70	2	7	1	121	221	321	NaN	521	1.59305222611874	1	1	NaN	3350470.8958844	NaN	3350471.8794006	3350472.39596097
102	18	0	0	90	36.1581920903955	36.241610738255	8	0.266690752059221	2	4	2	NaN	1	3	0.0884714403412524	1	1	NaN	71	2	8	1	121	221	321	NaN	521	0.0104126734659076	1	1	NaN	3350474.7963862	NaN	3350475.7797834	3350476.29633733
102	18	0	0	90	36.1581920903955	36.241610738255	6	0.200018064044416	2	12	6	NaN	2	4	0.0884714403412524	1	1	NaN	72	2	9	1	121	221	321	NaN	521	0.0103972260840237	2	1	NaN	3350477.5299254	NaN	3350478.5133901	3350479.02994707
102	18	0	0	90	36.1581920903955	36.241610738255	6	0.200018064044416	2	6	5	NaN	1	3	0.0884714403412524	1	1	NaN	73	2	10	1	121	221	321	NaN	521	0.0104283737018704	1	1	NaN	3350480.1302308	NaN	3350481.1136507	3350481.63019613
102	18	0	0	90	36.1581920903955	36.241610738255	20	0.666726880148053	2	4	2	NaN	1	5	0.0884714403412524	1	1	NaN	74	2	11	1	121	221	321	NaN	521	0.129990725778043	2	0	NaN	3350482.4471604	NaN	3350483.4305306	3350483.94709577
102	18	0	0	90	36.1581920903955	36.241610738255	17	0.566717848125845	2	8	2	NaN	2	3	0.0884714403412524	1	1	NaN	75	2	12	1	121	221	321	NaN	521	0.303724125958979	2	1	NaN	3350484.8973982	NaN	3350485.8807785	3350486.39733507
102	18	0	0	90	36.1581920903955	36.241610738255	22	0.733399568162858	2	11	1	NaN	2	5	0.0884714403412524	1	1	NaN	76	2	13	1	121	221	321	NaN	521	0.0104049737565219	2	1	NaN	3350487.5476408	NaN	3350488.5310452	3350489.04759643
102	18	0	0	90	36.1581920903955	36.241610738255	12	0.400036128088832	2	1	4	NaN	1	4	0.0884714403412524	1	1	NaN	77	2	14	1	121	221	321	NaN	521	0.0104124736972153	1	1	NaN	3350489.8645427	NaN	3350490.8479363	3350491.36448543
102	18	0	0	90	36.1581920903955	36.241610738255	22	0.733399568162858	2	1	1	NaN	1	5	0.0884714403412524	1	1	NaN	78	2	15	1	121	221	321	NaN	521	0.0104731214232743	1	1	NaN	3350492.1980986	NaN	3350493.1815044	3350493.69804618
102	18	0	0	90	36.1581920903955	36.241610738255	19	0.633390536140651	2	3	1	NaN	1	4	0.0884714403412524	1	1	NaN	79	2	16	1	121	221	321	NaN	521	0.0103007387369871	1	1	NaN	3350494.5316656	NaN	3350495.5150912	3350496.03162156
102	18	0	0	90	36.1581920903955	36.241610738255	21	0.700063224155456	2	4	2	NaN	1	5	0.0884714403412524	1	1	NaN	80	2	17	1	121	221	321	NaN	521	0.0103982258588076	1	1	NaN	3350496.8485675	NaN	3350497.8319573	3350498.34851447
102	18	0	0	90	36.1581920903955	36.241610738255	25	0.833408600185066	2	12	4	NaN	2	3	0.0884714403412524	1	1	NaN	81	2	18	1	121	221	321	NaN	521	0.619900373741984	2	1	NaN	3350499.1654562	NaN	3350500.14884	3350500.66540143
102	18	0	0	90	36.1581920903955	36.241610738255	24	0.800072256177664	2	7	5	NaN	2	3	0.0884714403412524	1	1	NaN	82	2	19	1	121	221	321	NaN	521	0.0104015260003507	2	1	NaN	3350502.0989431	NaN	3350503.0824065	3350503.59903447
102	18	0	0	90	36.1581920903955	36.241610738255	17	0.566717848125845	2	11	5	NaN	2	4	0.0884714403412524	1	1	NaN	83	2	20	1	121	221	321	NaN	521	0.0104053737595677	2	1	NaN	3350504.4159699	NaN	3350505.3993683	3350505.91591763
102	18	0	0	90	36.1581920903955	36.241610738255	18	0.600054192133248	2	12	3	NaN	2	3	0.0884714403412524	1	1	NaN	84	2	21	1	121	221	321	NaN	521	0.243960925843567	2	1	NaN	3350506.7328773	NaN	3350507.7162456	3350508.23282297
102	18	0	0	90	36.1581920903955	36.241610738255	13	0.433372472096235	2	8	1	NaN	2	4	0.0884714403412524	1	1	NaN	85	2	22	1	121	221	321	NaN	521	0.949978473596275	2	1	NaN	3350509.2831189	NaN	3350510.2666067	3350510.78306413
102	18	0	0	90	36.1581920903955	36.241610738255	7	0.233354408051819	2	4	2	NaN	1	4	0.0884714403412524	1	1	NaN	86	2	23	1	121	221	321	NaN	521	0.971023025922477	1	1	NaN	3350512.5501117	NaN	3350513.5335037	3350514.05006237
102	18	0	0	90	36.1581920903955	36.241610738255	8	0.266690752059221	2	3	3	NaN	1	3	0.0884714403412524	1	1	NaN	87	2	24	1	121	221	321	NaN	521	0.0103907254524529	1	1	NaN	3350515.8337692	NaN	3350516.8171634	3350517.33371317
102	18	0	0	90	36.1581920903955	36.241610738255	14	0.466708816103637	2	4	3	NaN	1	4	0.0884714403412524	1	1	NaN	88	2	25	1	121	221	321	NaN	521	1.87450332567096	1	1	NaN	3350518.3506753	NaN	3350519.3340749	3350519.85062597
102	18	0	0	90	36.1581920903955	36.241610738255	9	0.300027096066624	2	9	1	NaN	2	5	0.0884714403412524	1	1	NaN	89	2	26	1	121	221	321	NaN	521	0.0104214213788509	2	1	NaN	3350522.534421	NaN	3350523.5178189	3350524.03437518
102	18	0	0	90	36.1581920903955	36.241610738255	14	0.466708816103637	2	7	1	NaN	2	3	0.0884714403412524	1	1	NaN	90	2	27	1	121	221	321	NaN	521	0.0103937261737883	2	1	NaN	3350524.8513331	NaN	3350525.834703	3350526.35127207
102	18	0	0	90	36.1581920903955	36.241610738255	24	0.800072256177664	2	9	4	NaN	2	4	0.0884714403412524	1	1	NaN	91	2	28	1	121	221	321	NaN	521	0.0326341735199094	2	1	NaN	3350527.1682068	NaN	3350528.1516094	3350528.66815753
102	18	0	0	90	36.1581920903955	36.241610738255	12	0.400036128088832	2	4	1	NaN	1	3	0.0884714403412524	1	1	NaN	92	2	29	1	121	221	321	NaN	521	0.0104047255590558	1	1	NaN	3350529.5184227	NaN	3350530.501847	3350531.01839947
102	18	0	0	90	36.1581920903955	36.241610738255	20	0.666726880148053	2	1	5	NaN	1	5	0.0884714403412524	1	1	NaN	93	2	30	1	121	221	321	NaN	521	0.0104529215022922	1	1	NaN	3350531.8353358	NaN	3350532.8187303	3350533.33529128
102	18	0	0	90	36.1581920903955	36.241610738255	22	0.733399568162858	2	3	2	NaN	1	3	0.0884714403412524	1	1	NaN	94	2	31	1	121	221	321	NaN	521	1.40078292600811	1	1	NaN	3350534.1521722	NaN	3350535.13563	3350535.65218477
102	18	0	0	90	36.1581920903955	36.241610738255	18	0.600054192133248	2	11	3	NaN	2	3	0.0884714403412524	1	1	NaN	95	2	32	1	121	221	321	NaN	521	0.307917573489249	2	1	NaN	3350537.8691324	NaN	3350538.8526559	3350539.36921293
102	18	0	0	90	36.1581920903955	36.241610738255	11	0.366699784081429	2	4	3	NaN	1	3	0.0884714403412524	1	1	NaN	96	2	33	1	121	221	321	NaN	521	0.010397725738585	1	1	NaN	3350540.4861911	NaN	3350541.4696552	3350541.98614477
102	18	0	0	90	36.1581920903955	36.241610738255	10	0.333363440074027	2	11	3	NaN	2	5	0.0884714403412524	1	1	NaN	97	2	34	1	121	221	321	NaN	521	0.0104030738584697	2	1	NaN	3350542.8030914	NaN	3350543.7864953	3350544.30302683
102	18	0	0	90	36.1581920903955	36.241610738255	19	0.633390536140651	2	7	6	NaN	2	4	0.0884714403412524	1	1	NaN	98	2	35	1	121	221	321	NaN	521	2.44880447397009	2	1	NaN	3350545.1199801	NaN	3350546.1034076	3350546.61992853
102	18	0	0	90	36.1581920903955	36.241610738255	23	0.766735912170261	2	2	3	NaN	1	3	0.0884714403412524	1	1	NaN	99	2	36	1	121	221	321	NaN	521	1.00959402602166	1	1	NaN	3350549.8869837	NaN	3350550.8705255	3350551.38706107
102	18	0	0	90	36.1581920903955	36.241610738255	6	0.200018064044416	2	9	5	NaN	2	5	0.0884714403412524	1	1	NaN	100	2	37	1	121	221	321	NaN	521	0.636904525570571	2	1	NaN	3350553.2041884	NaN	3350554.1875067	3350554.70406317
102	18	0	0	90	36.1581920903955	36.241610738255	9	0.300027096066624	2	6	2	NaN	1	5	0.0884714403412524	1	1	NaN	101	2	38	1	121	221	321	NaN	521	1.11878917366266	2	0	NaN	3350556.1543965	NaN	3350557.1377892	3350557.65434543
102	18	0	0	90	36.1581920903955	36.241610738255	8	0.266690752059221	2	6	5	NaN	1	4	0.0884714403412524	1	1	NaN	102	2	39	1	121	221	321	NaN	521	0.0103488825261593	1	1	NaN	3350559.588062	NaN	3350560.5714795	3350561.08802452
102	18	0	0	90	36.1581920903955	36.241610738255	7	0.233354408051819	2	6	3	NaN	1	3	0.0884714403412524	1	1	NaN	103	2	40	1	121	221	321	NaN	521	0.010409573558718	1	1	NaN	3350561.9049509	NaN	3350562.8883659	3350563.40491053
102	18	0	0	90	36.1581920903955	36.241610738255	25	0.833408600185066	2	8	2	NaN	2	3	0.0884714403412524	1	1	NaN	104	2	41	1	121	221	321	NaN	521	1.27445762604475	2	1	NaN	3350564.2385206	NaN	3350565.22193	3350565.73847517
102	18	0	0	90	36.1581920903955	36.241610738255	15	0.50004516011104	2	9	6	NaN	2	3	0.0884714403412524	1	1	NaN	105	2	42	1	121	221	321	NaN	521	0.861009773332626	2	1	NaN	3350568.1721116	NaN	3350569.1556431	3350569.67219093
102	18	0	0	90	36.1581920903955	36.241610738255	6	0.200018064044416	2	11	4	NaN	2	5	0.0884714403412524	1	1	NaN	106	2	43	1	121	221	321	NaN	521	0.117241725791246	2	1	NaN	3350571.3558892	NaN	3350572.3393033	3350572.85584387
102	18	0	0	90	36.1581920903955	36.241610738255	16	0.533381504118443	2	11	4	NaN	2	5	0.0884714403412524	1	1	NaN	107	2	44	1	121	221	321	NaN	521	0.0594542734324932	2	1	NaN	3350573.7894034	NaN	3350574.7728514	3350575.28941773
102	18	0	0	90	36.1581920903955	36.241610738255	8	0.266690752059221	2	2	2	NaN	1	3	0.0884714403412524	1	1	NaN	108	2	45	1	121	221	321	NaN	521	0.0104063260369003	1	1	NaN	3350576.156336	NaN	3350577.1397577	3350577.65631137
102	18	0	0	90	36.1581920903955	36.241610738255	25	0.833408600185066	2	2	2	NaN	1	3	0.0884714403412524	1	1	NaN	109	2	46	1	121	221	321	NaN	521	0.0104866735637188	1	1	NaN	3350578.4732771	NaN	3350579.4567335	3350579.97321083
102	18	0	0	90	36.1581920903955	36.241610738255	17	0.566717848125845	2	11	1	NaN	2	5	0.0884714403412524	1	1	NaN	110	2	47	1	121	221	321	NaN	521	0.922728225588799	2	1	NaN	3350580.7900304	NaN	3350581.7735815	3350582.29011157
102	18	0	0	90	36.1581920903955	36.241610738255	19	0.633390536140651	2	8	1	NaN	2	4	0.0884714403412524	1	1	NaN	111	2	48	1	121	221	321	NaN	521	0.0651497738435864	2	1	NaN	3350584.0238084	NaN	3350585.0071881	3350585.52375553
102	18	0	0	90	36.1581920903955	36.241610738255	23	0.766735912170261	2	6	1	NaN	1	4	0.0884714403412524	1	1	NaN	112	2	49	1	121	221	321	NaN	521	0.682540795765817	1	1	NaN	3350586.3907147	NaN	3350587.3740979	3350587.8906663
102	18	0	0	90	36.1581920903955	36.241610738255	16	0.533381504118443	2	8	1	NaN	2	5	0.0884714403412524	1	1	NaN	113	2	50	1	121	221	321	NaN	521	0.521968421526253	2	1	NaN	3350589.3910027	NaN	3350590.3744007	3350590.89095228
102	18	0	0	90	36.1581920903955	36.241610738255	8	0.266690752059221	2	8	4	NaN	2	5	0.0884714403412524	1	1	NaN	114	2	51	1	121	221	321	NaN	521	0.448593025561422	2	1	NaN	3350592.2246099	NaN	3350593.2080209	3350593.72456737
102	18	0	0	90	36.1581920903955	36.241610738255	9	0.300027096066624	2	5	6	NaN	1	4	0.0884714403412524	1	1	NaN	115	2	52	1	121	221	321	NaN	521	0.0104249739088118	1	1	NaN	3350594.9915656	NaN	3350595.9749469	3350596.49150063
102	18	0	0	90	36.1581920903955	36.241610738255	6	0.200018064044416	2	2	5	NaN	1	4	0.0884714403412524	1	1	NaN	116	2	53	1	121	221	321	NaN	521	0.0103881256654859	2	0	NaN	3350597.3084517	NaN	3350598.2918439	3350598.80839357
102	18	0	0	90	36.1581920903955	36.241610738255	14	0.466708816103637	2	10	4	NaN	2	3	0.0884714403412524	1	1	NaN	117	2	54	1	121	221	321	NaN	521	0.40789287397638	2	1	NaN	3350599.6252023	NaN	3350600.6087547	3350601.12529223
102	18	0	0	90	36.1581920903955	36.241610738255	15	0.50004516011104	2	10	2	NaN	2	3	0.0884714403412524	1	1	NaN	118	2	55	1	121	221	321	NaN	521	0.0580161255784333	2	1	NaN	3350602.358921	NaN	3350603.3423501	3350603.85889567
102	18	0	0	90	36.1581920903955	36.241610738255	13	0.433372472096235	2	8	5	NaN	2	4	0.0884714403412524	1	1	NaN	119	2	56	1	121	221	321	NaN	521	0.010407573543489	2	1	NaN	3350604.7258519	NaN	3350605.7092378	3350606.22579423
102	18	0	0	90	36.1581920903955	36.241610738255	23	0.766735912170261	2	7	2	NaN	2	5	0.0884714403412524	1	1	NaN	120	2	57	1	121	221	321	NaN	521	0.405573725700378	2	1	NaN	3350607.0594163	NaN	3350608.0428019	3350608.55935727
102	18	0	0	90	36.1581920903955	36.241610738255	7	0.233354408051819	2	11	2	NaN	2	3	0.0884714403412524	1	1	NaN	121	2	58	1	121	221	321	NaN	521	1.88090047379956	2	1	NaN	3350609.7763247	NaN	3350610.7597366	3350611.27629253
102	18	0	0	90	36.1581920903955	36.241610738255	19	0.633390536140651	2	8	1	NaN	2	4	0.0884714403412524	1	1	NaN	122	2	59	1	121	221	321	NaN	521	2.07235892582685	2	1	NaN	3350613.976757	NaN	3350614.960155	3350615.47671087
102	18	0	0	90	36.1581920903955	36.241610738255	22	0.733399568162858	2	3	1	NaN	1	5	0.0884714403412524	1	1	NaN	123	2	60	1	121	221	321	NaN	521	0.01040727365762	1	1	NaN	3350618.36039	NaN	3350619.3439491	3350619.86047033
102	18	0	0	90	36.1581920903955	36.241610738255	17	0.566717848125845	2	8	5	NaN	2	5	0.0884714403412524	1	1	NaN	124	2	61	1	121	221	321	NaN	521	0.215843625832349	2	1	NaN	3350620.9773234	NaN	3350621.9608336	3350622.47739897
102	18	0	0	90	36.1581920903955	36.241610738255	9	0.300027096066624	2	2	1	NaN	1	5	0.0884714403412524	1	1	NaN	125	2	62	1	121	221	321	NaN	521	0.0104090739041567	1	1	NaN	3350623.5108855	NaN	3350624.494435	3350625.01097083
102	18	0	0	90	36.1581920903955	36.241610738255	16	0.533381504118443	2	4	4	NaN	1	4	0.0884714403412524	1	1	NaN	126	2	63	1	121	221	321	NaN	521	0.010423974134028	1	1	NaN	3350625.8446047	NaN	3350626.8279876	3350627.34453093
102	18	0	0	90	36.1581920903955	36.241610738255	19	0.633390536140651	2	6	1	NaN	1	4	0.0884714403412524	1	1	NaN	127	3	1	1	121	221	321	NaN	521	1.00868032546714	1	1	NaN	3350632.9285829	NaN	3350633.9120115	3350634.42856837
102	18	0	0	90	36.1581920903955	36.241610738255	13	0.433372472096235	2	4	5	NaN	1	4	0.0884714403412524	1	1	NaN	128	3	2	1	121	221	321	NaN	521	0.0104107735678554	1	1	NaN	3350636.2456174	NaN	3350637.2290086	3350637.74556173
102	18	0	0	90	36.1581920903955	36.241610738255	13	0.433372472096235	2	5	5	NaN	1	3	0.0884714403412524	1	1	NaN	129	3	3	1	121	221	321	NaN	521	0.0104124736972153	1	1	NaN	3350638.5623829	NaN	3350639.5459028	3350640.06244923
102	18	0	0	90	36.1581920903955	36.241610738255	20	0.666726880148053	2	9	6	NaN	2	3	0.0884714403412524	1	1	NaN	130	3	4	1	121	221	321	NaN	521	0.0103210862725973	2	1	NaN	3350640.8792629	NaN	3350641.8627964	3350642.37935001
102	18	0	0	90	36.1581920903955	36.241610738255	7	0.233354408051819	2	5	6	NaN	1	3	0.0884714403412524	1	1	NaN	131	3	5	1	121	221	321	NaN	521	0.821054625790566	1	1	NaN	3350643.1963262	NaN	3350644.179717	3350644.69624927
102	18	0	0	90	36.1581920903955	36.241610738255	21	0.700063224155456	2	1	6	NaN	1	3	0.0884714403412524	1	1	NaN	132	3	6	1	121	221	321	NaN	521	0.526942073833197	1	1	NaN	3350646.3299235	NaN	3350647.3133312	3350647.82988733
102	18	0	0	90	36.1581920903955	36.241610738255	24	0.800072256177664	2	8	4	NaN	2	3	0.0884714403412524	1	1	NaN	133	3	7	1	121	221	321	NaN	521	0.0103925256989896	2	1	NaN	3350649.1634841	NaN	3350650.1467958	3350650.66350007
102	18	0	0	90	36.1581920903955	36.241610738255	22	0.733399568162858	2	12	2	NaN	2	5	0.0884714403412524	1	1	NaN	134	3	8	1	121	221	321	NaN	521	0.640506473835558	2	1	NaN	3350651.4803782	NaN	3350652.4638417	3350652.98038693
102	18	0	0	90	36.1581920903955	36.241610738255	14	0.466708816103637	2	3	5	NaN	1	4	0.0884714403412524	1	1	NaN	135	3	9	1	121	221	321	NaN	521	0.361709473654628	1	1	NaN	3350654.4472738	NaN	3350655.4308093	3350655.94734813
102	18	0	0	90	36.1581920903955	36.241610738255	11	0.366699784081429	2	6	3	NaN	1	4	0.0884714403412524	1	1	NaN	136	3	10	1	121	221	321	NaN	521	0.550031674094498	1	1	NaN	3350657.1310157	NaN	3350658.1143926	3350658.63094953
102	18	0	0	90	36.1581920903955	36.241610738255	6	0.200018064044416	2	11	1	NaN	2	4	0.0884714403412524	1	1	NaN	137	3	11	1	121	221	321	NaN	521	0.0104111735709012	2	1	NaN	3350659.9812009	NaN	3350660.9647421	3350661.48122193
102	18	0	0	90	36.1581920903955	36.241610738255	13	0.433372472096235	2	3	5	NaN	1	3	0.0884714403412524	1	1	NaN	138	3	12	1	121	221	321	NaN	521	0.134860938880593	1	1	NaN	3350662.2982683	NaN	3350663.2815658	3350663.79813376
102	18	0	0	90	36.1581920903955	36.241610738255	20	0.666726880148053	2	10	1	NaN	2	5	0.0884714403412524	1	1	NaN	139	3	13	1	121	221	321	NaN	521	0.0103915259242058	2	1	NaN	3350664.7482872	NaN	3350665.7318191	3350666.24836907
102	18	0	0	90	36.1581920903955	36.241610738255	13	0.433372472096235	2	6	5	NaN	1	4	0.0884714403412524	1	1	NaN	140	3	14	1	121	221	321	NaN	521	0.855594268999994	1	1	NaN	3350667.0651786	NaN	3350668.0486987	3350668.56525123
102	18	0	0	90	36.1581920903955	36.241610738255	7	0.233354408051819	2	8	5	NaN	2	4	0.0884714403412524	1	1	NaN	141	3	15	1	121	221	321	NaN	521	0.3125881254673	2	1	NaN	3350670.2322906	NaN	3350671.2156928	3350671.73224007
102	18	0	0	90	36.1581920903955	36.241610738255	23	0.766735912170261	2	1	5	NaN	1	5	0.0884714403412524	1	1	NaN	142	3	16	1	121	221	321	NaN	521	0.0104088736698031	1	1	NaN	3350672.8492065	NaN	3350673.83261	3350674.34916253
102	18	0	0	90	36.1581920903955	36.241610738255	9	0.300027096066624	2	11	3	NaN	2	4	0.0884714403412524	1	1	NaN	143	3	17	1	121	221	321	NaN	521	0.0744376736693084	2	1	NaN	3350675.182775	NaN	3350676.1661806	3350676.68271983
102	18	0	0	90	36.1581920903955	36.241610738255	0	0	1	3	4	NaN	1	4	0.0884714403412524	1	1	NaN	144	3	18	1	111	211	311	NaN	511	1.61903747403994	1	1	NaN	3350677.5662238	NaN	3350678.5497433	3350679.06629363
102	18	0	0	90	36.1581920903955	36.241610738255	24	0.800072256177664	2	10	4	NaN	2	5	0.0884714403412524	1	1	NaN	145	3	19	1	121	221	321	NaN	521	0.0104183740913868	2	1	NaN	3350681.50006	NaN	3350682.483458	3350683.00000563
102	18	0	0	90	36.1581920903955	36.241610738255	12	0.400036128088832	2	12	3	NaN	2	3	0.0884714403412524	1	1	NaN	146	3	20	1	121	221	321	NaN	521	0.0104623259976506	2	1	NaN	3350683.816937	NaN	3350684.8003621	3350685.31691517
102	18	0	0	90	36.1581920903955	36.241610738255	24	0.800072256177664	2	12	5	NaN	2	3	0.0884714403412524	1	1	NaN	147	3	21	1	121	221	321	NaN	521	0.203140725847334	2	1	NaN	3350686.1338683	NaN	3350687.117262	3350687.63380627
102	18	0	0	90	36.1581920903955	36.241610738255	16	0.533381504118443	2	7	5	NaN	2	4	0.0884714403412524	1	1	NaN	148	3	22	1	121	221	321	NaN	521	0.0102851912379265	2	1	NaN	3350688.650633	NaN	3350689.6341675	3350690.15072131
102	18	0	0	90	36.1581920903955	36.241610738255	17	0.566717848125845	2	2	6	NaN	1	5	0.0884714403412524	1	1	NaN	149	3	23	1	121	221	321	NaN	521	0.0103939259424806	1	1	NaN	3350690.9843301	NaN	3350691.967723	3350692.48428647
102	18	0	0	90	36.1581920903955	36.241610738255	14	0.466708816103637	2	11	1	NaN	2	5	0.0884714403412524	1	1	NaN	150	3	24	1	121	221	321	NaN	521	0.0104064736515284	2	1	NaN	3350693.3012905	NaN	3350694.2846239	3350694.80117393
102	18	0	0	90	36.1581920903955	36.241610738255	24	0.800072256177664	2	8	5	NaN	2	4	0.0884714403412524	1	1	NaN	151	3	25	1	121	221	321	NaN	521	0.010395425837487	2	1	NaN	3350695.6347862	NaN	3350696.6181951	3350697.13474437
102	18	0	0	90	36.1581920903955	36.241610738255	9	0.300027096066624	2	12	2	NaN	2	4	0.0884714403412524	1	1	NaN	152	3	26	1	121	221	321	NaN	521	0.96969957370311	2	1	NaN	3350697.9515547	NaN	3350698.9350787	3350699.45163333
102	18	0	0	90	36.1581920903955	36.241610738255	13	0.433372472096235	2	11	2	NaN	2	3	0.0884714403412524	1	1	NaN	153	3	27	1	121	221	321	NaN	521	0.0104294740594923	2	1	NaN	3350701.2353249	NaN	3350702.2187395	3350702.73528833
102	18	0	0	90	36.1581920903955	36.241610738255	6	0.200018064044416	2	1	6	NaN	1	3	0.0884714403412524	1	1	NaN	154	3	28	1	121	221	321	NaN	521	0.0104088736698031	1	1	NaN	3350703.5688929	NaN	3350704.5523035	3350705.06884763
102	18	0	0	90	36.1581920903955	36.241610738255	8	0.266690752059221	2	5	4	NaN	1	5	0.0884714403412524	1	1	NaN	155	3	29	1	121	221	321	NaN	521	0.195314626209438	1	1	NaN	3350705.8856678	NaN	3350706.8691937	3350707.38574297
102	18	0	0	90	36.1581920903955	36.241610738255	6	0.200018064044416	2	10	5	NaN	2	4	0.0884714403412524	1	1	NaN	156	3	30	1	121	221	321	NaN	521	0.0104200737550855	2	1	NaN	3350708.4027034	NaN	3350709.3861071	3350709.90265403
102	18	0	0	90	36.1581920903955	36.241610738255	23	0.766735912170261	2	10	1	NaN	2	4	0.0884714403412524	1	1	NaN	157	3	31	1	121	221	321	NaN	521	1.16164362989366	2	1	NaN	3350710.7196273	NaN	3350711.7030051	3350712.21955057
102	18	0	0	90	36.1581920903955	36.241610738255	21	0.700063224155456	2	12	6	NaN	2	3	0.0884714403412524	1	1	NaN	158	3	32	1	121	221	321	NaN	521	0.11029757373035	2	1	NaN	3350714.1865093	NaN	3350715.1700421	3350715.68656173
102	18	0	0	90	36.1581920903955	36.241610738255	25	0.833408600185066	2	3	5	NaN	1	4	0.0884714403412524	1	1	NaN	159	3	33	1	121	221	321	NaN	521	0.997562025673687	1	1	NaN	3350716.6035121	NaN	3350717.5869243	3350718.10347187
102	18	0	0	90	36.1581920903955	36.241610738255	21	0.700063224155456	2	6	2	NaN	1	5	0.0884714403412524	1	1	NaN	160	3	34	1	121	221	321	NaN	521	0.0967959216795862	1	1	NaN	3350719.9205124	NaN	3350720.9039026	3350721.42046488
102	18	0	0	90	36.1581920903955	36.241610738255	11	0.366699784081429	2	11	5	NaN	2	3	0.0884714403412524	1	1	NaN	161	3	35	1	121	221	321	NaN	521	4.12810102570802	2	1	NaN	3350722.3374068	NaN	3350723.3208171	3350723.83736947
102	18	0	0	90	36.1581920903955	36.241610738255	10	0.333363440074027	2	5	4	NaN	1	5	0.0884714403412524	1	1	NaN	162	3	36	1	121	221	321	NaN	521	0.0104273217730224	1	1	NaN	3350728.7712533	NaN	3350729.7547829	3350730.27133188
102	18	0	0	90	36.1581920903955	36.241610738255	10	0.333363440074027	2	12	4	NaN	2	5	0.0884714403412524	1	1	NaN	163	3	37	1	121	221	321	NaN	521	0.54484452586621	2	1	NaN	3350731.0882752	NaN	3350732.0716811	3350732.58822647
102	18	0	0	90	36.1581920903955	36.241610738255	14	0.466708816103637	2	7	3	NaN	2	5	0.0884714403412524	1	1	NaN	164	3	38	1	121	221	321	NaN	521	0.0104090739041567	1	0	NaN	3350733.9717592	NaN	3350734.9552806	3350735.47184383
102	18	0	0	90	36.1581920903955	36.241610738255	16	0.533381504118443	2	3	1	NaN	1	5	0.0884714403412524	1	1	NaN	165	3	39	1	121	221	321	NaN	521	0.568074682261795	1	1	NaN	3350736.3054531	NaN	3350737.2888539	3350737.80542802
102	18	0	0	90	36.1581920903955	36.241610738255	25	0.833408600185066	2	1	6	NaN	1	3	0.0884714403412524	1	1	NaN	166	3	40	1	121	221	321	NaN	521	0.0103947259485722	1	1	NaN	3350739.189065	NaN	3350740.1724616	3350740.68902587
102	18	0	0	90	36.1581920903955	36.241610738255	13	0.433372472096235	2	9	2	NaN	2	3	0.0884714403412524	1	1	NaN	167	3	41	1	121	221	321	NaN	521	0.0104066734202206	2	1	NaN	3350741.5058486	NaN	3350742.4893633	3350743.00591243
102	18	0	0	90	36.1581920903955	36.241610738255	25	0.833408600185066	2	4	4	NaN	1	5	0.0884714403412524	1	1	NaN	168	3	42	1	121	221	321	NaN	521	0.0104204737581313	1	1	NaN	3350743.822866	NaN	3350744.8062531	3350745.32282413
102	18	0	0	90	36.1581920903955	36.241610738255	8	0.266690752059221	2	2	1	NaN	1	4	0.0884714403412524	1	1	NaN	169	3	43	1	121	221	321	NaN	521	0.0103910258039832	1	1	NaN	3350746.1397537	NaN	3350747.1231648	3350747.63970517
102	18	0	0	90	36.1581920903955	36.241610738255	7	0.233354408051819	2	9	4	NaN	2	4	0.0884714403412524	1	1	NaN	170	3	44	1	121	221	321	NaN	521	0.456851938739419	2	1	NaN	3350748.4565275	NaN	3350749.4400422	3350749.95660046
102	18	0	0	90	36.1581920903955	36.241610738255	11	0.366699784081429	2	2	5	NaN	1	5	0.0884714403412524	1	1	NaN	171	3	45	1	121	221	321	NaN	521	0.0104094739072025	1	1	NaN	3350751.2236005	NaN	3350752.2069914	3350752.72353843
102	18	0	0	90	36.1581920903955	36.241610738255	17	0.566717848125845	2	5	6	NaN	1	5	0.0884714403412524	1	1	NaN	172	3	46	1	121	221	321	NaN	521	0.0103781782090664	1	1	NaN	3350753.5404037	NaN	3350754.5238797	3350755.04043992
102	18	0	0	90	36.1581920903955	36.241610738255	15	0.50004516011104	2	8	5	NaN	2	5	0.0884714403412524	1	1	NaN	173	3	47	1	121	221	321	NaN	521	0.0103918258100748	2	1	NaN	3350755.8572458	NaN	3350756.840786	3350757.35733407
102	18	0	0	90	36.1581920903955	36.241610738255	7	0.233354408051819	2	12	3	NaN	2	4	0.0884714403412524	1	1	NaN	174	3	48	1	121	221	321	NaN	521	0.451247673481703	2	1	NaN	3350758.1741811	NaN	3350759.1576716	3350759.67422163
102	18	0	0	90	36.1581920903955	36.241610738255	24	0.800072256177664	2	1	2	NaN	1	5	0.0884714403412524	1	1	NaN	175	3	49	1	121	221	321	NaN	521	0.0104147740639746	1	1	NaN	3350760.941201	NaN	3350761.9246112	3350762.44115853
102	18	0	0	90	36.1581920903955	36.241610738255	7	0.233354408051819	2	8	3	NaN	2	5	0.0884714403412524	1	1	NaN	176	3	50	1	121	221	321	NaN	521	1.11115877330303	2	1	NaN	3350763.2581173	NaN	3350764.2415035	3350764.75805413
102	18	0	0	90	36.1581920903955	36.241610738255	7	0.233354408051819	2	4	1	NaN	1	3	0.0884714403412524	1	1	NaN	177	3	51	1	121	221	321	NaN	521	0.0104007255285978	1	1	NaN	3350766.691783	NaN	3350767.6751836	3350768.19173067
102	18	0	0	90	36.1581920903955	36.241610738255	0	0	1	11	1	NaN	2	4	0.0884714403412524	1	1	NaN	178	3	52	1	111	211	311	NaN	511	1.20874412124977	2	1	NaN	3350769.0086631	NaN	3350769.9920677	3350770.50861608
102	18	0	0	90	36.1581920903955	36.241610738255	22	0.733399568162858	2	4	6	NaN	1	4	0.0884714403412524	1	1	NaN	179	3	53	1	121	221	321	NaN	521	0.010404025670141	1	1	NaN	3350772.5255524	NaN	3350773.509084	3350774.02563927
102	18	0	0	90	36.1581920903955	36.241610738255	9	0.300027096066624	2	9	3	NaN	2	3	0.0884714403412524	1	1	NaN	180	3	54	1	121	221	321	NaN	521	0.0104091735556722	2	1	NaN	3350774.842584	NaN	3350775.8259706	3350776.34252673
102	18	0	0	90	36.1581920903955	36.241610738255	7	0.233354408051819	2	7	6	NaN	2	5	0.0884714403412524	1	1	NaN	181	3	55	1	121	221	321	NaN	521	0.0578184737823904	1	0	NaN	3350777.1593465	NaN	3350778.142879	3350778.65941563
102	18	0	0	90	36.1581920903955	36.241610738255	16	0.533381504118443	2	2	1	NaN	1	5	0.0884714403412524	1	1	NaN	182	3	56	1	121	221	321	NaN	521	0.0104040736332536	1	1	NaN	3350779.5262402	NaN	3350780.5097758	3350781.02632363
102	18	0	0	90	36.1581920903955	36.241610738255	19	0.633390536140651	2	7	2	NaN	2	5	0.0884714403412524	1	1	NaN	183	3	57	1	121	221	321	NaN	521	0.0104197259061038	2	1	NaN	3350781.8431471	NaN	3350782.8266742	3350783.34322197
102	18	0	0	90	36.1581920903955	36.241610738255	17	0.566717848125845	2	9	5	NaN	2	3	0.0884714403412524	1	1	NaN	184	3	58	1	121	221	321	NaN	521	0.0104116736911237	1	0	NaN	3350784.1600329	NaN	3350785.1435621	3350785.66010843
102	18	0	0	90	36.1581920903955	36.241610738255	21	0.700063224155456	2	1	4	NaN	1	4	0.0884714403412524	1	1	NaN	185	3	59	1	121	221	321	NaN	521	0.164480273611844	1	1	NaN	3350786.4770546	NaN	3350787.4603532	3350787.97700753
102	18	0	0	90	36.1581920903955	36.241610738255	19	0.633390536140651	2	1	1	NaN	1	5	0.0884714403412524	1	1	NaN	186	3	60	1	121	221	321	NaN	521	0.344452329911292	1	1	NaN	3350788.9606302	NaN	3350789.9440414	3350790.46059077
102	18	0	0	90	36.1581920903955	36.241610738255	8	0.266690752059221	2	7	3	NaN	2	4	0.0884714403412524	1	1	NaN	187	3	61	1	121	221	321	NaN	521	0.0104174739681184	2	1	NaN	3350791.6108981	NaN	3350792.5942997	3350793.11084633
102	18	0	0	90	36.1581920903955	36.241610738255	19	0.633390536140651	2	11	4	NaN	2	5	0.0884714403412524	1	1	NaN	188	3	62	1	121	221	321	NaN	521	0.360744625795633	2	1	NaN	3350793.9443484	NaN	3350794.9278547	3350795.44440847
102	18	0	0	90	36.1581920903955	36.241610738255	24	0.800072256177664	2	3	4	NaN	1	5	0.0884714403412524	1	1	NaN	189	3	63	1	121	221	321	NaN	521	0.0104029262438416	1	1	NaN	3350796.6114035	NaN	3350797.5947874	3350798.11133977
102	18	0	0	90	36.1581920903955	36.241610738255	22	0.733399568162858	2	2	6	NaN	1	5	0.0884714403412524	1	1	NaN	190	4	1	1	121	221	321	NaN	521	0.997604125645012	1	1	NaN	3350805.7955816	NaN	3350806.7790174	3350807.29557167
102	18	0	0	90	36.1581920903955	36.241610738255	6	0.200018064044416	2	1	2	NaN	1	5	0.0884714403412524	1	1	NaN	191	4	2	1	121	221	321	NaN	521	0.0104090739041567	1	1	NaN	3350809.1126497	NaN	3350810.0959915	3350810.61256473
102	18	0	0	90	36.1581920903955	36.241610738255	13	0.433372472096235	2	1	6	NaN	1	4	0.0884714403412524	1	1	NaN	192	4	3	1	121	221	321	NaN	521	0.0103955254890025	1	1	NaN	3350811.429505	NaN	3350812.4129172	3350812.92946687
102	18	0	0	90	36.1581920903955	36.241610738255	20	0.666726880148053	2	1	6	NaN	1	5	0.0884714403412524	1	1	NaN	193	4	4	1	121	221	321	NaN	521	0.0308929388411343	1	1	NaN	3350813.7462771	NaN	3350814.7297989	3350815.24636216
102	18	0	0	90	36.1581920903955	36.241610738255	17	0.566717848125845	2	10	2	NaN	2	3	0.0884714403412524	1	1	NaN	194	4	5	1	121	221	321	NaN	521	0.976944725960493	2	1	NaN	3350816.0966376	NaN	3350817.0800421	3350817.59659217
102	18	0	0	90	36.1581920903955	36.241610738255	18	0.600054192133248	2	5	6	NaN	1	5	0.0884714403412524	1	1	NaN	195	4	6	1	121	221	321	NaN	521	0.0103806778788567	1	1	NaN	3350819.3801827	NaN	3350820.3637627	3350820.88024792
102	18	0	0	90	36.1581920903955	36.241610738255	15	0.50004516011104	2	11	6	NaN	2	5	0.0884714403412524	1	1	NaN	196	4	7	1	121	221	321	NaN	521	0.744113034568727	2	1	NaN	3350821.6970809	NaN	3350822.6805731	3350823.19713287
102	18	0	0	90	36.1581920903955	36.241610738255	23	0.766735912170261	2	5	2	NaN	1	3	0.0884714403412524	1	1	NaN	197	4	8	1	121	221	321	NaN	521	1.85400157375261	1	1	NaN	3350824.7474273	NaN	3350825.7308712	3350826.24743483
102	18	0	0	90	36.1581920903955	36.241610738255	17	0.566717848125845	2	3	4	NaN	1	3	0.0884714403412524	1	1	NaN	198	4	9	1	121	221	321	NaN	521	0.839215425774455	1	1	NaN	3350828.9145751	NaN	3350829.8979711	3350830.41451867
102	18	0	0	90	36.1581920903955	36.241610738255	15	0.50004516011104	2	2	4	NaN	1	5	0.0884714403412524	1	1	NaN	199	4	10	1	121	221	321	NaN	521	0.0104336217045784	1	1	NaN	3350832.0648679	NaN	3350833.0482693	3350833.56482528
102	18	0	0	90	36.1581920903955	36.241610738255	20	0.666726880148053	2	7	4	NaN	2	4	0.0884714403412524	1	1	NaN	200	4	11	1	121	221	321	NaN	521	2.19536852557212	2	1	NaN	3350834.3816609	NaN	3350835.3651705	3350835.88172477
102	18	0	0	90	36.1581920903955	36.241610738255	6	0.200018064044416	2	8	2	NaN	2	4	0.0884714403412524	1	1	NaN	201	4	12	1	121	221	321	NaN	521	0.014503073412925	2	1	NaN	3350838.8988815	NaN	3350839.8822795	3350840.39882493
102	18	0	0	90	36.1581920903955	36.241610738255	19	0.633390536140651	2	5	4	NaN	1	5	0.0884714403412524	1	1	NaN	202	4	13	1	121	221	321	NaN	521	0.010399725753814	1	1	NaN	3350841.2323073	NaN	3350842.2158404	3350842.73239487
102	18	0	0	90	36.1581920903955	36.241610738255	15	0.50004516011104	2	9	3	NaN	2	3	0.0884714403412524	1	1	NaN	203	4	14	1	121	221	321	NaN	521	0.010420173406601	2	1	NaN	3350843.5492375	NaN	3350844.5328052	3350845.04928523
102	18	0	0	90	36.1581920903955	36.241610738255	20	0.666726880148053	2	10	1	NaN	2	5	0.0884714403412524	1	1	NaN	204	4	15	1	121	221	321	NaN	521	0.0224681259132922	2	1	NaN	3350845.8827779	NaN	3350846.8662993	3350847.38285527
102	18	0	0	90	36.1581920903955	36.241610738255	6	0.200018064044416	2	9	6	NaN	2	4	0.0884714403412524	1	1	NaN	205	4	16	1	121	221	321	NaN	521	0.0104081737808883	2	1	NaN	3350848.2164765	NaN	3350849.1998565	3350849.71640383
102	18	0	0	90	36.1581920903955	36.241610738255	19	0.633390536140651	2	9	1	NaN	2	5	0.0884714403412524	1	1	NaN	206	4	17	1	121	221	321	NaN	521	0.0104132737033069	2	1	NaN	3350850.53334	NaN	3350851.5167553	3350852.03329973
102	18	0	0	90	36.1581920903955	36.241610738255	22	0.733399568162858	2	9	2	NaN	2	4	0.0884714403412524	1	1	NaN	207	4	18	1	121	221	321	NaN	521	1.07897877367213	2	1	NaN	3350852.8502625	NaN	3350853.8336444	3350854.35020693
102	18	0	0	90	36.1581920903955	36.241610738255	16	0.533381504118443	2	10	6	NaN	2	4	0.0884714403412524	1	1	NaN	208	4	19	1	121	221	321	NaN	521	2.11508682603016	2	1	NaN	3350856.3338799	NaN	3350857.3173315	3350857.83387777
102	18	0	0	90	36.1581920903955	36.241610738255	23	0.766735912170261	2	2	2	NaN	1	4	0.0884714403412524	1	1	NaN	209	4	20	1	121	221	321	NaN	521	2.60972977336496	1	1	NaN	3350860.7677055	NaN	3350861.7510935	3350862.26764773
102	18	0	0	90	36.1581920903955	36.241610738255	14	0.466708816103637	2	5	3	NaN	1	4	0.0884714403412524	1	1	NaN	210	4	21	1	121	221	321	NaN	521	0.0103880255483091	1	1	NaN	3350865.6848752	NaN	3350866.6682442	3350867.18480077
102	18	0	0	90	36.1581920903955	36.241610738255	9	0.300027096066624	2	10	6	NaN	2	5	0.0884714403412524	1	1	NaN	211	4	22	1	121	221	321	NaN	521	0.999461973551661	2	1	NaN	3350868.001661	NaN	3350868.9851363	3350869.50168283
102	18	0	0	90	36.1581920903955	36.241610738255	19	0.633390536140651	2	9	3	NaN	2	3	0.0884714403412524	1	1	NaN	212	4	23	1	121	221	321	NaN	521	1.0906378258951	2	1	NaN	3350871.3187242	NaN	3350872.3021356	3350872.81868767
102	18	0	0	90	36.1581920903955	36.241610738255	7	0.233354408051819	2	10	2	NaN	2	5	0.0884714403412524	1	1	NaN	213	4	24	1	121	221	321	NaN	521	0.490066773723811	2	1	NaN	3350874.7190706	NaN	3350875.7024974	3350876.21901603
102	18	0	0	90	36.1581920903955	36.241610738255	11	0.366699784081429	2	8	5	NaN	2	5	0.0884714403412524	1	1	NaN	214	4	25	1	121	221	321	NaN	521	1.25830122595653	2	1	NaN	3350877.5193354	NaN	3350878.5027387	3350879.01929907
102	18	0	0	90	36.1581920903955	36.241610738255	21	0.700063224155456	2	10	2	NaN	2	4	0.0884714403412524	1	1	NaN	215	4	26	1	121	221	321	NaN	521	0.0104092736728489	2	1	NaN	3350881.0863514	NaN	3350882.0697646	3350882.58631143
102	18	0	0	90	36.1581920903955	36.241610738255	18	0.600054192133248	2	11	2	NaN	2	4	0.0884714403412524	1	1	NaN	216	4	27	1	121	221	321	NaN	521	0.1578359734267	2	1	NaN	3350883.4032548	NaN	3350884.3866642	3350884.90319913
102	18	0	0	90	36.1581920903955	36.241610738255	22	0.733399568162858	2	8	3	NaN	2	4	0.0884714403412524	1	1	NaN	217	4	28	1	121	221	321	NaN	521	1.939263173379	2	1	NaN	3350885.8702213	NaN	3350886.8535589	3350887.37011073
102	18	0	0	90	36.1581920903955	36.241610738255	12	0.400036128088832	2	5	2	NaN	1	4	0.0884714403412524	1	1	NaN	218	4	29	1	121	221	321	NaN	521	0.0104271215386689	1	1	NaN	3350890.1205845	NaN	3350891.103981	3350891.62052848
102	18	0	0	90	36.1581920903955	36.241610738255	8	0.266690752059221	2	7	6	NaN	2	5	0.0884714403412524	1	1	NaN	219	4	30	1	121	221	321	NaN	521	0.0102567956782877	2	1	NaN	3350892.4541377	NaN	3350893.4375441	3350893.9541064
102	18	0	0	90	36.1581920903955	36.241610738255	23	0.766735912170261	2	8	3	NaN	2	3	0.0884714403412524	1	1	NaN	220	4	31	1	121	221	321	NaN	521	0.0103963259607553	2	1	NaN	3350894.7710727	NaN	3350895.7544474	3350896.27099237
102	18	0	0	90	36.1581920903955	36.241610738255	9	0.300027096066624	2	4	1	NaN	1	4	0.0884714403412524	1	1	NaN	221	4	32	1	121	221	321	NaN	521	0.0104031260125339	1	1	NaN	3350897.1046194	NaN	3350898.0879925	3350898.60454957
102	18	0	0	90	36.1581920903955	36.241610738255	25	0.833408600185066	2	7	3	NaN	2	5	0.0884714403412524	1	1	NaN	222	4	33	1	121	221	321	NaN	521	0.675282726064324	2	1	NaN	3350899.4381738	NaN	3350900.4215693	3350900.93812077
102	18	0	0	90	36.1581920903955	36.241610738255	14	0.466708816103637	2	10	6	NaN	2	4	0.0884714403412524	1	1	NaN	223	4	34	1	121	221	321	NaN	521	0.01040727365762	2	1	NaN	3350902.4217952	NaN	3350903.4052394	3350903.92174263
102	18	0	0	90	36.1581920903955	36.241610738255	15	0.50004516011104	2	2	5	NaN	1	5	0.0884714403412524	1	1	NaN	224	4	35	1	121	221	321	NaN	521	0.0104109733365476	1	1	NaN	3350904.7387423	NaN	3350905.7220928	3350906.23863633
102	18	0	0	90	36.1581920903955	36.241610738255	12	0.400036128088832	2	10	3	NaN	2	3	0.0884714403412524	1	1	NaN	225	4	36	1	121	221	321	NaN	521	0.0104051255621016	2	1	NaN	3350907.0721353	NaN	3350908.0556437	3350908.57220357
102	18	0	0	90	36.1581920903955	36.241610738255	16	0.533381504118443	2	12	5	NaN	2	3	0.0884714403412524	1	1	NaN	226	4	37	1	121	221	321	NaN	521	0.547861425671726	2	1	NaN	3350909.405814	NaN	3350910.3892185	3350910.90576897
102	18	0	0	90	36.1581920903955	36.241610738255	9	0.300027096066624	2	12	2	NaN	2	4	0.0884714403412524	1	1	NaN	227	4	38	1	121	221	321	NaN	521	0.0104302214458585	2	1	NaN	3350912.2727727	NaN	3350913.2561475	3350913.77271668
102	18	0	0	90	36.1581920903955	36.241610738255	16	0.533381504118443	2	4	3	NaN	1	4	0.0884714403412524	1	1	NaN	228	4	39	1	121	221	321	NaN	521	0.0103779779747128	1	1	NaN	3350914.5896587	NaN	3350915.573041	3350916.08960212
102	18	0	0	90	36.1581920903955	36.241610738255	19	0.633390536140651	2	10	3	NaN	2	5	0.0884714403412524	1	1	NaN	229	4	40	1	121	221	321	NaN	521	1.13517757412046	2	1	NaN	3350916.9065652	NaN	3350917.889997	3350918.40649763
102	18	0	0	90	36.1581920903955	36.241610738255	11	0.366699784081429	2	2	6	NaN	1	5	0.0884714403412524	1	1	NaN	230	4	41	1	121	221	321	NaN	521	0.0103960260748863	1	1	NaN	3350920.3568998	NaN	3350921.3401889	3350921.85684647
102	18	0	0	90	36.1581920903955	36.241610738255	10	0.333363440074027	2	1	5	NaN	1	4	0.0884714403412524	1	1	NaN	231	4	42	1	121	221	321	NaN	521	0.959886874072254	1	1	NaN	3350922.673787	NaN	3350923.6570859	3350924.17372853
102	18	0	0	90	36.1581920903955	36.241610738255	23	0.766735912170261	2	12	1	NaN	2	5	0.0884714403412524	1	1	NaN	232	4	43	1	121	221	321	NaN	521	0.28496042592451	2	1	NaN	3350925.9406496	NaN	3350926.9240663	3350927.44073977
102	18	0	0	90	36.1581920903955	36.241610738255	8	0.266690752059221	2	12	2	NaN	2	3	0.0884714403412524	1	1	NaN	233	4	44	1	121	221	321	NaN	521	0.132698721252382	2	1	NaN	3350928.5410274	NaN	3350929.5244215	3350930.04098108
102	18	0	0	90	36.1581920903955	36.241610738255	10	0.333363440074027	2	7	3	NaN	2	4	0.0884714403412524	1	1	NaN	234	4	45	1	121	221	321	NaN	521	0.0104089737869799	1	0	NaN	3350930.9911312	NaN	3350931.9746743	3350932.49121203
102	18	0	0	90	36.1581920903955	36.241610738255	0	0	1	10	6	NaN	2	5	0.0884714403412524	1	1	NaN	235	4	46	1	111	211	311	NaN	511	0.58956357371062	2	1	NaN	3350933.3081512	NaN	3350934.2915667	3350934.80810763
102	18	0	0	90	36.1581920903955	36.241610738255	24	0.800072256177664	2	11	5	NaN	2	4	0.0884714403412524	1	1	NaN	236	4	47	1	121	221	321	NaN	521	0.0103909256868064	2	1	NaN	3350936.2084484	NaN	3350937.1918563	3350937.70840347
102	18	0	0	90	36.1581920903955	36.241610738255	8	0.266690752059221	2	9	1	NaN	2	3	0.0884714403412524	1	1	NaN	237	4	48	1	121	221	321	NaN	521	0.0104173738509417	2	1	NaN	3350938.5253443	NaN	3350939.5087399	3350940.02528763
102	18	0	0	90	36.1581920903955	36.241610738255	24	0.800072256177664	2	4	3	NaN	1	5	0.0884714403412524	1	1	NaN	238	4	49	1	121	221	321	NaN	521	0.0102688437327743	1	1	NaN	3350940.8423361	NaN	3350941.825641	3350942.34219556
102	18	0	0	90	36.1581920903955	36.241610738255	16	0.533381504118443	2	10	6	NaN	2	4	0.0884714403412524	1	1	NaN	239	4	50	1	121	221	321	NaN	521	0.0104134739376605	2	1	NaN	3350943.175786	NaN	3350944.1591954	3350944.67574223
102	18	0	0	90	36.1581920903955	36.241610738255	0	0	1	7	2	NaN	2	4	0.0884714403412524	1	1	NaN	240	4	51	1	111	211	311	NaN	511	0.0104073262773454	2	1	NaN	3350945.4926791	NaN	3350946.4760951	3350946.99264607
102	18	0	0	90	36.1581920903955	36.241610738255	7	0.233354408051819	2	1	1	NaN	1	5	0.0884714403412524	1	1	NaN	241	4	52	1	121	221	321	NaN	521	1.3999469736591	1	1	NaN	3350947.8095995	NaN	3350948.7929853	3350949.30953533
102	18	0	0	90	36.1581920903955	36.241610738255	10	0.333363440074027	2	4	6	NaN	1	3	0.0884714403412524	1	1	NaN	242	4	53	1	121	221	321	NaN	521	0.010411573573947	1	1	NaN	3350951.5265978	NaN	3350952.5100512	3350953.02657173
102	18	0	0	90	36.1581920903955	36.241610738255	7	0.233354408051819	2	9	5	NaN	2	5	0.0884714403412524	1	1	NaN	243	4	54	1	121	221	321	NaN	521	0.0103799779899418	2	1	NaN	3350953.8435305	NaN	3350954.8269161	3350955.34346822
102	18	0	0	90	36.1581920903955	36.241610738255	7	0.233354408051819	2	3	6	NaN	1	3	0.0884714403412524	1	1	NaN	244	4	55	1	121	221	321	NaN	521	0.0104085258208215	1	1	NaN	3350956.1604054	NaN	3350957.1438182	3350957.66036277
102	18	0	0	90	36.1581920903955	36.241610738255	25	0.833408600185066	2	5	3	NaN	1	3	0.0884714403412524	1	1	NaN	245	4	56	1	121	221	321	NaN	521	0.0104105737991631	1	1	NaN	3350958.4773012	NaN	3350959.4606946	3350959.97725123
102	18	0	0	90	36.1581920903955	36.241610738255	12	0.400036128088832	2	6	2	NaN	1	3	0.0884714403412524	1	1	NaN	246	4	57	1	121	221	321	NaN	521	0.010395125951618	1	1	NaN	3350960.7940777	NaN	3350961.7776014	3350962.29415377
102	18	0	0	90	36.1581920903955	36.241610738255	14	0.466708816103637	2	8	6	NaN	2	4	0.0884714403412524	1	1	NaN	247	4	58	1	121	221	321	NaN	521	0.0103931254707277	2	1	NaN	3350963.111103	NaN	3350964.0944836	3350964.61106747
102	18	0	0	90	36.1581920903955	36.241610738255	15	0.50004516011104	2	1	4	NaN	1	3	0.0884714403412524	1	1	NaN	248	4	59	1	121	221	321	NaN	521	1.47750267386436	1	1	NaN	3350965.4280113	NaN	3350966.4113951	3350966.92793203
102	18	0	0	90	36.1581920903955	36.241610738255	17	0.566717848125845	2	4	5	NaN	1	4	0.0884714403412524	1	1	NaN	249	4	60	1	121	221	321	NaN	521	0.197212325874716	1	1	NaN	3350969.4283763	NaN	3350970.4117695	3350970.92833677
102	18	0	0	90	36.1581920903955	36.241610738255	10	0.333363440074027	2	12	4	NaN	2	3	0.0884714403412524	1	1	NaN	250	4	61	1	121	221	321	NaN	521	0.0104360217228532	2	1	NaN	3350971.9452938	NaN	3350972.928693	3350973.44523678
102	18	0	0	90	36.1581920903955	36.241610738255	13	0.433372472096235	2	11	5	NaN	2	4	0.0884714403412524	1	1	NaN	251	4	62	1	121	221	321	NaN	521	0.0427946257404983	2	1	NaN	3350974.2787641	NaN	3350975.2622656	3350975.77880947
102	18	0	0	90	36.1581920903955	36.241610738255	9	0.300027096066624	2	7	1	NaN	2	4	0.0884714403412524	1	1	NaN	252	4	63	1	121	221	321	NaN	521	0.140894234646112	2	1	NaN	3350976.6291431	NaN	3350977.612528	3350978.12904137
102	18	0	0	90	36.1581920903955	36.241610738255	9	0.300027096066624	2	8	3	NaN	2	3	0.0884714403412524	1	1	NaN	253	5	1	1	121	221	321	NaN	521	0.0103928255848587	2	1	NaN	3350987.5968117	NaN	3350988.5802404	3350989.09678237
102	18	0	0	90	36.1581920903955	36.241610738255	22	0.733399568162858	2	8	1	NaN	2	5	0.0884714403412524	1	1	NaN	254	5	2	1	121	221	321	NaN	521	0.711931773461401	2	1	NaN	3350989.9137296	NaN	3350990.8971459	3350991.41367303
102	18	0	0	90	36.1581920903955	36.241610738255	12	0.400036128088832	2	1	6	NaN	1	5	0.0884714403412524	1	1	NaN	255	5	3	1	121	221	321	NaN	521	0.0104060736484826	1	1	NaN	3350992.9473631	NaN	3350993.9306586	3350994.44731003
102	18	0	0	90	36.1581920903955	36.241610738255	23	0.766735912170261	2	3	3	NaN	1	3	0.0884714403412524	1	1	NaN	256	5	4	1	121	221	321	NaN	521	0.010420573875308	1	1	NaN	3350995.2809225	NaN	3350996.2643309	3350996.78086703
102	18	0	0	90	36.1581920903955	36.241610738255	19	0.633390536140651	2	3	2	NaN	1	3	0.0884714403412524	1	1	NaN	257	5	5	1	121	221	321	NaN	521	0.0103965257294476	1	1	NaN	3350997.5978062	NaN	3350998.581243	3350999.09777177
102	18	0	0	90	36.1581920903955	36.241610738255	24	0.800072256177664	2	4	6	NaN	1	4	0.0884714403412524	1	1	NaN	258	5	6	1	121	221	321	NaN	521	0.0104013262316585	1	1	NaN	3350999.9146799	NaN	3351000.8981145	3351001.41466657
102	18	0	0	90	36.1581920903955	36.241610738255	10	0.333363440074027	2	10	3	NaN	2	4	0.0884714403412524	1	1	NaN	259	5	7	1	121	221	321	NaN	521	1.20173347368836	2	1	NaN	3351002.2316123	NaN	3351003.2150058	3351003.73155903
102	18	0	0	90	36.1581920903955	36.241610738255	12	0.400036128088832	2	8	4	NaN	2	5	0.0884714403412524	1	1	NaN	260	5	8	1	121	221	321	NaN	521	0.116917373612523	2	1	NaN	3351005.748584	NaN	3351006.7320256	3351007.24857363
102	18	0	0	90	36.1581920903955	36.241610738255	19	0.633390536140651	2	10	5	NaN	2	5	0.0884714403412524	1	1	NaN	261	5	9	1	121	221	321	NaN	521	0.010396025609225	2	1	NaN	3351008.1822134	NaN	3351009.1656151	3351009.68214297
102	18	0	0	90	36.1581920903955	36.241610738255	17	0.566717848125845	2	7	6	NaN	2	5	0.0884714403412524	1	1	NaN	262	5	10	1	121	221	321	NaN	521	0.190112173557281	2	1	NaN	3351010.5157488	NaN	3351011.499143	3351012.01570003
102	18	0	0	90	36.1581920903955	36.241610738255	14	0.466708816103637	2	12	6	NaN	2	3	0.0884714403412524	1	1	NaN	263	5	11	1	121	221	321	NaN	521	0.0104104257188737	2	1	NaN	3351013.016011	NaN	3351013.9994032	3351014.51595337
102	18	0	0	90	36.1581920903955	36.241610738255	21	0.700063224155456	2	3	3	NaN	1	5	0.0884714403412524	1	1	NaN	264	5	12	1	121	221	321	NaN	521	0.010420573875308	1	1	NaN	3351015.3328926	NaN	3351016.3162943	3351016.83284113
102	18	0	0	90	36.1581920903955	36.241610738255	0	0	1	5	5	NaN	1	5	0.0884714403412524	1	1	NaN	265	5	13	1	111	211	311	NaN	511	1.36783817363903	1	1	NaN	3351017.6496864	NaN	3351018.6332091	3351019.14973273
102	18	0	0	90	36.1581920903955	36.241610738255	6	0.200018064044416	2	6	6	NaN	1	5	0.0884714403412524	1	1	NaN	266	5	14	1	121	221	321	NaN	521	0.0104426215402782	1	1	NaN	3351021.3334894	NaN	3351022.3168467	3351022.83343638
102	18	0	0	90	36.1581920903955	36.241610738255	7	0.233354408051819	2	12	2	NaN	2	3	0.0884714403412524	1	1	NaN	267	5	15	1	121	221	321	NaN	521	0.166927373502403	2	1	NaN	3351023.6503894	NaN	3351024.633763	3351025.15032983
102	18	0	0	90	36.1581920903955	36.241610738255	16	0.533381504118443	2	12	2	NaN	2	5	0.0884714403412524	1	1	NaN	268	5	16	1	121	221	321	NaN	521	0.0104007259942591	2	1	NaN	3351026.1339661	NaN	3351027.117354	3351027.63390777
102	18	0	0	90	36.1581920903955	36.241610738255	6	0.200018064044416	2	7	4	NaN	2	3	0.0884714403412524	1	1	NaN	269	5	17	1	121	221	321	NaN	521	0.0104231215082109	2	1	NaN	3351028.4508537	NaN	3351029.4342498	3351029.95079398
102	18	0	0	90	36.1581920903955	36.241610738255	18	0.600054192133248	2	4	1	NaN	1	3	0.0884714403412524	1	1	NaN	270	5	18	1	121	221	321	NaN	521	0.0104178739711642	1	1	NaN	3351030.7677868	NaN	3351031.751145	3351032.26769163
102	18	0	0	90	36.1581920903955	36.241610738255	20	0.666726880148053	2	6	4	NaN	1	5	0.0884714403412524	1	1	NaN	271	5	19	1	121	221	321	NaN	521	0.0204166737385094	1	1	NaN	3351033.1013113	NaN	3351034.0847068	3351034.60125073
102	18	0	0	90	36.1581920903955	36.241610738255	17	0.566717848125845	2	4	3	NaN	1	5	0.0884714403412524	1	1	NaN	272	5	20	1	121	221	321	NaN	521	0.0104117738083005	1	1	NaN	3351035.4347631	NaN	3351036.4182844	3351036.93481603
102	18	0	0	90	36.1581920903955	36.241610738255	16	0.533381504118443	2	5	6	NaN	1	4	0.0884714403412524	1	1	NaN	273	5	21	1	121	221	321	NaN	521	0.0104125738143921	1	1	NaN	3351037.751645	NaN	3351038.7351638	3351039.25171893
102	18	0	0	90	36.1581920903955	36.241610738255	19	0.633390536140651	2	4	6	NaN	1	3	0.0884714403412524	1	1	NaN	274	5	22	1	121	221	321	NaN	521	0.010389578063041	1	1	NaN	3351040.0685969	NaN	3351041.0520418	3351041.56860732
102	18	0	0	90	36.1581920903955	36.241610738255	16	0.533381504118443	2	11	2	NaN	2	4	0.0884714403412524	1	1	NaN	275	5	23	1	121	221	321	NaN	521	0.207760625518858	2	1	NaN	3351042.4022266	NaN	3351043.3856167	3351043.90217817
102	18	0	0	90	36.1581920903955	36.241610738255	21	0.700063224155456	2	9	1	NaN	2	3	0.0884714403412524	1	1	NaN	276	5	24	1	121	221	321	NaN	521	0.0104167736135423	2	1	NaN	3351044.9191251	NaN	3351045.9025213	3351046.41908233
102	18	0	0	90	36.1581920903955	36.241610738255	18	0.600054192133248	2	3	3	NaN	1	4	0.0884714403412524	1	1	NaN	277	5	25	1	121	221	321	NaN	521	0.0103302346542478	1	1	NaN	3351047.2360289	NaN	3351048.2194463	3351048.73598587
102	18	0	0	90	36.1581920903955	36.241610738255	21	0.700063224155456	2	7	2	NaN	2	3	0.0884714403412524	1	1	NaN	278	5	26	1	121	221	321	NaN	521	0.0567891737446189	2	1	NaN	3351049.5529117	NaN	3351050.536324	3351051.05287393
102	18	0	0	90	36.1581920903955	36.241610738255	0	0	1	6	4	NaN	1	4	0.0884714403412524	1	1	NaN	279	5	27	1	111	211	311	NaN	511	0.425852726213634	1	1	NaN	3351051.9197053	NaN	3351052.9032212	3351053.41977987
102	18	0	0	90	36.1581920903955	36.241610738255	25	0.833408600185066	2	5	4	NaN	1	3	0.0884714403412524	1	1	NaN	280	5	28	1	121	221	321	NaN	521	0.740239525679499	1	1	NaN	3351054.6534363	NaN	3351055.6368305	3351056.15338447
102	18	0	0	90	36.1581920903955	36.241610738255	17	0.566717848125845	2	1	4	NaN	1	5	0.0884714403412524	1	1	NaN	281	5	29	1	121	221	321	NaN	521	0.306096773594618	1	1	NaN	3351057.703724	NaN	3351058.6871248	3351059.20367643
102	18	0	0	90	36.1581920903955	36.241610738255	8	0.266690752059221	2	10	4	NaN	2	5	0.0884714403412524	1	1	NaN	282	5	30	1	121	221	321	NaN	521	2.10533527377993	2	1	NaN	3351060.3206492	NaN	3351061.3040452	3351061.82059733
102	18	0	0	90	36.1581920903955	36.241610738255	15	0.50004516011104	2	1	2	NaN	1	3	0.0884714403412524	1	1	NaN	283	5	31	1	121	221	321	NaN	521	0.0879106256179512	1	1	NaN	3351064.7377519	NaN	3351065.7211592	3351066.23770707
102	18	0	0	90	36.1581920903955	36.241610738255	20	0.666726880148053	2	12	3	NaN	2	5	0.0884714403412524	1	1	NaN	284	5	32	1	121	221	321	NaN	521	0.0876811733469367	2	1	NaN	3351067.1379844	NaN	3351068.1213823	3351068.63793613
102	18	0	0	90	36.1581920903955	36.241610738255	19	0.633390536140651	2	12	5	NaN	2	5	0.0884714403412524	1	1	NaN	285	5	33	1	121	221	321	NaN	521	0.85536722606048	2	1	NaN	3351069.5380759	NaN	3351070.5216358	3351071.03817287
102	18	0	0	90	36.1581920903955	36.241610738255	13	0.433372472096235	2	1	3	NaN	1	4	0.0884714403412524	1	1	NaN	286	5	34	1	121	221	321	NaN	521	0.488575574010611	1	1	NaN	3351072.705235	NaN	3351073.6886125	3351074.20515343
102	18	0	0	90	36.1581920903955	36.241610738255	12	0.400036128088832	2	2	6	NaN	1	4	0.0884714403412524	1	1	NaN	287	5	35	1	121	221	321	NaN	521	0.0103029385209084	1	1	NaN	3351075.5055276	NaN	3351076.4888959	3351077.00542646
102	18	0	0	90	36.1581920903955	36.241610738255	7	0.233354408051819	2	6	6	NaN	1	3	0.0884714403412524	1	1	NaN	288	5	36	1	121	221	321	NaN	521	0.186484973877668	1	1	NaN	3351077.8390421	NaN	3351078.8224366	3351079.33898843
102	18	0	0	90	36.1581920903955	36.241610738255	8	0.266690752059221	2	5	1	NaN	1	5	0.0884714403412524	1	1	NaN	289	5	37	1	121	221	321	NaN	521	0.0104043260216713	1	1	NaN	3351080.3391809	NaN	3351081.3226819	3351081.83923887
102	18	0	0	90	36.1581920903955	36.241610738255	24	0.800072256177664	2	9	2	NaN	2	3	0.0884714403412524	1	1	NaN	290	5	38	1	121	221	321	NaN	521	1.69730812171474	2	1	NaN	3351082.6561785	NaN	3351083.6395728	3351084.15612258
102	18	0	0	90	36.1581920903955	36.241610738255	13	0.433372472096235	2	4	1	NaN	1	3	0.0884714403412524	1	1	NaN	291	5	39	1	121	221	321	NaN	521	0.0103895259089768	1	1	NaN	3351086.6732475	NaN	3351087.6566679	3351088.17319897
102	18	0	0	90	36.1581920903955	36.241610738255	13	0.433372472096235	2	2	4	NaN	1	5	0.0884714403412524	1	1	NaN	292	5	40	1	121	221	321	NaN	521	0.947453173808753	1	1	NaN	3351088.9900462	NaN	3351089.9735335	3351090.49009053
102	18	0	0	90	36.1581920903955	36.241610738255	8	0.266690752059221	2	9	5	NaN	2	3	0.0884714403412524	1	1	NaN	293	5	41	1	121	221	321	NaN	521	0.0104042259044945	2	1	NaN	3351092.2571327	NaN	3351093.2405295	3351093.75707537
102	18	0	0	90	36.1581920903955	36.241610738255	17	0.566717848125845	2	3	5	NaN	1	5	0.0884714403412524	1	1	NaN	294	5	42	1	121	221	321	NaN	521	0.835521095432341	1	1	NaN	3351094.5740182	NaN	3351095.5574323	3351096.0739767
102	18	0	0	90	36.1581920903955	36.241610738255	0	0	1	4	2	NaN	1	5	0.0884714403412524	1	1	NaN	295	5	43	1	111	211	311	NaN	511	0.3176698256284	1	1	NaN	3351097.7243149	NaN	3351098.7077381	3351099.22427617
102	18	0	0	90	36.1581920903955	36.241610738255	24	0.800072256177664	2	11	5	NaN	2	3	0.0884714403412524	1	1	NaN	296	5	44	1	121	221	321	NaN	521	0.0104198735207319	2	1	NaN	3351100.3579364	NaN	3351101.3413163	3351101.85786873
102	18	0	0	90	36.1581920903955	36.241610738255	9	0.300027096066624	2	6	1	NaN	1	5	0.0884714403412524	1	1	NaN	297	5	45	1	121	221	321	NaN	521	0.0103902257978916	1	1	NaN	3351102.6748096	NaN	3351103.6582209	3351104.17477357
102	18	0	0	90	36.1581920903955	36.241610738255	20	0.666726880148053	2	11	3	NaN	2	4	0.0884714403412524	1	1	NaN	298	5	46	1	121	221	321	NaN	521	0.258145673666149	2	1	NaN	3351104.9917328	NaN	3351105.9751114	3351106.49165653
102	18	0	0	90	36.1581920903955	36.241610738255	22	0.733399568162858	2	6	5	NaN	1	3	0.0884714403412524	1	1	NaN	299	5	47	1	121	221	321	NaN	521	0.0104037737473845	1	1	NaN	3351107.5586254	NaN	3351108.5420211	3351109.05857873
102	18	0	0	90	36.1581920903955	36.241610738255	23	0.766735912170261	2	4	4	NaN	1	4	0.0884714403412524	1	1	NaN	300	5	48	1	121	221	321	NaN	521	0.0104090739041567	1	1	NaN	3351109.8755225	NaN	3351110.8589264	3351111.37547853
102	18	0	0	90	36.1581920903955	36.241610738255	12	0.400036128088832	2	3	3	NaN	1	5	0.0884714403412524	1	1	NaN	301	5	49	1	121	221	321	NaN	521	0.0103936260566115	1	1	NaN	3351112.2090864	NaN	3351113.1924802	3351113.70904207
102	18	0	0	90	36.1581920903955	36.241610738255	10	0.333363440074027	2	6	4	NaN	1	4	0.0884714403412524	1	1	NaN	302	5	50	1	121	221	321	NaN	521	0.0103805782273412	1	1	NaN	3351114.5926635	NaN	3351115.5760489	3351116.09261062
102	18	0	0	90	36.1581920903955	36.241610738255	0	0	1	5	2	NaN	1	4	0.0884714403412524	1	1	NaN	303	5	51	1	111	211	311	NaN	511	0.010408325586468	1	1	NaN	3351116.9094211	NaN	3351117.8929478	3351118.40949907
102	18	0	0	90	36.1581920903955	36.241610738255	14	0.466708816103637	2	6	4	NaN	1	3	0.0884714403412524	1	1	NaN	304	5	52	1	121	221	321	NaN	521	0.815273125655949	1	1	NaN	3351119.2264341	NaN	3351120.2098372	3351120.72638717
102	18	0	0	90	36.1581920903955	36.241610738255	13	0.433372472096235	2	3	1	NaN	1	5	0.0884714403412524	1	1	NaN	305	5	53	1	121	221	321	NaN	521	4.19378099124879	1	1	NaN	3351122.3600773	NaN	3351123.3434894	3351123.86003331
102	18	0	0	90	36.1581920903955	36.241610738255	25	0.833408600185066	2	2	4	NaN	1	4	0.0884714403412524	1	1	NaN	306	5	54	1	121	221	321	NaN	521	0.0104006258770823	1	1	NaN	3351128.9272661	NaN	3351129.9107875	3351130.42734907
102	18	0	0	90	36.1581920903955	36.241610738255	0	0	1	3	2	NaN	1	4	0.0884714403412524	1	1	NaN	307	5	55	1	111	211	311	NaN	511	0.261274226009846	1	1	NaN	3351131.2442926	NaN	3351132.2276877	3351132.74424377
102	18	0	0	90	36.1581920903955	36.241610738255	12	0.400036128088832	2	3	6	NaN	1	3	0.0884714403412524	1	1	NaN	308	5	56	1	121	221	321	NaN	521	0.742585538886487	1	1	NaN	3351133.8278801	NaN	3351134.8112656	3351135.32783036
102	18	0	0	90	36.1581920903955	36.241610738255	11	0.366699784081429	2	7	5	NaN	2	5	0.0884714403412524	1	1	NaN	309	5	57	1	121	221	321	NaN	521	0.0103638302534819	2	1	NaN	3351136.8780634	NaN	3351137.8615803	3351138.37812387
102	18	0	0	90	36.1581920903955	36.241610738255	23	0.766735912170261	2	9	6	NaN	2	5	0.0884714403412524	1	1	NaN	310	5	58	1	121	221	321	NaN	521	0.0104227736592293	2	1	NaN	3351139.1950826	NaN	3351140.1784695	3351140.69501853
102	18	0	0	90	36.1581920903955	36.241610738255	15	0.50004516011104	2	5	3	NaN	1	3	0.0884714403412524	1	1	NaN	311	5	59	1	121	221	321	NaN	521	0.705749925691634	1	1	NaN	3351141.5119592	NaN	3351142.4953723	3351143.01191507
102	18	0	0	90	36.1581920903955	36.241610738255	21	0.700063224155456	2	7	4	NaN	2	4	0.0884714403412524	1	1	NaN	312	5	60	1	121	221	321	NaN	521	1.05706792557612	2	1	NaN	3351144.5287972	NaN	3351145.512353	3351146.02888057
102	18	0	0	90	36.1581920903955	36.241610738255	0	0	1	11	3	NaN	2	4	0.0884714403412524	1	1	NaN	313	5	61	1	111	211	311	NaN	511	1.35414592595771	2	1	NaN	3351147.8958038	NaN	3351148.8794471	3351149.39588447
102	18	0	0	90	36.1581920903955	36.241610738255	25	0.833408600185066	2	3	5	NaN	1	3	0.0884714403412524	1	1	NaN	314	5	62	1	121	221	321	NaN	521	0.0103898257948458	1	1	NaN	3351151.5629678	NaN	3351152.5463558	3351153.06292307
102	18	0	0	90	36.1581920903955	36.241610738255	0	0	1	9	5	NaN	2	4	0.0884714403412524	1	1	NaN	315	5	63	1	111	211	311	NaN	511	0.393758526071906	2	1	NaN	3351153.8797157	NaN	3351154.8632553	3351155.37980417
102	18	0	0	90	36.1581920903955	36.241610738255	7	0.233354408051819	2	11	4	NaN	2	5	0.0884714403412524	1	1	NaN	316	6	1	1	121	221	321	NaN	521	0.52975359139964	2	1	NaN	3351165.864375	NaN	3351166.8477662	3351167.36430911
102	18	0	0	90	36.1581920903955	36.241610738255	22	0.733399568162858	2	2	1	NaN	1	5	0.0884714403412524	1	1	NaN	317	6	2	1	121	221	321	NaN	521	0.0103941257111728	1	1	NaN	3351168.7146512	NaN	3351169.6980402	3351170.21459667
102	18	0	0	90	36.1581920903955	36.241610738255	15	0.50004516011104	2	3	5	NaN	1	4	0.0884714403412524	1	1	NaN	318	6	3	1	121	221	321	NaN	521	0.0103949257172644	1	1	NaN	3351171.048217	NaN	3351172.0315967	3351172.54815727
102	18	0	0	90	36.1581920903955	36.241610738255	12	0.400036128088832	2	5	5	NaN	1	3	0.0884714403412524	1	1	NaN	319	6	4	1	121	221	321	NaN	521	0.0104220737703145	1	1	NaN	3351173.3649838	NaN	3351174.3484079	3351174.86505183
102	18	0	0	90	36.1581920903955	36.241610738255	12	0.400036128088832	2	9	2	NaN	2	3	0.0884714403412524	1	1	NaN	320	6	5	1	121	221	321	NaN	521	0.0103784780949354	2	1	NaN	3351175.6986546	NaN	3351176.682063	3351177.19860582
102	18	0	0	90	36.1581920903955	36.241610738255	17	0.566717848125845	2	6	2	NaN	1	4	0.0884714403412524	1	1	NaN	321	6	6	1	121	221	321	NaN	521	0.0103936260566115	1	1	NaN	3351178.0155565	NaN	3351178.9989442	3351179.51549747
102	18	0	0	90	36.1581920903955	36.241610738255	12	0.400036128088832	2	7	4	NaN	2	5	0.0884714403412524	1	1	NaN	322	6	7	1	121	221	321	NaN	521	0.836988173890859	2	1	NaN	3351180.3491142	NaN	3351181.3325145	3351181.84906693
102	18	0	0	90	36.1581920903955	36.241610738255	19	0.633390536140651	2	5	1	NaN	1	3	0.0884714403412524	1	1	NaN	323	6	8	1	121	221	321	NaN	521	0.0104096736758947	1	1	NaN	3351183.4994269	NaN	3351184.4828234	3351184.99937343
102	18	0	0	90	36.1581920903955	36.241610738255	18	0.600054192133248	2	10	5	NaN	2	4	0.0884714403412524	1	1	NaN	324	6	9	1	121	221	321	NaN	521	0.737300368957222	2	1	NaN	3351185.8163231	NaN	3351186.7997069	3351187.31626833
102	18	0	0	90	36.1581920903955	36.241610738255	24	0.800072256177664	2	5	2	NaN	1	5	0.0884714403412524	1	1	NaN	325	6	10	1	121	221	321	NaN	521	0.055181173607707	1	1	NaN	3351188.866617	NaN	3351189.8500162	3351190.36656943
102	18	0	0	90	36.1581920903955	36.241610738255	9	0.300027096066624	2	5	4	NaN	1	5	0.0884714403412524	1	1	NaN	326	6	11	1	121	221	321	NaN	521	1.05619718227535	1	1	NaN	3351191.2335238	NaN	3351192.2169164	3351192.73347522
102	18	0	0	90	36.1581920903955	36.241610738255	6	0.200018064044416	2	4	1	NaN	1	5	0.0884714403412524	1	1	NaN	327	6	12	1	121	221	321	NaN	521	0.0105417734012008	1	1	NaN	3351194.6005333	NaN	3351195.5839146	3351196.10048873
102	18	0	0	90	36.1581920903955	36.241610738255	22	0.733399568162858	2	10	4	NaN	2	5	0.0884714403412524	1	1	NaN	328	6	13	1	121	221	321	NaN	521	0.0104855257086456	2	1	NaN	3351196.9173972	NaN	3351197.9008596	3351198.41738287
102	18	0	0	90	36.1581920903955	36.241610738255	22	0.733399568162858	2	1	4	NaN	1	3	0.0884714403412524	1	1	NaN	329	6	14	1	121	221	321	NaN	521	0.0104117738083005	1	1	NaN	3351199.2509777	NaN	3351200.2343691	3351200.75092303
102	18	0	0	90	36.1581920903955	36.241610738255	19	0.633390536140651	2	11	3	NaN	2	4	0.0884714403412524	1	1	NaN	330	6	15	1	121	221	321	NaN	521	1.56928782584146	2	1	NaN	3351201.5844389	NaN	3351202.5679471	3351203.08449287
102	18	0	0	90	36.1581920903955	36.241610738255	14	0.466708816103637	2	3	3	NaN	1	3	0.0884714403412524	1	1	NaN	331	6	16	1	121	221	321	NaN	521	0.0104337213560939	1	1	NaN	3351205.4682747	NaN	3351206.4515419	3351206.96820188
102	18	0	0	90	36.1581920903955	36.241610738255	12	0.400036128088832	2	8	1	NaN	2	5	0.0884714403412524	1	1	NaN	332	6	17	1	121	221	321	NaN	521	0.976960573811084	2	1	NaN	3351207.7851455	NaN	3351208.7685294	3351209.28509733
102	18	0	0	90	36.1581920903955	36.241610738255	15	0.50004516011104	2	11	4	NaN	2	5	0.0884714403412524	1	1	NaN	333	6	18	1	121	221	321	NaN	521	0.180589108262211	2	1	NaN	3351211.085466	NaN	3351212.0688676	3351212.58541229
102	18	0	0	90	36.1581920903955	36.241610738255	20	0.666726880148053	2	7	5	NaN	2	4	0.0884714403412524	1	1	NaN	334	6	19	1	121	221	321	NaN	521	0.136025725863874	2	1	NaN	3351213.5855957	NaN	3351214.5691263	3351215.08566607
102	18	0	0	90	36.1581920903955	36.241610738255	24	0.800072256177664	2	12	1	NaN	2	5	0.0884714403412524	1	1	NaN	335	6	20	1	121	221	321	NaN	521	0.230172977782786	2	1	NaN	3351216.0359759	NaN	3351217.019384	3351217.53591322
102	18	0	0	90	36.1581920903955	36.241610738255	8	0.266690752059221	2	11	4	NaN	2	3	0.0884714403412524	1	1	NaN	336	6	21	1	121	221	321	NaN	521	0.0103898257948458	2	1	NaN	3351218.586244	NaN	3351219.56961	3351220.08618057
102	18	0	0	90	36.1581920903955	36.241610738255	20	0.666726880148053	2	9	4	NaN	2	5	0.0884714403412524	1	1	NaN	337	6	22	1	121	221	321	NaN	521	0.0104151256382465	2	1	NaN	3351220.90311	NaN	3351221.8865083	3351222.40304647
102	18	0	0	90	36.1581920903955	36.241610738255	16	0.533381504118443	2	9	6	NaN	2	3	0.0884714403412524	1	1	NaN	338	6	23	1	121	221	321	NaN	521	0.0104086734354496	2	1	NaN	3351223.2366682	NaN	3351224.2200716	3351224.73661583
102	18	0	0	90	36.1581920903955	36.241610738255	11	0.366699784081429	2	10	3	NaN	2	3	0.0884714403412524	1	1	NaN	339	6	24	1	121	221	321	NaN	521	2.9434336735867	1	0	NaN	3351225.5702254	NaN	3351226.553614	3351227.07018013
102	18	0	0	90	36.1581920903955	36.241610738255	0	0	1	9	2	NaN	2	4	0.0884714403412524	1	1	NaN	340	6	25	1	111	211	311	NaN	511	0.0105140125378966	2	1	NaN	3351230.8207453	NaN	3351231.8041452	3351232.32068419
102	18	0	0	90	36.1581920903955	36.241610738255	19	0.633390536140651	2	1	3	NaN	1	3	0.0884714403412524	1	1	NaN	341	6	26	1	121	221	321	NaN	521	0.0104077737778425	1	1	NaN	3351233.1376376	NaN	3351234.1210302	3351234.63759373
102	18	0	0	90	36.1581920903955	36.241610738255	11	0.366699784081429	2	7	1	NaN	2	5	0.0884714403412524	1	1	NaN	342	6	27	1	121	221	321	NaN	521	0.0103649301454425	2	1	NaN	3351235.4545398	NaN	3351236.4379342	3351236.95448797
102	18	0	0	90	36.1581920903955	36.241610738255	20	0.666726880148053	2	12	3	NaN	2	4	0.0884714403412524	1	1	NaN	343	6	28	1	121	221	321	NaN	521	0.0104083735495806	2	1	NaN	3351237.7714219	NaN	3351238.7548298	3351239.27137143
102	18	0	0	90	36.1581920903955	36.241610738255	20	0.666726880148053	2	4	5	NaN	1	5	0.0884714403412524	1	1	NaN	344	6	29	1	121	221	321	NaN	521	0.0102520957589149	1	1	NaN	3351240.0882067	NaN	3351241.0717232	3351241.5882846
102	18	0	0	90	36.1581920903955	36.241610738255	14	0.466708816103637	2	2	4	NaN	1	4	0.0884714403412524	1	1	NaN	345	6	30	1	121	221	321	NaN	521	0.0104222213849425	1	1	NaN	3351242.4052142	NaN	3351243.3886094	3351243.90517028
102	18	0	0	90	36.1581920903955	36.241610738255	6	0.200018064044416	2	4	5	NaN	1	5	0.0884714403412524	1	1	NaN	346	6	31	1	121	221	321	NaN	521	0.991603326052427	1	1	NaN	3351244.7221036	NaN	3351245.7055266	3351246.22206717
102	18	0	0	90	36.1581920903955	36.241610738255	20	0.666726880148053	2	11	6	NaN	2	3	0.0884714403412524	1	1	NaN	347	6	32	1	121	221	321	NaN	521	0.0104070738889277	2	1	NaN	3351248.0224319	NaN	3351249.0058402	3351249.52238383
102	18	0	0	90	36.1581920903955	36.241610738255	10	0.333363440074027	2	9	3	NaN	2	3	0.0884714403412524	1	1	NaN	348	6	33	1	121	221	321	NaN	521	0.0103942258283496	2	1	NaN	3351250.3392349	NaN	3351251.3227348	3351251.83928427
102	18	0	0	90	36.1581920903955	36.241610738255	14	0.466708816103637	2	4	3	NaN	1	3	0.0884714403412524	1	1	NaN	349	6	34	1	121	221	321	NaN	521	0.961280421819538	1	1	NaN	3351252.6728844	NaN	3351253.6562839	3351254.17284128
102	18	0	0	90	36.1581920903955	36.241610738255	25	0.833408600185066	2	11	4	NaN	2	3	0.0884714403412524	1	1	NaN	350	6	35	1	121	221	321	NaN	521	0.181912173517048	2	1	NaN	3351255.9399251	NaN	3351256.9232781	3351257.43982273
102	18	0	0	90	36.1581920903955	36.241610738255	25	0.833408600185066	2	4	5	NaN	1	4	0.0884714403412524	1	1	NaN	351	6	36	1	121	221	321	NaN	521	0.010409873444587	1	1	NaN	3351258.4401095	NaN	3351259.4235255	3351259.94007463
102	18	0	0	90	36.1581920903955	36.241610738255	21	0.700063224155456	2	9	1	NaN	2	3	0.0884714403412524	1	1	NaN	352	6	37	1	121	221	321	NaN	521	0.100221725646406	2	1	NaN	3351260.7737165	NaN	3351261.7570874	3351262.27364087
102	18	0	0	90	36.1581920903955	36.241610738255	23	0.766735912170261	2	10	4	NaN	2	4	0.0884714403412524	1	1	NaN	353	6	38	1	121	221	321	NaN	521	0.395166130270809	2	1	NaN	3351263.190586	NaN	3351264.174004	3351264.69054197
102	18	0	0	90	36.1581920903955	36.241610738255	7	0.233354408051819	2	2	5	NaN	1	3	0.0884714403412524	1	1	NaN	354	6	39	1	121	221	321	NaN	521	0.0104133738204837	1	1	NaN	3351265.9074895	NaN	3351266.8909253	3351267.40747763
102	18	0	0	90	36.1581920903955	36.241610738255	23	0.766735912170261	2	11	6	NaN	2	5	0.0884714403412524	1	1	NaN	355	6	40	1	121	221	321	NaN	521	0.0175634738989174	2	1	NaN	3351268.2244211	NaN	3351269.2078141	3351269.72437013
102	18	0	0	90	36.1581920903955	36.241610738255	13	0.433372472096235	2	2	2	NaN	1	5	0.0884714403412524	1	1	NaN	356	6	41	1	121	221	321	NaN	521	1.47578772576526	1	1	NaN	3351270.5579918	NaN	3351271.5413885	3351272.05793167
102	18	0	0	90	36.1581920903955	36.241610738255	8	0.266690752059221	2	10	1	NaN	2	3	0.0884714403412524	1	1	NaN	357	6	42	1	121	221	321	NaN	521	1.19662797357887	2	1	NaN	3351274.3416943	NaN	3351275.3249805	3351275.84164133
102	18	0	0	90	36.1581920903955	36.241610738255	13	0.433372472096235	2	10	2	NaN	2	5	0.0884714403412524	1	1	NaN	358	6	43	1	121	221	321	NaN	521	0.223450825549662	2	1	NaN	3351277.8586948	NaN	3351278.8420911	3351279.35864647
102	18	0	0	90	36.1581920903955	36.241610738255	20	0.666726880148053	2	8	6	NaN	2	5	0.0884714403412524	1	1	NaN	359	6	44	1	121	221	321	NaN	521	0.137722573708743	2	1	NaN	3351280.3921808	NaN	3351281.375677	3351281.89223243
102	18	0	0	90	36.1581920903955	36.241610738255	21	0.700063224155456	2	3	3	NaN	1	3	0.0884714403412524	1	1	NaN	360	6	45	1	121	221	321	NaN	521	0.255541325546801	1	1	NaN	3351282.8426119	NaN	3351283.8259341	3351284.34247587
102	18	0	0	90	36.1581920903955	36.241610738255	6	0.200018064044416	2	5	2	NaN	1	4	0.0884714403412524	1	1	NaN	361	6	46	1	121	221	321	NaN	521	0.0104060736484826	1	1	NaN	3351285.4093619	NaN	3351286.3928471	3351286.90939413
102	18	0	0	90	36.1581920903955	36.241610738255	18	0.600054192133248	2	9	4	NaN	2	3	0.0884714403412524	1	1	NaN	362	6	47	1	121	221	321	NaN	521	0.0103999259881675	2	1	NaN	3351287.7263308	NaN	3351288.7097403	3351289.22629407
102	18	0	0	90	36.1581920903955	36.241610738255	9	0.300027096066624	2	1	1	NaN	1	3	0.0884714403412524	1	1	NaN	363	6	48	1	121	221	321	NaN	521	1.09468797408044	1	1	NaN	3351290.0432267	NaN	3351291.0266215	3351291.54317563
102	18	0	0	90	36.1581920903955	36.241610738255	17	0.566717848125845	2	2	1	NaN	1	5	0.0884714403412524	1	1	NaN	364	6	49	1	121	221	321	NaN	521	0.0456325737759471	1	1	NaN	3351293.4602279	NaN	3351294.4436343	3351294.96018493
102	18	0	0	90	36.1581920903955	36.241610738255	15	0.50004516011104	2	10	1	NaN	2	5	0.0884714403412524	1	1	NaN	365	6	50	1	121	221	321	NaN	521	0.0104249217547476	2	1	NaN	3351295.8271625	NaN	3351296.8104457	3351297.32708448
102	18	0	0	90	36.1581920903955	36.241610738255	18	0.600054192133248	2	7	2	NaN	2	5	0.0884714403412524	1	1	NaN	366	6	51	1	121	221	321	NaN	521	0.0104056256823242	2	1	NaN	3351298.1440101	NaN	3351299.1274273	3351299.64398167
102	18	0	0	90	36.1581920903955	36.241610738255	19	0.633390536140651	2	6	6	NaN	1	3	0.0884714403412524	1	1	NaN	367	6	52	1	121	221	321	NaN	521	0.0104081737808883	1	1	NaN	3351300.4775825	NaN	3351301.4609947	3351301.97754293
102	18	0	0	90	36.1581920903955	36.241610738255	10	0.333363440074027	2	7	3	NaN	2	4	0.0884714403412524	1	1	NaN	368	6	53	1	121	221	321	NaN	521	0.0871721738949418	2	1	NaN	3351302.7944816	NaN	3351303.7778831	3351304.29442863
102	18	0	0	90	36.1581920903955	36.241610738255	17	0.566717848125845	2	12	1	NaN	2	3	0.0884714403412524	1	1	NaN	369	6	54	1	121	221	321	NaN	521	0.255113721359521	2	1	NaN	3351305.5947406	NaN	3351306.578154	3351307.09470658
102	18	0	0	90	36.1581920903955	36.241610738255	10	0.333363440074027	2	3	2	NaN	1	5	0.0884714403412524	1	1	NaN	370	6	55	1	121	221	321	NaN	521	0.918910725507885	1	1	NaN	3351308.3950048	NaN	3351309.3784441	3351309.89500827
102	18	0	0	90	36.1581920903955	36.241610738255	10	0.333363440074027	2	8	3	NaN	2	5	0.0884714403412524	1	1	NaN	371	6	56	1	121	221	321	NaN	521	0.325276043266058	2	1	NaN	3351311.6286976	NaN	3351312.6120831	3351313.12864326
102	18	0	0	90	36.1581920903955	36.241610738255	23	0.766735912170261	2	9	5	NaN	2	5	0.0884714403412524	1	1	NaN	372	6	57	1	121	221	321	NaN	521	0.691573973745108	2	1	NaN	3351314.2621965	NaN	3351315.2456792	3351315.76222823
102	18	0	0	90	36.1581920903955	36.241610738255	16	0.533381504118443	2	1	1	NaN	1	4	0.0884714403412524	1	1	NaN	373	6	58	1	121	221	321	NaN	521	0.027514673769474	1	1	NaN	3351317.2625519	NaN	3351318.2459661	3351318.76252203
102	18	0	0	90	36.1581920903955	36.241610738255	12	0.400036128088832	2	6	4	NaN	1	5	0.0884714403412524	1	1	NaN	374	6	59	1	121	221	321	NaN	521	0.0934677259065211	1	1	NaN	3351319.6128086	NaN	3351320.5962099	3351321.11275507
102	18	0	0	90	36.1581920903955	36.241610738255	9	0.300027096066624	2	3	4	NaN	1	3	0.0884714403412524	1	1	NaN	375	6	60	1	121	221	321	NaN	521	0.0104070738889277	1	1	NaN	3351322.0297129	NaN	3351323.0131015	3351323.52965653
102	18	0	0	90	36.1581920903955	36.241610738255	18	0.600054192133248	2	9	2	NaN	2	5	0.0884714403412524	1	1	NaN	376	6	61	1	121	221	321	NaN	521	1.58331522578374	2	1	NaN	3351324.3466075	NaN	3351325.330002	3351325.84655647
102	18	0	0	90	36.1581920903955	36.241610738255	10	0.333363440074027	2	3	6	NaN	1	3	0.0884714403412524	1	1	NaN	377	6	62	1	121	221	321	NaN	521	0.539434273727238	1	1	NaN	3351328.2469833	NaN	3351329.2303875	3351329.74694153
102	18	0	0	90	36.1581920903955	36.241610738255	21	0.700063224155456	2	5	5	NaN	1	5	0.0884714403412524	1	1	NaN	378	6	63	1	121	221	321	NaN	521	0.0104269259609282	1	1	NaN	3351331.097217	NaN	3351332.0806692	3351332.59722267
102	18	0	0	90	36.1581920903955	36.241610738255	11	0.366699784081429	2	8	3	NaN	2	5	0.0884714403412524	1	1	NaN	379	7	1	1	121	221	321	NaN	521	0.0104012256488204	2	1	NaN	3351337.7645948	NaN	3351338.7479758	3351339.26454117
102	18	0	0	90	36.1581920903955	36.241610738255	23	0.766735912170261	2	11	5	NaN	2	3	0.0884714403412524	1	1	NaN	380	7	2	1	121	221	321	NaN	521	0.143753073643893	2	1	NaN	3351340.0981662	NaN	3351341.0815487	3351341.59809993
102	18	0	0	90	36.1581920903955	36.241610738255	12	0.400036128088832	2	11	2	NaN	2	4	0.0884714403412524	1	1	NaN	381	7	3	1	121	221	321	NaN	521	0.0104097737930715	2	1	NaN	3351342.5483844	NaN	3351343.5317949	3351344.04833523
102	18	0	0	90	36.1581920903955	36.241610738255	22	0.733399568162858	2	4	1	NaN	1	5	0.0884714403412524	1	1	NaN	382	7	4	1	121	221	321	NaN	521	0.0104093733243644	1	1	NaN	3351344.8652987	NaN	3351345.848668	3351346.36523743
102	18	0	0	90	36.1581920903955	36.241610738255	8	0.266690752059221	2	11	1	NaN	2	3	0.0884714403412524	1	1	NaN	383	7	5	1	121	221	321	NaN	521	1.32347432570532	2	1	NaN	3351347.1988419	NaN	3351348.1822438	3351348.69880117
102	18	0	0	90	36.1581920903955	36.241610738255	25	0.833408600185066	2	7	1	NaN	2	4	0.0884714403412524	1	1	NaN	384	7	6	1	121	221	321	NaN	521	0.010534156113863	2	1	NaN	3351350.8324082	NaN	3351351.815932	3351352.33248314
102	18	0	0	90	36.1581920903955	36.241610738255	6	0.200018064044416	2	2	1	NaN	1	4	0.0884714403412524	1	1	NaN	385	7	7	1	121	221	321	NaN	521	0.010391425807029	1	1	NaN	3351353.1660891	NaN	3351354.1495545	3351354.66605567
102	18	0	0	90	36.1581920903955	36.241610738255	22	0.733399568162858	2	5	6	NaN	1	5	0.0884714403412524	1	1	NaN	386	7	8	1	121	221	321	NaN	521	0.0104224737733603	1	1	NaN	3351355.4996447	NaN	3351356.4830631	3351356.99961583
102	18	0	0	90	36.1581920903955	36.241610738255	8	0.266690752059221	2	6	4	NaN	1	5	0.0884714403412524	1	1	NaN	387	7	9	1	121	221	321	NaN	521	0.0103985257446766	1	1	NaN	3351357.8165575	NaN	3351358.7999608	3351359.31651157
102	18	0	0	90	36.1581920903955	36.241610738255	23	0.766735912170261	2	5	4	NaN	1	4	0.0884714403412524	1	1	NaN	388	7	10	1	121	221	321	NaN	521	0.0104116736911237	1	1	NaN	3351360.1334627	NaN	3351361.1168901	3351361.63340553
102	18	0	0	90	36.1581920903955	36.241610738255	9	0.300027096066624	2	4	6	NaN	1	4	0.0884714403412524	1	1	NaN	389	7	11	1	121	221	321	NaN	521	0.0104136737063527	1	1	NaN	3351362.4502239	NaN	3351363.433741	3351363.95029653
102	18	0	0	90	36.1581920903955	36.241610738255	20	0.666726880148053	2	3	4	NaN	1	4	0.0884714403412524	1	1	NaN	390	7	12	1	121	221	321	NaN	521	0.0104195736348629	1	1	NaN	3351364.7673449	NaN	3351365.7506258	3351366.26719603
102	18	0	0	90	36.1581920903955	36.241610738255	15	0.50004516011104	2	12	4	NaN	2	3	0.0884714403412524	1	1	NaN	391	7	13	1	121	221	321	NaN	521	0.0103939259424806	2	1	NaN	3351367.0841716	NaN	3351368.0675408	3351368.58409217
102	18	0	0	90	36.1581920903955	36.241610738255	0	0	1	8	2	NaN	2	4	0.0884714403412524	1	1	NaN	392	7	14	1	111	211	311	NaN	511	1.05521427374333	2	1	NaN	3351369.4509617	NaN	3351370.4344265	3351370.95098323
102	18	0	0	90	36.1581920903955	36.241610738255	10	0.333363440074027	2	1	5	NaN	1	5	0.0884714403412524	1	1	NaN	393	7	15	1	121	221	321	NaN	521	0.0400660438463092	1	1	NaN	3351372.8180902	NaN	3351373.8014422	3351374.31799326
102	18	0	0	90	36.1581920903955	36.241610738255	6	0.200018064044416	2	5	3	NaN	1	3	0.0884714403412524	1	1	NaN	394	7	16	1	121	221	321	NaN	521	0.0104017737321556	1	1	NaN	3351375.1681396	NaN	3351376.1516586	3351376.66821323
102	18	0	0	90	36.1581920903955	36.241610738255	18	0.600054192133248	2	2	6	NaN	1	5	0.0884714403412524	1	1	NaN	395	7	17	1	121	221	321	NaN	521	0.0104039260186255	1	1	NaN	3351377.4850535	NaN	3351378.4685663	3351378.98510987
102	18	0	0	90	36.1581920903955	36.241610738255	0	0	1	2	2	NaN	1	5	0.0884714403412524	1	1	NaN	396	7	18	1	111	211	311	NaN	511	0.0103919259272516	1	1	NaN	3351379.8020574	NaN	3351380.7854902	3351381.30200507
102	18	0	0	90	36.1581920903955	36.241610738255	21	0.700063224155456	2	8	6	NaN	2	5	0.0884714403412524	1	1	NaN	397	7	19	1	121	221	321	NaN	521	0.0103771779686213	2	1	NaN	3351382.1188243	NaN	3351383.1023375	3351383.61889722
102	18	0	0	90	36.1581920903955	36.241610738255	14	0.466708816103637	2	6	1	NaN	1	4	0.0884714403412524	1	1	NaN	398	7	20	1	121	221	321	NaN	521	1.20627047354355	1	1	NaN	3351384.4358489	NaN	3351385.4192249	3351385.93579653
102	18	0	0	90	36.1581920903955	36.241610738255	17	0.566717848125845	2	6	2	NaN	1	5	0.0884714403412524	1	1	NaN	399	7	21	1	121	221	321	NaN	521	0.161323525942862	2	0	NaN	3351387.9527744	NaN	3351388.9362591	3351389.45281877
102	18	0	0	90	36.1581920903955	36.241610738255	10	0.333363440074027	2	2	5	NaN	1	5	0.0884714403412524	1	1	NaN	400	7	22	1	121	221	321	NaN	521	0.0104122739285231	1	1	NaN	3351390.4197639	NaN	3351391.4031511	3351391.91971173
102	18	0	0	90	36.1581920903955	36.241610738255	25	0.833408600185066	2	8	6	NaN	2	4	0.0884714403412524	1	1	NaN	401	7	23	1	121	221	321	NaN	521	0.104869473725557	2	1	NaN	3351392.7533289	NaN	3351393.7367312	3351394.25326933
102	18	0	0	90	36.1581920903955	36.241610738255	7	0.233354408051819	2	1	3	NaN	1	4	0.0884714403412524	1	1	NaN	402	7	24	1	121	221	321	NaN	521	0.0104143740609288	1	1	NaN	3351395.1702289	NaN	3351396.153622	3351396.67017973
102	18	0	0	90	36.1581920903955	36.241610738255	0	0	1	4	2	NaN	1	5	0.0884714403412524	1	1	NaN	403	7	25	1	111	211	311	NaN	511	0.0583230257034302	1	1	NaN	3351397.5037987	NaN	3351398.4871991	3351399.00375007
102	18	0	0	90	36.1581920903955	36.241610738255	18	0.600054192133248	2	8	6	NaN	2	4	0.0884714403412524	1	1	NaN	404	7	26	1	121	221	321	NaN	521	0.0104078738950193	2	1	NaN	3351399.8706995	NaN	3351400.8540969	3351401.37064453
102	18	0	0	90	36.1581920903955	36.241610738255	20	0.666726880148053	2	8	2	NaN	2	3	0.0884714403412524	1	1	NaN	405	7	27	1	121	221	321	NaN	521	1.05381610011682	2	1	NaN	3351402.20423	NaN	3351403.1876592	3351403.7042035
102	18	0	0	90	36.1581920903955	36.241610738255	0	0	1	1	5	NaN	1	4	0.0884714403412524	1	1	NaN	406	7	28	1	111	211	311	NaN	511	0.0104005257599056	1	1	NaN	3351405.5711198	NaN	3351406.5547227	3351407.07120557
102	18	0	0	90	36.1581920903955	36.241610738255	17	0.566717848125845	2	7	5	NaN	2	3	0.0884714403412524	1	1	NaN	407	7	29	1	121	221	321	NaN	521	0.466186925768852	2	1	NaN	3351407.8882043	NaN	3351408.8715426	3351409.38809787
102	18	0	0	90	36.1581920903955	36.241610738255	0	0	1	7	2	NaN	2	5	0.0884714403412524	1	1	NaN	408	7	30	1	111	211	311	NaN	511	0.594701178371906	2	1	NaN	3351410.6717577	NaN	3351411.6551931	3351412.17170962
102	18	0	0	90	36.1581920903955	36.241610738255	22	0.733399568162858	2	5	5	NaN	1	3	0.0884714403412524	1	1	NaN	409	7	31	1	121	221	321	NaN	521	0.0103929257020354	1	1	NaN	3351413.5720457	NaN	3351414.5554501	3351415.07199527
102	18	0	0	90	36.1581920903955	36.241610738255	7	0.233354408051819	2	3	1	NaN	1	5	0.0884714403412524	1	1	NaN	410	7	32	1	121	221	321	NaN	521	0.825235525611788	1	1	NaN	3351415.888835	NaN	3351416.8723343	3351417.38888827
102	18	0	0	90	36.1581920903955	36.241610738255	18	0.600054192133248	2	4	4	NaN	1	5	0.0884714403412524	1	1	NaN	411	7	33	1	121	221	321	NaN	521	1.18740937393159	1	1	NaN	3351419.022567	NaN	3351420.0059683	3351420.52252483
102	18	0	0	90	36.1581920903955	36.241610738255	11	0.366699784081429	2	1	2	NaN	1	4	0.0884714403412524	1	1	NaN	412	7	34	1	121	221	321	NaN	521	1.7275561215356	1	1	NaN	3351422.5229117	NaN	3351423.5063261	3351424.02287118
102	18	0	0	90	36.1581920903955	36.241610738255	8	0.266690752059221	2	8	6	NaN	2	4	0.0884714403412524	1	1	NaN	413	7	35	1	121	221	321	NaN	521	0.0103966258466244	2	1	NaN	3351426.55663	NaN	3351427.5400734	3351428.05659447
102	18	0	0	90	36.1581920903955	36.241610738255	19	0.633390536140651	2	12	5	NaN	2	5	0.0884714403412524	1	1	NaN	414	7	36	1	121	221	321	NaN	521	0.823866126127541	2	1	NaN	3351428.890211	NaN	3351429.8736026	3351430.39016677
102	18	0	0	90	36.1581920903955	36.241610738255	24	0.800072256177664	2	1	3	NaN	1	5	0.0884714403412524	1	1	NaN	415	7	37	1	121	221	321	NaN	521	0.0104019260033965	1	1	NaN	3351432.0237172	NaN	3351433.007254	3351433.52380367
102	18	0	0	90	36.1581920903955	36.241610738255	13	0.433372472096235	2	7	6	NaN	2	5	0.0884714403412524	1	1	NaN	416	7	38	1	121	221	321	NaN	521	1.16477017337456	2	1	NaN	3351434.3574196	NaN	3351435.3408097	3351435.85736333
102	18	0	0	90	36.1581920903955	36.241610738255	14	0.466708816103637	2	5	3	NaN	1	3	0.0884714403412524	1	1	NaN	417	7	39	1	121	221	321	NaN	521	2.12099252548069	1	1	NaN	3351437.841083	NaN	3351438.8244892	3351439.34104007
102	18	0	0	90	36.1581920903955	36.241610738255	21	0.700063224155456	2	12	4	NaN	2	3	0.0884714403412524	1	1	NaN	418	7	40	1	121	221	321	NaN	521	0.831581168808043	2	1	NaN	3351442.2748714	NaN	3351443.2582706	3351443.77480683
102	18	0	0	90	36.1581920903955	36.241610738255	14	0.466708816103637	2	1	1	NaN	1	3	0.0884714403412524	1	1	NaN	419	7	41	1	121	221	321	NaN	521	1.40899277338758	1	1	NaN	3351445.4251649	NaN	3351446.4085756	3351446.92512653
102	18	0	0	90	36.1581920903955	36.241610738255	8	0.266690752059221	2	1	2	NaN	1	5	0.0884714403412524	1	1	NaN	420	7	42	1	121	221	321	NaN	521	0.0104034733958542	1	1	NaN	3351449.1421966	NaN	3351450.1255897	3351450.64215013
102	18	0	0	90	36.1581920903955	36.241610738255	16	0.533381504118443	2	8	4	NaN	2	4	0.0884714403412524	1	1	NaN	421	7	43	1	121	221	321	NaN	521	0.0103862779214978	2	1	NaN	3351451.4757627	NaN	3351452.4591686	3351452.97572002
102	18	0	0	90	36.1581920903955	36.241610738255	20	0.666726880148053	2	5	1	NaN	1	3	0.0884714403412524	1	1	NaN	422	7	44	1	121	221	321	NaN	521	1.17709466908127	1	1	NaN	3351453.8093392	NaN	3351454.7927177	3351455.30928043
102	18	0	0	90	36.1581920903955	36.241610738255	18	0.600054192133248	2	1	2	NaN	1	3	0.0884714403412524	1	1	NaN	423	7	45	1	121	221	321	NaN	521	0.573371738661081	1	1	NaN	3351457.2929941	NaN	3351458.2764117	3351458.79296376
102	18	0	0	90	36.1581920903955	36.241610738255	18	0.600054192133248	2	2	3	NaN	1	5	0.0884714403412524	1	1	NaN	424	7	46	1	121	221	321	NaN	521	0.0104056736454368	1	1	NaN	3351460.1765069	NaN	3351461.1600059	3351461.67657183
102	18	0	0	90	36.1581920903955	36.241610738255	22	0.733399568162858	2	11	3	NaN	2	3	0.0884714403412524	1	1	NaN	425	7	47	1	121	221	321	NaN	521	0.0104411686770618	2	1	NaN	3351462.4935139	NaN	3351463.4769228	3351463.99347503
102	18	0	0	90	36.1581920903955	36.241610738255	9	0.300027096066624	2	3	6	NaN	1	5	0.0884714403412524	1	1	NaN	426	7	48	1	121	221	321	NaN	521	0.0103946258313954	1	1	NaN	3351464.8103117	NaN	3351465.7938148	3351466.31036347
102	18	0	0	90	36.1581920903955	36.241610738255	15	0.50004516011104	2	5	5	NaN	1	3	0.0884714403412524	1	1	NaN	427	7	49	1	121	221	321	NaN	521	0.0103641306050122	1	1	NaN	3351467.1439807	NaN	3351468.1273802	3351468.64392887
102	18	0	0	90	36.1581920903955	36.241610738255	25	0.833408600185066	2	6	4	NaN	1	5	0.0884714403412524	1	1	NaN	428	7	50	1	121	221	321	NaN	521	0.0104221738874912	1	1	NaN	3351469.4608737	NaN	3351470.4442601	3351470.96081123
102	18	0	0	90	36.1581920903955	36.241610738255	9	0.300027096066624	2	8	6	NaN	2	4	0.0884714403412524	1	1	NaN	429	7	51	1	121	221	321	NaN	521	0.0103952260687947	2	1	NaN	3351471.7777649	NaN	3351472.7611613	3351473.27771527
102	18	0	0	90	36.1581920903955	36.241610738255	11	0.366699784081429	2	4	2	NaN	1	3	0.0884714403412524	1	1	NaN	430	7	52	1	121	221	321	NaN	521	2.70778202591464	1	1	NaN	3351474.0946573	NaN	3351475.0780548	3351475.59461047
102	18	0	0	90	36.1581920903955	36.241610738255	16	0.533381504118443	2	5	1	NaN	1	3	0.0884714403412524	1	1	NaN	431	7	53	1	121	221	321	NaN	521	0.0102701433934271	1	1	NaN	3351479.1118215	NaN	3351480.0952196	3351480.61178656
102	18	0	0	90	36.1581920903955	36.241610738255	20	0.666726880148053	2	6	1	NaN	1	5	0.0884714403412524	1	1	NaN	432	7	54	1	121	221	321	NaN	521	0.516708721872419	1	1	NaN	3351481.4453656	NaN	3351482.4287761	3351482.94532138
102	18	0	0	90	36.1581920903955	36.241610738255	22	0.733399568162858	2	12	4	NaN	2	3	0.0884714403412524	1	1	NaN	433	7	55	1	121	221	321	NaN	521	0.995547473430634	2	1	NaN	3351484.2790049	NaN	3351485.2623859	3351485.77893143
102	18	0	0	90	36.1581920903955	36.241610738255	9	0.300027096066624	2	7	1	NaN	2	4	0.0884714403412524	1	1	NaN	434	7	56	1	121	221	321	NaN	521	0.022288825828582	2	1	NaN	3351487.5959781	NaN	3351488.5793672	3351489.09593537
102	18	0	0	90	36.1581920903955	36.241610738255	12	0.400036128088832	2	2	3	NaN	1	4	0.0884714403412524	1	1	NaN	435	7	57	1	121	221	321	NaN	521	1.09701902605593	1	1	NaN	3351489.929657	NaN	3351490.9129494	3351491.42949967
102	18	0	0	90	36.1581920903955	36.241610738255	23	0.766735912170261	2	1	4	NaN	1	4	0.0884714403412524	1	1	NaN	436	7	58	1	121	221	321	NaN	521	0.0317178913392127	1	1	NaN	3351493.346601	NaN	3351494.3299725	3351494.84650651
102	18	0	0	90	36.1581920903955	36.241610738255	12	0.400036128088832	2	7	4	NaN	2	4	0.0884714403412524	1	1	NaN	437	7	59	1	121	221	321	NaN	521	1.46571742556989	2	1	NaN	3351495.6967671	NaN	3351496.6800787	3351497.19672877
102	18	0	0	90	36.1581920903955	36.241610738255	24	0.800072256177664	2	2	3	NaN	1	5	0.0884714403412524	1	1	NaN	438	7	60	1	121	221	321	NaN	521	0.458022025879472	1	1	NaN	3351499.480475	NaN	3351500.4638662	3351500.98042587
102	18	0	0	90	36.1581920903955	36.241610738255	21	0.700063224155456	2	8	1	NaN	2	5	0.0884714403412524	1	1	NaN	439	7	61	1	121	221	321	NaN	521	0.0103990258648992	2	1	NaN	3351502.247426	NaN	3351503.230846	3351503.74737157
102	18	0	0	90	36.1581920903955	36.241610738255	25	0.833408600185066	2	10	6	NaN	2	4	0.0884714403412524	1	1	NaN	440	7	62	1	121	221	321	NaN	521	0.0104260216467083	2	1	NaN	3351504.5642914	NaN	3351505.5476046	3351506.06425848
102	18	0	0	90	36.1581920903955	36.241610738255	18	0.600054192133248	2	7	3	NaN	2	3	0.0884714403412524	1	1	NaN	441	7	63	1	121	221	321	NaN	521	0.90506452601403	2	1	NaN	3351506.8812474	NaN	3351507.8646044	3351508.38116427
102	18	0	0	90	36.1581920903955	36.241610738255	18	0.600054192133248	2	10	3	NaN	2	3	0.0884714403412524	1	1	NaN	442	8	1	1	121	221	321	NaN	521	0.728619425557554	2	1	NaN	3351513.6818934	NaN	3351514.6652755	3351515.18182737
102	18	0	0	90	36.1581920903955	36.241610738255	10	0.333363440074027	2	10	6	NaN	2	3	0.0884714403412524	1	1	NaN	443	8	2	1	121	221	321	NaN	521	0.0103945257142186	2	1	NaN	3351516.7321677	NaN	3351517.7154638	3351518.23213057
102	18	0	0	90	36.1581920903955	36.241610738255	6	0.200018064044416	2	10	3	NaN	2	5	0.0884714403412524	1	1	NaN	444	8	3	1	121	221	321	NaN	521	0.0103976256214082	2	1	NaN	3351519.0490689	NaN	3351520.0324788	3351520.54902727
102	18	0	0	90	36.1581920903955	36.241610738255	14	0.466708816103637	2	12	5	NaN	2	3	0.0884714403412524	1	1	NaN	445	8	4	1	121	221	321	NaN	521	0.0104295215569437	2	1	NaN	3351521.3659596	NaN	3351522.3493946	3351522.86591768
102	18	0	0	90	36.1581920903955	36.241610738255	21	0.700063224155456	2	11	6	NaN	2	4	0.0884714403412524	1	1	NaN	446	8	5	1	121	221	321	NaN	521	0.0104087740182877	2	1	NaN	3351523.6828767	NaN	3351524.6662587	3351525.18280833
102	18	0	0	90	36.1581920903955	36.241610738255	17	0.566717848125845	2	5	2	NaN	1	3	0.0884714403412524	1	1	NaN	447	8	6	1	121	221	321	NaN	521	0.0103998258709908	1	1	NaN	3351525.9997504	NaN	3351526.9831485	3351527.49971157
102	18	0	0	90	36.1581920903955	36.241610738255	21	0.700063224155456	2	11	2	NaN	2	5	0.0884714403412524	1	1	NaN	448	8	7	1	121	221	321	NaN	521	0.0103938258253038	2	1	NaN	3351528.3165451	NaN	3351529.29995	3351529.81660517
102	18	0	0	90	36.1581920903955	36.241610738255	7	0.233354408051819	2	10	5	NaN	2	4	0.0884714403412524	1	1	NaN	449	8	8	1	121	221	321	NaN	521	0.0103830778971314	2	1	NaN	3351530.633566	NaN	3351531.6169302	3351532.13350022
102	18	0	0	90	36.1581920903955	36.241610738255	21	0.700063224155456	2	2	4	NaN	1	3	0.0884714403412524	1	1	NaN	450	8	9	1	121	221	321	NaN	521	0.0103940260596573	1	1	NaN	3351532.9504344	NaN	3351533.9338402	3351534.45038747
102	18	0	0	90	36.1581920903955	36.241610738255	18	0.600054192133248	2	3	2	NaN	1	4	0.0884714403412524	1	1	NaN	451	8	10	1	121	221	321	NaN	521	0.0104149738326669	1	1	NaN	3351535.2839943	NaN	3351536.2673974	3351536.78394653
102	18	0	0	90	36.1581920903955	36.241610738255	19	0.633390536140651	2	4	4	NaN	1	4	0.0884714403412524	1	1	NaN	452	8	11	1	121	221	321	NaN	521	0.0104135735891759	1	1	NaN	3351537.6009048	NaN	3351538.5842951	3351539.10083793
102	18	0	0	90	36.1581920903955	36.241610738255	8	0.266690752059221	2	12	3	NaN	2	4	0.0884714403412524	1	1	NaN	453	8	12	1	121	221	321	NaN	521	0.0102840913459659	2	1	NaN	3351539.9178574	NaN	3351540.9011823	3351541.41773961
102	18	0	0	90	36.1581920903955	36.241610738255	16	0.533381504118443	2	6	2	NaN	1	5	0.0884714403412524	1	1	NaN	454	8	13	1	121	221	321	NaN	521	0.0103886257857084	1	1	NaN	3351542.2346953	NaN	3351543.2180789	3351543.73463787
102	18	0	0	90	36.1581920903955	36.241610738255	18	0.600054192133248	2	5	3	NaN	1	3	0.0884714403412524	1	1	NaN	455	8	14	1	121	221	321	NaN	521	0.426990625914186	1	1	NaN	3351544.551671	NaN	3351545.5349722	3351546.05153097
