subjno	age	gender	isPractice	viewdist	CmToPixX	CmToPixY	SOA_frm	SOA_time	targNum	targID	targExample	targRace	targGender	firstTargPos	contrast	familiarity	curr_staircase	iStair	TrialNum	BlockNum	blktrl	sessionNum	TC_FIXATION	TC_RSVP_START	TC_RSVP_END	TC_BLANK	TC_RESPONSE_ONSET	RT2afc	resp_2afc	acc	RSVPOnsetVBL	RSVPOnsetTime	RSVPOffsetVBL	RSVPOffsetTime	startrt_2afc
106	19	0	0	90	36.1581920903955	36.241610738255	9	0.300029400084168	2	12	5	NaN	2	3	0.118274082371019	0	1	NaN	1	1	1	2	120	220	320	NaN	520	1.18668337864801	2	1	NaN	3724140.5193877	NaN	3724141.5029108	3724142.03607752
106	19	0	0	90	36.1581920903955	36.241610738255	20	0.666732000187039	2	12	1	NaN	2	4	0.118274082371019	0	1	NaN	2	1	2	2	120	220	320	NaN	520	0.875878875143826	1	0	NaN	3724144.0865086	NaN	3724145.0699106	3724145.60309012
106	19	0	0	90	36.1581920903955	36.241610738255	16	0.533385600149632	2	9	5	NaN	2	3	0.118274082371019	0	1	NaN	3	1	3	2	120	220	320	NaN	520	0.691412043292075	2	1	NaN	3724147.3034713	NaN	3724148.2868976	3724148.80340606
106	19	0	0	90	36.1581920903955	36.241610738255	13	0.433375800121576	2	12	1	NaN	2	3	0.118274082371019	0	1	NaN	4	1	4	2	120	220	320	NaN	520	1.67464057495818	2	1	NaN	3724150.3203215	NaN	3724151.303846	3724151.82036242
106	19	0	0	90	36.1581920903955	36.241610738255	25	0.833415000233799	2	9	4	NaN	2	4	0.118274082371019	0	1	NaN	5	1	5	2	120	220	320	NaN	520	0.594418139662594	2	1	NaN	3724154.3207398	NaN	3724155.304305	3724155.82076646
106	19	0	0	90	36.1581920903955	36.241610738255	11	0.366702600102872	2	3	6	NaN	1	4	0.118274082371019	0	1	NaN	6	1	6	2	120	220	320	NaN	520	2.11680662306026	2	0	NaN	3724157.2545527	NaN	3724158.2379726	3724158.75437998
106	19	0	0	90	36.1581920903955	36.241610738255	13	0.433375800121576	2	12	4	NaN	2	4	0.118274082371019	0	1	NaN	7	1	7	2	120	220	320	NaN	520	1.05908842757344	2	1	NaN	3724161.6882017	NaN	3724162.6716159	3724163.18815297
106	19	0	0	90	36.1581920903955	36.241610738255	10	0.33336600009352	2	11	5	NaN	2	5	0.118274082371019	0	1	NaN	8	1	8	2	120	220	320	NaN	520	0.714694375172257	1	0	NaN	3724165.0718584	NaN	3724166.0552752	3724166.57181082
106	19	0	0	90	36.1581920903955	36.241610738255	14	0.466712400130928	2	4	1	NaN	1	3	0.118274082371019	0	1	NaN	9	1	9	2	120	220	320	NaN	520	0.385326975025237	1	1	NaN	3724168.1055366	NaN	3724169.0889099	3724169.60545103
106	19	0	0	90	36.1581920903955	36.241610738255	12	0.400039200112224	2	1	5	NaN	1	5	0.118274082371019	0	1	NaN	10	1	10	2	120	220	320	NaN	520	0.500481439754367	2	0	NaN	3724170.8224435	NaN	3724171.8058596	3724172.32238026
106	19	0	0	90	36.1581920903955	36.241610738255	21	0.700068600196391	2	7	3	NaN	2	4	0.118274082371019	0	1	NaN	11	1	11	2	120	220	320	NaN	520	0.563647175207734	2	1	NaN	3724173.6392521	NaN	3724174.622795	3724175.13933162
106	19	0	0	90	36.1581920903955	36.241610738255	6	0.200019600056112	2	3	5	NaN	1	5	0.118274082371019	0	1	NaN	12	1	12	2	120	220	320	NaN	520	0.680114975199103	1	1	NaN	3724176.5230135	NaN	3724177.5064019	3724178.02294872
106	19	0	0	90	36.1581920903955	36.241610738255	20	0.666732000187039	2	8	3	NaN	2	3	0.118274082371019	0	1	NaN	13	1	13	2	120	220	320	NaN	520	1.16759117506444	1	0	NaN	3724179.5232882	NaN	3724180.5066982	3724181.02323702
106	19	0	0	90	36.1581920903955	36.241610738255	22	0.733405200205743	2	11	4	NaN	2	5	0.118274082371019	0	1	NaN	14	1	14	2	120	220	320	NaN	520	0.907836474943906	2	1	NaN	3724183.0068621	NaN	3724183.9903597	3724184.50690683
106	19	0	0	90	36.1581920903955	36.241610738255	25	0.833415000233799	2	11	4	NaN	2	3	0.118274082371019	0	1	NaN	15	1	15	2	120	220	320	NaN	520	1.25840467493981	2	1	NaN	3724186.2406403	NaN	3724187.2240712	3724187.74056403
106	19	0	0	90	36.1581920903955	36.241610738255	8	0.266692800074816	2	8	3	NaN	2	4	0.118274082371019	0	1	NaN	16	1	16	2	120	220	320	NaN	520	0.594930975232273	2	1	NaN	3724189.8243085	NaN	3724190.8077122	3724191.32424172
106	19	0	0	90	36.1581920903955	36.241610738255	13	0.433375800121576	2	1	1	NaN	1	4	0.118274082371019	0	1	NaN	17	1	17	2	120	220	320	NaN	520	0.381696075201035	1	1	NaN	3724192.7412503	NaN	3724193.7246502	3724194.24119732
106	19	0	0	90	36.1581920903955	36.241610738255	21	0.700068600196391	2	6	3	NaN	1	4	0.118274082371019	0	1	NaN	18	1	18	2	120	220	320	NaN	520	1.63367687538266	1	1	NaN	3724195.4415158	NaN	3724196.4249041	3724196.94146102
106	19	0	0	90	36.1581920903955	36.241610738255	13	0.433375800121576	2	9	1	NaN	2	4	0.118274082371019	0	1	NaN	19	1	19	2	120	220	320	NaN	520	1.1551294750534	2	1	NaN	3724199.3919067	NaN	3724200.3753261	3724200.89185442
106	19	0	0	90	36.1581920903955	36.241610738255	21	0.700068600196391	2	9	6	NaN	2	4	0.118274082371019	0	1	NaN	20	1	20	2	120	220	320	NaN	520	1.24725118326023	2	1	NaN	3724202.875587	NaN	3724203.8589908	3724204.37552942
106	19	0	0	90	36.1581920903955	36.241610738255	23	0.766741800215095	2	6	4	NaN	1	4	0.118274082371019	0	1	NaN	21	1	21	2	120	220	320	NaN	520	0.832685974892229	1	1	NaN	3724206.4426091	NaN	3724207.4260178	3724207.94254682
106	19	0	0	90	36.1581920903955	36.241610738255	18	0.600058800168335	2	3	2	NaN	1	4	0.118274082371019	0	1	NaN	22	1	22	2	120	220	320	NaN	520	0.850344874896109	1	1	NaN	3724209.5929004	NaN	3724210.5763087	3724211.09285292
106	19	0	0	90	36.1581920903955	36.241610738255	23	0.766741800215095	2	5	6	NaN	1	3	0.118274082371019	0	1	NaN	23	1	23	2	120	220	320	NaN	520	0.843209826853126	2	0	NaN	3724212.759888	NaN	3724213.7432943	3724214.25983677
106	19	0	0	90	36.1581920903955	36.241610738255	15	0.50004900014028	2	11	5	NaN	2	3	0.118274082371019	0	1	NaN	24	1	24	2	120	220	320	NaN	520	3.67699947487563	1	0	NaN	3724215.9102073	NaN	3724216.8936671	3724217.41013882
106	19	0	0	90	36.1581920903955	36.241610738255	17	0.566722200158984	2	12	1	NaN	2	4	0.118274082371019	0	1	NaN	25	1	25	2	120	220	320	NaN	520	0.38782622711733	2	1	NaN	3724221.9107835	NaN	3724222.8941963	3724223.41073367
106	19	0	0	90	36.1581920903955	36.241610738255	16	0.533385600149632	2	6	1	NaN	1	3	0.118274082371019	0	1	NaN	26	1	26	2	120	220	320	NaN	520	0.135979122947901	1	1	NaN	3724224.6110417	NaN	3724225.59446	3724226.11099708
106	19	0	0	90	36.1581920903955	36.241610738255	19	0.633395400177687	2	3	3	NaN	1	4	0.118274082371019	0	1	NaN	27	1	27	2	120	220	320	NaN	520	3.54181962320581	1	1	NaN	3724227.0612934	NaN	3724228.0447214	3724228.56123638
106	19	0	0	90	36.1581920903955	36.241610738255	24	0.800078400224447	2	10	2	NaN	2	5	0.118274082371019	0	1	NaN	28	1	28	2	120	220	320	NaN	520	0.274756975471973	2	1	NaN	3724232.9285356	NaN	3724233.9119582	3724234.42847942
106	19	0	0	90	36.1581920903955	36.241610738255	22	0.733405200205743	2	10	2	NaN	2	4	0.118274082371019	0	1	NaN	29	1	29	2	120	220	320	NaN	520	0.306326522957534	1	0	NaN	3724235.5287825	NaN	3724236.5122074	3724237.02874658
106	19	0	0	90	36.1581920903955	36.241610738255	17	0.566722200158984	2	11	2	NaN	2	3	0.118274082371019	0	1	NaN	30	1	30	2	120	220	320	NaN	520	0.0812576394528151	2	1	NaN	3724238.1456243	NaN	3724239.1291083	3724239.64566996
106	19	0	0	90	36.1581920903955	36.241610738255	15	0.50004900014028	2	8	3	NaN	2	5	0.118274082371019	0	1	NaN	31	1	31	2	120	220	320	NaN	520	2.45675837527961	1	0	NaN	3724240.5459418	NaN	3724241.5293634	3724242.04589622
106	19	0	0	90	36.1581920903955	36.241610738255	13	0.433375800121576	2	10	3	NaN	2	3	0.118274082371019	0	1	NaN	32	1	32	2	120	220	320	NaN	520	1.48176477523521	2	1	NaN	3724245.3129972	NaN	3724246.2965074	3724246.81302882
106	19	0	0	90	36.1581920903955	36.241610738255	0	0	1	10	3	NaN	2	3	0.118274082371019	0	1	NaN	33	1	33	2	110	210	310	NaN	510	0.617797875311226	1	0	NaN	3724249.1134468	NaN	3724250.0968658	3724250.61340442
106	19	0	0	90	36.1581920903955	36.241610738255	16	0.533385600149632	2	10	1	NaN	2	4	0.118274082371019	0	1	NaN	34	1	34	2	120	220	320	NaN	520	0.516016822773963	2	1	NaN	3724252.047088	NaN	3724253.0304653	3724253.54702088
106	19	0	0	90	36.1581920903955	36.241610738255	15	0.50004900014028	2	9	3	NaN	2	4	0.118274082371019	0	1	NaN	35	1	35	2	120	220	320	NaN	520	0.178555075079203	2	1	NaN	3724254.8806863	NaN	3724255.8640988	3724256.38063692
106	19	0	0	90	36.1581920903955	36.241610738255	0	0	1	7	2	NaN	2	5	0.118274082371019	0	1	NaN	36	1	36	2	110	210	310	NaN	510	2.75810842309147	1	0	NaN	3724257.3809472	NaN	3724258.364338	3724258.88087498
106	19	0	0	90	36.1581920903955	36.241610738255	16	0.533385600149632	2	5	5	NaN	1	3	0.118274082371019	0	1	NaN	37	1	37	2	120	220	320	NaN	520	0.44317247485742	1	1	NaN	3724262.4481007	NaN	3724263.4315168	3724263.94804583
106	19	0	0	90	36.1581920903955	36.241610738255	23	0.766741800215095	2	3	6	NaN	1	3	0.118274082371019	0	1	NaN	38	1	38	2	120	220	320	NaN	520	0.796807975508273	2	0	NaN	3724265.1983648	NaN	3724266.1817842	3724266.69832722
106	19	0	0	90	36.1581920903955	36.241610738255	13	0.433375800121576	2	11	5	NaN	2	5	0.118274082371019	0	1	NaN	39	1	39	2	120	220	320	NaN	520	0.520110975019634	2	1	NaN	3724268.3153624	NaN	3724269.2987556	3724269.81529053
106	19	0	0	90	36.1581920903955	36.241610738255	19	0.633395400177687	2	11	2	NaN	2	4	0.118274082371019	0	1	NaN	40	1	40	2	120	220	320	NaN	520	0.838030226994306	2	1	NaN	3724271.1489587	NaN	3724272.1323593	3724272.64890717
106	19	0	0	90	36.1581920903955	36.241610738255	8	0.266692800074816	2	12	2	NaN	2	4	0.118274082371019	0	1	NaN	41	1	41	2	120	220	320	NaN	520	0.94408387504518	2	1	NaN	3724274.2992866	NaN	3724275.2826681	3724275.79921013
106	19	0	0	90	36.1581920903955	36.241610738255	20	0.666732000187039	2	1	2	NaN	1	3	0.118274082371019	0	1	NaN	42	1	42	2	120	220	320	NaN	520	0.429431475233287	2	0	NaN	3724277.5494717	NaN	3724278.5329629	3724279.04952572
106	19	0	0	90	36.1581920903955	36.241610738255	10	0.33336600009352	2	7	3	NaN	2	3	0.118274082371019	0	1	NaN	43	1	43	2	120	220	320	NaN	520	0.422029927372932	2	1	NaN	3724280.7331014	NaN	3724281.7166567	3724282.23317867
106	19	0	0	90	36.1581920903955	36.241610738255	15	0.50004900014028	2	6	1	NaN	1	4	0.118274082371019	0	1	NaN	44	1	44	2	120	220	320	NaN	520	0.552011275198311	1	1	NaN	3724283.466837	NaN	3724284.4502296	3724284.96677662
106	19	0	0	90	36.1581920903955	36.241610738255	18	0.600058800168335	2	9	6	NaN	2	5	0.118274082371019	0	1	NaN	45	1	45	2	120	220	320	NaN	520	0.346846370957792	2	1	NaN	3724286.8004625	NaN	3724287.7839054	3724288.30042773
106	19	0	0	90	36.1581920903955	36.241610738255	7	0.233356200065464	2	4	4	NaN	1	5	0.118274082371019	0	1	NaN	46	1	46	2	120	220	320	NaN	520	0.351690723095089	1	1	NaN	3724289.4674239	NaN	3724290.4508393	3724290.96736618
106	19	0	0	90	36.1581920903955	36.241610738255	11	0.366702600102872	2	5	3	NaN	1	5	0.118274082371019	0	1	NaN	47	1	47	2	120	220	320	NaN	520	0.269058023113757	1	1	NaN	3724292.1343477	NaN	3724293.1177594	3724293.63429108
106	19	0	0	90	36.1581920903955	36.241610738255	8	0.266692800074816	2	2	6	NaN	1	5	0.118274082371019	0	1	NaN	48	1	48	2	120	220	320	NaN	520	0.421115075238049	1	1	NaN	3724294.7179214	NaN	3724295.7013319	3724296.21788142
106	19	0	0	90	36.1581920903955	36.241610738255	13	0.433375800121576	2	10	2	NaN	2	5	0.118274082371019	0	1	NaN	49	1	49	2	120	220	320	NaN	520	0.231557819060981	2	1	NaN	3724297.4515311	NaN	3724298.434936	3724298.95148748
106	19	0	0	90	36.1581920903955	36.241610738255	16	0.533385600149632	2	8	1	NaN	2	3	0.118274082371019	0	1	NaN	50	1	50	2	120	220	320	NaN	520	0.265231878962368	2	1	NaN	3724300.0017941	NaN	3724300.9851904	3724301.50173742
106	19	0	0	90	36.1581920903955	36.241610738255	7	0.233356200065464	2	3	4	NaN	1	3	0.118274082371019	0	1	NaN	51	1	51	2	120	220	320	NaN	520	1.89780817506835	1	1	NaN	3724302.5853631	NaN	3724303.5688019	3724304.08532113
106	19	0	0	90	36.1581920903955	36.241610738255	12	0.400039200112224	2	6	6	NaN	1	3	0.118274082371019	0	1	NaN	52	1	52	2	120	220	320	NaN	520	0.624748975038528	1	1	NaN	3724306.8024713	NaN	3724307.7858633	3724308.30240172
106	19	0	0	90	36.1581920903955	36.241610738255	24	0.800078400224447	2	4	5	NaN	1	5	0.118274082371019	0	1	NaN	53	1	53	2	120	220	320	NaN	520	0.363273275084794	1	1	NaN	3724309.7360665	NaN	3724310.7195058	3724311.23602293
106	19	0	0	90	36.1581920903955	36.241610738255	8	0.266692800074816	2	11	6	NaN	2	4	0.118274082371019	0	1	NaN	54	1	54	2	120	220	320	NaN	520	0.472157875541598	2	1	NaN	3724312.4030277	NaN	3724313.3864018	3724313.90294842
106	19	0	0	90	36.1581920903955	36.241610738255	19	0.633395400177687	2	3	5	NaN	1	5	0.118274082371019	0	1	NaN	55	1	55	2	120	220	320	NaN	520	0.664431271143258	1	1	NaN	3724315.1866106	NaN	3724316.1700095	3724316.68655073
106	19	0	0	90	36.1581920903955	36.241610738255	14	0.466712400130928	2	3	4	NaN	1	5	0.118274082371019	0	1	NaN	56	1	56	2	120	220	320	NaN	520	0.984988575335592	2	0	NaN	3724318.1702152	NaN	3724319.1536477	3724319.67018342
106	19	0	0	90	36.1581920903955	36.241610738255	24	0.800078400224447	2	4	4	NaN	1	3	0.118274082371019	0	1	NaN	57	1	57	2	120	220	320	NaN	520	0.356465875171125	1	1	NaN	3724321.4705506	NaN	3724322.4539814	3724322.97050883
106	19	0	0	90	36.1581920903955	36.241610738255	23	0.766741800215095	2	2	1	NaN	1	5	0.118274082371019	0	1	NaN	58	1	58	2	120	220	320	NaN	520	0.265583175234497	2	0	NaN	3724324.1375313	NaN	3724325.120878	3724325.63743092
106	19	0	0	90	36.1581920903955	36.241610738255	12	0.400039200112224	2	4	5	NaN	1	5	0.118274082371019	0	1	NaN	59	1	59	2	120	220	320	NaN	520	0.362419074866921	1	1	NaN	3724326.7210694	NaN	3724327.7044949	3724328.22102473
106	19	0	0	90	36.1581920903955	36.241610738255	13	0.433375800121576	2	4	3	NaN	1	5	0.118274082371019	0	1	NaN	60	1	60	2	120	220	320	NaN	520	0.406621075235307	1	1	NaN	3724329.4046699	NaN	3724330.3880749	3724330.90461972
106	19	0	0	90	36.1581920903955	36.241610738255	0	0	1	4	6	NaN	1	5	0.118274082371019	0	1	NaN	61	1	61	2	110	210	310	NaN	510	0.569555674679577	2	0	NaN	3724332.3216304	NaN	3724333.3049243	3724333.82157463
106	19	0	0	90	36.1581920903955	36.241610738255	12	0.400039200112224	2	8	6	NaN	2	4	0.118274082371019	0	1	NaN	62	1	62	2	120	220	320	NaN	520	0.390319675207138	2	1	NaN	3724335.2052452	NaN	3724336.1886518	3724336.70519112
106	19	0	0	90	36.1581920903955	36.241610738255	22	0.733405200205743	2	9	3	NaN	2	3	0.118274082371019	0	1	NaN	63	1	63	2	120	220	320	NaN	520	0.457652274984866	2	1	NaN	3724337.9055241	NaN	3724338.8889255	3724339.40545393
106	19	0	0	90	36.1581920903955	36.241610738255	11	0.366702600102872	2	10	5	NaN	2	5	0.118274082371019	0	1	NaN	64	2	1	2	120	220	320	NaN	520	1.46435912745073	2	1	NaN	3724360.2910748	NaN	3724361.2744556	3724361.79099187
106	19	0	0	90	36.1581920903955	36.241610738255	19	0.633395400177687	2	4	3	NaN	1	4	0.118274082371019	0	1	NaN	65	2	2	2	120	220	320	NaN	520	0.0325677748769522	1	1	NaN	3724364.0747362	NaN	3724365.0581539	3724365.57468372
106	19	0	0	90	36.1581920903955	36.241610738255	21	0.700068600196391	2	11	6	NaN	2	3	0.118274082371019	0	1	NaN	66	2	3	2	120	220	320	NaN	520	0.731004475150257	2	1	NaN	3724366.4082009	NaN	3724367.3916951	3724367.90825342
106	19	0	0	90	36.1581920903955	36.241610738255	13	0.433375800121576	2	5	2	NaN	1	5	0.118274082371019	0	1	NaN	67	2	4	2	120	220	320	NaN	520	0.392758539877832	1	1	NaN	3724369.4586243	NaN	3724370.4420022	3724370.95856436
106	19	0	0	90	36.1581920903955	36.241610738255	12	0.400039200112224	2	3	3	NaN	1	4	0.118274082371019	0	1	NaN	68	2	5	2	120	220	320	NaN	520	0.308282322715968	1	1	NaN	3724372.158865	NaN	3724373.1423654	3724373.65882108
106	19	0	0	90	36.1581920903955	36.241610738255	7	0.233356200065464	2	11	6	NaN	2	4	0.118274082371019	0	1	NaN	69	2	6	2	120	220	320	NaN	520	0.563339675310999	2	1	NaN	3724374.7758155	NaN	3724375.7591929	3724376.27574442
106	19	0	0	90	36.1581920903955	36.241610738255	24	0.800078400224447	2	5	5	NaN	1	3	0.118274082371019	0	1	NaN	70	2	7	2	120	220	320	NaN	520	6.62387577537447	2	0	NaN	3724377.659443	NaN	3724378.642817	3724379.15935782
106	19	0	0	90	36.1581920903955	36.241610738255	22	0.733405200205743	2	1	3	NaN	1	3	0.118274082371019	0	1	NaN	71	2	8	2	120	220	320	NaN	520	0.353888275101781	2	0	NaN	3724386.5936375	NaN	3724387.5770223	3724388.09356192
106	19	0	0	90	36.1581920903955	36.241610738255	25	0.833415000233799	2	1	2	NaN	1	3	0.118274082371019	0	1	NaN	72	2	9	2	120	220	320	NaN	520	0.575025775004178	1	1	NaN	3724389.2604402	NaN	3724390.2439513	3724390.76049933
106	19	0	0	90	36.1581920903955	36.241610738255	12	0.400039200112224	2	1	3	NaN	1	3	0.118274082371019	0	1	NaN	73	2	10	2	120	220	320	NaN	520	1.09105677530169	2	0	NaN	3724392.1441633	NaN	3724393.1275729	3724393.64410672
106	19	0	0	90	36.1581920903955	36.241610738255	6	0.200019600056112	2	1	3	NaN	1	3	0.118274082371019	0	1	NaN	74	2	11	2	120	220	320	NaN	520	0.322679975070059	2	0	NaN	3724395.5445235	NaN	3724396.5279261	3724397.04444662
106	19	0	0	90	36.1581920903955	36.241610738255	16	0.533385600149632	2	4	4	NaN	1	3	0.118274082371019	0	1	NaN	75	2	12	2	120	220	320	NaN	520	1.19336777506396	2	0	NaN	3724398.1781093	NaN	3724399.1614957	3724399.67804632
106	19	0	0	90	36.1581920903955	36.241610738255	24	0.800078400224447	2	11	3	NaN	2	4	0.118274082371019	0	1	NaN	76	2	13	2	120	220	320	NaN	520	0.468432222958654	2	1	NaN	3724401.6784444	NaN	3724402.6618496	3724403.17839058
106	19	0	0	90	36.1581920903955	36.241610738255	11	0.366702600102872	2	7	1	NaN	2	4	0.118274082371019	0	1	NaN	77	2	14	2	120	220	320	NaN	520	0.185941575095057	1	0	NaN	3724404.5453706	NaN	3724405.5287882	3724406.04532593
106	19	0	0	90	36.1581920903955	36.241610738255	8	0.266692800074816	2	7	5	NaN	2	3	0.118274082371019	0	1	NaN	78	2	15	2	120	220	320	NaN	520	0.245746943168342	1	0	NaN	3724407.0456098	NaN	3724408.0290484	3724408.54558176
106	19	0	0	90	36.1581920903955	36.241610738255	23	0.766741800215095	2	7	2	NaN	2	3	0.118274082371019	0	1	NaN	79	2	16	2	120	220	320	NaN	520	2.27128102257848	2	1	NaN	3724409.5957739	NaN	3724410.5792831	3724411.09582488
106	19	0	0	90	36.1581920903955	36.241610738255	11	0.366702600102872	2	12	6	NaN	2	4	0.118274082371019	0	1	NaN	80	2	17	2	120	220	320	NaN	520	0.628160974942148	2	1	NaN	3724414.8630509	NaN	3724415.846517	3724416.36301163
106	19	0	0	90	36.1581920903955	36.241610738255	9	0.300029400084168	2	4	3	NaN	1	4	0.118274082371019	0	1	NaN	81	2	18	2	120	220	320	NaN	520	0.518076027277857	1	1	NaN	3724417.8133643	NaN	3724418.7967534	3724419.31330367
106	19	0	0	90	36.1581920903955	36.241610738255	8	0.266692800074816	2	3	1	NaN	1	5	0.118274082371019	0	1	NaN	82	2	19	2	120	220	320	NaN	520	0.428569730836898	2	0	NaN	3724420.64697	NaN	3724421.6303695	3724422.14691487
106	19	0	0	90	36.1581920903955	36.241610738255	20	0.666732000187039	2	6	6	NaN	1	4	0.118274082371019	0	1	NaN	83	2	20	2	120	220	320	NaN	520	0.229456175118685	1	1	NaN	3724424.0139845	NaN	3724424.9973664	3724425.51392192
106	19	0	0	90	36.1581920903955	36.241610738255	17	0.566722200158984	2	9	5	NaN	2	3	0.118274082371019	0	1	NaN	84	2	21	2	120	220	320	NaN	520	0.279259975068271	2	1	NaN	3724426.56421	NaN	3724427.547637	3724428.06415962
106	19	0	0	90	36.1581920903955	36.241610738255	16	0.533385600149632	2	1	1	NaN	1	3	0.118274082371019	0	1	NaN	85	2	22	2	120	220	320	NaN	520	0.110970143228769	1	1	NaN	3724429.1644775	NaN	3724430.1478689	3724430.66442286
106	19	0	0	90	36.1581920903955	36.241610738255	13	0.433375800121576	2	6	4	NaN	1	5	0.118274082371019	0	1	NaN	86	2	23	2	120	220	320	NaN	520	0.797720475122333	2	0	NaN	3724431.5813527	NaN	3724432.5647857	3724433.08132283
106	19	0	0	90	36.1581920903955	36.241610738255	8	0.266692800074816	2	5	2	NaN	1	4	0.118274082371019	0	1	NaN	87	2	24	2	120	220	320	NaN	520	0.0169498273171484	1	1	NaN	3724434.698384	NaN	3724435.6817421	3724436.19829607
106	19	0	0	90	36.1581920903955	36.241610738255	9	0.300029400084168	2	3	3	NaN	1	3	0.118274082371019	0	1	NaN	88	2	25	2	120	220	320	NaN	520	0.0104197231121361	2	0	NaN	3724437.0319303	NaN	3724438.0153213	3724438.53185428
106	19	0	0	90	36.1581920903955	36.241610738255	18	0.600058800168335	2	7	6	NaN	2	5	0.118274082371019	0	1	NaN	89	2	26	2	120	220	320	NaN	520	0.341764179058373	2	1	NaN	3724439.3654699	NaN	3724440.3488753	3724440.86542462
106	19	0	0	90	36.1581920903955	36.241610738255	0	0	1	3	1	NaN	1	5	0.118274082371019	0	1	NaN	90	2	27	2	110	210	310	NaN	510	0.689174723345786	2	0	NaN	3724442.2824013	NaN	3724443.2658416	3724443.78236878
106	19	0	0	90	36.1581920903955	36.241610738255	21	0.700068600196391	2	3	1	NaN	1	3	0.118274082371019	0	1	NaN	91	2	28	2	120	220	320	NaN	520	0.60071512311697	2	0	NaN	3724445.2827233	NaN	3724446.2661584	3724446.78266268
106	19	0	0	90	36.1581920903955	36.241610738255	21	0.700068600196391	2	5	2	NaN	1	3	0.118274082371019	0	1	NaN	92	2	29	2	120	220	320	NaN	520	0.691921875346452	1	1	NaN	3724448.1996667	NaN	3724449.1830844	3724449.69961642
106	19	0	0	90	36.1581920903955	36.241610738255	7	0.233356200065464	2	8	4	NaN	2	3	0.118274082371019	0	1	NaN	93	2	30	2	120	220	320	NaN	520	0.0104101747274399	2	1	NaN	3724451.1998384	NaN	3724452.1833822	3724452.69991003
106	19	0	0	90	36.1581920903955	36.241610738255	0	0	1	1	1	NaN	1	5	0.118274082371019	0	1	NaN	94	2	31	2	110	210	310	NaN	510	0.294562170747668	1	1	NaN	3724453.5168513	NaN	3724454.5002831	3724455.01679933
106	19	0	0	90	36.1581920903955	36.241610738255	18	0.600058800168335	2	11	1	NaN	2	3	0.118274082371019	0	1	NaN	95	2	32	2	120	220	320	NaN	520	0.270507375244051	2	1	NaN	3724456.1171557	NaN	3724457.1005501	3724457.61706392
106	19	0	0	90	36.1581920903955	36.241610738255	16	0.533385600149632	2	11	1	NaN	2	4	0.118274082371019	0	1	NaN	96	2	33	2	120	220	320	NaN	520	0.64679287513718	2	1	NaN	3724458.7007006	NaN	3724459.6841138	3724460.20064833
106	19	0	0	90	36.1581920903955	36.241610738255	15	0.50004900014028	2	8	6	NaN	2	3	0.118274082371019	0	1	NaN	97	2	34	2	120	220	320	NaN	520	0.423654374666512	2	1	NaN	3724461.6676683	NaN	3724462.65107	3724463.16760453
106	19	0	0	90	36.1581920903955	36.241610738255	10	0.33336600009352	2	9	3	NaN	2	4	0.118274082371019	0	1	NaN	98	2	35	2	120	220	320	NaN	520	0.322111574932933	2	1	NaN	3724464.4012631	NaN	3724465.3846706	3724465.90120922
106	19	0	0	90	36.1581920903955	36.241610738255	25	0.833415000233799	2	2	6	NaN	1	5	0.118274082371019	0	1	NaN	99	2	36	2	120	220	320	NaN	520	0.154506127350032	1	1	NaN	3724467.9849296	NaN	3724468.9683577	3724469.48490157
106	19	0	0	90	36.1581920903955	36.241610738255	17	0.566722200158984	2	8	2	NaN	2	3	0.118274082371019	0	1	NaN	100	2	37	2	120	220	320	NaN	520	0.159480074886233	2	1	NaN	3724470.4518391	NaN	3724471.4352746	3724471.95180632
106	19	0	0	90	36.1581920903955	36.241610738255	11	0.366702600102872	2	4	2	NaN	1	4	0.118274082371019	0	1	NaN	101	2	38	2	120	220	320	NaN	520	0.0104253753088415	1	1	NaN	3724472.9187523	NaN	3724473.9021606	3724474.41870782
106	19	0	0	90	36.1581920903955	36.241610738255	16	0.533385600149632	2	1	2	NaN	1	3	0.118274082371019	0	1	NaN	102	2	39	2	120	220	320	NaN	520	0.010408275295049	1	1	NaN	3724475.2355307	NaN	3724476.2190638	3724476.73561022
106	19	0	0	90	36.1581920903955	36.241610738255	12	0.400039200112224	2	5	6	NaN	1	5	0.118274082371019	0	1	NaN	103	2	40	2	120	220	320	NaN	520	0.0915402271784842	1	1	NaN	3724477.9359237	NaN	3724478.9193139	3724479.43587267
106	19	0	0	90	36.1581920903955	36.241610738255	17	0.566722200158984	2	4	4	NaN	1	4	0.118274082371019	0	1	NaN	104	2	41	2	120	220	320	NaN	520	0.187216226942837	1	1	NaN	3724480.3361532	NaN	3724481.319574	3724481.83610787
106	19	0	0	90	36.1581920903955	36.241610738255	0	0	1	9	4	NaN	2	5	0.118274082371019	0	1	NaN	105	2	42	2	110	210	310	NaN	510	0.0104241752997041	1	0	NaN	3724482.8364132	NaN	3724483.8198079	3724484.33634972
106	19	0	0	90	36.1581920903955	36.241610738255	18	0.600058800168335	2	1	4	NaN	1	3	0.118274082371019	0	1	NaN	106	2	43	2	120	220	320	NaN	520	0.153439575340599	2	0	NaN	3724485.1700681	NaN	3724486.1532848	3724486.66991522
106	19	0	0	90	36.1581920903955	36.241610738255	13	0.433375800121576	2	2	2	NaN	1	5	0.118274082371019	0	1	NaN	107	2	44	2	120	220	320	NaN	520	0.0104185752570629	1	1	NaN	3724488.0535038	NaN	3724489.0369979	3724489.55352772
106	19	0	0	90	36.1581920903955	36.241610738255	6	0.200019600056112	2	10	5	NaN	2	4	0.118274082371019	0	1	NaN	108	2	45	2	120	220	320	NaN	520	0.0103936269879341	1	0	NaN	3724490.3705093	NaN	3724491.3538933	3724491.87042857
106	19	0	0	90	36.1581920903955	36.241610738255	14	0.466712400130928	2	10	5	NaN	2	4	0.118274082371019	0	1	NaN	109	2	46	2	120	220	320	NaN	520	0.47628327505663	1	0	NaN	3724492.6872575	NaN	3724493.6707933	3724494.18732292
106	19	0	0	90	36.1581920903955	36.241610738255	18	0.600058800168335	2	1	3	NaN	1	5	0.118274082371019	0	1	NaN	110	2	47	2	120	220	320	NaN	520	0.372214575298131	2	0	NaN	3724495.4711037	NaN	3724496.4543865	3724496.97093112
106	19	0	0	90	36.1581920903955	36.241610738255	11	0.366702600102872	2	6	5	NaN	1	5	0.118274082371019	0	1	NaN	111	2	48	2	120	220	320	NaN	520	0.684286527335644	2	0	NaN	3724498.4713084	NaN	3724499.4546777	3724499.97122867
106	19	0	0	90	36.1581920903955	36.241610738255	7	0.233356200065464	2	12	1	NaN	2	4	0.118274082371019	0	1	NaN	112	2	49	2	120	220	320	NaN	520	3.02005317481235	1	0	NaN	3724501.4715593	NaN	3724502.4549715	3724502.97151783
106	19	0	0	90	36.1581920903955	36.241610738255	20	0.666732000187039	2	9	1	NaN	2	4	0.118274082371019	0	1	NaN	113	2	50	2	120	220	320	NaN	520	0.0103611312806606	2	1	NaN	3724507.5388222	NaN	3724508.522244	3724509.03877317
106	19	0	0	90	36.1581920903955	36.241610738255	16	0.533385600149632	2	7	5	NaN	2	5	0.118274082371019	0	1	NaN	114	2	51	2	120	220	320	NaN	520	0.314874175004661	2	1	NaN	3724509.8723906	NaN	3724510.8557938	3724511.37234072
106	19	0	0	90	36.1581920903955	36.241610738255	20	0.666732000187039	2	12	4	NaN	2	3	0.118274082371019	0	1	NaN	115	2	52	2	120	220	320	NaN	520	8.21430732263252	1	0	NaN	3724512.9893497	NaN	3724513.972775	3724514.48931468
106	19	0	0	90	36.1581920903955	36.241610738255	18	0.600058800168335	2	8	2	NaN	2	3	0.118274082371019	0	1	NaN	116	2	53	2	120	220	320	NaN	520	0.832159527111799	2	1	NaN	3724523.5237224	NaN	3724524.5071505	3724525.02368407
106	19	0	0	90	36.1581920903955	36.241610738255	12	0.400039200112224	2	11	1	NaN	2	3	0.118274082371019	0	1	NaN	117	2	54	2	120	220	320	NaN	520	0.225432374980301	2	1	NaN	3724526.6739168	NaN	3724527.6574737	3724528.17398313
106	19	0	0	90	36.1581920903955	36.241610738255	17	0.566722200158984	2	4	1	NaN	1	4	0.118274082371019	0	1	NaN	118	2	55	2	120	220	320	NaN	520	0.200988623313606	1	1	NaN	3724529.6743422	NaN	3724530.6577343	3724531.17428378
106	19	0	0	90	36.1581920903955	36.241610738255	7	0.233356200065464	2	9	4	NaN	2	4	0.118274082371019	0	1	NaN	119	2	56	2	120	220	320	NaN	520	0.244149675127119	2	1	NaN	3724532.191277	NaN	3724533.1746572	3724533.69119162
106	19	0	0	90	36.1581920903955	36.241610738255	14	0.466712400130928	2	7	6	NaN	2	5	0.118274082371019	0	1	NaN	120	2	57	2	120	220	320	NaN	520	1.42193957511336	2	1	NaN	3724534.7415033	NaN	3724535.7249136	3724536.24144182
106	19	0	0	90	36.1581920903955	36.241610738255	8	0.266692800074816	2	11	2	NaN	2	3	0.118274082371019	0	1	NaN	121	2	58	2	120	220	320	NaN	520	0.424193575046957	2	1	NaN	3724538.4751797	NaN	3724539.458609	3724539.97515013
106	19	0	0	90	36.1581920903955	36.241610738255	17	0.566722200158984	2	1	4	NaN	1	4	0.118274082371019	0	1	NaN	122	2	59	2	120	220	320	NaN	520	0.330846874974668	1	1	NaN	3724541.2087982	NaN	3724542.1922137	3724542.70875602
106	19	0	0	90	36.1581920903955	36.241610738255	13	0.433375800121576	2	3	6	NaN	1	3	0.118274082371019	0	1	NaN	123	2	60	2	120	220	320	NaN	520	0.609274874906987	1	1	NaN	3724543.8423934	NaN	3724544.8258254	3724545.34233702
106	19	0	0	90	36.1581920903955	36.241610738255	23	0.766741800215095	2	4	6	NaN	1	5	0.118274082371019	0	1	NaN	124	2	61	2	120	220	320	NaN	520	0.412346275057644	1	1	NaN	3724546.759345	NaN	3724547.7427502	3724548.25929993
106	19	0	0	90	36.1581920903955	36.241610738255	14	0.466712400130928	2	1	2	NaN	1	5	0.118274082371019	0	1	NaN	125	2	62	2	120	220	320	NaN	520	0.343252370599657	1	1	NaN	3724549.4762786	NaN	3724550.4596896	3724550.97622323
106	19	0	0	90	36.1581920903955	36.241610738255	17	0.566722200158984	2	2	4	NaN	1	4	0.118274082371019	0	1	NaN	126	2	63	2	120	220	320	NaN	520	0.340458527207375	1	1	NaN	3724552.1432061	NaN	3724553.126624	3724553.64316377
106	19	0	0	90	36.1581920903955	36.241610738255	9	0.300029400084168	2	2	2	NaN	1	3	0.118274082371019	0	1	NaN	127	3	1	2	120	220	320	NaN	520	0.108670327346772	2	0	NaN	3724597.0309466	NaN	3724598.0143602	3724598.53090237
106	19	0	0	90	36.1581920903955	36.241610738255	23	0.766741800215095	2	7	3	NaN	2	5	0.118274082371019	0	1	NaN	128	3	2	2	120	220	320	NaN	520	0.419923475012183	2	1	NaN	3724599.4478544	NaN	3724600.4312645	3724600.94779852
106	19	0	0	90	36.1581920903955	36.241610738255	14	0.466712400130928	2	10	2	NaN	2	3	0.118274082371019	0	1	NaN	129	3	3	2	120	220	320	NaN	520	0.486232170835137	2	1	NaN	3724602.1814653	NaN	3724603.1648747	3724603.68139713
106	19	0	0	90	36.1581920903955	36.241610738255	10	0.33336600009352	2	4	1	NaN	1	5	0.118274082371019	0	1	NaN	130	3	4	2	120	220	320	NaN	520	0.325854727532715	1	1	NaN	3724604.9817366	NaN	3724605.9651867	3724606.48168707
106	19	0	0	90	36.1581920903955	36.241610738255	22	0.733405200205743	2	7	3	NaN	2	4	0.118274082371019	0	1	NaN	131	3	5	2	120	220	320	NaN	520	0.508488927036524	2	1	NaN	3724607.6153112	NaN	3724608.5987384	3724609.11527897
106	19	0	0	90	36.1581920903955	36.241610738255	21	0.700068600196391	2	12	2	NaN	2	5	0.118274082371019	0	1	NaN	132	3	6	2	120	220	320	NaN	520	0.635173527058214	2	1	NaN	3724610.4322875	NaN	3724611.4156829	3724611.93221567
106	19	0	0	90	36.1581920903955	36.241610738255	8	0.266692800074816	2	12	5	NaN	2	3	0.118274082371019	0	1	NaN	133	3	7	2	120	220	320	NaN	520	1.14064732706174	2	1	NaN	3724613.3825588	NaN	3724614.3659701	3724614.88251197
106	19	0	0	90	36.1581920903955	36.241610738255	15	0.50004900014028	2	5	4	NaN	1	3	0.118274082371019	0	1	NaN	134	3	8	2	120	220	320	NaN	520	1.85870897490531	1	1	NaN	3724616.8329015	NaN	3724617.8162994	3724618.33283962
106	19	0	0	90	36.1581920903955	36.241610738255	6	0.200019600056112	2	12	4	NaN	2	4	0.118274082371019	0	1	NaN	135	3	9	2	120	220	320	NaN	520	0.331817822996527	2	1	NaN	3724620.9999612	NaN	3724621.9833923	3724622.49991408
106	19	0	0	90	36.1581920903955	36.241610738255	13	0.433375800121576	2	2	4	NaN	1	5	0.118274082371019	0	1	NaN	136	3	10	2	120	220	320	NaN	520	0.217353522777557	1	1	NaN	3724623.6502237	NaN	3724624.6336471	3724625.15017718
106	19	0	0	90	36.1581920903955	36.241610738255	16	0.533385600149632	2	4	3	NaN	1	4	0.118274082371019	0	1	NaN	137	3	11	2	120	220	320	NaN	520	0.236092370469123	1	1	NaN	3724626.1838178	NaN	3724627.1672335	3724627.68375453
106	19	0	0	90	36.1581920903955	36.241610738255	0	0	1	12	5	NaN	2	3	0.118274082371019	0	1	NaN	138	3	12	2	110	210	310	NaN	510	0.717036127578467	2	1	NaN	3724628.7339363	NaN	3724629.7174667	3724630.23401697
106	19	0	0	90	36.1581920903955	36.241610738255	17	0.566722200158984	2	5	3	NaN	1	5	0.118274082371019	0	1	NaN	139	3	13	2	120	220	320	NaN	520	1.92402692278847	1	1	NaN	3724631.7676971	NaN	3724632.7511149	3724633.26764798
106	19	0	0	90	36.1581920903955	36.241610738255	24	0.800078400224447	2	5	5	NaN	1	4	0.118274082371019	0	1	NaN	140	3	14	2	120	220	320	NaN	520	1.21833727508783	1	1	NaN	3724636.0013532	NaN	3724636.9848381	3724637.50138893
106	19	0	0	90	36.1581920903955	36.241610738255	22	0.733405200205743	2	12	2	NaN	2	5	0.118274082371019	0	1	NaN	141	3	15	2	120	220	320	NaN	520	0.292277327273041	2	1	NaN	3724639.5351159	NaN	3724640.5185468	3724641.03507267
106	19	0	0	90	36.1581920903955	36.241610738255	21	0.700068600196391	2	4	2	NaN	1	3	0.118274082371019	0	1	NaN	142	3	16	2	120	220	320	NaN	520	0.228127774782479	1	1	NaN	3724642.1354008	NaN	3724643.1187879	3724643.63532723
106	19	0	0	90	36.1581920903955	36.241610738255	11	0.366702600102872	2	8	2	NaN	2	5	0.118274082371019	0	1	NaN	143	3	17	2	120	220	320	NaN	520	0.957994875032455	2	1	NaN	3724644.6856312	NaN	3724645.669048	3724646.18557613
106	19	0	0	90	36.1581920903955	36.241610738255	0	0	1	1	5	NaN	1	4	0.118274082371019	0	1	NaN	144	3	18	2	110	210	310	NaN	510	1.25927412277088	2	0	NaN	3724647.9526315	NaN	3724648.9360159	3724649.45256608
106	19	0	0	90	36.1581920903955	36.241610738255	19	0.633395400177687	2	1	3	NaN	1	3	0.118274082371019	0	1	NaN	145	3	19	2	120	220	320	NaN	520	0.964170827064663	2	0	NaN	3724651.5196184	NaN	3724652.503055	3724653.01958697
106	19	0	0	90	36.1581920903955	36.241610738255	6	0.200019600056112	2	8	5	NaN	2	5	0.118274082371019	0	1	NaN	146	3	20	2	120	220	320	NaN	520	1.16827491065487	2	1	NaN	3724654.8032922	NaN	3724655.7866981	3724656.30323909
106	19	0	0	90	36.1581920903955	36.241610738255	22	0.733405200205743	2	1	6	NaN	1	5	0.118274082371019	0	1	NaN	147	3	21	2	120	220	320	NaN	520	0.348544527310878	2	0	NaN	3724658.2869109	NaN	3724659.2704076	3724659.78691827
106	19	0	0	90	36.1581920903955	36.241610738255	12	0.400039200112224	2	6	3	NaN	1	5	0.118274082371019	0	1	NaN	148	3	22	2	120	220	320	NaN	520	0.249663774855435	1	1	NaN	3724660.9538958	NaN	3724661.9372843	3724662.45383742
106	19	0	0	90	36.1581920903955	36.241610738255	24	0.800078400224447	2	3	1	NaN	1	3	0.118274082371019	0	1	NaN	149	3	23	2	120	220	320	NaN	520	0.659157827496529	2	0	NaN	3724663.5207069	NaN	3724664.5042241	3724665.02076627
106	19	0	0	90	36.1581920903955	36.241610738255	0	0	1	11	2	NaN	2	5	0.118274082371019	0	1	NaN	150	3	24	2	110	210	310	NaN	510	0.660087727475911	2	1	NaN	3724666.4877797	NaN	3724667.4711785	3724667.98771397
106	19	0	0	90	36.1581920903955	36.241610738255	10	0.33336600009352	2	2	1	NaN	1	5	0.118274082371019	0	1	NaN	151	3	25	2	120	220	320	NaN	520	0.652810675092041	2	0	NaN	3724669.4545923	NaN	3724670.4381707	3724670.95467203
106	19	0	0	90	36.1581920903955	36.241610738255	10	0.33336600009352	2	10	1	NaN	2	3	0.118274082371019	0	1	NaN	152	3	26	2	120	220	320	NaN	520	0.390217375010252	2	1	NaN	3724672.4215837	NaN	3724673.4050856	3724673.92163253
106	19	0	0	90	36.1581920903955	36.241610738255	12	0.400039200112224	2	9	2	NaN	2	4	0.118274082371019	0	1	NaN	153	3	27	2	120	220	320	NaN	520	0.233724175486714	1	0	NaN	3724675.1219256	NaN	3724676.1053772	3724676.62189592
106	19	0	0	90	36.1581920903955	36.241610738255	7	0.233356200065464	2	5	4	NaN	1	3	0.118274082371019	0	1	NaN	154	3	28	2	120	220	320	NaN	520	0.379721874836832	2	0	NaN	3724677.6722013	NaN	3724678.6556152	3724679.17214793
106	19	0	0	90	36.1581920903955	36.241610738255	25	0.833415000233799	2	4	5	NaN	1	4	0.118274082371019	0	1	NaN	155	3	29	2	120	220	320	NaN	520	0.327880527358502	1	1	NaN	3724680.3557948	NaN	3724681.3392129	3724681.85574397
106	19	0	0	90	36.1581920903955	36.241610738255	23	0.766741800215095	2	5	5	NaN	1	4	0.118274082371019	0	1	NaN	156	3	30	2	120	220	320	NaN	520	0.374468075111508	1	1	NaN	3724682.9892498	NaN	3724683.9727905	3724684.48933402
106	19	0	0	90	36.1581920903955	36.241610738255	8	0.266692800074816	2	3	4	NaN	1	3	0.118274082371019	0	1	NaN	157	3	31	2	120	220	320	NaN	520	0.442802222911268	1	1	NaN	3724685.6729857	NaN	3724686.6563051	3724687.17293328
106	19	0	0	90	36.1581920903955	36.241610738255	15	0.50004900014028	2	11	4	NaN	2	3	0.118274082371019	0	1	NaN	158	3	32	2	120	220	320	NaN	520	0.268339227419347	2	1	NaN	3724688.4231404	NaN	3724689.4066526	3724689.92321387
106	19	0	0	90	36.1581920903955	36.241610738255	23	0.766741800215095	2	12	6	NaN	2	4	0.118274082371019	0	1	NaN	159	3	33	2	120	220	320	NaN	520	3.51681537507102	1	0	NaN	3724691.0068536	NaN	3724691.9902599	3724692.50679393
106	19	0	0	90	36.1581920903955	36.241610738255	19	0.633395400177687	2	6	6	NaN	1	3	0.118274082371019	0	1	NaN	160	3	34	2	120	220	320	NaN	520	0.0989708751440048	1	1	NaN	3724696.8407601	NaN	3724697.8241591	3724698.34070022
106	19	0	0	90	36.1581920903955	36.241610738255	18	0.600058800168335	2	3	4	NaN	1	5	0.118274082371019	0	1	NaN	161	3	35	2	120	220	320	NaN	520	0.570015975274146	2	0	NaN	3724699.2576723	NaN	3724700.2410755	3724700.75761042
106	19	0	0	90	36.1581920903955	36.241610738255	15	0.50004900014028	2	1	6	NaN	1	4	0.118274082371019	0	1	NaN	162	3	36	2	120	220	320	NaN	520	0.342375374864787	2	0	NaN	3724702.1412799	NaN	3724703.124668	3724703.64121793
106	19	0	0	90	36.1581920903955	36.241610738255	10	0.33336600009352	2	6	2	NaN	1	3	0.118274082371019	0	1	NaN	163	3	37	2	120	220	320	NaN	520	0.276097075082362	1	1	NaN	3724704.7915364	NaN	3724705.7749594	3724706.29148322
106	19	0	0	90	36.1581920903955	36.241610738255	20	0.666732000187039	2	10	1	NaN	2	5	0.118274082371019	0	1	NaN	164	3	38	2	120	220	320	NaN	520	0.700893222820014	2	1	NaN	3724707.3751261	NaN	3724708.3585313	3724708.87506668
106	19	0	0	90	36.1581920903955	36.241610738255	11	0.366702600102872	2	1	6	NaN	1	4	0.118274082371019	0	1	NaN	165	3	39	2	120	220	320	NaN	520	0.747507275082171	2	0	NaN	3724710.3921164	NaN	3724711.375495	3724711.89205123
106	19	0	0	90	36.1581920903955	36.241610738255	14	0.466712400130928	2	2	2	NaN	1	3	0.118274082371019	0	1	NaN	166	3	40	2	120	220	320	NaN	520	0.145366175100207	1	1	NaN	3724713.4423973	NaN	3724714.425779	3724714.94232812
106	19	0	0	90	36.1581920903955	36.241610738255	19	0.633395400177687	2	6	2	NaN	1	4	0.118274082371019	0	1	NaN	167	3	41	2	120	220	320	NaN	520	0.561186175327748	1	1	NaN	3724716.2425187	NaN	3724717.2260718	3724717.74260532
106	19	0	0	90	36.1581920903955	36.241610738255	17	0.566722200158984	2	7	3	NaN	2	3	0.118274082371019	0	1	NaN	168	3	42	2	120	220	320	NaN	520	0.302347875200212	2	1	NaN	3724719.1096112	NaN	3724720.0930083	3724720.60955362
106	19	0	0	90	36.1581920903955	36.241610738255	22	0.733405200205743	2	8	3	NaN	2	3	0.118274082371019	0	1	NaN	169	3	43	2	120	220	320	NaN	520	0.309762775432318	2	1	NaN	3724721.7099542	NaN	3724722.6932771	3724723.20981052
106	19	0	0	90	36.1581920903955	36.241610738255	14	0.466712400130928	2	1	3	NaN	1	4	0.118274082371019	0	1	NaN	170	3	44	2	120	220	320	NaN	520	0.628875474911183	2	0	NaN	3724724.3268093	NaN	3724725.3100825	3724725.82673403
106	19	0	0	90	36.1581920903955	36.241610738255	25	0.833415000233799	2	12	2	NaN	2	3	0.118274082371019	0	1	NaN	171	3	45	2	120	220	320	NaN	520	0.5023158271797	2	1	NaN	3724727.2770891	NaN	3724728.2604835	3724728.77702607
106	19	0	0	90	36.1581920903955	36.241610738255	18	0.600058800168335	2	6	4	NaN	1	3	0.118274082371019	0	1	NaN	172	3	46	2	120	220	320	NaN	520	0.17378787510097	1	1	NaN	3724730.0940265	NaN	3724731.0774201	3724731.59396232
106	19	0	0	90	36.1581920903955	36.241610738255	22	0.733405200205743	2	7	4	NaN	2	3	0.118274082371019	0	1	NaN	173	3	47	2	120	220	320	NaN	520	0.450083075091243	2	1	NaN	3724732.5775837	NaN	3724733.5610454	3724734.07754022
106	19	0	0	90	36.1581920903955	36.241610738255	8	0.266692800074816	2	9	4	NaN	2	5	0.118274082371019	0	1	NaN	174	3	48	2	120	220	320	NaN	520	0.211132975295186	1	0	NaN	3724735.3445481	NaN	3724736.3279487	3724736.84450162
106	19	0	0	90	36.1581920903955	36.241610738255	9	0.300029400084168	2	9	3	NaN	2	3	0.118274082371019	0	1	NaN	175	3	49	2	120	220	320	NaN	520	0.413882387802005	2	1	NaN	3724737.8781197	NaN	3724738.8615247	3724739.37806301
106	19	0	0	90	36.1581920903955	36.241610738255	18	0.600058800168335	2	10	1	NaN	2	5	0.118274082371019	0	1	NaN	176	3	50	2	120	220	320	NaN	520	0.416721122805029	2	1	NaN	3724740.5950446	NaN	3724741.5784535	3724742.09499608
106	19	0	0	90	36.1581920903955	36.241610738255	19	0.633395400177687	2	10	2	NaN	2	4	0.118274082371019	0	1	NaN	177	3	51	2	120	220	320	NaN	520	0.259411327075213	1	0	NaN	3724743.3286514	NaN	3724744.3120687	3724744.82859527
106	19	0	0	90	36.1581920903955	36.241610738255	15	0.50004900014028	2	10	4	NaN	2	4	0.118274082371019	0	1	NaN	178	3	52	2	120	220	320	NaN	520	0.796334835235029	2	1	NaN	3724745.8955619	NaN	3724746.8790063	3724747.39552176
106	19	0	0	90	36.1581920903955	36.241610738255	19	0.633395400177687	2	10	1	NaN	2	4	0.118274082371019	0	1	NaN	179	3	53	2	120	220	320	NaN	520	0.351088275201619	2	1	NaN	3724749.0123977	NaN	3724749.995951	3724750.51248242
106	19	0	0	90	36.1581920903955	36.241610738255	7	0.233356200065464	2	6	5	NaN	1	3	0.118274082371019	0	1	NaN	180	3	54	2	120	220	320	NaN	520	0.204158674925566	2	0	NaN	3724751.6794787	NaN	3724752.6628516	3724753.17941443
106	19	0	0	90	36.1581920903955	36.241610738255	16	0.533385600149632	2	3	6	NaN	1	5	0.118274082371019	0	1	NaN	181	3	55	2	120	220	320	NaN	520	0.855648974888027	1	1	NaN	3724754.1963341	NaN	3724755.1797935	3724755.69633383
106	19	0	0	90	36.1581920903955	36.241610738255	24	0.800078400224447	2	7	2	NaN	2	4	0.118274082371019	0	1	NaN	182	3	56	2	120	220	320	NaN	520	0.360554675105959	2	1	NaN	3724757.3633614	NaN	3724758.346772	3724758.86331032
106	19	0	0	90	36.1581920903955	36.241610738255	18	0.600058800168335	2	8	4	NaN	2	5	0.118274082371019	0	1	NaN	183	3	57	2	120	220	320	NaN	520	0.421435975003988	2	1	NaN	3724760.0301685	NaN	3724761.0136817	3724761.53023992
106	19	0	0	90	36.1581920903955	36.241610738255	17	0.566722200158984	2	2	6	NaN	1	4	0.118274082371019	0	1	NaN	184	3	58	2	120	220	320	NaN	520	0.271882575005293	2	0	NaN	3724762.7638896	NaN	3724763.7473055	3724764.26383402
106	19	0	0	90	36.1581920903955	36.241610738255	20	0.666732000187039	2	5	6	NaN	1	3	0.118274082371019	0	1	NaN	185	3	59	2	120	220	320	NaN	520	0.232529827393591	1	1	NaN	3724765.3474767	NaN	3724766.3308917	3724766.84743317
106	19	0	0	90	36.1581920903955	36.241610738255	15	0.50004900014028	2	9	6	NaN	2	3	0.118274082371019	0	1	NaN	186	3	60	2	120	220	320	NaN	520	0.330727974884212	2	1	NaN	3724767.8810803	NaN	3724768.864464	3724769.38100273
106	19	0	0	90	36.1581920903955	36.241610738255	19	0.633395400177687	2	11	4	NaN	2	5	0.118274082371019	0	1	NaN	187	3	61	2	120	220	320	NaN	520	0.249451922718436	2	1	NaN	3724770.5145357	NaN	3724771.4980578	3724772.01459418
106	19	0	0	90	36.1581920903955	36.241610738255	15	0.50004900014028	2	2	5	NaN	1	4	0.118274082371019	0	1	NaN	188	3	62	2	120	220	320	NaN	520	3.53009487502277	2	0	NaN	3724773.0815813	NaN	3724774.0649749	3724774.58151582
106	19	0	0	90	36.1581920903955	36.241610738255	24	0.800078400224447	2	8	1	NaN	2	3	0.118274082371019	0	1	NaN	189	3	63	2	120	220	320	NaN	520	1.02346614329144	1	0	NaN	3724778.9321439	NaN	3724779.9155611	3724780.43209806
106	19	0	0	90	36.1581920903955	36.241610738255	13	0.433375800121576	2	11	2	NaN	2	5	0.118274082371019	0	1	NaN	190	4	1	2	120	220	320	NaN	520	0.0103917275555432	2	1	NaN	3724824.9533331	NaN	3724825.9367369	3724826.45327887
106	19	0	0	90	36.1581920903955	36.241610738255	6	0.200019600056112	2	1	4	NaN	1	4	0.118274082371019	0	1	NaN	191	4	2	2	120	220	320	NaN	520	0.0104083749465644	1	1	NaN	3724827.2869263	NaN	3724828.2702872	3724828.78683612
106	19	0	0	90	36.1581920903955	36.241610738255	25	0.833415000233799	2	5	6	NaN	1	4	0.118274082371019	0	1	NaN	192	4	3	2	120	220	320	NaN	520	0.109369327314198	2	0	NaN	3724829.6704644	NaN	3724830.6538816	3724831.17041617
106	19	0	0	90	36.1581920903955	36.241610738255	21	0.700068600196391	2	2	3	NaN	1	4	0.118274082371019	0	1	NaN	193	4	4	2	120	220	320	NaN	520	0.364708475302905	2	0	NaN	3724832.087235	NaN	3724833.0707612	3724833.58731222
106	19	0	0	90	36.1581920903955	36.241610738255	18	0.600058800168335	2	2	4	NaN	1	5	0.118274082371019	0	1	NaN	194	4	5	2	120	220	320	NaN	520	0.049012023024261	1	1	NaN	3724834.7709623	NaN	3724835.7544056	3724836.27090788
106	19	0	0	90	36.1581920903955	36.241610738255	20	0.666732000187039	2	4	2	NaN	1	4	0.118274082371019	0	1	NaN	195	4	6	2	120	220	320	NaN	520	0.458209623117	1	1	NaN	3724837.1377415	NaN	3724838.1212667	3724838.63780888
106	19	0	0	90	36.1581920903955	36.241610738255	9	0.300029400084168	2	5	2	NaN	1	3	0.118274082371019	0	1	NaN	196	4	7	2	120	220	320	NaN	520	0.484391770791262	1	1	NaN	3724840.0714808	NaN	3724841.0549024	3724841.57142593
106	19	0	0	90	36.1581920903955	36.241610738255	25	0.833415000233799	2	9	4	NaN	2	3	0.118274082371019	0	1	NaN	197	4	8	2	120	220	320	NaN	520	0.252161775249988	1	0	NaN	3724842.8717514	NaN	3724843.8551901	3724844.37170172
106	19	0	0	90	36.1581920903955	36.241610738255	25	0.833415000233799	2	3	6	NaN	1	4	0.118274082371019	0	1	NaN	198	4	9	2	120	220	320	NaN	520	0.405398475471884	2	0	NaN	3724845.438673	NaN	3724846.4220864	3724846.93862512
106	19	0	0	90	36.1581920903955	36.241610738255	17	0.566722200158984	2	9	3	NaN	2	3	0.118274082371019	0	1	NaN	199	4	10	2	120	220	320	NaN	520	0.608279335312545	2	1	NaN	3724848.1557008	NaN	3724849.1390111	3724849.65555976
106	19	0	0	90	36.1581920903955	36.241610738255	20	0.666732000187039	2	4	5	NaN	1	5	0.118274082371019	0	1	NaN	200	4	11	2	120	220	320	NaN	520	0.522851975169033	1	1	NaN	3724851.0892323	NaN	3724852.0726441	3724852.58918032
106	19	0	0	90	36.1581920903955	36.241610738255	6	0.200019600056112	2	2	5	NaN	1	3	0.118274082371019	0	1	NaN	201	4	12	2	120	220	320	NaN	520	1.1932448274456	2	0	NaN	3724853.9228563	NaN	3724854.9062418	3724855.42279507
106	19	0	0	90	36.1581920903955	36.241610738255	14	0.466712400130928	2	11	5	NaN	2	3	0.118274082371019	0	1	NaN	202	4	13	2	120	220	320	NaN	520	0.685047775041312	2	1	NaN	3724857.4231821	NaN	3724858.4065976	3724858.92313633
106	19	0	0	90	36.1581920903955	36.241610738255	13	0.433375800121576	2	8	4	NaN	2	3	0.118274082371019	0	1	NaN	203	4	14	2	120	220	320	NaN	520	1.11646767472848	2	1	NaN	3724860.42357	NaN	3724861.4068797	3724861.92342843
106	19	0	0	90	36.1581920903955	36.241610738255	9	0.300029400084168	2	7	1	NaN	2	4	0.118274082371019	0	1	NaN	204	4	15	2	120	220	320	NaN	520	0.242687322665006	2	1	NaN	3724863.857155	NaN	3724864.8405608	3724865.35709908
106	19	0	0	90	36.1581920903955	36.241610738255	11	0.366702600102872	2	3	5	NaN	1	3	0.118274082371019	0	1	NaN	205	4	16	2	120	220	320	NaN	520	0.0104129747487605	1	1	NaN	3724866.4073057	NaN	3724867.3908005	3724867.90734563
106	19	0	0	90	36.1581920903955	36.241610738255	10	0.33336600009352	2	5	3	NaN	1	3	0.118274082371019	0	1	NaN	206	4	17	2	120	220	320	NaN	520	0.839762275107205	1	1	NaN	3724868.7242862	NaN	3724869.7077571	3724870.22423832
106	19	0	0	90	36.1581920903955	36.241610738255	17	0.566722200158984	2	6	5	NaN	1	4	0.118274082371019	0	1	NaN	207	4	18	2	120	220	320	NaN	520	0.68125927541405	1	1	NaN	3724871.8745964	NaN	3724872.8580099	3724873.37455862
106	19	0	0	90	36.1581920903955	36.241610738255	24	0.800078400224447	2	7	2	NaN	2	5	0.118274082371019	0	1	NaN	208	4	19	2	120	220	320	NaN	520	0.417225774843246	2	1	NaN	3724874.8749024	NaN	3724875.8583154	3724876.37485213
106	19	0	0	90	36.1581920903955	36.241610738255	9	0.300029400084168	2	3	1	NaN	1	4	0.118274082371019	0	1	NaN	209	4	20	2	120	220	320	NaN	520	0.987398827448487	1	1	NaN	3724877.6084098	NaN	3724878.5919049	3724879.10845507
106	19	0	0	90	36.1581920903955	36.241610738255	23	0.766741800215095	2	8	3	NaN	2	3	0.118274082371019	0	1	NaN	210	4	21	2	120	220	320	NaN	520	0.383219527546316	2	1	NaN	3724880.9088342	NaN	3724881.8922409	3724882.40877517
106	19	0	0	90	36.1581920903955	36.241610738255	12	0.400039200112224	2	12	4	NaN	2	5	0.118274082371019	0	1	NaN	211	4	22	2	120	220	320	NaN	520	1.13918222719803	2	1	NaN	3724883.6091008	NaN	3724884.5925002	3724885.10903487
106	19	0	0	90	36.1581920903955	36.241610738255	8	0.266692800074816	2	1	5	NaN	1	5	0.118274082371019	0	1	NaN	212	4	23	2	120	220	320	NaN	520	0.120781775098294	1	1	NaN	3724887.0594302	NaN	3724888.0428477	3724888.55938012
106	19	0	0	90	36.1581920903955	36.241610738255	10	0.33336600009352	2	12	6	NaN	2	5	0.118274082371019	0	1	NaN	213	4	24	2	120	220	320	NaN	520	0.326961074955761	2	1	NaN	3724889.4930088	NaN	3724890.476406	3724890.99294883
106	19	0	0	90	36.1581920903955	36.241610738255	25	0.833415000233799	2	8	4	NaN	2	5	0.118274082371019	0	1	NaN	214	4	25	2	120	220	320	NaN	520	0.235281575471163	2	1	NaN	3724892.3764921	NaN	3724893.3600319	3724893.87656222
106	19	0	0	90	36.1581920903955	36.241610738255	15	0.50004900014028	2	2	5	NaN	1	5	0.118274082371019	0	1	NaN	215	4	26	2	120	220	320	NaN	520	0.556890075094998	2	0	NaN	3724894.9268709	NaN	3724895.9102623	3724896.42682063
106	19	0	0	90	36.1581920903955	36.241610738255	16	0.533385600149632	2	2	2	NaN	1	3	0.118274082371019	0	1	NaN	216	4	27	2	120	220	320	NaN	520	0.338361070491374	1	1	NaN	3724897.7938227	NaN	3724898.7772028	3724899.29376543
106	19	0	0	90	36.1581920903955	36.241610738255	13	0.433375800121576	2	3	2	NaN	1	4	0.118274082371019	0	1	NaN	217	4	28	2	120	220	320	NaN	520	0.255758523009717	1	1	NaN	3724900.4440857	NaN	3724901.4274899	3724901.94401738
106	19	0	0	90	36.1581920903955	36.241610738255	14	0.466712400130928	2	5	1	NaN	1	3	0.118274082371019	0	1	NaN	218	4	29	2	120	220	320	NaN	520	3.0325619308278	2	0	NaN	3724903.0110113	NaN	3724903.9944172	3724904.51093987
106	19	0	0	90	36.1581920903955	36.241610738255	21	0.700068600196391	2	2	5	NaN	1	5	0.118274082371019	0	1	NaN	219	4	30	2	120	220	320	NaN	520	0.274105875287205	1	1	NaN	3724908.3615338	NaN	3724909.3449158	3724909.86147372
106	19	0	0	90	36.1581920903955	36.241610738255	25	0.833415000233799	2	6	3	NaN	1	4	0.118274082371019	0	1	NaN	220	4	31	2	120	220	320	NaN	520	0.506714174989611	1	1	NaN	3724910.9451035	NaN	3724911.9285191	3724912.44505773
106	19	0	0	90	36.1581920903955	36.241610738255	16	0.533385600149632	2	10	1	NaN	2	5	0.118274082371019	0	1	NaN	221	4	32	2	120	220	320	NaN	520	0.953698622994125	2	1	NaN	3724913.761924	NaN	3724914.7454535	3724915.26199748
106	19	0	0	90	36.1581920903955	36.241610738255	11	0.366702600102872	2	9	1	NaN	2	4	0.118274082371019	0	1	NaN	222	4	33	2	120	220	320	NaN	520	0.727210283279419	2	1	NaN	3724917.0289153	NaN	3724918.0123504	3724918.52898312
106	19	0	0	90	36.1581920903955	36.241610738255	25	0.833415000233799	2	10	4	NaN	2	3	0.118274082371019	0	1	NaN	223	4	34	2	120	220	320	NaN	520	0.885426575317979	2	1	NaN	3724920.0626862	NaN	3724921.0460772	3724921.56262062
106	19	0	0	90	36.1581920903955	36.241610738255	19	0.633395400177687	2	5	3	NaN	1	5	0.118274082371019	0	1	NaN	224	4	35	2	120	220	320	NaN	520	0.428872475400567	2	0	NaN	3724923.2629845	NaN	3724924.2463841	3724924.76293382
106	19	0	0	90	36.1581920903955	36.241610738255	23	0.766741800215095	2	3	6	NaN	1	5	0.118274082371019	0	1	NaN	225	4	36	2	120	220	320	NaN	520	0.694989175535738	2	0	NaN	3724925.9966341	NaN	3724926.979977	3724927.49653032
106	19	0	0	90	36.1581920903955	36.241610738255	20	0.666732000187039	2	8	5	NaN	2	4	0.118274082371019	0	1	NaN	226	4	37	2	120	220	320	NaN	520	1.47090519219637	2	1	NaN	3724928.9968794	NaN	3724929.9802996	3724930.49683321
106	19	0	0	90	36.1581920903955	36.241610738255	6	0.200019600056112	2	3	3	NaN	1	3	0.118274082371019	0	1	NaN	227	4	38	2	120	220	320	NaN	520	0.0104107749648392	1	1	NaN	3724932.9306046	NaN	3724933.9139848	3724934.43054223
106	19	0	0	90	36.1581920903955	36.241610738255	15	0.50004900014028	2	7	5	NaN	2	4	0.118274082371019	0	1	NaN	228	4	39	2	120	220	320	NaN	520	0.548482974991202	2	1	NaN	3724935.24736	NaN	3724936.2309517	3724936.74744353
106	19	0	0	90	36.1581920903955	36.241610738255	15	0.50004900014028	2	4	3	NaN	1	3	0.118274082371019	0	1	NaN	229	4	40	2	120	220	320	NaN	520	0.673576375003904	2	0	NaN	3724938.1144604	NaN	3724939.097838	3724939.61439752
106	19	0	0	90	36.1581920903955	36.241610738255	24	0.800078400224447	2	1	5	NaN	1	4	0.118274082371019	0	1	NaN	230	4	41	2	120	220	320	NaN	520	0.0339205227792263	1	1	NaN	3724941.0980712	NaN	3724942.081488	3724942.59801158
106	19	0	0	90	36.1581920903955	36.241610738255	13	0.433375800121576	2	7	4	NaN	2	4	0.118274082371019	0	1	NaN	231	4	42	2	120	220	320	NaN	520	0.0104071274399757	2	1	NaN	3724943.448293	NaN	3724944.4317028	3724944.94825497
106	19	0	0	90	36.1581920903955	36.241610738255	21	0.700068600196391	2	6	5	NaN	1	5	0.118274082371019	0	1	NaN	232	4	43	2	120	220	320	NaN	520	0.271079774945974	1	1	NaN	3724945.765191	NaN	3724946.7486048	3724947.26514442
106	19	0	0	90	36.1581920903955	36.241610738255	6	0.200019600056112	2	11	4	NaN	2	3	0.118274082371019	0	1	NaN	233	4	44	2	120	220	320	NaN	520	0.447187475394458	2	1	NaN	3724948.3487927	NaN	3724949.3321792	3724949.84872592
106	19	0	0	90	36.1581920903955	36.241610738255	10	0.33336600009352	2	8	1	NaN	2	5	0.118274082371019	0	1	NaN	234	4	45	2	120	220	320	NaN	520	0.200330183375627	1	0	NaN	3724951.1156057	NaN	3724952.0990053	3724952.61567302
106	19	0	0	90	36.1581920903955	36.241610738255	12	0.400039200112224	2	7	2	NaN	2	4	0.118274082371019	0	1	NaN	235	4	46	2	120	220	320	NaN	520	0.0104030752554536	2	1	NaN	3724953.632502	NaN	3724954.6160342	3724955.13258182
106	19	0	0	90	36.1581920903955	36.241610738255	23	0.766741800215095	2	10	4	NaN	2	3	0.118274082371019	0	1	NaN	236	4	47	2	120	220	320	NaN	520	0.398432123009115	2	1	NaN	3724955.9494699	NaN	3724956.9329489	3724957.44947748
106	19	0	0	90	36.1581920903955	36.241610738255	25	0.833415000233799	2	10	4	NaN	2	5	0.118274082371019	0	1	NaN	237	4	48	2	120	220	320	NaN	520	0.313147822860628	2	1	NaN	3724958.6664755	NaN	3724959.6498629	3724960.16641488
106	19	0	0	90	36.1581920903955	36.241610738255	23	0.766741800215095	2	9	5	NaN	2	4	0.118274082371019	0	1	NaN	238	4	49	2	120	220	320	NaN	520	0.408202374819666	2	1	NaN	3724961.2999731	NaN	3724962.2834707	3724962.79999813
106	19	0	0	90	36.1581920903955	36.241610738255	17	0.566722200158984	2	12	4	NaN	2	4	0.118274082371019	0	1	NaN	239	4	50	2	120	220	320	NaN	520	1.1472049751319	2	1	NaN	3724964.016885	NaN	3724965.000397	3724965.51693502
106	19	0	0	90	36.1581920903955	36.241610738255	8	0.266692800074816	2	5	3	NaN	1	5	0.118274082371019	0	1	NaN	240	4	51	2	120	220	320	NaN	520	0.0104257231578231	2	0	NaN	3724967.4839957	NaN	3724968.4674051	3724968.98394708
106	19	0	0	90	36.1581920903955	36.241610738255	24	0.800078400224447	2	11	2	NaN	2	3	0.118274082371019	0	1	NaN	241	4	52	2	120	220	320	NaN	520	0.066849475260824	2	1	NaN	3724969.8008234	NaN	3724970.7842828	3724971.30083242
106	19	0	0	90	36.1581920903955	36.241610738255	11	0.366702600102872	2	10	3	NaN	2	3	0.118274082371019	0	1	NaN	242	4	53	2	120	220	320	NaN	520	0.332533922977746	2	1	NaN	3724972.1676931	NaN	3724973.1512354	3724973.66773178
106	19	0	0	90	36.1581920903955	36.241610738255	21	0.700068600196391	2	8	5	NaN	2	4	0.118274082371019	0	1	NaN	243	4	54	2	120	220	320	NaN	520	1.19463187502697	2	1	NaN	3724974.8013868	NaN	3724975.784779	3724976.30132042
106	19	0	0	90	36.1581920903955	36.241610738255	7	0.233356200065464	2	7	6	NaN	2	3	0.118274082371019	0	1	NaN	244	4	55	2	120	220	320	NaN	520	0.358487674966455	2	1	NaN	3724978.3016177	NaN	3724979.2851517	3724979.80168932
106	19	0	0	90	36.1581920903955	36.241610738255	7	0.233356200065464	2	7	1	NaN	2	4	0.118274082371019	0	1	NaN	245	4	56	2	120	220	320	NaN	520	0.890842323191464	1	0	NaN	3724980.9853199	NaN	3724981.9687504	3724982.48526408
106	19	0	0	90	36.1581920903955	36.241610738255	13	0.433375800121576	2	6	5	NaN	1	4	0.118274082371019	0	1	NaN	246	4	57	2	120	220	320	NaN	520	0.0104110748507082	2	0	NaN	3724984.1856323	NaN	3724985.1690459	3724985.68558493
106	19	0	0	90	36.1581920903955	36.241610738255	22	0.733405200205743	2	2	2	NaN	1	3	0.118274082371019	0	1	NaN	247	4	58	2	120	220	320	NaN	520	0.0104067754000425	1	1	NaN	3724986.5525842	NaN	3724987.5359432	3724988.05248122
106	19	0	0	90	36.1581920903955	36.241610738255	23	0.766741800215095	2	11	6	NaN	2	4	0.118274082371019	0	1	NaN	248	4	59	2	120	220	320	NaN	520	0.0104089751839638	2	1	NaN	3724988.8861034	NaN	3724989.8695077	3724990.38604312
106	19	0	0	90	36.1581920903955	36.241610738255	11	0.366702600102872	2	11	1	NaN	2	5	0.118274082371019	0	1	NaN	249	4	60	2	120	220	320	NaN	520	4.94466942735016	2	1	NaN	3724991.2028431	NaN	3724992.1863983	3724992.70294907
106	19	0	0	90	36.1581920903955	36.241610738255	22	0.733405200205743	2	5	4	NaN	1	5	0.118274082371019	0	1	NaN	250	4	61	2	120	220	320	NaN	520	0.0104084750637412	1	1	NaN	3724998.453702	NaN	3724999.4371159	3724999.95364892
106	19	0	0	90	36.1581920903955	36.241610738255	6	0.200019600056112	2	7	4	NaN	2	5	0.118274082371019	0	1	NaN	251	4	62	2	120	220	320	NaN	520	0.010412575211376	2	1	NaN	3725000.7706038	NaN	3725001.7540206	3725002.27054422
106	19	0	0	90	36.1581920903955	36.241610738255	23	0.766741800215095	2	8	5	NaN	2	3	0.118274082371019	0	1	NaN	252	4	63	2	120	220	320	NaN	520	0.796890826895833	2	1	NaN	3725003.0873682	NaN	3725004.0709051	3725004.58744597
106	19	0	0	90	36.1581920903955	36.241610738255	7	0.233356200065464	2	5	5	NaN	1	4	0.118274082371019	0	1	NaN	253	5	1	2	120	220	320	NaN	520	1.38900649175048	1	1	NaN	3725043.3914708	NaN	3725044.3748827	3725044.89139351
106	19	0	0	90	36.1581920903955	36.241610738255	10	0.33336600009352	2	5	4	NaN	1	3	0.118274082371019	0	1	NaN	254	5	2	2	120	220	320	NaN	520	1.0724557749927	2	0	NaN	3725047.0918222	NaN	3725048.0752135	3725048.59175783
106	19	0	0	90	36.1581920903955	36.241610738255	6	0.200019600056112	2	4	6	NaN	1	5	0.118274082371019	0	1	NaN	255	5	3	2	120	220	320	NaN	520	1.17666697502136	1	1	NaN	3725050.4754788	NaN	3725051.4588848	3725051.97542642
106	19	0	0	90	36.1581920903955	36.241610738255	19	0.633395400177687	2	5	5	NaN	1	5	0.118274082371019	0	1	NaN	256	5	4	2	120	220	320	NaN	520	1.62104877503589	1	1	NaN	3725053.9591588	NaN	3725054.942569	3725055.45909692
106	19	0	0	90	36.1581920903955	36.241610738255	10	0.33336600009352	2	3	5	NaN	1	4	0.118274082371019	0	1	NaN	257	5	5	2	120	220	320	NaN	520	0.383570227306336	1	1	NaN	3725057.8928855	NaN	3725058.8762875	3725059.39281447
106	19	0	0	90	36.1581920903955	36.241610738255	17	0.566722200158984	2	10	2	NaN	2	5	0.118274082371019	0	1	NaN	258	5	6	2	120	220	320	NaN	520	0.443252078723162	1	0	NaN	3725060.5931421	NaN	3725061.5765312	3725062.09309202
106	19	0	0	90	36.1581920903955	36.241610738255	7	0.233356200065464	2	8	6	NaN	2	5	0.118274082371019	0	1	NaN	259	5	7	2	120	220	320	NaN	520	0.22890117065981	2	1	NaN	3725063.3434096	NaN	3725064.3268312	3725064.84335903
106	19	0	0	90	36.1581920903955	36.241610738255	17	0.566722200158984	2	10	3	NaN	2	5	0.118274082371019	0	1	NaN	260	5	8	2	120	220	320	NaN	520	0.615122943650931	2	1	NaN	3725065.8770834	NaN	3725066.8603926	3725067.37694816
106	19	0	0	90	36.1581920903955	36.241610738255	22	0.733405200205743	2	6	5	NaN	1	3	0.118274082371019	0	1	NaN	261	5	9	2	120	220	320	NaN	520	0.084154527168721	1	1	NaN	3725068.9439599	NaN	3725069.9273673	3725070.44390977
106	19	0	0	90	36.1581920903955	36.241610738255	18	0.600058800168335	2	4	2	NaN	1	3	0.118274082371019	0	1	NaN	262	5	10	2	120	220	320	NaN	520	0.380327522754669	1	1	NaN	3725071.3442038	NaN	3725072.3275866	3725072.84414298
106	19	0	0	90	36.1581920903955	36.241610738255	6	0.200019600056112	2	9	2	NaN	2	5	0.118274082371019	0	1	NaN	263	5	11	2	120	220	320	NaN	520	0.232587475329638	2	1	NaN	3725074.027792	NaN	3725075.011217	3725075.52775062
106	19	0	0	90	36.1581920903955	36.241610738255	24	0.800078400224447	2	12	3	NaN	2	5	0.118274082371019	0	1	NaN	264	5	12	2	120	220	320	NaN	520	0.274169275537133	2	1	NaN	3725076.5779294	NaN	3725077.5614309	3725078.07798792
106	19	0	0	90	36.1581920903955	36.241610738255	21	0.700068600196391	2	4	6	NaN	1	3	0.118274082371019	0	1	NaN	265	5	13	2	120	220	320	NaN	520	0.283513974864036	1	1	NaN	3725079.5450534	NaN	3725080.5284008	3725081.04494782
106	19	0	0	90	36.1581920903955	36.241610738255	6	0.200019600056112	2	10	6	NaN	2	4	0.118274082371019	0	1	NaN	266	5	14	2	120	220	320	NaN	520	0.243057675193995	2	1	NaN	3725082.1452648	NaN	3725083.1286673	3725083.64520252
106	19	0	0	90	36.1581920903955	36.241610738255	20	0.666732000187039	2	5	6	NaN	1	4	0.118274082371019	0	1	NaN	267	5	15	2	120	220	320	NaN	520	0.404716775286943	2	0	NaN	3725084.6955028	NaN	3725085.6789126	3725086.19546952
106	19	0	0	90	36.1581920903955	36.241610738255	11	0.366702600102872	2	2	1	NaN	1	5	0.118274082371019	0	1	NaN	268	5	16	2	120	220	320	NaN	520	0.327814975287765	1	1	NaN	3725087.4124312	NaN	3725088.3958372	3725088.91237972
106	19	0	0	90	36.1581920903955	36.241610738255	9	0.300029400084168	2	8	4	NaN	2	5	0.118274082371019	0	1	NaN	269	5	17	2	120	220	320	NaN	520	0.389494074974209	2	1	NaN	3725090.0626981	NaN	3725091.0460996	3725091.56264503
106	19	0	0	90	36.1581920903955	36.241610738255	23	0.766741800215095	2	9	6	NaN	2	4	0.118274082371019	0	1	NaN	270	5	18	2	120	220	320	NaN	520	0.329608474858105	1	0	NaN	3725092.7629733	NaN	3725093.7463388	3725094.26290662
106	19	0	0	90	36.1581920903955	36.241610738255	20	0.666732000187039	2	11	6	NaN	2	5	0.118274082371019	0	1	NaN	271	5	19	2	120	220	320	NaN	520	0.319844927173108	2	1	NaN	3725095.396552	NaN	3725096.3799759	3725096.89650887
106	19	0	0	90	36.1581920903955	36.241610738255	10	0.33336600009352	2	6	1	NaN	1	5	0.118274082371019	0	1	NaN	272	5	20	2	120	220	320	NaN	520	0.190172074828297	1	1	NaN	3725098.0301552	NaN	3725099.0135491	3725099.53009222
106	19	0	0	90	36.1581920903955	36.241610738255	22	0.733405200205743	2	10	6	NaN	2	4	0.118274082371019	0	1	NaN	273	5	21	2	120	220	320	NaN	520	0.233477175235748	2	1	NaN	3725100.5304978	NaN	3725101.5138202	3725102.03034002
106	19	0	0	90	36.1581920903955	36.241610738255	8	0.266692800074816	2	7	5	NaN	2	5	0.118274082371019	0	1	NaN	274	5	22	2	120	220	320	NaN	520	0.0104811140336096	2	1	NaN	3725103.5639991	NaN	3725104.5474252	3725105.06397099
106	19	0	0	90	36.1581920903955	36.241610738255	12	0.400039200112224	2	3	2	NaN	1	4	0.118274082371019	0	1	NaN	275	5	23	2	120	220	320	NaN	520	0.81861637532711	1	1	NaN	3725105.8975632	NaN	3725106.8809986	3725107.39753982
106	19	0	0	90	36.1581920903955	36.241610738255	0	0	1	2	5	NaN	1	4	0.118274082371019	0	1	NaN	276	5	24	2	110	210	310	NaN	510	0.141691674944013	2	0	NaN	3725109.0145809	NaN	3725109.9979908	3725110.51450652
106	19	0	0	90	36.1581920903955	36.241610738255	7	0.233356200065464	2	3	5	NaN	1	4	0.118274082371019	0	1	NaN	277	5	25	2	120	220	320	NaN	520	0.251315927132964	1	1	NaN	3725111.4647912	NaN	3725112.4482224	3725112.96475077
106	19	0	0	90	36.1581920903955	36.241610738255	9	0.300029400084168	2	5	5	NaN	1	3	0.118274082371019	0	1	NaN	278	5	26	2	120	220	320	NaN	520	0.404463274870068	1	1	NaN	3725114.031716	NaN	3725115.0151546	3725115.53166632
106	19	0	0	90	36.1581920903955	36.241610738255	21	0.700068600196391	2	1	6	NaN	1	5	0.118274082371019	0	1	NaN	279	5	27	2	120	220	320	NaN	520	0.519926175475121	2	0	NaN	3725116.7486627	NaN	3725117.732062	3725118.24860082
106	19	0	0	90	36.1581920903955	36.241610738255	14	0.466712400130928	2	12	1	NaN	2	4	0.118274082371019	0	1	NaN	280	5	28	2	120	220	320	NaN	520	0.358237475156784	2	1	NaN	3725119.5822731	NaN	3725120.5657137	3725121.08221722
106	19	0	0	90	36.1581920903955	36.241610738255	22	0.733405200205743	2	3	2	NaN	1	5	0.118274082371019	0	1	NaN	281	5	29	2	120	220	320	NaN	520	0.299306127242744	1	1	NaN	3725122.2492033	NaN	3725123.2326179	3725123.74914567
106	19	0	0	90	36.1581920903955	36.241610738255	9	0.300029400084168	2	12	6	NaN	2	4	0.118274082371019	0	1	NaN	282	5	30	2	120	220	320	NaN	520	0.322391975205392	2	1	NaN	3725124.8661321	NaN	3725125.8495198	3725126.36608322
106	19	0	0	90	36.1581920903955	36.241610738255	7	0.233356200065464	2	10	5	NaN	2	3	0.118274082371019	0	1	NaN	283	5	31	2	120	220	320	NaN	520	0.312399874906987	1	0	NaN	3725127.4997173	NaN	3725128.4831038	3725128.99964892
106	19	0	0	90	36.1581920903955	36.241610738255	12	0.400039200112224	2	12	3	NaN	2	5	0.118274082371019	0	1	NaN	284	5	32	2	120	220	320	NaN	520	0.582937174942344	2	1	NaN	3725130.1333838	NaN	3725131.1167099	3725131.63324203
106	19	0	0	90	36.1581920903955	36.241610738255	19	0.633395400177687	2	9	3	NaN	2	3	0.118274082371019	0	1	NaN	285	5	33	2	120	220	320	NaN	520	0.250966174993664	2	1	NaN	3725133.0335754	NaN	3725134.0170003	3725134.53352593
106	19	0	0	90	36.1581920903955	36.241610738255	15	0.50004900014028	2	12	2	NaN	2	3	0.118274082371019	0	1	NaN	286	5	34	2	120	220	320	NaN	520	5.29960657516494	2	1	NaN	3725135.6004964	NaN	3725136.5838808	3725137.10045242
106	19	0	0	90	36.1581920903955	36.241610738255	19	0.633395400177687	2	4	4	NaN	1	4	0.118274082371019	0	1	NaN	287	5	35	2	120	220	320	NaN	520	1.01103217480704	2	0	NaN	3725143.2012463	NaN	3725144.1846639	3725144.70119203
106	19	0	0	90	36.1581920903955	36.241610738255	11	0.366702600102872	2	4	2	NaN	1	4	0.118274082371019	0	1	NaN	288	5	36	2	120	220	320	NaN	520	0.134410323109478	1	1	NaN	3725146.5182763	NaN	3725147.5016382	3725148.01819468
106	19	0	0	90	36.1581920903955	36.241610738255	14	0.466712400130928	2	9	2	NaN	2	5	0.118274082371019	0	1	NaN	289	5	37	2	120	220	320	NaN	520	0.283986227586865	2	1	NaN	3725148.9684795	NaN	3725149.9518969	3725150.46843327
106	19	0	0	90	36.1581920903955	36.241610738255	8	0.266692800074816	2	10	6	NaN	2	4	0.118274082371019	0	1	NaN	290	5	38	2	120	220	320	NaN	520	0.452194222714752	2	1	NaN	3725151.5520766	NaN	3725152.5354726	3725153.05200988
106	19	0	0	90	36.1581920903955	36.241610738255	16	0.533385600149632	2	2	2	NaN	1	4	0.118274082371019	0	1	NaN	291	5	39	2	120	220	320	NaN	520	0.765324423089623	2	0	NaN	3725154.318878	NaN	3725155.3024426	3725155.81895008
106	19	0	0	90	36.1581920903955	36.241610738255	6	0.200019600056112	2	4	4	NaN	1	3	0.118274082371019	0	1	NaN	292	5	40	2	120	220	320	NaN	520	0.0817138748243451	1	1	NaN	3725157.4026539	NaN	3725158.3860517	3725158.90259263
106	19	0	0	90	36.1581920903955	36.241610738255	20	0.666732000187039	2	7	1	NaN	2	5	0.118274082371019	0	1	NaN	293	5	41	2	120	220	320	NaN	520	0.121435674838722	1	0	NaN	3725159.802734	NaN	3725160.7863007	3725161.30282923
106	19	0	0	90	36.1581920903955	36.241610738255	9	0.300029400084168	2	11	1	NaN	2	5	0.118274082371019	0	1	NaN	294	5	42	2	120	220	320	NaN	520	0.0104100750759244	2	1	NaN	3725162.2363379	NaN	3725163.2198377	3725163.73640022
106	19	0	0	90	36.1581920903955	36.241610738255	0	0	1	5	3	NaN	1	5	0.118274082371019	0	1	NaN	295	5	43	2	110	210	310	NaN	510	0.0103662833571434	1	1	NaN	3725164.5532242	NaN	3725165.5367609	3725166.05329942
106	19	0	0	90	36.1581920903955	36.241610738255	25	0.833415000233799	2	8	1	NaN	2	5	0.118274082371019	0	1	NaN	296	5	44	2	120	220	320	NaN	520	0.806467074900866	2	1	NaN	3725166.8702431	NaN	3725167.8536581	3725168.37018652
106	19	0	0	90	36.1581920903955	36.241610738255	19	0.633395400177687	2	7	4	NaN	2	3	0.118274082371019	0	1	NaN	297	5	45	2	120	220	320	NaN	520	0.44139364361763	2	1	NaN	3725169.9872096	NaN	3725170.9705341	3725171.48716646
106	19	0	0	90	36.1581920903955	36.241610738255	10	0.33336600009352	2	3	5	NaN	1	4	0.118274082371019	0	1	NaN	298	5	46	2	120	220	320	NaN	520	0.466862274799496	1	1	NaN	3725172.7375022	NaN	3725173.7208846	3725174.23742973
106	19	0	0	90	36.1581920903955	36.241610738255	19	0.633395400177687	2	12	2	NaN	2	4	0.118274082371019	0	1	NaN	299	5	47	2	120	220	320	NaN	520	1.33142318762839	1	0	NaN	3725175.5210998	NaN	3725176.5045255	3725177.02104691
106	19	0	0	90	36.1581920903955	36.241610738255	0	0	1	10	6	NaN	2	3	0.118274082371019	0	1	NaN	300	5	48	2	110	210	310	NaN	510	0.593652122654021	2	1	NaN	3725179.154787	NaN	3725180.1381728	3725180.65472398
106	19	0	0	90	36.1581920903955	36.241610738255	12	0.400039200112224	2	8	1	NaN	2	4	0.118274082371019	0	1	NaN	301	5	49	2	120	220	320	NaN	520	0.429472275078297	2	1	NaN	3725182.0550743	NaN	3725183.0384757	3725183.55501152
106	19	0	0	90	36.1581920903955	36.241610738255	19	0.633395400177687	2	2	4	NaN	1	5	0.118274082371019	0	1	NaN	302	5	50	2	120	220	320	NaN	520	0.70519062737003	2	0	NaN	3725185.5552787	NaN	3725186.5388067	3725187.05536127
106	19	0	0	90	36.1581920903955	36.241610738255	9	0.300029400084168	2	6	4	NaN	1	4	0.118274082371019	0	1	NaN	303	5	51	2	120	220	320	NaN	520	0.280274335760623	1	1	NaN	3725188.5722493	NaN	3725189.5557703	3725190.07231756
106	19	0	0	90	36.1581920903955	36.241610738255	23	0.766741800215095	2	2	6	NaN	1	3	0.118274082371019	0	1	NaN	304	5	52	2	120	220	320	NaN	520	3.40039297519252	1	1	NaN	3725191.1559497	NaN	3725192.1393555	3725192.65590912
106	19	0	0	90	36.1581920903955	36.241610738255	25	0.833415000233799	2	1	2	NaN	1	4	0.118274082371019	0	1	NaN	305	5	53	2	120	220	320	NaN	520	0.695050227455795	2	0	NaN	3725196.973195	NaN	3725197.9566197	3725198.47314537
106	19	0	0	90	36.1581920903955	36.241610738255	14	0.466712400130928	2	2	4	NaN	1	3	0.118274082371019	0	1	NaN	306	5	54	2	120	220	320	NaN	520	0.57506442302838	2	0	NaN	3725199.9734937	NaN	3725200.9569001	3725201.47343518
106	19	0	0	90	36.1581920903955	36.241610738255	23	0.766741800215095	2	12	5	NaN	2	4	0.118274082371019	0	1	NaN	307	5	55	2	120	220	320	NaN	520	0.787256943527609	2	1	NaN	3725202.8571268	NaN	3725203.8405301	3725204.35705636
106	19	0	0	90	36.1581920903955	36.241610738255	22	0.733405200205743	2	11	3	NaN	2	5	0.118274082371019	0	1	NaN	308	5	56	2	120	220	320	NaN	520	0.0151866748929024	2	1	NaN	3725205.9574193	NaN	3725206.9408236	3725207.45735602
106	19	0	0	90	36.1581920903955	36.241610738255	18	0.600058800168335	2	12	4	NaN	2	5	0.118274082371019	0	1	NaN	309	5	57	2	120	220	320	NaN	520	0.0104195750318468	2	1	NaN	3725208.2908518	NaN	3725209.2743877	3725209.79094093
106	19	0	0	90	36.1581920903955	36.241610738255	16	0.533385600149632	2	12	4	NaN	2	4	0.118274082371019	0	1	NaN	310	5	58	2	120	220	320	NaN	520	0.100559922866523	2	1	NaN	3725210.6078898	NaN	3725211.5912851	3725212.10781268
106	19	0	0	90	36.1581920903955	36.241610738255	15	0.50004900014028	2	12	6	NaN	2	5	0.118274082371019	0	1	NaN	311	5	59	2	120	220	320	NaN	520	0.611932227388024	2	1	NaN	3725213.0247641	NaN	3725214.0081812	3725214.52472037
106	19	0	0	90	36.1581920903955	36.241610738255	25	0.833415000233799	2	11	3	NaN	2	5	0.118274082371019	0	1	NaN	312	5	60	2	120	220	320	NaN	520	0.174938122741878	2	1	NaN	3725215.9417347	NaN	3725216.9251266	3725217.44166758
106	19	0	0	90	36.1581920903955	36.241610738255	0	0	1	8	6	NaN	2	4	0.118274082371019	0	1	NaN	313	5	61	2	110	210	310	NaN	510	1.04331592749804	1	0	NaN	3725218.4252993	NaN	3725219.4087109	3725219.92525057
106	19	0	0	90	36.1581920903955	36.241610738255	24	0.800078400224447	2	9	6	NaN	2	4	0.118274082371019	0	1	NaN	314	5	62	2	120	220	320	NaN	520	0.17282837536186	1	0	NaN	3725221.7756234	NaN	3725222.7590327	3725223.27557162
106	19	0	0	90	36.1581920903955	36.241610738255	25	0.833415000233799	2	7	6	NaN	2	5	0.118274082371019	0	1	NaN	315	5	63	2	120	220	320	NaN	520	0.425506122875959	2	1	NaN	3725224.2592137	NaN	3725225.2425005	3725225.75915628
106	19	0	0	90	36.1581920903955	36.241610738255	24	0.800078400224447	2	3	4	NaN	1	5	0.118274082371019	0	1	NaN	316	6	1	2	120	220	320	NaN	520	0.323390375357121	2	0	NaN	3725291.649165	NaN	3725292.6325738	3725293.14910872
106	19	0	0	90	36.1581920903955	36.241610738255	14	0.466712400130928	2	7	6	NaN	2	3	0.118274082371019	0	1	NaN	317	6	2	2	120	220	320	NaN	520	0.545710923150182	2	1	NaN	3725294.282756	NaN	3725295.2662341	3725295.78269518
106	19	0	0	90	36.1581920903955	36.241610738255	18	0.600058800168335	2	10	5	NaN	2	3	0.118274082371019	0	1	NaN	318	6	3	2	120	220	320	NaN	520	0.374986827373505	2	1	NaN	3725297.1497004	NaN	3725298.1331068	3725298.64965137
106	19	0	0	90	36.1581920903955	36.241610738255	6	0.200019600056112	2	7	5	NaN	2	3	0.118274082371019	0	1	NaN	319	6	4	2	120	220	320	NaN	520	0.195489974692464	2	1	NaN	3725299.8333031	NaN	3725300.8167083	3725301.33324153
106	19	0	0	90	36.1581920903955	36.241610738255	19	0.633395400177687	2	9	3	NaN	2	4	0.118274082371019	0	1	NaN	320	6	5	2	120	220	320	NaN	520	0.246289075352252	2	1	NaN	3725302.3502128	NaN	3725303.3336348	3725303.85015502
106	19	0	0	90	36.1581920903955	36.241610738255	13	0.433375800121576	2	5	1	NaN	1	5	0.118274082371019	0	1	NaN	321	6	6	2	120	220	320	NaN	520	0.0104310228489339	1	1	NaN	3725304.9004763	NaN	3725305.883856	3725306.40040798
106	19	0	0	90	36.1581920903955	36.241610738255	22	0.733405200205743	2	5	6	NaN	1	4	0.118274082371019	0	1	NaN	322	6	7	2	120	220	320	NaN	520	0.0352165228687227	1	1	NaN	3725307.2174344	NaN	3725308.2007751	3725308.71729508
106	19	0	0	90	36.1581920903955	36.241610738255	15	0.50004900014028	2	3	2	NaN	1	5	0.118274082371019	0	1	NaN	323	6	8	2	120	220	320	NaN	520	0.495771375019103	2	0	NaN	3725310.1008493	NaN	3725311.0843877	3725311.60091812
106	19	0	0	90	36.1581920903955	36.241610738255	14	0.466712400130928	2	8	2	NaN	2	4	0.118274082371019	0	1	NaN	324	6	9	2	120	220	320	NaN	520	0.415274878963828	2	1	NaN	3725312.9012359	NaN	3725313.8846591	3725314.40120112
106	19	0	0	90	36.1581920903955	36.241610738255	10	0.33336600009352	2	11	1	NaN	2	3	0.118274082371019	0	1	NaN	325	6	10	2	120	220	320	NaN	520	0.154140823055059	2	1	NaN	3725315.6348542	NaN	3725316.6182562	3725317.13479058
106	19	0	0	90	36.1581920903955	36.241610738255	13	0.433375800121576	2	7	5	NaN	2	4	0.118274082371019	0	1	NaN	326	6	11	2	120	220	320	NaN	520	0.0104221231304109	1	0	NaN	3725318.1017518	NaN	3725319.0851672	3725319.60169778
106	19	0	0	90	36.1581920903955	36.241610738255	22	0.733405200205743	2	12	3	NaN	2	3	0.118274082371019	0	1	NaN	327	6	12	2	120	220	320	NaN	520	0.463566875085235	2	1	NaN	3725320.8852939	NaN	3725321.8687689	3725322.38531142
106	19	0	0	90	36.1581920903955	36.241610738255	6	0.200019600056112	2	6	6	NaN	1	4	0.118274082371019	0	1	NaN	328	6	13	2	120	220	320	NaN	520	0.296306075062603	1	1	NaN	3725323.6523043	NaN	3725324.635602	3725325.15227252
106	19	0	0	90	36.1581920903955	36.241610738255	16	0.533385600149632	2	6	6	NaN	1	4	0.118274082371019	0	1	NaN	329	6	14	2	120	220	320	NaN	520	0.607299474999309	1	1	NaN	3725326.2692353	NaN	3725327.2526337	3725327.76916522
106	19	0	0	90	36.1581920903955	36.241610738255	18	0.600058800168335	2	7	6	NaN	2	5	0.118274082371019	0	1	NaN	330	6	15	2	120	220	320	NaN	520	0.762696027290076	2	1	NaN	3725329.1861125	NaN	3725330.1695798	3725330.68612297
106	19	0	0	90	36.1581920903955	36.241610738255	14	0.466712400130928	2	3	1	NaN	1	5	0.118274082371019	0	1	NaN	331	6	16	2	120	220	320	NaN	520	0.182978078722954	2	0	NaN	3725332.2531427	NaN	3725333.2366104	3725333.75311612
106	19	0	0	90	36.1581920903955	36.241610738255	22	0.733405200205743	2	6	2	NaN	1	3	0.118274082371019	0	1	NaN	332	6	17	2	120	220	320	NaN	520	0.0274251787923276	1	1	NaN	3725334.7533997	NaN	3725335.7368022	3725336.25334402
106	19	0	0	90	36.1581920903955	36.241610738255	23	0.766741800215095	2	6	2	NaN	1	4	0.118274082371019	0	1	NaN	333	6	18	2	120	220	320	NaN	520	0.277126127388328	1	1	NaN	3725337.1034898	NaN	3725338.0870283	3725338.60357637
106	19	0	0	90	36.1581920903955	36.241610738255	21	0.700068600196391	2	5	2	NaN	1	4	0.118274082371019	0	1	NaN	334	6	19	2	120	220	320	NaN	520	0.277571975253522	1	1	NaN	3725339.6871978	NaN	3725340.6706634	3725341.18716032
106	19	0	0	90	36.1581920903955	36.241610738255	12	0.400039200112224	2	11	1	NaN	2	3	0.118274082371019	0	1	NaN	335	6	20	2	120	220	320	NaN	520	0.0691618751734495	2	1	NaN	3725342.2874673	NaN	3725343.2708553	3725343.78740872
106	19	0	0	90	36.1581920903955	36.241610738255	10	0.33336600009352	2	7	2	NaN	2	5	0.118274082371019	0	1	NaN	336	6	21	2	120	220	320	NaN	520	0.221543774940073	2	1	NaN	3725344.6710289	NaN	3725345.6544452	3725346.17097862
106	19	0	0	90	36.1581920903955	36.241610738255	10	0.33336600009352	2	8	2	NaN	2	4	0.118274082371019	0	1	NaN	337	6	22	2	120	220	320	NaN	520	0.232221675105393	2	1	NaN	3725347.2046213	NaN	3725348.1880796	3725348.70456193
106	19	0	0	90	36.1581920903955	36.241610738255	8	0.266692800074816	2	6	2	NaN	1	4	0.118274082371019	0	1	NaN	338	6	23	2	120	220	320	NaN	520	0.0104006752371788	1	1	NaN	3725349.738201	NaN	3725350.7216099	3725351.23814142
106	19	0	0	90	36.1581920903955	36.241610738255	10	0.33336600009352	2	2	6	NaN	1	5	0.118274082371019	0	1	NaN	339	6	24	2	120	220	320	NaN	520	0.0103879272937775	2	0	NaN	3725352.0717596	NaN	3725353.0551605	3725353.57171317
106	19	0	0	90	36.1581920903955	36.241610738255	9	0.300029400084168	2	7	3	NaN	2	4	0.118274082371019	0	1	NaN	340	6	25	2	120	220	320	NaN	520	0.0104092750698328	2	1	NaN	3725354.3885295	NaN	3725355.3720747	3725355.88860252
106	19	0	0	90	36.1581920903955	36.241610738255	0	0	1	9	1	NaN	2	3	0.118274082371019	0	1	NaN	341	6	26	2	110	210	310	NaN	510	0.250934791751206	2	1	NaN	3725356.7056199	NaN	3725357.6889499	3725358.20550561
106	19	0	0	90	36.1581920903955	36.241610738255	7	0.233356200065464	2	2	1	NaN	1	4	0.118274082371019	0	1	NaN	342	6	27	2	120	220	320	NaN	520	0.0282696750946343	1	1	NaN	3725359.2724588	NaN	3725360.2558486	3725360.77241453
106	19	0	0	90	36.1581920903955	36.241610738255	22	0.733405200205743	2	8	2	NaN	2	3	0.118274082371019	0	1	NaN	343	6	28	2	120	220	320	NaN	520	0.277928075287491	2	1	NaN	3725361.6226585	NaN	3725362.6061071	3725363.12263802
106	19	0	0	90	36.1581920903955	36.241610738255	9	0.300029400084168	2	11	6	NaN	2	5	0.118274082371019	0	1	NaN	344	6	29	2	120	220	320	NaN	520	0.438347327057272	2	1	NaN	3725364.206285	NaN	3725365.1896955	3725365.70623837
106	19	0	0	90	36.1581920903955	36.241610738255	25	0.833415000233799	2	5	2	NaN	1	3	0.118274082371019	0	1	NaN	345	6	30	2	120	220	320	NaN	520	0.0104043749161065	1	1	NaN	3725366.9565694	NaN	3725367.9399622	3725368.45650563
106	19	0	0	90	36.1581920903955	36.241610738255	12	0.400039200112224	2	4	6	NaN	1	3	0.118274082371019	0	1	NaN	346	6	31	2	120	220	320	NaN	520	0.0104104750789702	1	1	NaN	3725369.2733026	NaN	3725370.2568561	3725370.77340213
106	19	0	0	90	36.1581920903955	36.241610738255	12	0.400039200112224	2	10	2	NaN	2	5	0.118274082371019	0	1	NaN	347	6	32	2	120	220	320	NaN	520	0.23849657503888	2	1	NaN	3725371.590342	NaN	3725372.5737416	3725373.09028712
106	19	0	0	90	36.1581920903955	36.241610738255	8	0.266692800074816	2	1	1	NaN	1	4	0.118274082371019	0	1	NaN	348	6	33	2	120	220	320	NaN	520	0.197594074998051	1	1	NaN	3725374.4072759	NaN	3725375.3907146	3725375.90723372
106	19	0	0	90	36.1581920903955	36.241610738255	12	0.400039200112224	2	5	6	NaN	1	5	0.118274082371019	0	1	NaN	349	6	34	2	120	220	320	NaN	520	0.225127323064953	1	1	NaN	3725376.9075493	NaN	3725377.8909291	3725378.40747418
106	19	0	0	90	36.1581920903955	36.241610738255	25	0.833415000233799	2	4	6	NaN	1	4	0.118274082371019	0	1	NaN	350	6	35	2	120	220	320	NaN	520	0.507371975108981	2	0	NaN	3725379.4411143	NaN	3725380.424503	3725380.94107742
106	19	0	0	90	36.1581920903955	36.241610738255	19	0.633395400177687	2	2	4	NaN	1	5	0.118274082371019	0	1	NaN	351	6	36	2	120	220	320	NaN	520	0.0104047753848135	1	1	NaN	3725382.2580914	NaN	3725383.2413489	3725383.75802682
106	19	0	0	90	36.1581920903955	36.241610738255	20	0.666732000187039	2	10	5	NaN	2	5	0.118274082371019	0	1	NaN	352	6	37	2	120	220	320	NaN	520	0.334270675200969	1	0	NaN	3725384.9581916	NaN	3725385.9417335	3725386.45827002
106	19	0	0	90	36.1581920903955	36.241610738255	9	0.300029400084168	2	2	3	NaN	1	5	0.118274082371019	0	1	NaN	353	6	38	2	120	220	320	NaN	520	0.276085227262229	2	0	NaN	3725387.6086561	NaN	3725388.59199	3725389.10855187
106	19	0	0	90	36.1581920903955	36.241610738255	0	0	1	6	3	NaN	1	4	0.118274082371019	0	1	NaN	354	6	39	2	110	210	310	NaN	510	0.452685375232249	2	0	NaN	3725390.1921693	NaN	3725391.1755851	3725391.69211522
106	19	0	0	90	36.1581920903955	36.241610738255	8	0.266692800074816	2	8	6	NaN	2	3	0.118274082371019	0	1	NaN	355	6	40	2	120	220	320	NaN	520	0.469575774855912	2	1	NaN	3725392.9591141	NaN	3725393.9425173	3725394.45905063
106	19	0	0	90	36.1581920903955	36.241610738255	14	0.466712400130928	2	9	5	NaN	2	5	0.118274082371019	0	1	NaN	356	6	41	2	120	220	320	NaN	520	4.53420442715287	2	1	NaN	3725395.7427163	NaN	3725396.7261293	3725397.24266207
106	19	0	0	90	36.1581920903955	36.241610738255	10	0.33336600009352	2	9	1	NaN	2	5	0.118274082371019	0	1	NaN	357	6	42	2	120	220	320	NaN	520	0.883381875231862	2	1	NaN	3725402.5934054	NaN	3725403.5767894	3725404.09333442
106	19	0	0	90	36.1581920903955	36.241610738255	6	0.200019600056112	2	9	5	NaN	2	3	0.118274082371019	0	1	NaN	358	6	43	2	120	220	320	NaN	520	0.0104080270975828	2	1	NaN	3725406.4104294	NaN	3725407.393841	3725407.91037417
106	19	0	0	90	36.1581920903955	36.241610738255	8	0.266692800074816	2	6	6	NaN	1	4	0.118274082371019	0	1	NaN	359	6	44	2	120	220	320	NaN	520	1.00557107524946	1	1	NaN	3725408.7271944	NaN	3725409.710727	3725410.22726682
106	19	0	0	90	36.1581920903955	36.241610738255	10	0.33336600009352	2	10	6	NaN	2	4	0.118274082371019	0	1	NaN	360	6	45	2	120	220	320	NaN	520	0.496681374963373	2	1	NaN	3725412.0443096	NaN	3725413.0277273	3725413.54426192
106	19	0	0	90	36.1581920903955	36.241610738255	24	0.800078400224447	2	8	1	NaN	2	4	0.118274082371019	0	1	NaN	361	6	46	2	120	220	320	NaN	520	0.359474023338407	1	0	NaN	3725414.8612642	NaN	3725415.8446611	3725416.36120158
106	19	0	0	90	36.1581920903955	36.241610738255	25	0.833415000233799	2	2	5	NaN	1	3	0.118274082371019	0	1	NaN	362	6	47	2	120	220	320	NaN	520	0.412469075061381	2	0	NaN	3725417.5281687	NaN	3725418.5115976	3725419.02813482
106	19	0	0	90	36.1581920903955	36.241610738255	14	0.466712400130928	2	11	4	NaN	2	3	0.118274082371019	0	1	NaN	363	6	48	2	120	220	320	NaN	520	0.415604074951261	2	1	NaN	3725420.2451257	NaN	3725421.2285292	3725421.74506562
106	19	0	0	90	36.1581920903955	36.241610738255	17	0.566722200158984	2	3	1	NaN	1	3	0.118274082371019	0	1	NaN	364	6	49	2	120	220	320	NaN	520	0.690034274943173	2	0	NaN	3725422.9787212	NaN	3725423.9621399	3725424.47866822
106	19	0	0	90	36.1581920903955	36.241610738255	23	0.766741800215095	2	1	3	NaN	1	3	0.118274082371019	0	1	NaN	365	6	50	2	120	220	320	NaN	520	0.537681974936277	2	0	NaN	3725425.9789102	NaN	3725426.9624299	3725427.47896003
106	19	0	0	90	36.1581920903955	36.241610738255	20	0.666732000187039	2	2	6	NaN	1	5	0.118274082371019	0	1	NaN	366	6	51	2	120	220	320	NaN	520	0.591472574975342	2	0	NaN	3725428.8292945	NaN	3725429.8127075	3725430.32924462
106	19	0	0	90	36.1581920903955	36.241610738255	8	0.266692800074816	2	4	2	NaN	1	3	0.118274082371019	0	1	NaN	367	6	52	2	120	220	320	NaN	520	0.123229775112122	1	1	NaN	3725431.7294536	NaN	3725432.7129787	3725433.22952262
106	19	0	0	90	36.1581920903955	36.241610738255	8	0.266692800074816	2	4	1	NaN	1	3	0.118274082371019	0	1	NaN	368	6	53	2	120	220	320	NaN	520	0.217542422935367	1	1	NaN	3725434.1631561	NaN	3725435.1465672	3725435.66309798
106	19	0	0	90	36.1581920903955	36.241610738255	22	0.733405200205743	2	4	1	NaN	1	4	0.118274082371019	0	1	NaN	369	6	54	2	120	220	320	NaN	520	0.010406575165689	1	1	NaN	3725436.6966664	NaN	3725437.6801391	3725438.19667762
106	19	0	0	90	36.1581920903955	36.241610738255	11	0.366702600102872	2	1	5	NaN	1	5	0.118274082371019	0	1	NaN	370	6	55	2	120	220	320	NaN	520	0.0104209226556122	2	0	NaN	3725439.0135047	NaN	3725439.9970382	3725440.51358758
106	19	0	0	90	36.1581920903955	36.241610738255	13	0.433375800121576	2	1	2	NaN	1	5	0.118274082371019	0	1	NaN	371	6	56	2	120	220	320	NaN	520	0.250112374778837	1	1	NaN	3725441.3306312	NaN	3725442.3139365	3725442.83046763
106	19	0	0	90	36.1581920903955	36.241610738255	14	0.466712400130928	2	4	5	NaN	1	4	0.118274082371019	0	1	NaN	372	6	57	2	120	220	320	NaN	520	0.339408575091511	1	1	NaN	3725443.8973228	NaN	3725444.880868	3725445.39738262
106	19	0	0	90	36.1581920903955	36.241610738255	7	0.233356200065464	2	2	3	NaN	1	5	0.118274082371019	0	1	NaN	373	6	58	2	120	220	320	NaN	520	0.49683222733438	2	0	NaN	3725446.5476938	NaN	3725447.5310999	3725448.04765737
106	19	0	0	90	36.1581920903955	36.241610738255	16	0.533385600149632	2	11	3	NaN	2	4	0.118274082371019	0	1	NaN	374	6	59	2	120	220	320	NaN	520	0.63272262737155	2	1	NaN	3725449.3479653	NaN	3725450.3313712	3725450.84792037
106	19	0	0	90	36.1581920903955	36.241610738255	20	0.666732000187039	2	2	5	NaN	1	4	0.118274082371019	0	1	NaN	375	6	60	2	120	220	320	NaN	520	0.242555426899344	2	0	NaN	3725452.2982757	NaN	3725453.2816725	3725453.79822087
106	19	0	0	90	36.1581920903955	36.241610738255	18	0.600058800168335	2	4	4	NaN	1	5	0.118274082371019	0	1	NaN	376	6	61	2	120	220	320	NaN	520	0.435526275075972	1	1	NaN	3725454.8651825	NaN	3725455.8486316	3725456.36513213
106	19	0	0	90	36.1581920903955	36.241610738255	20	0.666732000187039	2	6	1	NaN	1	3	0.118274082371019	0	1	NaN	377	6	62	2	120	220	320	NaN	520	0.645447074901313	1	1	NaN	3725457.6154678	NaN	3725458.5988545	3725459.11540972
106	19	0	0	90	36.1581920903955	36.241610738255	21	0.700068600196391	2	11	4	NaN	2	5	0.118274082371019	0	1	NaN	378	6	63	2	120	220	320	NaN	520	0.423049339558929	2	1	NaN	3725460.5657482	NaN	3725461.5491942	3725462.06569986
106	19	0	0	90	36.1581920903955	36.241610738255	17	0.566722200158984	2	3	6	NaN	1	3	0.118274082371019	0	1	NaN	379	7	1	2	120	220	320	NaN	520	0.0103953275829554	2	0	NaN	3725541.2569777	NaN	3725542.2404008	3725542.75695017
106	19	0	0	90	36.1581920903955	36.241610738255	6	0.200019600056112	2	12	1	NaN	2	5	0.118274082371019	0	1	NaN	380	7	2	2	120	220	320	NaN	520	0.0104067749343812	1	0	NaN	3725543.5739051	NaN	3725544.557356	3725545.07383842
106	19	0	0	90	36.1581920903955	36.241610738255	11	0.366702600102872	2	11	3	NaN	2	5	0.118274082371019	0	1	NaN	381	7	3	2	120	220	320	NaN	520	0.313089475035667	2	1	NaN	3725545.9074252	NaN	3725546.89087	3725547.40739872
106	19	0	0	90	36.1581920903955	36.241610738255	16	0.533385600149632	2	5	1	NaN	1	5	0.118274082371019	0	1	NaN	382	7	4	2	120	220	320	NaN	520	0.352826874703169	1	1	NaN	3725548.5243695	NaN	3725549.5077779	3725550.02433603
106	19	0	0	90	36.1581920903955	36.241610738255	22	0.733405200205743	2	4	5	NaN	1	3	0.118274082371019	0	1	NaN	383	7	5	2	120	220	320	NaN	520	0.381521475035697	1	1	NaN	3725551.1913006	NaN	3725552.1747171	3725552.69126053
106	19	0	0	90	36.1581920903955	36.241610738255	16	0.533385600149632	2	7	1	NaN	2	3	0.118274082371019	0	1	NaN	384	7	6	2	120	220	320	NaN	520	0.425396374892443	2	1	NaN	3725553.8915868	NaN	3725554.8749711	3725555.39152772
106	19	0	0	90	36.1581920903955	36.241610738255	14	0.466712400130928	2	5	2	NaN	1	3	0.118274082371019	0	1	NaN	385	7	7	2	120	220	320	NaN	520	0.243601775262505	1	1	NaN	3725556.6251754	NaN	3725557.6085871	3725558.12512622
106	19	0	0	90	36.1581920903955	36.241610738255	7	0.233356200065464	2	9	5	NaN	2	4	0.118274082371019	0	1	NaN	386	7	8	2	120	220	320	NaN	520	0.293673775158823	2	1	NaN	3725559.1753028	NaN	3725560.1588366	3725560.67537382
106	19	0	0	90	36.1581920903955	36.241610738255	0	0	1	2	3	NaN	1	5	0.118274082371019	0	1	NaN	387	7	9	2	110	210	310	NaN	510	0.404473423026502	1	1	NaN	3725561.7923567	NaN	3725562.7757547	3725563.29229948
106	19	0	0	90	36.1581920903955	36.241610738255	9	0.300029400084168	2	6	3	NaN	1	5	0.118274082371019	0	1	NaN	388	7	10	2	120	220	320	NaN	520	1.23163627507165	1	1	NaN	3725564.5092908	NaN	3725565.4927236	3725566.00922603
106	19	0	0	90	36.1581920903955	36.241610738255	15	0.50004900014028	2	10	3	NaN	2	5	0.118274082371019	0	1	NaN	389	7	11	2	120	220	320	NaN	520	0.09734887490049	2	1	NaN	3725568.0595012	NaN	3725569.0430478	3725569.55958143
106	19	0	0	90	36.1581920903955	36.241610738255	18	0.600058800168335	2	5	4	NaN	1	3	0.118274082371019	0	1	NaN	390	7	12	2	120	220	320	NaN	520	0.208375475369394	1	1	NaN	3725570.4765423	NaN	3725571.4599655	3725571.97647922
106	19	0	0	90	36.1581920903955	36.241610738255	25	0.833415000233799	2	12	1	NaN	2	5	0.118274082371019	0	1	NaN	391	7	13	2	120	220	320	NaN	520	0.211554170586169	2	1	NaN	3725572.9933372	NaN	3725573.9768766	3725574.49339173
106	19	0	0	90	36.1581920903955	36.241610738255	15	0.50004900014028	2	7	2	NaN	2	5	0.118274082371019	0	1	NaN	392	7	14	2	120	220	320	NaN	520	0.358091175090522	2	1	NaN	3725575.5270522	NaN	3725576.5104298	3725577.02697913
106	19	0	0	90	36.1581920903955	36.241610738255	15	0.50004900014028	2	4	6	NaN	1	3	0.118274082371019	0	1	NaN	393	7	15	2	120	220	320	NaN	520	0.131135175004601	1	1	NaN	3725578.1939687	NaN	3725579.1773692	3725579.69391083
106	19	0	0	90	36.1581920903955	36.241610738255	21	0.700068600196391	2	10	6	NaN	2	4	0.118274082371019	0	1	NaN	394	7	16	2	120	220	320	NaN	520	0.504730775021017	2	1	NaN	3725580.6442078	NaN	3725581.6276085	3725582.14414793
106	19	0	0	90	36.1581920903955	36.241610738255	22	0.733405200205743	2	9	1	NaN	2	5	0.118274082371019	0	1	NaN	395	7	17	2	120	220	320	NaN	520	0.408009383361787	2	1	NaN	3725583.4611361	NaN	3725584.4445586	3725584.96108922
106	19	0	0	90	36.1581920903955	36.241610738255	25	0.833415000233799	2	6	4	NaN	1	5	0.118274082371019	0	1	NaN	396	7	18	2	120	220	320	NaN	520	0.363164075184613	1	1	NaN	3725586.1780864	NaN	3725587.1614913	3725587.67804152
106	19	0	0	90	36.1581920903955	36.241610738255	20	0.666732000187039	2	1	5	NaN	1	4	0.118274082371019	0	1	NaN	397	7	19	2	120	220	320	NaN	520	1.10392767516896	1	1	NaN	3725588.8450114	NaN	3725589.8284198	3725590.34495643
106	19	0	0	90	36.1581920903955	36.241610738255	20	0.666732000187039	2	9	2	NaN	2	3	0.118274082371019	0	1	NaN	398	7	20	2	120	220	320	NaN	520	0.287099774926901	2	1	NaN	3725592.2620251	NaN	3725593.2454168	3725593.76195282
106	19	0	0	90	36.1581920903955	36.241610738255	10	0.33336600009352	2	12	3	NaN	2	5	0.118274082371019	0	1	NaN	399	7	21	2	120	220	320	NaN	520	0.246808426920325	1	0	NaN	3725594.862266	NaN	3725595.8456776	3725596.36220997
106	19	0	0	90	36.1581920903955	36.241610738255	7	0.233356200065464	2	6	1	NaN	1	5	0.118274082371019	0	1	NaN	400	7	22	2	120	220	320	NaN	520	0.0713649750687182	1	1	NaN	3725597.4291804	NaN	3725598.4125817	3725598.92912713
106	19	0	0	90	36.1581920903955	36.241610738255	14	0.466712400130928	2	6	1	NaN	1	5	0.118274082371019	0	1	NaN	401	7	23	2	120	220	320	NaN	520	0.0104358708485961	1	1	NaN	3725599.8127528	NaN	3725600.7961762	3725601.31269233
106	19	0	0	90	36.1581920903955	36.241610738255	19	0.633395400177687	2	7	3	NaN	2	3	0.118274082371019	0	1	NaN	402	7	24	2	120	220	320	NaN	520	0.179580074734986	2	1	NaN	3725602.1297378	NaN	3725603.1130483	3725603.62958873
106	19	0	0	90	36.1581920903955	36.241610738255	11	0.366702600102872	2	6	1	NaN	1	5	0.118274082371019	0	1	NaN	403	7	25	2	120	220	320	NaN	520	0.0104303229600191	1	1	NaN	3725604.6298917	NaN	3725605.6132955	3725606.12983278
106	19	0	0	90	36.1581920903955	36.241610738255	10	0.33336600009352	2	4	1	NaN	1	5	0.118274082371019	0	1	NaN	404	7	26	2	120	220	320	NaN	520	0.0104086748324335	2	0	NaN	3725606.9467757	NaN	3725607.9301869	3725608.44672952
106	19	0	0	90	36.1581920903955	36.241610738255	7	0.233356200065464	2	1	4	NaN	1	4	0.118274082371019	0	1	NaN	405	7	27	2	120	220	320	NaN	520	0.549330675043166	2	0	NaN	3725609.263648	NaN	3725610.2471152	3725610.76362552
106	19	0	0	90	36.1581920903955	36.241610738255	7	0.233356200065464	2	4	3	NaN	1	4	0.118274082371019	0	1	NaN	406	7	28	2	120	220	320	NaN	520	0.0104087754152715	2	0	NaN	3725612.1306361	NaN	3725613.1140232	3725613.63057082
106	19	0	0	90	36.1581920903955	36.241610738255	9	0.300029400084168	2	4	1	NaN	1	4	0.118274082371019	0	1	NaN	407	7	29	2	120	220	320	NaN	520	0.0954884830862284	1	1	NaN	3725614.5975315	NaN	3725615.580937	3725616.09748892
106	19	0	0	90	36.1581920903955	36.241610738255	19	0.633395400177687	2	1	1	NaN	1	5	0.118274082371019	0	1	NaN	408	7	30	2	120	220	320	NaN	520	0.0226632230915129	2	0	NaN	3725617.0144546	NaN	3725617.9978393	3725618.51438248
106	19	0	0	90	36.1581920903955	36.241610738255	22	0.733405200205743	2	3	3	NaN	1	3	0.118274082371019	0	1	NaN	409	7	31	2	120	220	320	NaN	520	0.0645779748447239	1	1	NaN	3725619.3478687	NaN	3725620.331409	3725620.84794282
106	19	0	0	90	36.1581920903955	36.241610738255	16	0.533385600149632	2	8	5	NaN	2	4	0.118274082371019	0	1	NaN	410	7	32	2	120	220	320	NaN	520	0.106021378654987	2	1	NaN	3725621.7149023	NaN	3725622.6983098	3725623.21484572
106	19	0	0	90	36.1581920903955	36.241610738255	7	0.233356200065464	2	10	4	NaN	2	4	0.118274082371019	0	1	NaN	411	7	33	2	120	220	320	NaN	520	0.337443999946117	2	1	NaN	3725624.1318254	NaN	3725625.1152294	3725625.6317554
106	19	0	0	90	36.1581920903955	36.241610738255	11	0.366702600102872	2	7	4	NaN	2	5	0.118274082371019	0	1	NaN	412	7	34	2	120	220	320	NaN	520	0.127016674727201	2	1	NaN	3725626.7820722	NaN	3725627.7654734	3725628.28200583
106	19	0	0	90	36.1581920903955	36.241610738255	0	0	1	11	3	NaN	2	5	0.118274082371019	0	1	NaN	413	7	35	2	110	210	310	NaN	510	0.0533385751768947	2	1	NaN	3725629.2157099	NaN	3725630.1990519	3725630.71558022
106	19	0	0	90	36.1581920903955	36.241610738255	11	0.366702600102872	2	8	5	NaN	2	4	0.118274082371019	0	1	NaN	414	7	36	2	120	220	320	NaN	520	0.406427075155079	2	1	NaN	3725631.5825439	NaN	3725632.5659473	3725633.08248643
106	19	0	0	90	36.1581920903955	36.241610738255	9	0.300029400084168	2	8	4	NaN	2	5	0.118274082371019	0	1	NaN	415	7	37	2	120	220	320	NaN	520	0.010362631175667	2	1	NaN	3725634.2994521	NaN	3725635.2828767	3725635.79941277
106	19	0	0	90	36.1581920903955	36.241610738255	19	0.633395400177687	2	8	5	NaN	2	5	0.118274082371019	0	1	NaN	416	7	38	2	120	220	320	NaN	520	0.0104136751033366	2	1	NaN	3725636.633023	NaN	3725637.6164321	3725638.13297562
106	19	0	0	90	36.1581920903955	36.241610738255	10	0.33336600009352	2	1	2	NaN	1	5	0.118274082371019	0	1	NaN	417	7	39	2	120	220	320	NaN	520	0.0104090748354793	1	1	NaN	3725638.949913	NaN	3725639.9333396	3725640.44987572
106	19	0	0	90	36.1581920903955	36.241610738255	23	0.766741800215095	2	10	4	NaN	2	3	0.118274082371019	0	1	NaN	418	7	40	2	120	220	320	NaN	520	0.0261488789692521	2	1	NaN	3725641.2668221	NaN	3725642.2502052	3725642.76676772
106	19	0	0	90	36.1581920903955	36.241610738255	0	0	1	12	3	NaN	2	3	0.118274082371019	0	1	NaN	419	7	41	2	110	210	310	NaN	510	0.348519974853843	1	0	NaN	3725643.6003777	NaN	3725644.5838031	3725645.10033322
106	19	0	0	90	36.1581920903955	36.241610738255	8	0.266692800074816	2	2	3	NaN	1	5	0.118274082371019	0	1	NaN	420	7	42	2	120	220	320	NaN	520	0.290471475105733	1	1	NaN	3725646.2506457	NaN	3725647.2340488	3725647.75059872
106	19	0	0	90	36.1581920903955	36.241610738255	0	0	1	6	3	NaN	1	3	0.118274082371019	0	1	NaN	421	7	43	2	110	210	310	NaN	510	0.402190575376153	1	1	NaN	3725648.8509082	NaN	3725649.8343645	3725650.35084492
106	19	0	0	90	36.1581920903955	36.241610738255	10	0.33336600009352	2	1	4	NaN	1	4	0.118274082371019	0	1	NaN	422	7	44	2	120	220	320	NaN	520	0.413027075119317	1	1	NaN	3725651.5678393	NaN	3725652.5512947	3725653.06777792
106	19	0	0	90	36.1581920903955	36.241610738255	20	0.666732000187039	2	7	4	NaN	2	4	0.118274082371019	0	1	NaN	423	7	45	2	120	220	320	NaN	520	0.136488375253975	2	1	NaN	3725654.2847266	NaN	3725655.2682146	3725655.78471662
106	19	0	0	90	36.1581920903955	36.241610738255	9	0.300029400084168	2	10	1	NaN	2	4	0.118274082371019	0	1	NaN	424	7	46	2	120	220	320	NaN	520	0.0103605310432613	2	1	NaN	3725656.734869	NaN	3725657.718394	3725658.23496297
106	19	0	0	90	36.1581920903955	36.241610738255	22	0.733405200205743	2	2	1	NaN	1	3	0.118274082371019	0	1	NaN	425	7	47	2	120	220	320	NaN	520	0.113025775179267	1	1	NaN	3725659.0517672	NaN	3725660.0353257	3725660.55184772
106	19	0	0	90	36.1581920903955	36.241610738255	18	0.600058800168335	2	6	3	NaN	1	3	0.118274082371019	0	1	NaN	426	7	48	2	120	220	320	NaN	520	0.391502087470144	1	1	NaN	3725661.4854853	NaN	3725662.4688801	3725662.98542141
106	19	0	0	90	36.1581920903955	36.241610738255	0	0	1	3	3	NaN	1	5	0.118274082371019	0	1	NaN	427	7	49	2	110	210	310	NaN	510	0.187466574832797	1	1	NaN	3725664.185606	NaN	3725665.1691566	3725665.68569293
106	19	0	0	90	36.1581920903955	36.241610738255	12	0.400039200112224	2	9	4	NaN	2	5	0.118274082371019	0	1	NaN	428	7	50	2	120	220	320	NaN	520	0.0104051749221981	1	0	NaN	3725666.9360235	NaN	3725667.9194088	3725668.43595152
106	19	0	0	90	36.1581920903955	36.241610738255	25	0.833415000233799	2	3	2	NaN	1	4	0.118274082371019	0	1	NaN	429	7	51	2	120	220	320	NaN	520	9.08018937474117	2	0	NaN	3725669.2527825	NaN	3725670.2363191	3725670.75285173
106	19	0	0	90	36.1581920903955	36.241610738255	9	0.300029400084168	2	1	1	NaN	1	5	0.118274082371019	0	1	NaN	430	7	52	2	120	220	320	NaN	520	0.175073674879968	1	1	NaN	3725680.6540445	NaN	3725681.6373206	3725682.15396963
106	19	0	0	90	36.1581920903955	36.241610738255	15	0.50004900014028	2	6	4	NaN	1	4	0.118274082371019	0	1	NaN	431	7	53	2	120	220	320	NaN	520	0.387683327309787	1	1	NaN	3725683.1374779	NaN	3725684.1210332	3725684.63754887
106	19	0	0	90	36.1581920903955	36.241610738255	14	0.466712400130928	2	8	1	NaN	2	3	0.118274082371019	0	1	NaN	432	7	54	2	120	220	320	NaN	520	0.463120275177062	1	0	NaN	3725685.8378823	NaN	3725686.82127	3725687.33780512
106	19	0	0	90	36.1581920903955	36.241610738255	18	0.600058800168335	2	2	6	NaN	1	4	0.118274082371019	0	1	NaN	433	7	55	2	120	220	320	NaN	520	0.655911874957383	2	0	NaN	3725688.6214746	NaN	3725689.6048909	3725690.12141743
106	19	0	0	90	36.1581920903955	36.241610738255	15	0.50004900014028	2	1	1	NaN	1	4	0.118274082371019	0	1	NaN	434	7	56	2	120	220	320	NaN	520	0.312744627241045	1	1	NaN	3725691.5884475	NaN	3725692.5718348	3725693.08838107
106	19	0	0	90	36.1581920903955	36.241610738255	24	0.800078400224447	2	9	2	NaN	2	3	0.118274082371019	0	1	NaN	435	7	57	2	120	220	320	NaN	520	0.575086975004524	2	1	NaN	3725694.2220139	NaN	3725695.2054134	3725695.72197462
106	19	0	0	90	36.1581920903955	36.241610738255	21	0.700068600196391	2	1	6	NaN	1	3	0.118274082371019	0	1	NaN	436	7	58	2	120	220	320	NaN	520	0.115391674917191	2	0	NaN	3725697.1056298	NaN	3725698.0890413	3725698.60557903
106	19	0	0	90	36.1581920903955	36.241610738255	8	0.266692800074816	2	9	6	NaN	2	3	0.118274082371019	0	1	NaN	437	7	59	2	120	220	320	NaN	520	0.705841274932027	2	1	NaN	3725699.5391098	NaN	3725700.5226246	3725701.03915972
106	19	0	0	90	36.1581920903955	36.241610738255	7	0.233356200065464	2	12	5	NaN	2	5	0.118274082371019	0	1	NaN	438	7	60	2	120	220	320	NaN	520	1.08087282301858	2	1	NaN	3725702.5561954	NaN	3725703.5395946	3725704.05612278
106	19	0	0	90	36.1581920903955	36.241610738255	0	0	1	5	1	NaN	1	3	0.118274082371019	0	1	NaN	439	7	61	2	110	210	310	NaN	510	0.88041482726112	2	0	NaN	3725705.9564996	NaN	3725706.9399398	3725707.45645827
106	19	0	0	90	36.1581920903955	36.241610738255	15	0.50004900014028	2	3	4	NaN	1	5	0.118274082371019	0	1	NaN	440	7	62	2	120	220	320	NaN	520	0.147815375123173	2	0	NaN	3725709.2735002	NaN	3725710.2567932	3725710.77345013
106	19	0	0	90	36.1581920903955	36.241610738255	18	0.600058800168335	2	5	1	NaN	1	4	0.118274082371019	0	1	NaN	441	7	63	2	120	220	320	NaN	520	0.360968827269971	1	1	NaN	3725711.7404253	NaN	3725712.7238169	3725713.24035147
106	19	0	0	90	36.1581920903955	36.241610738255	17	0.566722200158984	2	11	5	NaN	2	5	0.118274082371019	0	1	NaN	442	8	1	2	120	220	320	NaN	520	3.26695532724261	2	1	NaN	3725787.7146277	NaN	3725788.6979381	3725789.21448677
106	19	0	0	90	36.1581920903955	36.241610738255	16	0.533385600149632	2	12	2	NaN	2	3	0.118274082371019	0	1	NaN	443	8	2	2	120	220	320	NaN	520	0.810795895755291	2	1	NaN	3725793.2984211	NaN	3725794.2818852	3725794.7983749
106	19	0	0	90	36.1581920903955	36.241610738255	20	0.666732000187039	2	3	2	NaN	1	3	0.118274082371019	0	1	NaN	444	8	3	2	120	220	320	NaN	520	0.629703322891146	1	1	NaN	3725796.4154862	NaN	3725797.3987724	3725797.91533788
106	19	0	0	90	36.1581920903955	36.241610738255	6	0.200019600056112	2	6	6	NaN	1	3	0.118274082371019	0	1	NaN	445	8	4	2	120	220	320	NaN	520	0.919736474752426	1	1	NaN	3725799.3656139	NaN	3725800.3490961	3725800.86562253
106	19	0	0	90	36.1581920903955	36.241610738255	18	0.600058800168335	2	11	3	NaN	2	5	0.118274082371019	0	1	NaN	446	8	5	2	120	220	320	NaN	520	0.901910275220871	2	1	NaN	3725802.5993346	NaN	3725803.5827526	3725804.09927772
106	19	0	0	90	36.1581920903955	36.241610738255	6	0.200019600056112	2	5	4	NaN	1	4	0.118274082371019	0	1	NaN	447	8	6	2	120	220	320	NaN	520	0.909156575333327	1	1	NaN	3725805.8163251	NaN	3725806.7997162	3725807.31625632
106	19	0	0	90	36.1581920903955	36.241610738255	13	0.433375800121576	2	9	4	NaN	2	3	0.118274082371019	0	1	NaN	448	8	7	2	120	220	320	NaN	520	0.508168227504939	2	1	NaN	3725809.0332806	NaN	3725810.0167136	3725810.53324897
106	19	0	0	90	36.1581920903955	36.241610738255	12	0.400039200112224	2	7	1	NaN	2	3	0.118274082371019	0	1	NaN	449	8	8	2	120	220	320	NaN	520	0.690895175095648	2	1	NaN	3725811.8502633	NaN	3725812.8336348	3725813.35018162
106	19	0	0	90	36.1581920903955	36.241610738255	8	0.266692800074816	2	10	3	NaN	2	4	0.118274082371019	0	1	NaN	450	8	9	2	120	220	320	NaN	520	0.59482459211722	1	0	NaN	3725814.8505293	NaN	3725815.8339368	3725816.35047931
106	19	0	0	90	36.1581920903955	36.241610738255	24	0.800078400224447	2	1	6	NaN	1	4	0.118274082371019	0	1	NaN	451	8	10	2	120	220	320	NaN	520	0.454382927156985	1	1	NaN	3725817.7508315	NaN	3725818.7342461	3725819.25077167
106	19	0	0	90	36.1581920903955	36.241610738255	17	0.566722200158984	2	5	1	NaN	1	3	0.118274082371019	0	1	NaN	452	8	11	2	120	220	320	NaN	520	0.711699075065553	2	0	NaN	3725820.5177606	NaN	3725821.501174	3725822.01770472
106	19	0	0	90	36.1581920903955	36.241610738255	6	0.200019600056112	2	2	3	NaN	1	4	0.118274082371019	0	1	NaN	453	8	12	2	120	220	320	NaN	520	0.558837675023824	1	1	NaN	3725823.534714	NaN	3725824.5181117	3725825.03466352
106	19	0	0	90	36.1581920903955	36.241610738255	21	0.700068600196391	2	12	6	NaN	2	4	0.118274082371019	0	1	NaN	454	8	13	2	120	220	320	NaN	520	0.49175442289561	2	1	NaN	3725826.4016666	NaN	3725827.3850867	3725827.90160988
106	19	0	0	90	36.1581920903955	36.241610738255	21	0.700068600196391	2	7	5	NaN	2	5	0.118274082371019	0	1	NaN	455	8	14	2	120	220	320	NaN	520	0.499161075334996	2	1	NaN	3725829.2019557	NaN	3725830.1853341	3725830.70188552
106	19	0	0	90	36.1581920903955	36.241610738255	7	0.233356200065464	2	11	6	NaN	2	5	0.118274082371019	0	1	NaN	456	8	15	2	120	220	320	NaN	520	0.257214175071567	2	1	NaN	3725832.2522345	NaN	3725833.2356567	3725833.75218312
106	19	0	0	90	36.1581920903955	36.241610738255	7	0.233356200065464	2	1	6	NaN	1	5	0.118274082371019	0	1	NaN	457	8	16	2	120	220	320	NaN	520	0.546309974975884	2	0	NaN	3725834.8191393	NaN	3725835.8025596	3725836.31911332
106	19	0	0	90	36.1581920903955	36.241610738255	11	0.366702600102872	2	5	1	NaN	1	5	0.118274082371019	0	1	NaN	458	8	17	2	120	220	320	NaN	520	0.12716722721234	1	1	NaN	3725837.6859827	NaN	3725838.6695339	3725839.18605987
