subjno	age	gender	isPractice	viewdist	CmToPixX	CmToPixY	SOA_frm	SOA_time	targNum	targID	targExample	targRace	targGender	firstTargPos	contrast	familiarity	curr_staircase	iStair	TrialNum	BlockNum	blktrl	sessionNum	TC_FIXATION	TC_RSVP_START	TC_RSVP_END	TC_BLANK	TC_RESPONSE_ONSET	RT2afc	resp_2afc	acc	RSVPOnsetVBL	RSVPOnsetTime	RSVPOffsetVBL	RSVPOffsetTime	startrt_2afc
29	19	1	0	90	36.1581920903955	36.241610738255	14	0.466725503839552	2	9	2	NaN	2	4	0.466906167261505	0	1	NaN	1	1	1	1	120	220	320	NaN	520	0.0115247801877558	2	1	NaN	3977937.6363613	NaN	3977938.6196025	3977939.15273192
29	19	1	0	90	36.1581920903955	36.241610738255	15	0.500063039828092	2	11	5	NaN	2	3	0.466906167261505	0	1	NaN	2	1	2	1	120	220	320	NaN	520	0.397858934942633	2	1	NaN	3977940.0199031	NaN	3977941.0031995	3977941.53632186
29	19	1	0	90	36.1581920903955	36.241610738255	16	0.533400575816631	2	1	6	NaN	1	4	0.466906167261505	0	1	NaN	3	1	3	1	120	220	320	NaN	520	0.568142031785101	1	1	NaN	3977942.7533097	NaN	3977943.7367133	3977944.26990237
29	19	1	0	90	36.1581920903955	36.241610738255	12	0.400050431862474	2	8	4	NaN	2	4	0.466906167261505	0	1	NaN	4	1	4	1	120	220	320	NaN	520	0.348989577032626	2	1	NaN	3977945.653572	NaN	3977946.6369752	3977947.15352892
29	19	1	0	90	36.1581920903955	36.241610738255	8	0.266700287908316	2	6	4	NaN	1	4	0.466906167261505	0	1	NaN	5	1	5	1	120	220	320	NaN	520	0.265760031528771	1	1	NaN	3977948.320499	NaN	3977949.3039168	3977949.82045747
29	19	1	0	90	36.1581920903955	36.241610738255	13	0.433387967851013	2	9	5	NaN	2	4	0.466906167261505	0	1	NaN	6	1	6	1	120	220	320	NaN	520	0.209296831861138	2	1	NaN	3977950.9207615	NaN	3977951.9041689	3977952.42070817
29	19	1	0	90	36.1581920903955	36.241610738255	22	0.733425791747868	2	6	4	NaN	1	4	0.466906167261505	0	1	NaN	7	1	7	1	120	220	320	NaN	520	0.308241828344762	1	1	NaN	3977953.4376928	NaN	3977954.421086	3977954.93762467
29	19	1	0	90	36.1581920903955	36.241610738255	17	0.566738111805171	2	12	5	NaN	2	5	0.466906167261505	0	1	NaN	8	1	8	1	120	220	320	NaN	520	0.3390191802755	2	1	NaN	3977956.0712803	NaN	3977957.0546506	3977957.57121932
29	19	1	0	90	36.1581920903955	36.241610738255	23	0.766763327736408	2	10	4	NaN	2	3	0.466906167261505	0	1	NaN	9	1	9	1	120	220	320	NaN	520	0.0102831446565688	2	1	NaN	3977958.7215555	NaN	3977959.7049285	3977960.22148126
29	19	1	0	90	36.1581920903955	36.241610738255	0	0	1	2	3	NaN	1	3	0.466906167261505	0	1	NaN	10	1	10	1	110	210	310	NaN	510	0.651024480350316	1	1	NaN	3977961.0550829	NaN	3977962.0385231	3977962.55503352
29	19	1	0	90	36.1581920903955	36.241610738255	25	0.833438399713487	2	10	5	NaN	2	3	0.466906167261505	0	1	NaN	11	1	11	1	120	220	320	NaN	520	0.260409128386527	2	1	NaN	3977964.0220636	NaN	3977965.0054578	3977965.52199437
29	19	1	0	90	36.1581920903955	36.241610738255	0	0	1	2	2	NaN	1	4	0.466906167261505	0	1	NaN	12	1	12	1	110	210	310	NaN	510	0.204914280213416	1	1	NaN	3977966.6056362	NaN	3977967.5890277	3977968.10557942
29	19	1	0	90	36.1581920903955	36.241610738255	0	0	1	6	4	NaN	1	5	0.466906167261505	0	1	NaN	13	1	13	1	110	210	310	NaN	510	0.303225880023092	2	0	NaN	3977969.1390965	NaN	3977970.1226182	3977970.63915612
29	19	1	0	90	36.1581920903955	36.241610738255	8	0.266700287908316	2	11	5	NaN	2	3	0.466906167261505	0	1	NaN	14	1	14	1	120	220	320	NaN	520	0.238299031741917	2	1	NaN	3977971.7561411	NaN	3977972.7395318	3977973.25609307
29	19	1	0	90	36.1581920903955	36.241610738255	11	0.366712895873934	2	4	2	NaN	1	3	0.466906167261505	0	1	NaN	15	1	15	1	120	220	320	NaN	520	0.13614623202011	1	1	NaN	3977974.3063889	NaN	3977975.2897877	3977975.80634107
29	19	1	0	90	36.1581920903955	36.241610738255	22	0.733425791747868	2	4	2	NaN	1	3	0.466906167261505	0	1	NaN	16	1	16	1	120	220	320	NaN	520	0.237585148308426	1	1	NaN	3977976.7565322	NaN	3977977.7400328	3977978.25658335
29	19	1	0	90	36.1581920903955	36.241610738255	0	0	1	4	3	NaN	1	4	0.466906167261505	0	1	NaN	17	1	17	1	110	210	310	NaN	510	0.975017379969358	1	1	NaN	3977979.323578	NaN	3977980.3069553	3977980.82349082
29	19	1	0	90	36.1581920903955	36.241610738255	7	0.233362751919776	2	2	1	NaN	1	3	0.466906167261505	0	1	NaN	18	1	18	1	120	220	320	NaN	520	0.354451680090278	1	1	NaN	3977982.6238804	NaN	3977983.6072784	3977984.12382632
29	19	1	0	90	36.1581920903955	36.241610738255	21	0.700088255759329	2	2	6	NaN	1	3	0.466906167261505	0	1	NaN	19	1	19	1	120	220	320	NaN	520	0.279408480040729	1	1	NaN	3977985.2908213	NaN	3977986.2741957	3977986.79074702
29	19	1	0	90	36.1581920903955	36.241610738255	20	0.666750719770789	2	7	4	NaN	2	5	0.466906167261505	0	1	NaN	20	1	20	1	120	220	320	NaN	520	0.183604028541595	2	1	NaN	3977987.8910733	NaN	3977988.8744513	3977989.39099927
29	19	1	0	90	36.1581920903955	36.241610738255	15	0.500063039828092	2	6	5	NaN	1	5	0.466906167261505	0	1	NaN	21	1	21	1	120	220	320	NaN	520	0.538780628703535	1	1	NaN	3977990.3912857	NaN	3977991.3747037	3977991.89125517
29	19	1	0	90	36.1581920903955	36.241610738255	20	0.666750719770789	2	1	1	NaN	1	3	0.466906167261505	0	1	NaN	22	1	22	1	120	220	320	NaN	520	1.24096617987379	1	1	NaN	3977993.2415758	NaN	3977994.2249753	3977994.74153092
29	19	1	0	90	36.1581920903955	36.241610738255	16	0.533400575816631	2	10	4	NaN	2	5	0.466906167261505	0	1	NaN	23	1	23	1	120	220	320	NaN	520	0.665918732061982	1	0	NaN	3977996.8085932	NaN	3977997.7920065	3977998.30854387
29	19	1	0	90	36.1581920903955	36.241610738255	9	0.300037823896855	2	5	3	NaN	1	5	0.466906167261505	0	1	NaN	24	1	24	1	120	220	320	NaN	520	0.137902432121336	1	1	NaN	3977999.7922414	NaN	3978000.7756268	3978001.29217227
29	19	1	0	90	36.1581920903955	36.241610738255	21	0.700088255759329	2	4	3	NaN	1	4	0.466906167261505	0	1	NaN	25	1	25	1	120	220	320	NaN	520	1.119703380391	1	1	NaN	3978002.2424314	NaN	3978003.2258533	3978003.74240852
29	19	1	0	90	36.1581920903955	36.241610738255	23	0.766763327736408	2	2	4	NaN	1	4	0.466906167261505	0	1	NaN	26	1	26	1	120	220	320	NaN	520	0.318379283417016	1	1	NaN	3978005.6761432	NaN	3978006.659563	3978007.17607852
29	19	1	0	90	36.1581920903955	36.241610738255	12	0.400050431862474	2	12	2	NaN	2	3	0.466906167261505	0	1	NaN	27	1	27	1	120	220	320	NaN	520	0.140450431965292	2	1	NaN	3978008.3097439	NaN	3978009.2931559	3978009.80969887
29	19	1	0	90	36.1581920903955	36.241610738255	12	0.400050431862474	2	8	6	NaN	2	4	0.466906167261505	0	1	NaN	28	1	28	1	120	220	320	NaN	520	1.90658788057044	1	0	NaN	3978010.7599632	NaN	3978011.743414	3978012.25991882
29	19	1	0	90	36.1581920903955	36.241610738255	12	0.400050431862474	2	10	5	NaN	2	4	0.466906167261505	0	1	NaN	29	1	29	1	120	220	320	NaN	520	0.305288444738835	2	1	NaN	3978014.9770315	NaN	3978015.9604507	3978016.47700156
29	19	1	0	90	36.1581920903955	36.241610738255	25	0.833438399713487	2	11	1	NaN	2	4	0.466906167261505	0	1	NaN	30	1	30	1	120	220	320	NaN	520	0.4404177935794	2	1	NaN	3978017.5939643	NaN	3978018.5773894	3978019.09391901
29	19	1	0	90	36.1581920903955	36.241610738255	23	0.766763327736408	2	2	6	NaN	1	4	0.466906167261505	0	1	NaN	31	1	31	1	120	220	320	NaN	520	0.99413428036496	1	1	NaN	3978020.3442315	NaN	3978021.3276498	3978021.84418282
29	19	1	0	90	36.1581920903955	36.241610738255	17	0.566738111805171	2	5	3	NaN	1	3	0.466906167261505	0	1	NaN	32	1	32	1	120	220	320	NaN	520	0.165089331567287	2	0	NaN	3978023.6612333	NaN	3978024.6446237	3978025.16118287
29	19	1	0	90	36.1581920903955	36.241610738255	0	0	1	3	6	NaN	1	4	0.466906167261505	0	1	NaN	33	1	33	1	110	210	310	NaN	510	0.233492428902537	1	1	NaN	3978026.1448234	NaN	3978027.1282231	3978027.64477757
29	19	1	0	90	36.1581920903955	36.241610738255	18	0.60007564779371	2	11	2	NaN	2	5	0.466906167261505	0	1	NaN	34	1	34	1	120	220	320	NaN	520	0.251554628834128	1	0	NaN	3978028.6951422	NaN	3978029.6785164	3978030.19500267
29	19	1	0	90	36.1581920903955	36.241610738255	19	0.63341318378225	2	3	6	NaN	1	5	0.466906167261505	0	1	NaN	35	1	35	1	120	220	320	NaN	520	0.620176080148667	1	1	NaN	3978031.2620175	NaN	3978032.2453882	3978032.76192012
29	19	1	0	90	36.1581920903955	36.241610738255	18	0.60007564779371	2	5	3	NaN	1	3	0.466906167261505	0	1	NaN	36	1	36	1	120	220	320	NaN	520	0.279001380316913	2	0	NaN	3978034.1954734	NaN	3978035.1790352	3978035.69555502
29	19	1	0	90	36.1581920903955	36.241610738255	9	0.300037823896855	2	5	1	NaN	1	3	0.466906167261505	0	1	NaN	37	1	37	1	120	220	320	NaN	520	0.654303131625056	1	1	NaN	3978036.7958506	NaN	3978037.7793428	3978038.29581027
29	19	1	0	90	36.1581920903955	36.241610738255	13	0.433387967851013	2	12	1	NaN	2	5	0.466906167261505	0	1	NaN	38	1	38	1	120	220	320	NaN	520	0.391601628158242	1	0	NaN	3978039.7628238	NaN	3978040.7462093	3978041.26275977
29	19	1	0	90	36.1581920903955	36.241610738255	25	0.833438399713487	2	1	4	NaN	1	3	0.466906167261505	0	1	NaN	39	1	39	1	120	220	320	NaN	520	1.29154988052323	1	1	NaN	3978042.4630114	NaN	3978043.4464935	3978043.96302392
29	19	1	0	90	36.1581920903955	36.241610738255	10	0.333375359885395	2	3	3	NaN	1	5	0.466906167261505	0	1	NaN	40	1	40	1	120	220	320	NaN	520	0.603124580346048	1	1	NaN	3978046.0633534	NaN	3978047.0468298	3978047.56338252
29	19	1	0	90	36.1581920903955	36.241610738255	6	0.200025215931237	2	1	5	NaN	1	5	0.466906167261505	0	1	NaN	41	1	41	1	120	220	320	NaN	520	0.813902432098985	1	1	NaN	3978048.9803943	NaN	3978049.9637884	3978050.48033947
29	19	1	0	90	36.1581920903955	36.241610738255	17	0.566738111805171	2	3	5	NaN	1	4	0.466906167261505	0	1	NaN	42	1	42	1	120	220	320	NaN	520	0.273075980134308	2	0	NaN	3978052.0973558	NaN	3978053.0807531	3978053.59730722
29	19	1	0	90	36.1581920903955	36.241610738255	13	0.433387967851013	2	1	3	NaN	1	5	0.466906167261505	0	1	NaN	43	1	43	1	120	220	320	NaN	520	0.345756432041526	1	1	NaN	3978054.6809552	NaN	3978055.6643511	3978056.18089837
29	19	1	0	90	36.1581920903955	36.241610738255	14	0.466725503839552	2	7	1	NaN	2	4	0.466906167261505	0	1	NaN	44	1	44	1	120	220	320	NaN	520	0.319417583290488	2	1	NaN	3978057.3311028	NaN	3978058.3146066	3978058.83115462
29	19	1	0	90	36.1581920903955	36.241610738255	24	0.800100863724947	2	12	4	NaN	2	3	0.466906167261505	0	1	NaN	45	1	45	1	120	220	320	NaN	520	0.605843493249267	2	1	NaN	3978059.9646381	NaN	3978060.9482028	3978061.46474991
29	19	1	0	90	36.1581920903955	36.241610738255	19	0.63341318378225	2	7	4	NaN	2	3	0.466906167261505	0	1	NaN	46	1	46	1	120	220	320	NaN	520	0.320897480472922	1	0	NaN	3978062.8817461	NaN	3978063.865156	3978064.38170312
29	19	1	0	90	36.1581920903955	36.241610738255	21	0.700088255759329	2	12	1	NaN	2	3	0.466906167261505	0	1	NaN	47	1	47	1	120	220	320	NaN	520	0.111097780056298	2	1	NaN	3978065.5153573	NaN	3978066.498739	3978067.01528402
29	19	1	0	90	36.1581920903955	36.241610738255	24	0.800100863724947	2	11	2	NaN	2	5	0.466906167261505	0	1	NaN	48	1	48	1	120	220	320	NaN	520	0.254117880482227	2	1	NaN	3978067.9322535	NaN	3978068.9156463	3978069.43219362
29	19	1	0	90	36.1581920903955	36.241610738255	17	0.566738111805171	2	12	1	NaN	2	3	0.466906167261505	0	1	NaN	49	1	49	1	120	220	320	NaN	520	0.687344180420041	1	0	NaN	3978070.4990418	NaN	3978071.4825676	3978071.99911072
29	19	1	0	90	36.1581920903955	36.241610738255	17	0.566738111805171	2	11	3	NaN	2	3	0.466906167261505	0	1	NaN	50	1	50	1	120	220	320	NaN	520	0.134986928198487	2	1	NaN	3978073.4994946	NaN	3978074.4828544	3978074.99940707
29	19	1	0	90	36.1581920903955	36.241610738255	8	0.266700287908316	2	8	1	NaN	2	5	0.466906167261505	0	1	NaN	51	1	51	1	120	220	320	NaN	520	0.260815880261362	2	1	NaN	3978075.9497202	NaN	3978076.9330982	3978077.44964132
29	19	1	0	90	36.1581920903955	36.241610738255	22	0.733425791747868	2	10	3	NaN	2	5	0.466906167261505	0	1	NaN	52	1	52	1	120	220	320	NaN	520	0.294185980223119	2	1	NaN	3978078.5166327	NaN	3978079.5000153	3978080.01657032
29	19	1	0	90	36.1581920903955	36.241610738255	15	0.500063039828092	2	12	6	NaN	2	4	0.466906167261505	0	1	NaN	53	1	53	1	120	220	320	NaN	520	0.340637676883489	1	0	NaN	3978081.1335675	NaN	3978082.1169471	3978082.63348472
29	19	1	0	90	36.1581920903955	36.241610738255	15	0.500063039828092	2	3	2	NaN	1	4	0.466906167261505	0	1	NaN	54	1	54	1	120	220	320	NaN	520	0.282254728488624	1	1	NaN	3978083.8004705	NaN	3978084.7838639	3978085.30041557
29	19	1	0	90	36.1581920903955	36.241610738255	9	0.300037823896855	2	12	1	NaN	2	4	0.466906167261505	0	1	NaN	55	1	55	1	120	220	320	NaN	520	0.585958676878363	2	1	NaN	3978086.4007365	NaN	3978087.3841277	3978087.90066652
29	19	1	0	90	36.1581920903955	36.241610738255	8	0.266700287908316	2	7	3	NaN	2	5	0.466906167261505	0	1	NaN	56	1	56	1	120	220	320	NaN	520	1.27743518026546	1	0	NaN	3978089.3010133	NaN	3978090.2843038	3978090.80095692
29	19	1	0	90	36.1581920903955	36.241610738255	20	0.666750719770789	2	11	3	NaN	2	4	0.466906167261505	0	1	NaN	57	1	57	1	120	220	320	NaN	520	0.0133060798980296	2	1	NaN	3978092.9013894	NaN	3978093.8847649	3978094.40130632
29	19	1	0	90	36.1581920903955	36.241610738255	23	0.766763327736408	2	3	3	NaN	1	4	0.466906167261505	0	1	NaN	58	1	58	1	120	220	320	NaN	520	0.215840780176222	1	1	NaN	3978095.2349283	NaN	3978096.2183281	3978096.73487432
29	19	1	0	90	36.1581920903955	36.241610738255	7	0.233362751919776	2	7	6	NaN	2	5	0.466906167261505	0	1	NaN	59	1	59	1	120	220	320	NaN	520	0.0104256803169847	2	1	NaN	3978097.7684583	NaN	3978098.7519061	3978099.26845122
29	19	1	0	90	36.1581920903955	36.241610738255	16	0.533400575816631	2	5	6	NaN	1	5	0.466906167261505	0	1	NaN	60	1	60	1	120	220	320	NaN	520	0.405259828548878	1	1	NaN	3978100.085437	NaN	3978101.0688238	3978101.58535497
29	19	1	0	90	36.1581920903955	36.241610738255	19	0.63341318378225	2	9	2	NaN	2	5	0.466906167261505	0	1	NaN	61	1	61	1	120	220	320	NaN	520	1.46395378001034	2	1	NaN	3978102.8023443	NaN	3978103.7857216	3978104.30227722
29	19	1	0	90	36.1581920903955	36.241610738255	23	0.766763327736408	2	7	5	NaN	2	3	0.466906167261505	0	1	NaN	62	1	62	1	120	220	320	NaN	520	0.281071228440851	2	1	NaN	3978106.5693795	NaN	3978107.5527528	3978108.06931477
29	19	1	0	90	36.1581920903955	36.241610738255	19	0.63341318378225	2	4	6	NaN	1	3	0.466906167261505	0	1	NaN	63	1	63	1	120	220	320	NaN	520	1.4248007806018	1	1	NaN	3978109.1696403	NaN	3978110.1530281	3978110.66957532
29	19	1	0	90	36.1581920903955	36.241610738255	13	0.433387967851013	2	12	1	NaN	2	3	0.466906167261505	0	1	NaN	64	2	1	1	120	220	320	NaN	520	1.20639418018982	2	1	NaN	3978147.1399974	NaN	3978148.1234246	3978148.63996542
29	19	1	0	90	36.1581920903955	36.241610738255	15	0.500063039828092	2	1	6	NaN	1	5	0.466906167261505	0	1	NaN	65	2	2	1	120	220	320	NaN	520	0.937267180066556	2	0	NaN	3978150.6570282	NaN	3978151.6404302	3978152.15697862
29	19	1	0	90	36.1581920903955	36.241610738255	14	0.466725503839552	2	3	6	NaN	1	4	0.466906167261505	0	1	NaN	66	2	3	1	120	220	320	NaN	520	0.351174579933286	1	1	NaN	3978153.9073776	NaN	3978154.8907499	3978155.40729792
29	19	1	0	90	36.1581920903955	36.241610738255	6	0.200025215931237	2	4	1	NaN	1	3	0.466906167261505	0	1	NaN	67	2	4	1	120	220	320	NaN	520	0.252181828487664	1	1	NaN	3978156.5741598	NaN	3978157.5576654	3978158.07423077
29	19	1	0	90	36.1581920903955	36.241610738255	18	0.60007564779371	2	4	6	NaN	1	3	0.466906167261505	0	1	NaN	68	2	5	1	120	220	320	NaN	520	1.34910183213651	1	1	NaN	3978159.1412071	NaN	3978160.124608	3978160.64115277
29	19	1	0	90	36.1581920903955	36.241610738255	6	0.200025215931237	2	5	6	NaN	1	4	0.466906167261505	0	1	NaN	69	2	6	1	120	220	320	NaN	520	0.546189832035452	1	1	NaN	3978162.8082594	NaN	3978163.7916263	3978164.30818027
29	19	1	0	90	36.1581920903955	36.241610738255	12	0.400050431862474	2	2	4	NaN	1	4	0.466906167261505	0	1	NaN	70	2	7	1	120	220	320	NaN	520	0.223597928881645	1	1	NaN	3978165.6751832	NaN	3978166.6585478	3978167.17511667
29	19	1	0	90	36.1581920903955	36.241610738255	25	0.833438399713487	2	3	2	NaN	1	5	0.466906167261505	0	1	NaN	71	2	8	1	120	220	320	NaN	520	0.434080180246383	1	1	NaN	3978168.2087615	NaN	3978169.1921616	3978169.70870152
29	19	1	0	90	36.1581920903955	36.241610738255	19	0.63341318378225	2	8	1	NaN	2	4	0.466906167261505	0	1	NaN	72	2	9	1	120	220	320	NaN	520	0.275447480380535	1	0	NaN	3978170.9588946	NaN	3978171.9424192	3978172.45896662
29	19	1	0	90	36.1581920903955	36.241610738255	15	0.500063039828092	2	2	5	NaN	1	5	0.466906167261505	0	1	NaN	73	2	10	1	120	220	320	NaN	520	0.27882638014853	1	1	NaN	3978173.8758463	NaN	3978174.8593745	3978175.37594932
29	19	1	0	90	36.1581920903955	36.241610738255	23	0.766763327736408	2	6	1	NaN	1	3	0.466906167261505	0	1	NaN	74	2	11	1	120	220	320	NaN	520	0.311081232037395	1	1	NaN	3978176.4762589	NaN	3978177.4596285	3978177.97618907
29	19	1	0	90	36.1581920903955	36.241610738255	20	0.666750719770789	2	5	1	NaN	1	5	0.466906167261505	0	1	NaN	75	2	12	1	120	220	320	NaN	520	0.932674928568304	1	1	NaN	3978179.1098223	NaN	3978180.0932245	3978180.60977067
29	19	1	0	90	36.1581920903955	36.241610738255	21	0.700088255759329	2	11	6	NaN	2	3	0.466906167261505	0	1	NaN	76	2	13	1	120	220	320	NaN	520	0.162737180478871	2	1	NaN	3978182.3601295	NaN	3978183.3435561	3978183.86008532
29	19	1	0	90	36.1581920903955	36.241610738255	21	0.700088255759329	2	9	1	NaN	2	4	0.466906167261505	0	1	NaN	77	2	14	1	120	220	320	NaN	520	0.223847580142319	2	1	NaN	3978184.8270587	NaN	3978185.8104545	3978186.32700182
29	19	1	0	90	36.1581920903955	36.241610738255	22	0.733425791747868	2	8	3	NaN	2	3	0.466906167261505	0	1	NaN	78	2	15	1	120	220	320	NaN	520	0.273834731895477	2	1	NaN	3978187.360651	NaN	3978188.3440308	3978188.86058757
29	19	1	0	90	36.1581920903955	36.241610738255	0	0	1	1	1	NaN	1	4	0.466906167261505	0	1	NaN	79	2	16	1	110	210	310	NaN	510	0.314417328685522	1	1	NaN	3978189.9440971	NaN	3978190.9276209	3978191.44416297
29	19	1	0	90	36.1581920903955	36.241610738255	21	0.700088255759329	2	7	1	NaN	2	4	0.466906167261505	0	1	NaN	80	2	17	1	120	220	320	NaN	520	0.23253518063575	2	1	NaN	3978192.5778092	NaN	3978193.5612099	3978194.07775622
29	19	1	0	90	36.1581920903955	36.241610738255	6	0.200025215931237	2	9	5	NaN	2	5	0.466906167261505	0	1	NaN	81	2	18	1	120	220	320	NaN	520	0.186768880113959	2	1	NaN	3978195.1280648	NaN	3978196.1114515	3978196.62800792
29	19	1	0	90	36.1581920903955	36.241610738255	24	0.800100863724947	2	8	6	NaN	2	3	0.466906167261505	0	1	NaN	82	2	19	1	120	220	320	NaN	520	0.04619848029688	1	0	NaN	3978197.6283182	NaN	3978198.6116921	3978199.12825162
29	19	1	0	90	36.1581920903955	36.241610738255	16	0.533400575816631	2	5	6	NaN	1	3	0.466906167261505	0	1	NaN	83	2	20	1	120	220	320	NaN	520	0.287198845297098	1	1	NaN	3978199.9952022	NaN	3978200.9785969	3978201.49515525
29	19	1	0	90	36.1581920903955	36.241610738255	8	0.266700287908316	2	10	3	NaN	2	3	0.466906167261505	0	1	NaN	84	2	21	1	120	220	320	NaN	520	0.135337580461055	1	0	NaN	3978202.5954615	NaN	3978203.5788771	3978204.09540922
29	19	1	0	90	36.1581920903955	36.241610738255	15	0.500063039828092	2	8	4	NaN	2	4	0.466906167261505	0	1	NaN	85	2	22	1	120	220	320	NaN	520	0.269189280457795	1	0	NaN	3978205.045699	NaN	3978206.029102	3978206.54565942
29	19	1	0	90	36.1581920903955	36.241610738255	7	0.233362751919776	2	2	5	NaN	1	5	0.466906167261505	0	1	NaN	86	2	23	1	120	220	320	NaN	520	0.813134380150586	1	1	NaN	3978207.629171	NaN	3978208.6126743	3978209.12923342
29	19	1	0	90	36.1581920903955	36.241610738255	8	0.266700287908316	2	9	1	NaN	2	5	0.466906167261505	0	1	NaN	87	2	24	1	120	220	320	NaN	520	0.35969983227551	2	1	NaN	3978210.7629353	NaN	3978211.7463272	3978212.26287897
29	19	1	0	90	36.1581920903955	36.241610738255	11	0.366712895873934	2	7	5	NaN	2	5	0.466906167261505	0	1	NaN	88	2	25	1	120	220	320	NaN	520	0.229003980290145	2	1	NaN	3978213.4299344	NaN	3978214.4132516	3978214.92980732
29	19	1	0	90	36.1581920903955	36.241610738255	25	0.833438399713487	2	10	4	NaN	2	4	0.466906167261505	0	1	NaN	89	2	26	1	120	220	320	NaN	520	0.623124928679317	2	1	NaN	3978215.9634391	NaN	3978216.9468504	3978217.46338607
29	19	1	0	90	36.1581920903955	36.241610738255	14	0.466725503839552	2	12	5	NaN	2	3	0.466906167261505	0	1	NaN	90	2	27	1	120	220	320	NaN	520	0.20150078041479	1	0	NaN	3978218.897079	NaN	3978219.8804565	3978220.39700652
29	19	1	0	90	36.1581920903955	36.241610738255	14	0.466725503839552	2	9	2	NaN	2	3	0.466906167261505	0	1	NaN	91	2	28	1	120	220	320	NaN	520	0.0104072322137654	2	1	NaN	3978221.8140161	NaN	3978222.7973916	3978223.31396717
29	19	1	0	90	36.1581920903955	36.241610738255	0	0	1	8	1	NaN	2	5	0.466906167261505	0	1	NaN	92	2	29	1	110	210	310	NaN	510	0.15934518026188	2	1	NaN	3978224.14753	NaN	3978225.1309818	3978225.64752212
29	19	1	0	90	36.1581920903955	36.241610738255	23	0.766763327736408	2	5	1	NaN	1	4	0.466906167261505	0	1	NaN	93	2	30	1	120	220	320	NaN	520	0.164487028494477	1	1	NaN	3978226.6144893	NaN	3978227.5978938	3978228.11443127
29	19	1	0	90	36.1581920903955	36.241610738255	20	0.666750719770789	2	4	1	NaN	1	3	0.466906167261505	0	1	NaN	94	2	31	1	120	220	320	NaN	520	0.192737032193691	1	1	NaN	3978229.0980812	NaN	3978230.0814534	3978230.59801967
29	19	1	0	90	36.1581920903955	36.241610738255	9	0.300037823896855	2	1	2	NaN	1	4	0.466906167261505	0	1	NaN	95	2	32	1	120	220	320	NaN	520	0.0104752732440829	1	1	NaN	3978231.5983145	NaN	3978232.5817152	3978233.09825433
29	19	1	0	90	36.1581920903955	36.241610738255	22	0.733425791747868	2	2	3	NaN	1	4	0.466906167261505	0	1	NaN	96	2	33	1	120	220	320	NaN	520	0.534707080107182	1	1	NaN	3978233.9317439	NaN	3978234.915271	3978235.43181472
29	19	1	0	90	36.1581920903955	36.241610738255	21	0.700088255759329	2	3	4	NaN	1	3	0.466906167261505	0	1	NaN	97	2	34	1	120	220	320	NaN	520	3.25237328000367	1	1	NaN	3978236.7821816	NaN	3978237.765542	3978238.28212412
29	19	1	0	90	36.1581920903955	36.241610738255	6	0.200025215931237	2	12	3	NaN	2	4	0.466906167261505	0	1	NaN	98	2	35	1	120	220	320	NaN	520	0.581314680632204	1	0	NaN	3978242.3493589	NaN	3978243.3327561	3978243.84931442
29	19	1	0	90	36.1581920903955	36.241610738255	9	0.300037823896855	2	1	3	NaN	1	5	0.466906167261505	0	1	NaN	99	2	36	1	120	220	320	NaN	520	0.296756880357862	2	0	NaN	3978245.249652	NaN	3978246.2330463	3978246.74960152
29	19	1	0	90	36.1581920903955	36.241610738255	19	0.63341318378225	2	5	4	NaN	1	4	0.466906167261505	0	1	NaN	100	2	37	1	120	220	320	NaN	520	1.33623678004369	1	1	NaN	3978247.8665997	NaN	3978248.8499623	3978249.36651822
29	19	1	0	90	36.1581920903955	36.241610738255	18	0.60007564779371	2	1	1	NaN	1	4	0.466906167261505	0	1	NaN	101	2	38	1	120	220	320	NaN	520	0.0856119319796562	1	1	NaN	3978251.5169617	NaN	3978252.5003357	3978253.01689057
29	19	1	0	90	36.1581920903955	36.241610738255	13	0.433387967851013	2	7	4	NaN	2	4	0.466906167261505	0	1	NaN	102	2	39	1	120	220	320	NaN	520	0.436878828797489	1	0	NaN	3978253.9338381	NaN	3978254.9172338	3978255.43378967
29	19	1	0	90	36.1581920903955	36.241610738255	24	0.800100863724947	2	10	1	NaN	2	5	0.466906167261505	0	1	NaN	103	2	40	1	120	220	320	NaN	520	0.238690580241382	2	1	NaN	3978256.6841098	NaN	3978257.6675324	3978258.18405242
29	19	1	0	90	36.1581920903955	36.241610738255	21	0.700088255759329	2	9	2	NaN	2	3	0.466906167261505	0	1	NaN	104	2	41	1	120	220	320	NaN	520	0.303930980153382	2	1	NaN	3978259.2343616	NaN	3978260.217764	3978260.73430182
29	19	1	0	90	36.1581920903955	36.241610738255	24	0.800100863724947	2	6	3	NaN	1	4	0.466906167261505	0	1	NaN	105	2	42	1	120	220	320	NaN	520	0.263441831804812	1	1	NaN	3978261.8512769	NaN	3978262.8346784	3978263.35123557
29	19	1	0	90	36.1581920903955	36.241610738255	16	0.533400575816631	2	6	3	NaN	1	5	0.466906167261505	0	1	NaN	106	2	43	1	120	220	320	NaN	520	0.320372931659222	1	1	NaN	3978264.4182027	NaN	3978265.4016203	3978265.91815357
29	19	1	0	90	36.1581920903955	36.241610738255	8	0.266700287908316	2	8	5	NaN	2	4	0.466906167261505	0	1	NaN	107	2	44	1	120	220	320	NaN	520	0.318534280173481	1	0	NaN	3978267.05165	NaN	3978268.0351748	3978268.55174482
29	19	1	0	90	36.1581920903955	36.241610738255	20	0.666750719770789	2	2	4	NaN	1	5	0.466906167261505	0	1	NaN	108	2	45	1	120	220	320	NaN	520	1.46125847985968	1	1	NaN	3978269.6853071	NaN	3978270.6687825	3978271.18533012
29	19	1	0	90	36.1581920903955	36.241610738255	9	0.300037823896855	2	8	1	NaN	2	4	0.466906167261505	0	1	NaN	109	2	46	1	120	220	320	NaN	520	0.294295180123299	1	0	NaN	3978273.452421	NaN	3978274.435824	3978274.95237132
29	19	1	0	90	36.1581920903955	36.241610738255	17	0.566738111805171	2	8	3	NaN	2	3	0.466906167261505	0	1	NaN	110	2	47	1	120	220	320	NaN	520	1.75821642857045	1	0	NaN	3978276.0526043	NaN	3978277.0360803	3978277.55262207
29	19	1	0	90	36.1581920903955	36.241610738255	25	0.833438399713487	2	4	3	NaN	1	5	0.466906167261505	0	1	NaN	111	2	48	1	120	220	320	NaN	520	0.291077880188823	1	1	NaN	3978280.1197528	NaN	3978281.1031203	3978281.61968462
29	19	1	0	90	36.1581920903955	36.241610738255	14	0.466725503839552	2	7	2	NaN	2	3	0.466906167261505	0	1	NaN	112	2	49	1	120	220	320	NaN	520	0.083010180387646	1	0	NaN	3978282.7200114	NaN	3978283.7033816	3978284.21993952
29	19	1	0	90	36.1581920903955	36.241610738255	20	0.666750719770789	2	9	6	NaN	2	3	0.466906167261505	0	1	NaN	113	2	50	1	120	220	320	NaN	520	0.962420680560172	2	1	NaN	3978285.120278	NaN	3978286.1036407	3978286.62018432
29	19	1	0	90	36.1581920903955	36.241610738255	17	0.566738111805171	2	7	1	NaN	2	3	0.466906167261505	0	1	NaN	114	2	51	1	120	220	320	NaN	520	0.204417380038649	2	1	NaN	3978288.4704888	NaN	3978289.4539662	3978289.97050572
29	19	1	0	90	36.1581920903955	36.241610738255	22	0.733425791747868	2	2	1	NaN	1	5	0.466906167261505	0	1	NaN	115	2	52	1	120	220	320	NaN	520	0.319538080133498	1	1	NaN	3978290.987479	NaN	3978291.9708711	3978292.48742722
29	19	1	0	90	36.1581920903955	36.241610738255	17	0.566738111805171	2	6	6	NaN	1	5	0.466906167261505	0	1	NaN	116	2	53	1	120	220	320	NaN	520	0.317869680467993	1	1	NaN	3978293.6210762	NaN	3978294.6044712	3978295.12100742
29	19	1	0	90	36.1581920903955	36.241610738255	18	0.60007564779371	2	5	2	NaN	1	5	0.466906167261505	0	1	NaN	117	2	54	1	120	220	320	NaN	520	0.284571080468595	1	1	NaN	3978296.2378769	NaN	3978297.2213845	3978297.73793272
29	19	1	0	90	36.1581920903955	36.241610738255	17	0.566738111805171	2	9	5	NaN	2	4	0.466906167261505	0	1	NaN	118	2	55	1	120	220	320	NaN	520	0.0926174800843	2	1	NaN	3978298.8383623	NaN	3978299.8216679	3978300.33818742
29	19	1	0	90	36.1581920903955	36.241610738255	10	0.333375359885395	2	12	4	NaN	2	3	0.466906167261505	0	1	NaN	119	2	56	1	120	220	320	NaN	520	0.812210438773036	2	1	NaN	3978301.2383452	NaN	3978302.2219673	3978302.73843646
29	19	1	0	90	36.1581920903955	36.241610738255	7	0.233362751919776	2	3	1	NaN	1	5	0.466906167261505	0	1	NaN	120	2	57	1	120	220	320	NaN	520	0.270649180281907	1	1	NaN	3978304.3719689	NaN	3978305.3555255	3978305.87206412
29	19	1	0	90	36.1581920903955	36.241610738255	7	0.233362751919776	2	12	4	NaN	2	5	0.466906167261505	0	1	NaN	121	2	58	1	120	220	320	NaN	520	0.223202889785171	2	1	NaN	3978306.9555926	NaN	3978307.939142	3978308.45566541
29	19	1	0	90	36.1581920903955	36.241610738255	25	0.833438399713487	2	1	6	NaN	1	5	0.466906167261505	0	1	NaN	122	2	59	1	120	220	320	NaN	520	0.553437880240381	2	0	NaN	3978309.4892927	NaN	3978310.4726945	3978310.98923552
29	19	1	0	90	36.1581920903955	36.241610738255	23	0.766763327736408	2	1	1	NaN	1	3	0.466906167261505	0	1	NaN	123	2	60	1	120	220	320	NaN	520	0.247987980023026	1	1	NaN	3978312.5228921	NaN	3978313.5063158	3978314.02286912
29	19	1	0	90	36.1581920903955	36.241610738255	11	0.366712895873934	2	2	2	NaN	1	5	0.466906167261505	0	1	NaN	124	2	61	1	120	220	320	NaN	520	0.27319248020649	1	1	NaN	3978315.0899144	NaN	3978316.0732466	3978316.58978382
29	19	1	0	90	36.1581920903955	36.241610738255	7	0.233362751919776	2	4	6	NaN	1	4	0.466906167261505	0	1	NaN	125	2	62	1	120	220	320	NaN	520	0.232604980003089	1	1	NaN	3978317.8901957	NaN	3978318.8735103	3978319.39006302
29	19	1	0	90	36.1581920903955	36.241610738255	13	0.433387967851013	2	11	1	NaN	2	4	0.466906167261505	0	1	NaN	126	2	63	1	120	220	320	NaN	520	0.306386231910437	1	0	NaN	3978320.4402302	NaN	3978321.4237663	3978321.94032057
29	19	1	0	90	36.1581920903955	36.241610738255	20	0.666750719770789	2	3	5	NaN	1	5	0.466906167261505	0	1	NaN	127	3	1	1	120	220	320	NaN	520	0.325011231936514	1	1	NaN	3978345.309526	NaN	3978346.2928806	3978346.80942637
29	19	1	0	90	36.1581920903955	36.241610738255	22	0.733425791747868	2	5	5	NaN	1	3	0.466906167261505	0	1	NaN	128	3	2	1	120	220	320	NaN	520	1.16364413173869	1	1	NaN	3978347.9429662	NaN	3978348.9264594	3978349.44301817
29	19	1	0	90	36.1581920903955	36.241610738255	12	0.400050431862474	2	5	2	NaN	1	5	0.466906167261505	0	1	NaN	129	3	3	1	120	220	320	NaN	520	1.03226023213938	1	1	NaN	3978351.4267523	NaN	3978352.4101484	3978352.92669637
29	19	1	0	90	36.1581920903955	36.241610738255	10	0.333375359885395	2	11	3	NaN	2	5	0.466906167261505	0	1	NaN	130	3	4	1	120	220	320	NaN	520	0.225672580301762	2	1	NaN	3978354.7770948	NaN	3978355.760538	3978356.27702062
29	19	1	0	90	36.1581920903955	36.241610738255	11	0.366712895873934	2	1	6	NaN	1	5	0.466906167261505	0	1	NaN	131	3	5	1	120	220	320	NaN	520	0.236432731617242	2	0	NaN	3978357.3106391	NaN	3978358.2940628	3978358.81060667
29	19	1	0	90	36.1581920903955	36.241610738255	17	0.566738111805171	2	8	5	NaN	2	5	0.466906167261505	0	1	NaN	132	3	6	1	120	220	320	NaN	520	0.349894380196929	1	0	NaN	3978359.8609133	NaN	3978360.844274	3978361.36085632
29	19	1	0	90	36.1581920903955	36.241610738255	6	0.200025215931237	2	7	1	NaN	2	5	0.466906167261505	0	1	NaN	133	3	7	1	120	220	320	NaN	520	0.24278664495796	2	1	NaN	3978362.5276689	NaN	3978363.5112621	3978364.02778475
29	19	1	0	90	36.1581920903955	36.241610738255	15	0.500063039828092	2	9	1	NaN	2	3	0.466906167261505	0	1	NaN	134	3	8	1	120	220	320	NaN	520	0.212675380054861	2	1	NaN	3978365.0779807	NaN	3978366.0614905	3978366.57802962
29	19	1	0	90	36.1581920903955	36.241610738255	25	0.833438399713487	2	8	2	NaN	2	4	0.466906167261505	0	1	NaN	135	3	9	1	120	220	320	NaN	520	0.32805454172194	2	1	NaN	3978367.5948495	NaN	3978368.578394	3978369.09494996
29	19	1	0	90	36.1581920903955	36.241610738255	12	0.400050431862474	2	1	5	NaN	1	4	0.466906167261505	0	1	NaN	136	3	10	1	120	220	320	NaN	520	0.262178280390799	2	0	NaN	3978370.2285734	NaN	3978371.211986	3978371.72854092
29	19	1	0	90	36.1581920903955	36.241610738255	6	0.200025215931237	2	5	4	NaN	1	5	0.466906167261505	0	1	NaN	137	3	11	1	120	220	320	NaN	520	0.590457428246737	2	0	NaN	3978372.812195	NaN	3978373.79558	3978374.31211887
29	19	1	0	90	36.1581920903955	36.241610738255	22	0.733425791747868	2	4	5	NaN	1	3	0.466906167261505	0	1	NaN	138	3	12	1	120	220	320	NaN	520	0.266601080540568	1	1	NaN	3978375.7124562	NaN	3978376.6958596	3978377.21240402
29	19	1	0	90	36.1581920903955	36.241610738255	20	0.666750719770789	2	8	4	NaN	2	5	0.466906167261505	0	1	NaN	139	3	13	1	120	220	320	NaN	520	0.298592332284898	1	0	NaN	3978378.2959856	NaN	3978379.2794412	3978379.79599757
29	19	1	0	90	36.1581920903955	36.241610738255	24	0.800100863724947	2	1	5	NaN	1	3	0.466906167261505	0	1	NaN	140	3	14	1	120	220	320	NaN	520	0.257661896757782	2	0	NaN	3978380.9130224	NaN	3978381.8963714	3978382.4129191
29	19	1	0	90	36.1581920903955	36.241610738255	19	0.63341318378225	2	4	4	NaN	1	3	0.466906167261505	0	1	NaN	141	3	15	1	120	220	320	NaN	520	0.595212231855839	1	1	NaN	3978383.4798904	NaN	3978384.4632972	3978384.97984017
29	19	1	0	90	36.1581920903955	36.241610738255	16	0.533400575816631	2	10	1	NaN	2	3	0.466906167261505	0	1	NaN	142	3	16	1	120	220	320	NaN	520	0.277972496580333	2	1	NaN	3978386.3968377	NaN	3978387.3803037	3978387.8967994
29	19	1	0	90	36.1581920903955	36.241610738255	20	0.666750719770789	2	12	3	NaN	2	4	0.466906167261505	0	1	NaN	143	3	17	1	120	220	320	NaN	520	0.694681241642684	1	0	NaN	3978388.9803518	NaN	3978389.9638248	3978390.48037746
29	19	1	0	90	36.1581920903955	36.241610738255	6	0.200025215931237	2	9	4	NaN	2	3	0.466906167261505	0	1	NaN	144	3	18	1	120	220	320	NaN	520	1.10244902875274	2	1	NaN	3978391.9807211	NaN	3978392.9641223	3978393.48066987
29	19	1	0	90	36.1581920903955	36.241610738255	0	0	1	10	1	NaN	2	3	0.466906167261505	0	1	NaN	145	3	19	1	110	210	310	NaN	510	0.189367528539151	2	1	NaN	3978395.3977455	NaN	3978396.3811302	3978396.89766427
29	19	1	0	90	36.1581920903955	36.241610738255	8	0.266700287908316	2	6	1	NaN	1	4	0.466906167261505	0	1	NaN	146	3	20	1	120	220	320	NaN	520	0.20880888029933	1	1	NaN	3978397.8979622	NaN	3978398.8813606	3978399.39791182
29	19	1	0	90	36.1581920903955	36.241610738255	24	0.800100863724947	2	5	3	NaN	1	3	0.466906167261505	0	1	NaN	147	3	21	1	120	220	320	NaN	520	0.507669432088733	1	1	NaN	3978400.4148922	NaN	3978401.3983881	3978401.91483867
29	19	1	0	90	36.1581920903955	36.241610738255	10	0.333375359885395	2	7	1	NaN	2	4	0.466906167261505	0	1	NaN	148	3	22	1	120	220	320	NaN	520	0.650860680267215	2	1	NaN	3978403.2318251	NaN	3978404.2152441	3978404.73177572
29	19	1	0	90	36.1581920903955	36.241610738255	20	0.666750719770789	2	6	6	NaN	1	4	0.466906167261505	0	1	NaN	149	3	23	1	120	220	320	NaN	520	0.163914031814784	1	1	NaN	3978406.1987785	NaN	3978407.182178	3978407.69873157
29	19	1	0	90	36.1581920903955	36.241610738255	15	0.500063039828092	2	3	6	NaN	1	4	0.466906167261505	0	1	NaN	150	3	24	1	120	220	320	NaN	520	0.241105580236763	2	0	NaN	3978408.6655823	NaN	3978409.6490907	3978410.16564712
29	19	1	0	90	36.1581920903955	36.241610738255	21	0.700088255759329	2	4	2	NaN	1	4	0.466906167261505	0	1	NaN	151	3	25	1	120	220	320	NaN	520	0.515180680435151	1	1	NaN	3978411.2159623	NaN	3978412.1993504	3978412.71588452
29	19	1	0	90	36.1581920903955	36.241610738255	20	0.666750719770789	2	2	2	NaN	1	4	0.466906167261505	0	1	NaN	152	3	26	1	120	220	320	NaN	520	0.457678880076855	1	1	NaN	3978414.0329271	NaN	3978415.0162745	3978415.53283762
29	19	1	0	90	36.1581920903955	36.241610738255	21	0.700088255759329	2	6	5	NaN	1	3	0.466906167261505	0	1	NaN	153	3	27	1	120	220	320	NaN	520	0.578966680448502	1	1	NaN	3978416.7998341	NaN	3978417.7831973	3978418.29976542
29	19	1	0	90	36.1581920903955	36.241610738255	24	0.800100863724947	2	3	4	NaN	1	5	0.466906167261505	0	1	NaN	154	3	28	1	120	220	320	NaN	520	0.271782128605992	1	1	NaN	3978419.6834568	NaN	3978420.6668447	3978421.18338267
29	19	1	0	90	36.1581920903955	36.241610738255	10	0.333375359885395	2	6	2	NaN	1	3	0.466906167261505	0	1	NaN	155	3	29	1	120	220	320	NaN	520	0.119958631694317	1	1	NaN	3978422.2670316	NaN	3978423.2504543	3978423.76698267
29	19	1	0	90	36.1581920903955	36.241610738255	6	0.200025215931237	2	2	4	NaN	1	4	0.466906167261505	0	1	NaN	156	3	30	1	120	220	320	NaN	520	0.310228228569031	1	1	NaN	3978424.700609	NaN	3978425.6839829	3978426.20054727
29	19	1	0	90	36.1581920903955	36.241610738255	13	0.433387967851013	2	2	6	NaN	1	5	0.466906167261505	0	1	NaN	157	3	31	1	120	220	320	NaN	520	0.165310180280358	1	1	NaN	3978427.3175431	NaN	3978428.3009237	3978428.81747332
29	19	1	0	90	36.1581920903955	36.241610738255	8	0.266700287908316	2	12	4	NaN	2	3	0.466906167261505	0	1	NaN	158	3	32	1	120	220	320	NaN	520	0.249671980272979	1	0	NaN	3978429.8010997	NaN	3978430.7844988	3978431.30104882
29	19	1	0	90	36.1581920903955	36.241610738255	10	0.333375359885395	2	2	3	NaN	1	4	0.466906167261505	0	1	NaN	159	3	33	1	120	220	320	NaN	520	0.218716828618199	1	1	NaN	3978432.368029	NaN	3978433.351431	3978433.86796517
29	19	1	0	90	36.1581920903955	36.241610738255	6	0.200025215931237	2	11	4	NaN	2	3	0.466906167261505	0	1	NaN	160	3	34	1	120	220	320	NaN	520	0.28535323170945	2	1	NaN	3978434.9016238	NaN	3978435.8849999	3978436.40154947
29	19	1	0	90	36.1581920903955	36.241610738255	7	0.233362751919776	2	7	4	NaN	2	5	0.466906167261505	0	1	NaN	161	3	35	1	120	220	320	NaN	520	0.620577180292457	1	0	NaN	3978437.9184181	NaN	3978438.9019667	3978439.41851372
29	19	1	0	90	36.1581920903955	36.241610738255	22	0.733425791747868	2	12	1	NaN	2	5	0.466906167261505	0	1	NaN	162	3	36	1	120	220	320	NaN	520	0.110873831901699	1	0	NaN	3978440.8521837	NaN	3978441.8355575	3978442.35213917
29	19	1	0	90	36.1581920903955	36.241610738255	21	0.700088255759329	2	5	5	NaN	1	5	0.466906167261505	0	1	NaN	163	3	37	1	120	220	320	NaN	520	0.181678580585867	1	1	NaN	3978443.2689626	NaN	3978444.2524971	3978444.76903042
29	19	1	0	90	36.1581920903955	36.241610738255	18	0.60007564779371	2	6	5	NaN	1	5	0.466906167261505	0	1	NaN	164	3	38	1	120	220	320	NaN	520	0.649486228823662	1	1	NaN	3978445.7692052	NaN	3978446.7527423	3978447.26927607
29	19	1	0	90	36.1581920903955	36.241610738255	25	0.833438399713487	2	9	3	NaN	2	4	0.466906167261505	0	1	NaN	165	3	39	1	120	220	320	NaN	520	0.714508880395442	1	0	NaN	3978448.7362993	NaN	3978449.7196971	3978450.23627082
29	19	1	0	90	36.1581920903955	36.241610738255	10	0.333375359885395	2	5	3	NaN	1	3	0.466906167261505	0	1	NaN	166	3	40	1	120	220	320	NaN	520	1.24170558061451	1	1	NaN	3978451.7532592	NaN	3978452.7366367	3978453.25319952
29	19	1	0	90	36.1581920903955	36.241610738255	12	0.400050431862474	2	11	3	NaN	2	4	0.466906167261505	0	1	NaN	167	3	41	1	120	220	320	NaN	520	0.107291880529374	2	1	NaN	3978455.3035971	NaN	3978456.287012	3978456.80354622
29	19	1	0	90	36.1581920903955	36.241610738255	21	0.700088255759329	2	3	2	NaN	1	5	0.466906167261505	0	1	NaN	168	3	42	1	120	220	320	NaN	520	0.258690380025655	1	1	NaN	3978457.7205371	NaN	3978458.7039071	3978459.22045822
29	19	1	0	90	36.1581920903955	36.241610738255	9	0.300037823896855	2	7	2	NaN	2	5	0.466906167261505	0	1	NaN	169	3	43	1	120	220	320	NaN	520	0.227470780257136	1	0	NaN	3978460.2873468	NaN	3978461.2708739	3978461.78737982
29	19	1	0	90	36.1581920903955	36.241610738255	16	0.533400575816631	2	3	5	NaN	1	4	0.466906167261505	0	1	NaN	170	3	44	1	120	220	320	NaN	520	0.0104213799349964	1	1	NaN	3978462.821018	NaN	3978463.8044144	3978464.32095462
29	19	1	0	90	36.1581920903955	36.241610738255	15	0.500063039828092	2	7	5	NaN	2	4	0.466906167261505	0	1	NaN	171	3	45	1	120	220	320	NaN	520	0.401015180163085	1	0	NaN	3978465.137829	NaN	3978466.1213116	3978466.63784742
29	19	1	0	90	36.1581920903955	36.241610738255	18	0.60007564779371	2	12	4	NaN	2	5	0.466906167261505	0	1	NaN	172	3	46	1	120	220	320	NaN	520	0.252312580123544	2	1	NaN	3978467.8548326	NaN	3978468.8382929	3978469.35477882
29	19	1	0	90	36.1581920903955	36.241610738255	18	0.60007564779371	2	9	5	NaN	2	3	0.466906167261505	0	1	NaN	173	3	47	1	120	220	320	NaN	520	0.133353080134839	2	1	NaN	3978470.4217691	NaN	3978471.4051628	3978471.92169632
29	19	1	0	90	36.1581920903955	36.241610738255	19	0.63341318378225	2	6	2	NaN	1	4	0.466906167261505	0	1	NaN	174	3	48	1	120	220	320	NaN	520	0.859009280335158	1	1	NaN	3978472.8719971	NaN	3978473.8554257	3978474.37194982
29	19	1	0	90	36.1581920903955	36.241610738255	17	0.566738111805171	2	1	6	NaN	1	4	0.466906167261505	0	1	NaN	175	3	49	1	120	220	320	NaN	520	0.26031238026917	1	1	NaN	3978476.0389694	NaN	3978477.0223783	3978477.53891722
29	19	1	0	90	36.1581920903955	36.241610738255	20	0.666750719770789	2	10	5	NaN	2	5	0.466906167261505	0	1	NaN	176	3	50	1	120	220	320	NaN	520	0.149170880205929	1	0	NaN	3978478.6058924	NaN	3978479.589276	3978480.10583372
29	19	1	0	90	36.1581920903955	36.241610738255	17	0.566738111805171	2	10	1	NaN	2	4	0.466906167261505	0	1	NaN	177	3	51	1	120	220	320	NaN	520	0.298216838855296	1	0	NaN	3978481.0728185	NaN	3978482.056189	3978482.57275836
29	19	1	0	90	36.1581920903955	36.241610738255	12	0.400050431862474	2	2	2	NaN	1	3	0.466906167261505	0	1	NaN	178	3	52	1	120	220	320	NaN	520	0.0104077802971005	1	1	NaN	3978483.6897336	NaN	3978484.6731192	3978485.18966672
29	19	1	0	90	36.1581920903955	36.241610738255	11	0.366712895873934	2	10	1	NaN	2	3	0.466906167261505	0	1	NaN	179	3	53	1	120	220	320	NaN	520	0.233841279987246	2	1	NaN	3978486.8732461	NaN	3978487.8567728	3978488.37331692
29	19	1	0	90	36.1581920903955	36.241610738255	14	0.466725503839552	2	10	2	NaN	2	4	0.466906167261505	0	1	NaN	180	3	54	1	120	220	320	NaN	520	0.179176432080567	1	0	NaN	3978489.4236344	NaN	3978490.407015	3978490.92357567
29	19	1	0	90	36.1581920903955	36.241610738255	10	0.333375359885395	2	1	2	NaN	1	3	0.466906167261505	0	1	NaN	181	3	55	1	120	220	320	NaN	520	0.158970631659031	1	1	NaN	3978491.923881	NaN	3978492.9072722	3978493.42381887
29	19	1	0	90	36.1581920903955	36.241610738255	11	0.366712895873934	2	4	1	NaN	1	3	0.466906167261505	0	1	NaN	182	3	56	1	120	220	320	NaN	520	0.189584341831505	1	1	NaN	3978494.9574926	NaN	3978495.9408935	3978496.45745246
29	19	1	0	90	36.1581920903955	36.241610738255	16	0.533400575816631	2	7	3	NaN	2	3	0.466906167261505	0	1	NaN	183	3	57	1	120	220	320	NaN	520	0.321498380042613	1	0	NaN	3978497.4578043	NaN	3978498.4411449	3978498.95768742
29	19	1	0	90	36.1581920903955	36.241610738255	13	0.433387967851013	2	5	6	NaN	1	5	0.466906167261505	0	1	NaN	184	3	58	1	120	220	320	NaN	520	0.0636123805306852	1	1	NaN	3978500.0913303	NaN	3978501.0747272	3978501.59128422
29	19	1	0	90	36.1581920903955	36.241610738255	0	0	1	10	5	NaN	2	4	0.466906167261505	0	1	NaN	185	3	59	1	110	210	310	NaN	510	0.775498379953206	1	0	NaN	3978503.0916088	NaN	3978504.0750405	3978504.59156942
29	19	1	0	90	36.1581920903955	36.241610738255	16	0.533400575816631	2	8	3	NaN	2	4	0.466906167261505	0	1	NaN	186	3	60	1	120	220	320	NaN	520	0.181349280290306	2	1	NaN	3978506.3419464	NaN	3978507.3253472	3978507.84188962
29	19	1	0	90	36.1581920903955	36.241610738255	16	0.533400575816631	2	9	3	NaN	2	4	0.466906167261505	0	1	NaN	187	3	61	1	120	220	320	NaN	520	0.129097231663764	2	1	NaN	3978508.842227	NaN	3978509.8254868	3978510.34215717
29	19	1	0	90	36.1581920903955	36.241610738255	9	0.300037823896855	2	9	6	NaN	2	4	0.466906167261505	0	1	NaN	188	3	62	1	120	220	320	NaN	520	0.0104249282740057	1	0	NaN	3978511.292437	NaN	3978512.2758276	3978512.79238667
29	19	1	0	90	36.1581920903955	36.241610738255	16	0.533400575816631	2	2	4	NaN	1	5	0.466906167261505	0	1	NaN	189	3	63	1	120	220	320	NaN	520	0.534074680414051	2	0	NaN	3978514.4927246	NaN	3978515.4761582	3978515.99268832
29	19	1	0	90	36.1581920903955	36.241610738255	21	0.700088255759329	2	8	6	NaN	2	4	0.466906167261505	0	1	NaN	190	4	1	1	120	220	320	NaN	520	0.246397831942886	1	0	NaN	3978546.0125252	NaN	3978546.9959097	3978547.51245827
29	19	1	0	90	36.1581920903955	36.241610738255	0	0	1	12	6	NaN	2	4	0.466906167261505	0	1	NaN	191	4	2	1	110	210	310	NaN	510	0.672173928469419	1	0	NaN	3978548.5627505	NaN	3978549.5460505	3978550.06269817
29	19	1	0	90	36.1581920903955	36.241610738255	9	0.300037823896855	2	8	3	NaN	2	5	0.466906167261505	0	1	NaN	192	4	3	1	120	220	320	NaN	520	0.184535525273532	2	1	NaN	3978551.5463986	NaN	3978552.529791	3978553.04632287
29	19	1	0	90	36.1581920903955	36.241610738255	22	0.733425791747868	2	5	1	NaN	1	4	0.466906167261505	0	1	NaN	193	4	4	1	120	220	320	NaN	520	0.332730038557202	1	1	NaN	3978554.0464907	NaN	3978555.0300589	3978555.54658356
29	19	1	0	90	36.1581920903955	36.241610738255	25	0.833438399713487	2	5	5	NaN	1	5	0.466906167261505	0	1	NaN	194	4	5	1	120	220	320	NaN	520	0.298212780151516	1	1	NaN	3978556.6969043	NaN	3978557.6802988	3978558.19683482
29	19	1	0	90	36.1581920903955	36.241610738255	13	0.433387967851013	2	6	2	NaN	1	4	0.466906167261505	0	1	NaN	195	4	6	1	120	220	320	NaN	520	0.0332997869700193	2	0	NaN	3978559.3138368	NaN	3978560.2972231	3978560.81377901
29	19	1	0	90	36.1581920903955	36.241610738255	11	0.366712895873934	2	6	1	NaN	1	4	0.466906167261505	0	1	NaN	196	4	7	1	120	220	320	NaN	520	0.106956383213401	1	1	NaN	3978561.664054	NaN	3978562.6474474	3978563.16399602
29	19	1	0	90	36.1581920903955	36.241610738255	14	0.466725503839552	2	1	5	NaN	1	5	0.466906167261505	0	1	NaN	197	4	8	1	120	220	320	NaN	520	1.89558632811531	1	1	NaN	3978564.1476516	NaN	3978565.131038	3978565.64756167
29	19	1	0	90	36.1581920903955	36.241610738255	25	0.833438399713487	2	7	2	NaN	2	3	0.466906167261505	0	1	NaN	198	4	9	1	120	220	320	NaN	520	0.0104633318260312	2	1	NaN	3978568.3480585	NaN	3978569.3314472	3978569.84798877
29	19	1	0	90	36.1581920903955	36.241610738255	17	0.566738111805171	2	9	3	NaN	2	5	0.466906167261505	0	1	NaN	199	4	10	1	120	220	320	NaN	520	0.138256180100143	2	1	NaN	3978570.6649559	NaN	3978571.6483252	3978572.16487252
29	19	1	0	90	36.1581920903955	36.241610738255	17	0.566738111805171	2	5	6	NaN	1	3	0.466906167261505	0	1	NaN	200	4	11	1	120	220	320	NaN	520	0.103630932047963	1	1	NaN	3978573.1151871	NaN	3978574.0985627	3978574.61512337
29	19	1	0	90	36.1581920903955	36.241610738255	11	0.366712895873934	2	11	1	NaN	2	5	0.466906167261505	0	1	NaN	201	4	12	1	120	220	320	NaN	520	0.158925979863852	2	1	NaN	3978575.5318807	NaN	3978576.5154538	3978577.03202452
29	19	1	0	90	36.1581920903955	36.241610738255	14	0.466725503839552	2	2	1	NaN	1	3	0.466906167261505	0	1	NaN	202	4	13	1	120	220	320	NaN	520	0.140253180172294	1	1	NaN	3978577.9988549	NaN	3978578.9823844	3978579.49892282
29	19	1	0	90	36.1581920903955	36.241610738255	10	0.333375359885395	2	10	3	NaN	2	5	0.466906167261505	0	1	NaN	203	4	14	1	120	220	320	NaN	520	0.15403694473207	1	0	NaN	3978580.4492185	NaN	3978581.4326242	3978581.94917116
29	19	1	0	90	36.1581920903955	36.241610738255	23	0.766763327736408	2	8	5	NaN	2	5	0.466906167261505	0	1	NaN	204	4	15	1	120	220	320	NaN	520	0.574756380170584	2	1	NaN	3978582.916115	NaN	3978583.8995678	3978584.41607132
29	19	1	0	90	36.1581920903955	36.241610738255	19	0.63341318378225	2	1	1	NaN	1	4	0.466906167261505	0	1	NaN	205	4	16	1	120	220	320	NaN	520	0.435368031729013	1	1	NaN	3978585.7997537	NaN	3978586.7831681	3978587.29969507
29	19	1	0	90	36.1581920903955	36.241610738255	16	0.533400575816631	2	4	2	NaN	1	5	0.466906167261505	0	1	NaN	206	4	17	1	120	220	320	NaN	520	0.149008932057768	1	1	NaN	3978588.5500321	NaN	3978589.5334227	3978590.04995857
29	19	1	0	90	36.1581920903955	36.241610738255	23	0.766763327736408	2	12	2	NaN	2	5	0.466906167261505	0	1	NaN	207	4	18	1	120	220	320	NaN	520	0.154191232286394	2	1	NaN	3978591.0169512	NaN	3978592.0003206	3978592.51686767
29	19	1	0	90	36.1581920903955	36.241610738255	11	0.366712895873934	2	5	5	NaN	1	4	0.466906167261505	0	1	NaN	208	4	19	1	120	220	320	NaN	520	0.792722831945866	2	0	NaN	3978593.650503	NaN	3978594.6339116	3978595.15047157
29	19	1	0	90	36.1581920903955	36.241610738255	25	0.833438399713487	2	7	6	NaN	2	4	0.466906167261505	0	1	NaN	209	4	20	1	120	220	320	NaN	520	0.420564280357212	2	1	NaN	3978596.7508145	NaN	3978597.7342084	3978598.25077512
29	19	1	0	90	36.1581920903955	36.241610738255	8	0.266700287908316	2	1	3	NaN	1	4	0.466906167261505	0	1	NaN	210	4	21	1	120	220	320	NaN	520	0.838659431785345	1	1	NaN	3978599.4844456	NaN	3978600.4678106	3978600.98437877
29	19	1	0	90	36.1581920903955	36.241610738255	11	0.366712895873934	2	7	1	NaN	2	3	0.466906167261505	0	1	NaN	211	4	22	1	120	220	320	NaN	520	0.144378293305635	1	0	NaN	3978602.6347415	NaN	3978603.6180928	3978604.13467811
29	19	1	0	90	36.1581920903955	36.241610738255	14	0.466725503839552	2	4	1	NaN	1	5	0.466906167261505	0	1	NaN	212	4	23	1	120	220	320	NaN	520	0.190013880375773	1	1	NaN	3978605.0849918	NaN	3978606.0683696	3978606.58492022
29	19	1	0	90	36.1581920903955	36.241610738255	25	0.833438399713487	2	4	6	NaN	1	3	0.466906167261505	0	1	NaN	213	4	24	1	120	220	320	NaN	520	0.209788628388196	1	1	NaN	3978607.5852216	NaN	3978608.5686109	3978609.08516217
29	19	1	0	90	36.1581920903955	36.241610738255	21	0.700088255759329	2	2	2	NaN	1	5	0.466906167261505	0	1	NaN	214	4	25	1	120	220	320	NaN	520	0.237093586940318	1	1	NaN	3978610.1021491	NaN	3978611.0855542	3978611.60207671
29	19	1	0	90	36.1581920903955	36.241610738255	25	0.833438399713487	2	8	5	NaN	2	3	0.466906167261505	0	1	NaN	215	4	26	1	120	220	320	NaN	520	0.0104057802818716	1	0	NaN	3978612.6522569	NaN	3978613.6357877	3978614.15233652
29	19	1	0	90	36.1581920903955	36.241610738255	7	0.233362751919776	2	10	1	NaN	2	3	0.466906167261505	0	1	NaN	216	4	27	1	120	220	320	NaN	520	0.307455180212855	2	1	NaN	3978615.3360151	NaN	3978616.319385	3978616.83592062
29	19	1	0	90	36.1581920903955	36.241610738255	23	0.766763327736408	2	1	4	NaN	1	3	0.466906167261505	0	1	NaN	217	4	28	1	120	220	320	NaN	520	2.55450648022816	1	1	NaN	3978617.9529232	NaN	3978618.936302	3978619.45285112
29	19	1	0	90	36.1581920903955	36.241610738255	16	0.533400575816631	2	4	5	NaN	1	5	0.466906167261505	0	1	NaN	218	4	29	1	120	220	320	NaN	520	0.0391570799984038	2	0	NaN	3978622.8200527	NaN	3978623.803449	3978624.31999092
29	19	1	0	90	36.1581920903955	36.241610738255	19	0.63341318378225	2	10	5	NaN	2	4	0.466906167261505	0	1	NaN	219	4	30	1	120	220	320	NaN	520	0.177055728621781	2	1	NaN	3978625.1702892	NaN	3978626.1536764	3978626.67022497
29	19	1	0	90	36.1581920903955	36.241610738255	19	0.63341318378225	2	7	5	NaN	2	5	0.466906167261505	0	1	NaN	220	4	31	1	120	220	320	NaN	520	0.237333979923278	2	1	NaN	3978627.6537314	NaN	3978628.6371548	3978629.15380162
29	19	1	0	90	36.1581920903955	36.241610738255	13	0.433387967851013	2	11	4	NaN	2	3	0.466906167261505	0	1	NaN	221	4	32	1	120	220	320	NaN	520	0.110748035367578	2	1	NaN	3978630.2041048	NaN	3978631.1875421	3978631.70406076
29	19	1	0	90	36.1581920903955	36.241610738255	13	0.433387967851013	2	3	6	NaN	1	5	0.466906167261505	0	1	NaN	222	4	33	1	120	220	320	NaN	520	0.822133741807193	2	0	NaN	3978632.6209019	NaN	3978633.6044052	3978634.12095416
29	19	1	0	90	36.1581920903955	36.241610738255	8	0.266700287908316	2	3	5	NaN	1	4	0.466906167261505	0	1	NaN	223	4	34	1	120	220	320	NaN	520	0.208824380300939	1	1	NaN	3978635.7545288	NaN	3978636.7380466	3978637.25460332
29	19	1	0	90	36.1581920903955	36.241610738255	19	0.63341318378225	2	10	2	NaN	2	3	0.466906167261505	0	1	NaN	224	4	35	1	120	220	320	NaN	520	0.0835498799569905	1	0	NaN	3978638.2715629	NaN	3978639.255043	3978639.77150452
29	19	1	0	90	36.1581920903955	36.241610738255	22	0.733425791747868	2	11	4	NaN	2	3	0.466906167261505	0	1	NaN	225	4	36	1	120	220	320	NaN	520	0.283933880273253	1	0	NaN	3978640.6550015	NaN	3978641.6385298	3978642.15508512
29	19	1	0	90	36.1581920903955	36.241610738255	10	0.333375359885395	2	5	5	NaN	1	4	0.466906167261505	0	1	NaN	226	4	37	1	120	220	320	NaN	520	0.115818580146879	1	1	NaN	3978643.2553813	NaN	3978644.2387859	3978644.75532952
29	19	1	0	90	36.1581920903955	36.241610738255	6	0.200025215931237	2	12	4	NaN	2	4	0.466906167261505	0	1	NaN	227	4	38	1	120	220	320	NaN	520	0.0902675283141434	2	1	NaN	3978645.6889417	NaN	3978646.6723355	3978647.18890477
29	19	1	0	90	36.1581920903955	36.241610738255	6	0.200025215931237	2	3	4	NaN	1	4	0.466906167261505	0	1	NaN	228	4	39	1	120	220	320	NaN	520	0.226003480143845	2	0	NaN	3978648.0892079	NaN	3978649.0726016	3978649.58914112
29	19	1	0	90	36.1581920903955	36.241610738255	9	0.300037823896855	2	11	1	NaN	2	3	0.466906167261505	0	1	NaN	229	4	40	1	120	220	320	NaN	520	0.0123524800874293	2	1	NaN	3978650.6226438	NaN	3978651.606178	3978652.12272542
29	19	1	0	90	36.1581920903955	36.241610738255	20	0.666750719770789	2	6	6	NaN	1	3	0.466906167261505	0	1	NaN	230	4	41	1	120	220	320	NaN	520	0.215611732099205	1	1	NaN	3978652.9395397	NaN	3978653.9230861	3978654.43962457
29	19	1	0	90	36.1581920903955	36.241610738255	25	0.833438399713487	2	9	6	NaN	2	4	0.466906167261505	0	1	NaN	231	4	42	1	120	220	320	NaN	520	0.282553280238062	2	1	NaN	3978655.4565871	NaN	3978656.4399807	3978656.95653702
29	19	1	0	90	36.1581920903955	36.241610738255	6	0.200025215931237	2	6	1	NaN	1	3	0.466906167261505	0	1	NaN	232	4	43	1	120	220	320	NaN	520	0.0103965322487056	1	1	NaN	3978658.0569576	NaN	3978659.0402696	3978659.55678697
29	19	1	0	90	36.1581920903955	36.241610738255	21	0.700088255759329	2	6	1	NaN	1	3	0.466906167261505	0	1	NaN	233	4	44	1	120	220	320	NaN	520	0.0103455865755677	1	1	NaN	3978660.3904108	NaN	3978661.3737929	3978661.89035931
29	19	1	0	90	36.1581920903955	36.241610738255	24	0.800100863724947	2	9	6	NaN	2	4	0.466906167261505	0	1	NaN	234	4	45	1	120	220	320	NaN	520	0.583877380006015	1	0	NaN	3978662.7073086	NaN	3978663.690703	3978664.20724002
29	19	1	0	90	36.1581920903955	36.241610738255	8	0.266700287908316	2	12	3	NaN	2	5	0.466906167261505	0	1	NaN	235	4	46	1	120	220	320	NaN	520	0.163631931878626	1	0	NaN	3978665.6075806	NaN	3978666.5909736	3978667.10753477
29	19	1	0	90	36.1581920903955	36.241610738255	6	0.200025215931237	2	4	4	NaN	1	4	0.466906167261505	0	1	NaN	236	4	47	1	120	220	320	NaN	520	1.22401013225317	1	1	NaN	3978668.0911709	NaN	3978669.074591	3978669.59111247
29	19	1	0	90	36.1581920903955	36.241610738255	7	0.233362751919776	2	3	3	NaN	1	3	0.466906167261505	0	1	NaN	237	4	48	1	120	220	320	NaN	520	0.010427828412503	1	1	NaN	3978671.6248443	NaN	3978672.6082346	3978673.12478537
29	19	1	0	90	36.1581920903955	36.241610738255	15	0.500063039828092	2	1	2	NaN	1	3	0.466906167261505	0	1	NaN	238	4	49	1	120	220	320	NaN	520	0.277797125279903	1	1	NaN	3978673.9417276	NaN	3978674.925135	3978675.44167177
29	19	1	0	90	36.1581920903955	36.241610738255	6	0.200025215931237	2	8	6	NaN	2	4	0.466906167261505	0	1	NaN	239	4	50	1	120	220	320	NaN	520	0.230253831949085	1	0	NaN	3978676.5253168	NaN	3978677.5087154	3978678.02526527
29	19	1	0	90	36.1581920903955	36.241610738255	24	0.800100863724947	2	12	6	NaN	2	5	0.466906167261505	0	1	NaN	240	4	51	1	120	220	320	NaN	520	0.943627593573183	1	0	NaN	3978679.0755723	NaN	3978680.0590189	3978680.57552841
29	19	1	0	90	36.1581920903955	36.241610738255	17	0.566738111805171	2	1	5	NaN	1	5	0.466906167261505	0	1	NaN	241	4	52	1	120	220	320	NaN	520	0.285292580258101	1	1	NaN	3978682.3258883	NaN	3978683.3092887	3978683.82583342
29	19	1	0	90	36.1581920903955	36.241610738255	9	0.300037823896855	2	7	4	NaN	2	4	0.466906167261505	0	1	NaN	242	4	53	1	120	220	320	NaN	520	0.333346132189035	2	1	NaN	3978684.9261493	NaN	3978685.909543	3978686.42609907
29	19	1	0	90	36.1581920903955	36.241610738255	23	0.766763327736408	2	6	5	NaN	1	5	0.466906167261505	0	1	NaN	243	4	54	1	120	220	320	NaN	520	0.307165780104697	1	1	NaN	3978687.5764133	NaN	3978688.5597972	3978689.07635672
29	19	1	0	90	36.1581920903955	36.241610738255	0	0	1	11	6	NaN	2	4	0.466906167261505	0	1	NaN	244	4	55	1	110	210	310	NaN	510	0.154028580524027	2	1	NaN	3978690.1933359	NaN	3978691.1767371	3978691.69327232
29	19	1	0	90	36.1581920903955	36.241610738255	18	0.60007564779371	2	1	4	NaN	1	4	0.466906167261505	0	1	NaN	245	4	56	1	120	220	320	NaN	520	0.406907476950437	1	1	NaN	3978692.6602357	NaN	3978693.6436509	3978694.16017972
29	19	1	0	90	36.1581920903955	36.241610738255	6	0.200025215931237	2	10	2	NaN	2	5	0.466906167261505	0	1	NaN	246	4	57	1	120	220	320	NaN	520	1.43433022871614	1	0	NaN	3978695.3771749	NaN	3978696.3605753	3978696.87710887
29	19	1	0	90	36.1581920903955	36.241610738255	17	0.566738111805171	2	7	4	NaN	2	5	0.466906167261505	0	1	NaN	247	4	58	1	120	220	320	NaN	520	0.187674880027771	1	0	NaN	3978699.1275358	NaN	3978700.1109302	3978700.62748412
29	19	1	0	90	36.1581920903955	36.241610738255	15	0.500063039828092	2	12	5	NaN	2	3	0.466906167261505	0	1	NaN	248	4	59	1	120	220	320	NaN	520	0.328087280504405	1	0	NaN	3978701.627797	NaN	3978702.611193	3978703.12772622
29	19	1	0	90	36.1581920903955	36.241610738255	21	0.700088255759329	2	12	3	NaN	2	5	0.466906167261505	0	1	NaN	249	4	60	1	120	220	320	NaN	520	0.365514628589153	1	0	NaN	3978704.2780421	NaN	3978705.2614415	3978705.77798717
29	19	1	0	90	36.1581920903955	36.241610738255	6	0.200025215931237	2	2	1	NaN	1	3	0.466906167261505	0	1	NaN	250	4	61	1	120	220	320	NaN	520	0.297905880492181	1	1	NaN	3978706.9616303	NaN	3978707.9450493	3978708.46158262
29	19	1	0	90	36.1581920903955	36.241610738255	7	0.233362751919776	2	6	5	NaN	1	5	0.466906167261505	0	1	NaN	251	4	62	1	120	220	320	NaN	520	0.305461631622165	1	1	NaN	3978709.7619029	NaN	3978710.745306	3978711.26186117
29	19	1	0	90	36.1581920903955	36.241610738255	23	0.766763327736408	2	12	3	NaN	2	3	0.466906167261505	0	1	NaN	252	4	63	1	120	220	320	NaN	520	0.888748132158071	2	1	NaN	3978712.378855	NaN	3978713.3622409	3978713.87878447
29	19	1	0	90	36.1581920903955	36.241610738255	10	0.333375359885395	2	10	3	NaN	2	3	0.466906167261505	0	1	NaN	253	5	1	1	120	220	320	NaN	520	0.924432128667831	1	0	NaN	3978718.2627576	NaN	3978719.2461699	3978719.76269487
29	19	1	0	90	36.1581920903955	36.241610738255	7	0.233362751919776	2	11	2	NaN	2	4	0.466906167261505	0	1	NaN	254	5	2	1	120	220	320	NaN	520	0.850927231833339	1	0	NaN	3978721.4963988	NaN	3978722.4797834	3978722.99635277
29	19	1	0	90	36.1581920903955	36.241610738255	14	0.466725503839552	2	12	2	NaN	2	4	0.466906167261505	0	1	NaN	255	5	3	1	120	220	320	NaN	520	0.467872132081538	1	0	NaN	3978724.6634151	NaN	3978725.6468202	3978726.16333297
29	19	1	0	90	36.1581920903955	36.241610738255	7	0.233362751919776	2	8	3	NaN	2	5	0.466906167261505	0	1	NaN	256	5	4	1	120	220	320	NaN	520	0.172356780152768	2	1	NaN	3978727.4469917	NaN	3978728.4303801	3978728.94693132
29	19	1	0	90	36.1581920903955	36.241610738255	13	0.433387967851013	2	6	5	NaN	1	4	0.466906167261505	0	1	NaN	257	5	5	1	120	220	320	NaN	520	0.185085838660598	1	1	NaN	3978729.9305716	NaN	3978730.9139614	3978731.43050526
29	19	1	0	90	36.1581920903955	36.241610738255	18	0.60007564779371	2	12	5	NaN	2	4	0.466906167261505	0	1	NaN	258	5	6	1	120	220	320	NaN	520	0.452729431912303	1	0	NaN	3978732.4308111	NaN	3978733.414204	3978733.93075307
29	19	1	0	90	36.1581920903955	36.241610738255	0	0	1	7	3	NaN	2	5	0.466906167261505	0	1	NaN	259	5	7	1	110	210	310	NaN	510	0.0103966319002211	1	0	NaN	3978735.1977515	NaN	3978736.1811505	3978736.69769237
29	19	1	0	90	36.1581920903955	36.241610738255	14	0.466725503839552	2	8	5	NaN	2	5	0.466906167261505	0	1	NaN	260	5	8	1	120	220	320	NaN	520	0.168152280151844	1	0	NaN	3978737.5313013	NaN	3978738.5147052	3978739.03124682
29	19	1	0	90	36.1581920903955	36.241610738255	12	0.400050431862474	2	6	3	NaN	1	4	0.466906167261505	0	1	NaN	261	5	9	1	120	220	320	NaN	520	0.388921080157161	1	1	NaN	3978740.0149038	NaN	3978740.9982855	3978741.51482682
29	19	1	0	90	36.1581920903955	36.241610738255	6	0.200025215931237	2	7	5	NaN	2	3	0.466906167261505	0	1	NaN	262	5	10	1	120	220	320	NaN	520	0.736423728521913	1	0	NaN	3978742.7151329	NaN	3978743.6985745	3978744.21509267
29	19	1	0	90	36.1581920903955	36.241610738255	8	0.266700287908316	2	4	3	NaN	1	4	0.466906167261505	0	1	NaN	263	5	11	1	120	220	320	NaN	520	0.397866531740874	1	1	NaN	3978745.7655611	NaN	3978746.7488386	3978747.26540347
29	19	1	0	90	36.1581920903955	36.241610738255	16	0.533400575816631	2	9	2	NaN	2	4	0.466906167261505	0	1	NaN	264	5	12	1	120	220	320	NaN	520	0.545232021715492	1	0	NaN	3978748.4823817	NaN	3978749.4657741	3978749.98233358
29	19	1	0	90	36.1581920903955	36.241610738255	0	0	1	5	6	NaN	1	4	0.466906167261505	0	1	NaN	265	5	13	1	110	210	310	NaN	510	1.11099384492263	1	1	NaN	3978751.3326762	NaN	3978752.3161352	3978752.83261045
29	19	1	0	90	36.1581920903955	36.241610738255	22	0.733425791747868	2	1	2	NaN	1	5	0.466906167261505	0	1	NaN	266	5	14	1	120	220	320	NaN	520	0.205637480132282	1	1	NaN	3978754.749528	NaN	3978755.7330613	3978756.24963072
29	19	1	0	90	36.1581920903955	36.241610738255	0	0	1	5	5	NaN	1	4	0.466906167261505	0	1	NaN	267	5	15	1	110	210	310	NaN	510	0.120486931875348	1	1	NaN	3978757.2665894	NaN	3978758.2499599	3978758.76653277
29	19	1	0	90	36.1581920903955	36.241610738255	0	0	1	9	2	NaN	2	5	0.466906167261505	0	1	NaN	268	5	16	1	110	210	310	NaN	510	0.0392314284108579	2	1	NaN	3978759.7002441	NaN	3978760.6835457	3978761.20008947
29	19	1	0	90	36.1581920903955	36.241610738255	14	0.466725503839552	2	6	3	NaN	1	3	0.466906167261505	0	1	NaN	269	5	17	1	120	220	320	NaN	520	0.201246479991823	1	1	NaN	3978762.0503959	NaN	3978763.0338289	3978763.55032392
29	19	1	0	90	36.1581920903955	36.241610738255	14	0.466725503839552	2	10	4	NaN	2	4	0.466906167261505	0	1	NaN	270	5	18	1	120	220	320	NaN	520	0.195886087138206	1	0	NaN	3978764.5673413	NaN	3978765.5506996	3978766.06724421
29	19	1	0	90	36.1581920903955	36.241610738255	15	0.500063039828092	2	5	2	NaN	1	4	0.466906167261505	0	1	NaN	271	5	19	1	120	220	320	NaN	520	0.575415380299091	1	1	NaN	3978767.0842372	NaN	3978768.0675019	3978768.58414822
29	19	1	0	90	36.1581920903955	36.241610738255	7	0.233362751919776	2	9	4	NaN	2	3	0.466906167261505	0	1	NaN	272	5	20	1	120	220	320	NaN	520	0.664094680454582	1	0	NaN	3978770.2511621	NaN	3978771.2345841	3978771.75112912
29	19	1	0	90	36.1581920903955	36.241610738255	11	0.366712895873934	2	12	5	NaN	2	4	0.466906167261505	0	1	NaN	273	5	21	1	120	220	320	NaN	520	0.704445180483162	1	0	NaN	3978773.2348166	NaN	3978774.218225	3978774.73475852
29	19	1	0	90	36.1581920903955	36.241610738255	7	0.233362751919776	2	5	1	NaN	1	3	0.466906167261505	0	1	NaN	274	5	22	1	120	220	320	NaN	520	1.08770773885772	1	1	NaN	3978776.2517751	NaN	3978777.2351732	3978777.75172266
29	19	1	0	90	36.1581920903955	36.241610738255	23	0.766763327736408	2	9	1	NaN	2	5	0.466906167261505	0	1	NaN	275	5	23	1	120	220	320	NaN	520	0.207394280470908	2	1	NaN	3978779.6521198	NaN	3978780.6355161	3978781.15204842
29	19	1	0	90	36.1581920903955	36.241610738255	9	0.300037823896855	2	10	3	NaN	2	5	0.466906167261505	0	1	NaN	276	5	24	1	120	220	320	NaN	520	0.898684279993176	1	0	NaN	3978782.1689191	NaN	3978783.1524091	3978783.66897592
29	19	1	0	90	36.1581920903955	36.241610738255	8	0.266700287908316	2	2	5	NaN	1	4	0.466906167261505	0	1	NaN	277	5	25	1	120	220	320	NaN	520	0.51327103190124	1	1	NaN	3978785.386003	NaN	3978786.3694363	3978786.88595987
29	19	1	0	90	36.1581920903955	36.241610738255	10	0.333375359885395	2	4	2	NaN	1	3	0.466906167261505	0	1	NaN	278	5	26	1	120	220	320	NaN	520	0.279790780041367	1	1	NaN	3978788.2196213	NaN	3978789.2030127	3978789.71956012
29	19	1	0	90	36.1581920903955	36.241610738255	8	0.266700287908316	2	7	1	NaN	2	5	0.466906167261505	0	1	NaN	279	5	27	1	120	220	320	NaN	520	0.0876817801035941	2	1	NaN	3978790.8199129	NaN	3978791.8032722	3978792.31981112
29	19	1	0	90	36.1581920903955	36.241610738255	22	0.733425791747868	2	10	4	NaN	2	5	0.466906167261505	0	1	NaN	280	5	28	1	120	220	320	NaN	520	0.327173848170787	2	1	NaN	3978793.2201085	NaN	3978794.2035189	3978794.72007865
29	19	1	0	90	36.1581920903955	36.241610738255	0	0	1	3	1	NaN	1	4	0.466906167261505	0	1	NaN	281	5	29	1	110	210	310	NaN	510	0.141452531795949	1	1	NaN	3978795.8537125	NaN	3978796.8370968	3978797.35365357
29	19	1	0	90	36.1581920903955	36.241610738255	20	0.666750719770789	2	1	1	NaN	1	5	0.466906167261505	0	1	NaN	282	5	30	1	120	220	320	NaN	520	0.195462692994624	1	1	NaN	3978798.3039342	NaN	3978799.287331	3978799.80389541
29	19	1	0	90	36.1581920903955	36.241610738255	18	0.60007564779371	2	10	6	NaN	2	4	0.466906167261505	0	1	NaN	283	5	31	1	120	220	320	NaN	520	0.198949328623712	2	1	NaN	3978800.8042185	NaN	3978801.7875988	3978802.30413697
29	19	1	0	90	36.1581920903955	36.241610738255	16	0.533400575816631	2	1	4	NaN	1	3	0.466906167261505	0	1	NaN	284	5	32	1	120	220	320	NaN	520	0.480617980472744	1	1	NaN	3978803.3710831	NaN	3978804.3544975	3978804.87104592
29	19	1	0	90	36.1581920903955	36.241610738255	12	0.400050431862474	2	3	2	NaN	1	5	0.466906167261505	0	1	NaN	285	5	33	1	120	220	320	NaN	520	0.175216444768012	1	1	NaN	3978806.3880834	NaN	3978807.3714637	3978807.88802156
29	19	1	0	90	36.1581920903955	36.241610738255	17	0.566738111805171	2	4	6	NaN	1	4	0.466906167261505	0	1	NaN	286	5	34	1	120	220	320	NaN	520	0.671762845013291	1	1	NaN	3978808.9716682	NaN	3978809.9550484	3978810.47160876
29	19	1	0	90	36.1581920903955	36.241610738255	22	0.733425791747868	2	11	6	NaN	2	4	0.466906167261505	0	1	NaN	287	5	35	1	120	220	320	NaN	520	0.663996731862426	2	1	NaN	3978811.9552723	NaN	3978812.9386829	3978813.45523257
29	19	1	0	90	36.1581920903955	36.241610738255	9	0.300037823896855	2	9	1	NaN	2	4	0.466906167261505	0	1	NaN	288	5	36	1	120	220	320	NaN	520	0.271029628347605	2	1	NaN	3978814.972244	NaN	3978815.9556508	3978816.47218497
29	19	1	0	90	36.1581920903955	36.241610738255	21	0.700088255759329	2	10	2	NaN	2	3	0.466906167261505	0	1	NaN	289	5	37	1	120	220	320	NaN	520	0.143531231675297	1	0	NaN	3978817.5558411	NaN	3978818.5392371	3978819.05578387
29	19	1	0	90	36.1581920903955	36.241610738255	15	0.500063039828092	2	4	3	NaN	1	5	0.466906167261505	0	1	NaN	290	5	38	1	120	220	320	NaN	520	0.237246828619391	1	1	NaN	3978820.0060843	NaN	3978820.989455	3978821.50601437
29	19	1	0	90	36.1581920903955	36.241610738255	25	0.833438399713487	2	12	3	NaN	2	5	0.466906167261505	0	1	NaN	291	5	39	1	120	220	320	NaN	520	0.271095138974488	1	0	NaN	3978822.5561908	NaN	3978823.5396679	3978824.05626376
29	19	1	0	90	36.1581920903955	36.241610738255	19	0.63341318378225	2	12	5	NaN	2	4	0.466906167261505	0	1	NaN	292	5	40	1	120	220	320	NaN	520	0.557097980286926	2	1	NaN	3978825.6065943	NaN	3978826.5900125	3978827.10656182
29	19	1	0	90	36.1581920903955	36.241610738255	17	0.566738111805171	2	2	5	NaN	1	4	0.466906167261505	0	1	NaN	293	5	41	1	120	220	320	NaN	520	0.178169131744653	1	1	NaN	3978828.4735763	NaN	3978829.4570051	3978829.97352217
29	19	1	0	90	36.1581920903955	36.241610738255	11	0.366712895873934	2	8	2	NaN	2	3	0.466906167261505	0	1	NaN	294	5	42	1	120	220	320	NaN	520	0.206250079907477	1	0	NaN	3978830.9571384	NaN	3978831.9405405	3978832.45709452
29	19	1	0	90	36.1581920903955	36.241610738255	18	0.60007564779371	2	9	4	NaN	2	4	0.466906167261505	0	1	NaN	295	5	43	1	120	220	320	NaN	520	0.0571929318830371	2	1	NaN	3978833.4739968	NaN	3978834.4574611	3978834.97401067
29	19	1	0	90	36.1581920903955	36.241610738255	22	0.733425791747868	2	8	2	NaN	2	5	0.466906167261505	0	1	NaN	296	5	44	1	120	220	320	NaN	520	0.250486931763589	1	0	NaN	3978835.8409571	NaN	3978836.8243412	3978837.34091487
29	19	1	0	90	36.1581920903955	36.241610738255	15	0.500063039828092	2	11	5	NaN	2	5	0.466906167261505	0	1	NaN	297	5	45	1	120	220	320	NaN	520	0.051586780231446	2	1	NaN	3978838.4078864	NaN	3978839.3912877	3978839.90781582
29	19	1	0	90	36.1581920903955	36.241610738255	7	0.233362751919776	2	9	5	NaN	2	4	0.466906167261505	0	1	NaN	298	5	46	1	120	220	320	NaN	520	0.110674377065152	2	1	NaN	3978840.924891	NaN	3978841.908192	3978842.42473402
29	19	1	0	90	36.1581920903955	36.241610738255	13	0.433387967851013	2	2	5	NaN	1	3	0.466906167261505	0	1	NaN	299	5	47	1	120	220	320	NaN	520	0.141788083594292	2	0	NaN	3978843.341684	NaN	3978844.3250898	3978844.84164132
29	19	1	0	90	36.1581920903955	36.241610738255	17	0.566738111805171	2	4	6	NaN	1	3	0.466906167261505	0	1	NaN	300	5	48	1	120	220	320	NaN	520	0.459356979932636	2	0	NaN	3978845.7919332	NaN	3978846.7753258	3978847.29188042
29	19	1	0	90	36.1581920903955	36.241610738255	7	0.233362751919776	2	1	1	NaN	1	3	0.466906167261505	0	1	NaN	301	5	49	1	120	220	320	NaN	520	0.379951479844749	2	0	NaN	3978848.5755894	NaN	3978849.5589467	3978850.07548262
29	19	1	0	90	36.1581920903955	36.241610738255	25	0.833438399713487	2	12	5	NaN	2	3	0.466906167261505	0	1	NaN	302	5	50	1	120	220	320	NaN	520	2.92767913173884	1	0	NaN	3978851.2758169	NaN	3978852.2591946	3978852.77575337
29	19	1	0	90	36.1581920903955	36.241610738255	23	0.766763327736408	2	8	1	NaN	2	5	0.466906167261505	0	1	NaN	303	5	51	1	120	220	320	NaN	520	0.10984052810818	2	1	NaN	3978856.5096515	NaN	3978857.4930333	3978858.00959527
29	19	1	0	90	36.1581920903955	36.241610738255	16	0.533400575816631	2	12	2	NaN	2	4	0.466906167261505	0	1	NaN	304	5	52	1	120	220	320	NaN	520	0.0608716802671552	2	1	NaN	3978858.9265533	NaN	3978859.9099566	3978860.42650212
29	19	1	0	90	36.1581920903955	36.241610738255	16	0.533400575816631	2	12	4	NaN	2	3	0.466906167261505	0	1	NaN	305	5	53	1	120	220	320	NaN	520	0.437896680086851	1	0	NaN	3978861.2934625	NaN	3978862.2768522	3978862.79339492
29	19	1	0	90	36.1581920903955	36.241610738255	24	0.800100863724947	2	4	4	NaN	1	4	0.466906167261505	0	1	NaN	306	5	54	1	120	220	320	NaN	520	0.0104001322761178	2	0	NaN	3978864.0438281	NaN	3978865.0271182	3978865.54367437
29	19	1	0	90	36.1581920903955	36.241610738255	11	0.366712895873934	2	3	1	NaN	1	3	0.466906167261505	0	1	NaN	307	5	55	1	120	220	320	NaN	520	0.220687576569617	1	1	NaN	3978866.9106582	NaN	3978867.8940819	3978868.41061152
29	19	1	0	90	36.1581920903955	36.241610738255	19	0.63341318378225	2	2	6	NaN	1	5	0.466906167261505	0	1	NaN	308	5	56	1	120	220	320	NaN	520	0.414927080273628	1	1	NaN	3978869.4442476	NaN	3978870.4276928	3978870.94420882
29	19	1	0	90	36.1581920903955	36.241610738255	7	0.233362751919776	2	12	3	NaN	2	5	0.466906167261505	0	1	NaN	309	5	57	1	120	220	320	NaN	520	0.217438380233943	1	0	NaN	3978872.1778311	NaN	3978873.1612608	3978873.67779942
29	19	1	0	90	36.1581920903955	36.241610738255	11	0.366712895873934	2	12	6	NaN	2	5	0.466906167261505	0	1	NaN	310	5	58	1	120	220	320	NaN	520	0.382298180367798	1	0	NaN	3978875.261475	NaN	3978876.2449276	3978876.76143622
29	19	1	0	90	36.1581920903955	36.241610738255	18	0.60007564779371	2	3	3	NaN	1	5	0.466906167261505	0	1	NaN	311	5	59	1	120	220	320	NaN	520	0.249963835347444	1	1	NaN	3978877.9616447	NaN	3978878.9451551	3978879.46171046
29	19	1	0	90	36.1581920903955	36.241610738255	12	0.400050431862474	2	9	3	NaN	2	5	0.466906167261505	0	1	NaN	312	5	60	1	120	220	320	NaN	520	0.331149480305612	2	1	NaN	3978880.5286698	NaN	3978881.5120748	3978882.02861702
29	19	1	0	90	36.1581920903955	36.241610738255	23	0.766763327736408	2	5	4	NaN	1	4	0.466906167261505	0	1	NaN	313	5	61	1	120	220	320	NaN	520	0.240479228552431	2	0	NaN	3978883.1789543	NaN	3978884.1623158	3978884.67888327
29	19	1	0	90	36.1581920903955	36.241610738255	9	0.300037823896855	2	4	1	NaN	1	5	0.466906167261505	0	1	NaN	314	5	62	1	120	220	320	NaN	520	0.218649280257523	1	1	NaN	3978885.7291826	NaN	3978886.7126192	3978887.22912842
29	19	1	0	90	36.1581920903955	36.241610738255	16	0.533400575816631	2	3	1	NaN	1	4	0.466906167261505	0	1	NaN	315	5	63	1	120	220	320	NaN	520	2.01866238052025	1	1	NaN	3978889.1127341	NaN	3978890.0962637	3978890.61279472
29	19	1	0	90	36.1581920903955	36.241610738255	11	0.366712895873934	2	8	1	NaN	2	4	0.466906167261505	0	1	NaN	316	6	1	1	120	220	320	NaN	520	0.347712731920183	2	1	NaN	3978940.7677815	NaN	3978941.7513063	3978942.26787457
29	19	1	0	90	36.1581920903955	36.241610738255	25	0.833438399713487	2	3	4	NaN	1	5	0.466906167261505	0	1	NaN	317	6	2	1	120	220	320	NaN	520	0.416992880403996	1	1	NaN	3978943.4348581	NaN	3978944.4182348	3978944.93480092
29	19	1	0	90	36.1581920903955	36.241610738255	10	0.333375359885395	2	12	2	NaN	2	4	0.466906167261505	0	1	NaN	318	6	3	1	120	220	320	NaN	520	0.171326632145792	2	1	NaN	3978946.1684569	NaN	3978947.1518459	3978947.66839337
29	19	1	0	90	36.1581920903955	36.241610738255	13	0.433387967851013	2	5	6	NaN	1	3	0.466906167261505	0	1	NaN	319	6	4	1	120	220	320	NaN	520	0.255788180045784	1	1	NaN	3978948.6520394	NaN	3978949.6354649	3978950.15196942
29	19	1	0	90	36.1581920903955	36.241610738255	23	0.766763327736408	2	11	1	NaN	2	4	0.466906167261505	0	1	NaN	320	6	5	1	120	220	320	NaN	520	0.152582880109549	1	0	NaN	3978951.2189673	NaN	3978952.2023511	3978952.71888962
29	19	1	0	90	36.1581920903955	36.241610738255	10	0.333375359885395	2	11	5	NaN	2	5	0.466906167261505	0	1	NaN	321	6	6	1	120	220	320	NaN	520	0.0698706801049411	2	1	NaN	3978953.6859069	NaN	3978954.6692645	3978955.18580732
29	19	1	0	90	36.1581920903955	36.241610738255	7	0.233362751919776	2	4	5	NaN	1	3	0.466906167261505	0	1	NaN	322	6	7	1	120	220	320	NaN	520	0.134191580116749	1	1	NaN	3978956.0694218	NaN	3978957.0528185	3978957.56936772
29	19	1	0	90	36.1581920903955	36.241610738255	16	0.533400575816631	2	8	3	NaN	2	3	0.466906167261505	0	1	NaN	323	6	8	1	120	220	320	NaN	520	0.0439059804193676	2	1	NaN	3978958.5195248	NaN	3978959.503056	3978960.01961182
29	19	1	0	90	36.1581920903955	36.241610738255	14	0.466725503839552	2	11	5	NaN	2	3	0.466906167261505	0	1	NaN	324	6	9	1	120	220	320	NaN	520	0.197715928312391	2	1	NaN	3978960.8697698	NaN	3978961.8532984	3978962.36984297
29	19	1	0	90	36.1581920903955	36.241610738255	0	0	1	8	4	NaN	2	3	0.466906167261505	0	1	NaN	325	6	10	1	110	210	310	NaN	510	0.0889206770807505	2	1	NaN	3978963.386804	NaN	3978964.3701904	3978964.88674902
29	19	1	0	90	36.1581920903955	36.241610738255	10	0.333375359885395	2	4	4	NaN	1	5	0.466906167261505	0	1	NaN	326	6	11	1	120	220	320	NaN	520	0.288605380337685	2	0	NaN	3978965.787062	NaN	3978966.7704789	3978967.28698862
29	19	1	0	90	36.1581920903955	36.241610738255	10	0.333375359885395	2	6	3	NaN	1	3	0.466906167261505	0	1	NaN	327	6	12	1	120	220	320	NaN	520	0.104422579985112	2	0	NaN	3978968.3873013	NaN	3978969.3706974	3978969.88726722
29	19	1	0	90	36.1581920903955	36.241610738255	10	0.333375359885395	2	9	6	NaN	2	4	0.466906167261505	0	1	NaN	328	6	13	1	120	220	320	NaN	520	0.111409028526396	2	1	NaN	3978970.8042402	NaN	3978971.7876075	3978972.30415267
29	19	1	0	90	36.1581920903955	36.241610738255	22	0.733425791747868	2	3	3	NaN	1	3	0.466906167261505	0	1	NaN	329	6	14	1	120	220	320	NaN	520	0.990167880430818	1	1	NaN	3978973.237769	NaN	3978974.2211839	3978974.73772522
29	19	1	0	90	36.1581920903955	36.241610738255	6	0.200025215931237	2	3	6	NaN	1	4	0.466906167261505	0	1	NaN	330	6	15	1	120	220	320	NaN	520	0.137524080462754	1	1	NaN	3978976.5379728	NaN	3978977.5215086	3978978.03804732
29	19	1	0	90	36.1581920903955	36.241610738255	18	0.60007564779371	2	8	6	NaN	2	5	0.466906167261505	0	1	NaN	331	6	16	1	120	220	320	NaN	520	0.25494602881372	1	0	NaN	3978978.9883441	NaN	3978979.9717263	3978980.48828597
29	19	1	0	90	36.1581920903955	36.241610738255	7	0.233362751919776	2	10	6	NaN	2	4	0.466906167261505	0	1	NaN	332	6	17	1	120	220	320	NaN	520	0.0104173803701997	1	0	NaN	3978981.5552692	NaN	3978982.5386638	3978983.05520182
29	19	1	0	90	36.1581920903955	36.241610738255	12	0.400050431862474	2	5	4	NaN	1	3	0.466906167261505	0	1	NaN	333	6	18	1	120	220	320	NaN	520	0.427807628642768	1	1	NaN	3978983.872169	NaN	3978984.8556211	3978985.37209357
29	19	1	0	90	36.1581920903955	36.241610738255	7	0.233362751919776	2	6	3	NaN	1	5	0.466906167261505	0	1	NaN	334	6	19	1	120	220	320	NaN	520	0.0105226798914373	1	1	NaN	3978986.6224459	NaN	3978987.6058278	3978988.12237152
29	19	1	0	90	36.1581920903955	36.241610738255	0	0	1	12	2	NaN	2	5	0.466906167261505	0	1	NaN	335	6	20	1	110	210	310	NaN	510	0.520317873451859	1	0	NaN	3978988.9392079	NaN	3978989.922722	3978990.43925883
29	19	1	0	90	36.1581920903955	36.241610738255	12	0.400050431862474	2	12	1	NaN	2	4	0.466906167261505	0	1	NaN	336	6	21	1	120	220	320	NaN	520	0.0466578803025186	2	1	NaN	3978991.7729439	NaN	3978992.756328	3978993.27286792
29	19	1	0	90	36.1581920903955	36.241610738255	18	0.60007564779371	2	2	4	NaN	1	3	0.466906167261505	0	1	NaN	337	6	22	1	120	220	320	NaN	520	0.0725281834602356	2	0	NaN	3978994.12316	NaN	3978995.106537	3978995.62309992
29	19	1	0	90	36.1581920903955	36.241610738255	8	0.266700287908316	2	11	1	NaN	2	5	0.466906167261505	0	1	NaN	338	6	23	1	120	220	320	NaN	520	0.288965980522335	2	1	NaN	3978996.5067337	NaN	3978997.4901271	3978998.00667322
29	19	1	0	90	36.1581920903955	36.241610738255	19	0.63341318378225	2	9	4	NaN	2	4	0.466906167261505	0	1	NaN	339	6	24	1	120	220	320	NaN	520	0.112729680258781	2	1	NaN	3978999.1069887	NaN	3979000.0903668	3979000.60693152
29	19	1	0	90	36.1581920903955	36.241610738255	22	0.733425791747868	2	7	3	NaN	2	5	0.466906167261505	0	1	NaN	340	6	25	1	120	220	320	NaN	520	0.239378680475056	1	0	NaN	3979001.5405569	NaN	3979002.5239575	3979003.04049872
29	19	1	0	90	36.1581920903955	36.241610738255	13	0.433387967851013	2	1	4	NaN	1	5	0.466906167261505	0	1	NaN	341	6	26	1	120	220	320	NaN	520	0.265008183661848	2	0	NaN	3979004.0908028	NaN	3979005.0741989	3979005.59074522
29	19	1	0	90	36.1581920903955	36.241610738255	12	0.400050431862474	2	10	6	NaN	2	3	0.466906167261505	0	1	NaN	342	6	27	1	120	220	320	NaN	520	0.633301980327815	2	1	NaN	3979006.6742783	NaN	3979007.6577938	3979008.17434012
29	19	1	0	90	36.1581920903955	36.241610738255	0	0	1	6	5	NaN	1	3	0.466906167261505	0	1	NaN	343	6	28	1	110	210	310	NaN	510	0.203244483564049	1	1	NaN	3979009.6246856	NaN	3979010.6080712	3979011.12463532
29	19	1	0	90	36.1581920903955	36.241610738255	19	0.63341318378225	2	3	4	NaN	1	5	0.466906167261505	0	1	NaN	344	6	29	1	120	220	320	NaN	520	0.286139031872153	1	1	NaN	3979012.1416105	NaN	3979013.1249995	3979013.64154637
29	19	1	0	90	36.1581920903955	36.241610738255	24	0.800100863724947	2	1	2	NaN	1	3	0.466906167261505	0	1	NaN	345	6	30	1	120	220	320	NaN	520	0.286282931920141	1	1	NaN	3979014.7418648	NaN	3979015.7252503	3979016.24179777
29	19	1	0	90	36.1581920903955	36.241610738255	9	0.300037823896855	2	2	3	NaN	1	5	0.466906167261505	0	1	NaN	346	6	31	1	120	220	320	NaN	520	0.341389277018607	2	0	NaN	3979017.3421267	NaN	3979018.325504	3979018.84204652
29	19	1	0	90	36.1581920903955	36.241610738255	20	0.666750719770789	2	3	5	NaN	1	4	0.466906167261505	0	1	NaN	347	6	32	1	120	220	320	NaN	520	0.0102458484470844	1	1	NaN	3979019.9923578	NaN	3979020.9757675	3979021.49232985
29	19	1	0	90	36.1581920903955	36.241610738255	10	0.333375359885395	2	2	1	NaN	1	3	0.466906167261505	0	1	NaN	348	6	33	1	120	220	320	NaN	520	0.210748941637576	1	1	NaN	3979022.6092223	NaN	3979023.592689	3979024.10923966
29	19	1	0	90	36.1581920903955	36.241610738255	24	0.800100863724947	2	3	5	NaN	1	5	0.466906167261505	0	1	NaN	349	6	34	1	120	220	320	NaN	520	0.205593780148774	1	1	NaN	3979025.1260798	NaN	3979026.1096973	3979026.62614452
29	19	1	0	90	36.1581920903955	36.241610738255	19	0.63341318378225	2	1	5	NaN	1	3	0.466906167261505	0	1	NaN	350	6	35	1	120	220	320	NaN	520	0.458559128455818	2	0	NaN	3979028.1931434	NaN	3979029.1765615	3979029.69312187
29	19	1	0	90	36.1581920903955	36.241610738255	8	0.266700287908316	2	9	6	NaN	2	3	0.466906167261505	0	1	NaN	351	6	36	1	120	220	320	NaN	520	0.0998532804660499	2	1	NaN	3979030.9601183	NaN	3979031.9435006	3979032.46005142
29	19	1	0	90	36.1581920903955	36.241610738255	15	0.500063039828092	2	5	4	NaN	1	4	0.466906167261505	0	1	NaN	352	6	37	1	120	220	320	NaN	520	0.370544770266861	1	1	NaN	3979033.37701	NaN	3979034.3604122	3979034.87695293
29	19	1	0	90	36.1581920903955	36.241610738255	24	0.800100863724947	2	6	6	NaN	1	4	0.466906167261505	0	1	NaN	353	6	38	1	120	220	320	NaN	520	0.149134944658726	1	1	NaN	3979036.1105525	NaN	3979037.094013	3979037.61057576
29	19	1	0	90	36.1581920903955	36.241610738255	23	0.766763327736408	2	10	3	NaN	2	3	0.466906167261505	0	1	NaN	354	6	39	1	120	220	320	NaN	520	0.626394228544086	1	0	NaN	3979038.5775327	NaN	3979039.5609137	3979040.07747267
29	19	1	0	90	36.1581920903955	36.241610738255	18	0.60007564779371	2	10	1	NaN	2	5	0.466906167261505	0	1	NaN	355	6	40	1	120	220	320	NaN	520	0.300603025127202	2	1	NaN	3979041.5111449	NaN	3979042.4945286	3979043.01108817
29	19	1	0	90	36.1581920903955	36.241610738255	14	0.466725503839552	2	5	1	NaN	1	5	0.466906167261505	0	1	NaN	356	6	41	1	120	220	320	NaN	520	0.13161778030917	1	1	NaN	3979044.1279426	NaN	3979045.1114717	3979045.62800702
29	19	1	0	90	36.1581920903955	36.241610738255	16	0.533400575816631	2	11	2	NaN	2	5	0.466906167261505	0	1	NaN	357	6	42	1	120	220	320	NaN	520	0.234552380163223	1	0	NaN	3979047.3449843	NaN	3979048.3284558	3979048.84500272
29	19	1	0	90	36.1581920903955	36.241610738255	20	0.666750719770789	2	7	5	NaN	2	4	0.466906167261505	0	1	NaN	358	6	43	1	120	220	320	NaN	520	0.444200970232487	2	1	NaN	3979050.6952496	NaN	3979051.6787723	3979052.19532123
29	19	1	0	90	36.1581920903955	36.241610738255	18	0.60007564779371	2	11	2	NaN	2	5	0.466906167261505	0	1	NaN	359	6	44	1	120	220	320	NaN	520	0.206097680144012	1	0	NaN	3979053.4456479	NaN	3979054.4290677	3979054.94559442
29	19	1	0	90	36.1581920903955	36.241610738255	17	0.566738111805171	2	11	2	NaN	2	5	0.466906167261505	0	1	NaN	360	6	45	1	120	220	320	NaN	520	0.257490280084312	2	1	NaN	3979055.9625768	NaN	3979056.9459703	3979057.46250382
29	19	1	0	90	36.1581920903955	36.241610738255	0	0	1	1	3	NaN	1	4	0.466906167261505	0	1	NaN	361	6	46	1	110	210	310	NaN	510	0.105530479922891	2	0	NaN	3979058.5461475	NaN	3979059.5295233	3979060.04609682
29	19	1	0	90	36.1581920903955	36.241610738255	9	0.300037823896855	2	11	1	NaN	2	3	0.466906167261505	0	1	NaN	362	6	47	1	120	220	320	NaN	520	0.224762180354446	1	0	NaN	3979060.9629255	NaN	3979061.9464421	3979062.46300622
29	19	1	0	90	36.1581920903955	36.241610738255	9	0.300037823896855	2	6	2	NaN	1	4	0.466906167261505	0	1	NaN	363	6	48	1	120	220	320	NaN	520	0.13926802854985	2	0	NaN	3979063.4966308	NaN	3979064.4800318	3979064.99657587
29	19	1	0	90	36.1581920903955	36.241610738255	21	0.700088255759329	2	11	5	NaN	2	3	0.466906167261505	0	1	NaN	364	6	49	1	120	220	320	NaN	520	0.2011857801117	2	1	NaN	3979065.9468876	NaN	3979066.930291	3979067.44681802
29	19	1	0	90	36.1581920903955	36.241610738255	20	0.666750719770789	2	11	4	NaN	2	5	0.466906167261505	0	1	NaN	365	6	50	1	120	220	320	NaN	520	0.35593528021127	2	1	NaN	3979068.4637906	NaN	3979069.4471782	3979069.96374022
29	19	1	0	90	36.1581920903955	36.241610738255	17	0.566738111805171	2	10	6	NaN	2	3	0.466906167261505	0	1	NaN	366	6	51	1	120	220	320	NaN	520	0.16935043875128	2	1	NaN	3979071.1307284	NaN	3979072.1141115	3979072.63066036
29	19	1	0	90	36.1581920903955	36.241610738255	13	0.433387967851013	2	3	5	NaN	1	4	0.466906167261505	0	1	NaN	367	6	52	1	120	220	320	NaN	520	0.44547808682546	2	0	NaN	3979073.6143	NaN	3979074.5976799	3979075.11424771
29	19	1	0	90	36.1581920903955	36.241610738255	14	0.466725503839552	2	3	4	NaN	1	3	0.466906167261505	0	1	NaN	368	6	53	1	120	220	320	NaN	520	2.30246433196589	1	1	NaN	3979076.3812421	NaN	3979077.3646384	3979077.88118737
29	19	1	0	90	36.1581920903955	36.241610738255	0	0	1	11	3	NaN	2	5	0.466906167261505	0	1	NaN	369	6	54	1	110	210	310	NaN	510	0.381726325489581	1	0	NaN	3979080.9983427	NaN	3979081.9817664	3979082.49829577
29	19	1	0	90	36.1581920903955	36.241610738255	15	0.500063039828092	2	10	2	NaN	2	5	0.466906167261505	0	1	NaN	370	6	55	1	120	220	320	NaN	520	0.113159393426031	2	1	NaN	3979083.6986466	NaN	3979084.6820028	3979085.19856411
29	19	1	0	90	36.1581920903955	36.241610738255	25	0.833438399713487	2	2	6	NaN	1	3	0.466906167261505	0	1	NaN	371	6	56	1	120	220	320	NaN	520	0.127412493340671	1	1	NaN	3979086.132197	NaN	3979087.115583	3979087.63214501
29	19	1	0	90	36.1581920903955	36.241610738255	13	0.433387967851013	2	7	6	NaN	2	4	0.466906167261505	0	1	NaN	372	6	57	1	120	220	320	NaN	520	0.28555032517761	1	0	NaN	3979088.5824214	NaN	3979089.5658298	3979090.08237337
29	19	1	0	90	36.1581920903955	36.241610738255	18	0.60007564779371	2	4	5	NaN	1	3	0.466906167261505	0	1	NaN	373	6	58	1	120	220	320	NaN	520	0.22129222843796	1	1	NaN	3979091.1826822	NaN	3979092.1660712	3979092.68262537
29	19	1	0	90	36.1581920903955	36.241610738255	14	0.466725503839552	2	2	2	NaN	1	3	0.466906167261505	0	1	NaN	374	6	59	1	120	220	320	NaN	520	0.119798180181533	1	1	NaN	3979093.7162858	NaN	3979094.6996965	3979095.21620742
29	19	1	0	90	36.1581920903955	36.241610738255	6	0.200025215931237	2	1	2	NaN	1	4	0.466906167261505	0	1	NaN	375	6	60	1	120	220	320	NaN	520	0.310863580089062	1	1	NaN	3979096.9332308	NaN	3979097.9166484	3979098.43320052
29	19	1	0	90	36.1581920903955	36.241610738255	20	0.666750719770789	2	12	6	NaN	2	4	0.466906167261505	0	1	NaN	376	6	61	1	120	220	320	NaN	520	0.405468880198896	2	1	NaN	3979100.9502845	NaN	3979101.9337089	3979102.45025292
29	19	1	0	90	36.1581920903955	36.241610738255	8	0.266700287908316	2	5	1	NaN	1	3	0.466906167261505	0	1	NaN	377	6	62	1	120	220	320	NaN	520	0.30490843532607	2	0	NaN	3979103.66722	NaN	3979104.6506273	3979105.16718976
29	19	1	0	90	36.1581920903955	36.241610738255	12	0.400050431862474	2	4	4	NaN	1	3	0.466906167261505	0	1	NaN	378	6	63	1	120	220	320	NaN	520	0.417682628612965	2	0	NaN	3979106.4341705	NaN	3979107.4175814	3979107.93413057
29	19	1	0	90	36.1581920903955	36.241610738255	25	0.833438399713487	2	5	4	NaN	1	4	0.466906167261505	0	1	NaN	379	7	1	1	120	220	320	NaN	520	0.297637245152146	1	1	NaN	3979116.4184663	NaN	3979117.401904	3979117.91845025
29	19	1	0	90	36.1581920903955	36.241610738255	12	0.400050431862474	2	11	3	NaN	2	4	0.466906167261505	0	1	NaN	380	7	2	1	120	220	320	NaN	520	0.112905280198902	2	1	NaN	3979119.0187579	NaN	3979120.0021776	3979120.51869362
29	19	1	0	90	36.1581920903955	36.241610738255	23	0.766763327736408	2	3	4	NaN	1	3	0.466906167261505	0	1	NaN	381	7	3	1	120	220	320	NaN	520	0.16822602879256	1	1	NaN	3979121.4355099	NaN	3979122.419047	3979122.93560057
29	19	1	0	90	36.1581920903955	36.241610738255	9	0.300037823896855	2	2	5	NaN	1	3	0.466906167261505	0	1	NaN	382	7	4	1	120	220	320	NaN	520	0.0923209805041552	2	0	NaN	3979123.9192297	NaN	3979124.902631	3979125.41917482
29	19	1	0	90	36.1581920903955	36.241610738255	11	0.366712895873934	2	3	3	NaN	1	4	0.466906167261505	0	1	NaN	383	7	5	1	120	220	320	NaN	520	0.0104134799912572	1	1	NaN	3979126.3193639	NaN	3979127.3028742	3979127.81940912
29	19	1	0	90	36.1581920903955	36.241610738255	10	0.333375359885395	2	8	2	NaN	2	5	0.466906167261505	0	1	NaN	384	7	6	1	120	220	320	NaN	520	0.166681087110192	2	1	NaN	3979128.6530383	NaN	3979129.6364318	3979130.15297461
29	19	1	0	90	36.1581920903955	36.241610738255	9	0.300037823896855	2	3	1	NaN	1	3	0.466906167261505	0	1	NaN	385	7	7	1	120	220	320	NaN	520	0.611057532019913	1	1	NaN	3979131.1367092	NaN	3979132.1200133	3979132.63656217
29	19	1	0	90	36.1581920903955	36.241610738255	23	0.766763327736408	2	4	4	NaN	1	3	0.466906167261505	0	1	NaN	386	7	8	1	120	220	320	NaN	520	0.445512828417122	1	1	NaN	3979134.0702357	NaN	3979135.0536218	3979135.57017007
29	19	1	0	90	36.1581920903955	36.241610738255	14	0.466725503839552	2	8	2	NaN	2	4	0.466906167261505	0	1	NaN	387	7	9	1	120	220	320	NaN	520	0.0104106799699366	2	1	NaN	3979136.8371758	NaN	3979137.8205579	3979138.33712052
29	19	1	0	90	36.1581920903955	36.241610738255	23	0.766763327736408	2	7	6	NaN	2	4	0.466906167261505	0	1	NaN	388	7	10	1	120	220	320	NaN	520	0.4275574805215	2	1	NaN	3979140.5041406	NaN	3979141.4876358	3979142.00414262
29	19	1	0	90	36.1581920903955	36.241610738255	23	0.766763327736408	2	9	2	NaN	2	5	0.466906167261505	0	1	NaN	389	7	11	1	120	220	320	NaN	520	0.221840731799603	2	1	NaN	3979146.4380861	NaN	3979147.4215158	3979147.93805257
29	19	1	0	90	36.1581920903955	36.241610738255	16	0.533400575816631	2	7	6	NaN	2	5	0.466906167261505	0	1	NaN	390	7	12	1	120	220	320	NaN	520	0.0104079800657928	2	1	NaN	3979149.5217385	NaN	3979150.5051398	3979151.02168492
29	19	1	0	90	36.1581920903955	36.241610738255	15	0.500063039828092	2	4	5	NaN	1	3	0.466906167261505	0	1	NaN	391	7	13	1	120	220	320	NaN	520	0.181055728811771	1	1	NaN	3979151.8386493	NaN	3979152.8220287	3979153.33858597
29	19	1	0	90	36.1581920903955	36.241610738255	14	0.466725503839552	2	5	4	NaN	1	5	0.466906167261505	0	1	NaN	392	7	14	1	120	220	320	NaN	520	0.233339380007237	1	1	NaN	3979154.3388852	NaN	3979155.3222668	3979155.83882482
29	19	1	0	90	36.1581920903955	36.241610738255	20	0.666750719770789	2	9	1	NaN	2	4	0.466906167261505	0	1	NaN	393	7	15	1	120	220	320	NaN	520	0.218803780153394	2	1	NaN	3979156.8891534	NaN	3979157.872558	3979158.38907672
29	19	1	0	90	36.1581920903955	36.241610738255	11	0.366712895873934	2	1	3	NaN	1	5	0.466906167261505	0	1	NaN	394	7	16	1	120	220	320	NaN	520	0.360294080339372	1	1	NaN	3979159.9394183	NaN	3979160.9228412	3979161.43938772
29	19	1	0	90	36.1581920903955	36.241610738255	13	0.433387967851013	2	4	1	NaN	1	5	0.466906167261505	0	1	NaN	395	7	17	1	120	220	320	NaN	520	0.38886007713154	1	1	NaN	3979162.6230318	NaN	3979163.606434	3979164.12298012
29	19	1	0	90	36.1581920903955	36.241610738255	24	0.800100863724947	2	10	3	NaN	2	3	0.466906167261505	0	1	NaN	396	7	18	1	120	220	320	NaN	520	0.422756328713149	1	0	NaN	3979165.5733006	NaN	3979166.5567133	3979167.07325947
29	19	1	0	90	36.1581920903955	36.241610738255	21	0.700088255759329	2	7	3	NaN	2	5	0.466906167261505	0	1	NaN	397	7	19	1	120	220	320	NaN	520	0.288865783717483	2	1	NaN	3979168.3069398	NaN	3979169.2903326	3979169.80686842
29	19	1	0	90	36.1581920903955	36.241610738255	16	0.533400575816631	2	2	6	NaN	1	4	0.466906167261505	0	1	NaN	398	7	20	1	120	220	320	NaN	520	1.33673158055171	1	1	NaN	3979170.9071778	NaN	3979171.8905713	3979172.40712042
29	19	1	0	90	36.1581920903955	36.241610738255	24	0.800100863724947	2	2	2	NaN	1	3	0.466906167261505	0	1	NaN	399	7	21	1	120	220	320	NaN	520	0.126731080003083	1	1	NaN	3979174.5575279	NaN	3979175.5409399	3979176.05747602
29	19	1	0	90	36.1581920903955	36.241610738255	11	0.366712895873934	2	2	3	NaN	1	4	0.466906167261505	0	1	NaN	400	7	22	1	120	220	320	NaN	520	0.260577828623354	1	1	NaN	3979177.5911442	NaN	3979178.5745765	3979179.09110567
29	19	1	0	90	36.1581920903955	36.241610738255	0	0	1	9	1	NaN	2	3	0.466906167261505	0	1	NaN	401	7	23	1	110	210	310	NaN	510	0.158047480043024	1	0	NaN	3979180.1581015	NaN	3979181.1414972	3979181.65802512
29	19	1	0	90	36.1581920903955	36.241610738255	13	0.433387967851013	2	9	5	NaN	2	3	0.466906167261505	0	1	NaN	402	7	24	1	120	220	320	NaN	520	0.0351174799725413	2	1	NaN	3979182.6249804	NaN	3979183.6084378	3979184.12494792
29	19	1	0	90	36.1581920903955	36.241610738255	21	0.700088255759329	2	5	2	NaN	1	5	0.466906167261505	0	1	NaN	403	7	25	1	120	220	320	NaN	520	0.269033845048398	1	1	NaN	3979184.9751983	NaN	3979185.9586106	3979186.47518086
29	19	1	0	90	36.1581920903955	36.241610738255	7	0.233362751919776	2	11	4	NaN	2	5	0.466906167261505	0	1	NaN	404	7	26	1	120	220	320	NaN	520	0.269445380195975	2	1	NaN	3979187.5588163	NaN	3979188.5422153	3979189.05875602
29	19	1	0	90	36.1581920903955	36.241610738255	24	0.800100863724947	2	11	4	NaN	2	5	0.466906167261505	0	1	NaN	405	7	27	1	120	220	320	NaN	520	0.301335231866688	2	1	NaN	3979190.1422691	NaN	3979191.1257978	3979191.64235187
29	19	1	0	90	36.1581920903955	36.241610738255	9	0.300037823896855	2	4	2	NaN	1	5	0.466906167261505	0	1	NaN	406	7	28	1	120	220	320	NaN	520	0.124523328151554	1	1	NaN	3979192.7592056	NaN	3979193.7427207	3979194.25926107
29	19	1	0	90	36.1581920903955	36.241610738255	8	0.266700287908316	2	10	4	NaN	2	3	0.466906167261505	0	1	NaN	407	7	29	1	120	220	320	NaN	520	0.179180280305445	2	1	NaN	3979195.1928942	NaN	3979196.1762961	3979196.69283562
29	19	1	0	90	36.1581920903955	36.241610738255	19	0.63341318378225	2	2	6	NaN	1	5	0.466906167261505	0	1	NaN	408	7	30	1	120	220	320	NaN	520	0.439258792903274	1	1	NaN	3979197.6763534	NaN	3979198.6598686	3979199.17642241
29	19	1	0	90	36.1581920903955	36.241610738255	19	0.63341318378225	2	11	4	NaN	2	5	0.466906167261505	0	1	NaN	409	7	31	1	120	220	320	NaN	520	0.285240080673248	1	0	NaN	3979202.1268944	NaN	3979203.110307	3979203.62686502
29	19	1	0	90	36.1581920903955	36.241610738255	14	0.466725503839552	2	11	6	NaN	2	4	0.466906167261505	0	1	NaN	410	7	32	1	120	220	320	NaN	520	0.202607431914657	2	1	NaN	3979205.1770889	NaN	3979206.1606249	3979206.67715607
29	19	1	0	90	36.1581920903955	36.241610738255	24	0.800100863724947	2	7	4	NaN	2	3	0.466906167261505	0	1	NaN	411	7	33	1	120	220	320	NaN	520	0.237780432216823	1	0	NaN	3979207.6941366	NaN	3979208.6775195	3979209.19407457
29	19	1	0	90	36.1581920903955	36.241610738255	0	0	1	4	3	NaN	1	4	0.466906167261505	0	1	NaN	412	7	34	1	110	210	310	NaN	510	0.119818180333823	1	1	NaN	3979210.2444168	NaN	3979211.2277442	3979211.74431332
29	19	1	0	90	36.1581920903955	36.241610738255	10	0.333375359885395	2	3	6	NaN	1	4	0.466906167261505	0	1	NaN	413	7	35	1	120	220	320	NaN	520	0.685529293492436	1	1	NaN	3979213.094657	NaN	3979214.0780501	3979214.59460371
29	19	1	0	90	36.1581920903955	36.241610738255	22	0.733425791747868	2	1	6	NaN	1	4	0.466906167261505	0	1	NaN	414	7	36	1	120	220	320	NaN	520	0.249657231848687	2	0	NaN	3979216.3783256	NaN	3979217.3617132	3979217.87825857
29	19	1	0	90	36.1581920903955	36.241610738255	11	0.366712895873934	2	10	5	NaN	2	4	0.466906167261505	0	1	NaN	415	7	37	1	120	220	320	NaN	520	0.106654731556773	2	1	NaN	3979218.9452253	NaN	3979219.92863	3979220.44518007
29	19	1	0	90	36.1581920903955	36.241610738255	6	0.200025215931237	2	6	4	NaN	1	4	0.466906167261505	0	1	NaN	416	7	38	1	120	220	320	NaN	520	0.0338401282206178	2	0	NaN	3979221.362025	NaN	3979222.3455251	3979222.86208487
29	19	1	0	90	36.1581920903955	36.241610738255	25	0.833438399713487	2	11	6	NaN	2	4	0.466906167261505	0	1	NaN	417	7	39	1	120	220	320	NaN	520	0.226121831685305	2	1	NaN	3979224.1457035	NaN	3979225.1291371	3979225.64568897
29	19	1	0	90	36.1581920903955	36.241610738255	19	0.63341318378225	2	12	6	NaN	2	5	0.466906167261505	0	1	NaN	418	7	40	1	120	220	320	NaN	520	1.82070799311623	2	1	NaN	3979226.6793114	NaN	3979227.6627099	3979228.17926811
29	19	1	0	90	36.1581920903955	36.241610738255	18	0.60007564779371	2	7	2	NaN	2	5	0.466906167261505	0	1	NaN	419	7	41	1	120	220	320	NaN	520	0.0548758804798126	2	1	NaN	3979230.8130496	NaN	3979231.7964625	3979232.31299762
29	19	1	0	90	36.1581920903955	36.241610738255	21	0.700088255759329	2	1	2	NaN	1	4	0.466906167261505	0	1	NaN	420	7	42	1	120	220	320	NaN	520	0.280000228900462	2	0	NaN	3979233.1799515	NaN	3979234.1633368	3979234.67990777
29	19	1	0	90	36.1581920903955	36.241610738255	22	0.733425791747868	2	6	4	NaN	1	5	0.466906167261505	0	1	NaN	421	7	43	1	120	220	320	NaN	520	0.0103778839111328	1	1	NaN	3979235.7802279	NaN	3979236.7636896	3979237.28015992
29	19	1	0	90	36.1581920903955	36.241610738255	6	0.200025215931237	2	8	4	NaN	2	3	0.466906167261505	0	1	NaN	422	7	44	1	120	220	320	NaN	520	0.0186043838039041	1	0	NaN	3979238.0971194	NaN	3979239.0804861	3979239.59704932
29	19	1	0	90	36.1581920903955	36.241610738255	12	0.400050431862474	2	4	6	NaN	1	4	0.466906167261505	0	1	NaN	423	7	45	1	120	220	320	NaN	520	0.381331980228424	1	1	NaN	3979240.4306479	NaN	3979241.4140738	3979241.93061452
29	19	1	0	90	36.1581920903955	36.241610738255	24	0.800100863724947	2	9	3	NaN	2	3	0.466906167261505	0	1	NaN	424	7	46	1	120	220	320	NaN	520	0.0744272284209728	2	1	NaN	3979243.2975501	NaN	3979244.281004	3979244.79756527
29	19	1	0	90	36.1581920903955	36.241610738255	13	0.433387967851013	2	10	6	NaN	2	3	0.466906167261505	0	1	NaN	425	7	47	1	120	220	320	NaN	520	0.20288963150233	2	1	NaN	3979245.6811758	NaN	3979246.6645708	3979247.18113677
29	19	1	0	90	36.1581920903955	36.241610738255	15	0.500063039828092	2	10	6	NaN	2	4	0.466906167261505	0	1	NaN	426	7	48	1	120	220	320	NaN	520	0.339296580292284	2	1	NaN	3979250.6650124	NaN	3979251.6484074	3979252.16495562
29	19	1	0	90	36.1581920903955	36.241610738255	24	0.800100863724947	2	2	3	NaN	1	5	0.466906167261505	0	1	NaN	427	7	49	1	120	220	320	NaN	520	0.361033880151808	1	1	NaN	3979253.5152963	NaN	3979254.4986821	3979255.01522732
29	19	1	0	90	36.1581920903955	36.241610738255	18	0.60007564779371	2	3	2	NaN	1	3	0.466906167261505	0	1	NaN	428	7	50	1	120	220	320	NaN	520	0.261632532346994	1	1	NaN	3979256.1821833	NaN	3979257.1656041	3979257.68216327
29	19	1	0	90	36.1581920903955	36.241610738255	22	0.733425791747868	2	7	2	NaN	2	5	0.466906167261505	0	1	NaN	429	7	51	1	120	220	320	NaN	520	0.278485180344433	1	0	NaN	3979258.7657872	NaN	3979259.7492104	3979260.26574432
29	19	1	0	90	36.1581920903955	36.241610738255	12	0.400050431862474	2	6	3	NaN	1	5	0.466906167261505	0	1	NaN	430	7	52	1	120	220	320	NaN	520	0.246663180645555	1	1	NaN	3979261.3494209	NaN	3979262.3327864	3979262.84933392
29	19	1	0	90	36.1581920903955	36.241610738255	24	0.800100863724947	2	8	1	NaN	2	4	0.466906167261505	0	1	NaN	431	7	53	1	120	220	320	NaN	520	0.12356828013435	1	0	NaN	3979265.6164483	NaN	3979266.5998453	3979267.11641282
29	19	1	0	90	36.1581920903955	36.241610738255	22	0.733425791747868	2	12	6	NaN	2	4	0.466906167261505	0	1	NaN	432	7	54	1	120	220	320	NaN	520	1.03410258051008	1	0	NaN	3979268.0500759	NaN	3979269.0334615	3979269.54998872
29	19	1	0	90	36.1581920903955	36.241610738255	7	0.233362751919776	2	1	6	NaN	1	4	0.466906167261505	0	1	NaN	433	7	55	1	120	220	320	NaN	520	0.147607531864196	1	1	NaN	3979271.4003907	NaN	3979272.3837803	3979272.90032837
29	19	1	0	90	36.1581920903955	36.241610738255	11	0.366712895873934	2	11	6	NaN	2	4	0.466906167261505	0	1	NaN	434	7	56	1	120	220	320	NaN	520	0.241098380181938	2	1	NaN	3979273.8671467	NaN	3979274.8506845	3979275.36722292
29	19	1	0	90	36.1581920903955	36.241610738255	8	0.266700287908316	2	1	3	NaN	1	5	0.466906167261505	0	1	NaN	435	7	57	1	120	220	320	NaN	520	0.122926531825215	2	0	NaN	3979276.4175316	NaN	3979277.4009356	3979277.91748657
29	19	1	0	90	36.1581920903955	36.241610738255	21	0.700088255759329	2	10	2	NaN	2	5	0.466906167261505	0	1	NaN	436	7	58	1	120	220	320	NaN	520	0.648793080355972	2	1	NaN	3979278.8509915	NaN	3979279.8345036	3979280.35105442
29	19	1	0	90	36.1581920903955	36.241610738255	10	0.333375359885395	2	9	3	NaN	2	3	0.466906167261505	0	1	NaN	437	7	59	1	120	220	320	NaN	520	0.233975831884891	2	1	NaN	3979281.8180654	NaN	3979282.8015564	3979283.31801597
29	19	1	0	90	36.1581920903955	36.241610738255	12	0.400050431862474	2	7	3	NaN	2	3	0.466906167261505	0	1	NaN	438	7	60	1	120	220	320	NaN	520	0.228311380371451	2	1	NaN	3979284.35164	NaN	3979285.3350412	3979285.85158932
29	19	1	0	90	36.1581920903955	36.241610738255	13	0.433387967851013	2	10	5	NaN	2	4	0.466906167261505	0	1	NaN	439	7	61	1	120	220	320	NaN	520	0.206182232126594	2	1	NaN	3979286.9019092	NaN	3979287.8852956	3979288.40183537
29	19	1	0	90	36.1581920903955	36.241610738255	8	0.266700287908316	2	5	3	NaN	1	4	0.466906167261505	0	1	NaN	440	7	62	1	120	220	320	NaN	520	0.177632928825915	1	1	NaN	3979289.4187992	NaN	3979290.4022061	3979290.91875477
29	19	1	0	90	36.1581920903955	36.241610738255	13	0.433387967851013	2	8	5	NaN	2	4	0.466906167261505	0	1	NaN	441	7	63	1	120	220	320	NaN	520	0.189968683291227	2	1	NaN	3979291.9024115	NaN	3979292.8858014	3979293.40233432
29	19	1	0	90	36.1581920903955	36.241610738255	12	0.400050431862474	2	3	2	NaN	1	3	0.466906167261505	0	1	NaN	442	8	1	1	120	220	320	NaN	520	0.59062119666487	1	1	NaN	3979297.0695467	NaN	3979298.0529924	3979298.56952
29	19	1	0	90	36.1581920903955	36.241610738255	7	0.233362751919776	2	5	2	NaN	1	4	0.466906167261505	0	1	NaN	443	8	2	1	120	220	320	NaN	520	0.258458231575787	1	1	NaN	3979299.9698489	NaN	3979300.9532498	3979301.46980187
29	19	1	0	90	36.1581920903955	36.241610738255	9	0.300037823896855	2	12	2	NaN	2	5	0.466906167261505	0	1	NaN	444	8	3	1	120	220	320	NaN	520	0.171665976755321	1	0	NaN	3979302.5367822	NaN	3979303.5201603	3979304.03670262
29	19	1	0	90	36.1581920903955	36.241610738255	19	0.63341318378225	2	8	2	NaN	2	3	0.466906167261505	0	1	NaN	445	8	4	1	120	220	320	NaN	520	0.488002280239016	2	1	NaN	3979305.0203486	NaN	3979306.0037344	3979306.52028672
29	19	1	0	90	36.1581920903955	36.241610738255	17	0.566738111805171	2	3	2	NaN	1	4	0.466906167261505	0	1	NaN	446	8	5	1	120	220	320	NaN	520	0.11116513190791	1	1	NaN	3979307.8207185	NaN	3979308.804041	3979309.32056827
29	19	1	0	90	36.1581920903955	36.241610738255	20	0.666750719770789	2	10	4	NaN	2	3	0.466906167261505	0	1	NaN	447	8	6	1	120	220	320	NaN	520	0.182609179988503	1	0	NaN	3979310.2375187	NaN	3979311.2209213	3979311.73746422
29	19	1	0	90	36.1581920903955	36.241610738255	20	0.666750719770789	2	5	2	NaN	1	4	0.466906167261505	0	1	NaN	448	8	7	1	120	220	320	NaN	520	0.522167776711285	2	0	NaN	3979312.7377537	NaN	3979313.7211649	3979314.23771712
29	19	1	0	90	36.1581920903955	36.241610738255	23	0.766763327736408	2	4	2	NaN	1	4	0.466906167261505	0	1	NaN	449	8	8	1	120	220	320	NaN	520	0.0104240286163986	1	1	NaN	3979315.5712473	NaN	3979316.5547816	3979317.07131987
29	19	1	0	90	36.1581920903955	36.241610738255	21	0.700088255759329	2	1	4	NaN	1	5	0.466906167261505	0	1	NaN	450	8	9	1	120	220	320	NaN	520	0.33986048027873	1	1	NaN	3979317.888277	NaN	3979318.8716786	3979319.38821152
29	19	1	0	90	36.1581920903955	36.241610738255	11	0.366712895873934	2	6	6	NaN	1	4	0.466906167261505	0	1	NaN	451	8	10	1	120	220	320	NaN	520	0.289794569835067	1	1	NaN	3979321.7386238	NaN	3979322.7220303	3979323.23858603
29	19	1	0	90	36.1581920903955	36.241610738255	18	0.60007564779371	2	8	2	NaN	2	5	0.466906167261505	0	1	NaN	452	8	11	1	120	220	320	NaN	520	0.128946235403419	2	1	NaN	3979324.3389254	NaN	3979325.3222356	3979325.83884996
29	19	1	0	90	36.1581920903955	36.241610738255	19	0.63341318378225	2	11	6	NaN	2	3	0.466906167261505	0	1	NaN	453	8	12	1	120	220	320	NaN	520	0.0103297387249768	2	1	NaN	3979326.789159	NaN	3979327.7725307	3979328.28909616
29	19	1	0	90	36.1581920903955	36.241610738255	0	0	1	7	6	NaN	2	5	0.466906167261505	0	1	NaN	454	8	13	1	110	210	310	NaN	510	0.106281877029687	1	0	NaN	3979329.1060545	NaN	3979330.089466	3979330.60597952
29	19	1	0	90	36.1581920903955	36.241610738255	17	0.566738111805171	2	6	2	NaN	1	4	0.466906167261505	0	1	NaN	455	8	14	1	120	220	320	NaN	520	0.0650969385169446	1	1	NaN	3979331.5229359	NaN	3979332.5063417	3979333.02288756
29	19	1	0	90	36.1581920903955	36.241610738255	11	0.366712895873934	2	9	5	NaN	2	5	0.466906167261505	0	1	NaN	456	8	15	1	120	220	320	NaN	520	0.113492828328162	2	1	NaN	3979333.9065256	NaN	3979334.8899108	3979335.40645547
29	19	1	0	90	36.1581920903955	36.241610738255	24	0.800100863724947	2	4	1	NaN	1	4	0.466906167261505	0	1	NaN	457	8	16	1	120	220	320	NaN	520	0.160114928614348	1	1	NaN	3979336.340123	NaN	3979337.3234595	3979337.84002077
29	19	1	0	90	36.1581920903955	36.241610738255	24	0.800100863724947	2	7	2	NaN	2	4	0.466906167261505	0	1	NaN	458	8	17	1	120	220	320	NaN	520	0.636907576583326	1	0	NaN	3979338.8069927	NaN	3979339.7903863	3979340.30693132
29	19	1	0	90	36.1581920903955	36.241610738255	12	0.400050431862474	2	9	6	NaN	2	3	0.466906167261505	0	1	NaN	459	8	18	1	120	220	320	NaN	520	0.774860380217433	1	0	NaN	3979341.7572776	NaN	3979342.740679	3979343.25723332
29	19	1	0	90	36.1581920903955	36.241610738255	6	0.200025215931237	2	11	3	NaN	2	3	0.466906167261505	0	1	NaN	460	8	19	1	120	220	320	NaN	520	0.610030380543321	1	0	NaN	3979345.2742347	NaN	3979346.2577037	3979346.77423192
