subjno	age	gender	isPractice	viewdist	CmToPixX	CmToPixY	SOA_frm	SOA_time	targNum	targID	targExample	targRace	targGender	firstTargPos	contrast	familiarity	curr_staircase	iStair	TrialNum	BlockNum	blktrl	sessionNum	TC_FIXATION	TC_RSVP_START	TC_RSVP_END	TC_BLANK	TC_RESPONSE_ONSET	RT2afc	resp_2afc	acc	RSVPOnsetVBL	RSVPOnsetTime	RSVPOffsetVBL	RSVPOffsetTime	startrt_2afc
74	18	0	0	90	36.1581920903955	36.241610738255	18	0.60004576832056	2	11	4	NaN	2	3	0.142757223351999	0	1	NaN	1	1	1	2	120	220	320	NaN	520	0.0114970281720161	2	1	NaN	5002739.2220769	NaN	5002740.205357	5002740.73849167
74	18	0	0	90	36.1581920903955	36.241610738255	7	0.233351132124662	2	5	3	NaN	1	5	0.142757223351999	0	1	NaN	2	1	2	2	120	220	320	NaN	520	0.0112625760957599	1	1	NaN	5002741.6056349	NaN	5002742.5889283	5002743.12204742
74	18	0	0	90	36.1581920903955	36.241610738255	13	0.433366388231516	2	5	1	NaN	1	5	0.142757223351999	0	1	NaN	3	1	3	2	120	220	320	NaN	520	0.5120759755373	2	0	NaN	5002743.9556431	NaN	5002744.9390517	5002745.45560902
74	18	0	0	90	36.1581920903955	36.241610738255	10	0.333358760178089	2	7	2	NaN	2	4	0.142757223351999	0	1	NaN	4	1	4	2	120	220	320	NaN	520	0.0105218710377812	2	1	NaN	5002746.7892712	NaN	5002747.7727024	5002748.28922423
74	18	0	0	90	36.1581920903955	36.241610738255	18	0.60004576832056	2	3	5	NaN	1	3	0.142757223351999	0	1	NaN	5	1	5	2	120	220	320	NaN	520	0.0104294186457992	1	1	NaN	5002749.1228371	NaN	5002750.1062405	5002750.62278158
74	18	0	0	90	36.1581920903955	36.241610738255	23	0.766725148409605	2	4	1	NaN	1	4	0.142757223351999	0	1	NaN	6	1	6	2	120	220	320	NaN	520	0.0104490658268332	2	0	NaN	5002751.4564097	NaN	5002752.439804	5002752.95634653
74	18	0	0	90	36.1581920903955	36.241610738255	22	0.733389272391796	2	4	2	NaN	1	4	0.142757223351999	0	1	NaN	7	1	7	2	120	220	320	NaN	520	0.0103948237374425	1	1	NaN	5002753.7899677	NaN	5002754.7733709	5002755.28992358
74	18	0	0	90	36.1581920903955	36.241610738255	24	0.800061024427414	2	3	6	NaN	1	5	0.142757223351999	0	1	NaN	8	1	8	2	120	220	320	NaN	520	0.0104013234376907	1	1	NaN	5002756.1234279	NaN	5002757.1069256	5002757.62348458
74	18	0	0	90	36.1581920903955	36.241610738255	22	0.733389272391796	2	7	6	NaN	2	4	0.142757223351999	0	1	NaN	9	1	9	2	120	220	320	NaN	520	0.0103694284334779	2	1	NaN	5002758.4571002	NaN	5002759.4404816	5002759.95704187
74	18	0	0	90	36.1581920903955	36.241610738255	6	0.200015256106854	2	4	4	NaN	1	4	0.142757223351999	0	1	NaN	10	1	10	2	120	220	320	NaN	520	0.0104257175698876	1	1	NaN	5002760.7906694	NaN	5002761.7740745	5002762.29060268
74	18	0	0	90	36.1581920903955	36.241610738255	17	0.566709892302752	2	12	4	NaN	2	5	0.142757223351999	0	1	NaN	11	1	11	2	120	220	320	NaN	520	0.0104216178879142	2	1	NaN	5002763.1242194	NaN	5002764.1076241	5002764.62416678
74	18	0	0	90	36.1581920903955	36.241610738255	12	0.400030512213707	2	11	4	NaN	2	5	0.142757223351999	0	1	NaN	12	1	12	2	120	220	320	NaN	520	0.0103973234072328	2	1	NaN	5002765.4577788	NaN	5002766.4411814	5002766.95773568
74	18	0	0	90	36.1581920903955	36.241610738255	18	0.60004576832056	2	1	6	NaN	1	3	0.142757223351999	0	1	NaN	13	1	13	2	120	220	320	NaN	520	0.0104310186579823	2	0	NaN	5002767.7913442	NaN	5002768.774771	5002769.29128988
74	18	0	0	90	36.1581920903955	36.241610738255	24	0.800061024427414	2	7	1	NaN	2	5	0.142757223351999	0	1	NaN	14	1	14	2	120	220	320	NaN	520	0.0103962235152721	2	1	NaN	5002770.124797	NaN	5002771.1083121	5002771.62486108
74	18	0	0	90	36.1581920903955	36.241610738255	25	0.833396900445223	2	6	6	NaN	1	4	0.142757223351999	0	1	NaN	15	1	15	2	120	220	320	NaN	520	0.0972808711230755	1	1	NaN	5002772.4583565	NaN	5002773.441881	5002773.95842603
74	18	0	0	90	36.1581920903955	36.241610738255	0	0	1	2	4	NaN	1	3	0.142757223351999	0	1	NaN	16	1	16	2	110	210	310	NaN	510	0.0103791756555438	2	0	NaN	5002774.8752502	NaN	5002775.8587913	5002776.37533622
74	18	0	0	90	36.1581920903955	36.241610738255	22	0.733389272391796	2	6	1	NaN	1	4	0.142757223351999	0	1	NaN	17	1	17	2	120	220	320	NaN	520	0.0102522941306233	1	1	NaN	5002777.2089576	NaN	5002778.1923259	5002778.70890431
74	18	0	0	90	36.1581920903955	36.241610738255	23	0.766725148409605	2	7	1	NaN	2	5	0.142757223351999	0	1	NaN	18	1	18	2	120	220	320	NaN	520	0.173598323948681	2	1	NaN	5002779.5424971	NaN	5002780.5258286	5002781.04245558
74	18	0	0	90	36.1581920903955	36.241610738255	6	0.200015256106854	2	5	2	NaN	1	4	0.142757223351999	0	1	NaN	19	1	19	2	120	220	320	NaN	520	0.0104089714586735	1	1	NaN	5002782.0427572	NaN	5002783.0261552	5002783.54270373
74	18	0	0	90	36.1581920903955	36.241610738255	23	0.766725148409605	2	5	6	NaN	1	3	0.142757223351999	0	1	NaN	20	1	20	2	120	220	320	NaN	520	0.0104082236066461	2	0	NaN	5002784.37633	NaN	5002785.3596997	5002785.87626158
74	18	0	0	90	36.1581920903955	36.241610738255	0	0	1	12	6	NaN	2	4	0.142757223351999	0	1	NaN	21	1	21	2	110	210	310	NaN	510	0.0104276183992624	2	1	NaN	5002786.7098578	NaN	5002787.6932979	5002788.20982998
74	18	0	0	90	36.1581920903955	36.241610738255	8	0.266687008142471	2	3	5	NaN	1	5	0.142757223351999	0	1	NaN	22	1	22	2	120	220	320	NaN	520	0.0103824753314257	1	1	NaN	5002789.043444	NaN	5002790.026833	5002790.54339772
74	18	0	0	90	36.1581920903955	36.241610738255	8	0.266687008142471	2	1	3	NaN	1	3	0.142757223351999	0	1	NaN	23	1	23	2	120	220	320	NaN	520	0.0104214176535606	2	0	NaN	5002791.3770113	NaN	5002792.3604087	5002792.87695848
74	18	0	0	90	36.1581920903955	36.241610738255	9	0.30002288416028	2	1	1	NaN	1	3	0.142757223351999	0	1	NaN	24	1	24	2	120	220	320	NaN	520	0.0104128234088421	1	1	NaN	5002793.6939215	NaN	5002794.6773022	5002795.19384878
74	18	0	0	90	36.1581920903955	36.241610738255	8	0.266687008142471	2	7	5	NaN	2	4	0.142757223351999	0	1	NaN	25	1	25	2	120	220	320	NaN	520	0.0104257175698876	2	1	NaN	5002796.0274684	NaN	5002797.0108719	5002797.52740968
74	18	0	0	90	36.1581920903955	36.241610738255	11	0.366694636195898	2	5	1	NaN	1	5	0.142757223351999	0	1	NaN	26	1	26	2	120	220	320	NaN	520	0.994804470799863	2	0	NaN	5002798.3610227	NaN	5002799.3444263	5002799.86097153
74	18	0	0	90	36.1581920903955	36.241610738255	14	0.466702264249325	2	6	6	NaN	1	3	0.142757223351999	0	1	NaN	27	1	27	2	120	220	320	NaN	520	0.0102746421471238	1	1	NaN	5002801.6781698	NaN	5002802.6614234	5002803.17797566
74	18	0	0	90	36.1581920903955	36.241610738255	0	0	1	4	2	NaN	1	4	0.142757223351999	0	1	NaN	28	1	28	2	110	210	310	NaN	510	0.0103894751518965	1	1	NaN	5002804.0115839	NaN	5002804.9949597	5002805.51154052
74	18	0	0	90	36.1581920903955	36.241610738255	6	0.200015256106854	2	12	3	NaN	2	4	0.142757223351999	0	1	NaN	29	1	29	2	120	220	320	NaN	520	0.010332933627069	2	1	NaN	5002806.3284985	NaN	5002807.3118708	5002807.82843757
74	18	0	0	90	36.1581920903955	36.241610738255	21	0.700053396373987	2	12	5	NaN	2	4	0.142757223351999	0	1	NaN	30	1	30	2	120	220	320	NaN	520	0.0103933243080974	2	1	NaN	5002808.6620401	NaN	5002809.645433	5002810.16199738
74	18	0	0	90	36.1581920903955	36.241610738255	15	0.500038140267134	2	8	4	NaN	2	3	0.142757223351999	0	1	NaN	31	1	31	2	120	220	320	NaN	520	0.0104100713506341	2	1	NaN	5002810.995609	NaN	5002811.9790573	5002812.49555743
74	18	0	0	90	36.1581920903955	36.241610738255	9	0.30002288416028	2	8	6	NaN	2	3	0.142757223351999	0	1	NaN	32	1	32	2	120	220	320	NaN	520	0.130694624036551	2	1	NaN	5002813.329172	NaN	5002814.312548	5002814.82912058
74	18	0	0	90	36.1581920903955	36.241610738255	8	0.266687008142471	2	5	6	NaN	1	5	0.142757223351999	0	1	NaN	33	1	33	2	120	220	320	NaN	520	0.0104198716580868	2	0	NaN	5002815.7793548	NaN	5002816.7628921	5002817.27935863
74	18	0	0	90	36.1581920903955	36.241610738255	25	0.833396900445223	2	4	3	NaN	1	3	0.142757223351999	0	1	NaN	34	1	34	2	120	220	320	NaN	520	0.0103944232687354	1	1	NaN	5002818.1129828	NaN	5002819.0963859	5002819.61291718
74	18	0	0	90	36.1581920903955	36.241610738255	24	0.800061024427414	2	6	1	NaN	1	5	0.142757223351999	0	1	NaN	35	1	35	2	120	220	320	NaN	520	1.30148918461055	1	1	NaN	5002820.4465446	NaN	5002821.4299515	5002821.94648651
74	18	0	0	90	36.1581920903955	36.241610738255	9	0.30002288416028	2	5	5	NaN	1	4	0.142757223351999	0	1	NaN	36	1	36	2	120	220	320	NaN	520	0.0104507179930806	1	1	NaN	5002824.063417	NaN	5002825.0469608	5002825.56351488
74	18	0	0	90	36.1581920903955	36.241610738255	13	0.433366388231516	2	1	2	NaN	1	4	0.142757223351999	0	1	NaN	37	1	37	2	120	220	320	NaN	520	1.27875692397356	1	1	NaN	5002826.3969864	NaN	5002827.3805555	5002827.89707978
74	18	0	0	90	36.1581920903955	36.241610738255	18	0.60004576832056	2	5	1	NaN	1	5	0.142757223351999	0	1	NaN	38	1	38	2	120	220	320	NaN	520	0.0103983236476779	1	1	NaN	5002829.9806871	NaN	5002830.9643254	5002831.48075968
74	18	0	0	90	36.1581920903955	36.241610738255	16	0.533374016284943	2	1	6	NaN	1	3	0.142757223351999	0	1	NaN	39	1	39	2	120	220	320	NaN	520	0.15407707169652	1	1	NaN	5002832.2975643	NaN	5002833.2811139	5002833.79765253
74	18	0	0	90	36.1581920903955	36.241610738255	11	0.366694636195898	2	10	4	NaN	2	3	0.142757223351999	0	1	NaN	40	1	40	2	120	220	320	NaN	520	0.0104051232337952	2	1	NaN	5002834.7646177	NaN	5002835.7480157	5002836.26456298
74	18	0	0	90	36.1581920903955	36.241610738255	14	0.466702264249325	2	5	5	NaN	1	4	0.142757223351999	0	1	NaN	41	1	41	2	120	220	320	NaN	520	0.0103185856714845	2	0	NaN	5002837.0814973	NaN	5002838.0649356	5002838.58146361
74	18	0	0	90	36.1581920903955	36.241610738255	7	0.233351132124662	2	4	6	NaN	1	5	0.142757223351999	0	1	NaN	42	1	42	2	120	220	320	NaN	520	0.0104301227256656	1	1	NaN	5002839.4150743	NaN	5002840.3984753	5002840.91502508
74	18	0	0	90	36.1581920903955	36.241610738255	6	0.200015256106854	2	6	4	NaN	1	5	0.142757223351999	0	1	NaN	43	1	43	2	120	220	320	NaN	520	0.010409471578896	1	1	NaN	5002841.7486385	NaN	5002842.7320783	5002843.24858503
74	18	0	0	90	36.1581920903955	36.241610738255	9	0.30002288416028	2	12	1	NaN	2	5	0.142757223351999	0	1	NaN	44	1	44	2	120	220	320	NaN	520	0.0104050235822797	1	0	NaN	5002844.0822051	NaN	5002845.0655952	5002845.58215278
74	18	0	0	90	36.1581920903955	36.241610738255	20	0.666717520356178	2	2	5	NaN	1	5	0.142757223351999	0	1	NaN	45	1	45	2	120	220	320	NaN	520	0.0104225184768438	1	1	NaN	5002846.3989921	NaN	5002847.3824987	5002847.89903788
74	18	0	0	90	36.1581920903955	36.241610738255	7	0.233351132124662	2	2	3	NaN	1	5	0.142757223351999	0	1	NaN	46	1	46	2	120	220	320	NaN	520	0.0103950230404735	1	1	NaN	5002848.7326701	NaN	5002849.7160404	5002850.23261088
74	18	0	0	90	36.1581920903955	36.241610738255	13	0.433366388231516	2	3	2	NaN	1	3	0.142757223351999	0	1	NaN	47	1	47	2	120	220	320	NaN	520	0.0104381190612912	2	0	NaN	5002851.0495375	NaN	5002852.0329567	5002852.54950098
74	18	0	0	90	36.1581920903955	36.241610738255	16	0.533374016284943	2	5	1	NaN	1	4	0.142757223351999	0	1	NaN	48	1	48	2	120	220	320	NaN	520	0.0104080708697438	1	1	NaN	5002853.3831593	NaN	5002854.3665177	5002854.88306193
74	18	0	0	90	36.1581920903955	36.241610738255	0	0	1	10	3	NaN	2	3	0.142757223351999	0	1	NaN	49	1	49	2	110	210	310	NaN	510	0.0104531180113554	1	0	NaN	5002855.6999912	NaN	5002856.6834185	5002857.19995498
74	18	0	0	90	36.1581920903955	36.241610738255	24	0.800061024427414	2	3	3	NaN	1	4	0.142757223351999	0	1	NaN	50	1	50	2	120	220	320	NaN	520	0.0103919226676226	1	1	NaN	5002858.0169113	NaN	5002859.0003145	5002859.51685748
74	18	0	0	90	36.1581920903955	36.241610738255	18	0.60004576832056	2	4	5	NaN	1	3	0.142757223351999	0	1	NaN	51	1	51	2	120	220	320	NaN	520	0.0104071712121367	1	1	NaN	5002860.3504623	NaN	5002861.3338717	5002861.85042483
74	18	0	0	90	36.1581920903955	36.241610738255	23	0.766725148409605	2	6	2	NaN	1	4	0.142757223351999	0	1	NaN	52	1	52	2	120	220	320	NaN	520	0.0104281231760979	1	1	NaN	5002862.6673693	NaN	5002863.650756	5002864.16731598
74	18	0	0	90	36.1581920903955	36.241610738255	22	0.733389272391796	2	11	4	NaN	2	3	0.142757223351999	0	1	NaN	53	1	53	2	120	220	320	NaN	520	0.0104251187294722	2	1	NaN	5002865.0842892	NaN	5002866.0676641	5002866.58421608
74	18	0	0	90	36.1581920903955	36.241610738255	14	0.466702264249325	2	1	2	NaN	1	3	0.142757223351999	0	1	NaN	54	1	54	2	120	220	320	NaN	520	0.0102889901027083	2	0	NaN	5002867.4178182	NaN	5002868.4012221	5002868.91778331
74	18	0	0	90	36.1581920903955	36.241610738255	24	0.800061024427414	2	1	5	NaN	1	5	0.142757223351999	0	1	NaN	55	1	55	2	120	220	320	NaN	520	0.0104231713339686	2	0	NaN	5002869.7346429	NaN	5002870.7181288	5002871.23467693
74	18	0	0	90	36.1581920903955	36.241610738255	13	0.433366388231516	2	2	5	NaN	1	4	0.142757223351999	0	1	NaN	56	1	56	2	120	220	320	NaN	520	0.0103923240676522	1	1	NaN	5002872.0516345	NaN	5002873.0350408	5002873.55156618
74	18	0	0	90	36.1581920903955	36.241610738255	17	0.566709892302752	2	4	2	NaN	1	5	0.142757223351999	0	1	NaN	57	1	57	2	120	220	320	NaN	520	0.0103144384920597	1	1	NaN	5002874.5352164	NaN	5002875.5185905	5002876.03514886
74	18	0	0	90	36.1581920903955	36.241610738255	25	0.833396900445223	2	12	5	NaN	2	5	0.142757223351999	0	1	NaN	58	1	58	2	120	220	320	NaN	520	0.0151661233976483	2	1	NaN	5002876.8687705	NaN	5002877.8521714	5002878.36870808
74	18	0	0	90	36.1581920903955	36.241610738255	0	0	1	7	5	NaN	2	4	0.142757223351999	0	1	NaN	59	1	59	2	110	210	310	NaN	510	0.0104419179260731	2	1	NaN	5002879.2022667	NaN	5002880.1857595	5002880.70226858
74	18	0	0	90	36.1581920903955	36.241610738255	16	0.533374016284943	2	9	3	NaN	2	4	0.142757223351999	0	1	NaN	60	1	60	2	120	220	320	NaN	520	1.39706327579916	2	1	NaN	5002881.5192255	NaN	5002882.5026178	5002883.01917922
74	18	0	0	90	36.1581920903955	36.241610738255	12	0.400030512213707	2	12	6	NaN	2	3	0.142757223351999	0	1	NaN	61	1	61	2	120	220	320	NaN	520	0.0102680427953601	2	1	NaN	5002885.2362436	NaN	5002886.2196525	5002886.73621416
74	18	0	0	90	36.1581920903955	36.241610738255	23	0.766725148409605	2	12	2	NaN	2	5	0.142757223351999	0	1	NaN	62	1	62	2	120	220	320	NaN	520	0.0103930234909058	2	1	NaN	5002887.553167	NaN	5002888.5365617	5002889.05310308
74	18	0	0	90	36.1581920903955	36.241610738255	19	0.633381644338369	2	1	2	NaN	1	5	0.142757223351999	0	1	NaN	63	1	63	2	120	220	320	NaN	520	0.0379956709221005	1	1	NaN	5002889.8700376	NaN	5002890.853484	5002891.36999413
74	18	0	0	90	36.1581920903955	36.241610738255	19	0.633381644338369	2	6	3	NaN	1	5	0.142757223351999	0	1	NaN	64	2	1	2	120	220	320	NaN	520	0.0105179091915488	1	1	NaN	5002901.4211714	NaN	5002902.4045844	5002902.92112259
74	18	0	0	90	36.1581920903955	36.241610738255	8	0.266687008142471	2	5	6	NaN	1	5	0.142757223351999	0	1	NaN	65	2	2	2	120	220	320	NaN	520	0.0103930244222283	2	0	NaN	5002903.7381217	NaN	5002904.7214895	5002905.23802768
74	18	0	0	90	36.1581920903955	36.241610738255	23	0.766725148409605	2	6	6	NaN	1	4	0.142757223351999	0	1	NaN	66	2	3	2	120	220	320	NaN	520	0.010409071110189	1	1	NaN	5002906.0549772	NaN	5002907.0383748	5002907.55492593
74	18	0	0	90	36.1581920903955	36.241610738255	8	0.266687008142471	2	10	5	NaN	2	4	0.142757223351999	0	1	NaN	67	2	4	2	120	220	320	NaN	520	0.0475708236917853	1	0	NaN	5002908.3884343	NaN	5002909.3719397	5002909.88848528
74	18	0	0	90	36.1581920903955	36.241610738255	24	0.800061024427414	2	5	4	NaN	1	3	0.142757223351999	0	1	NaN	68	2	5	2	120	220	320	NaN	520	0.0104189710691571	2	0	NaN	5002910.7554441	NaN	5002911.7388424	5002912.25539183
74	18	0	0	90	36.1581920903955	36.241610738255	12	0.400030512213707	2	8	2	NaN	2	5	0.142757223351999	0	1	NaN	69	2	6	2	120	220	320	NaN	520	0.0103919235989451	2	1	NaN	5002913.0723369	NaN	5002914.0557286	5002914.57227818
74	18	0	0	90	36.1581920903955	36.241610738255	13	0.433366388231516	2	4	1	NaN	1	3	0.142757223351999	0	1	NaN	70	2	7	2	120	220	320	NaN	520	0.010390724055469	2	0	NaN	5002915.389103	NaN	5002916.3726663	5002916.88917018
74	18	0	0	90	36.1581920903955	36.241610738255	15	0.500038140267134	2	6	1	NaN	1	3	0.142757223351999	0	1	NaN	71	2	8	2	120	220	320	NaN	520	0.0104260174557567	1	1	NaN	5002917.7061311	NaN	5002918.6895248	5002919.20606638
74	18	0	0	90	36.1581920903955	36.241610738255	7	0.233351132124662	2	6	2	NaN	1	5	0.142757223351999	0	1	NaN	72	2	9	2	120	220	320	NaN	520	1.09280210826546	1	1	NaN	5002920.023001	NaN	5002921.0064125	5002921.52296829
74	18	0	0	90	36.1581920903955	36.241610738255	20	0.666717520356178	2	1	3	NaN	1	5	0.142757223351999	0	1	NaN	73	2	10	2	120	220	320	NaN	520	0.0103141386061907	2	0	NaN	5002923.4233677	NaN	5002924.4067491	5002924.92330116
74	18	0	0	90	36.1581920903955	36.241610738255	6	0.200015256106854	2	12	4	NaN	2	5	0.142757223351999	0	1	NaN	74	2	11	2	120	220	320	NaN	520	0.0104065714403987	2	1	NaN	5002925.7568952	NaN	5002926.7403019	5002927.25686593
74	18	0	0	90	36.1581920903955	36.241610738255	10	0.333358760178089	2	3	6	NaN	1	4	0.142757223351999	0	1	NaN	75	2	12	2	120	220	320	NaN	520	0.0103917233645916	1	1	NaN	5002928.0738146	NaN	5002929.0572041	5002929.57375928
74	18	0	0	90	36.1581920903955	36.241610738255	6	0.200015256106854	2	5	4	NaN	1	5	0.142757223351999	0	1	NaN	76	2	13	2	120	220	320	NaN	520	0.0103918751701713	1	1	NaN	5002930.3907011	NaN	5002931.3741018	5002931.89065832
74	18	0	0	90	36.1581920903955	36.241610738255	11	0.366694636195898	2	3	4	NaN	1	3	0.142757223351999	0	1	NaN	77	2	14	2	120	220	320	NaN	520	0.010390623472631	1	1	NaN	5002932.7076103	NaN	5002933.6909925	5002934.20755108
74	18	0	0	90	36.1581920903955	36.241610738255	22	0.733389272391796	2	10	2	NaN	2	4	0.142757223351999	0	1	NaN	78	2	15	2	120	220	320	NaN	520	0.0104143712669611	1	0	NaN	5002935.0245205	NaN	5002936.0078897	5002936.52444463
74	18	0	0	90	36.1581920903955	36.241610738255	16	0.533374016284943	2	7	5	NaN	2	5	0.142757223351999	0	1	NaN	79	2	16	2	120	220	320	NaN	520	0.0104063237085938	2	1	NaN	5002937.3579555	NaN	5002938.3414501	5002938.85801068
74	18	0	0	90	36.1581920903955	36.241610738255	7	0.233351132124662	2	12	3	NaN	2	5	0.142757223351999	0	1	NaN	80	2	17	2	120	220	320	NaN	520	0.0104787712916732	2	1	NaN	5002939.6916077	NaN	5002940.6750287	5002941.19157493
74	18	0	0	90	36.1581920903955	36.241610738255	18	0.60004576832056	2	8	2	NaN	2	3	0.142757223351999	0	1	NaN	81	2	18	2	120	220	320	NaN	520	0.0104160709306598	2	1	NaN	5002942.0085135	NaN	5002942.9919065	5002943.50846163
74	18	0	0	90	36.1581920903955	36.241610738255	21	0.700053396373987	2	5	1	NaN	1	5	0.142757223351999	0	1	NaN	82	2	19	2	120	220	320	NaN	520	0.0104228183627129	1	1	NaN	5002944.3254043	NaN	5002945.3088153	5002945.82535978
74	18	0	0	90	36.1581920903955	36.241610738255	14	0.466702264249325	2	8	3	NaN	2	3	0.142757223351999	0	1	NaN	83	2	20	2	120	220	320	NaN	520	0.0103938234969974	2	1	NaN	5002946.6422976	NaN	5002947.6257205	5002948.14225858
74	18	0	0	90	36.1581920903955	36.241610738255	0	0	1	3	1	NaN	1	5	0.142757223351999	0	1	NaN	84	2	21	2	110	210	310	NaN	510	0.0103884758427739	2	0	NaN	5002948.9758758	NaN	5002949.9592631	5002950.47582242
74	18	0	0	90	36.1581920903955	36.241610738255	16	0.533374016284943	2	9	4	NaN	2	3	0.142757223351999	0	1	NaN	85	2	22	2	120	220	320	NaN	520	0.0103926239535213	2	1	NaN	5002951.3094411	NaN	5002952.292816	5002952.80938238
74	18	0	0	90	36.1581920903955	36.241610738255	17	0.566709892302752	2	11	2	NaN	2	4	0.142757223351999	0	1	NaN	86	2	23	2	120	220	320	NaN	520	0.0103464806452394	2	1	NaN	5002953.6429971	NaN	5002954.6264019	5002955.14294742
74	18	0	0	90	36.1581920903955	36.241610738255	14	0.466702264249325	2	3	5	NaN	1	4	0.142757223351999	0	1	NaN	87	2	24	2	120	220	320	NaN	520	0.0102660432457924	2	0	NaN	5002955.9765641	NaN	5002956.9599446	5002957.47650926
74	18	0	0	90	36.1581920903955	36.241610738255	12	0.400030512213707	2	6	2	NaN	1	5	0.142757223351999	0	1	NaN	88	2	25	2	120	220	320	NaN	520	0.0104204714298248	1	1	NaN	5002958.2934502	NaN	5002959.2768551	5002959.79340843
74	18	0	0	90	36.1581920903955	36.241610738255	10	0.333358760178089	2	1	1	NaN	1	5	0.142757223351999	0	1	NaN	89	2	26	2	120	220	320	NaN	520	0.0104275187477469	1	1	NaN	5002960.6102295	NaN	5002961.5937394	5002962.11029408
74	18	0	0	90	36.1581920903955	36.241610738255	21	0.700053396373987	2	3	1	NaN	1	3	0.142757223351999	0	1	NaN	90	2	27	2	120	220	320	NaN	520	0.0104073714464903	2	0	NaN	5002962.927343	NaN	5002963.9106988	5002964.42719823
74	18	0	0	90	36.1581920903955	36.241610738255	10	0.333358760178089	2	2	4	NaN	1	5	0.142757223351999	0	1	NaN	91	2	28	2	120	220	320	NaN	520	0.519182132557034	2	0	NaN	5002965.2608143	NaN	5002966.2442554	5002966.76076107
74	18	0	0	90	36.1581920903955	36.241610738255	6	0.200015256106854	2	7	4	NaN	2	3	0.142757223351999	0	1	NaN	92	2	29	2	120	220	320	NaN	520	0.0104075716808438	2	1	NaN	5002968.4777385	NaN	5002969.4612006	5002969.97774413
74	18	0	0	90	36.1581920903955	36.241610738255	18	0.60004576832056	2	10	2	NaN	2	4	0.142757223351999	0	1	NaN	93	2	30	2	120	220	320	NaN	520	1.00166102405638	2	1	NaN	5002970.794551	NaN	5002971.7780769	5002972.29463958
74	18	0	0	90	36.1581920903955	36.241610738255	16	0.533374016284943	2	7	1	NaN	2	4	0.142757223351999	0	1	NaN	94	2	31	2	120	220	320	NaN	520	0.218348572030663	2	1	NaN	5002974.1616853	NaN	5002975.1450863	5002975.66163073
74	18	0	0	90	36.1581920903955	36.241610738255	14	0.466702264249325	2	2	5	NaN	1	4	0.142757223351999	0	1	NaN	95	2	32	2	120	220	320	NaN	520	0.010398923419416	1	1	NaN	5002976.6951428	NaN	5002977.6786692	5002978.19522348
74	18	0	0	90	36.1581920903955	36.241610738255	0	0	1	7	1	NaN	2	3	0.142757223351999	0	1	NaN	96	2	33	2	110	210	310	NaN	510	0.0104079712182283	2	1	NaN	5002979.0121592	NaN	5002979.9955434	5002980.51211833
74	18	0	0	90	36.1581920903955	36.241610738255	25	0.833396900445223	2	10	3	NaN	2	4	0.142757223351999	0	1	NaN	97	2	34	2	120	220	320	NaN	520	0.0983867235481739	1	0	NaN	5002981.3457022	NaN	5002982.3291213	5002982.84567638
74	18	0	0	90	36.1581920903955	36.241610738255	8	0.266687008142471	2	4	1	NaN	1	3	0.142757223351999	0	1	NaN	98	2	35	2	120	220	320	NaN	520	0.0104028722271323	1	1	NaN	5002983.762652	NaN	5002984.7460869	5002985.26258073
74	18	0	0	90	36.1581920903955	36.241610738255	15	0.500038140267134	2	9	1	NaN	2	3	0.142757223351999	0	1	NaN	99	2	36	2	120	220	320	NaN	520	0.0104062706232071	1	0	NaN	5002986.2794876	NaN	5002987.2629438	5002987.77949443
74	18	0	0	90	36.1581920903955	36.241610738255	8	0.266687008142471	2	12	2	NaN	2	3	0.142757223351999	0	1	NaN	100	2	37	2	120	220	320	NaN	520	0.0104139717295766	2	1	NaN	5002988.5964346	NaN	5002989.5798281	5002990.09639023
74	18	0	0	90	36.1581920903955	36.241610738255	10	0.333358760178089	2	5	4	NaN	1	5	0.142757223351999	0	1	NaN	101	2	38	2	120	220	320	NaN	520	0.0103940237313509	2	0	NaN	5002990.9133479	NaN	5002991.8967258	5002992.41328888
74	18	0	0	90	36.1581920903955	36.241610738255	14	0.466702264249325	2	10	1	NaN	2	4	0.142757223351999	0	1	NaN	102	2	39	2	120	220	320	NaN	520	0.0104070715606213	2	1	NaN	5002993.2300952	NaN	5002994.2136294	5002994.73017513
74	18	0	0	90	36.1581920903955	36.241610738255	19	0.633381644338369	2	8	5	NaN	2	4	0.142757223351999	0	1	NaN	103	2	40	2	120	220	320	NaN	520	0.0103944232687354	2	1	NaN	5002995.5471321	NaN	5002996.5305389	5002997.04707978
74	18	0	0	90	36.1581920903955	36.241610738255	8	0.266687008142471	2	10	1	NaN	2	3	0.142757223351999	0	1	NaN	104	2	41	2	120	220	320	NaN	520	0.0104310186579823	2	1	NaN	5002997.8639085	NaN	5002998.8474417	5002999.36397168
74	18	0	0	90	36.1581920903955	36.241610738255	8	0.266687008142471	2	8	4	NaN	2	3	0.142757223351999	0	1	NaN	105	2	42	2	120	220	320	NaN	520	0.0103950230404735	1	0	NaN	5003000.1809168	NaN	5003001.1643308	5003001.68086148
74	18	0	0	90	36.1581920903955	36.241610738255	15	0.500038140267134	2	2	3	NaN	1	5	0.142757223351999	0	1	NaN	106	2	43	2	120	220	320	NaN	520	0.0104064708575606	1	1	NaN	5003002.4977979	NaN	5003003.4811923	5003003.99775753
74	18	0	0	90	36.1581920903955	36.241610738255	19	0.633381644338369	2	11	6	NaN	2	4	0.142757223351999	0	1	NaN	107	2	44	2	120	220	320	NaN	520	0.0104053234681487	2	1	NaN	5003004.8313914	NaN	5003005.8147702	5003006.33131738
74	18	0	0	90	36.1581920903955	36.241610738255	6	0.200015256106854	2	8	1	NaN	2	5	0.142757223351999	0	1	NaN	108	2	45	2	120	220	320	NaN	520	0.703675571829081	2	1	NaN	5003007.1481336	NaN	5003008.1316685	5003008.64822033
74	18	0	0	90	36.1581920903955	36.241610738255	15	0.500038140267134	2	6	3	NaN	1	4	0.142757223351999	0	1	NaN	109	2	46	2	120	220	320	NaN	520	0.0103979231789708	1	1	NaN	5003010.1653057	NaN	5003011.1486455	5003011.66517888
74	18	0	0	90	36.1581920903955	36.241610738255	0	0	1	1	2	NaN	1	4	0.142757223351999	0	1	NaN	110	2	47	2	110	210	310	NaN	510	0.0104060713201761	1	1	NaN	5003012.482123	NaN	5003013.4655211	5003013.98207823
74	18	0	0	90	36.1581920903955	36.241610738255	23	0.766725148409605	2	9	2	NaN	2	5	0.142757223351999	0	1	NaN	111	2	48	2	120	220	320	NaN	520	0.0102267991751432	2	1	NaN	5003014.7988989	NaN	5003015.7824295	5003016.298976
74	18	0	0	90	36.1581920903955	36.241610738255	25	0.833396900445223	2	11	2	NaN	2	4	0.142757223351999	0	1	NaN	112	2	49	2	120	220	320	NaN	520	0.010419717989862	2	1	NaN	5003017.1158839	NaN	5003018.0993012	5003018.61586128
74	18	0	0	90	36.1581920903955	36.241610738255	11	0.366694636195898	2	6	4	NaN	1	4	0.142757223351999	0	1	NaN	113	2	50	2	120	220	320	NaN	520	0.0103935236111283	1	1	NaN	5003019.4328091	NaN	5003020.4162513	5003020.93276128
74	18	0	0	90	36.1581920903955	36.241610738255	15	0.500038140267134	2	1	6	NaN	1	3	0.142757223351999	0	1	NaN	114	2	51	2	120	220	320	NaN	520	0.010430172085762	2	0	NaN	5003021.7663776	NaN	5003022.7497852	5003023.26633023
74	18	0	0	90	36.1581920903955	36.241610738255	18	0.60004576832056	2	2	6	NaN	1	5	0.142757223351999	0	1	NaN	115	2	52	2	120	220	320	NaN	520	0.0103977229446173	1	1	NaN	5003024.1999261	NaN	5003025.1833536	5003025.69990038
74	18	0	0	90	36.1581920903955	36.241610738255	23	0.766725148409605	2	1	2	NaN	1	3	0.142757223351999	0	1	NaN	116	2	53	2	120	220	320	NaN	520	0.0103860758244991	1	1	NaN	5003026.5168379	NaN	5003027.5002477	5003028.01680032
74	18	0	0	90	36.1581920903955	36.241610738255	23	0.766725148409605	2	10	5	NaN	2	4	0.142757223351999	0	1	NaN	117	2	54	2	120	220	320	NaN	520	0.0338065233081579	2	1	NaN	5003028.8504099	NaN	5003029.8338305	5003030.35035998
74	18	0	0	90	36.1581920903955	36.241610738255	14	0.466702264249325	2	11	5	NaN	2	4	0.142757223351999	0	1	NaN	118	2	55	2	120	220	320	NaN	520	0.0104102715849876	2	1	NaN	5003031.2006246	NaN	5003032.1840429	5003032.70058783
74	18	0	0	90	36.1581920903955	36.241610738255	11	0.366694636195898	2	11	6	NaN	2	5	0.142757223351999	0	1	NaN	119	2	56	2	120	220	320	NaN	520	0.0103928232565522	2	1	NaN	5003033.517543	NaN	5003034.5009519	5003035.01748688
74	18	0	0	90	36.1581920903955	36.241610738255	16	0.533374016284943	2	12	1	NaN	2	5	0.142757223351999	0	1	NaN	120	2	57	2	120	220	320	NaN	520	0.0104257185012102	2	1	NaN	5003035.8510917	NaN	5003036.8344985	5003037.35104238
74	18	0	0	90	36.1581920903955	36.241610738255	18	0.60004576832056	2	5	2	NaN	1	3	0.142757223351999	0	1	NaN	121	2	58	2	120	220	320	NaN	520	0.0103923240676522	2	0	NaN	5003038.1678629	NaN	5003039.1514015	5003039.66794448
74	18	0	0	90	36.1581920903955	36.241610738255	16	0.533374016284943	2	1	1	NaN	1	3	0.142757223351999	0	1	NaN	122	2	59	2	120	220	320	NaN	520	0.0104214707389474	1	1	NaN	5003040.5015787	NaN	5003041.4849552	5003042.00150733
74	18	0	0	90	36.1581920903955	36.241610738255	21	0.700053396373987	2	3	4	NaN	1	4	0.142757223351999	0	1	NaN	123	2	60	2	120	220	320	NaN	520	0.0103920241817832	2	0	NaN	5003042.8184639	NaN	5003043.8018644	5003044.31840448
74	18	0	0	90	36.1581920903955	36.241610738255	17	0.566709892302752	2	9	4	NaN	2	4	0.142757223351999	0	1	NaN	124	2	61	2	120	220	320	NaN	520	0.0104249184951186	1	0	NaN	5003045.1353428	NaN	5003046.1187399	5003046.63529188
74	18	0	0	90	36.1581920903955	36.241610738255	9	0.30002288416028	2	12	5	NaN	2	4	0.142757223351999	0	1	NaN	125	2	62	2	120	220	320	NaN	520	0.0104226181283593	2	1	NaN	5003047.4689197	NaN	5003048.452304	5003048.96885508
74	18	0	0	90	36.1581920903955	36.241610738255	11	0.366694636195898	2	5	4	NaN	1	5	0.142757223351999	0	1	NaN	126	2	63	2	120	220	320	NaN	520	0.0104117710143328	1	1	NaN	5003049.7856962	NaN	5003050.7692365	5003051.28576103
74	18	0	0	90	36.1581920903955	36.241610738255	24	0.800061024427414	2	12	5	NaN	2	3	0.142757223351999	0	1	NaN	127	3	1	2	120	220	320	NaN	520	0.368365671485662	2	1	NaN	5003096.723727	NaN	5003097.7071661	5003098.22370743
74	18	0	0	90	36.1581920903955	36.241610738255	23	0.766725148409605	2	2	5	NaN	1	3	0.142757223351999	0	1	NaN	128	3	2	2	120	220	320	NaN	520	0.0104049229994416	2	0	NaN	5003099.4072691	NaN	5003100.390767	5003100.90731278
74	18	0	0	90	36.1581920903955	36.241610738255	16	0.533374016284943	2	3	5	NaN	1	3	0.142757223351999	0	1	NaN	129	3	3	2	120	220	320	NaN	520	1.37624357175082	1	1	NaN	5003101.7242439	NaN	5003102.7076684	5003103.22421213
74	18	0	0	90	36.1581920903955	36.241610738255	11	0.366694636195898	2	2	3	NaN	1	5	0.142757223351999	0	1	NaN	130	3	4	2	120	220	320	NaN	520	0.0103926239535213	1	1	NaN	5003105.4079703	NaN	5003106.3913352	5003106.90790598
74	18	0	0	90	36.1581920903955	36.241610738255	22	0.733389272391796	2	1	3	NaN	1	5	0.142757223351999	0	1	NaN	131	3	5	2	120	220	320	NaN	520	0.0104226712137461	1	1	NaN	5003107.7247082	NaN	5003108.7083013	5003109.22479923
74	18	0	0	90	36.1581920903955	36.241610738255	15	0.500038140267134	2	11	1	NaN	2	3	0.142757223351999	0	1	NaN	132	3	6	2	120	220	320	NaN	520	0.0103950230404735	2	1	NaN	5003110.0584223	NaN	5003111.0418066	5003111.55836108
74	18	0	0	90	36.1581920903955	36.241610738255	15	0.500038140267134	2	3	1	NaN	1	5	0.142757223351999	0	1	NaN	133	3	7	2	120	220	320	NaN	520	0.0104184718802571	1	1	NaN	5003112.3754153	NaN	5003113.3587117	5003113.87525483
74	18	0	0	90	36.1581920903955	36.241610738255	7	0.233351132124662	2	8	6	NaN	2	3	0.142757223351999	0	1	NaN	134	3	8	2	120	220	320	NaN	520	0.0103936232626438	1	0	NaN	5003114.6920927	NaN	5003115.6756062	5003116.19214608
74	18	0	0	90	36.1581920903955	36.241610738255	16	0.533374016284943	2	2	3	NaN	1	5	0.142757223351999	0	1	NaN	135	3	9	2	120	220	320	NaN	520	0.0104108713567257	1	1	NaN	5003117.1257367	NaN	5003118.1091719	5003118.62572333
74	18	0	0	90	36.1581920903955	36.241610738255	17	0.566709892302752	2	3	6	NaN	1	4	0.142757223351999	0	1	NaN	136	3	10	2	120	220	320	NaN	520	0.0103719756007195	1	1	NaN	5003119.5259811	NaN	5003120.5094089	5003121.02596002
74	18	0	0	90	36.1581920903955	36.241610738255	24	0.800061024427414	2	10	3	NaN	2	5	0.142757223351999	0	1	NaN	137	3	11	2	120	220	320	NaN	520	0.224618017673492	2	1	NaN	5003121.8595672	NaN	5003122.842984	5003123.35951668
74	18	0	0	90	36.1581920903955	36.241610738255	16	0.533374016284943	2	2	2	NaN	1	5	0.142757223351999	0	1	NaN	138	3	12	2	120	220	320	NaN	520	0.0104104233905673	1	1	NaN	5003124.3931686	NaN	5003125.3765542	5003125.89309928
74	18	0	0	90	36.1581920903955	36.241610738255	0	0	1	1	5	NaN	1	3	0.142757223351999	0	1	NaN	139	3	13	2	110	210	310	NaN	510	0.0104235718026757	2	0	NaN	5003126.7100753	NaN	5003127.6934524	5003128.21000523
74	18	0	0	90	36.1581920903955	36.241610738255	19	0.633381644338369	2	12	6	NaN	2	3	0.142757223351999	0	1	NaN	140	3	14	2	120	220	320	NaN	520	0.0104106711223722	2	1	NaN	5003129.1436286	NaN	5003130.1270208	5003130.64356783
74	18	0	0	90	36.1581920903955	36.241610738255	12	0.400030512213707	2	7	2	NaN	2	5	0.142757223351999	0	1	NaN	141	3	15	2	120	220	320	NaN	520	0.0104189710691571	1	0	NaN	5003131.4605272	NaN	5003132.443923	5003132.96047363
74	18	0	0	90	36.1581920903955	36.241610738255	15	0.500038140267134	2	5	2	NaN	1	3	0.142757223351999	0	1	NaN	142	3	16	2	120	220	320	NaN	520	0.0103933233767748	1	1	NaN	5003133.7774201	NaN	5003134.7608116	5003135.27736258
74	18	0	0	90	36.1581920903955	36.241610738255	0	0	1	6	1	NaN	1	5	0.142757223351999	0	1	NaN	143	3	17	2	110	210	310	NaN	510	0.0104308184236288	1	1	NaN	5003136.1109735	NaN	5003137.0943859	5003137.61092318
74	18	0	0	90	36.1581920903955	36.241610738255	23	0.766725148409605	2	11	5	NaN	2	5	0.142757223351999	0	1	NaN	144	3	18	2	120	220	320	NaN	520	0.0103787751868367	2	1	NaN	5003138.4445398	NaN	5003139.4279753	5003139.94449942
74	18	0	0	90	36.1581920903955	36.241610738255	14	0.466702264249325	2	7	6	NaN	2	5	0.142757223351999	0	1	NaN	145	3	19	2	120	220	320	NaN	520	0.0103540811687708	2	1	NaN	5003140.7613126	NaN	5003141.744834	5003142.26138402
74	18	0	0	90	36.1581920903955	36.241610738255	19	0.633381644338369	2	3	3	NaN	1	4	0.142757223351999	0	1	NaN	146	3	20	2	120	220	320	NaN	520	0.0104074710980058	1	1	NaN	5003143.0950258	NaN	5003144.0783801	5003144.59495113
74	18	0	0	90	36.1581920903955	36.241610738255	16	0.533374016284943	2	6	2	NaN	1	5	0.142757223351999	0	1	NaN	147	3	21	2	120	220	320	NaN	520	0.0104117710143328	1	1	NaN	5003145.4285731	NaN	5003146.4119497	5003146.92851893
74	18	0	0	90	36.1581920903955	36.241610738255	10	0.333358760178089	2	10	4	NaN	2	3	0.142757223351999	0	1	NaN	148	3	22	2	120	220	320	NaN	520	0.0104077719151974	2	1	NaN	5003147.7621534	NaN	5003148.7455122	5003149.26207073
74	18	0	0	90	36.1581920903955	36.241610738255	21	0.700053396373987	2	10	2	NaN	2	5	0.142757223351999	0	1	NaN	149	3	23	2	120	220	320	NaN	520	0.0104347178712487	2	1	NaN	5003150.2456884	NaN	5003151.2291265	5003151.74565008
74	18	0	0	90	36.1581920903955	36.241610738255	10	0.333358760178089	2	11	1	NaN	2	5	0.142757223351999	0	1	NaN	150	3	24	2	120	220	320	NaN	520	0.0103926230221987	2	1	NaN	5003152.5791739	NaN	5003153.5626749	5003154.07922358
74	18	0	0	90	36.1581920903955	36.241610738255	0	0	1	12	3	NaN	2	5	0.142757223351999	0	1	NaN	151	3	25	2	110	210	310	NaN	510	0.0839866185560822	2	1	NaN	5003154.896254	NaN	5003155.8795681	5003156.39611638
74	18	0	0	90	36.1581920903955	36.241610738255	20	0.666717520356178	2	5	2	NaN	1	3	0.142757223351999	0	1	NaN	152	3	26	2	120	220	320	NaN	520	0.0104490239173174	1	1	NaN	5003157.2964106	NaN	5003158.2798084	5003158.79634648
74	18	0	0	90	36.1581920903955	36.241610738255	18	0.60004576832056	2	9	4	NaN	2	3	0.142757223351999	0	1	NaN	153	3	27	2	120	220	320	NaN	520	1.84707671869546	1	0	NaN	5003159.6132853	NaN	5003160.5966993	5003161.11324518
74	18	0	0	90	36.1581920903955	36.241610738255	8	0.266687008142471	2	9	3	NaN	2	3	0.142757223351999	0	1	NaN	154	3	28	2	120	220	320	NaN	520	0.0103936232626438	2	1	NaN	5003163.7803874	NaN	5003164.7637807	5003165.28032088
74	18	0	0	90	36.1581920903955	36.241610738255	8	0.266687008142471	2	12	4	NaN	2	4	0.142757223351999	0	1	NaN	155	3	29	2	120	220	320	NaN	520	0.0104260183870792	2	1	NaN	5003166.0972451	NaN	5003167.0807009	5003167.59721448
74	18	0	0	90	36.1581920903955	36.241610738255	14	0.466702264249325	2	12	1	NaN	2	4	0.142757223351999	0	1	NaN	156	3	30	2	120	220	320	NaN	520	0.0103777758777142	2	1	NaN	5003168.5640769	NaN	5003169.5475703	5003170.06412362
74	18	0	0	90	36.1581920903955	36.241610738255	10	0.333358760178089	2	8	3	NaN	2	4	0.142757223351999	0	1	NaN	157	3	31	2	120	220	320	NaN	520	0.0104239182546735	2	1	NaN	5003170.8977484	NaN	5003171.8812064	5003172.39768258
74	18	0	0	90	36.1581920903955	36.241610738255	25	0.833396900445223	2	11	2	NaN	2	5	0.142757223351999	0	1	NaN	158	3	32	2	120	220	320	NaN	520	0.0102826897054911	2	1	NaN	5003173.2146531	NaN	5003174.1980455	5003174.71458291
74	18	0	0	90	36.1581920903955	36.241610738255	9	0.30002288416028	2	1	2	NaN	1	5	0.142757223351999	0	1	NaN	159	3	33	2	120	220	320	NaN	520	0.01042147167027	1	1	NaN	5003175.5482053	NaN	5003176.5315948	5003177.04815573
74	18	0	0	90	36.1581920903955	36.241610738255	13	0.433366388231516	2	11	3	NaN	2	4	0.142757223351999	0	1	NaN	160	3	34	2	120	220	320	NaN	520	0.0103747751563787	2	1	NaN	5003177.8650939	NaN	5003178.8485213	5003179.36504432
74	18	0	0	90	36.1581920903955	36.241610738255	8	0.266687008142471	2	11	1	NaN	2	5	0.142757223351999	0	1	NaN	161	3	35	2	120	220	320	NaN	520	1.15063857100904	2	1	NaN	5003180.1818621	NaN	5003181.1654381	5003181.68194183
74	18	0	0	90	36.1581920903955	36.241610738255	24	0.800061024427414	2	9	2	NaN	2	3	0.142757223351999	0	1	NaN	162	3	36	2	120	220	320	NaN	520	0.0103748757392168	2	1	NaN	5003183.6489966	NaN	5003184.6323949	5003185.14895402
74	18	0	0	90	36.1581920903955	36.241610738255	21	0.700053396373987	2	1	5	NaN	1	5	0.142757223351999	0	1	NaN	163	3	37	2	120	220	320	NaN	520	0.0104363178834319	2	0	NaN	5003185.9659855	NaN	5003186.949294	5003187.46583928
74	18	0	0	90	36.1581920903955	36.241610738255	15	0.500038140267134	2	11	5	NaN	2	5	0.142757223351999	0	1	NaN	164	3	38	2	120	220	320	NaN	520	1.36140883807093	2	1	NaN	5003188.2827527	NaN	5003189.2662041	5003189.78274676
74	18	0	0	90	36.1581920903955	36.241610738255	24	0.800061024427414	2	9	5	NaN	2	4	0.142757223351999	0	1	NaN	165	3	39	2	120	220	320	NaN	520	0.0104717230424285	2	1	NaN	5003191.949897	NaN	5003192.9332154	5003193.44977958
74	18	0	0	90	36.1581920903955	36.241610738255	18	0.60004576832056	2	4	3	NaN	1	3	0.142757223351999	0	1	NaN	166	3	40	2	120	220	320	NaN	520	0.0104168234393001	1	1	NaN	5003194.2833941	NaN	5003195.2668075	5003195.78333548
74	18	0	0	90	36.1581920903955	36.241610738255	11	0.366694636195898	2	9	5	NaN	2	5	0.142757223351999	0	1	NaN	167	3	41	2	120	220	320	NaN	520	0.0104089714586735	2	1	NaN	5003196.6002713	NaN	5003197.5836823	5003198.10022773
74	18	0	0	90	36.1581920903955	36.241610738255	6	0.200015256106854	2	8	6	NaN	2	3	0.142757223351999	0	1	NaN	168	3	42	2	120	220	320	NaN	520	0.0103406328707933	2	1	NaN	5003198.9172598	NaN	5003199.9006049	5003200.41711887
74	18	0	0	90	36.1581920903955	36.241610738255	14	0.466702264249325	2	8	1	NaN	2	5	0.142757223351999	0	1	NaN	169	3	43	2	120	220	320	NaN	520	0.0103926239535213	2	1	NaN	5003201.2340785	NaN	5003202.2174721	5003202.73403738
74	18	0	0	90	36.1581920903955	36.241610738255	12	0.400030512213707	2	1	6	NaN	1	4	0.142757223351999	0	1	NaN	170	3	44	2	120	220	320	NaN	520	0.0104012237861753	2	0	NaN	5003203.5509799	NaN	5003204.5343783	5003205.05091238
74	18	0	0	90	36.1581920903955	36.241610738255	19	0.633381644338369	2	2	1	NaN	1	3	0.142757223351999	0	1	NaN	171	3	45	2	120	220	320	NaN	520	0.344472765922546	2	0	NaN	5003205.8677313	NaN	5003206.8512619	5003207.36779923
74	18	0	0	90	36.1581920903955	36.241610738255	24	0.800061024427414	2	4	3	NaN	1	4	0.142757223351999	0	1	NaN	172	3	46	2	120	220	320	NaN	520	0.413494523614645	1	1	NaN	5003208.5347985	NaN	5003209.5181698	5003210.03473608
74	18	0	0	90	36.1581920903955	36.241610738255	11	0.366694636195898	2	9	2	NaN	2	4	0.142757223351999	0	1	NaN	173	3	47	2	120	220	320	NaN	520	0.010409670881927	2	1	NaN	5003211.2682451	NaN	5003212.2517913	5003212.76833703
74	18	0	0	90	36.1581920903955	36.241610738255	13	0.433366388231516	2	10	5	NaN	2	3	0.142757223351999	0	1	NaN	174	3	48	2	120	220	320	NaN	520	1.16319302283227	2	1	NaN	5003213.5853397	NaN	5003214.5686759	5003215.08523298
74	18	0	0	90	36.1581920903955	36.241610738255	19	0.633381644338369	2	2	5	NaN	1	4	0.142757223351999	0	1	NaN	175	3	49	2	120	220	320	NaN	520	0.010424617677927	2	0	NaN	5003217.0522895	NaN	5003218.0356941	5003218.55223338
74	18	0	0	90	36.1581920903955	36.241610738255	24	0.800061024427414	2	11	5	NaN	2	3	0.142757223351999	0	1	NaN	176	3	50	2	120	220	320	NaN	520	0.0103927236050367	2	1	NaN	5003219.4858301	NaN	5003220.4692811	5003220.98581298
74	18	0	0	90	36.1581920903955	36.241610738255	12	0.400030512213707	2	10	3	NaN	2	3	0.142757223351999	0	1	NaN	177	3	51	2	120	220	320	NaN	520	0.0104104708880186	2	1	NaN	5003222.0027628	NaN	5003222.9862251	5003223.50273073
74	18	0	0	90	36.1581920903955	36.241610738255	17	0.566709892302752	2	1	5	NaN	1	3	0.142757223351999	0	1	NaN	178	3	52	2	120	220	320	NaN	520	0.0104229710996151	2	0	NaN	5003224.3363611	NaN	5003225.3197323	5003225.83629533
74	18	0	0	90	36.1581920903955	36.241610738255	23	0.766725148409605	2	3	2	NaN	1	3	0.142757223351999	0	1	NaN	179	3	53	2	120	220	320	NaN	520	0.01040362380445	1	1	NaN	5003226.653228	NaN	5003227.6366334	5003228.15319248
74	18	0	0	90	36.1581920903955	36.241610738255	11	0.366694636195898	2	7	3	NaN	2	3	0.142757223351999	0	1	NaN	180	3	54	2	120	220	320	NaN	520	0.113626918755472	1	0	NaN	5003228.9867743	NaN	5003229.9702646	5003230.48674438
74	18	0	0	90	36.1581920903955	36.241610738255	8	0.266687008142471	2	8	2	NaN	2	3	0.142757223351999	0	1	NaN	181	3	55	2	120	220	320	NaN	520	0.0104250181466341	2	1	NaN	5003231.6369603	NaN	5003232.6204628	5003233.13700818
74	18	0	0	90	36.1581920903955	36.241610738255	9	0.30002288416028	2	10	4	NaN	2	3	0.142757223351999	0	1	NaN	182	3	56	2	120	220	320	NaN	520	0.0104076229035854	2	1	NaN	5003233.9539807	NaN	5003234.9373555	5003235.45390108
74	18	0	0	90	36.1581920903955	36.241610738255	11	0.366694636195898	2	7	5	NaN	2	5	0.142757223351999	0	1	NaN	183	3	57	2	120	220	320	NaN	520	0.010358227416873	2	1	NaN	5003236.2875256	NaN	5003237.2709203	5003237.78746477
74	18	0	0	90	36.1581920903955	36.241610738255	8	0.266687008142471	2	1	1	NaN	1	5	0.142757223351999	0	1	NaN	184	3	58	2	120	220	320	NaN	520	0.010424017906189	1	1	NaN	5003238.604279	NaN	5003239.5878031	5003240.10436118
74	18	0	0	90	36.1581920903955	36.241610738255	10	0.333358760178089	2	7	6	NaN	2	3	0.142757223351999	0	1	NaN	185	3	59	2	120	220	320	NaN	520	0.0104240719228983	2	1	NaN	5003240.9212969	NaN	5003241.9047104	5003242.42125813
74	18	0	0	90	36.1581920903955	36.241610738255	17	0.566709892302752	2	1	3	NaN	1	5	0.142757223351999	0	1	NaN	186	3	60	2	120	220	320	NaN	520	0.1815380230546	1	1	NaN	5003243.6548945	NaN	5003244.6383189	5003245.15485578
74	18	0	0	90	36.1581920903955	36.241610738255	7	0.233351132124662	2	1	5	NaN	1	3	0.142757223351999	0	1	NaN	187	3	61	2	120	220	320	NaN	520	1.10516891814768	2	0	NaN	5003246.1551615	NaN	5003247.1385547	5003247.65510308
74	18	0	0	90	36.1581920903955	36.241610738255	16	0.533374016284943	2	11	3	NaN	2	3	0.142757223351999	0	1	NaN	188	3	62	2	120	220	320	NaN	520	0.0103923240676522	2	1	NaN	5003249.5721637	NaN	5003250.5555632	5003251.07211308
74	18	0	0	90	36.1581920903955	36.241610738255	21	0.700053396373987	2	11	5	NaN	2	5	0.142757223351999	0	1	NaN	189	3	63	2	120	220	320	NaN	520	0.219110918231308	2	1	NaN	5003251.9057088	NaN	5003252.8891277	5003253.40567148
74	18	0	0	90	36.1581920903955	36.241610738255	11	0.366694636195898	2	10	5	NaN	2	4	0.142757223351999	0	1	NaN	190	4	1	2	120	220	320	NaN	520	1.48443507123739	2	1	NaN	5003270.4242019	NaN	5003271.4076238	5003271.92416253
74	18	0	0	90	36.1581920903955	36.241610738255	25	0.833396900445223	2	8	1	NaN	2	5	0.142757223351999	0	1	NaN	191	4	2	2	120	220	320	NaN	520	0.0103909233585	2	1	NaN	5003274.3079575	NaN	5003275.291336	5003275.80788518
74	18	0	0	90	36.1581920903955	36.241610738255	13	0.433366388231516	2	10	6	NaN	2	5	0.142757223351999	0	1	NaN	192	4	3	2	120	220	320	NaN	520	0.0104290181770921	2	1	NaN	5003276.6247078	NaN	5003277.6082337	5003278.12477118
74	18	0	0	90	36.1581920903955	36.241610738255	6	0.200015256106854	2	7	2	NaN	2	3	0.142757223351999	0	1	NaN	193	4	4	2	120	220	320	NaN	520	0.0104052238166332	2	1	NaN	5003278.9417436	NaN	5003279.9251071	5003280.44168018
74	18	0	0	90	36.1581920903955	36.241610738255	19	0.633381644338369	2	6	5	NaN	1	3	0.142757223351999	0	1	NaN	194	4	5	2	120	220	320	NaN	520	0.929941375739872	1	1	NaN	5003281.2586133	NaN	5003282.2420693	5003282.75857342
74	18	0	0	90	36.1581920903955	36.241610738255	19	0.633381644338369	2	10	6	NaN	2	4	0.142757223351999	0	1	NaN	195	4	6	2	120	220	320	NaN	520	0.75288952421397	2	1	NaN	5003284.6756316	NaN	5003285.6590094	5003286.17557438
74	18	0	0	90	36.1581920903955	36.241610738255	24	0.800061024427414	2	12	2	NaN	2	5	0.142757223351999	0	1	NaN	196	4	7	2	120	220	320	NaN	520	0.0104097714647651	2	1	NaN	5003287.7425972	NaN	5003288.7259755	5003289.24256223
74	18	0	0	90	36.1581920903955	36.241610738255	6	0.200015256106854	2	1	1	NaN	1	3	0.142757223351999	0	1	NaN	197	4	8	2	120	220	320	NaN	520	0.0104034235700965	1	1	NaN	5003290.0594812	NaN	5003291.0428873	5003291.55943678
74	18	0	0	90	36.1581920903955	36.241610738255	12	0.400030512213707	2	4	1	NaN	1	5	0.142757223351999	0	1	NaN	198	4	9	2	120	220	320	NaN	520	0.010394724085927	1	1	NaN	5003292.3763952	NaN	5003293.3597794	5003293.87633128
74	18	0	0	90	36.1581920903955	36.241610738255	20	0.666717520356178	2	12	2	NaN	2	3	0.142757223351999	0	1	NaN	199	4	10	2	120	220	320	NaN	520	0.0104437712579966	2	1	NaN	5003295.1099999	NaN	5003296.09338	5003296.60993783
74	18	0	0	90	36.1581920903955	36.241610738255	17	0.566709892302752	2	3	3	NaN	1	5	0.142757223351999	0	1	NaN	200	4	11	2	120	220	320	NaN	520	0.0104375183582306	1	1	NaN	5003297.4269003	NaN	5003298.4102823	5003298.92682748
74	18	0	0	90	36.1581920903955	36.241610738255	12	0.400030512213707	2	12	3	NaN	2	3	0.142757223351999	0	1	NaN	201	4	12	2	120	220	320	NaN	520	0.0104245180264115	2	1	NaN	5003299.7437903	NaN	5003300.7271464	5003301.24371958
74	18	0	0	90	36.1581920903955	36.241610738255	20	0.666717520356178	2	8	4	NaN	2	5	0.142757223351999	0	1	NaN	202	4	13	2	120	220	320	NaN	520	0.0104119712486863	2	1	NaN	5003302.0772297	NaN	5003303.0607394	5003303.57729403
74	18	0	0	90	36.1581920903955	36.241610738255	20	0.666717520356178	2	6	2	NaN	1	3	0.142757223351999	0	1	NaN	203	4	14	2	120	220	320	NaN	520	0.201980323530734	2	0	NaN	5003304.4107883	NaN	5003305.3942985	5003305.91084558
74	18	0	0	90	36.1581920903955	36.241610738255	17	0.566709892302752	2	7	2	NaN	2	3	0.142757223351999	0	1	NaN	204	4	15	2	120	220	320	NaN	520	0.0104118715971708	2	1	NaN	5003306.927816	NaN	5003307.9112213	5003308.42776673
74	18	0	0	90	36.1581920903955	36.241610738255	25	0.833396900445223	2	1	4	NaN	1	4	0.142757223351999	0	1	NaN	205	4	16	2	120	220	320	NaN	520	0.0103314332664013	1	1	NaN	5003309.2613866	NaN	5003310.2447892	5003310.76133577
74	18	0	0	90	36.1581920903955	36.241610738255	0	0	1	4	5	NaN	1	5	0.142757223351999	0	1	NaN	206	4	17	2	110	210	310	NaN	510	0.0104255182668567	1	1	NaN	5003311.5782572	NaN	5003312.5616755	5003313.07822468
74	18	0	0	90	36.1581920903955	36.241610738255	11	0.366694636195898	2	6	5	NaN	1	3	0.142757223351999	0	1	NaN	207	4	18	2	120	220	320	NaN	520	0.0104059716686606	1	1	NaN	5003313.8951741	NaN	5003314.8785607	5003315.39512143
74	18	0	0	90	36.1581920903955	36.241610738255	7	0.233351132124662	2	5	5	NaN	1	3	0.142757223351999	0	1	NaN	208	4	19	2	120	220	320	NaN	520	0.01043301820755	1	1	NaN	5003316.2120704	NaN	5003317.1954643	5003317.71201068
74	18	0	0	90	36.1581920903955	36.241610738255	15	0.500038140267134	2	10	1	NaN	2	4	0.142757223351999	0	1	NaN	209	4	20	2	120	220	320	NaN	520	0.0103954244405031	2	1	NaN	5003318.5289672	NaN	5003319.5123784	5003320.02890988
74	18	0	0	90	36.1581920903955	36.241610738255	15	0.500038140267134	2	5	5	NaN	1	3	0.142757223351999	0	1	NaN	210	4	21	2	120	220	320	NaN	520	0.0104417661204934	1	1	NaN	5003320.862523	NaN	5003321.8458977	5003322.36246863
74	18	0	0	90	36.1581920903955	36.241610738255	25	0.833396900445223	2	12	6	NaN	2	5	0.142757223351999	0	1	NaN	211	4	22	2	120	220	320	NaN	520	0.193132123909891	2	1	NaN	5003323.1794212	NaN	5003324.1628284	5003324.67936848
74	18	0	0	90	36.1581920903955	36.241610738255	21	0.700053396373987	2	5	6	NaN	1	4	0.142757223351999	0	1	NaN	212	4	23	2	120	220	320	NaN	520	0.0103925243020058	1	1	NaN	5003325.6796533	NaN	5003326.6630692	5003327.17962058
74	18	0	0	90	36.1581920903955	36.241610738255	16	0.533374016284943	2	6	1	NaN	1	3	0.142757223351999	0	1	NaN	213	4	24	2	120	220	320	NaN	520	0.0103911235928535	1	1	NaN	5003327.9965045	NaN	5003328.9799621	5003329.49651598
74	18	0	0	90	36.1581920903955	36.241610738255	13	0.433366388231516	2	1	6	NaN	1	5	0.142757223351999	0	1	NaN	214	4	25	2	120	220	320	NaN	520	0.0103486804291606	1	1	NaN	5003330.3134541	NaN	5003331.2968557	5003331.81340932
74	18	0	0	90	36.1581920903955	36.241610738255	25	0.833396900445223	2	5	4	NaN	1	3	0.142757223351999	0	1	NaN	215	4	26	2	120	220	320	NaN	520	0.0104102240875363	1	1	NaN	5003332.630365	NaN	5003333.6137418	5003334.13030578
74	18	0	0	90	36.1581920903955	36.241610738255	7	0.233351132124662	2	1	4	NaN	1	4	0.142757223351999	0	1	NaN	216	4	27	2	120	220	320	NaN	520	0.0104202181100845	1	1	NaN	5003334.947283	NaN	5003335.9306485	5003336.44719828
74	18	0	0	90	36.1581920903955	36.241610738255	21	0.700053396373987	2	2	2	NaN	1	5	0.142757223351999	0	1	NaN	217	4	28	2	120	220	320	NaN	520	0.0103891231119633	1	1	NaN	5003337.2641705	NaN	5003338.2475608	5003338.76408408
74	18	0	0	90	36.1581920903955	36.241610738255	25	0.833396900445223	2	2	3	NaN	1	3	0.142757223351999	0	1	NaN	218	4	29	2	120	220	320	NaN	520	0.0104015236720443	1	1	NaN	5003339.5976903	NaN	5003340.5811041	5003341.09765878
74	18	0	0	90	36.1581920903955	36.241610738255	0	0	1	9	1	NaN	2	3	0.142757223351999	0	1	NaN	219	4	30	2	110	210	310	NaN	510	0.0104073714464903	2	1	NaN	5003341.9146357	NaN	5003342.8979913	5003343.41454603
74	18	0	0	90	36.1581920903955	36.241610738255	13	0.433366388231516	2	6	5	NaN	1	4	0.142757223351999	0	1	NaN	220	4	31	2	120	220	320	NaN	520	0.0104098711162806	1	1	NaN	5003344.2314883	NaN	5003345.2149104	5003345.73144713
74	18	0	0	90	36.1581920903955	36.241610738255	22	0.733389272391796	2	12	2	NaN	2	4	0.142757223351999	0	1	NaN	221	4	32	2	120	220	320	NaN	520	0.0103959236294031	2	1	NaN	5003346.5483905	NaN	5003347.5318081	5003348.04833948
74	18	0	0	90	36.1581920903955	36.241610738255	25	0.833396900445223	2	6	6	NaN	1	5	0.142757223351999	0	1	NaN	222	4	33	2	120	220	320	NaN	520	1.11566971894354	1	1	NaN	5003348.865229	NaN	5003349.8486697	5003350.36522828
74	18	0	0	90	36.1581920903955	36.241610738255	10	0.333358760178089	2	4	4	NaN	1	5	0.142757223351999	0	1	NaN	223	4	34	2	120	220	320	NaN	520	0.0103817759081721	1	1	NaN	5003352.2988341	NaN	5003353.2823891	5003353.79890132
74	18	0	0	90	36.1581920903955	36.241610738255	9	0.30002288416028	2	9	1	NaN	2	3	0.142757223351999	0	1	NaN	224	4	35	2	120	220	320	NaN	520	0.0103878239169717	2	1	NaN	5003354.615714	NaN	5003355.5992428	5003356.11580598
74	18	0	0	90	36.1581920903955	36.241610738255	23	0.766725148409605	2	3	3	NaN	1	3	0.142757223351999	0	1	NaN	225	4	36	2	120	220	320	NaN	520	0.0104222716763616	1	1	NaN	5003356.9327555	NaN	5003357.9161589	5003358.43269013
74	18	0	0	90	36.1581920903955	36.241610738255	19	0.633381644338369	2	7	3	NaN	2	5	0.142757223351999	0	1	NaN	226	4	37	2	120	220	320	NaN	520	1.07505710888654	1	0	NaN	5003359.2496325	NaN	5003360.2329371	5003360.74958539
74	18	0	0	90	36.1581920903955	36.241610738255	14	0.466702264249325	2	9	1	NaN	2	3	0.142757223351999	0	1	NaN	227	4	38	2	120	220	320	NaN	520	0.0104257175698876	2	1	NaN	5003362.63333	NaN	5003363.6167137	5003364.13326128
74	18	0	0	90	36.1581920903955	36.241610738255	24	0.800061024427414	2	6	1	NaN	1	4	0.142757223351999	0	1	NaN	228	4	39	2	120	220	320	NaN	520	0.0104237180203199	1	1	NaN	5003364.9668719	NaN	5003365.950267	5003366.46682048
74	18	0	0	90	36.1581920903955	36.241610738255	20	0.666717520356178	2	4	1	NaN	1	3	0.142757223351999	0	1	NaN	229	4	40	2	120	220	320	NaN	520	1.48073197156191	2	0	NaN	5003367.2835826	NaN	5003368.267164	5003368.78371213
74	18	0	0	90	36.1581920903955	36.241610738255	19	0.633381644338369	2	4	6	NaN	1	4	0.142757223351999	0	1	NaN	230	4	41	2	120	220	320	NaN	520	0.0104105714708567	1	1	NaN	5003371.0841344	NaN	5003372.0675499	5003372.58408993
74	18	0	0	90	36.1581920903955	36.241610738255	17	0.566709892302752	2	6	5	NaN	1	5	0.142757223351999	0	1	NaN	231	4	42	2	120	220	320	NaN	520	0.0103913238272071	1	1	NaN	5003373.550937	NaN	5003374.5344546	5003375.05099928
74	18	0	0	90	36.1581920903955	36.241610738255	19	0.633381644338369	2	5	5	NaN	1	3	0.142757223351999	0	1	NaN	232	4	43	2	120	220	320	NaN	520	0.832576971501112	1	1	NaN	5003375.8679022	NaN	5003376.8513474	5003377.36788943
74	18	0	0	90	36.1581920903955	36.241610738255	23	0.766725148409605	2	9	5	NaN	2	4	0.142757223351999	0	1	NaN	233	4	44	2	120	220	320	NaN	520	0.0103973243385553	2	1	NaN	5003379.0182792	NaN	5003380.001641	5003380.51820518
74	18	0	0	90	36.1581920903955	36.241610738255	8	0.266687008142471	2	2	1	NaN	1	4	0.142757223351999	0	1	NaN	234	4	45	2	120	220	320	NaN	520	0.0103935236111283	1	1	NaN	5003381.3351446	NaN	5003382.3185507	5003382.83510748
74	18	0	0	90	36.1581920903955	36.241610738255	12	0.400030512213707	2	9	5	NaN	2	5	0.142757223351999	0	1	NaN	235	4	46	2	120	220	320	NaN	520	0.0103942230343819	2	1	NaN	5003383.6520549	NaN	5003384.6354264	5003385.15199108
74	18	0	0	90	36.1581920903955	36.241610738255	10	0.333358760178089	2	12	6	NaN	2	5	0.142757223351999	0	1	NaN	236	4	47	2	120	220	320	NaN	520	0.0103774759918451	2	1	NaN	5003385.9690359	NaN	5003386.9523763	5003387.46889302
74	18	0	0	90	36.1581920903955	36.241610738255	6	0.200015256106854	2	1	4	NaN	1	5	0.142757223351999	0	1	NaN	237	4	48	2	120	220	320	NaN	520	0.0103926239535213	1	1	NaN	5003388.28571	NaN	5003389.2692302	5003389.78578448
74	18	0	0	90	36.1581920903955	36.241610738255	20	0.666717520356178	2	4	2	NaN	1	3	0.142757223351999	0	1	NaN	238	4	49	2	120	220	320	NaN	520	0.0104423658922315	1	1	NaN	5003390.6027305	NaN	5003391.5861324	5003392.10267593
74	18	0	0	90	36.1581920903955	36.241610738255	15	0.500038140267134	2	9	6	NaN	2	4	0.142757223351999	0	1	NaN	239	4	50	2	120	220	320	NaN	520	0.0104274181649089	2	1	NaN	5003392.9195514	NaN	5003393.903008	5003394.41958878
74	18	0	0	90	36.1581920903955	36.241610738255	14	0.466702264249325	2	11	3	NaN	2	5	0.142757223351999	0	1	NaN	240	4	51	2	120	220	320	NaN	520	0.0104254717007279	2	1	NaN	5003395.2531788	NaN	5003396.2365859	5003396.75314193
74	18	0	0	90	36.1581920903955	36.241610738255	14	0.466702264249325	2	10	5	NaN	2	5	0.142757223351999	0	1	NaN	241	4	52	2	120	220	320	NaN	520	0.7947166711092	2	1	NaN	5003397.570069	NaN	5003398.5534754	5003399.07002923
74	18	0	0	90	36.1581920903955	36.241610738255	12	0.400030512213707	2	3	1	NaN	1	3	0.142757223351999	0	1	NaN	242	4	53	2	120	220	320	NaN	520	0.0104080708697438	2	0	NaN	5003400.6870501	NaN	5003401.6704891	5003402.18700273
74	18	0	0	90	36.1581920903955	36.241610738255	18	0.60004576832056	2	7	1	NaN	2	3	0.142757223351999	0	1	NaN	243	4	54	2	120	220	320	NaN	520	0.0104041239246726	2	1	NaN	5003403.0206253	NaN	5003404.0040368	5003404.52057008
74	18	0	0	90	36.1581920903955	36.241610738255	13	0.433366388231516	2	9	2	NaN	2	3	0.142757223351999	0	1	NaN	244	4	55	2	120	220	320	NaN	520	0.947238571941853	2	1	NaN	5003405.3375087	NaN	5003406.320964	5003406.83746343
74	18	0	0	90	36.1581920903955	36.241610738255	23	0.766725148409605	2	2	6	NaN	1	3	0.142757223351999	0	1	NaN	245	4	56	2	120	220	320	NaN	520	0.0104234181344509	2	0	NaN	5003408.5878893	NaN	5003409.5712541	5003410.08778158
74	18	0	0	90	36.1581920903955	36.241610738255	8	0.266687008142471	2	6	5	NaN	1	5	0.142757223351999	0	1	NaN	246	4	57	2	120	220	320	NaN	520	0.0104102715849876	1	1	NaN	5003410.904593	NaN	5003411.8881381	5003412.40468423
74	18	0	0	90	36.1581920903955	36.241610738255	21	0.700053396373987	2	7	3	NaN	2	3	0.142757223351999	0	1	NaN	247	4	58	2	120	220	320	NaN	520	0.0104034235700965	2	1	NaN	5003413.2382991	NaN	5003414.2216819	5003414.73824548
74	18	0	0	90	36.1581920903955	36.241610738255	23	0.766725148409605	2	12	3	NaN	2	5	0.142757223351999	0	1	NaN	248	4	59	2	120	220	320	NaN	520	0.010409670881927	2	1	NaN	5003415.5551737	NaN	5003416.5385931	5003417.05513753
74	18	0	0	90	36.1581920903955	36.241610738255	15	0.500038140267134	2	12	3	NaN	2	5	0.142757223351999	0	1	NaN	249	4	60	2	120	220	320	NaN	520	0.0103995241224766	2	1	NaN	5003417.87206	NaN	5003418.8554989	5003419.37203958
74	18	0	0	90	36.1581920903955	36.241610738255	17	0.566709892302752	2	8	2	NaN	2	4	0.142757223351999	0	1	NaN	250	4	61	2	120	220	320	NaN	520	0.0104113714769483	2	1	NaN	5003420.4222107	NaN	5003421.405728	5003421.92228893
74	18	0	0	90	36.1581920903955	36.241610738255	10	0.333358760178089	2	11	6	NaN	2	5	0.142757223351999	0	1	NaN	251	4	62	2	120	220	320	NaN	520	0.0104024233296514	2	1	NaN	5003422.7559105	NaN	5003423.7393181	5003424.25584368
74	18	0	0	90	36.1581920903955	36.241610738255	18	0.60004576832056	2	3	5	NaN	1	5	0.142757223351999	0	1	NaN	252	4	63	2	120	220	320	NaN	520	0.0104064708575606	1	1	NaN	5003425.072798	NaN	5003426.0562016	5003426.57274823
74	18	0	0	90	36.1581920903955	36.241610738255	7	0.233351132124662	2	3	6	NaN	1	3	0.142757223351999	0	1	NaN	253	5	1	2	120	220	320	NaN	520	0.698072575964034	2	0	NaN	5003434.5070708	NaN	5003435.4904549	5003436.00700832
74	18	0	0	90	36.1581920903955	36.241610738255	15	0.500038140267134	2	2	5	NaN	1	3	0.142757223351999	0	1	NaN	254	5	2	2	120	220	320	NaN	520	1.31311677116901	2	0	NaN	5003437.5072352	NaN	5003438.4907643	5003439.00729803
74	18	0	0	90	36.1581920903955	36.241610738255	22	0.733389272391796	2	5	5	NaN	1	3	0.142757223351999	0	1	NaN	255	5	3	2	120	220	320	NaN	520	0.010409471578896	2	0	NaN	5003441.1743707	NaN	5003442.1577926	5003442.67433603
74	18	0	0	90	36.1581920903955	36.241610738255	21	0.700053396373987	2	9	4	NaN	2	3	0.142757223351999	0	1	NaN	256	5	4	2	120	220	320	NaN	520	0.0104059241712093	1	0	NaN	5003443.4911492	NaN	5003444.4746743	5003444.99122878
74	18	0	0	90	36.1581920903955	36.241610738255	14	0.466702264249325	2	9	5	NaN	2	5	0.142757223351999	0	1	NaN	257	5	5	2	120	220	320	NaN	520	0.010412871837616	2	1	NaN	5003445.8248356	NaN	5003446.8082306	5003447.32479313
74	18	0	0	90	36.1581920903955	36.241610738255	0	0	1	10	4	NaN	2	4	0.142757223351999	0	1	NaN	258	5	6	2	110	210	310	NaN	510	0.654821371659636	2	1	NaN	5003448.141718	NaN	5003449.1251282	5003449.64167863
74	18	0	0	90	36.1581920903955	36.241610738255	21	0.700053396373987	2	6	4	NaN	1	5	0.142757223351999	0	1	NaN	259	5	7	2	120	220	320	NaN	520	0.0104378182440996	1	1	NaN	5003451.1086938	NaN	5003452.0921471	5003452.60863808
74	18	0	0	90	36.1581920903955	36.241610738255	22	0.733389272391796	2	6	6	NaN	1	5	0.142757223351999	0	1	NaN	260	5	8	2	120	220	320	NaN	520	0.0103931240737438	1	1	NaN	5003453.4255969	NaN	5003454.4089905	5003454.92554258
74	18	0	0	90	36.1581920903955	36.241610738255	12	0.400030512213707	2	2	3	NaN	1	4	0.142757223351999	0	1	NaN	261	5	9	2	120	220	320	NaN	520	1.78949637524784	1	1	NaN	5003455.7591533	NaN	5003456.7425578	5003457.25909682
74	18	0	0	90	36.1581920903955	36.241610738255	25	0.833396900445223	2	5	3	NaN	1	3	0.142757223351999	0	1	NaN	262	5	10	2	120	220	320	NaN	520	1.08916238509119	2	0	NaN	5003459.8595693	NaN	5003460.842949	5003461.35951312
74	18	0	0	90	36.1581920903955	36.241610738255	14	0.466702264249325	2	4	6	NaN	1	3	0.142757223351999	0	1	NaN	263	5	11	2	120	220	320	NaN	520	0.0103901233524084	1	1	NaN	5003463.2598893	NaN	5003464.2432994	5003464.75984608
74	18	0	0	90	36.1581920903955	36.241610738255	16	0.533374016284943	2	10	5	NaN	2	5	0.142757223351999	0	1	NaN	264	5	12	2	120	220	320	NaN	520	0.0102409478276968	2	1	NaN	5003465.5934643	NaN	5003466.576853	5003467.09341775
74	18	0	0	90	36.1581920903955	36.241610738255	12	0.400030512213707	2	4	5	NaN	1	4	0.142757223351999	0	1	NaN	265	5	13	2	120	220	320	NaN	520	0.526295371353626	1	1	NaN	5003467.9103311	NaN	5003468.893752	5003469.41030403
74	18	0	0	90	36.1581920903955	36.241610738255	21	0.700053396373987	2	1	6	NaN	1	5	0.142757223351999	0	1	NaN	266	5	14	2	120	220	320	NaN	520	0.0103883752599359	2	0	NaN	5003470.7440126	NaN	5003471.7273616	5003472.24392182
74	18	0	0	90	36.1581920903955	36.241610738255	24	0.800061024427414	2	8	3	NaN	2	4	0.142757223351999	0	1	NaN	267	5	15	2	120	220	320	NaN	520	0.0104063712060452	2	1	NaN	5003473.0774898	NaN	5003474.0609351	5003474.57748233
74	18	0	0	90	36.1581920903955	36.241610738255	17	0.566709892302752	2	5	3	NaN	1	4	0.142757223351999	0	1	NaN	268	5	16	2	120	220	320	NaN	520	0.0104003231972456	1	1	NaN	5003475.3944206	NaN	5003476.377811	5003476.89436668
74	18	0	0	90	36.1581920903955	36.241610738255	20	0.666717520356178	2	7	4	NaN	2	3	0.142757223351999	0	1	NaN	269	5	17	2	120	220	320	NaN	520	0.010424617677927	2	1	NaN	5003477.7113274	NaN	5003478.6947095	5003479.21126118
74	18	0	0	90	36.1581920903955	36.241610738255	11	0.366694636195898	2	4	2	NaN	1	4	0.142757223351999	0	1	NaN	270	5	18	2	120	220	320	NaN	520	0.0103784762322903	1	1	NaN	5003480.0282118	NaN	5003481.0116283	5003481.52816952
74	18	0	0	90	36.1581920903955	36.241610738255	7	0.233351132124662	2	9	3	NaN	2	4	0.142757223351999	0	1	NaN	271	5	19	2	120	220	320	NaN	520	0.01043301820755	2	1	NaN	5003482.8117322	NaN	5003483.7952062	5003484.31176298
74	18	0	0	90	36.1581920903955	36.241610738255	17	0.566709892302752	2	2	1	NaN	1	4	0.142757223351999	0	1	NaN	272	5	20	2	120	220	320	NaN	520	0.0104219177737832	2	0	NaN	5003485.1287195	NaN	5003486.1121156	5003486.62865688
74	18	0	0	90	36.1581920903955	36.241610738255	14	0.466702264249325	2	1	1	NaN	1	5	0.142757223351999	0	1	NaN	273	5	21	2	120	220	320	NaN	520	0.0104834083467722	1	1	NaN	5003487.4623021	NaN	5003488.4455679	5003488.96221769
74	18	0	0	90	36.1581920903955	36.241610738255	13	0.433366388231516	2	11	4	NaN	2	3	0.142757223351999	0	1	NaN	274	5	22	2	120	220	320	NaN	520	0.0103778755292296	2	1	NaN	5003489.7958467	NaN	5003490.7792731	5003491.29579372
74	18	0	0	90	36.1581920903955	36.241610738255	10	0.333358760178089	2	8	4	NaN	2	4	0.142757223351999	0	1	NaN	275	5	23	2	120	220	320	NaN	520	0.0104241175577044	2	1	NaN	5003492.1127422	NaN	5003493.0961372	5003493.61267958
74	18	0	0	90	36.1581920903955	36.241610738255	0	0	1	2	5	NaN	1	4	0.142757223351999	0	1	NaN	276	5	24	2	110	210	310	NaN	510	0.935120224021375	2	0	NaN	5003494.4296466	NaN	5003495.4130908	5003495.92958228
74	18	0	0	90	36.1581920903955	36.241610738255	6	0.200015256106854	2	3	4	NaN	1	5	0.142757223351999	0	1	NaN	277	5	25	2	120	220	320	NaN	520	0.0104078715667129	2	0	NaN	5003497.6799799	NaN	5003498.6633583	5003499.17990123
74	18	0	0	90	36.1581920903955	36.241610738255	21	0.700053396373987	2	2	2	NaN	1	3	0.142757223351999	0	1	NaN	278	5	26	2	120	220	320	NaN	520	0.0103908749297261	1	1	NaN	5003499.9968477	NaN	5003500.9802602	5003501.49680492
74	18	0	0	90	36.1581920903955	36.241610738255	24	0.800061024427414	2	2	6	NaN	1	5	0.142757223351999	0	1	NaN	279	5	27	2	120	220	320	NaN	520	0.0104073705151677	1	1	NaN	5003502.330394	NaN	5003503.3138122	5003503.83036693
74	18	0	0	90	36.1581920903955	36.241610738255	17	0.566709892302752	2	9	5	NaN	2	3	0.142757223351999	0	1	NaN	280	5	28	2	120	220	320	NaN	520	0.0104249184951186	2	1	NaN	5003504.6473022	NaN	5003505.63071	5003506.14725128
74	18	0	0	90	36.1581920903955	36.241610738255	24	0.800061024427414	2	2	4	NaN	1	4	0.142757223351999	0	1	NaN	281	5	29	2	120	220	320	NaN	520	0.010285290889442	1	1	NaN	5003506.9640669	NaN	5003507.9475972	5003508.46415391
74	18	0	0	90	36.1581920903955	36.241610738255	0	0	1	3	2	NaN	1	4	0.142757223351999	0	1	NaN	282	5	30	2	110	210	310	NaN	510	0.010391223244369	1	1	NaN	5003509.2810699	NaN	5003510.2645009	5003510.78106448
74	18	0	0	90	36.1581920903955	36.241610738255	20	0.666717520356178	2	11	4	NaN	2	5	0.142757223351999	0	1	NaN	283	5	31	2	120	220	320	NaN	520	0.0104278177022934	2	1	NaN	5003511.6146565	NaN	5003512.5980547	5003513.11460058
74	18	0	0	90	36.1581920903955	36.241610738255	17	0.566709892302752	2	4	4	NaN	1	4	0.142757223351999	0	1	NaN	284	5	32	2	120	220	320	NaN	520	0.0103931231424212	1	1	NaN	5003514.3315614	NaN	5003515.315006	5003515.83154628
74	18	0	0	90	36.1581920903955	36.241610738255	22	0.733389272391796	2	7	1	NaN	2	4	0.142757223351999	0	1	NaN	285	5	33	2	120	220	320	NaN	520	0.0104817720130086	2	1	NaN	5003516.6651562	NaN	5003517.6485333	5003518.16510123
74	18	0	0	90	36.1581920903955	36.241610738255	16	0.533374016284943	2	12	2	NaN	2	5	0.142757223351999	0	1	NaN	286	5	34	2	120	220	320	NaN	520	0.010445018298924	2	1	NaN	5003519.0320334	NaN	5003520.0153388	5003520.53200718
74	18	0	0	90	36.1581920903955	36.241610738255	9	0.30002288416028	2	7	4	NaN	2	5	0.142757223351999	0	1	NaN	287	5	35	2	120	220	320	NaN	520	0.177831971086562	2	1	NaN	5003521.4985564	NaN	5003522.4823628	5003522.99892253
74	18	0	0	90	36.1581920903955	36.241610738255	9	0.30002288416028	2	11	2	NaN	2	5	0.142757223351999	0	1	NaN	288	5	36	2	120	220	320	NaN	520	0.010437523946166	2	1	NaN	5003523.9825703	NaN	5003524.9659317	5003525.48249388
74	18	0	0	90	36.1581920903955	36.241610738255	20	0.666717520356178	2	10	3	NaN	2	3	0.142757223351999	0	1	NaN	289	5	37	2	120	220	320	NaN	520	0.0103927236050367	2	1	NaN	5003526.2994243	NaN	5003527.2828434	5003527.79939468
74	18	0	0	90	36.1581920903955	36.241610738255	12	0.400030512213707	2	8	2	NaN	2	5	0.142757223351999	0	1	NaN	290	5	38	2	120	220	320	NaN	520	0.0103908237069845	2	1	NaN	5003528.6162104	NaN	5003529.5997491	5003530.11627998
74	18	0	0	90	36.1581920903955	36.241610738255	24	0.800061024427414	2	10	4	NaN	2	3	0.142757223351999	0	1	NaN	291	5	39	2	120	220	320	NaN	520	0.010384775698185	2	1	NaN	5003530.9331049	NaN	5003531.9166646	5003532.43318372
74	18	0	0	90	36.1581920903955	36.241610738255	19	0.633381644338369	2	7	1	NaN	2	4	0.142757223351999	0	1	NaN	292	5	40	2	120	220	320	NaN	520	0.21901782322675	2	1	NaN	5003533.2500054	NaN	5003534.2335171	5003534.75007588
74	18	0	0	90	36.1581920903955	36.241610738255	7	0.233351132124662	2	3	4	NaN	1	5	0.142757223351999	0	1	NaN	293	5	41	2	120	220	320	NaN	520	0.0104111721739173	1	1	NaN	5003535.7837098	NaN	5003536.7671152	5003537.28365093
74	18	0	0	90	36.1581920903955	36.241610738255	15	0.500038140267134	2	8	5	NaN	2	4	0.142757223351999	0	1	NaN	294	5	42	2	120	220	320	NaN	520	0.0104112708941102	2	1	NaN	5003538.1006895	NaN	5003539.0839881	5003539.60054913
74	18	0	0	90	36.1581920903955	36.241610738255	14	0.466702264249325	2	6	2	NaN	1	5	0.142757223351999	0	1	NaN	295	5	43	2	120	220	320	NaN	520	0.0103940237313509	1	1	NaN	5003540.4341315	NaN	5003541.4175704	5003541.93412108
74	18	0	0	90	36.1581920903955	36.241610738255	20	0.666717520356178	2	8	2	NaN	2	4	0.142757223351999	0	1	NaN	296	5	44	2	120	220	320	NaN	520	0.798050775192678	2	1	NaN	5003542.7510547	NaN	5003543.7344672	5003544.25100802
74	18	0	0	90	36.1581920903955	36.241610738255	0	0	1	11	3	NaN	2	5	0.142757223351999	0	1	NaN	297	5	45	2	110	210	310	NaN	510	0.0104071712121367	2	1	NaN	5003545.8680488	NaN	5003546.851437	5003547.36798293
74	18	0	0	90	36.1581920903955	36.241610738255	13	0.433366388231516	2	2	4	NaN	1	3	0.142757223351999	0	1	NaN	298	5	46	2	120	220	320	NaN	520	0.0104044238105416	1	1	NaN	5003548.1848036	NaN	5003549.1683284	5003549.68487548
74	18	0	0	90	36.1581920903955	36.241610738255	7	0.233351132124662	2	2	6	NaN	1	4	0.142757223351999	0	1	NaN	299	5	47	2	120	220	320	NaN	520	0.010419717989862	2	0	NaN	5003550.5184848	NaN	5003551.5018944	5003552.01843548
74	18	0	0	90	36.1581920903955	36.241610738255	20	0.666717520356178	2	9	4	NaN	2	3	0.142757223351999	0	1	NaN	300	5	48	2	120	220	320	NaN	520	0.0103945238515735	1	0	NaN	5003552.9354151	NaN	5003553.9187878	5003554.43535038
74	18	0	0	90	36.1581920903955	36.241610738255	7	0.233351132124662	2	11	2	NaN	2	3	0.142757223351999	0	1	NaN	301	5	49	2	120	220	320	NaN	520	0.0104395179077983	2	1	NaN	5003555.2522999	NaN	5003556.2356978	5003556.75224628
74	18	0	0	90	36.1581920903955	36.241610738255	20	0.666717520356178	2	1	3	NaN	1	3	0.142757223351999	0	1	NaN	302	5	50	2	120	220	320	NaN	520	0.0103877233341336	2	0	NaN	5003557.5691939	NaN	5003558.5525961	5003559.06913528
74	18	0	0	90	36.1581920903955	36.241610738255	20	0.666717520356178	2	2	2	NaN	1	4	0.142757223351999	0	1	NaN	303	5	51	2	120	220	320	NaN	520	0.0103862751275301	1	1	NaN	5003559.9027571	NaN	5003560.8861791	5003561.40270462
74	18	0	0	90	36.1581920903955	36.241610738255	22	0.733389272391796	2	5	3	NaN	1	3	0.142757223351999	0	1	NaN	304	5	52	2	120	220	320	NaN	520	0.0104408664628863	2	0	NaN	5003562.2196518	NaN	5003563.2030559	5003563.71958943
74	18	0	0	90	36.1581920903955	36.241610738255	19	0.633381644338369	2	10	2	NaN	2	5	0.142757223351999	0	1	NaN	305	5	53	2	120	220	320	NaN	520	0.0103818755596876	1	0	NaN	5003564.5366598	NaN	5003565.5199921	5003566.03649852
74	18	0	0	90	36.1581920903955	36.241610738255	21	0.700053396373987	2	10	2	NaN	2	5	0.142757223351999	0	1	NaN	306	5	54	2	120	220	320	NaN	520	0.0102996388450265	1	0	NaN	5003566.8534585	NaN	5003567.8368555	5003568.35339246
74	18	0	0	90	36.1581920903955	36.241610738255	20	0.666717520356178	2	3	4	NaN	1	5	0.142757223351999	0	1	NaN	307	5	55	2	120	220	320	NaN	520	0.0104034235700965	1	1	NaN	5003569.1703108	NaN	5003570.1537407	5003570.67028688
74	18	0	0	90	36.1581920903955	36.241610738255	17	0.566709892302752	2	10	5	NaN	2	4	0.142757223351999	0	1	NaN	308	5	56	2	120	220	320	NaN	520	0.010391223244369	2	1	NaN	5003571.5039018	NaN	5003572.4872835	5003573.00385128
74	18	0	0	90	36.1581920903955	36.241610738255	25	0.833396900445223	2	8	3	NaN	2	5	0.142757223351999	0	1	NaN	309	5	57	2	120	220	320	NaN	520	0.0104377185925841	2	1	NaN	5003573.8375578	NaN	5003574.8208924	5003575.33740918
74	18	0	0	90	36.1581920903955	36.241610738255	19	0.633381644338369	2	12	1	NaN	2	3	0.142757223351999	0	1	NaN	310	5	58	2	120	220	320	NaN	520	0.0103991236537695	2	1	NaN	5003576.1710285	NaN	5003577.1544296	5003577.67096598
74	18	0	0	90	36.1581920903955	36.241610738255	12	0.400030512213707	2	1	6	NaN	1	4	0.142757223351999	0	1	NaN	311	5	59	2	120	220	320	NaN	520	0.980833018198609	2	0	NaN	5003578.4877873	NaN	5003579.4713186	5003579.98787148
74	18	0	0	90	36.1581920903955	36.241610738255	15	0.500038140267134	2	4	5	NaN	1	3	0.142757223351999	0	1	NaN	312	5	60	2	120	220	320	NaN	520	0.0104177761822939	1	1	NaN	5003581.7882922	NaN	5003582.7716409	5003583.28819832
74	18	0	0	90	36.1581920903955	36.241610738255	10	0.333358760178089	2	9	6	NaN	2	4	0.142757223351999	0	1	NaN	313	5	61	2	120	220	320	NaN	520	0.0104359183460474	1	0	NaN	5003584.1051537	NaN	5003585.0885419	5003585.60508108
74	18	0	0	90	36.1581920903955	36.241610738255	19	0.633381644338369	2	4	4	NaN	1	5	0.142757223351999	0	1	NaN	314	5	62	2	120	220	320	NaN	520	0.0103948237374425	1	1	NaN	5003586.4387001	NaN	5003587.4220965	5003587.93864648
74	18	0	0	90	36.1581920903955	36.241610738255	13	0.433366388231516	2	9	3	NaN	2	4	0.142757223351999	0	1	NaN	315	5	63	2	120	220	320	NaN	520	0.0103819752112031	2	1	NaN	5003588.7555875	NaN	5003589.7389987	5003590.25555022
74	18	0	0	90	36.1581920903955	36.241610738255	19	0.633381644338369	2	9	3	NaN	2	5	0.142757223351999	0	1	NaN	316	6	1	2	120	220	320	NaN	520	0.130066871643066	2	1	NaN	5003597.9231395	NaN	5003598.9065829	5003599.42311123
74	18	0	0	90	36.1581920903955	36.241610738255	16	0.533374016284943	2	8	3	NaN	2	5	0.142757223351999	0	1	NaN	317	6	2	2	120	220	320	NaN	520	0.010238547809422	2	1	NaN	5003600.4566272	NaN	5003601.4401771	5003601.95671295
74	18	0	0	90	36.1581920903955	36.241610738255	17	0.566709892302752	2	10	2	NaN	2	5	0.142757223351999	0	1	NaN	318	6	3	2	120	220	320	NaN	520	0.0104059716686606	1	0	NaN	5003602.7736261	NaN	5003603.7570385	5003604.27359443
74	18	0	0	90	36.1581920903955	36.241610738255	13	0.433366388231516	2	7	4	NaN	2	3	0.142757223351999	0	1	NaN	319	6	4	2	120	220	320	NaN	520	0.0417852709069848	2	1	NaN	5003605.1072118	NaN	5003606.0906126	5003606.60715013
74	18	0	0	90	36.1581920903955	36.241610738255	15	0.500038140267134	2	3	6	NaN	1	4	0.142757223351999	0	1	NaN	320	6	5	2	120	220	320	NaN	520	0.0104250181466341	1	1	NaN	5003607.4574392	NaN	5003608.4408463	5003608.95738428
74	18	0	0	90	36.1581920903955	36.241610738255	7	0.233351132124662	2	8	4	NaN	2	4	0.142757223351999	0	1	NaN	321	6	6	2	120	220	320	NaN	520	0.0103925243020058	2	1	NaN	5003609.7742291	NaN	5003610.7577791	5003611.27428188
74	18	0	0	90	36.1581920903955	36.241610738255	10	0.333358760178089	2	5	2	NaN	1	5	0.142757223351999	0	1	NaN	322	6	7	2	120	220	320	NaN	520	0.0103124901652336	1	1	NaN	5003612.0912263	NaN	5003613.0746315	5003613.59118931
74	18	0	0	90	36.1581920903955	36.241610738255	12	0.400030512213707	2	6	5	NaN	1	5	0.142757223351999	0	1	NaN	323	6	8	2	120	220	320	NaN	520	0.0104311238974333	1	1	NaN	5003614.408044	NaN	5003615.3915442	5003615.90807868
74	18	0	0	90	36.1581920903955	36.241610738255	6	0.200015256106854	2	9	4	NaN	2	4	0.142757223351999	0	1	NaN	324	6	9	2	120	220	320	NaN	520	0.0103670274838805	2	1	NaN	5003616.7415718	NaN	5003617.7250821	5003618.24163497
74	18	0	0	90	36.1581920903955	36.241610738255	10	0.333358760178089	2	3	5	NaN	1	3	0.142757223351999	0	1	NaN	325	6	10	2	120	220	320	NaN	520	0.010404771193862	1	1	NaN	5003619.0585906	NaN	5003620.0419742	5003620.55852773
74	18	0	0	90	36.1581920903955	36.241610738255	16	0.533374016284943	2	11	5	NaN	2	4	0.142757223351999	0	1	NaN	326	6	11	2	120	220	320	NaN	520	1.09270999021828	1	0	NaN	5003621.392165	NaN	5003622.3755541	5003622.89210031
74	18	0	0	90	36.1581920903955	36.241610738255	17	0.566709892302752	2	5	4	NaN	1	5	0.142757223351999	0	1	NaN	327	6	12	2	120	220	320	NaN	520	0.0105602610856295	2	0	NaN	5003624.7924864	NaN	5003625.7758948	5003626.29243584
74	18	0	0	90	36.1581920903955	36.241610738255	21	0.700053396373987	2	12	3	NaN	2	3	0.142757223351999	0	1	NaN	328	6	13	2	120	220	320	NaN	520	0.0105244666337967	2	1	NaN	5003627.1092551	NaN	5003628.0927831	5003628.60933283
74	18	0	0	90	36.1581920903955	36.241610738255	9	0.30002288416028	2	6	4	NaN	1	5	0.142757223351999	0	1	NaN	329	6	14	2	120	220	320	NaN	520	1.19454072415829	1	1	NaN	5003629.4261703	NaN	5003630.4096692	5003630.92621738
74	18	0	0	90	36.1581920903955	36.241610738255	21	0.700053396373987	2	6	6	NaN	1	3	0.142757223351999	0	1	NaN	330	6	15	2	120	220	320	NaN	520	0.010314385406673	1	1	NaN	5003632.926615	NaN	5003633.9100245	5003634.42658161
74	18	0	0	90	36.1581920903955	36.241610738255	9	0.30002288416028	2	3	6	NaN	1	4	0.142757223351999	0	1	NaN	331	6	16	2	120	220	320	NaN	520	0.681439471431077	1	1	NaN	5003635.2435158	NaN	5003636.2269182	5003636.74345473
74	18	0	0	90	36.1581920903955	36.241610738255	11	0.366694636195898	2	12	4	NaN	2	5	0.142757223351999	0	1	NaN	332	6	17	2	120	220	320	NaN	520	0.0104225184768438	2	1	NaN	5003638.2271379	NaN	5003639.210558	5003639.72708938
74	18	0	0	90	36.1581920903955	36.241610738255	7	0.233351132124662	2	10	4	NaN	2	4	0.142757223351999	0	1	NaN	333	6	18	2	120	220	320	NaN	520	0.0103986235335469	2	1	NaN	5003640.5607108	NaN	5003641.5440871	5003642.06064658
74	18	0	0	90	36.1581920903955	36.241610738255	7	0.233351132124662	2	9	3	NaN	2	4	0.142757223351999	0	1	NaN	334	6	19	2	120	220	320	NaN	520	0.358913071453571	2	1	NaN	5003642.8942595	NaN	5003643.8776684	5003644.39421673
74	18	0	0	90	36.1581920903955	36.241610738255	8	0.266687008142471	2	7	5	NaN	2	5	0.142757223351999	0	1	NaN	335	6	20	2	120	220	320	NaN	520	0.0104931714013219	2	1	NaN	5003645.5611919	NaN	5003646.5446095	5003647.06113943
74	18	0	0	90	36.1581920903955	36.241610738255	7	0.233351132124662	2	12	1	NaN	2	3	0.142757223351999	0	1	NaN	336	6	21	2	120	220	320	NaN	520	0.0104214176535606	2	1	NaN	5003647.8780834	NaN	5003648.8615002	5003649.37803338
74	18	0	0	90	36.1581920903955	36.241610738255	14	0.466702264249325	2	12	2	NaN	2	5	0.142757223351999	0	1	NaN	337	6	22	2	120	220	320	NaN	520	0.945928581058979	2	1	NaN	5003650.1948454	NaN	5003651.1783723	5003651.69494002
74	18	0	0	90	36.1581920903955	36.241610738255	12	0.400030512213707	2	9	2	NaN	2	5	0.142757223351999	0	1	NaN	338	6	23	2	120	220	320	NaN	520	0.010405071079731	2	1	NaN	5003653.4453037	NaN	5003654.4287025	5003654.94526213
74	18	0	0	90	36.1581920903955	36.241610738255	23	0.766725148409605	2	7	5	NaN	2	5	0.142757223351999	0	1	NaN	339	6	24	2	120	220	320	NaN	520	0.0104259178042412	2	1	NaN	5003655.7622086	NaN	5003656.7455958	5003657.26214928
74	18	0	0	90	36.1581920903955	36.241610738255	16	0.533374016284943	2	4	3	NaN	1	5	0.142757223351999	0	1	NaN	340	6	25	2	120	220	320	NaN	520	0.0104160709306598	1	1	NaN	5003658.0789757	NaN	5003659.0623969	5003659.57905183
74	18	0	0	90	36.1581920903955	36.241610738255	7	0.233351132124662	2	7	6	NaN	2	3	0.142757223351999	0	1	NaN	341	6	26	2	120	220	320	NaN	520	0.0103774759918451	2	1	NaN	5003660.4126454	NaN	5003661.3960625	5003661.91261642
74	18	0	0	90	36.1581920903955	36.241610738255	0	0	1	8	5	NaN	2	5	0.142757223351999	0	1	NaN	342	6	27	2	110	210	310	NaN	510	0.267689271830022	2	1	NaN	5003662.7295475	NaN	5003663.7130078	5003664.22952373
74	18	0	0	90	36.1581920903955	36.241610738255	7	0.233351132124662	2	10	6	NaN	2	3	0.142757223351999	0	1	NaN	343	6	28	2	120	220	320	NaN	520	0.0103278327733278	2	1	NaN	5003665.313083	NaN	5003666.2965241	5003666.81309127
74	18	0	0	90	36.1581920903955	36.241610738255	12	0.400030512213707	2	5	2	NaN	1	3	0.142757223351999	0	1	NaN	344	6	29	2	120	220	320	NaN	520	0.0104021709412336	1	1	NaN	5003667.6467754	NaN	5003668.6301126	5003669.14666113
74	18	0	0	90	36.1581920903955	36.241610738255	0	0	1	6	1	NaN	1	5	0.142757223351999	0	1	NaN	345	6	30	2	110	210	310	NaN	510	0.0103062381967902	1	1	NaN	5003669.9636035	NaN	5003670.9470005	5003671.46354846
74	18	0	0	90	36.1581920903955	36.241610738255	21	0.700053396373987	2	8	1	NaN	2	5	0.142757223351999	0	1	NaN	346	6	31	2	120	220	320	NaN	520	0.0104219177737832	2	1	NaN	5003672.2805064	NaN	5003673.263898	5003673.78043928
74	18	0	0	90	36.1581920903955	36.241610738255	12	0.400030512213707	2	3	4	NaN	1	3	0.142757223351999	0	1	NaN	347	6	32	2	120	220	320	NaN	520	0.0103961238637567	1	1	NaN	5003674.6140816	NaN	5003675.5974518	5003676.11400498
74	18	0	0	90	36.1581920903955	36.241610738255	14	0.466702264249325	2	4	2	NaN	1	3	0.142757223351999	0	1	NaN	348	6	33	2	120	220	320	NaN	520	0.810404838062823	1	1	NaN	5003676.9309613	NaN	5003677.9143679	5003678.43090716
74	18	0	0	90	36.1581920903955	36.241610738255	22	0.733389272391796	2	11	3	NaN	2	3	0.142757223351999	0	1	NaN	349	6	34	2	120	220	320	NaN	520	0.0103976232931018	2	1	NaN	5003680.0646049	NaN	5003681.0480172	5003681.56455168
74	18	0	0	90	36.1581920903955	36.241610738255	8	0.266687008142471	2	6	4	NaN	1	3	0.142757223351999	0	1	NaN	350	6	35	2	120	220	320	NaN	520	0.0104437181726098	1	1	NaN	5003682.3814879	NaN	5003683.3648858	5003683.88143588
74	18	0	0	90	36.1581920903955	36.241610738255	7	0.233351132124662	2	7	5	NaN	2	5	0.142757223351999	0	1	NaN	351	6	36	2	120	220	320	NaN	520	0.0179249234497547	2	1	NaN	5003684.7149221	NaN	5003685.6984691	5003686.21500508
74	18	0	0	90	36.1581920903955	36.241610738255	22	0.733389272391796	2	8	5	NaN	2	3	0.142757223351999	0	1	NaN	352	6	37	2	120	220	320	NaN	520	0.0104087712243199	1	0	NaN	5003687.0486119	NaN	5003688.0320116	5003688.54856943
74	18	0	0	90	36.1581920903955	36.241610738255	9	0.30002288416028	2	3	1	NaN	1	3	0.142757223351999	0	1	NaN	353	6	38	2	120	220	320	NaN	520	0.119499318301678	2	0	NaN	5003689.3654594	NaN	5003690.348928	5003690.86546408
74	18	0	0	90	36.1581920903955	36.241610738255	14	0.466702264249325	2	7	2	NaN	2	5	0.142757223351999	0	1	NaN	354	6	39	2	120	220	320	NaN	520	0.0104331187903881	1	0	NaN	5003691.7990668	NaN	5003692.782493	5003693.29903518
74	18	0	0	90	36.1581920903955	36.241610738255	11	0.366694636195898	2	2	6	NaN	1	4	0.142757223351999	0	1	NaN	355	6	40	2	120	220	320	NaN	520	0.0104217184707522	1	1	NaN	5003694.2325472	NaN	5003695.2160645	5003695.73260308
74	18	0	0	90	36.1581920903955	36.241610738255	21	0.700053396373987	2	8	5	NaN	2	5	0.142757223351999	0	1	NaN	356	6	41	2	120	220	320	NaN	520	0.0872138179838657	1	0	NaN	5003696.5494569	NaN	5003697.5329518	5003698.04949648
74	18	0	0	90	36.1581920903955	36.241610738255	24	0.800061024427414	2	1	3	NaN	1	5	0.142757223351999	0	1	NaN	357	6	42	2	120	220	320	NaN	520	0.010394724085927	2	0	NaN	5003698.949645	NaN	5003699.9331877	5003700.44974498
74	18	0	0	90	36.1581920903955	36.241610738255	13	0.433366388231516	2	6	4	NaN	1	5	0.142757223351999	0	1	NaN	358	6	43	2	120	220	320	NaN	520	0.010440718382597	1	1	NaN	5003701.2665493	NaN	5003702.25008	5003702.76663208
74	18	0	0	90	36.1581920903955	36.241610738255	23	0.766725148409605	2	1	5	NaN	1	3	0.142757223351999	0	1	NaN	359	6	44	2	120	220	320	NaN	520	0.485798871144652	2	0	NaN	5003703.5836035	NaN	5003704.5669694	5003705.08353613
74	18	0	0	90	36.1581920903955	36.241610738255	9	0.30002288416028	2	7	2	NaN	2	4	0.142757223351999	0	1	NaN	360	6	45	2	120	220	320	NaN	520	0.0104266181588173	2	1	NaN	5003706.3838572	NaN	5003707.3672955	5003707.88380968
74	18	0	0	90	36.1581920903955	36.241610738255	15	0.500038140267134	2	4	6	NaN	1	3	0.142757223351999	0	1	NaN	361	6	46	2	120	220	320	NaN	520	0.0104070715606213	1	1	NaN	5003708.7006571	NaN	5003709.6841714	5003710.20069673
74	18	0	0	90	36.1581920903955	36.241610738255	22	0.733389272391796	2	2	4	NaN	1	5	0.142757223351999	0	1	NaN	362	6	47	2	120	220	320	NaN	520	0.203242476098239	1	1	NaN	5003711.0176493	NaN	5003712.0010475	5003712.51760062
74	18	0	0	90	36.1581920903955	36.241610738255	8	0.266687008142471	2	9	6	NaN	2	3	0.142757223351999	0	1	NaN	363	6	48	2	120	220	320	NaN	520	0.0102989384904504	2	1	NaN	5003713.6178751	NaN	5003714.6013167	5003715.11785066
74	18	0	0	90	36.1581920903955	36.241610738255	10	0.333358760178089	2	6	3	NaN	1	5	0.142757223351999	0	1	NaN	364	6	49	2	120	220	320	NaN	520	0.886199917644262	1	1	NaN	5003715.9347474	NaN	5003716.9181831	5003717.43474658
74	18	0	0	90	36.1581920903955	36.241610738255	21	0.700053396373987	2	4	5	NaN	1	5	0.142757223351999	0	1	NaN	365	6	50	2	120	220	320	NaN	520	0.0103901233524084	2	0	NaN	5003719.13514	NaN	5003720.1185058	5003720.63506338
74	18	0	0	90	36.1581920903955	36.241610738255	18	0.60004576832056	2	10	6	NaN	2	4	0.142757223351999	0	1	NaN	366	6	51	2	120	220	320	NaN	520	0.0104110715910792	2	1	NaN	5003721.4518863	NaN	5003722.4354038	5003722.95195863
74	18	0	0	90	36.1581920903955	36.241610738255	0	0	1	5	6	NaN	1	5	0.142757223351999	0	1	NaN	367	6	52	2	110	210	310	NaN	510	0.0103970235213637	2	0	NaN	5003723.7689826	NaN	5003724.7523039	5003725.26885818
74	18	0	0	90	36.1581920903955	36.241610738255	11	0.366694636195898	2	1	3	NaN	1	5	0.142757223351999	0	1	NaN	368	6	53	2	120	220	320	NaN	520	0.0104302177205682	1	1	NaN	5003726.0857952	NaN	5003727.069207	5003727.58574538
74	18	0	0	90	36.1581920903955	36.241610738255	15	0.500038140267134	2	7	2	NaN	2	5	0.142757223351999	0	1	NaN	369	6	54	2	120	220	320	NaN	520	0.0104029234498739	2	1	NaN	5003728.419383	NaN	5003729.4027619	5003729.91931388
74	18	0	0	90	36.1581920903955	36.241610738255	6	0.200015256106854	2	10	4	NaN	2	3	0.142757223351999	0	1	NaN	370	6	55	2	120	220	320	NaN	520	0.0104098711162806	2	1	NaN	5003730.7361548	NaN	5003731.7196537	5003732.23620553
74	18	0	0	90	36.1581920903955	36.241610738255	23	0.766725148409605	2	8	1	NaN	2	4	0.142757223351999	0	1	NaN	371	6	56	2	120	220	320	NaN	520	0.0104203186929226	2	1	NaN	5003733.3031887	NaN	5003734.2865749	5003734.80313048
74	18	0	0	90	36.1581920903955	36.241610738255	18	0.60004576832056	2	2	2	NaN	1	5	0.142757223351999	0	1	NaN	372	6	57	2	120	220	320	NaN	520	0.0104617178440094	1	1	NaN	5003735.6200589	NaN	5003736.603473	5003737.12001988
74	18	0	0	90	36.1581920903955	36.241610738255	9	0.30002288416028	2	4	2	NaN	1	3	0.142757223351999	0	1	NaN	373	6	58	2	120	220	320	NaN	520	0.0103909755125642	1	1	NaN	5003737.9369922	NaN	5003738.920425	5003739.43692502
74	18	0	0	90	36.1581920903955	36.241610738255	0	0	1	11	1	NaN	2	5	0.142757223351999	0	1	NaN	374	6	59	2	110	210	310	NaN	510	0.0104070706292987	2	1	NaN	5003740.2705437	NaN	5003741.2539384	5003741.77048733
74	18	0	0	90	36.1581920903955	36.241610738255	7	0.233351132124662	2	4	4	NaN	1	4	0.142757223351999	0	1	NaN	375	6	60	2	120	220	320	NaN	520	0.0104054715484381	1	1	NaN	5003742.587424	NaN	5003743.5708093	5003744.08738103
74	18	0	0	90	36.1581920903955	36.241610738255	10	0.333358760178089	2	9	3	NaN	2	3	0.142757223351999	0	1	NaN	376	6	61	2	120	220	320	NaN	520	0.010483218356967	2	1	NaN	5003744.9043258	NaN	5003745.8877285	5003746.40426568
74	18	0	0	90	36.1581920903955	36.241610738255	20	0.666717520356178	2	6	3	NaN	1	4	0.142757223351999	0	1	NaN	377	6	62	2	120	220	320	NaN	520	0.010253794491291	1	1	NaN	5003747.2210903	NaN	5003748.2046152	5003748.72117861
74	18	0	0	90	36.1581920903955	36.241610738255	11	0.366694636195898	2	8	5	NaN	2	4	0.142757223351999	0	1	NaN	378	6	63	2	120	220	320	NaN	520	0.338833522982895	2	1	NaN	5003749.554763	NaN	5003750.5381869	5003751.05473638
74	18	0	0	90	36.1581920903955	36.241610738255	18	0.60004576832056	2	8	4	NaN	2	4	0.142757223351999	0	1	NaN	379	7	1	2	120	220	320	NaN	520	1.03317657578737	2	1	NaN	5003764.5562461	NaN	5003765.5397291	5003766.05620942
74	18	0	0	90	36.1581920903955	36.241610738255	18	0.60004576832056	2	12	4	NaN	2	4	0.142757223351999	0	1	NaN	380	7	2	2	120	220	320	NaN	520	0.0103661278262734	2	1	NaN	5003767.9066128	NaN	5003768.8899706	5003769.40654477
74	18	0	0	90	36.1581920903955	36.241610738255	22	0.733389272391796	2	9	1	NaN	2	3	0.142757223351999	0	1	NaN	381	7	3	2	120	220	320	NaN	520	0.277425018139184	2	1	NaN	5003770.2401354	NaN	5003771.2235503	5003771.74010658
74	18	0	0	90	36.1581920903955	36.241610738255	23	0.766725148409605	2	11	4	NaN	2	4	0.142757223351999	0	1	NaN	382	7	4	2	120	220	320	NaN	520	0.0103972228243947	2	1	NaN	5003772.8403888	NaN	5003773.823818	5003774.34036018
74	18	0	0	90	36.1581920903955	36.241610738255	24	0.800061024427414	2	8	6	NaN	2	5	0.142757223351999	0	1	NaN	383	7	5	2	120	220	320	NaN	520	0.0104041714221239	2	1	NaN	5003775.1739918	NaN	5003776.1574011	5003776.67391673
74	18	0	0	90	36.1581920903955	36.241610738255	9	0.30002288416028	2	10	1	NaN	2	3	0.142757223351999	0	1	NaN	384	7	6	2	120	220	320	NaN	520	0.938152523711324	2	1	NaN	5003777.4907424	NaN	5003778.474271	5003778.99081018
74	18	0	0	90	36.1581920903955	36.241610738255	6	0.200015256106854	2	6	2	NaN	1	4	0.142757223351999	0	1	NaN	385	7	7	2	120	220	320	NaN	520	0.608383018523455	1	1	NaN	5003780.7412029	NaN	5003781.7245778	5003782.24112968
74	18	0	0	90	36.1581920903955	36.241610738255	6	0.200015256106854	2	11	6	NaN	2	5	0.142757223351999	0	1	NaN	386	7	8	2	120	220	320	NaN	520	0.0104390177875757	2	1	NaN	5003783.674819	NaN	5003784.6582065	5003785.17476408
74	18	0	0	90	36.1581920903955	36.241610738255	15	0.500038140267134	2	1	1	NaN	1	4	0.142757223351999	0	1	NaN	387	7	9	2	120	220	320	NaN	520	0.0104263182729483	1	1	NaN	5003785.9917008	NaN	5003786.9751583	5003787.49165098
74	18	0	0	90	36.1581920903955	36.241610738255	18	0.60004576832056	2	1	4	NaN	1	5	0.142757223351999	0	1	NaN	388	7	10	2	120	220	320	NaN	520	0.120618723332882	1	1	NaN	5003788.3086312	NaN	5003789.2919961	5003789.80854578
74	18	0	0	90	36.1581920903955	36.241610738255	22	0.733389272391796	2	3	2	NaN	1	3	0.142757223351999	0	1	NaN	389	7	11	2	120	220	320	NaN	520	0.0104229180142283	2	0	NaN	5003790.7421732	NaN	5003791.7254721	5003792.24211468
74	18	0	0	90	36.1581920903955	36.241610738255	13	0.433366388231516	2	3	4	NaN	1	4	0.142757223351999	0	1	NaN	390	7	12	2	120	220	320	NaN	520	0.0104032708331943	1	1	NaN	5003793.0756562	NaN	5003794.0591234	5003794.57568293
74	18	0	0	90	36.1581920903955	36.241610738255	20	0.666717520356178	2	3	3	NaN	1	5	0.142757223351999	0	1	NaN	391	7	13	2	120	220	320	NaN	520	0.0104366187006235	1	1	NaN	5003795.5925722	NaN	5003796.5760493	5003797.09259308
74	18	0	0	90	36.1581920903955	36.241610738255	25	0.833396900445223	2	2	1	NaN	1	3	0.142757223351999	0	1	NaN	392	7	14	2	120	220	320	NaN	520	0.0103962235152721	1	1	NaN	5003797.9095661	NaN	5003798.8929453	5003799.40949018
74	18	0	0	90	36.1581920903955	36.241610738255	17	0.566709892302752	2	2	3	NaN	1	4	0.142757223351999	0	1	NaN	393	7	15	2	120	220	320	NaN	520	0.0104249184951186	1	1	NaN	5003800.2431105	NaN	5003801.2264925	5003801.74305138
74	18	0	0	90	36.1581920903955	36.241610738255	20	0.666717520356178	2	5	2	NaN	1	3	0.142757223351999	0	1	NaN	394	7	16	2	120	220	320	NaN	520	0.0103905228897929	2	0	NaN	5003802.5598762	NaN	5003803.5434254	5003804.05995338
74	18	0	0	90	36.1581920903955	36.241610738255	18	0.60004576832056	2	6	3	NaN	1	4	0.142757223351999	0	1	NaN	395	7	17	2	120	220	320	NaN	520	0.0104223182424903	1	1	NaN	5003804.8767783	NaN	5003805.8603013	5003806.37686268
74	18	0	0	90	36.1581920903955	36.241610738255	18	0.60004576832056	2	6	6	NaN	1	4	0.142757223351999	0	1	NaN	396	7	18	2	120	220	320	NaN	520	0.0104242181405425	1	1	NaN	5003807.1936754	NaN	5003808.1771968	5003808.69373548
74	18	0	0	90	36.1581920903955	36.241610738255	10	0.333358760178089	2	4	1	NaN	1	5	0.142757223351999	0	1	NaN	397	7	19	2	120	220	320	NaN	520	0.0104196183383465	1	1	NaN	5003809.5273607	NaN	5003810.510767	5003811.02729898
74	18	0	0	90	36.1581920903955	36.241610738255	11	0.366694636195898	2	4	5	NaN	1	5	0.142757223351999	0	1	NaN	398	7	20	2	120	220	320	NaN	520	0.0103470813483	1	1	NaN	5003811.8609206	NaN	5003812.8443026	5003813.36086992
74	18	0	0	90	36.1581920903955	36.241610738255	6	0.200015256106854	2	2	4	NaN	1	4	0.142757223351999	0	1	NaN	399	7	21	2	120	220	320	NaN	520	0.0104215713217854	1	1	NaN	5003814.1778118	NaN	5003815.1612228	5003815.67776883
74	18	0	0	90	36.1581920903955	36.241610738255	10	0.333358760178089	2	12	6	NaN	2	4	0.142757223351999	0	1	NaN	400	7	22	2	120	220	320	NaN	520	0.270627975463867	1	0	NaN	5003816.4946548	NaN	5003817.4780981	5003817.99466522
74	18	0	0	90	36.1581920903955	36.241610738255	9	0.30002288416028	2	5	3	NaN	1	5	0.142757223351999	0	1	NaN	401	7	23	2	120	220	320	NaN	520	0.0103923240676522	1	1	NaN	5003819.0782847	NaN	5003820.0618031	5003820.57825658
74	18	0	0	90	36.1581920903955	36.241610738255	10	0.333358760178089	2	10	1	NaN	2	5	0.142757223351999	0	1	NaN	402	7	24	2	120	220	320	NaN	520	0.0104104718193412	2	1	NaN	5003821.3951763	NaN	5003822.3785909	5003822.89514963
74	18	0	0	90	36.1581920903955	36.241610738255	25	0.833396900445223	2	7	4	NaN	2	5	0.142757223351999	0	1	NaN	403	7	25	2	120	220	320	NaN	520	0.0104193175211549	2	1	NaN	5003823.7119611	NaN	5003824.6954829	5003825.21203058
74	18	0	0	90	36.1581920903955	36.241610738255	19	0.633381644338369	2	5	6	NaN	1	3	0.142757223351999	0	1	NaN	404	7	26	2	120	220	320	NaN	520	0.20823957119137	1	1	NaN	5003826.0289888	NaN	5003827.0123808	5003827.52893783
74	18	0	0	90	36.1581920903955	36.241610738255	21	0.700053396373987	2	11	3	NaN	2	5	0.142757223351999	0	1	NaN	405	7	27	2	120	220	320	NaN	520	0.0104057714343071	2	1	NaN	5003828.5458894	NaN	5003829.5293057	5003830.04584933
74	18	0	0	90	36.1581920903955	36.241610738255	22	0.733389272391796	2	3	6	NaN	1	4	0.142757223351999	0	1	NaN	406	7	28	2	120	220	320	NaN	520	0.0103929238393903	2	0	NaN	5003830.8627976	NaN	5003831.846182	5003832.36273918
74	18	0	0	90	36.1581920903955	36.241610738255	9	0.30002288416028	2	8	3	NaN	2	4	0.142757223351999	0	1	NaN	407	7	29	2	120	220	320	NaN	520	0.0103895235806704	2	1	NaN	5003833.1796811	NaN	5003834.1630889	5003834.67963768
74	18	0	0	90	36.1581920903955	36.241610738255	20	0.666717520356178	2	11	6	NaN	2	5	0.142757223351999	0	1	NaN	408	7	30	2	120	220	320	NaN	520	0.0103799756616354	2	1	NaN	5003835.4964636	NaN	5003836.4799704	5003836.99653372
74	18	0	0	90	36.1581920903955	36.241610738255	6	0.200015256106854	2	4	6	NaN	1	3	0.142757223351999	0	1	NaN	409	7	31	2	120	220	320	NaN	520	0.0103970235213637	2	0	NaN	5003837.8133522	NaN	5003838.7968793	5003839.31343448
74	18	0	0	90	36.1581920903955	36.241610738255	21	0.700053396373987	2	7	3	NaN	2	5	0.142757223351999	0	1	NaN	410	7	32	2	120	220	320	NaN	520	0.290789823047817	2	1	NaN	5003840.1303749	NaN	5003841.1137873	5003841.63032708
74	18	0	0	90	36.1581920903955	36.241610738255	12	0.400030512213707	2	2	2	NaN	1	4	0.142757223351999	0	1	NaN	411	7	33	2	120	220	320	NaN	520	0.0104375183582306	1	1	NaN	5003842.7305101	NaN	5003843.7140351	5003844.23057648
74	18	0	0	90	36.1581920903955	36.241610738255	25	0.833396900445223	2	10	6	NaN	2	5	0.142757223351999	0	1	NaN	412	7	34	2	120	220	320	NaN	520	0.0103959236294031	1	0	NaN	5003845.0474246	NaN	5003846.0309328	5003846.54747698
74	18	0	0	90	36.1581920903955	36.241610738255	22	0.733389272391796	2	9	6	NaN	2	4	0.142757223351999	0	1	NaN	413	7	35	2	120	220	320	NaN	520	0.0104238176718354	2	1	NaN	5003847.4977671	NaN	5003848.4811614	5003848.99771028
74	18	0	0	90	36.1581920903955	36.241610738255	17	0.566709892302752	2	7	6	NaN	2	4	0.142757223351999	0	1	NaN	414	7	36	2	120	220	320	NaN	520	0.0104364668950438	2	1	NaN	5003849.8145212	NaN	5003850.7980539	5003851.31461133
74	18	0	0	90	36.1581920903955	36.241610738255	13	0.433366388231516	2	5	4	NaN	1	3	0.142757223351999	0	1	NaN	415	7	37	2	120	220	320	NaN	520	0.0104105714708567	2	0	NaN	5003852.1315608	NaN	5003853.1149636	5003853.63151273
74	18	0	0	90	36.1581920903955	36.241610738255	17	0.566709892302752	2	8	3	NaN	2	3	0.142757223351999	0	1	NaN	416	7	38	2	120	220	320	NaN	520	0.0103914234787226	2	1	NaN	5003854.4651241	NaN	5003855.4485302	5003855.96506438
74	18	0	0	90	36.1581920903955	36.241610738255	10	0.333358760178089	2	6	5	NaN	1	4	0.142757223351999	0	1	NaN	417	7	39	2	120	220	320	NaN	520	0.0104240188375115	1	1	NaN	5003856.7820246	NaN	5003857.7654233	5003858.28196808
74	18	0	0	90	36.1581920903955	36.241610738255	15	0.500038140267134	2	10	3	NaN	2	3	0.142757223351999	0	1	NaN	418	7	40	2	120	220	320	NaN	520	0.0103943226858974	2	1	NaN	5003859.1154394	NaN	5003860.0989819	5003860.61552968
74	18	0	0	90	36.1581920903955	36.241610738255	17	0.566709892302752	2	11	2	NaN	2	4	0.142757223351999	0	1	NaN	419	7	41	2	120	220	320	NaN	520	0.0103919235989451	2	1	NaN	5003861.4491446	NaN	5003862.432542	5003862.94908638
74	18	0	0	90	36.1581920903955	36.241610738255	0	0	1	8	1	NaN	2	5	0.142757223351999	0	1	NaN	420	7	42	2	110	210	310	NaN	510	0.0104013234376907	2	1	NaN	5003863.7660488	NaN	5003864.7494266	5003865.26599248
74	18	0	0	90	36.1581920903955	36.241610738255	19	0.633381644338369	2	11	4	NaN	2	4	0.142757223351999	0	1	NaN	421	7	43	2	120	220	320	NaN	520	0.0103771751746535	2	1	NaN	5003866.0828266	NaN	5003867.0663353	5003867.58288592
74	18	0	0	90	36.1581920903955	36.241610738255	25	0.833396900445223	2	1	5	NaN	1	5	0.142757223351999	0	1	NaN	422	7	44	2	120	220	320	NaN	520	0.0103899240493774	2	0	NaN	5003868.3997018	NaN	5003869.3832286	5003869.89977178
74	18	0	0	90	36.1581920903955	36.241610738255	24	0.800061024427414	2	11	5	NaN	2	3	0.142757223351999	0	1	NaN	423	7	45	2	120	220	320	NaN	520	0.0103768762201071	2	1	NaN	5003870.7165929	NaN	5003871.700123	5003872.21667972
74	18	0	0	90	36.1581920903955	36.241610738255	11	0.366694636195898	2	8	5	NaN	2	5	0.142757223351999	0	1	NaN	424	7	46	2	120	220	320	NaN	520	0.0104040233418345	2	1	NaN	5003873.033629	NaN	5003874.0170269	5003874.53356818
74	18	0	0	90	36.1581920903955	36.241610738255	14	0.466702264249325	2	3	2	NaN	1	4	0.142757223351999	0	1	NaN	425	7	47	2	120	220	320	NaN	520	0.0103925243020058	1	1	NaN	5003875.367188	NaN	5003876.3506087	5003876.86712618
74	18	0	0	90	36.1581920903955	36.241610738255	9	0.30002288416028	2	2	2	NaN	1	3	0.142757223351999	0	1	NaN	426	7	48	2	120	220	320	NaN	520	0.0103876236826181	1	1	NaN	5003877.6840894	NaN	5003878.6674682	5003879.18402628
74	18	0	0	90	36.1581920903955	36.241610738255	25	0.833396900445223	2	4	6	NaN	1	5	0.142757223351999	0	1	NaN	427	7	49	2	120	220	320	NaN	520	0.0104228183627129	1	1	NaN	5003880.0342853	NaN	5003881.0177084	5003881.53425058
74	18	0	0	90	36.1581920903955	36.241610738255	21	0.700053396373987	2	9	4	NaN	2	3	0.142757223351999	0	1	NaN	428	7	50	2	120	220	320	NaN	520	0.0104354182258248	1	0	NaN	5003882.3512045	NaN	5003883.3346036	5003883.85114698
74	18	0	0	90	36.1581920903955	36.241610738255	23	0.766725148409605	2	8	4	NaN	2	3	0.142757223351999	0	1	NaN	429	7	51	2	120	220	320	NaN	520	0.0103961229324341	1	0	NaN	5003884.6680829	NaN	5003885.6514908	5003886.16804098
74	18	0	0	90	36.1581920903955	36.241610738255	12	0.400030512213707	2	7	6	NaN	2	3	0.142757223351999	0	1	NaN	430	7	52	2	120	220	320	NaN	520	0.0997410230338573	2	1	NaN	5003887.2016674	NaN	5003888.1850772	5003888.70162678
74	18	0	0	90	36.1581920903955	36.241610738255	10	0.333358760178089	2	1	4	NaN	1	3	0.142757223351999	0	1	NaN	431	7	53	2	120	220	320	NaN	520	0.0104434182867408	1	1	NaN	5003889.6185867	NaN	5003890.6019825	5003891.11853358
74	18	0	0	90	36.1581920903955	36.241610738255	17	0.566709892302752	2	12	1	NaN	2	5	0.142757223351999	0	1	NaN	432	7	54	2	120	220	320	NaN	520	1.55768822319806	1	0	NaN	5003891.9353567	NaN	5003892.9188995	5003893.43543168
74	18	0	0	90	36.1581920903955	36.241610738255	15	0.500038140267134	2	7	3	NaN	2	3	0.142757223351999	0	1	NaN	433	7	55	2	120	220	320	NaN	520	0.0104259187355638	1	0	NaN	5003895.8025374	NaN	5003896.7859474	5003897.30247198
74	18	0	0	90	36.1581920903955	36.241610738255	13	0.433366388231516	2	8	6	NaN	2	5	0.142757223351999	0	1	NaN	434	7	56	2	120	220	320	NaN	520	0.0103924237191677	2	1	NaN	5003898.1361075	NaN	5003899.119495	5003899.63603668
74	18	0	0	90	36.1581920903955	36.241610738255	16	0.533374016284943	2	8	6	NaN	2	4	0.142757223351999	0	1	NaN	435	7	57	2	120	220	320	NaN	520	0.0104225184768438	2	1	NaN	5003900.4529936	NaN	5003901.4363803	5003901.95292938
74	18	0	0	90	36.1581920903955	36.241610738255	6	0.200015256106854	2	9	6	NaN	2	4	0.142757223351999	0	1	NaN	436	7	58	2	120	220	320	NaN	520	0.010409370996058	2	1	NaN	5003902.7698898	NaN	5003903.7532849	5003904.26982723
74	18	0	0	90	36.1581920903955	36.241610738255	6	0.200015256106854	2	11	6	NaN	2	5	0.142757223351999	0	1	NaN	437	7	59	2	120	220	320	NaN	520	0.0104306181892753	2	1	NaN	5003905.0867717	NaN	5003906.070183	5003906.58672048
74	18	0	0	90	36.1581920903955	36.241610738255	22	0.733389272391796	2	1	2	NaN	1	5	0.142757223351999	0	1	NaN	438	7	60	2	120	220	320	NaN	520	0.0104092713445425	1	1	NaN	5003907.4202134	NaN	5003908.4037368	5003908.92029003
74	18	0	0	90	36.1581920903955	36.241610738255	13	0.433366388231516	2	12	6	NaN	2	3	0.142757223351999	0	1	NaN	439	7	61	2	120	220	320	NaN	520	0.0104139717295766	2	1	NaN	5003910.087154	NaN	5003911.0706739	5003911.58721133
74	18	0	0	90	36.1581920903955	36.241610738255	20	0.666717520356178	2	9	6	NaN	2	5	0.142757223351999	0	1	NaN	440	7	62	2	120	220	320	NaN	520	0.0103943236172199	2	1	NaN	5003912.4207121	NaN	5003913.4042701	5003913.92077518
74	18	0	0	90	36.1581920903955	36.241610738255	9	0.30002288416028	2	2	4	NaN	1	5	0.142757223351999	0	1	NaN	441	7	63	2	120	220	320	NaN	520	0.0104390662163496	2	0	NaN	5003914.7377288	NaN	5003915.7211445	5003916.23767003
74	18	0	0	90	36.1581920903955	36.241610738255	19	0.633381644338369	2	8	1	NaN	2	4	0.142757223351999	0	1	NaN	442	8	1	2	120	220	320	NaN	520	0.131236474961042	2	1	NaN	5003925.9221706	NaN	5003926.9055544	5003927.42211512
74	18	0	0	90	36.1581920903955	36.241610738255	8	0.266687008142471	2	3	3	NaN	1	4	0.142757223351999	0	1	NaN	443	8	2	2	120	220	320	NaN	520	0.0104048242792487	1	1	NaN	5003928.4390561	NaN	5003929.4224718	5003929.93902748
74	18	0	0	90	36.1581920903955	36.241610738255	17	0.566709892302752	2	6	3	NaN	1	5	0.142757223351999	0	1	NaN	444	8	3	2	120	220	320	NaN	520	0.0104082711040974	1	1	NaN	5003931.0058697	NaN	5003931.9894049	5003932.50595153
74	18	0	0	90	36.1581920903955	36.241610738255	18	0.60004576832056	2	7	4	NaN	2	3	0.142757223351999	0	1	NaN	445	8	4	2	120	220	320	NaN	520	0.0104307234287262	1	0	NaN	5003933.3395649	NaN	5003934.3229482	5003934.83951398
74	18	0	0	90	36.1581920903955	36.241610738255	9	0.30002288416028	2	6	4	NaN	1	4	0.142757223351999	0	1	NaN	446	8	5	2	120	220	320	NaN	520	1.11559661850333	1	1	NaN	5003935.6897862	NaN	5003936.6731929	5003937.18973498
74	18	0	0	90	36.1581920903955	36.241610738255	12	0.400030512213707	2	10	1	NaN	2	4	0.142757223351999	0	1	NaN	447	8	6	2	120	220	320	NaN	520	0.010424317792058	2	1	NaN	5003939.123489	NaN	5003940.1068633	5003940.62341508
74	18	0	0	90	36.1581920903955	36.241610738255	12	0.400030512213707	2	5	3	NaN	1	4	0.142757223351999	0	1	NaN	448	8	7	2	120	220	320	NaN	520	0.0104144709184766	1	1	NaN	5003941.4569167	NaN	5003942.44042	5003942.95698193
74	18	0	0	90	36.1581920903955	36.241610738255	20	0.666717520356178	2	7	3	NaN	2	5	0.142757223351999	0	1	NaN	449	8	8	2	120	220	320	NaN	520	0.0103898234665394	2	1	NaN	5003943.7739291	NaN	5003944.7573459	5003945.27386598
74	18	0	0	90	36.1581920903955	36.241610738255	22	0.733389272391796	2	10	3	NaN	2	4	0.142757223351999	0	1	NaN	450	8	9	2	120	220	320	NaN	520	0.0104360654950142	1	0	NaN	5003946.0906984	NaN	5003947.0742204	5003947.59076043
74	18	0	0	90	36.1581920903955	36.241610738255	0	0	1	9	1	NaN	2	5	0.142757223351999	0	1	NaN	451	8	10	2	110	210	310	NaN	510	0.0103936232626438	2	1	NaN	5003948.4077237	NaN	5003949.3911029	5003949.90766508
74	18	0	0	90	36.1581920903955	36.241610738255	6	0.200015256106854	2	2	1	NaN	1	5	0.142757223351999	0	1	NaN	452	8	11	2	120	220	320	NaN	520	0.0104202181100845	1	1	NaN	5003950.7412663	NaN	5003951.7246749	5003952.24122398
74	18	0	0	90	36.1581920903955	36.241610738255	19	0.633381644338369	2	3	5	NaN	1	4	0.142757223351999	0	1	NaN	453	8	12	2	120	220	320	NaN	520	0.0104062715545297	1	1	NaN	5003953.058043	NaN	5003954.0415939	5003954.55811833
74	18	0	0	90	36.1581920903955	36.241610738255	18	0.60004576832056	2	9	2	NaN	2	5	0.142757223351999	0	1	NaN	454	8	13	2	120	220	320	NaN	520	0.346429975703359	2	1	NaN	5003955.4749504	NaN	5003956.4584661	5003956.97502762
74	18	0	0	90	36.1581920903955	36.241610738255	24	0.800061024427414	2	4	3	NaN	1	3	0.142757223351999	0	1	NaN	455	8	14	2	120	220	320	NaN	520	0.0633790232241154	2	0	NaN	5003958.1420095	NaN	5003959.1254079	5003959.64195088
74	18	0	0	90	36.1581920903955	36.241610738255	22	0.733389272391796	2	8	2	NaN	2	4	0.142757223351999	0	1	NaN	456	8	15	2	120	220	320	NaN	520	0.0104061709716916	2	1	NaN	5003960.6587947	NaN	5003961.6423071	5003962.15887223
74	18	0	0	90	36.1581920903955	36.241610738255	22	0.733389272391796	2	12	4	NaN	2	5	0.142757223351999	0	1	NaN	457	8	16	2	120	220	320	NaN	520	0.0103993229568005	2	1	NaN	5003962.9923547	NaN	5003963.9758936	5003964.49243228
74	18	0	0	90	36.1581920903955	36.241610738255	22	0.733389272391796	2	4	6	NaN	1	4	0.142757223351999	0	1	NaN	458	8	17	2	120	220	320	NaN	520	0.0104353185743093	1	1	NaN	5003965.3093893	NaN	5003966.2926851	5003966.80933338
