subjno	age	gender	isPractice	viewdist	CmToPixX	CmToPixY	SOA_frm	SOA_time	targNum	targID	targExample	targRace	targGender	firstTargPos	contrast	familiarity	curr_staircase	iStair	TrialNum	BlockNum	blktrl	sessionNum	TC_FIXATION	TC_RSVP_START	TC_RSVP_END	TC_BLANK	TC_RESPONSE_ONSET	RT2afc	resp_2afc	acc	RSVPOnsetVBL	RSVPOnsetTime	RSVPOffsetVBL	RSVPOffsetTime	startrt_2afc
21	19	0	0	90	36.1581920903955	36.241610738255	0	0	1	4	5	NaN	1	3	0.229749065224915	1	1	NaN	1	1	1	2	111	211	311	NaN	511	5.08297987934202	1	1	NaN	4387492.9165282	NaN	4387493.8998169	4387494.43293652
21	19	0	0	90	36.1581920903955	36.241610738255	10	0.33336672000587	2	12	2	NaN	2	5	0.229749065224915	1	1	NaN	2	1	2	2	121	221	321	NaN	521	1.07915893103927	2	1	NaN	4387500.3839328	NaN	4387501.3672275	4387501.90034367
21	19	0	0	90	36.1581920903955	36.241610738255	0	0	1	5	1	NaN	1	3	0.229749065224915	1	1	NaN	3	1	3	2	111	211	311	NaN	511	0.454938343726099	1	1	NaN	4387503.8007325	NaN	4387504.7841355	4387505.30067476
21	19	0	0	90	36.1581920903955	36.241610738255	22	0.733406784012914	2	11	5	NaN	2	4	0.229749065224915	1	1	NaN	4	1	4	2	121	221	321	NaN	521	0.319358523003757	2	1	NaN	4387506.584331	NaN	4387507.5677254	4387508.08427298
21	19	0	0	90	36.1581920903955	36.241610738255	6	0.200020032003522	2	8	2	NaN	2	5	0.229749065224915	1	1	NaN	5	1	5	2	121	221	321	NaN	521	0.381743974983692	2	1	NaN	4387509.2179074	NaN	4387510.2013192	4387510.71787153
21	19	0	0	90	36.1581920903955	36.241610738255	17	0.566723424009979	2	2	2	NaN	1	3	0.229749065224915	1	1	NaN	6	1	6	2	121	221	321	NaN	521	0.272834022529423	1	1	NaN	4387511.9348412	NaN	4387512.9182559	4387513.43480648
21	19	0	0	90	36.1581920903955	36.241610738255	18	0.600060096010566	2	8	1	NaN	2	4	0.229749065224915	1	1	NaN	7	1	7	2	121	221	321	NaN	521	1.13633662741631	2	1	NaN	4387514.5351336	NaN	4387515.5185081	4387516.03506007
21	19	0	0	90	36.1581920903955	36.241610738255	0	0	1	7	1	NaN	2	5	0.229749065224915	1	1	NaN	8	1	8	2	111	211	311	NaN	511	0.238223723135889	2	1	NaN	4387517.9854241	NaN	4387518.9688463	4387519.48538968
21	19	0	0	90	36.1581920903955	36.241610738255	24	0.800080128014088	2	1	5	NaN	1	4	0.229749065224915	1	1	NaN	9	1	9	2	121	221	321	NaN	521	0.288050522096455	1	1	NaN	4387520.5357019	NaN	4387521.5190968	4387522.03564228
21	19	0	0	90	36.1581920903955	36.241610738255	18	0.600060096010566	2	7	3	NaN	2	3	0.229749065224915	1	1	NaN	10	1	10	2	121	221	321	NaN	521	0.391542623750865	2	1	NaN	4387523.1359499	NaN	4387524.1193406	4387524.63589868
21	19	0	0	90	36.1581920903955	36.241610738255	10	0.33336672000587	2	3	1	NaN	1	3	0.229749065224915	1	1	NaN	11	1	11	2	121	221	321	NaN	521	1.17074022721499	1	1	NaN	4387525.852893	NaN	4387526.8362915	4387527.35283737
21	19	0	0	90	36.1581920903955	36.241610738255	6	0.200020032003522	2	1	1	NaN	1	3	0.229749065224915	1	1	NaN	12	1	12	2	121	221	321	NaN	521	1.1743562752381	1	1	NaN	4387529.3532435	NaN	4387530.3366305	4387530.85318702
21	19	0	0	90	36.1581920903955	36.241610738255	7	0.233356704004109	2	4	6	NaN	1	4	0.229749065224915	1	1	NaN	13	1	13	2	121	221	321	NaN	521	0.249937875196338	1	1	NaN	4387532.8535865	NaN	4387533.8369721	4387534.35351842
21	19	0	0	90	36.1581920903955	36.241610738255	9	0.300030048005283	2	11	4	NaN	2	3	0.229749065224915	1	1	NaN	14	1	14	2	121	221	321	NaN	521	0.314775375649333	2	1	NaN	4387535.4205072	NaN	4387536.403891	4387536.92044672
21	19	0	0	90	36.1581920903955	36.241610738255	0	0	1	12	3	NaN	2	3	0.229749065224915	1	1	NaN	15	1	15	2	111	211	311	NaN	511	0.281557175330818	2	1	NaN	4387538.0541063	NaN	4387539.0374738	4387539.55403632
21	19	0	0	90	36.1581920903955	36.241610738255	25	0.833416800014675	2	2	1	NaN	1	4	0.229749065224915	1	1	NaN	16	1	16	2	121	221	321	NaN	521	0.297481975518167	1	1	NaN	4387540.6543362	NaN	4387541.6377854	4387542.15429222
21	19	0	0	90	36.1581920903955	36.241610738255	25	0.833416800014675	2	8	6	NaN	2	3	0.229749065224915	1	1	NaN	17	1	17	2	121	221	321	NaN	521	0.68817017506808	2	1	NaN	4387543.2711917	NaN	4387544.2547002	4387544.77121032
21	19	0	0	90	36.1581920903955	36.241610738255	22	0.733406784012914	2	9	6	NaN	2	5	0.229749065224915	1	1	NaN	18	1	18	2	121	221	321	NaN	521	0.30291707534343	2	1	NaN	4387546.5049241	NaN	4387547.4883346	4387548.00486602
21	19	0	0	90	36.1581920903955	36.241610738255	15	0.500050080008805	2	8	6	NaN	2	5	0.229749065224915	1	1	NaN	19	1	19	2	121	221	321	NaN	521	0.253858427517116	2	1	NaN	4387549.1218661	NaN	4387550.1052246	4387550.62179307
21	19	0	0	90	36.1581920903955	36.241610738255	23	0.766743456013501	2	7	5	NaN	2	3	0.229749065224915	1	1	NaN	20	1	20	2	121	221	321	NaN	521	0.310856071300805	2	1	NaN	4387551.6887609	NaN	4387552.6722139	4387553.18870523
21	19	0	0	90	36.1581920903955	36.241610738255	13	0.433376736007631	2	1	5	NaN	1	4	0.229749065224915	1	1	NaN	21	1	21	2	121	221	321	NaN	521	0.261023826897144	1	1	NaN	4387554.3223601	NaN	4387555.305747	4387555.82230297
21	19	0	0	90	36.1581920903955	36.241610738255	22	0.733406784012914	2	1	2	NaN	1	5	0.229749065224915	1	1	NaN	22	1	22	2	121	221	321	NaN	521	0.837534574791789	1	1	NaN	4387556.9058109	NaN	4387557.8893057	4387558.40587963
21	19	0	0	90	36.1581920903955	36.241610738255	17	0.566723424009979	2	4	3	NaN	1	4	0.229749065224915	1	1	NaN	23	1	23	2	121	221	321	NaN	521	3.59120203088969	1	1	NaN	4387560.0562538	NaN	4387561.0396713	4387561.55619037
21	19	0	0	90	36.1581920903955	36.241610738255	24	0.800080128014088	2	7	4	NaN	2	4	0.229749065224915	1	1	NaN	24	1	24	2	121	221	321	NaN	521	0.274055640213192	1	0	NaN	4387565.9734948	NaN	4387566.9568776	4387567.47344256
21	19	0	0	90	36.1581920903955	36.241610738255	7	0.233356704004109	2	12	3	NaN	2	3	0.229749065224915	1	1	NaN	25	1	25	2	121	221	321	NaN	521	0.265564575791359	2	1	NaN	4387568.5737418	NaN	4387569.5571354	4387570.07369182
21	19	0	0	90	36.1581920903955	36.241610738255	16	0.533386752009392	2	9	4	NaN	2	5	0.229749065224915	1	1	NaN	26	1	26	2	121	221	321	NaN	521	0.274488722905517	2	1	NaN	4387571.1573538	NaN	4387572.1407403	4387572.65727868
21	19	0	0	90	36.1581920903955	36.241610738255	8	0.266693376004696	2	2	2	NaN	1	5	0.229749065224915	1	1	NaN	27	1	27	2	121	221	321	NaN	521	0.914256027899683	1	1	NaN	4387573.7576203	NaN	4387574.7409943	4387575.25754617
21	19	0	0	90	36.1581920903955	36.241610738255	11	0.366703392006457	2	3	5	NaN	1	3	0.229749065224915	1	1	NaN	28	1	28	2	121	221	321	NaN	521	0.320187822915614	1	1	NaN	4387576.9912425	NaN	4387577.9746427	4387578.49118828
21	19	0	0	90	36.1581920903955	36.241610738255	6	0.200020032003522	2	2	1	NaN	1	5	0.229749065224915	1	1	NaN	29	1	29	2	121	221	321	NaN	521	0.270012027584016	1	1	NaN	4387579.6415047	NaN	4387580.6249227	4387581.14145947
21	19	0	0	90	36.1581920903955	36.241610738255	25	0.833416800014675	2	9	3	NaN	2	4	0.229749065224915	1	1	NaN	30	1	30	2	121	221	321	NaN	521	0.358410174958408	2	1	NaN	4387582.2250947	NaN	4387583.2084853	4387583.72504522
21	19	0	0	90	36.1581920903955	36.241610738255	20	0.66673344001174	2	10	1	NaN	2	5	0.229749065224915	1	1	NaN	31	1	31	2	121	221	321	NaN	521	0.258906926959753	2	1	NaN	4387584.9087164	NaN	4387585.8920848	4387586.40864197
21	19	0	0	90	36.1581920903955	36.241610738255	14	0.466713408008218	2	1	1	NaN	1	4	0.229749065224915	1	1	NaN	32	1	32	2	121	221	321	NaN	521	0.260116523131728	1	1	NaN	4387587.4756413	NaN	4387588.4589949	4387588.97555358
21	19	0	0	90	36.1581920903955	36.241610738255	17	0.566723424009979	2	9	4	NaN	2	3	0.229749065224915	1	1	NaN	33	1	33	2	121	221	321	NaN	521	0.268231727182865	2	1	NaN	4387590.0592093	NaN	4387591.0425995	4387591.55914487
21	19	0	0	90	36.1581920903955	36.241610738255	24	0.800080128014088	2	3	1	NaN	1	4	0.229749065224915	1	1	NaN	34	1	34	2	121	221	321	NaN	521	0.292222223244607	1	1	NaN	4387592.6594469	NaN	4387593.642882	4387594.15939938
21	19	0	0	90	36.1581920903955	36.241610738255	25	0.833416800014675	2	10	2	NaN	2	4	0.229749065224915	1	1	NaN	35	1	35	2	121	221	321	NaN	521	0.275175527669489	2	1	NaN	4387595.2764011	NaN	4387596.2597754	4387596.77632497
21	19	0	0	90	36.1581920903955	36.241610738255	8	0.266693376004696	2	6	6	NaN	1	4	0.229749065224915	1	1	NaN	36	1	36	2	121	221	321	NaN	521	0.282766123302281	1	1	NaN	4387597.8765532	NaN	4387598.8600181	4387599.37658238
21	19	0	0	90	36.1581920903955	36.241610738255	17	0.566723424009979	2	3	2	NaN	1	5	0.229749065224915	1	1	NaN	37	1	37	2	121	221	321	NaN	521	0.458691326901317	1	1	NaN	4387600.4767391	NaN	4387601.4602901	4387601.97683747
21	19	0	0	90	36.1581920903955	36.241610738255	7	0.233356704004109	2	9	1	NaN	2	4	0.229749065224915	1	1	NaN	38	1	38	2	121	221	321	NaN	521	0.31592467520386	2	1	NaN	4387603.2438655	NaN	4387604.2272195	4387604.74377423
21	19	0	0	90	36.1581920903955	36.241610738255	8	0.266693376004696	2	12	1	NaN	2	4	0.229749065224915	1	1	NaN	39	1	39	2	121	221	321	NaN	521	0.266033827327192	2	1	NaN	4387605.8774104	NaN	4387606.8608107	4387607.37736737
21	19	0	0	90	36.1581920903955	36.241610738255	13	0.433376736007631	2	2	3	NaN	1	5	0.229749065224915	1	1	NaN	40	1	40	2	121	221	321	NaN	521	0.202615522779524	1	1	NaN	4387608.4610041	NaN	4387609.4443935	4387609.96094608
21	19	0	0	90	36.1581920903955	36.241610738255	15	0.500050080008805	2	10	5	NaN	2	3	0.229749065224915	1	1	NaN	41	1	41	2	121	221	321	NaN	521	0.269915326498449	2	1	NaN	4387610.9779462	NaN	4387611.9613195	4387612.47786927
21	19	0	0	90	36.1581920903955	36.241610738255	16	0.533386752009392	2	6	1	NaN	1	3	0.229749065224915	1	1	NaN	42	1	42	2	121	221	321	NaN	521	0.334284923039377	1	1	NaN	4387613.5614923	NaN	4387614.5449026	4387615.06144448
21	19	0	0	90	36.1581920903955	36.241610738255	9	0.300030048005283	2	12	3	NaN	2	5	0.229749065224915	1	1	NaN	43	1	43	2	121	221	321	NaN	521	1.29214547947049	2	1	NaN	4387616.2117648	NaN	4387617.1951743	4387617.71171662
21	19	0	0	90	36.1581920903955	36.241610738255	21	0.700070112012327	2	7	6	NaN	2	3	0.229749065224915	1	1	NaN	44	1	44	2	121	221	321	NaN	521	0.259450875222683	2	1	NaN	4387619.8121224	NaN	4387620.7955566	4387621.31206763
21	19	0	0	90	36.1581920903955	36.241610738255	13	0.433376736007631	2	8	4	NaN	2	3	0.229749065224915	1	1	NaN	45	1	45	2	121	221	321	NaN	521	0.212472927756608	2	1	NaN	4387622.3790348	NaN	4387623.3624234	4387623.87898907
21	19	0	0	90	36.1581920903955	36.241610738255	11	0.366703392006457	2	6	5	NaN	1	5	0.229749065224915	1	1	NaN	46	1	46	2	121	221	321	NaN	521	1.43920007534325	1	1	NaN	4387624.9126061	NaN	4387625.896016	4387626.41256543
21	19	0	0	90	36.1581920903955	36.241610738255	13	0.433376736007631	2	10	6	NaN	2	4	0.229749065224915	1	1	NaN	47	1	47	2	121	221	321	NaN	521	0.536404427140951	2	1	NaN	4387628.663001	NaN	4387629.6463901	4387630.16293907
21	19	0	0	90	36.1581920903955	36.241610738255	11	0.366703392006457	2	7	5	NaN	2	4	0.229749065224915	1	1	NaN	48	1	48	2	121	221	321	NaN	521	0.318577547557652	2	1	NaN	4387631.5132603	NaN	4387632.4966636	4387633.01321685
21	19	0	0	90	36.1581920903955	36.241610738255	23	0.766743456013501	2	11	2	NaN	2	3	0.229749065224915	1	1	NaN	49	1	49	2	121	221	321	NaN	521	0.133005427196622	2	1	NaN	4387634.1468612	NaN	4387635.1302908	4387635.64680967
21	19	0	0	90	36.1581920903955	36.241610738255	18	0.600060096010566	2	10	6	NaN	2	4	0.229749065224915	1	1	NaN	50	1	50	2	121	221	321	NaN	521	0.994494363665581	2	1	NaN	4387636.5970138	NaN	4387637.5805089	4387638.09703634
21	19	0	0	90	36.1581920903955	36.241610738255	22	0.733406784012914	2	6	2	NaN	1	5	0.229749065224915	1	1	NaN	51	1	51	2	121	221	321	NaN	521	0.354093426838517	1	1	NaN	4387640.1973996	NaN	4387641.1808562	4387641.69740297
21	19	0	0	90	36.1581920903955	36.241610738255	22	0.733406784012914	2	6	1	NaN	1	3	0.229749065224915	1	1	NaN	52	1	52	2	121	221	321	NaN	521	0.383320823311806	1	1	NaN	4387642.8643804	NaN	4387643.847777	4387644.36432008
21	19	0	0	90	36.1581920903955	36.241610738255	16	0.533386752009392	2	6	3	NaN	1	5	0.229749065224915	1	1	NaN	53	1	53	2	121	221	321	NaN	521	0.251030775718391	1	1	NaN	4387645.564651	NaN	4387646.5480493	4387647.06458682
21	19	0	0	90	36.1581920903955	36.241610738255	18	0.600060096010566	2	10	4	NaN	2	3	0.229749065224915	1	1	NaN	54	1	54	2	121	221	321	NaN	521	1.66793737467378	2	1	NaN	4387648.1315585	NaN	4387649.1149573	4387649.63151533
21	19	0	0	90	36.1581920903955	36.241610738255	17	0.566723424009979	2	6	6	NaN	1	4	0.229749065224915	1	1	NaN	55	1	55	2	121	221	321	NaN	521	0.732270822860301	1	1	NaN	4387652.1152777	NaN	4387653.0986863	4387653.61522818
21	19	0	0	90	36.1581920903955	36.241610738255	21	0.700070112012327	2	1	6	NaN	1	3	0.229749065224915	1	1	NaN	56	1	56	2	121	221	321	NaN	521	0.242025975137949	1	1	NaN	4387655.1656127	NaN	4387656.1489991	4387656.66553883
21	19	0	0	90	36.1581920903955	36.241610738255	14	0.466713408008218	2	9	2	NaN	2	3	0.229749065224915	1	1	NaN	57	1	57	2	121	221	321	NaN	521	0.243833926506341	2	1	NaN	4387657.7157258	NaN	4387658.6992266	4387659.21579097
21	19	0	0	90	36.1581920903955	36.241610738255	7	0.233356704004109	2	6	5	NaN	1	5	0.229749065224915	1	1	NaN	58	1	58	2	121	221	321	NaN	521	0.453370575793087	1	1	NaN	4387660.2660878	NaN	4387661.2494975	4387661.76604132
21	19	0	0	90	36.1581920903955	36.241610738255	14	0.466713408008218	2	12	4	NaN	2	3	0.229749065224915	1	1	NaN	59	1	59	2	121	221	321	NaN	521	0.270908274687827	2	1	NaN	4387663.0330493	NaN	4387664.0164276	4387664.53297243
21	19	0	0	90	36.1581920903955	36.241610738255	18	0.600060096010566	2	12	3	NaN	2	3	0.229749065224915	1	1	NaN	60	1	60	2	121	221	321	NaN	521	0.726772675290704	2	1	NaN	4387665.6166301	NaN	4387666.5999921	4387667.11655832
21	19	0	0	90	36.1581920903955	36.241610738255	18	0.600060096010566	2	9	3	NaN	2	5	0.229749065224915	1	1	NaN	61	1	61	2	121	221	321	NaN	521	0.253622471354902	2	1	NaN	4387668.6501711	NaN	4387669.6336417	4387670.15018543
21	19	0	0	90	36.1581920903955	36.241610738255	21	0.700070112012327	2	9	6	NaN	2	3	0.229749065224915	1	1	NaN	62	1	62	2	121	221	321	NaN	521	0.846553174778819	2	1	NaN	4387671.2170336	NaN	4387672.2005676	4387672.71711393
21	19	0	0	90	36.1581920903955	36.241610738255	14	0.466713408008218	2	2	5	NaN	1	4	0.229749065224915	1	1	NaN	63	1	63	2	121	221	321	NaN	521	0.871863326989114	1	1	NaN	4387674.3841392	NaN	4387675.3675421	4387675.88409337
21	19	0	0	90	36.1581920903955	36.241610738255	19	0.633396768011153	2	3	4	NaN	1	4	0.229749065224915	1	1	NaN	64	2	1	2	121	221	321	NaN	521	0.258077335543931	1	1	NaN	4387681.7015272	NaN	4387682.6849211	4387683.20148036
21	19	0	0	90	36.1581920903955	36.241610738255	23	0.766743456013501	2	8	2	NaN	2	5	0.229749065224915	1	1	NaN	65	2	2	2	121	221	321	NaN	521	0.267480575479567	2	1	NaN	4387684.2684415	NaN	4387685.251849	4387685.76839842
21	19	0	0	90	36.1581920903955	36.241610738255	0	0	1	3	1	NaN	1	3	0.229749065224915	1	1	NaN	66	2	3	2	111	211	311	NaN	511	0.203861975111067	1	1	NaN	4387686.852036	NaN	4387687.8354324	4387688.35197262
21	19	0	0	90	36.1581920903955	36.241610738255	19	0.633396768011153	2	1	6	NaN	1	4	0.229749065224915	1	1	NaN	67	2	4	2	121	221	321	NaN	521	0.855092274956405	1	1	NaN	4387689.3689545	NaN	4387690.3523453	4387690.86889763
21	19	0	0	90	36.1581920903955	36.241610738255	25	0.833416800014675	2	3	3	NaN	1	4	0.229749065224915	1	1	NaN	68	2	5	2	121	221	321	NaN	521	0.271949526853859	1	1	NaN	4387692.5359312	NaN	4387693.5193283	4387694.03587317
21	19	0	0	90	36.1581920903955	36.241610738255	19	0.633396768011153	2	4	5	NaN	1	3	0.229749065224915	1	1	NaN	69	2	6	2	121	221	321	NaN	521	0.416160674765706	2	0	NaN	4387695.1195106	NaN	4387696.1029061	4387696.61946233
21	19	0	0	90	36.1581920903955	36.241610738255	16	0.533386752009392	2	5	5	NaN	1	4	0.229749065224915	1	1	NaN	70	2	7	2	121	221	321	NaN	521	0.266494775190949	1	1	NaN	4387697.8531133	NaN	4387698.8365162	4387699.35305092
21	19	0	0	90	36.1581920903955	36.241610738255	16	0.533386752009392	2	5	6	NaN	1	5	0.229749065224915	1	1	NaN	71	2	8	2	121	221	321	NaN	521	0.955057831481099	1	1	NaN	4387700.4366916	NaN	4387701.4200852	4387701.93665237
21	19	0	0	90	36.1581920903955	36.241610738255	21	0.700070112012327	2	11	2	NaN	2	5	0.229749065224915	1	1	NaN	72	2	9	2	121	221	321	NaN	521	0.760290027596056	2	1	NaN	4387703.7036959	NaN	4387704.6870839	4387705.20363907
21	19	0	0	90	36.1581920903955	36.241610738255	19	0.633396768011153	2	11	6	NaN	2	5	0.229749065224915	1	1	NaN	73	2	10	2	121	221	321	NaN	521	0.300388191826642	2	1	NaN	4387706.7873279	NaN	4387707.7707031	4387708.28727761
21	19	0	0	90	36.1581920903955	36.241610738255	0	0	1	1	6	NaN	1	4	0.229749065224915	1	1	NaN	74	2	11	2	111	211	311	NaN	511	0.275092426687479	1	1	NaN	4387709.4042614	NaN	4387710.3876449	4387710.90418577
21	19	0	0	90	36.1581920903955	36.241610738255	8	0.266693376004696	2	7	2	NaN	2	3	0.229749065224915	1	1	NaN	75	2	12	2	121	221	321	NaN	521	0.5397914275527	2	1	NaN	4387711.987833	NaN	4387712.9712432	4387713.48778577
21	19	0	0	90	36.1581920903955	36.241610738255	19	0.633396768011153	2	10	1	NaN	2	5	0.229749065224915	1	1	NaN	76	2	13	2	121	221	321	NaN	521	0.265471074730158	2	1	NaN	4387714.8381075	NaN	4387715.8215107	4387716.33805443
21	19	0	0	90	36.1581920903955	36.241610738255	13	0.433376736007631	2	6	1	NaN	1	3	0.229749065224915	1	1	NaN	77	2	14	2	121	221	321	NaN	521	0.210032974369824	1	1	NaN	4387717.4216974	NaN	4387718.4051064	4387718.92165103
21	19	0	0	90	36.1581920903955	36.241610738255	13	0.433376736007631	2	10	6	NaN	2	5	0.229749065224915	1	1	NaN	78	2	15	2	121	221	321	NaN	521	0.565104775130749	2	1	NaN	4387719.9384818	NaN	4387720.922026	4387721.43856073
21	19	0	0	90	36.1581920903955	36.241610738255	9	0.300030048005283	2	9	3	NaN	2	4	0.229749065224915	1	1	NaN	79	2	16	2	121	221	321	NaN	521	0.265462775714695	1	0	NaN	4387722.8222512	NaN	4387723.8056388	4387724.32218182
21	19	0	0	90	36.1581920903955	36.241610738255	19	0.633396768011153	2	12	3	NaN	2	5	0.229749065224915	1	1	NaN	80	2	17	2	121	221	321	NaN	521	1.27410827204585	2	1	NaN	4387725.4058173	NaN	4387726.3892238	4387726.90576033
21	19	0	0	90	36.1581920903955	36.241610738255	23	0.766743456013501	2	9	2	NaN	2	4	0.229749065224915	1	1	NaN	81	2	18	2	121	221	321	NaN	521	3.11439612321556	2	1	NaN	4387728.9894893	NaN	4387729.9729028	4387730.48945458
21	19	0	0	90	36.1581920903955	36.241610738255	0	0	1	9	3	NaN	2	5	0.229749065224915	1	1	NaN	82	2	19	2	111	211	311	NaN	511	0.353081375360489	2	1	NaN	4387734.4067042	NaN	4387735.390102	4387735.90664382
21	19	0	0	90	36.1581920903955	36.241610738255	23	0.766743456013501	2	8	1	NaN	2	4	0.229749065224915	1	1	NaN	83	2	20	2	121	221	321	NaN	521	0.7183060310781	2	1	NaN	4387737.073636	NaN	4387738.0570284	4387738.57357627
21	19	0	0	90	36.1581920903955	36.241610738255	14	0.466713408008218	2	7	2	NaN	2	5	0.229749065224915	1	1	NaN	84	2	21	2	121	221	321	NaN	521	0.300711827352643	2	1	NaN	4387740.107272	NaN	4387741.0906682	4387741.60723117
21	19	0	0	90	36.1581920903955	36.241610738255	15	0.500050080008805	2	11	6	NaN	2	3	0.229749065224915	1	1	NaN	85	2	22	2	121	221	321	NaN	521	0.235610427334905	2	1	NaN	4387742.7241912	NaN	4387743.7075778	4387744.22413037
21	19	0	0	90	36.1581920903955	36.241610738255	25	0.833416800014675	2	10	5	NaN	2	4	0.229749065224915	1	1	NaN	86	2	23	2	121	221	321	NaN	521	0.285385771654546	2	1	NaN	4387745.2743074	NaN	4387746.2578314	4387746.77437923
21	19	0	0	90	36.1581920903955	36.241610738255	21	0.700070112012327	2	4	3	NaN	1	3	0.229749065224915	1	1	NaN	87	2	24	2	121	221	321	NaN	521	0.257386822253466	1	1	NaN	4387748.1748017	NaN	4387749.1581372	4387749.67467018
21	19	0	0	90	36.1581920903955	36.241610738255	15	0.500050080008805	2	3	1	NaN	1	4	0.229749065224915	1	1	NaN	88	2	25	2	121	221	321	NaN	521	0.1460533272475	1	1	NaN	4387750.7416433	NaN	4387751.7250232	4387752.24159187
21	19	0	0	90	36.1581920903955	36.241610738255	10	0.33336672000587	2	4	1	NaN	1	3	0.229749065224915	1	1	NaN	89	2	26	2	121	221	321	NaN	521	0.255369075573981	1	1	NaN	4387753.2085379	NaN	4387754.1919475	4387754.70849312
21	19	0	0	90	36.1581920903955	36.241610738255	0	0	1	11	4	NaN	2	5	0.229749065224915	1	1	NaN	90	2	27	2	111	211	311	NaN	511	0.560251222923398	2	1	NaN	4387755.7755368	NaN	4387756.7588618	4387757.27540648
21	19	0	0	90	36.1581920903955	36.241610738255	13	0.433376736007631	2	5	5	NaN	1	5	0.229749065224915	1	1	NaN	91	2	28	2	121	221	321	NaN	521	0.241097623482347	1	1	NaN	4387758.9424753	NaN	4387759.9258428	4387760.44238848
21	19	0	0	90	36.1581920903955	36.241610738255	6	0.200020032003522	2	6	5	NaN	1	3	0.229749065224915	1	1	NaN	92	2	29	2	121	221	321	NaN	521	0.307394095696509	1	1	NaN	4387761.4926855	NaN	4387762.4760919	4387762.9926528
21	19	0	0	90	36.1581920903955	36.241610738255	18	0.600060096010566	2	9	5	NaN	2	5	0.229749065224915	1	1	NaN	93	2	30	2	121	221	321	NaN	521	0.290482022799551	2	1	NaN	4387764.1096155	NaN	4387765.0930153	4387765.60955758
21	19	0	0	90	36.1581920903955	36.241610738255	15	0.500050080008805	2	9	4	NaN	2	3	0.229749065224915	1	1	NaN	94	2	31	2	121	221	321	NaN	521	0.234006475657225	2	1	NaN	4387766.709882	NaN	4387767.6932718	4387768.20982132
21	19	0	0	90	36.1581920903955	36.241610738255	12	0.400040064007044	2	4	2	NaN	1	3	0.229749065224915	1	1	NaN	95	2	32	2	121	221	321	NaN	521	0.811637475155294	2	0	NaN	4387769.2602126	NaN	4387770.2434869	4387770.76007632
21	19	0	0	90	36.1581920903955	36.241610738255	18	0.600060096010566	2	2	3	NaN	1	5	0.229749065224915	1	1	NaN	96	2	33	2	121	221	321	NaN	521	0.246694927103817	1	1	NaN	4387772.3771068	NaN	4387773.3605002	4387773.87703907
21	19	0	0	90	36.1581920903955	36.241610738255	10	0.33336672000587	2	1	5	NaN	1	3	0.229749065224915	1	1	NaN	97	2	34	2	121	221	321	NaN	521	0.280015383847058	1	1	NaN	4387774.9440036	NaN	4387775.927422	4387776.44395592
21	19	0	0	90	36.1581920903955	36.241610738255	25	0.833416800014675	2	6	1	NaN	1	5	0.229749065224915	1	1	NaN	98	2	35	2	121	221	321	NaN	521	0.279455027543008	1	1	NaN	4387777.5442775	NaN	4387778.5276788	4387779.04422107
21	19	0	0	90	36.1581920903955	36.241610738255	23	0.766743456013501	2	7	6	NaN	2	5	0.229749065224915	1	1	NaN	99	2	36	2	121	221	321	NaN	521	0.0872137751430273	2	1	NaN	4387780.1445275	NaN	4387781.1278352	4387781.64447903
21	19	0	0	90	36.1581920903955	36.241610738255	19	0.633396768011153	2	4	1	NaN	1	4	0.229749065224915	1	1	NaN	100	2	37	2	121	221	321	NaN	521	1.85513732768595	1	1	NaN	4387782.5447509	NaN	4387783.5281635	4387784.04470827
21	19	0	0	90	36.1581920903955	36.241610738255	14	0.466713408008218	2	7	5	NaN	2	3	0.229749065224915	1	1	NaN	101	2	38	2	121	221	321	NaN	521	0.256212974898517	2	1	NaN	4387786.7118382	NaN	4387787.6952318	4387788.21177913
21	19	0	0	90	36.1581920903955	36.241610738255	16	0.533386752009392	2	8	1	NaN	2	5	0.229749065224915	1	1	NaN	102	2	39	2	121	221	321	NaN	521	0.305308383889496	2	1	NaN	4387789.2786887	NaN	4387790.2621572	4387790.77870432
21	19	0	0	90	36.1581920903955	36.241610738255	11	0.366703392006457	2	5	2	NaN	1	5	0.229749065224915	1	1	NaN	103	2	40	2	121	221	321	NaN	521	0.295750975608826	1	1	NaN	4387791.8956822	NaN	4387792.879057	4387793.39562722
21	19	0	0	90	36.1581920903955	36.241610738255	22	0.733406784012914	2	7	4	NaN	2	5	0.229749065224915	1	1	NaN	104	2	41	2	121	221	321	NaN	521	0.191730975173414	2	1	NaN	4387794.4960344	NaN	4387795.4793156	4387795.99587752
21	19	0	0	90	36.1581920903955	36.241610738255	21	0.700070112012327	2	7	1	NaN	2	4	0.229749065224915	1	1	NaN	105	2	42	2	121	221	321	NaN	521	0.171553026884794	2	1	NaN	4387796.9961761	NaN	4387797.9795978	4387798.49613157
21	19	0	0	90	36.1581920903955	36.241610738255	12	0.400040064007044	2	8	4	NaN	2	3	0.229749065224915	1	1	NaN	106	2	43	2	121	221	321	NaN	521	0.351998527534306	1	0	NaN	4387799.4797432	NaN	4387800.4631498	4387800.97970917
21	19	0	0	90	36.1581920903955	36.241610738255	12	0.400040064007044	2	1	3	NaN	1	4	0.229749065224915	1	1	NaN	107	2	44	2	121	221	321	NaN	521	0.901118527166545	1	1	NaN	4387802.1466811	NaN	4387803.1300934	4387803.64663797
21	19	0	0	90	36.1581920903955	36.241610738255	22	0.733406784012914	2	4	5	NaN	1	3	0.229749065224915	1	1	NaN	108	2	45	2	121	221	321	NaN	521	0.788415678776801	1	1	NaN	4387805.3636743	NaN	4387806.3469609	4387806.86361722
21	19	0	0	90	36.1581920903955	36.241610738255	17	0.566723424009979	2	5	5	NaN	1	3	0.229749065224915	1	1	NaN	109	2	46	2	121	221	321	NaN	521	0.712171674706042	1	1	NaN	4387808.4639739	NaN	4387809.4473606	4387809.96391523
21	19	0	0	90	36.1581920903955	36.241610738255	24	0.800080128014088	2	12	4	NaN	2	4	0.229749065224915	1	1	NaN	110	2	47	2	121	221	321	NaN	521	0.734187775291502	2	1	NaN	4387811.4975845	NaN	4387812.4810004	4387812.99754412
21	19	0	0	90	36.1581920903955	36.241610738255	20	0.66673344001174	2	5	6	NaN	1	3	0.229749065224915	1	1	NaN	111	2	48	2	121	221	321	NaN	521	1.45191892329603	1	1	NaN	4387814.5479	NaN	4387815.5312964	4387816.04784238
21	19	0	0	90	36.1581920903955	36.241610738255	7	0.233356704004109	2	8	3	NaN	2	4	0.229749065224915	1	1	NaN	112	2	49	2	121	221	321	NaN	521	0.292779575102031	2	1	NaN	4387818.3149484	NaN	4387819.298337	4387819.81488022
21	19	0	0	90	36.1581920903955	36.241610738255	9	0.300030048005283	2	2	4	NaN	1	4	0.229749065224915	1	1	NaN	113	2	50	2	121	221	321	NaN	521	0.794034044258296	1	1	NaN	4387821.3820655	NaN	4387822.3653157	4387822.88185976
21	19	0	0	90	36.1581920903955	36.241610738255	13	0.433376736007631	2	3	6	NaN	1	4	0.229749065224915	1	1	NaN	114	2	51	2	121	221	321	NaN	521	1.11698087491095	1	1	NaN	4387824.498975	NaN	4387825.4822815	4387825.99882532
21	19	0	0	90	36.1581920903955	36.241610738255	7	0.233356704004109	2	10	6	NaN	2	3	0.229749065224915	1	1	NaN	115	2	52	2	121	221	321	NaN	521	0.523147528059781	2	1	NaN	4387827.9325554	NaN	4387828.9159488	4387829.43250287
21	19	0	0	90	36.1581920903955	36.241610738255	11	0.366703392006457	2	12	6	NaN	2	5	0.229749065224915	1	1	NaN	116	2	53	2	121	221	321	NaN	521	0.513551774434745	2	1	NaN	4387830.7661652	NaN	4387831.7495641	4387832.26610233
21	19	0	0	90	36.1581920903955	36.241610738255	12	0.400040064007044	2	7	1	NaN	2	3	0.229749065224915	1	1	NaN	117	2	54	2	121	221	321	NaN	521	0.416109574958682	2	1	NaN	4387833.5997739	NaN	4387834.5831764	4387835.09971572
21	19	0	0	90	36.1581920903955	36.241610738255	9	0.300030048005283	2	4	6	NaN	1	4	0.229749065224915	1	1	NaN	118	2	55	2	121	221	321	NaN	521	0.346523479558527	1	1	NaN	4387836.3333699	NaN	4387837.3167823	4387837.83331542
21	19	0	0	90	36.1581920903955	36.241610738255	9	0.300030048005283	2	8	1	NaN	2	4	0.229749065224915	1	1	NaN	119	2	56	2	121	221	321	NaN	521	0.287013375200331	2	1	NaN	4387839.0169361	NaN	4387840.000368	4387840.51692132
21	19	0	0	90	36.1581920903955	36.241610738255	6	0.200020032003522	2	8	2	NaN	2	3	0.229749065224915	1	1	NaN	120	2	57	2	121	221	321	NaN	521	0.830979274585843	2	1	NaN	4387841.617232	NaN	4387842.6006304	4387843.11716643
21	19	0	0	90	36.1581920903955	36.241610738255	21	0.700070112012327	2	3	1	NaN	1	5	0.229749065224915	1	1	NaN	121	2	58	2	121	221	321	NaN	521	0.225005023181438	1	1	NaN	4387844.75087	NaN	4387845.7342646	4387846.25082848
21	19	0	0	90	36.1581920903955	36.241610738255	7	0.233356704004109	2	11	4	NaN	2	4	0.229749065224915	1	1	NaN	122	2	59	2	121	221	321	NaN	521	0.539247127249837	2	1	NaN	4387847.2844382	NaN	4387848.2678364	4387848.78439087
21	19	0	0	90	36.1581920903955	36.241610738255	25	0.833416800014675	2	5	6	NaN	1	3	0.229749065224915	1	1	NaN	123	2	60	2	121	221	321	NaN	521	0.352317174896598	1	1	NaN	4387850.1514068	NaN	4387851.1347963	4387851.65133892
21	19	0	0	90	36.1581920903955	36.241610738255	17	0.566723424009979	2	4	4	NaN	1	4	0.229749065224915	1	1	NaN	124	2	61	2	121	221	321	NaN	521	0.362307727336884	1	1	NaN	4387852.9016763	NaN	4387853.8850584	4387854.40162107
21	19	0	0	90	36.1581920903955	36.241610738255	7	0.233356704004109	2	9	2	NaN	2	3	0.229749065224915	1	1	NaN	125	2	62	2	121	221	321	NaN	521	0.270715371705592	1	0	NaN	4387855.585266	NaN	4387856.568671	4387857.08521143
21	19	0	0	90	36.1581920903955	36.241610738255	24	0.800080128014088	2	5	3	NaN	1	3	0.229749065224915	1	1	NaN	126	2	63	2	121	221	321	NaN	521	0.335371674969792	1	1	NaN	4387858.1688603	NaN	4387859.1522613	4387859.66879793
21	19	0	0	90	36.1581920903955	36.241610738255	12	0.400040064007044	2	11	5	NaN	2	4	0.229749065224915	1	1	NaN	127	3	1	2	121	221	321	NaN	521	0.284388523548841	1	0	NaN	4387863.4193288	NaN	4387864.4027766	4387864.91931448
21	19	0	0	90	36.1581920903955	36.241610738255	15	0.500050080008805	2	10	1	NaN	2	5	0.229749065224915	1	1	NaN	128	3	2	2	121	221	321	NaN	521	0.276373974978924	2	1	NaN	4387866.0196177	NaN	4387867.0030201	4387867.51957322
21	19	0	0	90	36.1581920903955	36.241610738255	20	0.66673344001174	2	8	5	NaN	2	4	0.229749065224915	1	1	NaN	129	3	3	2	121	221	321	NaN	521	0.844769575633109	2	1	NaN	4387868.6032159	NaN	4387869.5866048	4387870.10314982
21	19	0	0	90	36.1581920903955	36.241610738255	14	0.466713408008218	2	8	3	NaN	2	5	0.229749065224915	1	1	NaN	130	3	4	2	121	221	321	NaN	521	0.222516975365579	2	1	NaN	4387871.7535251	NaN	4387872.7369136	4387873.25347302
21	19	0	0	90	36.1581920903955	36.241610738255	20	0.66673344001174	2	10	2	NaN	2	4	0.229749065224915	1	1	NaN	131	3	5	2	121	221	321	NaN	521	0.352825074456632	2	1	NaN	4387874.2869605	NaN	4387875.2705009	4387875.78704693
21	19	0	0	90	36.1581920903955	36.241610738255	14	0.466713408008218	2	4	4	NaN	1	3	0.229749065224915	1	1	NaN	132	3	6	2	121	221	321	NaN	521	0.237862274982035	1	1	NaN	4387876.9540363	NaN	4387877.9374289	4387878.45397543
21	19	0	0	90	36.1581920903955	36.241610738255	17	0.566723424009979	2	2	4	NaN	1	3	0.229749065224915	1	1	NaN	133	3	7	2	121	221	321	NaN	521	0.247558027505875	1	1	NaN	4387879.5042859	NaN	4387880.4876774	4387881.00423357
21	19	0	0	90	36.1581920903955	36.241610738255	25	0.833416800014675	2	12	5	NaN	2	3	0.229749065224915	1	1	NaN	134	3	8	2	121	221	321	NaN	521	0.44875222351402	2	1	NaN	4387882.0710742	NaN	4387883.0545971	4387883.57115488
21	19	0	0	90	36.1581920903955	36.241610738255	8	0.266693376004696	2	11	6	NaN	2	5	0.229749065224915	1	1	NaN	135	3	9	2	121	221	321	NaN	521	0.209868227131665	2	1	NaN	4387884.8381431	NaN	4387885.8215362	4387886.33807837
21	19	0	0	90	36.1581920903955	36.241610738255	15	0.500050080008805	2	12	3	NaN	2	4	0.229749065224915	1	1	NaN	136	3	10	2	121	221	321	NaN	521	0.260181123390794	2	1	NaN	4387887.371717	NaN	4387888.3551184	4387888.87167188
21	19	0	0	90	36.1581920903955	36.241610738255	9	0.300030048005283	2	8	3	NaN	2	4	0.229749065224915	1	1	NaN	137	3	11	2	121	221	321	NaN	521	2.94930052664131	2	1	NaN	4387889.9385195	NaN	4387890.922043	4387891.43858497
21	19	0	0	90	36.1581920903955	36.241610738255	19	0.633396768011153	2	9	5	NaN	2	4	0.229749065224915	1	1	NaN	138	3	12	2	121	221	321	NaN	521	0.290502923540771	2	1	NaN	4387895.205818	NaN	4387896.1892142	4387896.70577048
21	19	0	0	90	36.1581920903955	36.241610738255	22	0.733406784012914	2	5	2	NaN	1	4	0.229749065224915	1	1	NaN	139	3	13	2	121	221	321	NaN	521	0.14584952685982	1	1	NaN	4387897.8060776	NaN	4387898.7895009	4387899.30603007
21	19	0	0	90	36.1581920903955	36.241610738255	13	0.433376736007631	2	6	4	NaN	1	5	0.229749065224915	1	1	NaN	140	3	14	2	121	221	321	NaN	521	0.246964374557137	1	1	NaN	4387900.272986	NaN	4387901.2564459	4387901.77292953
21	19	0	0	90	36.1581920903955	36.241610738255	12	0.400040064007044	2	2	4	NaN	1	3	0.229749065224915	1	1	NaN	141	3	15	2	121	221	321	NaN	521	0.296272327192128	1	1	NaN	4387902.8399125	NaN	4387903.8233444	4387904.33985467
21	19	0	0	90	36.1581920903955	36.241610738255	19	0.633396768011153	2	7	1	NaN	2	4	0.229749065224915	1	1	NaN	142	3	16	2	121	221	321	NaN	521	0.27987527474761	2	1	NaN	4387905.4401599	NaN	4387906.4235564	4387906.94010173
21	19	0	0	90	36.1581920903955	36.241610738255	0	0	1	1	2	NaN	1	4	0.229749065224915	1	1	NaN	143	3	17	2	111	211	311	NaN	511	0.303618227131665	1	1	NaN	4387908.0403915	NaN	4387909.0238107	4387909.54036357
21	19	0	0	90	36.1581920903955	36.241610738255	22	0.733406784012914	2	3	4	NaN	1	4	0.229749065224915	1	1	NaN	144	3	18	2	121	221	321	NaN	521	0.454582775011659	1	1	NaN	4387910.6572241	NaN	4387911.6407427	4387912.15729032
21	19	0	0	90	36.1581920903955	36.241610738255	7	0.233356704004109	2	4	5	NaN	1	4	0.229749065224915	1	1	NaN	145	3	19	2	121	221	321	NaN	521	0.320025075227022	1	1	NaN	4387913.4242868	NaN	4387914.4076748	4387914.92422093
21	19	0	0	90	36.1581920903955	36.241610738255	18	0.600060096010566	2	1	6	NaN	1	5	0.229749065224915	1	1	NaN	146	3	20	2	121	221	321	NaN	521	0.662041127681732	1	1	NaN	4387916.0578861	NaN	4387917.0412576	4387917.55781997
21	19	0	0	90	36.1581920903955	36.241610738255	21	0.700070112012327	2	8	1	NaN	2	5	0.229749065224915	1	1	NaN	147	3	21	2	121	221	321	NaN	521	0.21484759170562	2	1	NaN	4387919.0415012	NaN	4387920.0249035	4387920.54144631
21	19	0	0	90	36.1581920903955	36.241610738255	7	0.233356704004109	2	3	3	NaN	1	5	0.229749065224915	1	1	NaN	148	3	22	2	121	221	321	NaN	521	0.241662074811757	1	1	NaN	4387921.5584118	NaN	4387922.5417928	4387923.05835153
21	19	0	0	90	36.1581920903955	36.241610738255	16	0.533386752009392	2	2	2	NaN	1	4	0.229749065224915	1	1	NaN	149	3	23	2	121	221	321	NaN	521	0.363556179217994	1	1	NaN	4387924.1085193	NaN	4387925.0920509	4387925.60861142
21	19	0	0	90	36.1581920903955	36.241610738255	21	0.700070112012327	2	12	5	NaN	2	3	0.229749065224915	1	1	NaN	150	3	24	2	121	221	321	NaN	521	0.255734775215387	2	1	NaN	4387926.792123	NaN	4387927.7756574	4387928.29219902
21	19	0	0	90	36.1581920903955	36.241610738255	13	0.433376736007631	2	7	2	NaN	2	3	0.229749065224915	1	1	NaN	151	3	25	2	121	221	321	NaN	521	0.369147026911378	2	1	NaN	4387929.3591891	NaN	4387930.3425817	4387930.85912437
21	19	0	0	90	36.1581920903955	36.241610738255	13	0.433376736007631	2	11	6	NaN	2	3	0.229749065224915	1	1	NaN	152	3	26	2	121	221	321	NaN	521	0.349308527074754	2	1	NaN	4387932.0427707	NaN	4387933.0261702	4387933.54272407
21	19	0	0	90	36.1581920903955	36.241610738255	23	0.766743456013501	2	2	6	NaN	1	4	0.229749065224915	1	1	NaN	153	3	27	2	121	221	321	NaN	521	2.03456122707576	1	1	NaN	4387934.7097052	NaN	4387935.6931008	4387936.20965337
21	19	0	0	90	36.1581920903955	36.241610738255	11	0.366703392006457	2	9	5	NaN	2	3	0.229749065224915	1	1	NaN	154	3	28	2	121	221	321	NaN	521	0.340211275033653	2	1	NaN	4387939.0599941	NaN	4387940.0435268	4387940.56007292
21	19	0	0	90	36.1581920903955	36.241610738255	10	0.33336672000587	2	6	4	NaN	1	3	0.229749065224915	1	1	NaN	155	3	29	2	121	221	321	NaN	521	0.785702031105757	1	1	NaN	4387941.7102928	NaN	4387942.6937844	4387943.21033817
21	19	0	0	90	36.1581920903955	36.241610738255	12	0.400040064007044	2	8	5	NaN	2	3	0.229749065224915	1	1	NaN	156	3	30	2	121	221	321	NaN	521	0.301535774953663	2	1	NaN	4387944.8106951	NaN	4387945.7940941	4387946.31064092
21	19	0	0	90	36.1581920903955	36.241610738255	19	0.633396768011153	2	12	4	NaN	2	4	0.229749065224915	1	1	NaN	157	3	31	2	121	221	321	NaN	521	0.56444447580725	2	1	NaN	4387947.4276206	NaN	4387948.4110224	4387948.92755582
21	19	0	0	90	36.1581920903955	36.241610738255	7	0.233356704004109	2	1	4	NaN	1	4	0.229749065224915	1	1	NaN	158	3	32	2	121	221	321	NaN	521	0.26475917454809	1	1	NaN	4387950.3112269	NaN	4387951.2946029	4387951.81117903
21	19	0	0	90	36.1581920903955	36.241610738255	11	0.366703392006457	2	1	3	NaN	1	3	0.229749065224915	1	1	NaN	159	3	33	2	121	221	321	NaN	521	0.345290375873446	1	1	NaN	4387952.8948228	NaN	4387953.878208	4387954.39476062
21	19	0	0	90	36.1581920903955	36.241610738255	18	0.600060096010566	2	1	2	NaN	1	3	0.229749065224915	1	1	NaN	160	3	34	2	121	221	321	NaN	521	0.214220875874162	1	1	NaN	4387955.5616413	NaN	4387956.5451463	4387957.06169792
21	19	0	0	90	36.1581920903955	36.241610738255	7	0.233356704004109	2	5	1	NaN	1	4	0.229749065224915	1	1	NaN	161	3	35	2	121	221	321	NaN	521	0.752801422961056	1	1	NaN	4387958.0953317	NaN	4387959.0787213	4387959.59526808
21	19	0	0	90	36.1581920903955	36.241610738255	17	0.566723424009979	2	11	4	NaN	2	5	0.229749065224915	1	1	NaN	162	3	36	2	121	221	321	NaN	521	0.38984262291342	1	0	NaN	4387961.1622822	NaN	4387962.1457479	4387962.66224478
21	19	0	0	90	36.1581920903955	36.241610738255	9	0.300030048005283	2	10	2	NaN	2	5	0.229749065224915	1	1	NaN	163	3	37	2	121	221	321	NaN	521	0.257639327086508	2	1	NaN	4387963.8624317	NaN	4387964.8459561	4387965.36250827
21	19	0	0	90	36.1581920903955	36.241610738255	23	0.766743456013501	2	9	4	NaN	2	4	0.229749065224915	1	1	NaN	164	3	38	2	121	221	321	NaN	521	0.0104087749496102	2	1	NaN	4387966.4294985	NaN	4387967.4128798	4387967.92942853
21	19	0	0	90	36.1581920903955	36.241610738255	20	0.66673344001174	2	2	1	NaN	1	5	0.229749065224915	1	1	NaN	165	3	39	2	121	221	321	NaN	521	0.245564127340913	1	1	NaN	4387968.7463643	NaN	4387969.7297779	4387970.24633677
21	19	0	0	90	36.1581920903955	36.241610738255	13	0.433376736007631	2	12	5	NaN	2	5	0.229749065224915	1	1	NaN	166	3	40	2	121	221	321	NaN	521	1.07966377492994	2	1	NaN	4387971.2967228	NaN	4387972.2800006	4387972.79657593
21	19	0	0	90	36.1581920903955	36.241610738255	25	0.833416800014675	2	2	3	NaN	1	4	0.229749065224915	1	1	NaN	167	3	41	2	121	221	321	NaN	521	0.271097875200212	1	1	NaN	4387974.696947	NaN	4387975.6803718	4387976.19690403
21	19	0	0	90	36.1581920903955	36.241610738255	24	0.800080128014088	2	2	1	NaN	1	4	0.229749065224915	1	1	NaN	168	3	42	2	121	221	321	NaN	521	0.143627926707268	1	1	NaN	4387977.2806478	NaN	4387978.263987	4387978.78049897
21	19	0	0	90	36.1581920903955	36.241610738255	8	0.266693376004696	2	8	6	NaN	2	3	0.229749065224915	1	1	NaN	169	3	43	2	121	221	321	NaN	521	0.253540228120983	2	1	NaN	4387979.730801	NaN	4387980.7141852	4387981.23073657
21	19	0	0	90	36.1581920903955	36.241610738255	24	0.800080128014088	2	6	2	NaN	1	5	0.229749065224915	1	1	NaN	170	3	44	2	121	221	321	NaN	521	0.350624728016555	1	1	NaN	4387982.2976999	NaN	4387983.2811003	4387983.79765847
21	19	0	0	90	36.1581920903955	36.241610738255	24	0.800080128014088	2	2	4	NaN	1	4	0.229749065224915	1	1	NaN	171	3	45	2	121	221	321	NaN	521	0.307464627549052	1	1	NaN	4387984.9646345	NaN	4387985.9480377	4387986.46459587
21	19	0	0	90	36.1581920903955	36.241610738255	9	0.300030048005283	2	6	2	NaN	1	3	0.229749065224915	1	1	NaN	172	3	46	2	121	221	321	NaN	521	0.242525774985552	1	1	NaN	4387987.5815484	NaN	4387988.5649412	4387989.08149832
21	19	0	0	90	36.1581920903955	36.241610738255	6	0.200020032003522	2	5	4	NaN	1	3	0.229749065224915	1	1	NaN	173	3	47	2	121	221	321	NaN	521	0.699865527451038	1	1	NaN	4387990.1484908	NaN	4387991.1318859	4387991.64842987
21	19	0	0	90	36.1581920903955	36.241610738255	11	0.366703392006457	2	8	2	NaN	2	5	0.229749065224915	1	1	NaN	174	3	48	2	121	221	321	NaN	521	0.298668075352907	2	1	NaN	4387993.1654513	NaN	4387994.1488199	4387994.66537832
21	19	0	0	90	36.1581920903955	36.241610738255	10	0.33336672000587	2	8	1	NaN	2	4	0.229749065224915	1	1	NaN	175	3	49	2	121	221	321	NaN	521	0.321908975020051	2	1	NaN	4387995.7822687	NaN	4387996.7657575	4387997.28230972
21	19	0	0	90	36.1581920903955	36.241610738255	17	0.566723424009979	2	10	1	NaN	2	4	0.229749065224915	1	1	NaN	176	3	50	2	121	221	321	NaN	521	0.304039223119617	2	1	NaN	4387998.4159938	NaN	4387999.3993838	4387999.91589918
21	19	0	0	90	36.1581920903955	36.241610738255	17	0.566723424009979	2	1	1	NaN	1	3	0.229749065224915	1	1	NaN	177	3	51	2	121	221	321	NaN	521	0.247429626993835	1	1	NaN	4388001.0329076	NaN	4388002.0162802	4388002.53282997
21	19	0	0	90	36.1581920903955	36.241610738255	9	0.300030048005283	2	1	4	NaN	1	3	0.229749065224915	1	1	NaN	178	3	52	2	121	221	321	NaN	521	0.464566275477409	1	1	NaN	4388003.5998856	NaN	4388004.5831916	4388005.09974902
21	19	0	0	90	36.1581920903955	36.241610738255	24	0.800080128014088	2	9	6	NaN	2	4	0.229749065224915	1	1	NaN	179	3	53	2	121	221	321	NaN	521	0.313408471643925	2	1	NaN	4388006.366612	NaN	4388007.3501305	4388007.86667933
21	19	0	0	90	36.1581920903955	36.241610738255	25	0.833416800014675	2	7	3	NaN	2	5	0.229749065224915	1	1	NaN	180	3	54	2	121	221	321	NaN	521	0.325623939745128	2	1	NaN	4388009.050345	NaN	4388010.0337321	4388010.55028606
21	19	0	0	90	36.1581920903955	36.241610738255	11	0.366703392006457	2	3	6	NaN	1	5	0.229749065224915	1	1	NaN	181	3	55	2	121	221	321	NaN	521	0.540222926996648	1	1	NaN	4388011.6837856	NaN	4388012.6673287	4388013.18387747
21	19	0	0	90	36.1581920903955	36.241610738255	15	0.500050080008805	2	11	3	NaN	2	3	0.229749065224915	1	1	NaN	182	3	56	2	121	221	321	NaN	521	1.88151897490025	2	1	NaN	4388014.5507489	NaN	4388015.5343079	4388016.05081403
21	19	0	0	90	36.1581920903955	36.241610738255	23	0.766743456013501	2	6	3	NaN	1	5	0.229749065224915	1	1	NaN	183	3	57	2	121	221	321	NaN	521	0.256806178949773	1	1	NaN	4388018.7512845	NaN	4388019.7346813	4388020.25123672
21	19	0	0	90	36.1581920903955	36.241610738255	8	0.266693376004696	2	11	4	NaN	2	5	0.229749065224915	1	1	NaN	184	3	58	2	121	221	321	NaN	521	0.362218179740012	1	0	NaN	4388021.3181045	NaN	4388022.3015987	4388022.81815312
21	19	0	0	90	36.1581920903955	36.241610738255	22	0.733406784012914	2	7	3	NaN	2	4	0.229749065224915	1	1	NaN	185	3	59	2	121	221	321	NaN	521	0.268726571463048	2	1	NaN	4388024.0517797	NaN	4388025.0352032	4388025.55174213
21	19	0	0	90	36.1581920903955	36.241610738255	18	0.600060096010566	2	4	3	NaN	1	4	0.229749065224915	1	1	NaN	186	3	60	2	121	221	321	NaN	521	0.268548822961748	1	1	NaN	4388026.6354144	NaN	4388027.6187834	4388028.13532978
21	19	0	0	90	36.1581920903955	36.241610738255	12	0.400040064007044	2	5	4	NaN	1	3	0.229749065224915	1	1	NaN	187	3	61	2	121	221	321	NaN	521	0.301096395589411	1	1	NaN	4388029.2188511	NaN	4388030.2023734	4388030.7189377
21	19	0	0	90	36.1581920903955	36.241610738255	22	0.733406784012914	2	2	5	NaN	1	3	0.229749065224915	1	1	NaN	188	3	62	2	121	221	321	NaN	521	0.23655843641609	1	1	NaN	4388031.835895	NaN	4388032.8192982	4388033.33585266
21	19	0	0	90	36.1581920903955	36.241610738255	20	0.66673344001174	2	12	4	NaN	2	3	0.229749065224915	1	1	NaN	189	3	63	2	121	221	321	NaN	521	0.557993227615952	2	1	NaN	4388034.3860191	NaN	4388035.3695469	4388035.88609767
21	19	0	0	90	36.1581920903955	36.241610738255	13	0.433376736007631	2	5	2	NaN	1	3	0.229749065224915	1	1	NaN	190	4	1	2	121	221	321	NaN	521	0.21286572702229	1	1	NaN	4388045.7872581	NaN	4388046.77067	4388047.28722137
21	19	0	0	90	36.1581920903955	36.241610738255	13	0.433376736007631	2	9	5	NaN	2	4	0.229749065224915	1	1	NaN	191	4	2	2	121	221	321	NaN	521	0.311229336075485	2	1	NaN	4388048.3207215	NaN	4388049.3042411	4388049.82082176
21	19	0	0	90	36.1581920903955	36.241610738255	14	0.466713408008218	2	10	6	NaN	2	5	0.229749065224915	1	1	NaN	192	4	3	2	121	221	321	NaN	521	0.413689672015607	2	1	NaN	4388050.9544475	NaN	4388051.9378365	4388052.45438373
21	19	0	0	90	36.1581920903955	36.241610738255	19	0.633396768011153	2	9	5	NaN	2	5	0.229749065224915	1	1	NaN	193	4	4	2	121	221	321	NaN	521	0.288827674463391	2	1	NaN	4388053.6713799	NaN	4388054.6547561	4388055.17132553
21	19	0	0	90	36.1581920903955	36.241610738255	9	0.300030048005283	2	4	2	NaN	1	4	0.229749065224915	1	1	NaN	194	4	5	2	121	221	321	NaN	521	0.704385375604033	1	1	NaN	4388056.2715203	NaN	4388057.2550632	4388057.77157972
21	19	0	0	90	36.1581920903955	36.241610738255	12	0.400040064007044	2	3	5	NaN	1	4	0.229749065224915	1	1	NaN	195	4	6	2	121	221	321	NaN	521	0.783672123216093	2	0	NaN	4388059.2886237	NaN	4388060.2719798	4388060.78854048
21	19	0	0	90	36.1581920903955	36.241610738255	24	0.800080128014088	2	3	5	NaN	1	5	0.229749065224915	1	1	NaN	196	4	7	2	121	221	321	NaN	521	0.411331275478005	1	1	NaN	4388062.3889111	NaN	4388063.3722965	4388063.88885192
21	19	0	0	90	36.1581920903955	36.241610738255	13	0.433376736007631	2	9	6	NaN	2	5	0.229749065224915	1	1	NaN	197	4	8	2	121	221	321	NaN	521	0.374355174601078	2	1	NaN	4388065.1058279	NaN	4388066.0891507	4388066.60578512
21	19	0	0	90	36.1581920903955	36.241610738255	15	0.500050080008805	2	3	4	NaN	1	3	0.229749065224915	1	1	NaN	198	4	9	2	121	221	321	NaN	521	0.842848923057318	1	1	NaN	4388067.7894348	NaN	4388068.7728335	4388069.28938068
21	19	0	0	90	36.1581920903955	36.241610738255	8	0.266693376004696	2	6	5	NaN	1	5	0.229749065224915	1	1	NaN	199	4	10	2	121	221	321	NaN	521	0.323801575228572	1	1	NaN	4388070.956394	NaN	4388071.9398378	4388072.45635393
21	19	0	0	90	36.1581920903955	36.241610738255	11	0.366703392006457	2	12	2	NaN	2	5	0.229749065224915	1	1	NaN	200	4	11	2	121	221	321	NaN	521	0.305971772409976	2	1	NaN	4388073.5899923	NaN	4388074.5734054	4388075.08994493
21	19	0	0	90	36.1581920903955	36.241610738255	24	0.800080128014088	2	11	5	NaN	2	4	0.229749065224915	1	1	NaN	201	4	12	2	121	221	321	NaN	521	0.713259475305676	1	0	NaN	4388076.2069399	NaN	4388077.1903156	4388077.70686763
21	19	0	0	90	36.1581920903955	36.241610738255	10	0.33336672000587	2	5	2	NaN	1	3	0.229749065224915	1	1	NaN	202	4	13	2	121	221	321	NaN	521	0.415940574370325	1	1	NaN	4388079.2405444	NaN	4388080.2239458	4388080.74051023
21	19	0	0	90	36.1581920903955	36.241610738255	15	0.500050080008805	2	1	4	NaN	1	5	0.229749065224915	1	1	NaN	203	4	14	2	121	221	321	NaN	521	0.335654675029218	1	1	NaN	4388082.2408603	NaN	4388083.2242292	4388083.74079472
21	19	0	0	90	36.1581920903955	36.241610738255	6	0.200020032003522	2	11	2	NaN	2	4	0.229749065224915	1	1	NaN	204	4	15	2	121	221	321	NaN	521	0.237359426915646	2	1	NaN	4388084.8911173	NaN	4388085.8745163	4388086.39106277
21	19	0	0	90	36.1581920903955	36.241610738255	18	0.600060096010566	2	6	4	NaN	1	3	0.229749065224915	1	1	NaN	205	4	16	2	121	221	321	NaN	521	0.262865044176579	1	1	NaN	4388087.4413606	NaN	4388088.4247554	4388088.94131656
21	19	0	0	90	36.1581920903955	36.241610738255	8	0.266693376004696	2	7	3	NaN	2	4	0.229749065224915	1	1	NaN	206	4	17	2	121	221	321	NaN	521	0.311624875292182	2	1	NaN	4388090.0249772	NaN	4388091.0083417	4388091.52489282
21	19	0	0	90	36.1581920903955	36.241610738255	16	0.533386752009392	2	4	3	NaN	1	5	0.229749065224915	1	1	NaN	207	4	18	2	121	221	321	NaN	521	0.262393743731081	1	1	NaN	4388092.6418541	NaN	4388093.6252693	4388094.14182456
21	19	0	0	90	36.1581920903955	36.241610738255	14	0.466713408008218	2	5	1	NaN	1	3	0.229749065224915	1	1	NaN	208	4	19	2	121	221	321	NaN	521	0.270948126912117	1	1	NaN	4388095.2253198	NaN	4388096.2088481	4388096.72540817
21	19	0	0	90	36.1581920903955	36.241610738255	0	0	1	8	1	NaN	2	5	0.229749065224915	1	1	NaN	209	4	20	2	111	211	311	NaN	511	0.239341030828655	2	1	NaN	4388097.8089156	NaN	4388098.7924414	4388099.30899007
21	19	0	0	90	36.1581920903955	36.241610738255	13	0.433376736007631	2	4	6	NaN	1	3	0.229749065224915	1	1	NaN	210	4	21	2	121	221	321	NaN	521	0.241192379035056	2	0	NaN	4388100.3593005	NaN	4388101.3427279	4388101.85924852
21	19	0	0	90	36.1581920903955	36.241610738255	17	0.566723424009979	2	3	6	NaN	1	3	0.229749065224915	1	1	NaN	211	4	22	2	121	221	321	NaN	521	0.250792674720287	1	1	NaN	4388102.9095365	NaN	4388103.8929344	4388104.40948542
21	19	0	0	90	36.1581920903955	36.241610738255	11	0.366703392006457	2	7	3	NaN	2	3	0.229749065224915	1	1	NaN	212	4	23	2	121	221	321	NaN	521	0.252038727514446	2	1	NaN	4388105.4763469	NaN	4388106.4598607	4388106.97641007
21	19	0	0	90	36.1581920903955	36.241610738255	9	0.300030048005283	2	5	6	NaN	1	4	0.229749065224915	1	1	NaN	213	4	24	2	121	221	321	NaN	521	0.964806674979627	1	1	NaN	4388108.0434158	NaN	4388109.0267768	4388109.54332412
21	19	0	0	90	36.1581920903955	36.241610738255	10	0.33336672000587	2	11	1	NaN	2	4	0.229749065224915	1	1	NaN	214	4	25	2	121	221	321	NaN	521	0.281321327202022	2	1	NaN	4388111.3270432	NaN	4388112.3104217	4388112.82698847
21	19	0	0	90	36.1581920903955	36.241610738255	16	0.533386752009392	2	12	1	NaN	2	4	0.229749065224915	1	1	NaN	215	4	26	2	121	221	321	NaN	521	0.225251474417746	2	1	NaN	4388113.927281	NaN	4388114.9106049	4388115.42724243
21	19	0	0	90	36.1581920903955	36.241610738255	6	0.200020032003522	2	3	2	NaN	1	3	0.229749065224915	1	1	NaN	216	4	27	2	121	221	321	NaN	521	0.963841127231717	1	1	NaN	4388116.4608637	NaN	4388117.4442809	4388117.96082517
21	19	0	0	90	36.1581920903955	36.241610738255	16	0.533386752009392	2	11	1	NaN	2	3	0.229749065224915	1	1	NaN	217	4	28	2	121	221	321	NaN	521	0.311648523434997	2	1	NaN	4388119.7445825	NaN	4388120.727932	4388121.24448018
21	19	0	0	90	36.1581920903955	36.241610738255	19	0.633396768011153	2	6	6	NaN	1	4	0.229749065224915	1	1	NaN	218	4	29	2	121	221	321	NaN	521	1.08703332673758	1	1	NaN	4388122.3614575	NaN	4388123.3448581	4388123.86140737
21	19	0	0	90	36.1581920903955	36.241610738255	11	0.366703392006457	2	8	4	NaN	2	5	0.229749065224915	1	1	NaN	219	4	30	2	121	221	321	NaN	521	0.278483875095844	2	1	NaN	4388125.7617916	NaN	4388126.7451866	4388127.26173893
21	19	0	0	90	36.1581920903955	36.241610738255	21	0.700070112012327	2	10	5	NaN	2	4	0.229749065224915	1	1	NaN	220	4	31	2	121	221	321	NaN	521	0.206331927329302	2	1	NaN	4388128.3619829	NaN	4388129.3454661	4388129.86199197
21	19	0	0	90	36.1581920903955	36.241610738255	0	0	1	10	4	NaN	2	3	0.229749065224915	1	1	NaN	221	4	32	2	111	211	311	NaN	511	0.265636422671378	2	1	NaN	4388130.878977	NaN	4388131.8623486	4388132.37890218
21	19	0	0	90	36.1581920903955	36.241610738255	9	0.300030048005283	2	10	6	NaN	2	4	0.229749065224915	1	1	NaN	222	4	33	2	121	221	321	NaN	521	0.0104144755750895	2	1	NaN	4388133.4625427	NaN	4388134.4459467	4388134.96248392
21	19	0	0	90	36.1581920903955	36.241610738255	6	0.200020032003522	2	5	6	NaN	1	4	0.229749065224915	1	1	NaN	223	4	34	2	121	221	321	NaN	521	0.244708927348256	1	1	NaN	4388135.7793772	NaN	4388136.7628673	4388137.27939077
21	19	0	0	90	36.1581920903955	36.241610738255	12	0.400040064007044	2	6	3	NaN	1	5	0.229749065224915	1	1	NaN	224	4	35	2	121	221	321	NaN	521	0.333930127322674	1	1	NaN	4388138.3463598	NaN	4388139.3297507	4388139.84630047
21	19	0	0	90	36.1581920903955	36.241610738255	18	0.600060096010566	2	11	3	NaN	2	3	0.229749065224915	1	1	NaN	225	4	36	2	121	221	321	NaN	521	0.180601423606277	2	1	NaN	4388140.9799209	NaN	4388141.9633488	4388142.47989188
21	19	0	0	90	36.1581920903955	36.241610738255	16	0.533386752009392	2	4	3	NaN	1	5	0.229749065224915	1	1	NaN	226	4	37	2	121	221	321	NaN	521	0.320793774910271	1	1	NaN	4388143.4635195	NaN	4388144.4469259	4388144.96346753
21	19	0	0	90	36.1581920903955	36.241610738255	24	0.800080128014088	2	8	6	NaN	2	5	0.229749065224915	1	1	NaN	227	4	38	2	121	221	321	NaN	521	0.279433075338602	2	1	NaN	4388146.097115	NaN	4388147.0805121	4388147.59706903
21	19	0	0	90	36.1581920903955	36.241610738255	20	0.66673344001174	2	9	1	NaN	2	4	0.229749065224915	1	1	NaN	228	4	39	2	121	221	321	NaN	521	1.40682112798095	2	1	NaN	4388148.6973779	NaN	4388149.6807673	4388150.19731757
21	19	0	0	90	36.1581920903955	36.241610738255	22	0.733406784012914	2	8	5	NaN	2	5	0.229749065224915	1	1	NaN	229	4	40	2	121	221	321	NaN	521	0.361934275366366	2	1	NaN	4388152.4144087	NaN	4388153.3978053	4388153.91434562
21	19	0	0	90	36.1581920903955	36.241610738255	8	0.266693376004696	2	3	3	NaN	1	5	0.229749065224915	1	1	NaN	230	4	41	2	121	221	321	NaN	521	0.238631144165993	1	1	NaN	4388155.2980118	NaN	4388156.2814216	4388156.79796806
21	19	0	0	90	36.1581920903955	36.241610738255	7	0.233356704004109	2	7	2	NaN	2	5	0.229749065224915	1	1	NaN	231	4	42	2	121	221	321	NaN	521	0.359972822479904	1	0	NaN	4388157.8482365	NaN	4388158.8316705	4388159.34821738
21	19	0	0	90	36.1581920903955	36.241610738255	20	0.66673344001174	2	8	6	NaN	2	4	0.229749065224915	1	1	NaN	232	4	43	2	121	221	321	NaN	521	0.269153475761414	2	1	NaN	4388160.5152169	NaN	4388161.4985978	4388162.01514522
21	19	0	0	90	36.1581920903955	36.241610738255	20	0.66673344001174	2	12	6	NaN	2	4	0.229749065224915	1	1	NaN	233	4	44	2	121	221	321	NaN	521	0.317941322922707	2	1	NaN	4388163.0987843	NaN	4388164.0821814	4388164.59872968
21	19	0	0	90	36.1581920903955	36.241610738255	16	0.533386752009392	2	7	6	NaN	2	3	0.229749065224915	1	1	NaN	234	4	45	2	121	221	321	NaN	521	0.260313875041902	2	1	NaN	4388165.7323811	NaN	4388166.71577	4388167.23231792
21	19	0	0	90	36.1581920903955	36.241610738255	23	0.766743456013501	2	10	2	NaN	2	4	0.229749065224915	1	1	NaN	235	4	46	2	121	221	321	NaN	521	0.292719575576484	2	1	NaN	4388168.3159657	NaN	4388169.2993628	4388169.81591242
21	19	0	0	90	36.1581920903955	36.241610738255	19	0.633396768011153	2	3	6	NaN	1	5	0.229749065224915	1	1	NaN	236	4	47	2	121	221	321	NaN	521	0.364177675917745	1	1	NaN	4388170.9162275	NaN	4388171.8996232	4388172.41616462
21	19	0	0	90	36.1581920903955	36.241610738255	16	0.533386752009392	2	9	1	NaN	2	5	0.229749065224915	1	1	NaN	237	4	48	2	121	221	321	NaN	521	3.72874312661588	2	1	NaN	4388173.5996869	NaN	4388174.5832137	4388175.09976757
21	19	0	0	90	36.1581920903955	36.241610738255	25	0.833416800014675	2	3	3	NaN	1	3	0.229749065224915	1	1	NaN	238	4	49	2	121	221	321	NaN	521	0.678018426522613	1	1	NaN	4388179.6504203	NaN	4388180.6338092	4388181.15036187
21	19	0	0	90	36.1581920903955	36.241610738255	17	0.566723424009979	2	11	2	NaN	2	4	0.229749065224915	1	1	NaN	239	4	50	2	121	221	321	NaN	521	0.325667823664844	2	1	NaN	4388182.6507192	NaN	4388183.6341064	4388184.15064468
21	19	0	0	90	36.1581920903955	36.241610738255	0	0	1	8	2	NaN	2	4	0.229749065224915	1	1	NaN	240	4	51	2	111	211	311	NaN	511	0.331420875154436	2	1	NaN	4388185.3009535	NaN	4388186.2843747	4388186.80091252
21	19	0	0	90	36.1581920903955	36.241610738255	21	0.700070112012327	2	9	6	NaN	2	5	0.229749065224915	1	1	NaN	241	4	52	2	121	221	321	NaN	521	0.321000975556672	2	1	NaN	4388187.9512265	NaN	4388188.9346199	4388189.45117712
21	19	0	0	90	36.1581920903955	36.241610738255	13	0.433376736007631	2	11	1	NaN	2	3	0.229749065224915	1	1	NaN	242	4	53	2	121	221	321	NaN	521	0.367318095639348	2	1	NaN	4388190.5847356	NaN	4388191.5682111	4388192.0847753
21	19	0	0	90	36.1581920903955	36.241610738255	8	0.266693376004696	2	3	2	NaN	1	4	0.229749065224915	1	1	NaN	243	4	54	2	121	221	321	NaN	521	0.409493874758482	1	1	NaN	4388193.3351014	NaN	4388194.3184886	4388194.83504093
21	19	0	0	90	36.1581920903955	36.241610738255	18	0.600060096010566	2	2	3	NaN	1	5	0.229749065224915	1	1	NaN	244	4	55	2	121	221	321	NaN	521	0.388385491445661	1	1	NaN	4388196.0520285	NaN	4388197.0354195	4388197.55197701
21	19	0	0	90	36.1581920903955	36.241610738255	14	0.466713408008218	2	4	2	NaN	1	3	0.229749065224915	1	1	NaN	245	4	56	2	121	221	321	NaN	521	0.264160023070872	2	0	NaN	4388198.7521605	NaN	4388199.7356792	4388200.25223808
21	19	0	0	90	36.1581920903955	36.241610738255	11	0.366703392006457	2	4	2	NaN	1	4	0.229749065224915	1	1	NaN	246	4	57	2	121	221	321	NaN	521	0.344363627955317	1	1	NaN	4388201.3358763	NaN	4388202.3192879	4388202.83582567
21	19	0	0	90	36.1581920903955	36.241610738255	6	0.200020032003522	2	9	1	NaN	2	3	0.229749065224915	1	1	NaN	247	4	58	2	121	221	321	NaN	521	0.253884422592819	2	1	NaN	4388204.0028194	NaN	4388204.9862129	4388205.50274738
21	19	0	0	90	36.1581920903955	36.241610738255	7	0.233356704004109	2	12	6	NaN	2	5	0.229749065224915	1	1	NaN	248	4	59	2	121	221	321	NaN	521	0.278786620125175	2	1	NaN	4388206.5697175	NaN	4388207.5531149	4388208.06966978
21	19	0	0	90	36.1581920903955	36.241610738255	11	0.366703392006457	2	2	5	NaN	1	3	0.229749065224915	1	1	NaN	249	4	60	2	121	221	321	NaN	521	0.286359675228596	1	1	NaN	4388209.1699904	NaN	4388210.1533751	4388210.66992232
21	19	0	0	90	36.1581920903955	36.241610738255	0	0	1	3	6	NaN	1	3	0.229749065224915	1	1	NaN	250	4	61	2	111	211	311	NaN	511	0.0102833919227123	1	1	NaN	4388211.7701068	NaN	4388212.753629	4388213.27018381
21	19	0	0	90	36.1581920903955	36.241610738255	7	0.233356704004109	2	2	2	NaN	1	5	0.229749065224915	1	1	NaN	251	4	62	2	121	221	321	NaN	521	0.321586974896491	1	1	NaN	4388214.0871644	NaN	4388215.0705184	4388215.58707312
21	19	0	0	90	36.1581920903955	36.241610738255	22	0.733406784012914	2	4	2	NaN	1	5	0.229749065224915	1	1	NaN	252	4	63	2	121	221	321	NaN	521	0.295594074763358	2	0	NaN	4388216.7207201	NaN	4388217.7041655	4388218.22065603
21	19	0	0	90	36.1581920903955	36.241610738255	19	0.633396768011153	2	5	2	NaN	1	4	0.229749065224915	1	1	NaN	253	5	1	2	121	221	321	NaN	521	0.282252027653158	1	1	NaN	4388222.8379904	NaN	4388223.8214069	4388224.33793077
21	19	0	0	90	36.1581920903955	36.241610738255	19	0.633396768011153	2	8	3	NaN	2	4	0.229749065224915	1	1	NaN	254	5	2	2	121	221	321	NaN	521	0.0104126753285527	2	1	NaN	4388225.4381304	NaN	4388226.4216725	4388226.93818802
21	19	0	0	90	36.1581920903955	36.241610738255	23	0.766743456013501	2	2	4	NaN	1	5	0.229749065224915	1	1	NaN	255	5	3	2	121	221	321	NaN	521	0.347130035981536	1	1	NaN	4388227.8051423	NaN	4388228.7885452	4388229.30508406
21	19	0	0	90	36.1581920903955	36.241610738255	12	0.400040064007044	2	12	1	NaN	2	4	0.229749065224915	1	1	NaN	256	5	4	2	121	221	321	NaN	521	0.328575374558568	2	1	NaN	4388230.4720038	NaN	4388231.455438	4388231.97201603
21	19	0	0	90	36.1581920903955	36.241610738255	21	0.700070112012327	2	2	6	NaN	1	3	0.229749065224915	1	1	NaN	257	5	5	2	121	221	321	NaN	521	0.287093674764037	1	1	NaN	4388233.1055411	NaN	4388234.0891424	4388234.60559782
21	19	0	0	90	36.1581920903955	36.241610738255	6	0.200020032003522	2	10	5	NaN	2	4	0.229749065224915	1	1	NaN	258	5	6	2	121	221	321	NaN	521	0.198166199959815	2	1	NaN	4388235.7059973	NaN	4388236.6893456	4388237.2058724
21	19	0	0	90	36.1581920903955	36.241610738255	22	0.733406784012914	2	9	4	NaN	2	4	0.229749065224915	1	1	NaN	259	5	7	2	121	221	321	NaN	521	0.306269027292728	2	1	NaN	4388238.2061565	NaN	4388239.1895575	4388239.70611037
21	19	0	0	90	36.1581920903955	36.241610738255	22	0.733406784012914	2	1	2	NaN	1	5	0.229749065224915	1	1	NaN	260	5	8	2	121	221	321	NaN	521	0.169261323288083	1	1	NaN	4388240.8230825	NaN	4388241.806483	4388242.32302108
21	19	0	0	90	36.1581920903955	36.241610738255	19	0.633396768011153	2	11	3	NaN	2	5	0.229749065224915	1	1	NaN	261	5	9	2	121	221	321	NaN	521	0.189681775867939	2	1	NaN	4388243.3066639	NaN	4388244.290058	4388244.80660362
21	19	0	0	90	36.1581920903955	36.241610738255	9	0.300030048005283	2	7	4	NaN	2	3	0.229749065224915	1	1	NaN	262	5	10	2	121	221	321	NaN	521	0.281508875079453	2	1	NaN	4388245.8068928	NaN	4388246.7903063	4388247.30685703
21	19	0	0	90	36.1581920903955	36.241610738255	16	0.533386752009392	2	2	1	NaN	1	3	0.229749065224915	1	1	NaN	263	5	11	2	121	221	321	NaN	521	0.264981375075877	1	1	NaN	4388248.4071731	NaN	4388249.3905604	4388249.90710493
21	19	0	0	90	36.1581920903955	36.241610738255	24	0.800080128014088	2	7	6	NaN	2	3	0.229749065224915	1	1	NaN	264	5	12	2	121	221	321	NaN	521	0.289746675640345	2	1	NaN	4388250.9907232	NaN	4388251.9741406	4388252.49069512
21	19	0	0	90	36.1581920903955	36.241610738255	16	0.533386752009392	2	3	5	NaN	1	3	0.229749065224915	1	1	NaN	265	5	13	2	121	221	321	NaN	521	0.265450575388968	1	1	NaN	4388253.5910072	NaN	4388254.5744524	4388255.09094352
21	19	0	0	90	36.1581920903955	36.241610738255	16	0.533386752009392	2	7	1	NaN	2	5	0.229749065224915	1	1	NaN	266	5	14	2	121	221	321	NaN	521	0.274271575734019	2	1	NaN	4388256.1745926	NaN	4388257.157989	4388257.67454042
21	19	0	0	90	36.1581920903955	36.241610738255	19	0.633396768011153	2	6	6	NaN	1	4	0.229749065224915	1	1	NaN	267	5	15	2	121	221	321	NaN	521	0.250540475361049	1	1	NaN	4388258.758052	NaN	4388259.7415677	4388260.25812683
21	19	0	0	90	36.1581920903955	36.241610738255	23	0.766743456013501	2	3	5	NaN	1	5	0.229749065224915	1	1	NaN	268	5	16	2	121	221	321	NaN	521	0.259574774652719	1	1	NaN	4388261.3251056	NaN	4388262.3084824	4388262.82503593
21	19	0	0	90	36.1581920903955	36.241610738255	24	0.800080128014088	2	5	3	NaN	1	5	0.229749065224915	1	1	NaN	269	5	17	2	121	221	321	NaN	521	0.276170527562499	1	1	NaN	4388263.9086833	NaN	4388264.8921487	4388265.40862787
21	19	0	0	90	36.1581920903955	36.241610738255	12	0.400040064007044	2	9	1	NaN	2	5	0.229749065224915	1	1	NaN	270	5	18	2	121	221	321	NaN	521	0.299949374981225	2	1	NaN	4388266.5089637	NaN	4388267.4923326	4388268.00888612
21	19	0	0	90	36.1581920903955	36.241610738255	17	0.566723424009979	2	1	4	NaN	1	4	0.229749065224915	1	1	NaN	271	5	19	2	121	221	321	NaN	521	0.282786226831377	1	1	NaN	4388269.1258605	NaN	4388270.1092902	4388270.62581027
21	19	0	0	90	36.1581920903955	36.241610738255	10	0.33336672000587	2	10	4	NaN	2	4	0.229749065224915	1	1	NaN	272	5	20	2	121	221	321	NaN	521	0.194188175722957	2	1	NaN	4388271.7261059	NaN	4388272.7095139	4388273.22606562
21	19	0	0	90	36.1581920903955	36.241610738255	8	0.266693376004696	2	5	1	NaN	1	4	0.229749065224915	1	1	NaN	273	5	21	2	121	221	321	NaN	521	0.637692875228822	1	1	NaN	4388274.2430237	NaN	4388275.2264127	4388275.74297582
21	19	0	0	90	36.1581920903955	36.241610738255	8	0.266693376004696	2	9	3	NaN	2	5	0.229749065224915	1	1	NaN	274	5	22	2	121	221	321	NaN	521	0.351160975173116	2	1	NaN	4388277.1933163	NaN	4388278.1767129	4388278.69326022
21	19	0	0	90	36.1581920903955	36.241610738255	21	0.700070112012327	2	6	3	NaN	1	5	0.229749065224915	1	1	NaN	275	5	23	2	121	221	321	NaN	521	0.348168026655912	1	1	NaN	4388279.8601402	NaN	4388280.8436511	4388281.36019777
21	19	0	0	90	36.1581920903955	36.241610738255	24	0.800080128014088	2	9	2	NaN	2	4	0.229749065224915	1	1	NaN	276	5	24	2	121	221	321	NaN	521	0.4415527228266	2	1	NaN	4388282.5271837	NaN	4388283.510543	4388284.02711448
21	19	0	0	90	36.1581920903955	36.241610738255	17	0.566723424009979	2	5	4	NaN	1	5	0.229749065224915	1	1	NaN	277	5	25	2	121	221	321	NaN	521	0.147049422375858	1	1	NaN	4388285.2774641	NaN	4388286.2608531	4388286.77738728
21	19	0	0	90	36.1581920903955	36.241610738255	9	0.300030048005283	2	7	4	NaN	2	5	0.229749065224915	1	1	NaN	278	5	26	2	121	221	321	NaN	521	0.200218374840915	2	1	NaN	4388287.7443697	NaN	4388288.7277489	4388289.24430342
21	19	0	0	90	36.1581920903955	36.241610738255	0	0	1	2	5	NaN	1	4	0.229749065224915	1	1	NaN	279	5	27	2	111	211	311	NaN	511	0.315506774932146	1	1	NaN	4388290.261301	NaN	4388291.2447134	4388291.76121303
21	19	0	0	90	36.1581920903955	36.241610738255	19	0.633396768011153	2	5	5	NaN	1	4	0.229749065224915	1	1	NaN	280	5	28	2	121	221	321	NaN	521	0.289514075033367	1	1	NaN	4388292.894867	NaN	4388293.8782536	4388294.39481342
21	19	0	0	90	36.1581920903955	36.241610738255	6	0.200020032003522	2	7	4	NaN	2	4	0.229749065224915	1	1	NaN	281	5	29	2	121	221	321	NaN	521	0.29767267499119	2	1	NaN	4388295.4951202	NaN	4388296.4785159	4388296.99505593
21	19	0	0	90	36.1581920903955	36.241610738255	24	0.800080128014088	2	10	3	NaN	2	3	0.229749065224915	1	1	NaN	282	5	30	2	121	221	321	NaN	521	0.55275437515229	2	1	NaN	4388298.1120338	NaN	4388299.095451	4388299.61198763
21	19	0	0	90	36.1581920903955	36.241610738255	12	0.400040064007044	2	3	6	NaN	1	5	0.229749065224915	1	1	NaN	283	5	31	2	121	221	321	NaN	521	0.285357727669179	1	1	NaN	4388300.9789182	NaN	4388301.962411	4388302.47893787
21	19	0	0	90	36.1581920903955	36.241610738255	17	0.566723424009979	2	8	3	NaN	2	4	0.229749065224915	1	1	NaN	284	5	32	2	121	221	321	NaN	521	0.189219643361866	2	1	NaN	4388303.5792419	NaN	4388304.5626378	4388305.07919316
21	19	0	0	90	36.1581920903955	36.241610738255	12	0.400040064007044	2	12	2	NaN	2	5	0.229749065224915	1	1	NaN	285	5	33	2	121	221	321	NaN	521	0.337288674898446	2	1	NaN	4388306.0794754	NaN	4388307.0628953	4388307.57942742
21	19	0	0	90	36.1581920903955	36.241610738255	15	0.500050080008805	2	9	1	NaN	2	3	0.229749065224915	1	1	NaN	286	5	34	2	121	221	321	NaN	521	0.415127474814653	2	1	NaN	4388308.7297502	NaN	4388309.7131842	4388310.22969532
21	19	0	0	90	36.1581920903955	36.241610738255	21	0.700070112012327	2	11	4	NaN	2	5	0.229749065224915	1	1	NaN	287	5	35	2	121	221	321	NaN	521	0.289914827793837	2	1	NaN	4388311.4467485	NaN	4388312.4300844	4388312.94663417
21	19	0	0	90	36.1581920903955	36.241610738255	9	0.300030048005283	2	2	6	NaN	1	3	0.229749065224915	1	1	NaN	288	5	36	2	121	221	321	NaN	521	0.424986775033176	2	0	NaN	4388314.0636021	NaN	4388315.047061	4388315.56355193
21	19	0	0	90	36.1581920903955	36.241610738255	16	0.533386752009392	2	1	3	NaN	1	5	0.229749065224915	1	1	NaN	289	5	37	2	121	221	321	NaN	521	0.443452327512205	1	1	NaN	4388316.7972088	NaN	4388317.780498	4388318.29715787
21	19	0	0	90	36.1581920903955	36.241610738255	0	0	1	6	4	NaN	1	3	0.229749065224915	1	1	NaN	290	5	38	2	111	211	311	NaN	511	0.277112274430692	1	1	NaN	4388319.5474853	NaN	4388320.5308783	4388321.04742743
21	19	0	0	90	36.1581920903955	36.241610738255	18	0.600060096010566	2	11	5	NaN	2	4	0.229749065224915	1	1	NaN	291	5	39	2	121	221	321	NaN	521	0.35679242759943	2	1	NaN	4388322.147731	NaN	4388323.1311219	4388323.64767787
21	19	0	0	90	36.1581920903955	36.241610738255	22	0.733406784012914	2	5	4	NaN	1	3	0.229749065224915	1	1	NaN	292	5	40	2	121	221	321	NaN	521	0.185851074755192	1	1	NaN	4388324.8146635	NaN	4388325.7980585	4388326.31460602
21	19	0	0	90	36.1581920903955	36.241610738255	23	0.766743456013501	2	1	5	NaN	1	3	0.229749065224915	1	1	NaN	293	5	41	2	121	221	321	NaN	521	0.245659226551652	1	1	NaN	4388327.3149086	NaN	4388328.2983194	4388328.81485307
21	19	0	0	90	36.1581920903955	36.241610738255	15	0.500050080008805	2	4	4	NaN	1	5	0.229749065224915	1	1	NaN	294	5	42	2	121	221	321	NaN	521	3.51072067581117	1	1	NaN	4388329.881826	NaN	4388330.8652498	4388331.38177522
21	19	0	0	90	36.1581920903955	36.241610738255	25	0.833416800014675	2	1	1	NaN	1	3	0.229749065224915	1	1	NaN	295	5	43	2	121	221	321	NaN	521	0.25344739574939	1	1	NaN	4388335.6990599	NaN	4388336.6824627	4388337.1990201
21	19	0	0	90	36.1581920903955	36.241610738255	22	0.733406784012914	2	10	3	NaN	2	5	0.229749065224915	1	1	NaN	296	5	44	2	121	221	321	NaN	521	0.33424757514149	2	1	NaN	4388338.4826453	NaN	4388339.4660782	4388339.98261502
21	19	0	0	90	36.1581920903955	36.241610738255	10	0.33336672000587	2	7	3	NaN	2	3	0.229749065224915	1	1	NaN	297	5	45	2	121	221	321	NaN	521	0.243778879754245	2	1	NaN	4388341.1329279	NaN	4388342.1163254	4388342.63287342
21	19	0	0	90	36.1581920903955	36.241610738255	11	0.366703392006457	2	10	4	NaN	2	5	0.229749065224915	1	1	NaN	298	5	46	2	121	221	321	NaN	521	0.293389675207436	2	1	NaN	4388343.6830985	NaN	4388344.6665827	4388345.18312802
21	19	0	0	90	36.1581920903955	36.241610738255	10	0.33336672000587	2	7	3	NaN	2	5	0.229749065224915	1	1	NaN	299	5	47	2	121	221	321	NaN	521	2.7730584749952	2	1	NaN	4388346.2834492	NaN	4388347.266785	4388347.78338053
21	19	0	0	90	36.1581920903955	36.241610738255	0	0	1	9	6	NaN	2	3	0.229749065224915	1	1	NaN	300	5	48	2	111	211	311	NaN	511	0.313323174603283	1	0	NaN	4388351.3672246	NaN	4388352.350663	4388352.86720673
21	19	0	0	90	36.1581920903955	36.241610738255	14	0.466713408008218	2	9	4	NaN	2	3	0.229749065224915	1	1	NaN	301	5	49	2	121	221	321	NaN	521	1.5679964274168	2	1	NaN	4388354.0008989	NaN	4388354.9842602	4388355.50081097
21	19	0	0	90	36.1581920903955	36.241610738255	20	0.66673344001174	2	6	2	NaN	1	3	0.229749065224915	1	1	NaN	302	5	50	2	121	221	321	NaN	521	0.124163775704801	1	1	NaN	4388357.884447	NaN	4388358.8680019	4388359.38452312
21	19	0	0	90	36.1581920903955	36.241610738255	24	0.800080128014088	2	4	1	NaN	1	4	0.229749065224915	1	1	NaN	303	5	51	2	121	221	321	NaN	521	0.106303879059851	1	1	NaN	4388360.3181694	NaN	4388361.3015524	4388361.81809312
21	19	0	0	90	36.1581920903955	36.241610738255	19	0.633396768011153	2	10	5	NaN	2	4	0.229749065224915	1	1	NaN	304	5	52	2	121	221	321	NaN	521	0.225919323042035	2	1	NaN	4388362.7350495	NaN	4388363.7184518	4388364.23499418
21	19	0	0	90	36.1581920903955	36.241610738255	13	0.433376736007631	2	2	2	NaN	1	5	0.229749065224915	1	1	NaN	305	5	53	2	121	221	321	NaN	521	0.228209375403821	1	1	NaN	4388365.2685032	NaN	4388366.2520294	4388366.76857482
21	19	0	0	90	36.1581920903955	36.241610738255	10	0.33336672000587	2	6	2	NaN	1	5	0.229749065224915	1	1	NaN	306	5	54	2	121	221	321	NaN	521	0.254097674973309	1	1	NaN	4388367.8022061	NaN	4388368.7856157	4388369.30215483
21	19	0	0	90	36.1581920903955	36.241610738255	7	0.233356704004109	2	5	1	NaN	1	5	0.229749065224915	1	1	NaN	307	5	55	2	121	221	321	NaN	521	0.327598474919796	1	1	NaN	4388370.3691655	NaN	4388371.3525316	4388371.86908093
21	19	0	0	90	36.1581920903955	36.241610738255	8	0.266693376004696	2	1	2	NaN	1	3	0.229749065224915	1	1	NaN	308	5	56	2	121	221	321	NaN	521	0.21425377484411	1	1	NaN	4388373.0027378	NaN	4388373.9860079	4388374.50266793
21	19	0	0	90	36.1581920903955	36.241610738255	6	0.200020032003522	2	1	3	NaN	1	3	0.229749065224915	1	1	NaN	309	5	57	2	121	221	321	NaN	521	0.280394875444472	1	1	NaN	4388375.536311	NaN	4388376.519712	4388377.03624692
21	19	0	0	90	36.1581920903955	36.241610738255	21	0.700070112012327	2	5	6	NaN	1	3	0.229749065224915	1	1	NaN	310	5	58	2	121	221	321	NaN	521	0.248093771748245	1	1	NaN	4388378.1365838	NaN	4388379.1199552	4388379.63650893
21	19	0	0	90	36.1581920903955	36.241610738255	8	0.266693376004696	2	4	1	NaN	1	5	0.229749065224915	1	1	NaN	311	5	59	2	121	221	321	NaN	521	0.34521552734077	1	1	NaN	4388380.7034841	NaN	4388381.6867772	4388382.20343217
21	19	0	0	90	36.1581920903955	36.241610738255	0	0	1	5	2	NaN	1	4	0.229749065224915	1	1	NaN	312	5	60	2	111	211	311	NaN	511	0.263134974986315	1	1	NaN	4388383.3536581	NaN	4388384.3371351	4388384.85368043
21	19	0	0	90	36.1581920903955	36.241610738255	14	0.466713408008218	2	11	5	NaN	2	3	0.229749065224915	1	1	NaN	313	5	61	2	121	221	321	NaN	521	0.151775531470776	2	1	NaN	4388385.920662	NaN	4388386.9040814	4388387.42060797
21	19	0	0	90	36.1581920903955	36.241610738255	14	0.466713408008218	2	12	5	NaN	2	5	0.229749065224915	1	1	NaN	314	5	62	2	121	221	321	NaN	521	0.317244075238705	2	1	NaN	4388388.3875609	NaN	4388389.3709837	4388389.88750662
21	19	0	0	90	36.1581920903955	36.241610738255	14	0.466713408008218	2	8	5	NaN	2	3	0.229749065224915	1	1	NaN	315	5	63	2	121	221	321	NaN	521	0.379520375281572	2	1	NaN	4388391.0211625	NaN	4388392.0045624	4388392.52109963
21	19	0	0	90	36.1581920903955	36.241610738255	18	0.600060096010566	2	7	5	NaN	2	3	0.229749065224915	1	1	NaN	316	6	1	2	121	221	321	NaN	521	0.0102740442380309	2	1	NaN	4388413.5233939	NaN	4388414.5067659	4388415.02331456
21	19	0	0	90	36.1581920903955	36.241610738255	11	0.366703392006457	2	11	3	NaN	2	3	0.229749065224915	1	1	NaN	317	6	2	2	121	221	321	NaN	521	0.288246775045991	2	1	NaN	4388415.8402474	NaN	4388416.8236547	4388417.34020612
21	19	0	0	90	36.1581920903955	36.241610738255	23	0.766743456013501	2	10	2	NaN	2	3	0.229749065224915	1	1	NaN	318	6	3	2	121	221	321	NaN	521	0.304451927542686	2	1	NaN	4388418.4405172	NaN	4388419.423918	4388419.94046737
21	19	0	0	90	36.1581920903955	36.241610738255	20	0.66673344001174	2	11	6	NaN	2	5	0.229749065224915	1	1	NaN	319	6	4	2	121	221	321	NaN	521	0.463576975278556	2	1	NaN	4388421.0574464	NaN	4388422.040837	4388422.55738463
21	19	0	0	90	36.1581920903955	36.241610738255	25	0.833416800014675	2	9	2	NaN	2	3	0.229749065224915	1	1	NaN	320	6	5	2	121	221	321	NaN	521	0.608652374707162	1	0	NaN	4388423.8244284	NaN	4388424.8077713	4388425.32432962
21	19	0	0	90	36.1581920903955	36.241610738255	14	0.466713408008218	2	6	3	NaN	1	3	0.229749065224915	1	1	NaN	321	6	6	2	121	221	321	NaN	521	0.290932427160442	1	1	NaN	4388426.7579932	NaN	4388427.7413931	4388428.25794987
21	19	0	0	90	36.1581920903955	36.241610738255	17	0.566723424009979	2	7	5	NaN	2	4	0.229749065224915	1	1	NaN	322	6	7	2	121	221	321	NaN	521	0.306602227501571	2	1	NaN	4388429.3581216	NaN	4388430.3416506	4388430.85820327
21	19	0	0	90	36.1581920903955	36.241610738255	25	0.833416800014675	2	12	4	NaN	2	3	0.229749065224915	1	1	NaN	323	6	8	2	121	221	321	NaN	521	1.20988752227277	2	1	NaN	4388431.9750693	NaN	4388432.9585845	4388433.47511808
21	19	0	0	90	36.1581920903955	36.241610738255	10	0.33336672000587	2	4	2	NaN	1	3	0.229749065224915	1	1	NaN	324	6	9	2	121	221	321	NaN	521	0.219919874332845	2	0	NaN	4388435.5088634	NaN	4388436.4922539	4388437.00880103
21	19	0	0	90	36.1581920903955	36.241610738255	0	0	1	12	6	NaN	2	5	0.229749065224915	1	1	NaN	325	6	10	2	111	211	311	NaN	511	0.44636944308877	2	1	NaN	4388438.0424464	NaN	4388439.0258367	4388439.54238826
21	19	0	0	90	36.1581920903955	36.241610738255	10	0.33336672000587	2	10	4	NaN	2	4	0.229749065224915	1	1	NaN	326	6	11	2	121	221	321	NaN	521	0.247936896048486	2	1	NaN	4388440.7925893	NaN	4388441.7761177	4388442.2926662
21	19	0	0	90	36.1581920903955	36.241610738255	22	0.733406784012914	2	3	6	NaN	1	4	0.229749065224915	1	1	NaN	327	6	12	2	121	221	321	NaN	521	0.784763879142702	1	1	NaN	4388443.3596281	NaN	4388444.3430131	4388444.85957612
21	19	0	0	90	36.1581920903955	36.241610738255	13	0.433376736007631	2	1	4	NaN	1	5	0.229749065224915	1	1	NaN	328	6	13	2	121	221	321	NaN	521	0.252961674705148	1	1	NaN	4388446.4599409	NaN	4388447.4433264	4388447.95989473
21	19	0	0	90	36.1581920903955	36.241610738255	23	0.766743456013501	2	1	3	NaN	1	3	0.229749065224915	1	1	NaN	329	6	14	2	121	221	321	NaN	521	0.254201875068247	1	1	NaN	4388449.0268696	NaN	4388450.010229	4388450.52679262
21	19	0	0	90	36.1581920903955	36.241610738255	8	0.266693376004696	2	2	1	NaN	1	4	0.229749065224915	1	1	NaN	330	6	15	2	121	221	321	NaN	521	0.246933375485241	1	1	NaN	4388451.5936535	NaN	4388452.5771681	4388453.09371672
21	19	0	0	90	36.1581920903955	36.241610738255	20	0.66673344001174	2	7	6	NaN	2	3	0.229749065224915	1	1	NaN	331	6	16	2	121	221	321	NaN	521	0.264211975038052	2	1	NaN	4388454.1606891	NaN	4388455.1440837	4388455.66063832
21	19	0	0	90	36.1581920903955	36.241610738255	16	0.533386752009392	2	8	3	NaN	2	5	0.229749065224915	1	1	NaN	332	6	17	2	121	221	321	NaN	521	0.152478191070259	2	1	NaN	4388456.7442969	NaN	4388457.7276788	4388458.24422621
21	19	0	0	90	36.1581920903955	36.241610738255	15	0.500050080008805	2	4	1	NaN	1	4	0.229749065224915	1	1	NaN	333	6	18	2	121	221	321	NaN	521	0.173630639910698	1	1	NaN	4388459.2111767	NaN	4388460.1945849	4388460.71112856
21	19	0	0	90	36.1581920903955	36.241610738255	22	0.733406784012914	2	2	2	NaN	1	3	0.229749065224915	1	1	NaN	334	6	19	2	121	221	321	NaN	521	0.233844791539013	1	1	NaN	4388461.6947723	NaN	4388462.6781561	4388463.19472241
21	19	0	0	90	36.1581920903955	36.241610738255	23	0.766743456013501	2	5	2	NaN	1	4	0.229749065224915	1	1	NaN	335	6	20	2	121	221	321	NaN	521	0.275729075074196	1	1	NaN	4388464.2450095	NaN	4388465.228412	4388465.74496602
21	19	0	0	90	36.1581920903955	36.241610738255	10	0.33336672000587	2	2	6	NaN	1	4	0.229749065224915	1	1	NaN	336	6	21	2	121	221	321	NaN	521	0.260114274919033	1	1	NaN	4388466.8285969	NaN	4388467.8120025	4388468.32854143
21	19	0	0	90	36.1581920903955	36.241610738255	11	0.366703392006457	2	11	5	NaN	2	3	0.229749065224915	1	1	NaN	337	6	22	2	121	221	321	NaN	521	0.276634374633431	2	1	NaN	4388469.4121741	NaN	4388470.3955906	4388470.91213053
21	19	0	0	90	36.1581920903955	36.241610738255	20	0.66673344001174	2	9	2	NaN	2	5	0.229749065224915	1	1	NaN	338	6	23	2	121	221	321	NaN	521	0.948264675214887	2	1	NaN	4388472.0124491	NaN	4388472.9958357	4388473.51238852
21	19	0	0	90	36.1581920903955	36.241610738255	12	0.400040064007044	2	10	1	NaN	2	3	0.229749065224915	1	1	NaN	339	6	24	2	121	221	321	NaN	521	0.385399523191154	2	1	NaN	4388475.279422	NaN	4388476.262828	4388476.77937388
21	19	0	0	90	36.1581920903955	36.241610738255	11	0.366703392006457	2	6	6	NaN	1	4	0.229749065224915	1	1	NaN	340	6	25	2	121	221	321	NaN	521	0.269239375367761	1	1	NaN	4388477.9795774	NaN	4388478.9630914	4388479.47964313
21	19	0	0	90	36.1581920903955	36.241610738255	0	0	1	6	2	NaN	1	4	0.229749065224915	1	1	NaN	341	6	26	2	111	211	311	NaN	511	0.469741974957287	1	1	NaN	4388480.5632924	NaN	4388481.5467072	4388482.06322083
21	19	0	0	90	36.1581920903955	36.241610738255	11	0.366703392006457	2	4	6	NaN	1	4	0.229749065224915	1	1	NaN	342	6	27	2	121	221	321	NaN	521	0.581980311311781	1	1	NaN	4388483.3469186	NaN	4388484.3302781	4388484.84683159
21	19	0	0	90	36.1581920903955	36.241610738255	25	0.833416800014675	2	4	5	NaN	1	3	0.229749065224915	1	1	NaN	343	6	28	2	121	221	321	NaN	521	0.545726123265922	1	1	NaN	4388486.2471651	NaN	4388487.2305735	4388487.74711918
21	19	0	0	90	36.1581920903955	36.241610738255	10	0.33336672000587	2	9	5	NaN	2	5	0.229749065224915	1	1	NaN	344	6	29	2	121	221	321	NaN	521	0.463278679177165	2	1	NaN	4388489.0974522	NaN	4388490.0808399	4388490.59740572
21	19	0	0	90	36.1581920903955	36.241610738255	17	0.566723424009979	2	7	2	NaN	2	4	0.229749065224915	1	1	NaN	345	6	30	2	121	221	321	NaN	521	0.256726774387062	2	1	NaN	4388491.8643898	NaN	4388492.8477901	4388493.36433703
21	19	0	0	90	36.1581920903955	36.241610738255	8	0.266693376004696	2	8	5	NaN	2	5	0.229749065224915	1	1	NaN	346	6	31	2	121	221	321	NaN	521	1.5458039753139	2	1	NaN	4388494.4313111	NaN	4388495.4147196	4388495.93125052
21	19	0	0	90	36.1581920903955	36.241610738255	21	0.700070112012327	2	1	1	NaN	1	5	0.229749065224915	1	1	NaN	347	6	32	2	121	221	321	NaN	521	1.03838077560067	1	1	NaN	4388498.2985042	NaN	4388499.2817704	4388499.79830972
21	19	0	0	90	36.1581920903955	36.241610738255	25	0.833416800014675	2	6	1	NaN	1	5	0.229749065224915	1	1	NaN	348	6	33	2	121	221	321	NaN	521	0.487906871363521	1	1	NaN	4388501.6486798	NaN	4388502.6320962	4388503.14862773
21	19	0	0	90	36.1581920903955	36.241610738255	7	0.233356704004109	2	7	6	NaN	2	5	0.229749065224915	1	1	NaN	349	6	34	2	121	221	321	NaN	521	0.264143627136946	2	1	NaN	4388504.4489534	NaN	4388505.4323393	4388505.94891047
21	19	0	0	90	36.1581920903955	36.241610738255	0	0	1	7	6	NaN	2	3	0.229749065224915	1	1	NaN	350	6	35	2	111	211	311	NaN	511	0.24825472291559	2	1	NaN	4388507.0325803	NaN	4388508.0159462	4388508.53249278
21	19	0	0	90	36.1581920903955	36.241610738255	18	0.600060096010566	2	5	6	NaN	1	4	0.229749065224915	1	1	NaN	351	6	36	2	121	221	321	NaN	521	0.809651426970959	1	1	NaN	4388509.5994589	NaN	4388510.582864	4388511.09941417
21	19	0	0	90	36.1581920903955	36.241610738255	20	0.66673344001174	2	3	4	NaN	1	3	0.229749065224915	1	1	NaN	352	6	37	2	121	221	321	NaN	521	0.227389074862003	1	1	NaN	4388512.7331422	NaN	4388513.7165101	4388514.23305512
21	19	0	0	90	36.1581920903955	36.241610738255	18	0.600060096010566	2	5	4	NaN	1	3	0.229749065224915	1	1	NaN	353	6	38	2	121	221	321	NaN	521	0.205496774986386	1	1	NaN	4388515.2833535	NaN	4388516.2667388	4388516.78330893
21	19	0	0	90	36.1581920903955	36.241610738255	14	0.466713408008218	2	10	3	NaN	2	3	0.229749065224915	1	1	NaN	354	6	39	2	121	221	321	NaN	521	0.328226022422314	2	1	NaN	4388517.8002417	NaN	4388518.7836797	4388519.30021248
21	19	0	0	90	36.1581920903955	36.241610738255	15	0.500050080008805	2	2	1	NaN	1	3	0.229749065224915	1	1	NaN	355	6	40	2	121	221	321	NaN	521	0.398249872028828	1	1	NaN	4388520.4505327	NaN	4388521.4339277	4388521.95047823
21	19	0	0	90	36.1581920903955	36.241610738255	12	0.400040064007044	2	11	6	NaN	2	3	0.229749065224915	1	1	NaN	356	6	41	2	121	221	321	NaN	521	0.145439627580345	2	1	NaN	4388523.1674724	NaN	4388524.1508528	4388524.66741757
21	19	0	0	90	36.1581920903955	36.241610738255	25	0.833416800014675	2	4	2	NaN	1	3	0.229749065224915	1	1	NaN	357	6	42	2	121	221	321	NaN	521	0.327057775110006	2	0	NaN	4388525.6176668	NaN	4388526.6011094	4388527.11765512
21	19	0	0	90	36.1581920903955	36.241610738255	21	0.700070112012327	2	4	1	NaN	1	4	0.229749065224915	1	1	NaN	358	6	43	2	121	221	321	NaN	521	0.213292626664042	1	1	NaN	4388528.2511518	NaN	4388529.2346977	4388529.75124667
21	19	0	0	90	36.1581920903955	36.241610738255	8	0.266693376004696	2	4	3	NaN	1	5	0.229749065224915	1	1	NaN	359	6	44	2	121	221	321	NaN	521	0.432377574965358	1	1	NaN	4388530.7848726	NaN	4388531.7682703	4388532.28482393
21	19	0	0	90	36.1581920903955	36.241610738255	15	0.500050080008805	2	7	2	NaN	2	5	0.229749065224915	1	1	NaN	360	6	45	2	121	221	321	NaN	521	1.05031987465918	2	1	NaN	4388533.5183819	NaN	4388534.501872	4388535.01842603
21	19	0	0	90	36.1581920903955	36.241610738255	19	0.633396768011153	2	7	1	NaN	2	5	0.229749065224915	1	1	NaN	361	6	46	2	121	221	321	NaN	521	0.171725822612643	2	1	NaN	4388536.8854731	NaN	4388537.8688789	4388538.38542008
21	19	0	0	90	36.1581920903955	36.241610738255	22	0.733406784012914	2	8	4	NaN	2	4	0.229749065224915	1	1	NaN	362	6	47	2	121	221	321	NaN	521	0.232146127149463	2	1	NaN	4388539.3691213	NaN	4388540.3524515	4388540.86900867
21	19	0	0	90	36.1581920903955	36.241610738255	21	0.700070112012327	2	3	1	NaN	1	5	0.229749065224915	1	1	NaN	363	6	48	2	121	221	321	NaN	521	0.283701223321259	1	1	NaN	4388542.0693307	NaN	4388543.0527122	4388543.56926158
21	19	0	0	90	36.1581920903955	36.241610738255	11	0.366703392006457	2	2	3	NaN	1	5	0.229749065224915	1	1	NaN	364	6	49	2	121	221	321	NaN	521	0.61958877556026	1	1	NaN	4388544.6694472	NaN	4388545.6529852	4388546.16951402
21	19	0	0	90	36.1581920903955	36.241610738255	23	0.766743456013501	2	4	1	NaN	1	5	0.229749065224915	1	1	NaN	365	6	50	2	121	221	321	NaN	521	0.917472691275179	1	1	NaN	4388547.6031237	NaN	4388548.5865978	4388549.10314471
21	19	0	0	90	36.1581920903955	36.241610738255	24	0.800080128014088	2	6	3	NaN	1	3	0.229749065224915	1	1	NaN	366	6	51	2	121	221	321	NaN	521	0.212304175831378	1	1	NaN	4388550.8368492	NaN	4388551.8202851	4388552.33678752
21	19	0	0	90	36.1581920903955	36.241610738255	10	0.33336672000587	2	1	6	NaN	1	3	0.229749065224915	1	1	NaN	367	6	52	2	121	221	321	NaN	521	0.174982695840299	1	1	NaN	4388553.3536527	NaN	4388554.3371624	4388554.8537154
21	19	0	0	90	36.1581920903955	36.241610738255	22	0.733406784012914	2	12	2	NaN	2	3	0.229749065224915	1	1	NaN	368	6	53	2	121	221	321	NaN	521	0.115392527543008	2	1	NaN	4388555.8373455	NaN	4388556.8207357	4388557.33727887
21	19	0	0	90	36.1581920903955	36.241610738255	0	0	1	11	3	NaN	2	5	0.229749065224915	1	1	NaN	369	6	54	2	111	211	311	NaN	511	0.353871575556695	2	1	NaN	4388558.2707712	NaN	4388559.2542972	4388559.77085072
21	19	0	0	90	36.1581920903955	36.241610738255	19	0.633396768011153	2	8	2	NaN	2	5	0.229749065224915	1	1	NaN	370	6	55	2	121	221	321	NaN	521	0.239293174818158	2	1	NaN	4388560.9378632	NaN	4388561.9212378	4388562.43778703
21	19	0	0	90	36.1581920903955	36.241610738255	6	0.200020032003522	2	12	6	NaN	2	4	0.229749065224915	1	1	NaN	371	6	56	2	121	221	321	NaN	521	0.672911474481225	2	1	NaN	4388563.4881028	NaN	4388564.4714778	4388564.98804193
21	19	0	0	90	36.1581920903955	36.241610738255	25	0.833416800014675	2	7	4	NaN	2	3	0.229749065224915	1	1	NaN	372	6	57	2	121	221	321	NaN	521	0.761058527044952	2	1	NaN	4388566.4717195	NaN	4388567.4551114	4388567.97166917
21	19	0	0	90	36.1581920903955	36.241610738255	9	0.300030048005283	2	9	3	NaN	2	3	0.229749065224915	1	1	NaN	373	6	58	2	121	221	321	NaN	521	0.0541568836197257	2	1	NaN	4388569.5386943	NaN	4388570.5220832	4388571.03862882
21	19	0	0	90	36.1581920903955	36.241610738255	13	0.433376736007631	2	3	4	NaN	1	5	0.229749065224915	1	1	NaN	374	6	59	2	121	221	321	NaN	521	0.223303527571261	1	1	NaN	4388571.9055849	NaN	4388572.8889878	4388573.40552877
21	19	0	0	90	36.1581920903955	36.241610738255	22	0.733406784012914	2	11	2	NaN	2	3	0.229749065224915	1	1	NaN	375	6	60	2	121	221	321	NaN	521	0.305595679208636	2	1	NaN	4388574.4391914	NaN	4388575.422575	4388575.93911822
21	19	0	0	90	36.1581920903955	36.241610738255	8	0.266693376004696	2	10	6	NaN	2	3	0.229749065224915	1	1	NaN	376	6	61	2	121	221	321	NaN	521	0.456625575199723	2	1	NaN	4388577.0559717	NaN	4388578.0394914	4388578.55603023
21	19	0	0	90	36.1581920903955	36.241610738255	0	0	1	10	3	NaN	2	4	0.229749065224915	1	1	NaN	377	6	62	2	111	211	311	NaN	511	0.418236022815108	2	1	NaN	4388579.8230241	NaN	4388580.8064182	4388581.32296578
21	19	0	0	90	36.1581920903955	36.241610738255	6	0.200020032003522	2	12	1	NaN	2	5	0.229749065224915	1	1	NaN	378	6	63	2	121	221	321	NaN	521	0.428277526982129	2	1	NaN	4388582.5564985	NaN	4388583.5400358	4388584.05657487
21	19	0	0	90	36.1581920903955	36.241610738255	24	0.800080128014088	2	4	4	NaN	1	4	0.229749065224915	1	1	NaN	379	7	1	2	121	221	321	NaN	521	0.271024031564593	1	1	NaN	4388589.0737965	NaN	4388590.0573319	4388590.57388177
21	19	0	0	90	36.1581920903955	36.241610738255	0	0	1	2	3	NaN	1	3	0.229749065224915	1	1	NaN	380	7	2	2	111	211	311	NaN	511	0.855701226741076	1	1	NaN	4388591.6575257	NaN	4388592.6409095	4388593.15746857
21	19	0	0	90	36.1581920903955	36.241610738255	14	0.466713408008218	2	1	5	NaN	1	3	0.229749065224915	1	1	NaN	381	7	3	2	121	221	321	NaN	521	0.232283375225961	1	1	NaN	4388594.8244907	NaN	4388595.8078956	4388596.32444642
21	19	0	0	90	36.1581920903955	36.241610738255	15	0.500050080008805	2	1	1	NaN	1	4	0.229749065224915	1	1	NaN	382	7	4	2	121	221	321	NaN	521	0.234514222480357	1	1	NaN	4388597.3747576	NaN	4388598.3581458	4388598.87469518
21	19	0	0	90	36.1581920903955	36.241610738255	14	0.466713408008218	2	3	5	NaN	1	3	0.229749065224915	1	1	NaN	383	7	5	2	121	221	321	NaN	521	0.29980222787708	1	1	NaN	4388599.9249879	NaN	4388600.9083976	4388601.42495007
21	19	0	0	90	36.1581920903955	36.241610738255	11	0.366703392006457	2	10	3	NaN	2	5	0.229749065224915	1	1	NaN	384	7	6	2	121	221	321	NaN	521	0.354823275469244	2	1	NaN	4388602.5419361	NaN	4388603.5253382	4388604.04187462
21	19	0	0	90	36.1581920903955	36.241610738255	8	0.266693376004696	2	12	2	NaN	2	4	0.229749065224915	1	1	NaN	385	7	7	2	121	221	321	NaN	521	1.04009884409606	2	1	NaN	4388605.208855	NaN	4388606.19225	4388606.70880376
21	19	0	0	90	36.1581920903955	36.241610738255	20	0.66673344001174	2	1	3	NaN	1	3	0.229749065224915	1	1	NaN	386	7	8	2	121	221	321	NaN	521	0.274079523049295	1	1	NaN	4388608.5590594	NaN	4388609.5425782	4388610.05912608
21	19	0	0	90	36.1581920903955	36.241610738255	10	0.33336672000587	2	3	3	NaN	1	3	0.229749065224915	1	1	NaN	387	7	9	2	121	221	321	NaN	521	0.362001727335155	1	1	NaN	4388611.1427795	NaN	4388612.1261761	4388612.64271897
21	19	0	0	90	36.1581920903955	36.241610738255	13	0.433376736007631	2	7	5	NaN	2	4	0.229749065224915	1	1	NaN	388	7	10	2	121	221	321	NaN	521	0.87154327519238	2	1	NaN	4388613.8097016	NaN	4388614.7931318	4388615.30964542
21	19	0	0	90	36.1581920903955	36.241610738255	15	0.500050080008805	2	2	2	NaN	1	3	0.229749065224915	1	1	NaN	389	7	11	2	121	221	321	NaN	521	0.327919095754623	1	1	NaN	4388616.993345	NaN	4388617.9767415	4388618.4932938
21	19	0	0	90	36.1581920903955	36.241610738255	16	0.533386752009392	2	11	1	NaN	2	4	0.229749065224915	1	1	NaN	390	7	12	2	121	221	321	NaN	521	0.53430072311312	2	1	NaN	4388619.6269455	NaN	4388620.6103259	4388621.12687608
21	19	0	0	90	36.1581920903955	36.241610738255	13	0.433376736007631	2	12	4	NaN	2	4	0.229749065224915	1	1	NaN	391	7	13	2	121	221	321	NaN	521	0.388110040687025	2	1	NaN	4388622.4772038	NaN	4388623.4606108	4388623.97716096
21	19	0	0	90	36.1581920903955	36.241610738255	18	0.600060096010566	2	3	2	NaN	1	3	0.229749065224915	1	1	NaN	392	7	14	2	121	221	321	NaN	521	0.607744223438203	1	1	NaN	4388625.1774719	NaN	4388626.1608894	4388626.67742628
21	19	0	0	90	36.1581920903955	36.241610738255	6	0.200020032003522	2	6	6	NaN	1	4	0.229749065224915	1	1	NaN	393	7	15	2	121	221	321	NaN	521	0.242870227433741	1	1	NaN	4388628.0943024	NaN	4388629.0778262	4388629.59438187
21	19	0	0	90	36.1581920903955	36.241610738255	10	0.33336672000587	2	8	6	NaN	2	3	0.229749065224915	1	1	NaN	394	7	16	2	121	221	321	NaN	521	0.236452222801745	2	1	NaN	4388630.6446858	NaN	4388631.6280972	4388632.14462028
21	19	0	0	90	36.1581920903955	36.241610738255	16	0.533386752009392	2	10	5	NaN	2	5	0.229749065224915	1	1	NaN	395	7	17	2	121	221	321	NaN	521	0.454327675513923	2	1	NaN	4388633.1948335	NaN	4388634.1783389	4388634.69487302
21	19	0	0	90	36.1581920903955	36.241610738255	7	0.233356704004109	2	3	3	NaN	1	5	0.229749065224915	1	1	NaN	396	7	18	2	121	221	321	NaN	521	0.279070123098791	1	1	NaN	4388635.9618868	NaN	4388636.9452462	4388637.46180848
21	19	0	0	90	36.1581920903955	36.241610738255	9	0.300030048005283	2	6	4	NaN	1	3	0.229749065224915	1	1	NaN	397	7	19	2	121	221	321	NaN	521	0.871636191383004	1	1	NaN	4388638.5454611	NaN	4388639.5288606	4388640.04540901
21	19	0	0	90	36.1581920903955	36.241610738255	20	0.66673344001174	2	4	6	NaN	1	4	0.229749065224915	1	1	NaN	398	7	20	2	121	221	321	NaN	521	1.60014487523586	1	1	NaN	4388641.7291204	NaN	4388642.7125034	4388643.22904882
21	19	0	0	90	36.1581920903955	36.241610738255	15	0.500050080008805	2	5	5	NaN	1	5	0.229749065224915	1	1	NaN	399	7	21	2	121	221	321	NaN	521	0.298885826952755	1	1	NaN	4388645.6461621	NaN	4388646.6295393	4388647.14610357
21	19	0	0	90	36.1581920903955	36.241610738255	18	0.600060096010566	2	4	6	NaN	1	4	0.229749065224915	1	1	NaN	400	7	22	2	121	221	321	NaN	521	0.233812127262354	1	1	NaN	4388648.263077	NaN	4388649.2464892	4388649.76303047
21	19	0	0	90	36.1581920903955	36.241610738255	8	0.266693376004696	2	1	4	NaN	1	4	0.229749065224915	1	1	NaN	401	7	23	2	121	221	321	NaN	521	0.227935475297272	1	1	NaN	4388650.8133299	NaN	4388651.7967319	4388652.31328392
21	19	0	0	90	36.1581920903955	36.241610738255	7	0.233356704004109	2	2	5	NaN	1	5	0.229749065224915	1	1	NaN	402	7	24	2	121	221	321	NaN	521	0.237434983253479	1	1	NaN	4388653.3636885	NaN	4388654.3469755	4388654.86352732
21	19	0	0	90	36.1581920903955	36.241610738255	20	0.66673344001174	2	7	1	NaN	2	5	0.229749065224915	1	1	NaN	403	7	25	2	121	221	321	NaN	521	0.271415327675641	2	1	NaN	4388655.913839	NaN	4388656.8972428	4388657.41378177
21	19	0	0	90	36.1581920903955	36.241610738255	8	0.266693376004696	2	10	4	NaN	2	5	0.229749065224915	1	1	NaN	404	7	26	2	121	221	321	NaN	521	0.359540075063705	2	1	NaN	4388658.4974188	NaN	4388659.4808422	4388659.99736512
21	19	0	0	90	36.1581920903955	36.241610738255	19	0.633396768011153	2	2	5	NaN	1	5	0.229749065224915	1	1	NaN	405	7	27	2	121	221	321	NaN	521	0.373022974468768	1	1	NaN	4388661.1642149	NaN	4388662.1477513	4388662.66429153
21	19	0	0	90	36.1581920903955	36.241610738255	20	0.66673344001174	2	6	5	NaN	1	3	0.229749065224915	1	1	NaN	406	7	28	2	121	221	321	NaN	521	0.305193674750626	1	1	NaN	4388663.8480143	NaN	4388664.8313392	4388665.34788472
21	19	0	0	90	36.1581920903955	36.241610738255	12	0.400040064007044	2	10	1	NaN	2	5	0.229749065224915	1	1	NaN	407	7	29	2	121	221	321	NaN	521	0.152483027428389	2	1	NaN	4388666.4648716	NaN	4388667.4482627	4388667.96481747
21	19	0	0	90	36.1581920903955	36.241610738255	9	0.300030048005283	2	3	4	NaN	1	4	0.229749065224915	1	1	NaN	408	7	30	2	121	221	321	NaN	521	0.245072943158448	1	1	NaN	4388668.9317852	NaN	4388669.9151739	4388670.43172946
21	19	0	0	90	36.1581920903955	36.241610738255	14	0.466713408008218	2	3	2	NaN	1	4	0.229749065224915	1	1	NaN	409	7	31	2	121	221	321	NaN	521	0.254199227318168	1	1	NaN	4388671.4987031	NaN	4388672.4820988	4388672.99863567
21	19	0	0	90	36.1581920903955	36.241610738255	17	0.566723424009979	2	12	1	NaN	2	3	0.229749065224915	1	1	NaN	410	7	32	2	121	221	321	NaN	521	0.655319175682962	2	1	NaN	4388674.0656146	NaN	4388675.04901	4388675.56556042
21	19	0	0	90	36.1581920903955	36.241610738255	19	0.633396768011153	2	1	4	NaN	1	4	0.229749065224915	1	1	NaN	411	7	33	2	121	221	321	NaN	521	0.288434127345681	1	1	NaN	4388677.0324543	NaN	4388678.0159669	4388678.53252157
21	19	0	0	90	36.1581920903955	36.241610738255	17	0.566723424009979	2	8	2	NaN	2	4	0.229749065224915	1	1	NaN	412	7	34	2	121	221	321	NaN	521	0.248299427330494	2	1	NaN	4388679.6328356	NaN	4388680.6162136	4388681.13277157
21	19	0	0	90	36.1581920903955	36.241610738255	15	0.500050080008805	2	12	5	NaN	2	3	0.229749065224915	1	1	NaN	413	7	35	2	121	221	321	NaN	521	0.225625926628709	2	1	NaN	4388682.1996258	NaN	4388683.1831473	4388683.69968327
21	19	0	0	90	36.1581920903955	36.241610738255	15	0.500050080008805	2	6	5	NaN	1	3	0.229749065224915	1	1	NaN	414	7	36	2	121	221	321	NaN	521	0.779054671525955	1	1	NaN	4388684.7499868	NaN	4388685.733373	4388686.24993823
21	19	0	0	90	36.1581920903955	36.241610738255	21	0.700070112012327	2	8	6	NaN	2	4	0.229749065224915	1	1	NaN	415	7	37	2	121	221	321	NaN	521	0.134754527360201	2	1	NaN	4388687.8502166	NaN	4388688.8336857	4388689.35024697
21	19	0	0	90	36.1581920903955	36.241610738255	16	0.533386752009392	2	12	1	NaN	2	5	0.229749065224915	1	1	NaN	416	7	38	2	121	221	321	NaN	521	0.212471927516162	2	1	NaN	4388690.3005391	NaN	4388691.283938	4388691.80049077
21	19	0	0	90	36.1581920903955	36.241610738255	22	0.733406784012914	2	12	3	NaN	2	3	0.229749065224915	1	1	NaN	417	7	39	2	121	221	321	NaN	521	0.199993775226176	2	1	NaN	4388692.817459	NaN	4388693.8008622	4388694.31739642
21	19	0	0	90	36.1581920903955	36.241610738255	6	0.200020032003522	2	7	4	NaN	2	3	0.229749065224915	1	1	NaN	418	7	40	2	121	221	321	NaN	521	0.226594475097954	2	1	NaN	4388695.3343612	NaN	4388696.3177574	4388696.83430522
21	19	0	0	90	36.1581920903955	36.241610738255	21	0.700070112012327	2	10	2	NaN	2	4	0.229749065224915	1	1	NaN	419	7	41	2	121	221	321	NaN	521	0.453421736136079	2	1	NaN	4388697.86782	NaN	4388698.8513492	4388699.36789316
21	19	0	0	90	36.1581920903955	36.241610738255	14	0.466713408008218	2	2	6	NaN	1	5	0.229749065224915	1	1	NaN	420	7	42	2	121	221	321	NaN	521	0.246470826677978	1	1	NaN	4388700.6348855	NaN	4388701.618276	4388702.13483817
21	19	0	0	90	36.1581920903955	36.241610738255	13	0.433376736007631	2	8	4	NaN	2	5	0.229749065224915	1	1	NaN	421	7	43	2	121	221	321	NaN	521	0.207484827376902	2	1	NaN	4388703.2018324	NaN	4388704.1852063	4388704.70175137
21	19	0	0	90	36.1581920903955	36.241610738255	16	0.533386752009392	2	3	4	NaN	1	5	0.229749065224915	1	1	NaN	422	7	44	2	121	221	321	NaN	521	0.218300675041974	1	1	NaN	4388705.718583	NaN	4388706.702131	4388707.21865893
21	19	0	0	90	36.1581920903955	36.241610738255	23	0.766743456013501	2	3	3	NaN	1	3	0.229749065224915	1	1	NaN	423	7	45	2	121	221	321	NaN	521	0.0847969315946102	1	1	NaN	4388708.2523052	NaN	4388709.235699	4388709.75224617
21	19	0	0	90	36.1581920903955	36.241610738255	16	0.533386752009392	2	1	5	NaN	1	3	0.229749065224915	1	1	NaN	424	7	46	2	121	221	321	NaN	521	0.30863147508353	1	1	NaN	4388710.6524329	NaN	4388711.635965	4388712.15247403
21	19	0	0	90	36.1581920903955	36.241610738255	25	0.833416800014675	2	1	2	NaN	1	5	0.229749065224915	1	1	NaN	425	7	47	2	121	221	321	NaN	521	0.0103933271020651	1	1	NaN	4388713.2694679	NaN	4388714.2528496	4388714.76941277
21	19	0	0	90	36.1581920903955	36.241610738255	7	0.233356704004109	2	11	3	NaN	2	4	0.229749065224915	1	1	NaN	426	7	48	2	121	221	321	NaN	521	0.118663375265896	2	1	NaN	4388715.5863514	NaN	4388716.5697464	4388717.08629602
21	19	0	0	90	36.1581920903955	36.241610738255	6	0.200020032003522	2	11	6	NaN	2	5	0.229749065224915	1	1	NaN	427	7	49	2	121	221	321	NaN	521	0.221176674589515	1	0	NaN	4388718.0199284	NaN	4388719.0033255	4388719.51987593
21	19	0	0	90	36.1581920903955	36.241610738255	6	0.200020032003522	2	4	5	NaN	1	3	0.229749065224915	1	1	NaN	428	7	50	2	121	221	321	NaN	521	0.255569623783231	1	1	NaN	4388720.5534691	NaN	4388721.5368886	4388722.05345388
21	19	0	0	90	36.1581920903955	36.241610738255	16	0.533386752009392	2	10	2	NaN	2	4	0.229749065224915	1	1	NaN	429	7	51	2	121	221	321	NaN	521	0.20862512756139	2	1	NaN	4388723.1204417	NaN	4388724.1038341	4388724.62036617
21	19	0	0	90	36.1581920903955	36.241610738255	8	0.266693376004696	2	5	3	NaN	1	5	0.229749065224915	1	1	NaN	430	7	52	2	121	221	321	NaN	521	0.299142175354064	1	1	NaN	4388725.6540027	NaN	4388726.6374222	4388727.15395422
21	19	0	0	90	36.1581920903955	36.241610738255	12	0.400040064007044	2	5	1	NaN	1	3	0.229749065224915	1	1	NaN	431	7	53	2	121	221	321	NaN	521	0.386206727474928	1	1	NaN	4388728.2709281	NaN	4388729.2543225	4388729.77088347
21	19	0	0	90	36.1581920903955	36.241610738255	14	0.466713408008218	2	6	1	NaN	1	5	0.229749065224915	1	1	NaN	432	7	54	2	121	221	321	NaN	521	0.285851222462952	1	1	NaN	4388730.9712864	NaN	4388731.9545969	4388732.47114088
21	19	0	0	90	36.1581920903955	36.241610738255	25	0.833416800014675	2	8	4	NaN	2	5	0.229749065224915	1	1	NaN	433	7	55	2	121	221	321	NaN	521	0.301639775745571	2	1	NaN	4388733.5714471	NaN	4388734.5548621	4388735.07140252
21	19	0	0	90	36.1581920903955	36.241610738255	17	0.566723424009979	2	10	1	NaN	2	4	0.229749065224915	1	1	NaN	434	7	56	2	121	221	321	NaN	521	0.260557195171714	2	1	NaN	4388736.1882562	NaN	4388737.1717184	4388737.6883274
21	19	0	0	90	36.1581920903955	36.241610738255	24	0.800080128014088	2	8	3	NaN	2	4	0.229749065224915	1	1	NaN	435	7	57	2	121	221	321	NaN	521	0.221837474964559	2	1	NaN	4388738.7553022	NaN	4388739.7386828	4388740.25523463
21	19	0	0	90	36.1581920903955	36.241610738255	24	0.800080128014088	2	11	5	NaN	2	5	0.229749065224915	1	1	NaN	436	7	58	2	121	221	321	NaN	521	0.256264527328312	2	1	NaN	4388741.2888695	NaN	4388742.2723083	4388742.78882827
21	19	0	0	90	36.1581920903955	36.241610738255	6	0.200020032003522	2	3	5	NaN	1	4	0.229749065224915	1	1	NaN	437	7	59	2	121	221	321	NaN	521	0.809375027194619	1	1	NaN	4388743.8557183	NaN	4388744.8392452	4388745.35574607
21	19	0	0	90	36.1581920903955	36.241610738255	9	0.300030048005283	2	3	2	NaN	1	3	0.229749065224915	1	1	NaN	438	7	60	2	121	221	321	NaN	521	0.107790474779904	1	1	NaN	4388746.9894305	NaN	4388747.9728247	4388748.48937903
21	19	0	0	90	36.1581920903955	36.241610738255	10	0.33336672000587	2	5	5	NaN	1	5	0.229749065224915	1	1	NaN	439	7	61	2	121	221	321	NaN	521	0.362178927287459	1	1	NaN	4388749.4230141	NaN	4388750.4064008	4388750.92294697
21	19	0	0	90	36.1581920903955	36.241610738255	24	0.800080128014088	2	1	6	NaN	1	5	0.229749065224915	1	1	NaN	440	7	62	2	121	221	321	NaN	521	0.310830622911453	1	1	NaN	4388752.1065988	NaN	4388753.0900052	4388753.60654368
21	19	0	0	90	36.1581920903955	36.241610738255	20	0.66673344001174	2	3	2	NaN	1	3	0.229749065224915	1	1	NaN	441	7	63	2	121	221	321	NaN	521	0.332839175127447	1	1	NaN	4388754.740198	NaN	4388755.7236458	4388756.24013892
21	19	0	0	90	36.1581920903955	36.241610738255	11	0.366703392006457	2	5	1	NaN	1	3	0.229749065224915	1	1	NaN	442	8	1	2	121	221	321	NaN	521	0.266595822758973	1	1	NaN	4388761.5908623	NaN	4388762.574268	4388763.09081178
21	19	0	0	90	36.1581920903955	36.241610738255	10	0.33336672000587	2	2	6	NaN	1	3	0.229749065224915	1	1	NaN	443	8	2	2	121	221	321	NaN	521	0.307123627513647	1	1	NaN	4388764.1744519	NaN	4388765.157843	4388765.67440427
21	19	0	0	90	36.1581920903955	36.241610738255	12	0.400040064007044	2	9	2	NaN	2	3	0.229749065224915	1	1	NaN	444	8	3	2	121	221	321	NaN	521	0.250117727555335	2	1	NaN	4388766.7913817	NaN	4388767.7747702	4388768.29132627
21	19	0	0	90	36.1581920903955	36.241610738255	20	0.66673344001174	2	4	6	NaN	1	4	0.229749065224915	1	1	NaN	445	8	4	2	121	221	321	NaN	521	1.11496447492391	1	1	NaN	4388769.3583815	NaN	4388770.3416936	4388770.85824273
21	19	0	0	90	36.1581920903955	36.241610738255	23	0.766743456013501	2	4	5	NaN	1	5	0.229749065224915	1	1	NaN	446	8	5	2	121	221	321	NaN	521	0.265102675184608	2	0	NaN	4388772.7919511	NaN	4388773.7753629	4388774.29191303
21	19	0	0	90	36.1581920903955	36.241610738255	10	0.33336672000587	2	12	1	NaN	2	3	0.229749065224915	1	1	NaN	447	8	6	2	121	221	321	NaN	521	0.2336410228163	2	1	NaN	4388775.375553	NaN	4388776.3589545	4388776.87549318
21	19	0	0	90	36.1581920903955	36.241610738255	18	0.600060096010566	2	6	4	NaN	1	3	0.229749065224915	1	1	NaN	448	8	7	2	121	221	321	NaN	521	0.283369287848473	1	1	NaN	4388777.9258104	NaN	4388778.9092095	4388779.42576051
21	19	0	0	90	36.1581920903955	36.241610738255	12	0.400040064007044	2	6	6	NaN	1	4	0.229749065224915	1	1	NaN	449	8	8	2	121	221	321	NaN	521	0.283313226886094	1	1	NaN	4388780.5259314	NaN	4388781.5094949	4388782.02601187
21	19	0	0	90	36.1581920903955	36.241610738255	7	0.233356704004109	2	10	3	NaN	2	3	0.229749065224915	1	1	NaN	450	8	9	2	121	221	321	NaN	521	0.179019775241613	2	1	NaN	4388783.1263194	NaN	4388784.1097043	4388784.62625503
21	19	0	0	90	36.1581920903955	36.241610738255	15	0.500050080008805	2	7	2	NaN	2	5	0.229749065224915	1	1	NaN	451	8	10	2	121	221	321	NaN	521	0.190626530908048	2	1	NaN	4388785.6265714	NaN	4388786.6099502	4388787.12650797
21	19	0	0	90	36.1581920903955	36.241610738255	12	0.400040064007044	2	4	4	NaN	1	3	0.229749065224915	1	1	NaN	452	8	11	2	121	221	321	NaN	521	0.242714388296008	1	1	NaN	4388788.1266712	NaN	4388789.1102075	4388789.62676171
21	19	0	0	90	36.1581920903955	36.241610738255	12	0.400040064007044	2	1	6	NaN	1	5	0.229749065224915	1	1	NaN	453	8	12	2	121	221	321	NaN	521	0.252204867079854	1	1	NaN	4388790.6769187	NaN	4388791.6604632	4388792.17700213
21	19	0	0	90	36.1581920903955	36.241610738255	14	0.466713408008218	2	11	1	NaN	2	3	0.229749065224915	1	1	NaN	454	8	13	2	121	221	321	NaN	521	0.149157075211406	2	1	NaN	4388793.2440066	NaN	4388794.2273885	4388794.74391882
21	19	0	0	90	36.1581920903955	36.241610738255	12	0.400040064007044	2	2	3	NaN	1	3	0.229749065224915	1	1	NaN	455	8	14	2	121	221	321	NaN	521	0.170725371688604	1	1	NaN	4388795.7108784	NaN	4388796.6942749	4388797.21082813
21	19	0	0	90	36.1581920903955	36.241610738255	15	0.500050080008805	2	5	4	NaN	1	3	0.229749065224915	1	1	NaN	456	8	15	2	121	221	321	NaN	521	0.246925027109683	1	1	NaN	4388798.1944765	NaN	4388799.1778588	4388799.69441217
21	19	0	0	90	36.1581920903955	36.241610738255	7	0.233356704004109	2	8	4	NaN	2	3	0.229749065224915	1	1	NaN	457	8	16	2	121	221	321	NaN	521	0.304782943800092	2	1	NaN	4388800.7447435	NaN	4388801.7280963	4388802.24465596
21	19	0	0	90	36.1581920903955	36.241610738255	23	0.766743456013501	2	12	4	NaN	2	3	0.229749065224915	1	1	NaN	458	8	17	2	121	221	321	NaN	521	0.383544675074518	2	1	NaN	4388803.3616296	NaN	4388804.3450318	4388804.86157572
21	19	0	0	90	36.1581920903955	36.241610738255	17	0.566723424009979	2	6	5	NaN	1	5	0.229749065224915	1	1	NaN	459	8	18	2	121	221	321	NaN	521	0.251261974684894	1	1	NaN	4388806.0618844	NaN	4388807.0452934	4388807.56184073
21	19	0	0	90	36.1581920903955	36.241610738255	23	0.766743456013501	2	5	3	NaN	1	3	0.229749065224915	1	1	NaN	460	8	19	2	121	221	321	NaN	521	0.0521127758547664	1	1	NaN	4388808.6288289	NaN	4388809.6122205	4388810.12875772
