subjno	age	gender	isPractice	viewdist	CmToPixX	CmToPixY	SOA_frm	SOA_time	targNum	targID	targExample	targRace	targGender	firstTargPos	contrast	familiarity	curr_staircase	iStair	TrialNum	BlockNum	blktrl	sessionNum	TC_FIXATION	TC_RSVP_START	TC_RSVP_END	TC_BLANK	TC_RESPONSE_ONSET	RT2afc	resp_2afc	acc	RSVPOnsetVBL	RSVPOnsetTime	RSVPOffsetVBL	RSVPOffsetTime	startrt_2afc
11	19	1	0	90	36.1581920903955	36.241610738255	8	0.266684447973967	2	4	4	NaN	1	3	0.0440279895567065	1	1	NaN	1	1	1	2	121	221	321	NaN	521	0.863342574331909	2	0	NaN	1710446.8806544	NaN	1710447.8639344	1710448.39706123
11	19	1	0	90	36.1581920903955	36.241610738255	15	0.500033339951187	2	6	6	NaN	1	3	0.0440279895567065	1	1	NaN	2	1	2	2	121	221	321	NaN	521	0.141438074177131	2	0	NaN	1710450.1143206	NaN	1710451.09758	1710451.63070903
11	19	1	0	90	36.1581920903955	36.241610738255	11	0.366691115964204	2	8	4	NaN	2	3	0.0440279895567065	1	1	NaN	3	1	3	2	121	221	321	NaN	521	0.255396989872679	2	1	NaN	1710452.8810328	NaN	1710453.864432	1710454.38099271
11	19	1	0	90	36.1581920903955	36.241610738255	0	0	1	12	1	NaN	2	4	0.0440279895567065	1	1	NaN	4	1	4	2	111	211	311	NaN	511	1.36014806921594	2	1	NaN	1710455.4646194	NaN	1710456.4480167	1710456.96456163
11	19	1	0	90	36.1581920903955	36.241610738255	16	0.533368895947933	2	2	2	NaN	1	5	0.0440279895567065	1	1	NaN	5	1	5	2	121	221	321	NaN	521	0.291882269317284	2	0	NaN	1710459.1483177	NaN	1710460.1317214	1710460.64825953
11	19	1	0	90	36.1581920903955	36.241610738255	16	0.533368895947933	2	5	3	NaN	1	5	0.0440279895567065	1	1	NaN	6	1	6	2	121	221	321	NaN	521	0.219461369328201	1	1	NaN	1710461.7652393	NaN	1710462.7486495	1710463.26518093
11	19	1	0	90	36.1581920903955	36.241610738255	25	0.833388899918646	2	10	1	NaN	2	5	0.0440279895567065	1	1	NaN	7	1	7	2	121	221	321	NaN	521	0.133530906401575	2	1	NaN	1710464.298827	NaN	1710465.2822246	1710465.79876389
11	19	1	0	90	36.1581920903955	36.241610738255	12	0.40002667196095	2	5	1	NaN	1	5	0.0440279895567065	1	1	NaN	8	1	8	2	121	221	321	NaN	521	0.131613569334149	2	0	NaN	1710466.7490565	NaN	1710467.7323534	1710468.24901213
11	19	1	0	90	36.1581920903955	36.241610738255	15	0.500033339951187	2	1	4	NaN	1	5	0.0440279895567065	1	1	NaN	9	1	9	2	121	221	321	NaN	521	0.121163916774094	1	1	NaN	1710469.1993037	NaN	1710470.1827001	1710470.69925018
11	19	1	0	90	36.1581920903955	36.241610738255	25	0.833388899918646	2	2	1	NaN	1	5	0.0440279895567065	1	1	NaN	10	1	10	2	121	221	321	NaN	521	0.0104419640265405	1	1	NaN	1710471.649551	NaN	1710472.6329369	1710473.14948744
11	19	1	0	90	36.1581920903955	36.241610738255	13	0.433362227957696	2	10	1	NaN	2	4	0.0440279895567065	1	1	NaN	11	1	11	2	121	221	321	NaN	521	0.113368169171736	2	1	NaN	1710473.982989	NaN	1710474.9665029	1710475.48305093
11	19	1	0	90	36.1581920903955	36.241610738255	16	0.533368895947933	2	9	3	NaN	2	5	0.0440279895567065	1	1	NaN	12	1	12	2	121	221	321	NaN	521	0.103716169251129	2	1	NaN	1710476.4166795	NaN	1710477.4000813	1710477.91662123
11	19	1	0	90	36.1581920903955	36.241610738255	20	0.666711119934916	2	1	6	NaN	1	4	0.0440279895567065	1	1	NaN	13	1	13	2	121	221	321	NaN	521	0.176550816744566	1	1	NaN	1710478.9835637	NaN	1710479.9670586	1710480.48354408
11	19	1	0	90	36.1581920903955	36.241610738255	0	0	1	11	6	NaN	2	5	0.0440279895567065	1	1	NaN	14	1	14	2	111	211	311	NaN	511	0.0926211692858487	2	1	NaN	1710481.4838438	NaN	1710482.4672427	1710482.98378543
11	19	1	0	90	36.1581920903955	36.241610738255	14	0.466697783954442	2	1	6	NaN	1	4	0.0440279895567065	1	1	NaN	15	1	15	2	121	221	321	NaN	521	0.0603396217338741	1	1	NaN	1710483.8840864	NaN	1710484.8675232	1710485.38403048
11	19	1	0	90	36.1581920903955	36.241610738255	20	0.666711119934916	2	11	1	NaN	2	4	0.0440279895567065	1	1	NaN	16	1	16	2	121	221	321	NaN	521	0.125110469292849	1	0	NaN	1710486.2676582	NaN	1710487.2510401	1710487.76758803
11	19	1	0	90	36.1581920903955	36.241610738255	11	0.366691115964204	2	6	3	NaN	1	3	0.0440279895567065	1	1	NaN	17	1	17	2	121	221	321	NaN	521	0.138867574278265	1	1	NaN	1710488.717773	NaN	1710489.7012827	1710490.21784233
11	19	1	0	90	36.1581920903955	36.241610738255	20	0.666711119934916	2	9	1	NaN	2	3	0.0440279895567065	1	1	NaN	18	1	18	2	121	221	321	NaN	521	0.376583269331604	2	1	NaN	1710491.1680051	NaN	1710492.151553	1710492.66807763
11	19	1	0	90	36.1581920903955	36.241610738255	22	0.733382231928408	2	10	2	NaN	2	3	0.0440279895567065	1	1	NaN	19	1	19	2	121	221	321	NaN	521	0.412735416553915	2	1	NaN	1710494.0517497	NaN	1710495.0351432	1710495.55168388
11	19	1	0	90	36.1581920903955	36.241610738255	14	0.466697783954442	2	8	5	NaN	2	4	0.0440279895567065	1	1	NaN	20	1	20	2	121	221	321	NaN	521	0.102967569138855	1	0	NaN	1710498.1854837	NaN	1710499.168885	1710499.68542303
11	19	1	0	90	36.1581920903955	36.241610738255	8	0.266684447973967	2	5	6	NaN	1	4	0.0440279895567065	1	1	NaN	21	1	21	2	121	221	321	NaN	521	0.150164869381115	1	1	NaN	1710500.6022878	NaN	1710501.5857828	1710502.10233083
11	19	1	0	90	36.1581920903955	36.241610738255	22	0.733382231928408	2	7	2	NaN	2	5	0.0440279895567065	1	1	NaN	22	1	22	2	121	221	321	NaN	521	0.187049926957116	2	1	NaN	1710503.0692856	NaN	1710504.0526888	1710504.56924487
11	19	1	0	90	36.1581920903955	36.241610738255	8	0.266684447973967	2	7	3	NaN	2	4	0.0440279895567065	1	1	NaN	23	1	23	2	121	221	321	NaN	521	0.0229166215285659	2	1	NaN	1710505.5695982	NaN	1710506.5529447	1710507.06949108
11	19	1	0	90	36.1581920903955	36.241610738255	19	0.633375563938171	2	4	3	NaN	1	5	0.0440279895567065	1	1	NaN	24	1	24	2	121	221	321	NaN	521	2.39314792165533	1	1	NaN	1710507.903101	NaN	1710508.8865004	1710509.40305878
11	19	1	0	90	36.1581920903955	36.241610738255	10	0.333355559967458	2	9	1	NaN	2	4	0.0440279895567065	1	1	NaN	25	1	25	2	121	221	321	NaN	521	0.0282706425059587	2	1	NaN	1710512.6202557	NaN	1710513.6036317	1710514.12018126
11	19	1	0	90	36.1581920903955	36.241610738255	11	0.366691115964204	2	2	4	NaN	1	3	0.0440279895567065	1	1	NaN	26	1	26	2	121	221	321	NaN	521	0.291198164224625	1	1	NaN	1710515.2370362	NaN	1710516.2205438	1710516.73709624
11	19	1	0	90	36.1581920903955	36.241610738255	21	0.700046675931662	2	5	6	NaN	1	3	0.0440279895567065	1	1	NaN	27	1	27	2	121	221	321	NaN	521	0.257348021725193	1	1	NaN	1710517.8873845	NaN	1710518.8708116	1710519.38736348
11	19	1	0	90	36.1581920903955	36.241610738255	22	0.733382231928408	2	9	2	NaN	2	5	0.0440279895567065	1	1	NaN	28	1	28	2	121	221	321	NaN	521	0.0104015218093991	2	1	NaN	1710520.4543328	NaN	1710521.4377271	1710521.95428868
11	19	1	0	90	36.1581920903955	36.241610738255	6	0.200013335980475	2	6	5	NaN	1	3	0.0440279895567065	1	1	NaN	29	1	29	2	121	221	321	NaN	521	0.0445001216139644	1	1	NaN	1710522.7879004	NaN	1710523.7712959	1710524.28785048
11	19	1	0	90	36.1581920903955	36.241610738255	25	0.833388899918646	2	11	3	NaN	2	3	0.0440279895567065	1	1	NaN	30	1	30	2	121	221	321	NaN	521	0.069702731911093	2	1	NaN	1710525.1548066	NaN	1710526.1381888	1710526.65474347
11	19	1	0	90	36.1581920903955	36.241610738255	14	0.466697783954442	2	1	1	NaN	1	3	0.0440279895567065	1	1	NaN	31	1	31	2	121	221	321	NaN	521	0.0346486694179475	1	1	NaN	1710527.8216936	NaN	1710528.8051235	1710529.32167133
11	19	1	0	90	36.1581920903955	36.241610738255	20	0.666711119934916	2	2	2	NaN	1	5	0.0440279895567065	1	1	NaN	32	1	32	2	121	221	321	NaN	521	0.0524634215980768	1	1	NaN	1710530.1718315	NaN	1710531.1553512	1710531.67190898
11	19	1	0	90	36.1581920903955	36.241610738255	0	0	1	2	5	NaN	1	4	0.0440279895567065	1	1	NaN	33	1	33	2	111	211	311	NaN	511	0.100967316655442	1	1	NaN	1710532.555522	NaN	1710533.5389195	1710534.05546918
11	19	1	0	90	36.1581920903955	36.241610738255	18	0.600040007941425	2	10	3	NaN	2	4	0.0440279895567065	1	1	NaN	34	1	34	2	121	221	321	NaN	521	0.116729674395174	2	1	NaN	1710535.1551115	NaN	1710536.1392057	1710536.65573523
11	19	1	0	90	36.1581920903955	36.241610738255	13	0.433362227957696	2	5	6	NaN	1	5	0.0440279895567065	1	1	NaN	35	1	35	2	121	221	321	NaN	521	0.251104669412598	1	1	NaN	1710537.5893563	NaN	1710538.5727418	1710539.08929653
11	19	1	0	90	36.1581920903955	36.241610738255	15	0.500033339951187	2	10	4	NaN	2	3	0.0440279895567065	1	1	NaN	36	1	36	2	121	221	321	NaN	521	0.188536074245349	1	0	NaN	1710540.1562833	NaN	1710541.1396697	1710541.65622613
11	19	1	0	90	36.1581920903955	36.241610738255	21	0.700046675931662	2	2	3	NaN	1	5	0.0440279895567065	1	1	NaN	37	1	37	2	121	221	321	NaN	521	0.25971162179485	1	1	NaN	1710544.9566097	NaN	1710545.9401405	1710546.45668878
11	19	1	0	90	36.1581920903955	36.241610738255	0	0	1	7	5	NaN	2	5	0.0440279895567065	1	1	NaN	38	1	38	2	111	211	311	NaN	511	0.9762281216681	1	0	NaN	1710549.6405124	NaN	1710550.6239318	1710551.14048688
11	19	1	0	90	36.1581920903955	36.241610738255	17	0.566704451944679	2	9	6	NaN	2	4	0.0440279895567065	1	1	NaN	39	1	39	2	121	221	321	NaN	521	0.372738221660256	1	0	NaN	1710552.9241853	NaN	1710553.907591	1710554.42414268
11	19	1	0	90	36.1581920903955	36.241610738255	18	0.600040007941425	2	8	4	NaN	2	3	0.0440279895567065	1	1	NaN	40	1	40	2	121	221	321	NaN	521	0.245563621632755	1	0	NaN	1710555.8910266	NaN	1710556.8745746	1710557.39109248
11	19	1	0	90	36.1581920903955	36.241610738255	11	0.366691115964204	2	1	1	NaN	1	3	0.0440279895567065	1	1	NaN	41	1	41	2	121	221	321	NaN	521	0.0104104692582041	1	1	NaN	1710558.4580764	NaN	1710559.4413668	1710559.95800963
11	19	1	0	90	36.1581920903955	36.241610738255	11	0.366691115964204	2	10	6	NaN	2	3	0.0440279895567065	1	1	NaN	42	1	42	2	121	221	321	NaN	521	0.256863569142297	1	0	NaN	1710560.7916376	NaN	1710561.775159	1710562.29157633
11	19	1	0	90	36.1581920903955	36.241610738255	15	0.500033339951187	2	1	3	NaN	1	5	0.0440279895567065	1	1	NaN	43	1	43	2	121	221	321	NaN	521	0.377869469346479	2	0	NaN	1710563.3585525	NaN	1710564.3419398	1710564.85848973
11	19	1	0	90	36.1581920903955	36.241610738255	17	0.566704451944679	2	10	2	NaN	2	5	0.0440279895567065	1	1	NaN	44	1	44	2	121	221	321	NaN	521	0.136327469255775	2	1	NaN	1710566.1920271	NaN	1710567.1755516	1710567.69210423
11	19	1	0	90	36.1581920903955	36.241610738255	24	0.8000533439219	2	8	5	NaN	2	5	0.0440279895567065	1	1	NaN	45	1	45	2	121	221	321	NaN	521	0.126177969155833	1	0	NaN	1710568.642407	NaN	1710569.6257983	1710570.14234683
11	19	1	0	90	36.1581920903955	36.241610738255	25	0.833388899918646	2	2	5	NaN	1	5	0.0440279895567065	1	1	NaN	46	1	46	2	121	221	321	NaN	521	0.212884484324604	1	1	NaN	1710571.0759554	NaN	1710572.0593701	1710572.57591922
11	19	1	0	90	36.1581920903955	36.241610738255	11	0.366691115964204	2	4	2	NaN	1	4	0.0440279895567065	1	1	NaN	47	1	47	2	121	221	321	NaN	521	0.967324721626937	1	1	NaN	1710573.6095602	NaN	1710574.5930154	1710575.10950758
11	19	1	0	90	36.1581920903955	36.241610738255	14	0.466697783954442	2	12	3	NaN	2	4	0.0440279895567065	1	1	NaN	48	1	48	2	121	221	321	NaN	521	0.275593864032999	2	1	NaN	1710576.8931411	NaN	1710577.8766016	1710578.39315174
11	19	1	0	90	36.1581920903955	36.241610738255	22	0.733382231928408	2	6	1	NaN	1	4	0.0440279895567065	1	1	NaN	49	1	49	2	121	221	321	NaN	521	0.275569169316441	1	1	NaN	1710579.4766727	NaN	1710580.4601981	1710580.97674983
11	19	1	0	90	36.1581920903955	36.241610738255	18	0.600040007941425	2	1	2	NaN	1	5	0.0440279895567065	1	1	NaN	50	1	50	2	121	221	321	NaN	521	0.988473569275811	1	1	NaN	1710582.060319	NaN	1710583.043783	1710583.56033423
11	19	1	0	90	36.1581920903955	36.241610738255	7	0.233348891977221	2	8	3	NaN	2	4	0.0440279895567065	1	1	NaN	51	1	51	2	121	221	321	NaN	521	0.20777246938087	2	1	NaN	1710585.3607087	NaN	1710586.3441009	1710586.86065263
11	19	1	0	90	36.1581920903955	36.241610738255	17	0.566704451944679	2	8	1	NaN	2	4	0.0440279895567065	1	1	NaN	52	1	52	2	121	221	321	NaN	521	0.17923462158069	2	1	NaN	1710587.8776467	NaN	1710588.8610227	1710589.37757518
11	19	1	0	90	36.1581920903955	36.241610738255	25	0.833388899918646	2	1	1	NaN	1	3	0.0440279895567065	1	1	NaN	53	1	53	2	121	221	321	NaN	521	0.13565891678445	1	1	NaN	1710590.3610801	NaN	1710591.3445961	1710591.86114428
11	19	1	0	90	36.1581920903955	36.241610738255	7	0.233348891977221	2	3	2	NaN	1	3	0.0440279895567065	1	1	NaN	54	1	54	2	121	221	321	NaN	521	0.165446669328958	1	1	NaN	1710592.8114522	NaN	1710593.7948195	1710594.31138363
11	19	1	0	90	36.1581920903955	36.241610738255	16	0.533368895947933	2	8	4	NaN	2	4	0.0440279895567065	1	1	NaN	55	1	55	2	121	221	321	NaN	521	0.945836616680026	1	0	NaN	1710595.295024	NaN	1710596.2784228	1710596.79496338
11	19	1	0	90	36.1581920903955	36.241610738255	23	0.766717787925154	2	11	2	NaN	2	3	0.0440279895567065	1	1	NaN	56	1	56	2	121	221	321	NaN	521	0.671039721695706	1	0	NaN	1710598.5453454	NaN	1710599.5287269	1710600.04528918
11	19	1	0	90	36.1581920903955	36.241610738255	6	0.200013335980475	2	5	5	NaN	1	4	0.0440279895567065	1	1	NaN	57	1	57	2	121	221	321	NaN	521	0.335449169389904	1	1	NaN	1710601.5289633	NaN	1710602.5123898	1710603.02890573
11	19	1	0	90	36.1581920903955	36.241610738255	19	0.633375563938171	2	6	6	NaN	1	5	0.0440279895567065	1	1	NaN	58	1	58	2	121	221	321	NaN	521	0.34924496919848	1	1	NaN	1710604.1792257	NaN	1710605.1626279	1710605.67916413
11	19	1	0	90	36.1581920903955	36.241610738255	9	0.300020003970712	2	3	6	NaN	1	3	0.0440279895567065	1	1	NaN	59	1	59	2	121	221	321	NaN	521	0.2106873691082	1	1	NaN	1710606.8461611	NaN	1710607.8295486	1710608.34610133
11	19	1	0	90	36.1581920903955	36.241610738255	23	0.766717787925154	2	3	5	NaN	1	4	0.0440279895567065	1	1	NaN	60	1	60	2	121	221	321	NaN	521	0.245852769352496	1	1	NaN	1710609.3630616	NaN	1710610.3464674	1710610.86301573
11	19	1	0	90	36.1581920903955	36.241610738255	9	0.300020003970712	2	1	4	NaN	1	4	0.0440279895567065	1	1	NaN	61	1	61	2	121	221	321	NaN	521	0.159634921699762	1	1	NaN	1710611.9133162	NaN	1710612.8967184	1710613.41326638
11	19	1	0	90	36.1581920903955	36.241610738255	20	0.666711119934916	2	5	4	NaN	1	3	0.0440279895567065	1	1	NaN	62	1	62	2	121	221	321	NaN	521	0.220592369325459	1	1	NaN	1710614.3802177	NaN	1710615.3636355	1710615.88016443
11	19	1	0	90	36.1581920903955	36.241610738255	25	0.833388899918646	2	8	6	NaN	2	4	0.0440279895567065	1	1	NaN	63	1	63	2	121	221	321	NaN	521	0.166862669400871	1	0	NaN	1710616.9137545	NaN	1710617.8971979	1710618.41375233
11	19	1	0	90	36.1581920903955	36.241610738255	21	0.700046675931662	2	11	1	NaN	2	3	0.0440279895567065	1	1	NaN	64	2	1	2	121	221	321	NaN	521	0.0104510693345219	2	1	NaN	1710635.9323552	NaN	1710636.9157338	1710637.43228763
11	19	1	0	90	36.1581920903955	36.241610738255	22	0.733382231928408	2	10	5	NaN	2	5	0.0440279895567065	1	1	NaN	65	2	2	2	121	221	321	NaN	521	0.301458674250171	2	1	NaN	1710639.4993434	NaN	1710640.4827982	1710640.99930503
11	19	1	0	90	36.1581920903955	36.241610738255	22	0.733382231928408	2	2	6	NaN	1	3	0.0440279895567065	1	1	NaN	66	2	3	2	121	221	321	NaN	521	0.388564437162131	2	0	NaN	1710642.116285	NaN	1710643.0996615	1710643.61622736
11	19	1	0	90	36.1581920903955	36.241610738255	19	0.633375563938171	2	5	1	NaN	1	5	0.0440279895567065	1	1	NaN	67	2	4	2	121	221	321	NaN	521	0.327860421733931	1	1	NaN	1710644.8165451	NaN	1710645.7999298	1710646.31649938
11	19	1	0	90	36.1581920903955	36.241610738255	22	0.733382231928408	2	1	5	NaN	1	3	0.0440279895567065	1	1	NaN	68	2	5	2	121	221	321	NaN	521	0.142466684570536	1	1	NaN	1710647.4501364	NaN	1710648.4337169	1710648.95009312
11	19	1	0	90	36.1581920903955	36.241610738255	22	0.733382231928408	2	12	3	NaN	2	4	0.0440279895567065	1	1	NaN	69	2	6	2	121	221	321	NaN	521	0.188311969162896	2	1	NaN	1710649.9003776	NaN	1710650.8837759	1710651.40032283
11	19	1	0	90	36.1581920903955	36.241610738255	18	0.600040007941425	2	8	1	NaN	2	5	0.0440279895567065	1	1	NaN	70	2	7	2	121	221	321	NaN	521	0.23229026934132	2	1	NaN	1710652.4006202	NaN	1710653.3840125	1710653.90057723
11	19	1	0	90	36.1581920903955	36.241610738255	8	0.266684447973967	2	8	2	NaN	2	5	0.0440279895567065	1	1	NaN	71	2	8	2	121	221	321	NaN	521	0.0583082693628967	1	0	NaN	1710654.9342036	NaN	1710655.9176033	1710656.43416203
11	19	1	0	90	36.1581920903955	36.241610738255	25	0.833388899918646	2	12	5	NaN	2	4	0.0440279895567065	1	1	NaN	72	2	9	2	121	221	321	NaN	521	0.227854669326916	1	0	NaN	1710657.3011248	NaN	1710658.2845259	1710658.80105343
11	19	1	0	90	36.1581920903955	36.241610738255	15	0.500033339951187	2	4	2	NaN	1	5	0.0440279895567065	1	1	NaN	73	2	10	2	121	221	321	NaN	521	0.269760174443945	1	1	NaN	1710659.8346904	NaN	1710660.8180843	1710661.33463053
11	19	1	0	90	36.1581920903955	36.241610738255	24	0.8000533439219	2	2	5	NaN	1	4	0.0440279895567065	1	1	NaN	74	2	11	2	121	221	321	NaN	521	0.0784170692786574	1	1	NaN	1710662.4182816	NaN	1710663.4016976	1710663.91821903
11	19	1	0	90	36.1581920903955	36.241610738255	19	0.633375563938171	2	12	3	NaN	2	3	0.0440279895567065	1	1	NaN	75	2	12	2	121	221	321	NaN	521	0.78855706914328	1	0	NaN	1710665.6518961	NaN	1710666.6353165	1710667.15187033
11	19	1	0	90	36.1581920903955	36.241610738255	15	0.500033339951187	2	3	2	NaN	1	3	0.0440279895567065	1	1	NaN	76	2	13	2	121	221	321	NaN	521	0.448826069245115	1	1	NaN	1710668.7521147	NaN	1710669.7356244	1710670.25217123
11	19	1	0	90	36.1581920903955	36.241610738255	22	0.733382231928408	2	3	5	NaN	1	3	0.0440279895567065	1	1	NaN	77	2	14	2	121	221	321	NaN	521	0.257762831868604	1	1	NaN	1710671.5191785	NaN	1710672.5025606	1710673.01912437
11	19	1	0	90	36.1581920903955	36.241610738255	14	0.466697783954442	2	3	2	NaN	1	5	0.0440279895567065	1	1	NaN	78	2	15	2	121	221	321	NaN	521	0.154400516767055	1	1	NaN	1710674.0860848	NaN	1710675.0694886	1710675.58603608
11	19	1	0	90	36.1581920903955	36.241610738255	7	0.233348891977221	2	11	3	NaN	2	3	0.0440279895567065	1	1	NaN	79	2	16	2	121	221	321	NaN	521	0.247595616849139	1	0	NaN	1710676.5529951	NaN	1710677.5363863	1710678.05294808
11	19	1	0	90	36.1581920903955	36.241610738255	21	0.700046675931662	2	12	6	NaN	2	3	0.0440279895567065	1	1	NaN	80	2	17	2	121	221	321	NaN	521	0.145537421805784	2	1	NaN	1710679.1032763	NaN	1710680.086655	1710680.60320008
11	19	1	0	90	36.1581920903955	36.241610738255	17	0.566704451944679	2	2	5	NaN	1	5	0.0440279895567065	1	1	NaN	81	2	18	2	121	221	321	NaN	521	0.295084369368851	2	0	NaN	1710681.553492	NaN	1710682.5368908	1710683.05343193
11	19	1	0	90	36.1581920903955	36.241610738255	19	0.633375563938171	2	1	4	NaN	1	5	0.0440279895567065	1	1	NaN	82	2	19	2	121	221	321	NaN	521	0.047017969423905	1	1	NaN	1710684.1537425	NaN	1710685.1371354	1710685.65369543
11	19	1	0	90	36.1581920903955	36.241610738255	18	0.600040007941425	2	6	1	NaN	1	3	0.0440279895567065	1	1	NaN	83	2	20	2	121	221	321	NaN	521	0.208579221507534	1	1	NaN	1710686.5039633	NaN	1710687.4873583	1710688.00392338
11	19	1	0	90	36.1581920903955	36.241610738255	19	0.633375563938171	2	9	4	NaN	2	5	0.0440279895567065	1	1	NaN	84	2	21	2	121	221	321	NaN	521	0.043501069303602	1	0	NaN	1710689.0208761	NaN	1710690.0042791	1710690.52083353
11	19	1	0	90	36.1581920903955	36.241610738255	12	0.40002667196095	2	12	2	NaN	2	5	0.0440279895567065	1	1	NaN	85	2	22	2	121	221	321	NaN	521	0.46978892153129	1	0	NaN	1710691.3711155	NaN	1710692.3545146	1710692.87106798
11	19	1	0	90	36.1581920903955	36.241610738255	10	0.333355559967458	2	10	1	NaN	2	4	0.0440279895567065	1	1	NaN	86	2	23	2	121	221	321	NaN	521	0.0619158218614757	2	1	NaN	1710694.1546269	NaN	1710695.1381252	1710695.65467778
11	19	1	0	90	36.1581920903955	36.241610738255	17	0.566704451944679	2	6	2	NaN	1	3	0.0440279895567065	1	1	NaN	87	2	24	2	121	221	321	NaN	521	0.590614674380049	2	0	NaN	1710696.7382916	NaN	1710697.7217114	1710698.23825823
11	19	1	0	90	36.1581920903955	36.241610738255	9	0.300020003970712	2	7	1	NaN	2	4	0.0440279895567065	1	1	NaN	88	2	25	2	121	221	321	NaN	521	0.0741201692726463	1	0	NaN	1710699.6385922	NaN	1710700.6219881	1710701.13854533
11	19	1	0	90	36.1581920903955	36.241610738255	10	0.333355559967458	2	11	4	NaN	2	3	0.0440279895567065	1	1	NaN	89	2	26	2	121	221	321	NaN	521	0.306523521663621	1	0	NaN	1710702.0221605	NaN	1710703.0055554	1710703.52211208
11	19	1	0	90	36.1581920903955	36.241610738255	24	0.8000533439219	2	3	6	NaN	1	3	0.0440279895567065	1	1	NaN	90	2	27	2	121	221	321	NaN	521	0.112054069293663	1	1	NaN	1710706.4725886	NaN	1710707.4559928	1710707.97254973
11	19	1	0	90	36.1581920903955	36.241610738255	8	0.266684447973967	2	1	6	NaN	1	4	0.0440279895567065	1	1	NaN	91	2	28	2	121	221	321	NaN	521	0.580779169220477	2	0	NaN	1710709.1561754	NaN	1710710.1395918	1710710.65613823
11	19	1	0	90	36.1581920903955	36.241610738255	13	0.433362227957696	2	10	3	NaN	2	3	0.0440279895567065	1	1	NaN	92	2	29	2	121	221	321	NaN	521	0.803157921647653	1	0	NaN	1710715.5734291	NaN	1710716.5568907	1710717.07344468
11	19	1	0	90	36.1581920903955	36.241610738255	10	0.333355559967458	2	1	3	NaN	1	5	0.0440279895567065	1	1	NaN	93	2	30	2	121	221	321	NaN	521	0.33409876935184	1	1	NaN	1710718.890403	NaN	1710719.8738747	1710720.39042603
11	19	1	0	90	36.1581920903955	36.241610738255	12	0.40002667196095	2	12	2	NaN	2	5	0.0440279895567065	1	1	NaN	94	2	31	2	121	221	321	NaN	521	0.344376269262284	2	1	NaN	1710723.8243229	NaN	1710724.8077012	1710725.32424873
11	19	1	0	90	36.1581920903955	36.241610738255	15	0.500033339951187	2	7	5	NaN	2	3	0.0440279895567065	1	1	NaN	95	2	32	2	121	221	321	NaN	521	3.13005897426046	2	1	NaN	1710728.9746776	NaN	1710729.9581986	1710730.47476263
11	19	1	0	90	36.1581920903955	36.241610738255	17	0.566704451944679	2	12	5	NaN	2	4	0.0440279895567065	1	1	NaN	96	2	33	2	121	221	321	NaN	521	0.375319069251418	1	0	NaN	1710738.8090703	NaN	1710739.7925103	1710740.30905043
11	19	1	0	90	36.1581920903955	36.241610738255	11	0.366691115964204	2	10	6	NaN	2	3	0.0440279895567065	1	1	NaN	97	2	34	2	121	221	321	NaN	521	0.523119969293475	1	0	NaN	1710741.9093863	NaN	1710742.8928051	1710743.40935643
11	19	1	0	90	36.1581920903955	36.241610738255	11	0.366691115964204	2	1	5	NaN	1	5	0.0440279895567065	1	1	NaN	98	2	35	2	121	221	321	NaN	521	0.546009069308639	2	0	NaN	1710744.7430098	NaN	1710745.7264235	1710746.24297103
11	19	1	0	90	36.1581920903955	36.241610738255	14	0.466697783954442	2	11	6	NaN	2	5	0.0440279895567065	1	1	NaN	99	2	36	2	121	221	321	NaN	521	0.454513889737427	2	1	NaN	1710747.6099791	NaN	1710748.5933671	1710749.10992561
11	19	1	0	90	36.1581920903955	36.241610738255	10	0.333355559967458	2	7	3	NaN	2	3	0.0440279895567065	1	1	NaN	100	2	37	2	121	221	321	NaN	521	0.551632669288665	2	1	NaN	1710750.376902	NaN	1710751.3603095	1710751.87685563
11	19	1	0	90	36.1581920903955	36.241610738255	13	0.433362227957696	2	8	4	NaN	2	4	0.0440279895567065	1	1	NaN	101	2	38	2	121	221	321	NaN	521	0.22092371666804	2	1	NaN	1710753.2437598	NaN	1710754.2271513	1710754.74380768
11	19	1	0	90	36.1581920903955	36.241610738255	6	0.200013335980475	2	1	3	NaN	1	4	0.0440279895567065	1	1	NaN	102	2	39	2	121	221	321	NaN	521	0.183270421810448	1	1	NaN	1710755.7774469	NaN	1710756.7608168	1710757.27741158
11	19	1	0	90	36.1581920903955	36.241610738255	9	0.300020003970712	2	9	5	NaN	2	4	0.0440279895567065	1	1	NaN	103	2	40	2	121	221	321	NaN	521	0.187029069289565	2	1	NaN	1710758.2776268	NaN	1710759.2610812	1710759.77762723
11	19	1	0	90	36.1581920903955	36.241610738255	19	0.633375563938171	2	10	5	NaN	2	4	0.0440279895567065	1	1	NaN	104	2	41	2	121	221	321	NaN	521	0.302870521787554	2	1	NaN	1710760.7779665	NaN	1710761.76133	1710762.27788628
11	19	1	0	90	36.1581920903955	36.241610738255	8	0.266684447973967	2	9	5	NaN	2	4	0.0440279895567065	1	1	NaN	105	2	42	2	121	221	321	NaN	521	0.222154221730307	2	1	NaN	1710763.3948594	NaN	1710764.3782557	1710764.89481668
11	19	1	0	90	36.1581920903955	36.241610738255	6	0.200013335980475	2	12	6	NaN	2	5	0.0440279895567065	1	1	NaN	106	2	43	2	121	221	321	NaN	521	0.160284169251099	2	1	NaN	1710765.9284382	NaN	1710766.9118302	1710767.42837763
11	19	1	0	90	36.1581920903955	36.241610738255	8	0.266684447973967	2	10	6	NaN	2	4	0.0440279895567065	1	1	NaN	107	2	44	2	121	221	321	NaN	521	0.237373621668667	1	0	NaN	1710768.395225	NaN	1710769.3787428	1710769.89529898
11	19	1	0	90	36.1581920903955	36.241610738255	9	0.300020003970712	2	11	5	NaN	2	3	0.0440279895567065	1	1	NaN	108	2	45	2	121	221	321	NaN	521	0.103190342197195	2	1	NaN	1710770.9455974	NaN	1710771.928995	1710772.44555136
11	19	1	0	90	36.1581920903955	36.241610738255	17	0.566704451944679	2	10	2	NaN	2	3	0.0440279895567065	1	1	NaN	109	2	46	2	121	221	321	NaN	521	0.28145392681472	2	1	NaN	1710773.4791749	NaN	1710774.4625696	1710774.97912887
11	19	1	0	90	36.1581920903955	36.241610738255	20	0.666711119934916	2	10	6	NaN	2	3	0.0440279895567065	1	1	NaN	110	2	47	2	121	221	321	NaN	521	0.223457269137725	2	1	NaN	1710834.0018003	NaN	1710834.985175	1710835.50173133
11	19	1	0	90	36.1581920903955	36.241610738255	21	0.700046675931662	2	12	3	NaN	2	4	0.0440279895567065	1	1	NaN	111	2	48	2	121	221	321	NaN	521	0.104796264087781	1	0	NaN	1710836.5519253	NaN	1710837.5354444	1710838.05198064
11	19	1	0	90	36.1581920903955	36.241610738255	8	0.266684447973967	2	2	1	NaN	1	3	0.0440279895567065	1	1	NaN	112	2	49	2	121	221	321	NaN	521	0.111303169280291	1	1	NaN	1710838.9856122	NaN	1710839.9690255	1710840.48556213
11	19	1	0	90	36.1581920903955	36.241610738255	24	0.8000533439219	2	4	1	NaN	1	5	0.0440279895567065	1	1	NaN	113	2	50	2	121	221	321	NaN	521	0.0695980691816658	2	0	NaN	1710841.4190662	NaN	1710842.4025808	1710842.91912963
11	19	1	0	90	36.1581920903955	36.241610738255	25	0.833388899918646	2	1	5	NaN	1	5	0.0440279895567065	1	1	NaN	114	2	51	2	121	221	321	NaN	521	0.0141180693171918	1	1	NaN	1710843.8027438	NaN	1710844.7861883	1710845.30270303
11	19	1	0	90	36.1581920903955	36.241610738255	8	0.266684447973967	2	6	4	NaN	1	4	0.0440279895567065	1	1	NaN	115	2	52	2	121	221	321	NaN	521	0.744632916525006	1	1	NaN	1710846.1363118	NaN	1710847.1197144	1710847.63625708
11	19	1	0	90	36.1581920903955	36.241610738255	0	0	1	6	4	NaN	1	4	0.0440279895567065	1	1	NaN	116	2	53	2	111	211	311	NaN	511	0.261533464072272	1	1	NaN	1710849.2033003	NaN	1710850.1866841	1710850.70322664
11	19	1	0	90	36.1581920903955	36.241610738255	6	0.200013335980475	2	11	5	NaN	2	3	0.0440279895567065	1	1	NaN	117	2	54	2	121	221	321	NaN	521	0.25457941647619	1	0	NaN	1710851.7702203	NaN	1710852.7535908	1710853.27017418
11	19	1	0	90	36.1581920903955	36.241610738255	24	0.8000533439219	2	9	5	NaN	2	3	0.0440279895567065	1	1	NaN	118	2	55	2	121	221	321	NaN	521	0.263832174474373	2	1	NaN	1710854.3369852	NaN	1710855.3205334	1710855.83707253
11	19	1	0	90	36.1581920903955	36.241610738255	14	0.466697783954442	2	9	3	NaN	2	4	0.0440279895567065	1	1	NaN	119	2	56	2	121	221	321	NaN	521	0.0881925693247467	2	1	NaN	1710856.9207092	NaN	1710857.904147	1710858.42064863
11	19	1	0	90	36.1581920903955	36.241610738255	0	0	1	11	5	NaN	2	4	0.0440279895567065	1	1	NaN	120	2	57	2	111	211	311	NaN	511	0.0239687692373991	1	0	NaN	1710859.3209679	NaN	1710860.3043549	1710860.82088453
11	19	1	0	90	36.1581920903955	36.241610738255	6	0.200013335980475	2	5	3	NaN	1	3	0.0440279895567065	1	1	NaN	121	2	58	2	121	221	321	NaN	521	0.0824519793968648	1	1	NaN	1710861.6545085	NaN	1710862.6379328	1710863.15445062
11	19	1	0	90	36.1581920903955	36.241610738255	9	0.300020003970712	2	7	6	NaN	2	4	0.0440279895567065	1	1	NaN	122	2	59	2	121	221	321	NaN	521	0.218178869225085	2	1	NaN	1710864.0546133	NaN	1710865.0381582	1710865.55467983
11	19	1	0	90	36.1581920903955	36.241610738255	0	0	1	4	6	NaN	1	4	0.0440279895567065	1	1	NaN	123	2	60	2	111	211	311	NaN	511	0.350311116781086	1	1	NaN	1710866.9383439	NaN	1710867.9218085	1710868.43830058
11	19	1	0	90	36.1581920903955	36.241610738255	23	0.766717787925154	2	8	3	NaN	2	3	0.0440279895567065	1	1	NaN	124	2	61	2	121	221	321	NaN	521	0.435934169450775	2	1	NaN	1710869.6052862	NaN	1710870.5886941	1710871.10523663
11	19	1	0	90	36.1581920903955	36.241610738255	23	0.766717787925154	2	7	6	NaN	2	5	0.0440279895567065	1	1	NaN	125	2	62	2	121	221	321	NaN	521	1.18135567428544	2	1	NaN	1710872.3556351	NaN	1710873.3389453	1710873.85550793
11	19	1	0	90	36.1581920903955	36.241610738255	25	0.833388899918646	2	9	4	NaN	2	5	0.0440279895567065	1	1	NaN	126	2	63	2	121	221	321	NaN	521	0.305338469333947	2	1	NaN	1710875.8559247	NaN	1710876.8393078	1710877.35584583
11	19	1	0	90	36.1581920903955	36.241610738255	20	0.666711119934916	2	5	5	NaN	1	4	0.0440279895567065	1	1	NaN	127	3	1	2	121	221	321	NaN	521	0.89865668467246	2	0	NaN	1710892.7742793	NaN	1710893.7576568	1710894.27417352
11	19	1	0	90	36.1581920903955	36.241610738255	25	0.833388899918646	2	7	4	NaN	2	3	0.0440279895567065	1	1	NaN	128	3	2	2	121	221	321	NaN	521	0.0939007692504674	2	1	NaN	1710896.0912284	NaN	1710897.0746093	1710897.59116963
11	19	1	0	90	36.1581920903955	36.241610738255	6	0.200013335980475	2	2	6	NaN	1	4	0.0440279895567065	1	1	NaN	129	3	3	2	121	221	321	NaN	521	0.605585169279948	2	0	NaN	1710898.4914695	NaN	1710899.4748681	1710899.99140943
11	19	1	0	90	36.1581920903955	36.241610738255	18	0.600040007941425	2	11	1	NaN	2	3	0.0440279895567065	1	1	NaN	130	3	4	2	121	221	321	NaN	521	0.119854779681191	2	1	NaN	1710901.4250784	NaN	1710902.408541	1710902.92502532
11	19	1	0	90	36.1581920903955	36.241610738255	15	0.500033339951187	2	8	6	NaN	2	3	0.0440279895567065	1	1	NaN	131	3	5	2	121	221	321	NaN	521	0.702641469193622	1	0	NaN	1710903.8585288	NaN	1710904.842066	1710905.35859123
11	19	1	0	90	36.1581920903955	36.241610738255	15	0.500033339951187	2	10	4	NaN	2	4	0.0440279895567065	1	1	NaN	132	3	6	2	121	221	321	NaN	521	0.269667669199407	1	0	NaN	1710906.8756335	NaN	1710907.8590203	1710908.37555823
11	19	1	0	90	36.1581920903955	36.241610738255	0	0	1	1	2	NaN	1	5	0.0440279895567065	1	1	NaN	133	3	7	2	111	211	311	NaN	511	0.317762721562758	1	1	NaN	1710909.4591245	NaN	1710910.4426093	1710910.95913728
11	19	1	0	90	36.1581920903955	36.241610738255	11	0.366691115964204	2	3	3	NaN	1	5	0.0440279895567065	1	1	NaN	134	3	8	2	121	221	321	NaN	521	0.164377121720463	1	1	NaN	1710912.0927868	NaN	1710913.0762107	1710913.59274288
11	19	1	0	90	36.1581920903955	36.241610738255	20	0.666711119934916	2	6	5	NaN	1	4	0.0440279895567065	1	1	NaN	135	3	9	2	121	221	321	NaN	521	0.23282816936262	1	1	NaN	1710914.5763935	NaN	1710915.5597642	1710916.07631123
11	19	1	0	90	36.1581920903955	36.241610738255	8	0.266684447973967	2	5	3	NaN	1	3	0.0440279895567065	1	1	NaN	136	3	10	2	121	221	321	NaN	521	0.370447031920776	1	1	NaN	1710917.1266435	NaN	1710918.1100597	1710918.62657327
11	19	1	0	90	36.1581920903955	36.241610738255	16	0.533368895947933	2	7	6	NaN	2	3	0.0440279895567065	1	1	NaN	137	3	11	2	121	221	321	NaN	521	0.654532931745052	2	1	NaN	1710919.8102729	NaN	1710920.7936237	1710921.31016967
11	19	1	0	90	36.1581920903955	36.241610738255	13	0.433362227957696	2	2	4	NaN	1	5	0.0440279895567065	1	1	NaN	138	3	12	2	121	221	321	NaN	521	0.152160469442606	1	1	NaN	1710922.7772823	NaN	1710923.7605707	1710924.27712333
11	19	1	0	90	36.1581920903955	36.241610738255	13	0.433362227957696	2	7	3	NaN	2	5	0.0440279895567065	1	1	NaN	139	3	13	2	121	221	321	NaN	521	0.308967769378796	1	0	NaN	1710925.2439596	NaN	1710926.2274785	1710926.74402073
11	19	1	0	90	36.1581920903955	36.241610738255	17	0.566704451944679	2	7	5	NaN	2	3	0.0440279895567065	1	1	NaN	140	3	14	2	121	221	321	NaN	521	0.824561421526596	1	0	NaN	1710927.9442164	NaN	1710928.9277428	1710929.44429518
11	19	1	0	90	36.1581920903955	36.241610738255	25	0.833388899918646	2	7	3	NaN	2	4	0.0440279895567065	1	1	NaN	141	3	15	2	121	221	321	NaN	521	0.523185816593468	1	0	NaN	1710932.4780207	NaN	1710933.4615423	1710933.97806818
11	19	1	0	90	36.1581920903955	36.241610738255	23	0.766717787925154	2	4	1	NaN	1	5	0.0440279895567065	1	1	NaN	142	3	16	2	121	221	321	NaN	521	0.207937269471586	1	1	NaN	1710935.5450843	NaN	1710936.5285062	1710937.04504333
11	19	1	0	90	36.1581920903955	36.241610738255	21	0.700046675931662	2	11	2	NaN	2	3	0.0440279895567065	1	1	NaN	143	3	17	2	121	221	321	NaN	521	0.246389521751553	1	0	NaN	1710938.3787125	NaN	1710939.3621151	1710939.87865448
11	19	1	0	90	36.1581920903955	36.241610738255	10	0.333355559967458	2	1	2	NaN	1	5	0.0440279895567065	1	1	NaN	144	3	18	2	121	221	321	NaN	521	0.0711432693060488	1	1	NaN	1710940.9456143	NaN	1710941.9290106	1710942.44556113
11	19	1	0	90	36.1581920903955	36.241610738255	24	0.8000533439219	2	12	1	NaN	2	5	0.0440279895567065	1	1	NaN	145	3	19	2	121	221	321	NaN	521	1.25563916936517	1	0	NaN	1710943.3292958	NaN	1710944.3126079	1710944.82913433
11	19	1	0	90	36.1581920903955	36.241610738255	21	0.700046675931662	2	9	6	NaN	2	3	0.0440279895567065	1	1	NaN	146	3	20	2	121	221	321	NaN	521	0.304157821694389	2	1	NaN	1710946.9127732	NaN	1710947.8962883	1710948.41282438
11	19	1	0	90	36.1581920903955	36.241610738255	17	0.566704451944679	2	2	5	NaN	1	4	0.0440279895567065	1	1	NaN	147	3	21	2	121	221	321	NaN	521	0.119301863946021	1	1	NaN	1710949.5297279	NaN	1710950.5131976	1710951.02975054
11	19	1	0	90	36.1581920903955	36.241610738255	20	0.666711119934916	2	10	6	NaN	2	3	0.0440279895567065	1	1	NaN	148	3	22	2	121	221	321	NaN	521	0.237695469288155	2	1	NaN	1710951.9634811	NaN	1710952.9467966	1710953.46332133
11	19	1	0	90	36.1581920903955	36.241610738255	20	0.666711119934916	2	7	2	NaN	2	4	0.0440279895567065	1	1	NaN	149	3	23	2	121	221	321	NaN	521	0.223706969292834	2	1	NaN	1710954.5136537	NaN	1710955.4970487	1710956.01356593
11	19	1	0	90	36.1581920903955	36.241610738255	10	0.333355559967458	2	3	3	NaN	1	5	0.0440279895567065	1	1	NaN	150	3	24	2	121	221	321	NaN	521	0.297019321471453	1	1	NaN	1710957.0638779	NaN	1710958.0472695	1710958.56382398
11	19	1	0	90	36.1581920903955	36.241610738255	6	0.200013335980475	2	9	5	NaN	2	4	0.0440279895567065	1	1	NaN	151	3	25	2	121	221	321	NaN	521	0.31224536919035	1	0	NaN	1710959.6807864	NaN	1710960.6642188	1710961.18073713
11	19	1	0	90	36.1581920903955	36.241610738255	7	0.233348891977221	2	12	5	NaN	2	5	0.0440279895567065	1	1	NaN	152	3	26	2	121	221	321	NaN	521	0.511016621720046	2	1	NaN	1710962.3143984	NaN	1710963.2977736	1710963.81433818
11	19	1	0	90	36.1581920903955	36.241610738255	18	0.600040007941425	2	12	5	NaN	2	4	0.0440279895567065	1	1	NaN	153	3	27	2	121	221	321	NaN	521	0.189117642352358	2	1	NaN	1710965.1480094	NaN	1710966.1314046	1710966.64794486
11	19	1	0	90	36.1581920903955	36.241610738255	11	0.366691115964204	2	4	6	NaN	1	4	0.0440279895567065	1	1	NaN	154	3	28	2	121	221	321	NaN	521	0.184084169333801	1	1	NaN	1710967.6649158	NaN	1710968.6483198	1710969.16486253
11	19	1	0	90	36.1581920903955	36.241610738255	25	0.833388899918646	2	9	6	NaN	2	3	0.0440279895567065	1	1	NaN	155	3	29	2	121	221	321	NaN	521	2.03676576935686	1	0	NaN	1710970.1485117	NaN	1710971.1319664	1710971.64843233
11	19	1	0	90	36.1581920903955	36.241610738255	19	0.633375563938171	2	2	4	NaN	1	5	0.0440279895567065	1	1	NaN	156	3	30	2	121	221	321	NaN	521	0.205623021582142	1	1	NaN	1710974.5155079	NaN	1710975.4989987	1710976.01553138
11	19	1	0	90	36.1581920903955	36.241610738255	14	0.466697783954442	2	9	4	NaN	2	3	0.0440279895567065	1	1	NaN	157	3	31	2	121	221	321	NaN	521	0.304295521695167	1	0	NaN	1710977.0491767	NaN	1710978.0325826	1710978.54911948
11	19	1	0	90	36.1581920903955	36.241610738255	10	0.333355559967458	2	6	5	NaN	1	5	0.0440279895567065	1	1	NaN	158	3	32	2	121	221	321	NaN	521	1.22336796391755	1	1	NaN	1710979.6660466	NaN	1710980.6494874	1710981.16603144
11	19	1	0	90	36.1581920903955	36.241610738255	25	0.833388899918646	2	4	1	NaN	1	4	0.0440279895567065	1	1	NaN	159	3	33	2	121	221	321	NaN	521	0.31254222150892	1	1	NaN	1710983.2164668	NaN	1710984.199899	1710984.71638488
11	19	1	0	90	36.1581920903955	36.241610738255	17	0.566704451944679	2	11	4	NaN	2	3	0.0440279895567065	1	1	NaN	160	3	34	2	121	221	321	NaN	521	0.293570921756327	1	0	NaN	1710986.2833768	NaN	1710987.2668092	1710987.78335948
11	19	1	0	90	36.1581920903955	36.241610738255	10	0.333355559967458	2	6	5	NaN	1	5	0.0440279895567065	1	1	NaN	161	3	35	2	121	221	321	NaN	521	0.285124869318679	1	1	NaN	1710988.900344	NaN	1710989.883755	1710990.40028803
11	19	1	0	90	36.1581920903955	36.241610738255	23	0.766717787925154	2	10	3	NaN	2	3	0.0440279895567065	1	1	NaN	162	3	36	2	121	221	321	NaN	521	0.356564216781408	1	0	NaN	1710991.5005926	NaN	1710992.4840251	1710993.00053448
11	19	1	0	90	36.1581920903955	36.241610738255	18	0.600040007941425	2	4	6	NaN	1	5	0.0440279895567065	1	1	NaN	163	3	37	2	121	221	321	NaN	521	0.153629069216549	1	1	NaN	1710994.1675284	NaN	1710995.1509176	1710995.66747383
11	19	1	0	90	36.1581920903955	36.241610738255	25	0.833388899918646	2	4	4	NaN	1	5	0.0440279895567065	1	1	NaN	164	3	38	2	121	221	321	NaN	521	0.366114063886926	1	1	NaN	1710996.6511049	NaN	1710997.6344984	1710998.15103114
11	19	1	0	90	36.1581920903955	36.241610738255	0	0	1	5	2	NaN	1	4	0.0440279895567065	1	1	NaN	165	3	39	2	111	211	311	NaN	511	0.594740869244561	2	0	NaN	1710999.334694	NaN	1711000.3181045	1711000.83464103
11	19	1	0	90	36.1581920903955	36.241610738255	14	0.466697783954442	2	2	2	NaN	1	5	0.0440279895567065	1	1	NaN	166	3	40	2	121	221	321	NaN	521	0.517509616678581	1	1	NaN	1711002.2516449	NaN	1711003.2350407	1711003.75158318
11	19	1	0	90	36.1581920903955	36.241610738255	6	0.200013335980475	2	4	4	NaN	1	5	0.0440279895567065	1	1	NaN	167	3	41	2	121	221	321	NaN	521	0.425175816752017	2	0	NaN	1711005.5519777	NaN	1711006.5353928	1711007.05190318
11	19	1	0	90	36.1581920903955	36.241610738255	7	0.233348891977221	2	2	5	NaN	1	5	0.0440279895567065	1	1	NaN	168	3	42	2	121	221	321	NaN	521	0.13895877962932	2	0	NaN	1711008.3021917	NaN	1711009.2856252	1711009.80219102
11	19	1	0	90	36.1581920903955	36.241610738255	19	0.633375563938171	2	4	6	NaN	1	4	0.0440279895567065	1	1	NaN	169	3	43	2	121	221	321	NaN	521	0.215977916726843	1	1	NaN	1711010.7692111	NaN	1711011.7525677	1711012.26908298
11	19	1	0	90	36.1581920903955	36.241610738255	23	0.766717787925154	2	8	2	NaN	2	3	0.0440279895567065	1	1	NaN	170	3	44	2	121	221	321	NaN	521	0.258749369299039	1	0	NaN	1711013.3027231	NaN	1711014.2861324	1711014.80267383
11	19	1	0	90	36.1581920903955	36.241610738255	0	0	1	8	3	NaN	2	4	0.0440279895567065	1	1	NaN	171	3	45	2	111	211	311	NaN	511	3.53873562160879	1	0	NaN	1711015.886328	NaN	1711016.8697442	1711017.38626348
11	19	1	0	90	36.1581920903955	36.241610738255	9	0.300020003970712	2	10	5	NaN	2	3	0.0440279895567065	1	1	NaN	172	3	46	2	121	221	321	NaN	521	0.11149036930874	2	1	NaN	1711021.7535246	NaN	1711022.7369556	1711023.25349343
11	19	1	0	90	36.1581920903955	36.241610738255	20	0.666711119934916	2	12	1	NaN	2	4	0.0440279895567065	1	1	NaN	173	3	47	2	121	221	321	NaN	521	0.142674669390544	2	1	NaN	1711024.1704543	NaN	1711025.1538749	1711025.67040023
11	19	1	0	90	36.1581920903955	36.241610738255	10	0.333355559967458	2	12	1	NaN	2	3	0.0440279895567065	1	1	NaN	174	3	48	2	121	221	321	NaN	521	0.227680069161579	2	1	NaN	1711026.6372762	NaN	1711027.6207746	1711028.13731013
11	19	1	0	90	36.1581920903955	36.241610738255	12	0.40002667196095	2	2	1	NaN	1	3	0.0440279895567065	1	1	NaN	175	3	49	2	121	221	321	NaN	521	0.205580169335008	2	0	NaN	1711029.1876169	NaN	1711030.171036	1711030.68755963
11	19	1	0	90	36.1581920903955	36.241610738255	7	0.233348891977221	2	3	6	NaN	1	5	0.0440279895567065	1	1	NaN	176	3	50	2	121	221	321	NaN	521	0.110538969282061	1	1	NaN	1711032.1545839	NaN	1711033.1379904	1711033.65451513
11	19	1	0	90	36.1581920903955	36.241610738255	6	0.200013335980475	2	7	5	NaN	2	5	0.0440279895567065	1	1	NaN	177	3	51	2	121	221	321	NaN	521	0.133319269167259	1	0	NaN	1711034.5882086	NaN	1711035.5715528	1711036.08809073
11	19	1	0	90	36.1581920903955	36.241610738255	17	0.566704451944679	2	3	4	NaN	1	3	0.0440279895567065	1	1	NaN	178	3	52	2	121	221	321	NaN	521	0.0747746692504734	1	1	NaN	1711037.0382735	NaN	1711038.0217992	1711038.53832693
11	19	1	0	90	36.1581920903955	36.241610738255	7	0.233348891977221	2	9	4	NaN	2	3	0.0440279895567065	1	1	NaN	179	3	53	2	121	221	321	NaN	521	0.26724257436581	1	0	NaN	1711039.4219609	NaN	1711040.4053622	1711040.92189573
11	19	1	0	90	36.1581920903955	36.241610738255	15	0.500033339951187	2	12	6	NaN	2	4	0.0440279895567065	1	1	NaN	180	3	54	2	121	221	321	NaN	521	0.155638669384643	2	1	NaN	1711042.0055378	NaN	1711042.988941	1711043.50548753
11	19	1	0	90	36.1581920903955	36.241610738255	25	0.833388899918646	2	12	4	NaN	2	5	0.0440279895567065	1	1	NaN	181	3	55	2	121	221	321	NaN	521	0.256366069428623	2	1	NaN	1711044.489136	NaN	1711045.4725402	1711045.98907143
11	19	1	0	90	36.1581920903955	36.241610738255	22	0.733382231928408	2	2	1	NaN	1	4	0.0440279895567065	1	1	NaN	182	3	56	2	121	221	321	NaN	521	0.0251100694295019	1	1	NaN	1711047.056033	NaN	1711048.0394479	1711048.55597963
11	19	1	0	90	36.1581920903955	36.241610738255	19	0.633375563938171	2	9	5	NaN	2	5	0.0440279895567065	1	1	NaN	183	3	57	2	121	221	321	NaN	521	0.0429527165833861	2	1	NaN	1711049.4062765	NaN	1711050.3896897	1711050.90621078
11	19	1	0	90	36.1581920903955	36.241610738255	9	0.300020003970712	2	8	5	NaN	2	3	0.0440279895567065	1	1	NaN	184	3	58	2	121	221	321	NaN	521	0.0104138692840934	2	1	NaN	1711051.7731097	NaN	1711052.7566148	1711053.27310763
11	19	1	0	90	36.1581920903955	36.241610738255	19	0.633375563938171	2	10	5	NaN	2	5	0.0440279895567065	1	1	NaN	185	3	59	2	121	221	321	NaN	521	0.758875416591763	1	0	NaN	1711054.1067396	NaN	1711055.0901536	1711055.60667438
11	19	1	0	90	36.1581920903955	36.241610738255	11	0.366691115964204	2	11	4	NaN	2	4	0.0440279895567065	1	1	NaN	186	3	60	2	121	221	321	NaN	521	0.306856911396608	2	1	NaN	1711057.190212	NaN	1711058.1737702	1711058.69030639
11	19	1	0	90	36.1581920903955	36.241610738255	23	0.766717787925154	2	12	6	NaN	2	5	0.0440279895567065	1	1	NaN	187	3	61	2	121	221	321	NaN	521	0.218279021559283	1	0	NaN	1711059.8073038	NaN	1711060.7906999	1711061.30724398
11	19	1	0	90	36.1581920903955	36.241610738255	20	0.666711119934916	2	12	3	NaN	2	3	0.0440279895567065	1	1	NaN	188	3	62	2	121	221	321	NaN	521	0.388353989692405	1	0	NaN	1711062.3408835	NaN	1711063.3242798	1711063.84082591
11	19	1	0	90	36.1581920903955	36.241610738255	7	0.233348891977221	2	8	6	NaN	2	5	0.0440279895567065	1	1	NaN	189	3	63	2	121	221	321	NaN	521	0.591187069192529	1	0	NaN	1711065.057812	NaN	1711066.041206	1711066.55775213
11	19	1	0	90	36.1581920903955	36.241610738255	24	0.8000533439219	2	10	1	NaN	2	4	0.0440279895567065	1	1	NaN	190	4	1	2	121	221	321	NaN	521	0.145574969472364	2	1	NaN	1711090.7436624	NaN	1711091.7270637	1711092.24360833
11	19	1	0	90	36.1581920903955	36.241610738255	19	0.633375563938171	2	7	1	NaN	2	4	0.0440279895567065	1	1	NaN	191	4	2	2	121	221	321	NaN	521	0.0466614640317857	2	1	NaN	1711093.2105824	NaN	1711094.1939581	1711094.71052014
11	19	1	0	90	36.1581920903955	36.241610738255	9	0.300020003970712	2	12	3	NaN	2	3	0.0440279895567065	1	1	NaN	192	4	3	2	121	221	321	NaN	521	5.1200591691304	1	0	NaN	1711095.577493	NaN	1711096.5608898	1711097.07743403
11	19	1	0	90	36.1581920903955	36.241610738255	15	0.500033339951187	2	4	4	NaN	1	5	0.0440279895567065	1	1	NaN	193	4	4	2	121	221	321	NaN	521	0.236975921783596	1	1	NaN	1711103.0283128	NaN	1711104.0115922	1711104.52814998
11	19	1	0	90	36.1581920903955	36.241610738255	24	0.8000533439219	2	3	1	NaN	1	3	0.0440279895567065	1	1	NaN	194	4	5	2	121	221	321	NaN	521	0.20643587433733	1	1	NaN	1711105.5951171	NaN	1711106.5785482	1711107.09507183
11	19	1	0	90	36.1581920903955	36.241610738255	19	0.633375563938171	2	6	2	NaN	1	4	0.0440279895567065	1	1	NaN	195	4	6	2	121	221	321	NaN	521	0.010477269301191	2	0	NaN	1711108.1288088	NaN	1711109.1121461	1711109.62865093
11	19	1	0	90	36.1581920903955	36.241610738255	25	0.833388899918646	2	6	2	NaN	1	3	0.0440279895567065	1	1	NaN	196	4	7	2	121	221	321	NaN	521	0.554913921747357	2	0	NaN	1711110.4622616	NaN	1711111.4456744	1711111.96221288
11	19	1	0	90	36.1581920903955	36.241610738255	22	0.733382231928408	2	6	2	NaN	1	3	0.0440279895567065	1	1	NaN	197	4	8	2	121	221	321	NaN	521	0.247443169355392	2	0	NaN	1711113.3457574	NaN	1711114.3292807	1711114.84581713
11	19	1	0	90	36.1581920903955	36.241610738255	25	0.833388899918646	2	3	2	NaN	1	3	0.0440279895567065	1	1	NaN	198	4	9	2	121	221	321	NaN	521	0.304854021640494	2	0	NaN	1711115.9128165	NaN	1711116.8962282	1711117.41274518
11	19	1	0	90	36.1581920903955	36.241610738255	13	0.433362227957696	2	6	3	NaN	1	5	0.0440279895567065	1	1	NaN	199	4	10	2	121	221	321	NaN	521	0.198815021663904	1	1	NaN	1711118.5463823	NaN	1711119.5297845	1711120.04634068
11	19	1	0	90	36.1581920903955	36.241610738255	19	0.633375563938171	2	12	2	NaN	2	5	0.0440279895567065	1	1	NaN	200	4	11	2	121	221	321	NaN	521	0.153973879525438	2	1	NaN	1711121.0633084	NaN	1711122.04671	1711122.56325802
11	19	1	0	90	36.1581920903955	36.241610738255	11	0.366691115964204	2	5	4	NaN	1	4	0.0440279895567065	1	1	NaN	201	4	12	2	121	221	321	NaN	521	0.518934874329716	1	1	NaN	1711123.5302199	NaN	1711124.513614	1711125.03016663
11	19	1	0	90	36.1581920903955	36.241610738255	23	0.766717787925154	2	4	1	NaN	1	4	0.0440279895567065	1	1	NaN	202	4	13	2	121	221	321	NaN	521	1.05269226920791	1	1	NaN	1711126.3805146	NaN	1711127.3639102	1711127.88043563
11	19	1	0	90	36.1581920903955	36.241610738255	19	0.633375563938171	2	11	2	NaN	2	3	0.0440279895567065	1	1	NaN	203	4	14	2	121	221	321	NaN	521	0.353708369424567	1	0	NaN	1711130.2475207	NaN	1711131.2309344	1711131.74749533
11	19	1	0	90	36.1581920903955	36.241610738255	9	0.300020003970712	2	6	4	NaN	1	3	0.0440279895567065	1	1	NaN	204	4	15	2	121	221	321	NaN	521	0.166846921667457	1	1	NaN	1711132.9144787	NaN	1711133.8978779	1711134.41441958
11	19	1	0	90	36.1581920903955	36.241610738255	15	0.500033339951187	2	5	4	NaN	1	5	0.0440279895567065	1	1	NaN	205	4	16	2	121	221	321	NaN	521	0.210902763996273	1	1	NaN	1711135.4147216	NaN	1711136.3981033	1711136.91465654
11	19	1	0	90	36.1581920903955	36.241610738255	22	0.733382231928408	2	8	2	NaN	2	5	0.0440279895567065	1	1	NaN	206	4	17	2	121	221	321	NaN	521	0.0850918691139668	1	0	NaN	1711137.9483184	NaN	1711138.9317267	1711139.44824343
11	19	1	0	90	36.1581920903955	36.241610738255	17	0.566704451944679	2	1	4	NaN	1	4	0.0440279895567065	1	1	NaN	207	4	18	2	121	221	321	NaN	521	0.309181774267927	1	1	NaN	1711140.3486129	NaN	1711141.3319195	1711141.84848323
11	19	1	0	90	36.1581920903955	36.241610738255	11	0.366691115964204	2	6	3	NaN	1	5	0.0440279895567065	1	1	NaN	208	4	19	2	121	221	321	NaN	521	0.147500969236717	1	1	NaN	1711142.9819645	NaN	1711143.965572	1711144.48207113
11	19	1	0	90	36.1581920903955	36.241610738255	17	0.566704451944679	2	1	1	NaN	1	4	0.0440279895567065	1	1	NaN	209	4	20	2	121	221	321	NaN	521	0.120599174406379	1	1	NaN	1711145.4490465	NaN	1711146.4324357	1711146.94897403
11	19	1	0	90	36.1581920903955	36.241610738255	12	0.40002667196095	2	10	5	NaN	2	4	0.0440279895567065	1	1	NaN	210	4	21	2	121	221	321	NaN	521	0.158796474337578	1	0	NaN	1711147.8826056	NaN	1711148.8660377	1711149.38255153
11	19	1	0	90	36.1581920903955	36.241610738255	13	0.433362227957696	2	3	4	NaN	1	3	0.0440279895567065	1	1	NaN	211	4	22	2	121	221	321	NaN	521	0.306900821626186	1	1	NaN	1711150.3660277	NaN	1711151.3495979	1711151.86612758
11	19	1	0	90	36.1581920903955	36.241610738255	12	0.40002667196095	2	6	1	NaN	1	5	0.0440279895567065	1	1	NaN	212	4	23	2	121	221	321	NaN	521	0.257889869157225	1	1	NaN	1711152.9997739	NaN	1711153.9831924	1711154.49971353
11	19	1	0	90	36.1581920903955	36.241610738255	17	0.566704451944679	2	4	5	NaN	1	5	0.0440279895567065	1	1	NaN	213	4	24	2	121	221	321	NaN	521	0.377895821817219	1	1	NaN	1711155.5833742	NaN	1711156.5667624	1711157.08331318
11	19	1	0	90	36.1581920903955	36.241610738255	21	0.700046675931662	2	7	2	NaN	2	3	0.0440279895567065	1	1	NaN	214	4	25	2	121	221	321	NaN	521	0.149651321815327	1	0	NaN	1711158.2836545	NaN	1711159.2670354	1711159.78356618
11	19	1	0	90	36.1581920903955	36.241610738255	9	0.300020003970712	2	9	1	NaN	2	5	0.0440279895567065	1	1	NaN	215	4	26	2	121	221	321	NaN	521	0.170118011534214	1	0	NaN	1711161.1671165	NaN	1711162.1506457	1711162.66719199
11	19	1	0	90	36.1581920903955	36.241610738255	12	0.40002667196095	2	3	4	NaN	1	5	0.0440279895567065	1	1	NaN	216	4	27	2	121	221	321	NaN	521	0.198483069194481	1	1	NaN	1711163.6507434	NaN	1711164.6342256	1711165.15075883
11	19	1	0	90	36.1581920903955	36.241610738255	18	0.600040007941425	2	2	4	NaN	1	3	0.0440279895567065	1	1	NaN	217	4	28	2	121	221	321	NaN	521	0.145867421524599	1	1	NaN	1711166.1677274	NaN	1711167.1511434	1711167.66768068
11	19	1	0	90	36.1581920903955	36.241610738255	18	0.600040007941425	2	9	4	NaN	2	4	0.0440279895567065	1	1	NaN	218	4	29	2	121	221	321	NaN	521	0.0866841694805771	1	0	NaN	1711168.6346565	NaN	1711169.6180824	1711170.13458483
11	19	1	0	90	36.1581920903955	36.241610738255	15	0.500033339951187	2	7	3	NaN	2	4	0.0440279895567065	1	1	NaN	219	4	30	2	121	221	321	NaN	521	0.198713669320568	1	0	NaN	1711171.0348767	NaN	1711172.018265	1711172.53482583
11	19	1	0	90	36.1581920903955	36.241610738255	16	0.533368895947933	2	4	3	NaN	1	3	0.0440279895567065	1	1	NaN	220	4	31	2	121	221	321	NaN	521	0.193659169133753	1	1	NaN	1711173.5516832	NaN	1711174.5352134	1711175.05172633
11	19	1	0	90	36.1581920903955	36.241610738255	6	0.200013335980475	2	10	4	NaN	2	3	0.0440279895567065	1	1	NaN	221	4	32	2	121	221	321	NaN	521	0.253004421712831	1	0	NaN	1711176.0687191	NaN	1711177.0520981	1711177.56865408
11	19	1	0	90	36.1581920903955	36.241610738255	19	0.633375563938171	2	3	4	NaN	1	4	0.0440279895567065	1	1	NaN	222	4	33	2	121	221	321	NaN	521	0.261019569123164	1	1	NaN	1711178.6523713	NaN	1711179.635758	1711180.15223493
11	19	1	0	90	36.1581920903955	36.241610738255	16	0.533368895947933	2	8	5	NaN	2	5	0.0440279895567065	1	1	NaN	223	4	34	2	121	221	321	NaN	521	0.422427121549845	1	0	NaN	1711181.2190768	NaN	1711182.2026081	1711182.71915378
11	19	1	0	90	36.1581920903955	36.241610738255	21	0.700046675931662	2	3	1	NaN	1	3	0.0440279895567065	1	1	NaN	224	4	35	2	121	221	321	NaN	521	0.0104189794510603	1	1	NaN	1711183.9694909	NaN	1711184.9528926	1711185.46943312
11	19	1	0	90	36.1581920903955	36.241610738255	11	0.366691115964204	2	2	1	NaN	1	5	0.0440279895567065	1	1	NaN	225	4	36	2	121	221	321	NaN	521	0.274332674220204	1	1	NaN	1711186.3030646	NaN	1711187.2864387	1711187.80298643
11	19	1	0	90	36.1581920903955	36.241610738255	16	0.533368895947933	2	1	1	NaN	1	3	0.0440279895567065	1	1	NaN	226	4	37	2	121	221	321	NaN	521	0.201979869278148	1	1	NaN	1711189.3034174	NaN	1711190.2868021	1711190.80327643
11	19	1	0	90	36.1581920903955	36.241610738255	23	0.766717787925154	2	2	4	NaN	1	5	0.0440279895567065	1	1	NaN	227	4	38	2	121	221	321	NaN	521	0.813389521790668	1	1	NaN	1711191.8201263	NaN	1711192.8037292	1711193.32019758
11	19	1	0	90	36.1581920903955	36.241610738255	24	0.8000533439219	2	10	6	NaN	2	4	0.0440279895567065	1	1	NaN	228	4	39	2	121	221	321	NaN	521	0.711528769228607	1	0	NaN	1711194.9538674	NaN	1711195.9373227	1711196.45383403
11	19	1	0	90	36.1581920903955	36.241610738255	18	0.600040007941425	2	9	4	NaN	2	5	0.0440279895567065	1	1	NaN	229	4	40	2	121	221	321	NaN	521	1.89372746390291	2	1	NaN	1711197.9875155	NaN	1711198.9708965	1711199.48746064
11	19	1	0	90	36.1581920903955	36.241610738255	12	0.40002667196095	2	3	1	NaN	1	3	0.0440279895567065	1	1	NaN	230	4	41	2	121	221	321	NaN	521	0.189847816713154	1	1	NaN	1711202.1879316	NaN	1711203.1713667	1711203.68788068
11	19	1	0	90	36.1581920903955	36.241610738255	11	0.366691115964204	2	8	4	NaN	2	5	0.0440279895567065	1	1	NaN	231	4	42	2	121	221	321	NaN	521	0.361347974278033	1	0	NaN	1711204.6881947	NaN	1711205.6715906	1711206.18813093
11	19	1	0	90	36.1581920903955	36.241610738255	18	0.600040007941425	2	7	1	NaN	2	3	0.0440279895567065	1	1	NaN	232	4	43	2	121	221	321	NaN	521	1.80564312171191	1	0	NaN	1711207.3718512	NaN	1711208.3551705	1711208.87171888
11	19	1	0	90	36.1581920903955	36.241610738255	14	0.466697783954442	2	7	6	NaN	2	4	0.0440279895567065	1	1	NaN	233	4	44	2	121	221	321	NaN	521	0.456917421659455	1	0	NaN	1711211.488877	NaN	1711212.472245	1711212.98879598
11	19	1	0	90	36.1581920903955	36.241610738255	18	0.600040007941425	2	3	3	NaN	1	3	0.0440279895567065	1	1	NaN	234	4	45	2	121	221	321	NaN	521	5.36095526930876	1	1	NaN	1711214.2724587	NaN	1711215.2558678	1711215.77240403
11	19	1	0	90	36.1581920903955	36.241610738255	13	0.433362227957696	2	8	5	NaN	2	3	0.0440279895567065	1	1	NaN	235	4	46	2	121	221	321	NaN	521	0.34915376920253	1	0	NaN	1711221.9565544	NaN	1711222.9399347	1711223.45647953
11	19	1	0	90	36.1581920903955	36.241610738255	16	0.533368895947933	2	12	2	NaN	2	3	0.0440279895567065	1	1	NaN	236	4	47	2	121	221	321	NaN	521	0.130360121605918	2	1	NaN	1711224.6234827	NaN	1711225.6068812	1711226.12340958
11	19	1	0	90	36.1581920903955	36.241610738255	24	0.8000533439219	2	2	4	NaN	1	5	0.0440279895567065	1	1	NaN	237	4	48	2	121	221	321	NaN	521	0.0797642215620726	1	1	NaN	1711227.0737209	NaN	1711228.0571248	1711228.57365878
11	19	1	0	90	36.1581920903955	36.241610738255	23	0.766717787925154	2	1	4	NaN	1	3	0.0440279895567065	1	1	NaN	238	4	49	2	121	221	321	NaN	521	0.127389069180936	1	1	NaN	1711229.4739573	NaN	1711230.4574235	1711230.97388883
11	19	1	0	90	36.1581920903955	36.241610738255	6	0.200013335980475	2	12	5	NaN	2	4	0.0440279895567065	1	1	NaN	239	4	50	2	121	221	321	NaN	521	0.397262516664341	2	1	NaN	1711231.9242028	NaN	1711232.9075981	1711233.42413888
11	19	1	0	90	36.1581920903955	36.241610738255	13	0.433362227957696	2	4	6	NaN	1	4	0.0440279895567065	1	1	NaN	240	4	51	2	121	221	321	NaN	521	0.120677321683615	1	1	NaN	1711234.6411286	NaN	1711235.6245372	1711236.14106168
11	19	1	0	90	36.1581920903955	36.241610738255	22	0.733382231928408	2	9	6	NaN	2	4	0.0440279895567065	1	1	NaN	241	4	52	2	121	221	321	NaN	521	0.0854660691693425	1	0	NaN	1711237.1080114	NaN	1711238.0914308	1711238.60796533
11	19	1	0	90	36.1581920903955	36.241610738255	13	0.433362227957696	2	1	4	NaN	1	3	0.0440279895567065	1	1	NaN	242	4	53	2	121	221	321	NaN	521	0.236906916601583	1	1	NaN	1711239.5249635	NaN	1711240.5083491	1711241.02487248
11	19	1	0	90	36.1581920903955	36.241610738255	10	0.333355559967458	2	9	2	NaN	2	5	0.0440279895567065	1	1	NaN	243	4	54	2	121	221	321	NaN	521	4.0295714691747	1	0	NaN	1711242.091858	NaN	1711243.0752731	1711243.59178753
11	19	1	0	90	36.1581920903955	36.241610738255	0	0	1	8	1	NaN	2	5	0.0440279895567065	1	1	NaN	244	4	55	2	111	211	311	NaN	511	0.399325494887307	1	0	NaN	1711248.4424843	NaN	1711249.4258682	1711249.94243381
11	19	1	0	90	36.1581920903955	36.241610738255	10	0.333355559967458	2	3	4	NaN	1	3	0.0440279895567065	1	1	NaN	245	4	56	2	121	221	321	NaN	521	0.161921569379047	2	0	NaN	1711251.1594171	NaN	1711252.1427452	1711252.65934813
11	19	1	0	90	36.1581920903955	36.241610738255	16	0.533368895947933	2	1	6	NaN	1	5	0.0440279895567065	1	1	NaN	246	4	57	2	121	221	321	NaN	521	0.350304769352078	2	0	NaN	1711253.6429995	NaN	1711254.6263794	1711255.14292633
11	19	1	0	90	36.1581920903955	36.241610738255	22	0.733382231928408	2	3	1	NaN	1	3	0.0440279895567065	1	1	NaN	247	4	58	2	121	221	321	NaN	521	0.107542016543448	1	1	NaN	1711256.3097978	NaN	1711257.2933153	1711257.80985958
11	19	1	0	90	36.1581920903955	36.241610738255	8	0.266684447973967	2	12	1	NaN	2	4	0.0440279895567065	1	1	NaN	248	4	59	2	121	221	321	NaN	521	0.250510269310325	2	1	NaN	1711258.7268617	NaN	1711259.7102309	1711260.22675433
11	19	1	0	90	36.1581920903955	36.241610738255	12	0.40002667196095	2	10	4	NaN	2	4	0.0440279895567065	1	1	NaN	249	4	60	2	121	221	321	NaN	521	0.691480194684118	2	1	NaN	1711261.2936079	NaN	1711262.2771377	1711262.79368241
11	19	1	0	90	36.1581920903955	36.241610738255	7	0.233348891977221	2	7	3	NaN	2	3	0.0440279895567065	1	1	NaN	250	4	61	2	121	221	321	NaN	521	0.170874916715547	2	1	NaN	1711264.3106559	NaN	1711265.2940914	1711265.81064158
11	19	1	0	90	36.1581920903955	36.241610738255	19	0.633375563938171	2	2	3	NaN	1	5	0.0440279895567065	1	1	NaN	251	4	62	2	121	221	321	NaN	521	0.111400521593168	1	1	NaN	1711266.7942782	NaN	1711267.7776794	1711268.29422468
11	19	1	0	90	36.1581920903955	36.241610738255	9	0.300020003970712	2	4	2	NaN	1	4	0.0440279895567065	1	1	NaN	252	4	63	2	121	221	321	NaN	521	0.21450326917693	2	0	NaN	1711269.2111	NaN	1711270.1945856	1711270.71112533
11	19	1	0	90	36.1581920903955	36.241610738255	19	0.633375563938171	2	1	2	NaN	1	3	0.0440279895567065	1	1	NaN	253	5	1	2	121	221	321	NaN	521	0.148681769380346	1	1	NaN	1711304.3813123	NaN	1711305.3647355	1711305.88123743
11	19	1	0	90	36.1581920903955	36.241610738255	0	0	1	1	3	NaN	1	5	0.0440279895567065	1	1	NaN	254	5	2	2	111	211	311	NaN	511	0.665318874176592	1	1	NaN	1711306.8482231	NaN	1711307.8316075	1711308.34815953
11	19	1	0	90	36.1581920903955	36.241610738255	13	0.433362227957696	2	1	3	NaN	1	5	0.0440279895567065	1	1	NaN	255	5	3	2	121	221	321	NaN	521	0.417283316608518	2	0	NaN	1711310.8485115	NaN	1711311.8320164	1711312.34854668
11	19	1	0	90	36.1581920903955	36.241610738255	7	0.233348891977221	2	4	6	NaN	1	5	0.0440279895567065	1	1	NaN	256	5	4	2	121	221	321	NaN	521	0.907177769346163	1	1	NaN	1711313.5821809	NaN	1711314.5656053	1711315.08214563
11	19	1	0	90	36.1581920903955	36.241610738255	22	0.733382231928408	2	11	2	NaN	2	3	0.0440279895567065	1	1	NaN	257	5	5	2	121	221	321	NaN	521	0.178794669220224	2	1	NaN	1711316.7991985	NaN	1711317.7825811	1711318.29913023
11	19	1	0	90	36.1581920903955	36.241610738255	7	0.233348891977221	2	6	1	NaN	1	3	0.0440279895567065	1	1	NaN	258	5	6	2	121	221	321	NaN	521	0.166059421608225	1	1	NaN	1711319.2994416	NaN	1711320.2828286	1711320.79937028
11	19	1	0	90	36.1581920903955	36.241610738255	10	0.333355559967458	2	8	2	NaN	2	4	0.0440279895567065	1	1	NaN	259	5	7	2	121	221	321	NaN	521	0.362833969295025	2	1	NaN	1711321.7829981	NaN	1711322.7664129	1711323.28294633
11	19	1	0	90	36.1581920903955	36.241610738255	15	0.500033339951187	2	12	1	NaN	2	3	0.0440279895567065	1	1	NaN	260	5	8	2	121	221	321	NaN	521	0.343044769251719	1	0	NaN	1711324.4665445	NaN	1711325.4500044	1711325.96653933
11	19	1	0	90	36.1581920903955	36.241610738255	12	0.40002667196095	2	6	4	NaN	1	3	0.0440279895567065	1	1	NaN	261	5	9	2	121	221	321	NaN	521	5.77189287426881	1	1	NaN	1711327.1335329	NaN	1711328.1169395	1711328.63348333
11	19	1	0	90	36.1581920903955	36.241610738255	12	0.40002667196095	2	8	2	NaN	2	4	0.0440279895567065	1	1	NaN	262	5	10	2	121	221	321	NaN	521	0.228951269295067	2	1	NaN	1711335.3008651	NaN	1711336.2844233	1711336.80094773
11	19	1	0	90	36.1581920903955	36.241610738255	9	0.300020003970712	2	5	4	NaN	1	5	0.0440279895567065	1	1	NaN	263	5	11	2	121	221	321	NaN	521	0.254596216604114	1	1	NaN	1711337.8512499	NaN	1711338.8346426	1711339.35119778
11	19	1	0	90	36.1581920903955	36.241610738255	22	0.733382231928408	2	4	5	NaN	1	3	0.0440279895567065	1	1	NaN	264	5	12	2	121	221	321	NaN	521	2.03898852155544	1	1	NaN	1711340.434852	NaN	1711341.4182324	1711341.93478638
11	19	1	0	90	36.1581920903955	36.241610738255	14	0.466697783954442	2	6	3	NaN	1	3	0.0440279895567065	1	1	NaN	265	5	13	2	121	221	321	NaN	521	0.0104642217047513	1	1	NaN	1711344.7852657	NaN	1711345.7687017	1711346.28521238
11	19	1	0	90	36.1581920903955	36.241610738255	13	0.433362227957696	2	11	4	NaN	2	3	0.0440279895567065	1	1	NaN	266	5	14	2	121	221	321	NaN	521	0.530743774492294	1	0	NaN	1711347.1188322	NaN	1711348.1022277	1711348.61877873
11	19	1	0	90	36.1581920903955	36.241610738255	0	0	1	7	6	NaN	2	4	0.0440279895567065	1	1	NaN	267	5	15	2	111	211	311	NaN	511	0.534459721529856	2	1	NaN	1711350.0191357	NaN	1711351.0025194	1711351.51906238
11	19	1	0	90	36.1581920903955	36.241610738255	17	0.566704451944679	2	4	1	NaN	1	4	0.0440279895567065	1	1	NaN	268	5	16	2	121	221	321	NaN	521	2.31659732153639	1	1	NaN	1711352.8693818	NaN	1711353.852806	1711354.36934008
11	19	1	0	90	36.1581920903955	36.241610738255	8	0.266684447973967	2	12	4	NaN	2	5	0.0440279895567065	1	1	NaN	269	5	17	2	121	221	321	NaN	521	0.130378084722906	2	1	NaN	1711357.5032022	NaN	1711358.4865773	1711359.00313592
11	19	1	0	90	36.1581920903955	36.241610738255	21	0.700046675931662	2	1	5	NaN	1	3	0.0440279895567065	1	1	NaN	270	5	18	2	121	221	321	NaN	521	0.352276037214324	1	1	NaN	1711359.9534307	NaN	1711360.9368263	1711361.45336846
11	19	1	0	90	36.1581920903955	36.241610738255	23	0.766717787925154	2	11	5	NaN	2	3	0.0440279895567065	1	1	NaN	271	5	19	2	121	221	321	NaN	521	0.301590669201687	1	0	NaN	1711362.6203516	NaN	1711363.6037781	1711364.12028903
11	19	1	0	90	36.1581920903955	36.241610738255	18	0.600040007941425	2	12	6	NaN	2	3	0.0440279895567065	1	1	NaN	272	5	20	2	121	221	321	NaN	521	0.691557121695951	1	0	NaN	1711365.2539381	NaN	1711366.2373394	1711366.75388898
11	19	1	0	90	36.1581920903955	36.241610738255	16	0.533368895947933	2	6	2	NaN	1	4	0.0440279895567065	1	1	NaN	273	5	21	2	121	221	321	NaN	521	0.466987821739167	1	1	NaN	1711368.2709123	NaN	1711369.2543178	1711369.77085118
11	19	1	0	90	36.1581920903955	36.241610738255	24	0.8000533439219	2	6	6	NaN	1	5	0.0440279895567065	1	1	NaN	274	5	22	2	121	221	321	NaN	521	0.229888069443405	1	1	NaN	1711371.3878687	NaN	1711372.371293	1711372.88781653
11	19	1	0	90	36.1581920903955	36.241610738255	9	0.300020003970712	2	11	3	NaN	2	3	0.0440279895567065	1	1	NaN	275	5	23	2	121	221	321	NaN	521	0.351498716743663	1	0	NaN	1711373.938117	NaN	1711374.9215511	1711375.43807388
11	19	1	0	90	36.1581920903955	36.241610738255	0	0	1	3	5	NaN	1	4	0.0440279895567065	1	1	NaN	276	5	24	2	111	211	311	NaN	511	0.316290479619056	1	1	NaN	1711376.6217438	NaN	1711377.6051583	1711378.12166782
11	19	1	0	90	36.1581920903955	36.241610738255	17	0.566704451944679	2	3	3	NaN	1	3	0.0440279895567065	1	1	NaN	277	5	25	2	121	221	321	NaN	521	0.195279221516103	1	1	NaN	1711379.6386693	NaN	1711380.6221213	1711381.13862748
11	19	1	0	90	36.1581920903955	36.241610738255	9	0.300020003970712	2	6	2	NaN	1	5	0.0440279895567065	1	1	NaN	278	5	26	2	121	221	321	NaN	521	0.285969742340967	1	1	NaN	1711382.1556139	NaN	1711383.1390152	1711383.65555056
11	19	1	0	90	36.1581920903955	36.241610738255	10	0.333355559967458	2	11	2	NaN	2	3	0.0440279895567065	1	1	NaN	279	5	27	2	121	221	321	NaN	521	0.542184058809653	1	0	NaN	1711384.7557428	NaN	1711385.7392667	1711386.25581304
11	19	1	0	90	36.1581920903955	36.241610738255	21	0.700046675931662	2	10	2	NaN	2	5	0.0440279895567065	1	1	NaN	280	5	28	2	121	221	321	NaN	521	0.114896021550521	1	0	NaN	1711387.6228387	NaN	1711388.6062082	1711389.12275208
11	19	1	0	90	36.1581920903955	36.241610738255	23	0.766717787925154	2	7	4	NaN	2	3	0.0440279895567065	1	1	NaN	281	5	29	2	121	221	321	NaN	521	0.376900274306536	1	0	NaN	1711390.4730831	NaN	1711391.4565081	1711391.97303263
11	19	1	0	90	36.1581920903955	36.241610738255	16	0.533368895947933	2	11	3	NaN	2	3	0.0440279895567065	1	1	NaN	282	5	30	2	121	221	321	NaN	521	0.460684464080259	1	0	NaN	1711393.1733562	NaN	1711394.1567453	1711394.67329284
11	19	1	0	90	36.1581920903955	36.241610738255	23	0.766717787925154	2	6	5	NaN	1	5	0.0440279895567065	1	1	NaN	283	5	31	2	121	221	321	NaN	521	0.236516216536984	2	0	NaN	1711395.9568791	NaN	1711396.9403628	1711397.45691018
11	19	1	0	90	36.1581920903955	36.241610738255	9	0.300020003970712	2	2	4	NaN	1	5	0.0440279895567065	1	1	NaN	284	5	32	2	121	221	321	NaN	521	0.109797069104388	1	1	NaN	1711398.5238867	NaN	1711399.5072777	1711400.02381473
11	19	1	0	90	36.1581920903955	36.241610738255	0	0	1	9	3	NaN	2	3	0.0440279895567065	1	1	NaN	285	5	33	2	111	211	311	NaN	511	0.267978242365643	2	1	NaN	1711400.9574351	NaN	1711401.9408759	1711402.45739866
11	19	1	0	90	36.1581920903955	36.241610738255	8	0.266684447973967	2	10	2	NaN	2	3	0.0440279895567065	1	1	NaN	286	5	34	2	121	221	321	NaN	521	0.0759847215376794	1	0	NaN	1711403.5577095	NaN	1711404.5411003	1711405.05763898
11	19	1	0	90	36.1581920903955	36.241610738255	20	0.666711119934916	2	1	6	NaN	1	5	0.0440279895567065	1	1	NaN	287	5	35	2	121	221	321	NaN	521	0.0997530692256987	1	1	NaN	1711405.9579291	NaN	1711406.9413463	1711407.45787253
11	19	1	0	90	36.1581920903955	36.241610738255	7	0.233348891977221	2	4	3	NaN	1	5	0.0440279895567065	1	1	NaN	288	5	36	2	121	221	321	NaN	521	0.146498216781765	1	1	NaN	1711408.3915117	NaN	1711409.3748867	1711409.89145798
11	19	1	0	90	36.1581920903955	36.241610738255	7	0.233348891977221	2	10	5	NaN	2	3	0.0440279895567065	1	1	NaN	289	5	37	2	121	221	321	NaN	521	0.0632307166233659	2	1	NaN	1711410.8584253	NaN	1711411.8418275	1711412.35836628
11	19	1	0	90	36.1581920903955	36.241610738255	20	0.666711119934916	2	4	3	NaN	1	3	0.0440279895567065	1	1	NaN	290	5	38	2	121	221	321	NaN	521	0.279686369234696	1	1	NaN	1711413.2418512	NaN	1711414.2254125	1711414.74192063
11	19	1	0	90	36.1581920903955	36.241610738255	24	0.8000533439219	2	11	6	NaN	2	3	0.0440279895567065	1	1	NaN	291	5	39	2	121	221	321	NaN	521	0.103520031785592	2	1	NaN	1711415.8422426	NaN	1711416.825648	1711417.34218147
11	19	1	0	90	36.1581920903955	36.241610738255	20	0.666711119934916	2	8	3	NaN	2	3	0.0440279895567065	1	1	NaN	292	5	40	2	121	221	321	NaN	521	0.206431421684101	2	1	NaN	1711418.2591324	NaN	1711419.2425435	1711419.75909848
11	19	1	0	90	36.1581920903955	36.241610738255	22	0.733382231928408	2	1	3	NaN	1	5	0.0440279895567065	1	1	NaN	293	5	41	2	121	221	321	NaN	521	0.17694884352386	1	1	NaN	1711420.792609	NaN	1711421.7761358	1711422.29265836
11	19	1	0	90	36.1581920903955	36.241610738255	13	0.433362227957696	2	3	4	NaN	1	5	0.0440279895567065	1	1	NaN	294	5	42	2	121	221	321	NaN	521	0.109411069424823	2	0	NaN	1711423.2764207	NaN	1711424.259715	1711424.77624453
11	19	1	0	90	36.1581920903955	36.241610738255	10	0.333355559967458	2	12	5	NaN	2	3	0.0440279895567065	1	1	NaN	295	5	43	2	121	221	321	NaN	521	0.0104802693240345	1	0	NaN	1711425.7099052	NaN	1711426.6932858	1711427.20982243
11	19	1	0	90	36.1581920903955	36.241610738255	15	0.500033339951187	2	11	1	NaN	2	3	0.0440279895567065	1	1	NaN	296	5	44	2	121	221	321	NaN	521	0.230646974407136	1	0	NaN	1711428.0433895	NaN	1711429.0268549	1711429.54338653
11	19	1	0	90	36.1581920903955	36.241610738255	13	0.433362227957696	2	11	1	NaN	2	5	0.0440279895567065	1	1	NaN	297	5	45	2	121	221	321	NaN	521	0.391940369270742	1	0	NaN	1711430.5935932	NaN	1711431.5771201	1711432.09366423
11	19	1	0	90	36.1581920903955	36.241610738255	12	0.40002667196095	2	9	1	NaN	2	5	0.0440279895567065	1	1	NaN	298	5	46	2	121	221	321	NaN	521	0.139022721676156	1	0	NaN	1711433.3106224	NaN	1711434.2940255	1711434.81056328
11	19	1	0	90	36.1581920903955	36.241610738255	11	0.366691115964204	2	11	3	NaN	2	5	0.0440279895567065	1	1	NaN	299	5	47	2	121	221	321	NaN	521	0.128536621807143	2	1	NaN	1711435.7775061	NaN	1711436.7609772	1711437.27747558
11	19	1	0	90	36.1581920903955	36.241610738255	18	0.600040007941425	2	10	4	NaN	2	3	0.0440279895567065	1	1	NaN	300	5	48	2	121	221	321	NaN	521	0.797949869185686	2	1	NaN	1711438.2277888	NaN	1711439.2111703	1711439.72771963
11	19	1	0	90	36.1581920903955	36.241610738255	18	0.600040007941425	2	7	6	NaN	2	5	0.0440279895567065	1	1	NaN	301	5	49	2	121	221	321	NaN	521	0.19943942152895	2	1	NaN	1711441.9781071	NaN	1711442.9615594	1711443.47808818
11	19	1	0	90	36.1581920903955	36.241610738255	15	0.500033339951187	2	11	1	NaN	2	4	0.0440279895567065	1	1	NaN	302	5	50	2	121	221	321	NaN	521	0.147099779685959	2	1	NaN	1711444.4950274	NaN	1711445.4784216	1711445.99499272
11	19	1	0	90	36.1581920903955	36.241610738255	21	0.700046675931662	2	5	6	NaN	1	5	0.0440279895567065	1	1	NaN	303	5	51	2	121	221	321	NaN	521	0.0104098692536354	1	1	NaN	1711446.9619526	NaN	1711447.9453732	1711448.46190863
11	19	1	0	90	36.1581920903955	36.241610738255	0	0	1	9	5	NaN	2	4	0.0440279895567065	1	1	NaN	304	5	52	2	111	211	311	NaN	511	0.298458174336702	1	0	NaN	1711449.2955234	NaN	1711450.2789461	1711450.79546173
11	19	1	0	90	36.1581920903955	36.241610738255	13	0.433362227957696	2	6	5	NaN	1	5	0.0440279895567065	1	1	NaN	305	5	53	2	121	221	321	NaN	521	0.0104934165719897	1	1	NaN	1711451.9124623	NaN	1711452.8958583	1711453.41238638
11	19	1	0	90	36.1581920903955	36.241610738255	18	0.600040007941425	2	5	5	NaN	1	4	0.0440279895567065	1	1	NaN	306	5	54	2	121	221	321	NaN	521	0.235706016654149	2	0	NaN	1711454.2460293	NaN	1711455.2294094	1711455.74595438
11	19	1	0	90	36.1581920903955	36.241610738255	12	0.40002667196095	2	1	2	NaN	1	3	0.0440279895567065	1	1	NaN	307	5	55	2	121	221	321	NaN	521	0.100740316556767	1	1	NaN	1711456.8128164	NaN	1711457.7963332	1711458.31286768
11	19	1	0	90	36.1581920903955	36.241610738255	8	0.266684447973967	2	2	6	NaN	1	3	0.0440279895567065	1	1	NaN	308	5	56	2	121	221	321	NaN	521	0.212226021802053	1	1	NaN	1711459.2297173	NaN	1711460.2132025	1711460.72977798
11	19	1	0	90	36.1581920903955	36.241610738255	21	0.700046675931662	2	2	2	NaN	1	5	0.0440279895567065	1	1	NaN	309	5	57	2	121	221	321	NaN	521	0.486545889871195	1	1	NaN	1711461.7634252	NaN	1711462.7468565	1711463.26335741
11	19	1	0	90	36.1581920903955	36.241610738255	15	0.500033339951187	2	5	1	NaN	1	3	0.0440279895567065	1	1	NaN	310	5	58	2	121	221	321	NaN	521	0.197892816737294	1	1	NaN	1711464.5636055	NaN	1711465.5470952	1711466.06363428
11	19	1	0	90	36.1581920903955	36.241610738255	21	0.700046675931662	2	6	1	NaN	1	3	0.0440279895567065	1	1	NaN	311	5	59	2	121	221	321	NaN	521	0.249398821499199	1	1	NaN	1711467.0806088	NaN	1711468.0640219	1711468.58055078
11	19	1	0	90	36.1581920903955	36.241610738255	12	0.40002667196095	2	9	1	NaN	2	4	0.0440279895567065	1	1	NaN	312	5	60	2	121	221	321	NaN	521	0.714196437038481	1	0	NaN	1711469.6474207	NaN	1711470.6309222	1711471.14746336
11	19	1	0	90	36.1581920903955	36.241610738255	21	0.700046675931662	2	6	4	NaN	1	3	0.0440279895567065	1	1	NaN	313	5	61	2	121	221	321	NaN	521	0.160726616624743	1	1	NaN	1711472.6811908	NaN	1711473.664555	1711474.18108858
11	19	1	0	90	36.1581920903955	36.241610738255	23	0.766717787925154	2	10	2	NaN	2	5	0.0440279895567065	1	1	NaN	314	5	62	2	121	221	321	NaN	521	0.53291866928339	2	1	NaN	1711475.1646638	NaN	1711476.1481163	1711476.66466693
11	19	1	0	90	36.1581920903955	36.241610738255	12	0.40002667196095	2	1	2	NaN	1	4	0.0440279895567065	1	1	NaN	315	5	63	2	121	221	321	NaN	521	0.450679421657696	1	1	NaN	1711478.0150199	NaN	1711478.9983953	1711479.51494518
11	19	1	0	90	36.1581920903955	36.241610738255	16	0.533368895947933	2	12	4	NaN	2	5	0.0440279895567065	1	1	NaN	316	6	1	2	121	221	321	NaN	521	0.464385758852586	2	1	NaN	1711506.8178462	NaN	1711507.8012325	1711508.31777644
11	19	1	0	90	36.1581920903955	36.241610738255	23	0.766717787925154	2	3	6	NaN	1	4	0.0440279895567065	1	1	NaN	317	6	2	2	121	221	321	NaN	521	0.216796016553417	1	1	NaN	1711509.601446	NaN	1711510.5848349	1711511.10137608
11	19	1	0	90	36.1581920903955	36.241610738255	22	0.733382231928408	2	12	4	NaN	2	5	0.0440279895567065	1	1	NaN	318	6	3	2	121	221	321	NaN	521	0.116648921743035	2	1	NaN	1711512.4850431	NaN	1711513.4684649	1711513.98500428
11	19	1	0	90	36.1581920903955	36.241610738255	10	0.333355559967458	2	7	5	NaN	2	5	0.0440279895567065	1	1	NaN	319	6	4	2	121	221	321	NaN	521	0.203631121665239	1	0	NaN	1711514.9186305	NaN	1711515.9020487	1711516.41857818
11	19	1	0	90	36.1581920903955	36.241610738255	12	0.40002667196095	2	4	4	NaN	1	4	0.0440279895567065	1	1	NaN	320	6	5	2	121	221	321	NaN	521	0.229192621540278	1	1	NaN	1711517.8689052	NaN	1711518.8522923	1711519.36886618
11	19	1	0	90	36.1581920903955	36.241610738255	16	0.533368895947933	2	3	4	NaN	1	3	0.0440279895567065	1	1	NaN	321	6	6	2	121	221	321	NaN	521	0.358609137125313	1	1	NaN	1711520.8191934	NaN	1711521.8025967	1711522.31915676
11	19	1	0	90	36.1581920903955	36.241610738255	7	0.233348891977221	2	11	4	NaN	2	4	0.0440279895567065	1	1	NaN	322	6	7	2	121	221	321	NaN	521	0.369529669405892	2	1	NaN	1711523.9361517	NaN	1711524.9195915	1711525.43611783
11	19	1	0	90	36.1581920903955	36.241610738255	21	0.700046675931662	2	7	2	NaN	2	5	0.0440279895567065	1	1	NaN	323	6	8	2	121	221	321	NaN	521	0.23845966393128	1	0	NaN	1711526.6198026	NaN	1711527.6031775	1711528.11971254
11	19	1	0	90	36.1581920903955	36.241610738255	14	0.466697783954442	2	4	2	NaN	1	5	0.0440279895567065	1	1	NaN	324	6	9	2	121	221	321	NaN	521	0.815144069259986	1	1	NaN	1711529.1867059	NaN	1711530.1701104	1711530.68665523
11	19	1	0	90	36.1581920903955	36.241610738255	23	0.766717787925154	2	9	3	NaN	2	3	0.0440279895567065	1	1	NaN	325	6	10	2	121	221	321	NaN	521	1.28161517414264	2	1	NaN	1711532.320352	NaN	1711533.3037689	1711533.82028683
11	19	1	0	90	36.1581920903955	36.241610738255	11	0.366691115964204	2	7	1	NaN	2	5	0.0440279895567065	1	1	NaN	326	6	11	2	121	221	321	NaN	521	0.361162579618394	1	0	NaN	1711535.9206955	NaN	1711536.9041106	1711537.42063562
11	19	1	0	90	36.1581920903955	36.241610738255	12	0.40002667196095	2	7	1	NaN	2	4	0.0440279895567065	1	1	NaN	327	6	12	2	121	221	321	NaN	521	0.19760312163271	2	1	NaN	1711538.604186	NaN	1711539.5877127	1711540.10423638
11	19	1	0	90	36.1581920903955	36.241610738255	6	0.200013335980475	2	2	3	NaN	1	3	0.0440279895567065	1	1	NaN	328	6	13	2	121	221	321	NaN	521	0.680959669174626	1	1	NaN	1711541.1211418	NaN	1711542.1046034	1711542.62113513
11	19	1	0	90	36.1581920903955	36.241610738255	16	0.533368895947933	2	2	3	NaN	1	4	0.0440279895567065	1	1	NaN	329	6	14	2	121	221	321	NaN	521	0.296228721505031	1	1	NaN	1711544.1215083	NaN	1711545.1048824	1711545.62143478
11	19	1	0	90	36.1581920903955	36.241610738255	24	0.8000533439219	2	1	5	NaN	1	5	0.0440279895567065	1	1	NaN	330	6	15	2	121	221	321	NaN	521	0.240586669417098	1	1	NaN	1711547.1050011	NaN	1711548.0885221	1711548.60505763
11	19	1	0	90	36.1581920903955	36.241610738255	14	0.466697783954442	2	10	1	NaN	2	4	0.0440279895567065	1	1	NaN	331	6	16	2	121	221	321	NaN	521	0.233669879613444	1	0	NaN	1711549.672059	NaN	1711550.6554486	1711551.17198402
11	19	1	0	90	36.1581920903955	36.241610738255	20	0.666711119934916	2	3	3	NaN	1	3	0.0440279895567065	1	1	NaN	332	6	17	2	121	221	321	NaN	521	0.273587621515617	1	1	NaN	1711552.6723548	NaN	1711553.6557249	1711554.17228178
11	19	1	0	90	36.1581920903955	36.241610738255	22	0.733382231928408	2	11	4	NaN	2	3	0.0440279895567065	1	1	NaN	333	6	18	2	121	221	321	NaN	521	0.553248621756211	2	1	NaN	1711555.2724712	NaN	1711556.2559875	1711556.77253018
11	19	1	0	90	36.1581920903955	36.241610738255	15	0.500033339951187	2	9	5	NaN	2	3	0.0440279895567065	1	1	NaN	334	6	19	2	121	221	321	NaN	521	0.36670206929557	2	1	NaN	1711558.1395986	NaN	1711559.1229662	1711559.63947773
11	19	1	0	90	36.1581920903955	36.241610738255	9	0.300020003970712	2	1	5	NaN	1	4	0.0440279895567065	1	1	NaN	335	6	20	2	121	221	321	NaN	521	0.707149721682072	2	0	NaN	1711560.8231584	NaN	1711561.8065472	1711562.32307968
11	19	1	0	90	36.1581920903955	36.241610738255	12	0.40002667196095	2	4	1	NaN	1	5	0.0440279895567065	1	1	NaN	336	6	21	2	121	221	321	NaN	521	0.78565491666086	1	1	NaN	1711563.8401065	NaN	1711564.8235038	1711565.34003318
11	19	1	0	90	36.1581920903955	36.241610738255	13	0.433362227957696	2	4	5	NaN	1	3	0.0440279895567065	1	1	NaN	337	6	22	2	121	221	321	NaN	521	0.645398269407451	2	0	NaN	1711566.9404139	NaN	1711567.9237705	1711568.44034213
11	19	1	0	90	36.1581920903955	36.241610738255	7	0.233348891977221	2	1	5	NaN	1	4	0.0440279895567065	1	1	NaN	338	6	23	2	121	221	321	NaN	521	1.08689718972892	1	1	NaN	1711569.9073903	NaN	1711570.8907722	1711571.40731471
11	19	1	0	90	36.1581920903955	36.241610738255	9	0.300020003970712	2	5	1	NaN	1	3	0.0440279895567065	1	1	NaN	339	6	24	2	121	221	321	NaN	521	0.254283021669835	1	1	NaN	1711573.3077056	NaN	1711574.291077	1711574.80764398
11	19	1	0	90	36.1581920903955	36.241610738255	16	0.533368895947933	2	10	3	NaN	2	4	0.0440279895567065	1	1	NaN	340	6	25	2	121	221	321	NaN	521	0.334870564052835	2	1	NaN	1711576.0913104	NaN	1711577.0746886	1711577.59124414
11	19	1	0	90	36.1581920903955	36.241610738255	9	0.300020003970712	2	2	6	NaN	1	3	0.0440279895567065	1	1	NaN	341	6	26	2	121	221	321	NaN	521	0.731535169295967	1	1	NaN	1711578.7582339	NaN	1711579.7416112	1711580.25816813
11	19	1	0	90	36.1581920903955	36.241610738255	16	0.533368895947933	2	9	6	NaN	2	4	0.0440279895567065	1	1	NaN	342	6	27	2	121	221	321	NaN	521	0.0651170217897743	1	0	NaN	1711581.8085339	NaN	1711582.7919325	1711583.30847608
11	19	1	0	90	36.1581920903955	36.241610738255	10	0.333355559967458	2	5	3	NaN	1	4	0.0440279895567065	1	1	NaN	343	6	28	2	121	221	321	NaN	521	0.0103694370482117	1	1	NaN	1711584.1920955	NaN	1711585.1754849	1711585.69204576
11	19	1	0	90	36.1581920903955	36.241610738255	24	0.8000533439219	2	6	2	NaN	1	5	0.0440279895567065	1	1	NaN	344	6	29	2	121	221	321	NaN	521	0.0604166693519801	1	1	NaN	1711586.5256573	NaN	1711587.5090525	1711588.02559703
11	19	1	0	90	36.1581920903955	36.241610738255	21	0.700046675931662	2	1	4	NaN	1	4	0.0440279895567065	1	1	NaN	345	6	30	2	121	221	321	NaN	521	0.0103944216389209	1	1	NaN	1711588.9091252	NaN	1711589.8927397	1711590.40916048
11	19	1	0	90	36.1581920903955	36.241610738255	17	0.566704451944679	2	7	5	NaN	2	3	0.0440279895567065	1	1	NaN	346	6	31	2	121	221	321	NaN	521	0.231392769375816	1	0	NaN	1711591.2427844	NaN	1711592.2261885	1711592.74272613
11	19	1	0	90	36.1581920903955	36.241610738255	14	0.466697783954442	2	2	3	NaN	1	5	0.0440279895567065	1	1	NaN	347	6	32	2	121	221	321	NaN	521	0.136939569376409	2	0	NaN	1711593.7930363	NaN	1711594.7764413	1711595.29297433
11	19	1	0	90	36.1581920903955	36.241610738255	23	0.766717787925154	2	5	1	NaN	1	4	0.0440279895567065	1	1	NaN	348	6	33	2	121	221	321	NaN	521	0.0868546743877232	1	1	NaN	1711596.2432779	NaN	1711597.2266866	1711597.74322633
11	19	1	0	90	36.1581920903955	36.241610738255	9	0.300020003970712	2	8	1	NaN	2	3	0.0440279895567065	1	1	NaN	349	6	34	2	121	221	321	NaN	521	0.157168569276109	1	0	NaN	1711599.076852	NaN	1711600.0602893	1711600.57683883
11	19	1	0	90	36.1581920903955	36.241610738255	20	0.666711119934916	2	11	5	NaN	2	4	0.0440279895567065	1	1	NaN	350	6	35	2	121	221	321	NaN	521	0.610116069205105	2	1	NaN	1711601.5438223	NaN	1711602.5272034	1711603.04373483
11	19	1	0	90	36.1581920903955	36.241610738255	10	0.333355559967458	2	4	3	NaN	1	4	0.0440279895567065	1	1	NaN	351	6	36	2	121	221	321	NaN	521	2.2369545167312	1	1	NaN	1711604.4774152	NaN	1711605.4607898	1711605.97736158
11	19	1	0	90	36.1581920903955	36.241610738255	8	0.266684447973967	2	3	5	NaN	1	3	0.0440279895567065	1	1	NaN	352	6	37	2	121	221	321	NaN	521	0.344808469293639	1	1	NaN	1711612.3614204	NaN	1711613.3449258	1711613.86146893
11	19	1	0	90	36.1581920903955	36.241610738255	24	0.8000533439219	2	4	1	NaN	1	3	0.0440279895567065	1	1	NaN	353	6	38	2	121	221	321	NaN	521	0.427511669229716	2	0	NaN	1711615.2784276	NaN	1711616.2618813	1711616.77841753
11	19	1	0	90	36.1581920903955	36.241610738255	7	0.233348891977221	2	5	3	NaN	1	3	0.0440279895567065	1	1	NaN	354	6	39	2	121	221	321	NaN	521	0.0931809167377651	1	1	NaN	1711618.0286221	NaN	1711619.0121741	1711619.52868268
11	19	1	0	90	36.1581920903955	36.241610738255	6	0.200013335980475	2	6	4	NaN	1	4	0.0440279895567065	1	1	NaN	355	6	40	2	121	221	321	NaN	521	0.174337021773681	1	1	NaN	1711620.7956877	NaN	1711621.7790868	1711622.29563208
11	19	1	0	90	36.1581920903955	36.241610738255	8	0.266684447973967	2	3	5	NaN	1	3	0.0440279895567065	1	1	NaN	356	6	41	2	121	221	321	NaN	521	0.0104515694547445	1	1	NaN	1711623.2959498	NaN	1711624.2793762	1711624.79586693
11	19	1	0	90	36.1581920903955	36.241610738255	13	0.433362227957696	2	5	2	NaN	1	5	0.0440279895567065	1	1	NaN	357	6	42	2	121	221	321	NaN	521	0.27685606922023	2	0	NaN	1711625.6295021	NaN	1711626.6128981	1711627.12943843
11	19	1	0	90	36.1581920903955	36.241610738255	14	0.466697783954442	2	12	4	NaN	2	3	0.0440279895567065	1	1	NaN	358	6	43	2	121	221	321	NaN	521	0.323936827015132	1	0	NaN	1711628.2297853	NaN	1711629.2131691	1711629.72969067
11	19	1	0	90	36.1581920903955	36.241610738255	14	0.466697783954442	2	10	1	NaN	2	4	0.0440279895567065	1	1	NaN	359	6	44	2	121	221	321	NaN	521	0.202099769376218	1	0	NaN	1711630.8800376	NaN	1711631.8634091	1711632.37995333
11	19	1	0	90	36.1581920903955	36.241610738255	10	0.333355559967458	2	2	2	NaN	1	3	0.0440279895567065	1	1	NaN	360	6	45	2	121	221	321	NaN	521	0.0612239215988666	2	0	NaN	1711633.3967844	NaN	1711634.3803267	1711634.89686318
11	19	1	0	90	36.1581920903955	36.241610738255	7	0.233348891977221	2	10	6	NaN	2	3	0.0440279895567065	1	1	NaN	361	6	46	2	121	221	321	NaN	521	0.0814322216901928	1	0	NaN	1711636.0804018	NaN	1711637.0639229	1711637.58046638
11	19	1	0	90	36.1581920903955	36.241610738255	13	0.433362227957696	2	9	3	NaN	2	3	0.0440279895567065	1	1	NaN	362	6	47	2	121	221	321	NaN	521	0.0412249693181366	1	0	NaN	1711638.4807725	NaN	1711639.4641538	1711639.98069323
11	19	1	0	90	36.1581920903955	36.241610738255	11	0.366691115964204	2	9	6	NaN	2	5	0.0440279895567065	1	1	NaN	363	6	48	2	121	221	321	NaN	521	0.338888021651655	1	0	NaN	1711640.8309968	NaN	1711641.8143947	1711642.33093308
11	19	1	0	90	36.1581920903955	36.241610738255	10	0.333355559967458	2	5	5	NaN	1	5	0.0440279895567065	1	1	NaN	364	6	49	2	121	221	321	NaN	521	0.0242065691854805	1	1	NaN	1711643.497941	NaN	1711644.4813372	1711644.99785433
11	19	1	0	90	36.1581920903955	36.241610738255	12	0.40002667196095	2	11	6	NaN	2	3	0.0440279895567065	1	1	NaN	365	6	50	2	121	221	321	NaN	521	0.34656717418693	1	0	NaN	1711645.8314701	NaN	1711646.8148803	1711647.33142413
11	19	1	0	90	36.1581920903955	36.241610738255	20	0.666711119934916	2	2	1	NaN	1	4	0.0440279895567065	1	1	NaN	366	6	51	2	121	221	321	NaN	521	0.255965769290924	1	1	NaN	1711648.4984227	NaN	1711649.4818361	1711649.99834123
11	19	1	0	90	36.1581920903955	36.241610738255	8	0.266684447973967	2	4	2	NaN	1	5	0.0440279895567065	1	1	NaN	367	6	52	2	121	221	321	NaN	521	0.312093621818349	1	1	NaN	1711651.0820055	NaN	1711652.0653858	1711652.58193738
11	19	1	0	90	36.1581920903955	36.241610738255	19	0.633375563938171	2	8	1	NaN	2	4	0.0440279895567065	1	1	NaN	368	6	53	2	121	221	321	NaN	521	0.542760416632518	1	0	NaN	1711653.7155771	NaN	1711654.6990139	1711655.21552128
11	19	1	0	90	36.1581920903955	36.241610738255	25	0.833388899918646	2	3	2	NaN	1	3	0.0440279895567065	1	1	NaN	369	6	54	2	121	221	321	NaN	521	0.0104208167176694	1	1	NaN	1711656.5824866	NaN	1711657.5659467	1711658.08246988
11	19	1	0	90	36.1581920903955	36.241610738255	20	0.666711119934916	2	7	4	NaN	2	5	0.0440279895567065	1	1	NaN	370	6	55	2	121	221	321	NaN	521	0.253950921585783	1	0	NaN	1711658.9160928	NaN	1711659.8994953	1711660.41604238
11	19	1	0	90	36.1581920903955	36.241610738255	6	0.200013335980475	2	10	4	NaN	2	4	0.0440279895567065	1	1	NaN	371	6	56	2	121	221	321	NaN	521	0.197719869436696	1	0	NaN	1711661.9163767	NaN	1711662.8998649	1711663.41632923
11	19	1	0	90	36.1581920903955	36.241610738255	22	0.733382231928408	2	5	5	NaN	1	5	0.0440279895567065	1	1	NaN	372	6	57	2	121	221	321	NaN	521	0.416706426767632	1	1	NaN	1711664.4332984	NaN	1711665.4167946	1711665.93324577
11	19	1	0	90	36.1581920903955	36.241610738255	23	0.766717787925154	2	6	6	NaN	1	4	0.0440279895567065	1	1	NaN	373	6	58	2	121	221	321	NaN	521	0.0911730693187565	1	1	NaN	1711667.1668973	NaN	1711668.1503126	1711668.66684553
11	19	1	0	90	36.1581920903955	36.241610738255	15	0.500033339951187	2	2	2	NaN	1	5	0.0440279895567065	1	1	NaN	374	6	59	2	121	221	321	NaN	521	1.74617881677113	2	0	NaN	1711669.5838425	NaN	1711670.5672394	1711671.08374028
11	19	1	0	90	36.1581920903955	36.241610738255	11	0.366691115964204	2	12	6	NaN	2	4	0.0440279895567065	1	1	NaN	375	6	60	2	121	221	321	NaN	521	0.471166969276965	2	1	NaN	1711673.6508805	NaN	1711674.6342814	1711675.15080703
11	19	1	0	90	36.1581920903955	36.241610738255	11	0.366691115964204	2	12	2	NaN	2	4	0.0440279895567065	1	1	NaN	376	6	61	2	121	221	321	NaN	521	2.03140396927483	1	0	NaN	1711676.4511516	NaN	1711677.4345358	1711677.95108573
11	19	1	0	90	36.1581920903955	36.241610738255	9	0.300020003970712	2	3	3	NaN	1	5	0.0440279895567065	1	1	NaN	377	6	62	2	121	221	321	NaN	521	0.201335716526955	1	1	NaN	1711692.9527859	NaN	1711693.936171	1711694.45270668
11	19	1	0	90	36.1581920903955	36.241610738255	17	0.566704451944679	2	5	4	NaN	1	4	0.0440279895567065	1	1	NaN	378	6	63	2	121	221	321	NaN	521	0.140364116756245	1	1	NaN	1711695.469673	NaN	1711696.4530729	1711696.96962138
11	19	1	0	90	36.1581920903955	36.241610738255	11	0.366691115964204	2	3	3	NaN	1	3	0.0440279895567065	1	1	NaN	379	7	1	2	121	221	321	NaN	521	0.122479637153447	1	1	NaN	1711743.8076328	NaN	1711744.7911726	1711745.30770756
11	19	1	0	90	36.1581920903955	36.241610738255	24	0.8000533439219	2	5	4	NaN	1	5	0.0440279895567065	1	1	NaN	380	7	2	2	121	221	321	NaN	521	0.223670799983665	1	1	NaN	1711746.4746603	NaN	1711747.4581131	1711747.9746451
11	19	1	0	90	36.1581920903955	36.241610738255	6	0.200013335980475	2	8	1	NaN	2	5	0.0440279895567065	1	1	NaN	381	7	3	2	121	221	321	NaN	521	0.0385295217856765	2	1	NaN	1711749.291642	NaN	1711750.2751443	1711750.79157118
11	19	1	0	90	36.1581920903955	36.241610738255	23	0.766717787925154	2	5	2	NaN	1	4	0.0440279895567065	1	1	NaN	382	7	4	2	121	221	321	NaN	521	0.088315669214353	1	1	NaN	1711751.6418492	NaN	1711752.6252637	1711753.14179853
11	19	1	0	90	36.1581920903955	36.241610738255	6	0.200013335980475	2	8	4	NaN	2	4	0.0440279895567065	1	1	NaN	383	7	5	2	121	221	321	NaN	521	0.0960953216999769	2	1	NaN	1711754.0421039	NaN	1711755.0255008	1711755.54203568
11	19	1	0	90	36.1581920903955	36.241610738255	12	0.40002667196095	2	2	6	NaN	1	5	0.0440279895567065	1	1	NaN	384	7	6	2	121	221	321	NaN	521	0.127222469309345	2	0	NaN	1711756.4589969	NaN	1711757.442396	1711757.95893643
11	19	1	0	90	36.1581920903955	36.241610738255	10	0.333355559967458	2	8	5	NaN	2	5	0.0440279895567065	1	1	NaN	385	7	7	2	121	221	321	NaN	521	0.301561579341069	2	1	NaN	1711758.8925602	NaN	1711759.8759574	1711760.39251312
11	19	1	0	90	36.1581920903955	36.241610738255	7	0.233348891977221	2	9	2	NaN	2	5	0.0440279895567065	1	1	NaN	386	7	8	2	121	221	321	NaN	521	0.490533869247884	2	1	NaN	1711762.1594159	NaN	1711763.1429855	1711763.65949843
11	19	1	0	90	36.1581920903955	36.241610738255	17	0.566704451944679	2	6	3	NaN	1	4	0.0440279895567065	1	1	NaN	387	7	9	2	121	221	321	NaN	521	4.68161982181482	1	1	NaN	1711764.9765088	NaN	1711765.959892	1711766.47644438
11	19	1	0	90	36.1581920903955	36.241610738255	18	0.600040007941425	2	1	1	NaN	1	3	0.0440279895567065	1	1	NaN	388	7	10	2	121	221	321	NaN	521	0.513055269373581	2	0	NaN	1711771.9771995	NaN	1711772.9605765	1711773.47713373
11	19	1	0	90	36.1581920903955	36.241610738255	15	0.500033339951187	2	6	3	NaN	1	4	0.0440279895567065	1	1	NaN	389	7	11	2	121	221	321	NaN	521	0.0959599371999502	1	1	NaN	1711774.7941396	NaN	1711775.7775326	1711776.29408506
11	19	1	0	90	36.1581920903955	36.241610738255	0	0	1	10	2	NaN	2	4	0.0440279895567065	1	1	NaN	390	7	12	2	111	211	311	NaN	511	0.375324021792039	1	0	NaN	1711777.2110427	NaN	1711778.1944455	1711778.71097858
11	19	1	0	90	36.1581920903955	36.241610738255	12	0.40002667196095	2	7	3	NaN	2	5	0.0440279895567065	1	1	NaN	391	7	13	2	121	221	321	NaN	521	1.84284922177903	1	0	NaN	1711779.9113077	NaN	1711780.894708	1711781.41124488
11	19	1	0	90	36.1581920903955	36.241610738255	24	0.8000533439219	2	1	6	NaN	1	4	0.0440279895567065	1	1	NaN	392	7	14	2	121	221	321	NaN	521	1.48429736937396	1	1	NaN	1711784.0617007	NaN	1711785.0451192	1711785.56164453
11	19	1	0	90	36.1581920903955	36.241610738255	10	0.333355559967458	2	10	5	NaN	2	3	0.0440279895567065	1	1	NaN	393	7	15	2	121	221	321	NaN	521	0.467859289608896	1	0	NaN	1711787.8620862	NaN	1711788.8454972	1711789.36202531
11	19	1	0	90	36.1581920903955	36.241610738255	13	0.433362227957696	2	7	2	NaN	2	5	0.0440279895567065	1	1	NaN	394	7	16	2	121	221	321	NaN	521	0.468362769344822	1	0	NaN	1711790.6455843	NaN	1711791.6290981	1711792.14562963
11	19	1	0	90	36.1581920903955	36.241610738255	14	0.466697783954442	2	8	4	NaN	2	3	0.0440279895567065	1	1	NaN	395	7	17	2	121	221	321	NaN	521	0.708240721607581	1	0	NaN	1711793.4459644	NaN	1711794.4293588	1711794.94591178
11	19	1	0	90	36.1581920903955	36.241610738255	6	0.200013335980475	2	7	5	NaN	2	3	0.0440279895567065	1	1	NaN	396	7	18	2	121	221	321	NaN	521	1.15483586932532	1	0	NaN	1711796.4795941	NaN	1711797.4629802	1711797.97953483
11	19	1	0	90	36.1581920903955	36.241610738255	20	0.666711119934916	2	6	1	NaN	1	5	0.0440279895567065	1	1	NaN	397	7	19	2	121	221	321	NaN	521	1.11158092156984	2	0	NaN	1711799.9464405	NaN	1711800.9299878	1711801.44654628
11	19	1	0	90	36.1581920903955	36.241610738255	16	0.533368895947933	2	4	6	NaN	1	4	0.0440279895567065	1	1	NaN	398	7	20	2	121	221	321	NaN	521	0.366739653982222	1	1	NaN	1711803.3636186	NaN	1711804.3470121	1711804.86353785
11	19	1	0	90	36.1581920903955	36.241610738255	21	0.700046675931662	2	8	3	NaN	2	3	0.0440279895567065	1	1	NaN	399	7	21	2	121	221	321	NaN	521	0.883149479515851	1	0	NaN	1711806.0471924	NaN	1711807.0305941	1711807.54714352
11	19	1	0	90	36.1581920903955	36.241610738255	13	0.433362227957696	2	12	6	NaN	2	5	0.0440279895567065	1	1	NaN	400	7	22	2	121	221	321	NaN	521	0.162810331908986	2	1	NaN	1711809.2475037	NaN	1711810.2309135	1711810.74746217
11	19	1	0	90	36.1581920903955	36.241610738255	17	0.566704451944679	2	12	2	NaN	2	5	0.0440279895567065	1	1	NaN	401	7	23	2	121	221	321	NaN	521	0.247466669185087	2	1	NaN	1711811.731106	NaN	1711812.7144815	1711813.23102633
11	19	1	0	90	36.1581920903955	36.241610738255	12	0.40002667196095	2	11	2	NaN	2	4	0.0440279895567065	1	1	NaN	402	7	24	2	121	221	321	NaN	521	0.320609121816233	2	1	NaN	1711814.2979938	NaN	1711815.2813998	1711815.79795228
11	19	1	0	90	36.1581920903955	36.241610738255	14	0.466697783954442	2	4	5	NaN	1	3	0.0440279895567065	1	1	NaN	403	7	25	2	121	221	321	NaN	521	0.221868811408058	2	0	NaN	1711816.9482872	NaN	1711817.9317311	1711818.44820589
11	19	1	0	90	36.1581920903955	36.241610738255	20	0.666711119934916	2	9	1	NaN	2	4	0.0440279895567065	1	1	NaN	404	7	26	2	121	221	321	NaN	521	0.119761226931587	1	0	NaN	1711819.4985278	NaN	1711820.4819524	1711820.99845927
11	19	1	0	90	36.1581920903955	36.241610738255	17	0.566704451944679	2	11	3	NaN	2	4	0.0440279895567065	1	1	NaN	405	7	27	2	121	221	321	NaN	521	0.206144369440153	1	0	NaN	1711821.9320964	NaN	1711822.9154746	1711823.43202873
11	19	1	0	90	36.1581920903955	36.241610738255	19	0.633375563938171	2	8	3	NaN	2	4	0.0440279895567065	1	1	NaN	406	7	28	2	121	221	321	NaN	521	0.010410669259727	2	1	NaN	1711824.4656784	NaN	1711825.4490491	1711825.96561003
11	19	1	0	90	36.1581920903955	36.241610738255	0	0	1	4	5	NaN	1	4	0.0440279895567065	1	1	NaN	407	7	29	2	111	211	311	NaN	511	0.299792174249887	2	0	NaN	1711826.7825648	NaN	1711827.7659936	1711828.28251173
11	19	1	0	90	36.1581920903955	36.241610738255	16	0.533368895947933	2	3	1	NaN	1	3	0.0440279895567065	1	1	NaN	408	7	30	2	121	221	321	NaN	521	0.0909037692472339	1	1	NaN	1711829.3993537	NaN	1711830.3829094	1711830.89942933
11	19	1	0	90	36.1581920903955	36.241610738255	22	0.733382231928408	2	8	5	NaN	2	5	0.0440279895567065	1	1	NaN	409	7	31	2	121	221	321	NaN	521	4.75417157425545	1	0	NaN	1711831.8164074	NaN	1711832.7998245	1711833.31632933
11	19	1	0	90	36.1581920903955	36.241610738255	24	0.8000533439219	2	12	1	NaN	2	5	0.0440279895567065	1	1	NaN	410	7	32	2	121	221	321	NaN	521	1.87115651671775	1	0	NaN	1711839.0671262	NaN	1711840.0505071	1711840.56705148
11	19	1	0	90	36.1581920903955	36.241610738255	17	0.566704451944679	2	5	6	NaN	1	4	0.0440279895567065	1	1	NaN	411	7	33	2	121	221	321	NaN	521	0.911526516778395	1	1	NaN	1711843.2507329	NaN	1711844.2342949	1711844.75079268
11	19	1	0	90	36.1581920903955	36.241610738255	8	0.266684447973967	2	8	6	NaN	2	5	0.0440279895567065	1	1	NaN	412	7	34	2	121	221	321	NaN	521	0.453769469400868	1	0	NaN	1711846.4844928	NaN	1711847.4679263	1711847.98443303
11	19	1	0	90	36.1581920903955	36.241610738255	14	0.466697783954442	2	11	5	NaN	2	4	0.0440279895567065	1	1	NaN	413	7	35	2	121	221	321	NaN	521	0.310828321613371	1	0	NaN	1711849.2514418	NaN	1711850.2348418	1711850.75138138
11	19	1	0	90	36.1581920903955	36.241610738255	13	0.433362227957696	2	12	5	NaN	2	5	0.0440279895567065	1	1	NaN	414	7	36	2	121	221	321	NaN	521	0.215200669365004	1	0	NaN	1711852.4344053	NaN	1711853.4184953	1711853.93502523
11	19	1	0	90	36.1581920903955	36.241610738255	8	0.266684447973967	2	11	1	NaN	2	3	0.0440279895567065	1	1	NaN	415	7	37	2	121	221	321	NaN	521	0.629409931832924	2	1	NaN	1711855.4686782	NaN	1711856.4520843	1711856.96866557
11	19	1	0	90	36.1581920903955	36.241610738255	9	0.300020003970712	2	4	3	NaN	1	3	0.0440279895567065	1	1	NaN	416	7	38	2	121	221	321	NaN	521	0.367686121491715	1	1	NaN	1711858.4190267	NaN	1711859.4023964	1711859.91894678
11	19	1	0	90	36.1581920903955	36.241610738255	12	0.40002667196095	2	8	6	NaN	2	5	0.0440279895567065	1	1	NaN	417	7	39	2	121	221	321	NaN	521	0.327304069185629	1	0	NaN	1711862.0192302	NaN	1711863.0027654	1711863.51929663
11	19	1	0	90	36.1581920903955	36.241610738255	16	0.533368895947933	2	11	6	NaN	2	3	0.0440279895567065	1	1	NaN	418	7	40	2	121	221	321	NaN	521	0.100659621879458	1	0	NaN	1711864.6696398	NaN	1711865.6530211	1711866.16956598
11	19	1	0	90	36.1581920903955	36.241610738255	16	0.533368895947933	2	7	4	NaN	2	4	0.0440279895567065	1	1	NaN	419	7	41	2	121	221	321	NaN	521	0.12367817433551	2	1	NaN	1711867.0865159	NaN	1711868.0698071	1711868.58646083
11	19	1	0	90	36.1581920903955	36.241610738255	23	0.766717787925154	2	2	5	NaN	1	5	0.0440279895567065	1	1	NaN	420	7	42	2	121	221	321	NaN	521	0.642159569310024	1	1	NaN	1711869.520086	NaN	1711870.5035096	1711871.02003893
11	19	1	0	90	36.1581920903955	36.241610738255	7	0.233348891977221	2	7	4	NaN	2	4	0.0440279895567065	1	1	NaN	421	7	43	2	121	221	321	NaN	521	0.195315916556865	2	1	NaN	1711872.4869306	NaN	1711873.4704994	1711873.98699518
11	19	1	0	90	36.1581920903955	36.241610738255	16	0.533368895947933	2	10	4	NaN	2	3	0.0440279895567065	1	1	NaN	422	7	44	2	121	221	321	NaN	521	0.550263869343325	2	1	NaN	1711875.0039903	NaN	1711875.987384	1711876.50390983
11	19	1	0	90	36.1581920903955	36.241610738255	25	0.833388899918646	2	11	3	NaN	2	3	0.0440279895567065	1	1	NaN	423	7	45	2	121	221	321	NaN	521	0.147757816594094	1	0	NaN	1711877.8709095	NaN	1711878.8543131	1711879.37085718
11	19	1	0	90	36.1581920903955	36.241610738255	22	0.733382231928408	2	7	2	NaN	2	3	0.0440279895567065	1	1	NaN	424	7	46	2	121	221	321	NaN	521	0.248598169302568	2	1	NaN	1711880.3376932	NaN	1711881.3212087	1711881.83776363
11	19	1	0	90	36.1581920903955	36.241610738255	15	0.500033339951187	2	2	3	NaN	1	5	0.0440279895567065	1	1	NaN	425	7	47	2	121	221	321	NaN	521	0.697653574170545	2	0	NaN	1711882.9047387	NaN	1711883.8881458	1711884.40469053
11	19	1	0	90	36.1581920903955	36.241610738255	17	0.566704451944679	2	8	1	NaN	2	3	0.0440279895567065	1	1	NaN	426	7	48	2	121	221	321	NaN	521	0.0873108743689954	1	0	NaN	1711886.3550759	NaN	1711887.3385105	1711887.85502533
11	19	1	0	90	36.1581920903955	36.241610738255	24	0.8000533439219	2	5	3	NaN	1	4	0.0440279895567065	1	1	NaN	427	7	49	2	121	221	321	NaN	521	0.0143655217252672	1	1	NaN	1711889.9720933	NaN	1711890.9554834	1711891.47204538
11	19	1	0	90	36.1581920903955	36.241610738255	21	0.700046675931662	2	4	2	NaN	1	4	0.0440279895567065	1	1	NaN	428	7	50	2	121	221	321	NaN	521	0.237375169293955	1	1	NaN	1711892.7890084	NaN	1711893.7724098	1711894.28898593
11	19	1	0	90	36.1581920903955	36.241610738255	7	0.233348891977221	2	12	2	NaN	2	3	0.0440279895567065	1	1	NaN	429	7	51	2	121	221	321	NaN	521	0.153574063908309	1	0	NaN	1711896.4726273	NaN	1711897.4561787	1711897.97267554
11	19	1	0	90	36.1581920903955	36.241610738255	23	0.766717787925154	2	1	3	NaN	1	5	0.0440279895567065	1	1	NaN	430	7	52	2	121	221	321	NaN	521	0.344941274262965	1	1	NaN	1711900.0897296	NaN	1711901.0731539	1711901.58970613
11	19	1	0	90	36.1581920903955	36.241610738255	23	0.766717787925154	2	9	2	NaN	2	5	0.0440279895567065	1	1	NaN	431	7	53	2	121	221	321	NaN	521	0.0783693217672408	1	0	NaN	1711902.7400194	NaN	1711903.7234175	1711904.23996358
11	19	1	0	90	36.1581920903955	36.241610738255	7	0.233348891977221	2	1	1	NaN	1	5	0.0440279895567065	1	1	NaN	432	7	54	2	121	221	321	NaN	521	9.5424253216479	1	1	NaN	1711905.1402506	NaN	1711906.1236598	1711906.64019968
11	19	1	0	90	36.1581920903955	36.241610738255	20	0.666711119934916	2	8	6	NaN	2	5	0.0440279895567065	1	1	NaN	433	7	55	2	121	221	321	NaN	521	1.13891837932169	2	1	NaN	1711916.9914093	NaN	1711917.9748187	1711918.49135802
11	19	1	0	90	36.1581920903955	36.241610738255	24	0.8000533439219	2	8	3	NaN	2	4	0.0440279895567065	1	1	NaN	434	7	56	2	121	221	321	NaN	521	0.864590969169512	1	0	NaN	1711920.4416206	NaN	1711921.4251492	1711921.94169683
11	19	1	0	90	36.1581920903955	36.241610738255	18	0.600040007941425	2	3	1	NaN	1	3	0.0440279895567065	1	1	NaN	435	7	57	2	121	221	321	NaN	521	0.0104081691242754	1	1	NaN	1711923.7420881	NaN	1711924.7254867	1711925.24201453
11	19	1	0	90	36.1581920903955	36.241610738255	17	0.566704451944679	2	9	2	NaN	2	5	0.0440279895567065	1	1	NaN	436	7	58	2	121	221	321	NaN	521	0.0103928216267377	2	1	NaN	1711926.0756517	NaN	1711927.0590379	1711927.57558978
11	19	1	0	90	36.1581920903955	36.241610738255	8	0.266684447973967	2	9	3	NaN	2	3	0.0440279895567065	1	1	NaN	437	7	59	2	121	221	321	NaN	521	0.425377369392663	2	1	NaN	1711928.4092207	NaN	1711929.3925905	1711929.90914943
11	19	1	0	90	36.1581920903955	36.241610738255	21	0.700046675931662	2	3	6	NaN	1	5	0.0440279895567065	1	1	NaN	438	7	60	2	121	221	321	NaN	521	0.154863969190046	1	1	NaN	1711931.1593405	NaN	1711932.1428616	1711932.65942703
11	19	1	0	90	36.1581920903955	36.241610738255	16	0.533368895947933	2	6	6	NaN	1	5	0.0440279895567065	1	1	NaN	439	7	61	2	121	221	321	NaN	521	0.0952876370865852	1	1	NaN	1711933.6429265	NaN	1711934.6264533	1711935.14299336
11	19	1	0	90	36.1581920903955	36.241610738255	19	0.633375563938171	2	11	4	NaN	2	4	0.0440279895567065	1	1	NaN	440	7	62	2	121	221	321	NaN	521	0.358488469384611	1	0	NaN	1711936.0599659	NaN	1711937.0433687	1711937.55990023
11	19	1	0	90	36.1581920903955	36.241610738255	6	0.200013335980475	2	3	5	NaN	1	4	0.0440279895567065	1	1	NaN	441	7	63	2	121	221	321	NaN	521	0.458976821741089	1	1	NaN	1711938.7435585	NaN	1711939.7270535	1711940.24350058
11	19	1	0	90	36.1581920903955	36.241610738255	19	0.633375563938171	2	7	1	NaN	2	4	0.0440279895567065	1	1	NaN	442	8	1	2	121	221	321	NaN	521	0.233580279396847	1	0	NaN	1711972.6968868	NaN	1711973.6802765	1711974.19683062
11	19	1	0	90	36.1581920903955	36.241610738255	24	0.8000533439219	2	11	6	NaN	2	3	0.0440279895567065	1	1	NaN	443	8	2	2	121	221	321	NaN	521	0.0519065167754889	2	1	NaN	1711975.6304468	NaN	1711976.6139182	1711977.13044618
11	19	1	0	90	36.1581920903955	36.241610738255	25	0.833388899918646	2	6	1	NaN	1	4	0.0440279895567065	1	1	NaN	444	8	3	2	121	221	321	NaN	521	0.485000369371846	1	1	NaN	1711977.9974327	NaN	1711978.9807939	1711979.49734973
11	19	1	0	90	36.1581920903955	36.241610738255	19	0.633375563938171	2	5	5	NaN	1	5	0.0440279895567065	1	1	NaN	445	8	4	2	121	221	321	NaN	521	3.4604437216185	1	1	NaN	1711980.8143295	NaN	1711981.7977675	1711982.31429808
11	19	1	0	90	36.1581920903955	36.241610738255	22	0.733382231928408	2	4	5	NaN	1	4	0.0440279895567065	1	1	NaN	446	8	5	2	121	221	321	NaN	521	0.028342321747914	2	0	NaN	1711986.5982461	NaN	1711987.5816465	1711988.09819588
11	19	1	0	90	36.1581920903955	36.241610738255	18	0.600040007941425	2	4	4	NaN	1	3	0.0440279895567065	1	1	NaN	447	8	6	2	121	221	321	NaN	521	0.0103968216571957	1	1	NaN	1711988.9484784	NaN	1711989.9318753	1711990.44842758
11	19	1	0	90	36.1581920903955	36.241610738255	9	0.300020003970712	2	12	4	NaN	2	5	0.0440279895567065	1	1	NaN	448	8	7	2	121	221	321	NaN	521	0.0881462218239903	2	1	NaN	1711991.2820427	NaN	1711992.265434	1711992.78198868
11	19	1	0	90	36.1581920903955	36.241610738255	10	0.333355559967458	2	4	2	NaN	1	4	0.0440279895567065	1	1	NaN	449	8	8	2	121	221	321	NaN	521	0.112147774314508	1	1	NaN	1711993.6822756	NaN	1711994.6656854	1711995.18222323
11	19	1	0	90	36.1581920903955	36.241610738255	0	0	1	3	5	NaN	1	4	0.0440279895567065	1	1	NaN	450	8	9	2	111	211	311	NaN	511	0.134823774453253	1	1	NaN	1711996.1158415	NaN	1711997.0992514	1711997.61579503
11	19	1	0	90	36.1581920903955	36.241610738255	20	0.666711119934916	2	4	5	NaN	1	3	0.0440279895567065	1	1	NaN	451	8	10	2	121	221	321	NaN	521	0.116473069181666	1	1	NaN	1711998.5660961	NaN	1711999.5495053	1712000.06602903
11	19	1	0	90	36.1581920903955	36.241610738255	14	0.466697783954442	2	5	4	NaN	1	5	0.0440279895567065	1	1	NaN	452	8	11	2	121	221	321	NaN	521	0.162914569256827	1	1	NaN	1712000.9996327	NaN	1712001.9830583	1712002.49959673
11	19	1	0	90	36.1581920903955	36.241610738255	18	0.600040007941425	2	5	2	NaN	1	4	0.0440279895567065	1	1	NaN	453	8	12	2	121	221	321	NaN	521	0.295175621751696	1	1	NaN	1712003.4831086	NaN	1712004.4666526	1712004.98318338
11	19	1	0	90	36.1581920903955	36.241610738255	6	0.200013335980475	2	4	4	NaN	1	5	0.0440279895567065	1	1	NaN	454	8	13	2	121	221	321	NaN	521	0.198312369175255	1	1	NaN	1712006.1000512	NaN	1712007.0835636	1712007.60009633
11	19	1	0	90	36.1581920903955	36.241610738255	15	0.500033339951187	2	3	2	NaN	1	3	0.0440279895567065	1	1	NaN	455	8	14	2	121	221	321	NaN	521	0.217762816697359	1	1	NaN	1712008.6171442	NaN	1712009.6005431	1712010.11701168
11	19	1	0	90	36.1581920903955	36.241610738255	18	0.600040007941425	2	6	4	NaN	1	3	0.0440279895567065	1	1	NaN	456	8	15	2	121	221	321	NaN	521	0.163158269366249	1	1	NaN	1712011.1673429	NaN	1712012.1507311	1712012.66727193
11	19	1	0	90	36.1581920903955	36.241610738255	0	0	1	5	2	NaN	1	3	0.0440279895567065	1	1	NaN	457	8	16	2	111	211	311	NaN	511	0.0636008742731065	1	1	NaN	1712013.6509223	NaN	1712014.634392	1712015.15085183
