subjno	age	gender	isPractice	viewdist	CmToPixX	CmToPixY	SOA_frm	SOA_time	targNum	targID	targExample	targRace	targGender	firstTargPos	contrast	familiarity	curr_staircase	iStair	TrialNum	BlockNum	blktrl	sessionNum	TC_FIXATION	TC_RSVP_START	TC_RSVP_END	TC_BLANK	TC_RESPONSE_ONSET	RT2afc	resp_2afc	acc	RSVPOnsetVBL	RSVPOnsetTime	RSVPOffsetVBL	RSVPOffsetTime	startrt_2afc
103	19	0	0	90	36.1581920903955	36.241610738255	11	0.366692128125578	2	10	2	NaN	2	4	0.135790103959126	1	1	NaN	1	1	1	2	121	221	321	NaN	521	0.637961827218533	2	1	NaN	3625645.3569827	NaN	3625646.3403055	3625646.87340127
103	19	0	0	90	36.1581920903955	36.241610738255	25	0.833391200285405	2	12	4	NaN	2	5	0.135790103959126	1	1	NaN	2	1	2	2	121	221	321	NaN	521	1.08621537452564	2	1	NaN	3625651.5242445	NaN	3625652.5075342	3625653.04068103
103	19	0	0	90	36.1581920903955	36.241610738255	21	0.70004860823974	2	11	3	NaN	2	4	0.135790103959126	1	1	NaN	3	1	3	2	121	221	321	NaN	521	1.0612502945587	2	1	NaN	3625654.9577288	NaN	3625655.9410818	3625656.45767701
103	19	0	0	90	36.1581920903955	36.241610738255	19	0.633377312216908	2	1	6	NaN	1	5	0.135790103959126	1	1	NaN	4	1	4	2	121	221	321	NaN	521	0.880151422228664	1	1	NaN	3625659.0747935	NaN	3625660.0581927	3625660.57473448
103	19	0	0	90	36.1581920903955	36.241610738255	12	0.400027776136994	2	11	5	NaN	2	3	0.135790103959126	1	1	NaN	5	1	5	2	121	221	321	NaN	521	0.319778721779585	2	1	NaN	3625662.2750965	NaN	3625663.25849	3625663.77505408
103	19	0	0	90	36.1581920903955	36.241610738255	19	0.633377312216908	2	10	6	NaN	2	5	0.135790103959126	1	1	NaN	6	1	6	2	121	221	321	NaN	521	0.565780869219452	2	1	NaN	3625664.9253613	NaN	3625665.9087427	3625666.42531253
103	19	0	0	90	36.1581920903955	36.241610738255	22	0.733384256251156	2	10	2	NaN	2	5	0.135790103959126	1	1	NaN	7	1	7	2	121	221	321	NaN	521	0.673792369663715	2	1	NaN	3625667.8088563	NaN	3625668.7923771	3625669.30892603
103	19	0	0	90	36.1581920903955	36.241610738255	0	0	1	11	5	NaN	2	5	0.135790103959126	1	1	NaN	8	1	8	2	111	211	311	NaN	511	0.569871622137725	2	1	NaN	3625670.8093894	NaN	3625671.7926589	3625672.30923468
103	19	0	0	90	36.1581920903955	36.241610738255	10	0.333356480114162	2	10	4	NaN	2	5	0.135790103959126	1	1	NaN	9	1	9	2	121	221	321	NaN	521	0.317291817162186	2	1	NaN	3625673.7095616	NaN	3625674.6930168	3625675.20951068
103	19	0	0	90	36.1581920903955	36.241610738255	10	0.333356480114162	2	11	3	NaN	2	4	0.135790103959126	1	1	NaN	10	1	10	2	121	221	321	NaN	521	0.683684117626399	2	1	NaN	3625676.3431492	NaN	3625677.326546	3625677.84311028
103	19	0	0	90	36.1581920903955	36.241610738255	14	0.466699072159827	2	3	4	NaN	1	4	0.135790103959126	1	1	NaN	11	1	11	2	121	221	321	NaN	521	0.747709722258151	1	1	NaN	3625679.3434539	NaN	3625680.3268471	3625680.84340348
103	19	0	0	90	36.1581920903955	36.241610738255	7	0.233349536079913	2	9	3	NaN	2	5	0.135790103959126	1	1	NaN	12	1	12	2	121	221	321	NaN	521	0.44065906945616	2	1	NaN	3625682.4104171	NaN	3625683.3938484	3625683.91036073
103	19	0	0	90	36.1581920903955	36.241610738255	10	0.333356480114162	2	6	2	NaN	1	3	0.135790103959126	1	1	NaN	13	1	13	2	121	221	321	NaN	521	0.945650422479957	1	1	NaN	3625685.177237	NaN	3625686.1607445	3625686.67730548
103	19	0	0	90	36.1581920903955	36.241610738255	13	0.433363424148411	2	5	3	NaN	1	5	0.135790103959126	1	1	NaN	14	1	14	2	121	221	321	NaN	521	0.318469869438559	1	1	NaN	3625688.4442196	NaN	3625689.4277269	3625689.94429353
103	19	0	0	90	36.1581920903955	36.241610738255	12	0.400027776136994	2	5	6	NaN	1	4	0.135790103959126	1	1	NaN	15	1	15	2	121	221	321	NaN	521	1.00830022757873	1	1	NaN	3625691.3946036	NaN	3625692.3780427	3625692.89458977
103	19	0	0	90	36.1581920903955	36.241610738255	21	0.70004860823974	2	7	6	NaN	2	3	0.135790103959126	1	1	NaN	16	1	16	2	121	221	321	NaN	521	1.57901086937636	2	1	NaN	3625694.7282916	NaN	3625695.711655	3625696.22825013
103	19	0	0	90	36.1581920903955	36.241610738255	13	0.433363424148411	2	8	2	NaN	2	3	0.135790103959126	1	1	NaN	17	1	17	2	121	221	321	NaN	521	0.92615516949445	2	1	NaN	3625698.6286752	NaN	3625699.6120875	3625700.12862093
103	19	0	0	90	36.1581920903955	36.241610738255	23	0.766719904262573	2	9	5	NaN	2	4	0.135790103959126	1	1	NaN	18	1	18	2	121	221	321	NaN	521	0.571951122488827	2	1	NaN	3625701.8790287	NaN	3625702.8623757	3625703.37894338
103	19	0	0	90	36.1581920903955	36.241610738255	13	0.433363424148411	2	3	1	NaN	1	4	0.135790103959126	1	1	NaN	19	1	19	2	121	221	321	NaN	521	0.816691369283944	1	1	NaN	3625704.7626423	NaN	3625705.7460408	3625706.26256573
103	19	0	0	90	36.1581920903955	36.241610738255	9	0.300020832102746	2	5	2	NaN	1	4	0.135790103959126	1	1	NaN	20	1	20	2	121	221	321	NaN	521	1.02648542216048	1	1	NaN	3625707.8961589	NaN	3625708.8796775	3625709.39620688
103	19	0	0	90	36.1581920903955	36.241610738255	6	0.200013888068497	2	8	6	NaN	2	3	0.135790103959126	1	1	NaN	21	1	21	2	121	221	321	NaN	521	0.676162494812161	2	1	NaN	3625711.2465864	NaN	3625712.2299779	3625712.74654751
103	19	0	0	90	36.1581920903955	36.241610738255	21	0.70004860823974	2	5	6	NaN	1	4	0.135790103959126	1	1	NaN	22	1	22	2	121	221	321	NaN	521	0.557072527240962	1	1	NaN	3625714.2302118	NaN	3625715.213605	3625715.73016437
103	19	0	0	90	36.1581920903955	36.241610738255	25	0.833391200285405	2	9	4	NaN	2	4	0.135790103959126	1	1	NaN	23	1	23	2	121	221	321	NaN	521	1.00110432226211	2	1	NaN	3625717.1136651	NaN	3625718.0972475	3625718.61377388
103	19	0	0	90	36.1581920903955	36.241610738255	8	0.26668518409133	2	9	1	NaN	2	5	0.135790103959126	1	1	NaN	24	1	24	2	121	221	321	NaN	521	0.844252421986312	2	1	NaN	3625720.4308413	NaN	3625721.414211	3625721.93077428
103	19	0	0	90	36.1581920903955	36.241610738255	21	0.70004860823974	2	12	1	NaN	2	5	0.135790103959126	1	1	NaN	25	1	25	2	121	221	321	NaN	521	1.36536492733285	2	1	NaN	3625723.5978097	NaN	3625724.5811445	3625725.09774437
103	19	0	0	90	36.1581920903955	36.241610738255	13	0.433363424148411	2	11	2	NaN	2	4	0.135790103959126	1	1	NaN	26	1	26	2	121	221	321	NaN	521	0.729505269788206	2	1	NaN	3625727.2814936	NaN	3625728.2648911	3625728.78143643
103	19	0	0	90	36.1581920903955	36.241610738255	6	0.200013888068497	2	2	2	NaN	1	5	0.135790103959126	1	1	NaN	27	1	27	2	121	221	321	NaN	521	0.47129406966269	1	1	NaN	3625730.3318089	NaN	3625731.3151941	3625731.83173243
103	19	0	0	90	36.1581920903955	36.241610738255	10	0.333356480114162	2	7	2	NaN	2	4	0.135790103959126	1	1	NaN	28	1	28	2	121	221	321	NaN	521	0.839947022497654	2	1	NaN	3625733.1152802	NaN	3625734.0987793	3625734.61535308
103	19	0	0	90	36.1581920903955	36.241610738255	18	0.600041664205492	2	11	5	NaN	2	5	0.135790103959126	1	1	NaN	29	1	29	2	121	221	321	NaN	521	0.736626721918583	2	1	NaN	3625736.2823782	NaN	3625737.2658245	3625737.78232478
103	19	0	0	90	36.1581920903955	36.241610738255	18	0.600041664205492	2	6	4	NaN	1	5	0.135790103959126	1	1	NaN	30	1	30	2	121	221	321	NaN	521	0.358278669416904	1	1	NaN	3625739.332679	NaN	3625740.3160699	3625740.83262143
103	19	0	0	90	36.1581920903955	36.241610738255	24	0.800055552273989	2	11	6	NaN	2	3	0.135790103959126	1	1	NaN	31	1	31	2	121	221	321	NaN	521	0.768378621898592	2	1	NaN	3625742.2828392	NaN	3625743.2664263	3625743.78291098
103	19	0	0	90	36.1581920903955	36.241610738255	11	0.366692128125578	2	5	2	NaN	1	4	0.135790103959126	1	1	NaN	32	1	32	2	121	221	321	NaN	521	0.547818969469517	1	1	NaN	3625745.383276	NaN	3625746.3666512	3625746.88321343
103	19	0	0	90	36.1581920903955	36.241610738255	22	0.733384256251156	2	10	5	NaN	2	3	0.135790103959126	1	1	NaN	33	1	33	2	121	221	321	NaN	521	0.800884869415313	2	1	NaN	3625748.2502076	NaN	3625749.2336218	3625749.75016253
103	19	0	0	90	36.1581920903955	36.241610738255	11	0.366692128125578	2	6	4	NaN	1	4	0.135790103959126	1	1	NaN	34	1	34	2	121	221	321	NaN	521	0.571738442406058	1	1	NaN	3625751.3672107	NaN	3625752.3505787	3625752.86714796
103	19	0	0	90	36.1581920903955	36.241610738255	17	0.566706016194075	2	6	5	NaN	1	5	0.135790103959126	1	1	NaN	35	1	35	2	121	221	321	NaN	521	0.535807417239994	1	1	NaN	3625754.2674689	NaN	3625755.2508583	3625755.76742408
103	19	0	0	90	36.1581920903955	36.241610738255	6	0.200013888068497	2	8	2	NaN	2	5	0.135790103959126	1	1	NaN	36	1	36	2	121	221	321	NaN	521	0.364874664694071	2	1	NaN	3625757.1344374	NaN	3625758.1178242	3625758.63437314
103	19	0	0	90	36.1581920903955	36.241610738255	6	0.200013888068497	2	7	2	NaN	2	5	0.135790103959126	1	1	NaN	37	1	37	2	121	221	321	NaN	521	0.561240422073752	2	1	NaN	3625759.8180455	NaN	3625760.801426	3625761.31796928
103	19	0	0	90	36.1581920903955	36.241610738255	16	0.533370368182659	2	5	6	NaN	1	3	0.135790103959126	1	1	NaN	38	1	38	2	121	221	321	NaN	521	1.02320441743359	1	1	NaN	3625763.0516706	NaN	3625764.0350627	3625764.55161648
103	19	0	0	90	36.1581920903955	36.241610738255	11	0.366692128125578	2	6	6	NaN	1	5	0.135790103959126	1	1	NaN	39	1	39	2	121	221	321	NaN	521	0.226060169748962	1	1	NaN	3625766.3853265	NaN	3625767.3686384	3625767.88527493
103	19	0	0	90	36.1581920903955	36.241610738255	17	0.566706016194075	2	2	2	NaN	1	4	0.135790103959126	1	1	NaN	40	1	40	2	121	221	321	NaN	521	0.667990422341973	1	1	NaN	3625768.9189195	NaN	3625769.902309	3625770.41886588
103	19	0	0	90	36.1581920903955	36.241610738255	13	0.433363424148411	2	12	1	NaN	2	5	0.135790103959126	1	1	NaN	41	1	41	2	121	221	321	NaN	521	0.26072198478505	2	1	NaN	3625771.902536	NaN	3625772.8859444	3625773.40249942
103	19	0	0	90	36.1581920903955	36.241610738255	13	0.433363424148411	2	6	5	NaN	1	4	0.135790103959126	1	1	NaN	42	1	42	2	121	221	321	NaN	521	0.213314322289079	1	1	NaN	3625774.486125	NaN	3625775.4695215	3625775.98608268
103	19	0	0	90	36.1581920903955	36.241610738255	9	0.300020832102746	2	4	2	NaN	1	4	0.135790103959126	1	1	NaN	43	1	43	2	121	221	321	NaN	521	0.47184032201767	2	0	NaN	3625777.0030509	NaN	3625777.9864723	3625778.50299098
103	19	0	0	90	36.1581920903955	36.241610738255	10	0.333356480114162	2	2	4	NaN	1	4	0.135790103959126	1	1	NaN	44	1	44	2	121	221	321	NaN	521	0.0563248693943024	1	1	NaN	3625779.7867518	NaN	3625780.769945	3625781.28659293
103	19	0	0	90	36.1581920903955	36.241610738255	24	0.800055552273989	2	2	3	NaN	1	4	0.135790103959126	1	1	NaN	45	1	45	2	121	221	321	NaN	521	0.361748221796006	1	1	NaN	3625782.1535523	NaN	3625783.1369476	3625783.65349038
103	19	0	0	90	36.1581920903955	36.241610738255	9	0.300020832102746	2	3	1	NaN	1	3	0.135790103959126	1	1	NaN	46	1	46	2	121	221	321	NaN	521	0.198433569166809	1	1	NaN	3625784.8203929	NaN	3625785.8038808	3625786.32041703
103	19	0	0	90	36.1581920903955	36.241610738255	25	0.833391200285405	2	1	5	NaN	1	4	0.135790103959126	1	1	NaN	47	1	47	2	121	221	321	NaN	521	0.233708769548684	1	1	NaN	3625787.3373942	NaN	3625788.3207756	3625788.83733603
103	19	0	0	90	36.1581920903955	36.241610738255	6	0.200013888068497	2	6	5	NaN	1	3	0.135790103959126	1	1	NaN	48	1	48	2	121	221	321	NaN	521	0.211701274849474	1	1	NaN	3625789.8875627	NaN	3625790.8710411	3625791.38758773
103	19	0	0	90	36.1581920903955	36.241610738255	21	0.70004860823974	2	10	1	NaN	2	5	0.135790103959126	1	1	NaN	49	1	49	2	121	221	321	NaN	521	0.0104099693708122	2	1	NaN	3625792.4210853	NaN	3625793.4046227	3625793.92116273
103	19	0	0	90	36.1581920903955	36.241610738255	20	0.666712960228324	2	4	4	NaN	1	5	0.135790103959126	1	1	NaN	50	1	50	2	121	221	321	NaN	521	0.312977922149003	1	1	NaN	3625794.7381288	NaN	3625795.7215049	3625796.23806928
103	19	0	0	90	36.1581920903955	36.241610738255	0	0	1	8	1	NaN	2	4	0.135790103959126	1	1	NaN	51	1	51	2	111	211	311	NaN	511	0.263326321728528	2	1	NaN	3625797.3717185	NaN	3625798.3551094	3625798.87166098
103	19	0	0	90	36.1581920903955	36.241610738255	24	0.800055552273989	2	9	1	NaN	2	5	0.135790103959126	1	1	NaN	52	1	52	2	121	221	321	NaN	521	0.280718569643795	2	1	NaN	3625799.9386238	NaN	3625800.9220177	3625801.43857303
103	19	0	0	90	36.1581920903955	36.241610738255	9	0.300020832102746	2	10	5	NaN	2	4	0.135790103959126	1	1	NaN	53	1	53	2	121	221	321	NaN	521	0.320463242940605	2	1	NaN	3625802.5388981	NaN	3625803.5222729	3625804.03883406
103	19	0	0	90	36.1581920903955	36.241610738255	7	0.233349536079913	2	7	1	NaN	2	5	0.135790103959126	1	1	NaN	54	1	54	2	121	221	321	NaN	521	0.238817074336112	2	1	NaN	3625805.1724735	NaN	3625806.1558697	3625806.67243723
103	19	0	0	90	36.1581920903955	36.241610738255	8	0.26668518409133	2	3	2	NaN	1	5	0.135790103959126	1	1	NaN	55	1	55	2	121	221	321	NaN	521	0.312425622250885	1	1	NaN	3625807.7227314	NaN	3625808.7061048	3625809.22267208
103	19	0	0	90	36.1581920903955	36.241610738255	19	0.633377312216908	2	9	2	NaN	2	4	0.135790103959126	1	1	NaN	56	1	56	2	121	221	321	NaN	521	0.262747069820762	2	1	NaN	3625810.3563059	NaN	3625811.3397149	3625811.85627063
103	19	0	0	90	36.1581920903955	36.241610738255	14	0.466699072159827	2	8	6	NaN	2	4	0.135790103959126	1	1	NaN	57	1	57	2	121	221	321	NaN	521	0.0710923220030963	2	1	NaN	3625812.9399287	NaN	3625813.9233053	3625814.43985128
103	19	0	0	90	36.1581920903955	36.241610738255	19	0.633377312216908	2	2	1	NaN	1	4	0.135790103959126	1	1	NaN	58	1	58	2	121	221	321	NaN	521	0.327514969278127	1	1	NaN	3625815.3233534	NaN	3625816.3068652	3625816.82342133
103	19	0	0	90	36.1581920903955	36.241610738255	22	0.733384256251156	2	12	5	NaN	2	4	0.135790103959126	1	1	NaN	59	1	59	2	121	221	321	NaN	521	0.445246627088636	2	1	NaN	3625817.973747	NaN	3625818.9571494	3625819.47367797
103	19	0	0	90	36.1581920903955	36.241610738255	15	0.500034720171243	2	11	4	NaN	2	5	0.135790103959126	1	1	NaN	60	1	60	2	121	221	321	NaN	521	0.935032417066395	2	1	NaN	3625820.7238906	NaN	3625821.7073863	3625822.22395278
103	19	0	0	90	36.1581920903955	36.241610738255	24	0.800055552273989	2	3	3	NaN	1	4	0.135790103959126	1	1	NaN	61	1	61	2	121	221	321	NaN	521	0.269041522406042	1	1	NaN	3625823.9743079	NaN	3625824.9577185	3625825.47427228
103	19	0	0	90	36.1581920903955	36.241610738255	23	0.766719904262573	2	3	2	NaN	1	3	0.135790103959126	1	1	NaN	62	1	62	2	121	221	321	NaN	521	0.277514821849763	1	1	NaN	3625826.5579009	NaN	3625827.5412983	3625828.05785908
103	19	0	0	90	36.1581920903955	36.241610738255	15	0.500034720171243	2	10	1	NaN	2	5	0.135790103959126	1	1	NaN	63	1	63	2	121	221	321	NaN	521	0.8616305696778	2	1	NaN	3625829.1415983	NaN	3625830.1248945	3625830.64144303
103	19	0	0	90	36.1581920903955	36.241610738255	6	0.200013888068497	2	1	4	NaN	1	5	0.135790103959126	1	1	NaN	64	2	1	2	121	221	321	NaN	521	0.724249621853232	1	1	NaN	3625836.158884	NaN	3625837.1422427	3625837.65880558
103	19	0	0	90	36.1581920903955	36.241610738255	24	0.800055552273989	2	8	6	NaN	2	3	0.135790103959126	1	1	NaN	65	2	2	2	121	221	321	NaN	521	0.370011517312378	2	1	NaN	3625841.0092981	NaN	3625841.992713	3625842.50928038
103	19	0	0	90	36.1581920903955	36.241610738255	17	0.566706016194075	2	5	2	NaN	1	4	0.135790103959126	1	1	NaN	66	2	3	2	121	221	321	NaN	521	0.750210169237107	1	1	NaN	3625843.6929402	NaN	3625844.6763297	3625845.19286683
103	19	0	0	90	36.1581920903955	36.241610738255	19	0.633377312216908	2	2	5	NaN	1	3	0.135790103959126	1	1	NaN	67	2	4	2	121	221	321	NaN	521	0.379546064883471	1	1	NaN	3625846.7599092	NaN	3625847.7432861	3625848.25983384
103	19	0	0	90	36.1581920903955	36.241610738255	8	0.26668518409133	2	8	6	NaN	2	3	0.135790103959126	1	1	NaN	68	2	5	2	121	221	321	NaN	521	0.44188592210412	2	1	NaN	3625849.7934129	NaN	3625850.7769172	3625851.29347088
103	19	0	0	90	36.1581920903955	36.241610738255	25	0.833391200285405	2	12	2	NaN	2	3	0.135790103959126	1	1	NaN	69	2	6	2	121	221	321	NaN	521	0.787351869512349	2	1	NaN	3625852.5437882	NaN	3625853.5271931	3625854.04374003
103	19	0	0	90	36.1581920903955	36.241610738255	15	0.500034720171243	2	12	2	NaN	2	5	0.135790103959126	1	1	NaN	70	2	7	2	121	221	321	NaN	521	0.47138794278726	2	1	NaN	3625855.643966	NaN	3625856.6275241	3625857.14405186
103	19	0	0	90	36.1581920903955	36.241610738255	20	0.666712960228324	2	7	1	NaN	2	4	0.135790103959126	1	1	NaN	71	2	8	2	121	221	321	NaN	521	0.621695922221988	2	1	NaN	3625858.8777221	NaN	3625859.8611393	3625860.37769848
103	19	0	0	90	36.1581920903955	36.241610738255	25	0.833391200285405	2	5	5	NaN	1	4	0.135790103959126	1	1	NaN	72	2	9	2	121	221	321	NaN	521	0.588070369325578	1	1	NaN	3625862.1112977	NaN	3625863.0948537	3625863.61134133
103	19	0	0	90	36.1581920903955	36.241610738255	8	0.26668518409133	2	10	3	NaN	2	4	0.135790103959126	1	1	NaN	73	2	10	2	121	221	321	NaN	521	0.127897969447076	2	1	NaN	3625865.0116661	NaN	3625865.9950824	3625866.51162763
103	19	0	0	90	36.1581920903955	36.241610738255	7	0.233349536079913	2	8	3	NaN	2	3	0.135790103959126	1	1	NaN	74	2	11	2	121	221	321	NaN	521	1.11801986955106	2	1	NaN	3625867.4451212	NaN	3625868.4286757	3625868.94519723
103	19	0	0	90	36.1581920903955	36.241610738255	22	0.733384256251156	2	5	4	NaN	1	4	0.135790103959126	1	1	NaN	75	2	12	2	121	221	321	NaN	521	0.263891069684178	1	1	NaN	3625871.1955973	NaN	3625872.1790142	3625872.69556733
103	19	0	0	90	36.1581920903955	36.241610738255	23	0.766719904262573	2	10	4	NaN	2	5	0.135790103959126	1	1	NaN	76	2	13	2	121	221	321	NaN	521	0.543844622094184	2	1	NaN	3625873.7792011	NaN	3625874.7626332	3625875.27915958
103	19	0	0	90	36.1581920903955	36.241610738255	19	0.633377312216908	2	9	3	NaN	2	5	0.135790103959126	1	1	NaN	77	2	14	2	121	221	321	NaN	521	0.716637022327632	2	1	NaN	3625877.062775	NaN	3625878.0462619	3625878.56281608
103	19	0	0	90	36.1581920903955	36.241610738255	15	0.500034720171243	2	6	1	NaN	1	4	0.135790103959126	1	1	NaN	78	2	15	2	121	221	321	NaN	521	0.626783569343388	1	1	NaN	3625880.0964928	NaN	3625881.079882	3625881.59645303
103	19	0	0	90	36.1581920903955	36.241610738255	15	0.500034720171243	2	4	5	NaN	1	3	0.135790103959126	1	1	NaN	79	2	16	2	121	221	321	NaN	521	0.461393469478935	1	1	NaN	3625883.0301173	NaN	3625884.0135162	3625884.53006123
103	19	0	0	90	36.1581920903955	36.241610738255	20	0.666712960228324	2	5	6	NaN	1	3	0.135790103959126	1	1	NaN	80	2	17	2	121	221	321	NaN	521	1.01405942207202	1	1	NaN	3625885.7970472	NaN	3625886.7804513	3625887.29700748
103	19	0	0	90	36.1581920903955	36.241610738255	11	0.366692128125578	2	8	3	NaN	2	4	0.135790103959126	1	1	NaN	81	2	18	2	121	221	321	NaN	521	0.313439717516303	2	1	NaN	3625889.1140682	NaN	3625890.097472	3625890.61400128
103	19	0	0	90	36.1581920903955	36.241610738255	17	0.566706016194075	2	5	5	NaN	1	3	0.135790103959126	1	1	NaN	82	2	19	2	121	221	321	NaN	521	0.780873122159392	1	1	NaN	3625892.2143803	NaN	3625893.1977576	3625893.71430308
103	19	0	0	90	36.1581920903955	36.241610738255	16	0.533370368182659	2	11	6	NaN	2	3	0.135790103959126	1	1	NaN	83	2	20	2	121	221	321	NaN	521	0.256605222355574	2	1	NaN	3625895.314592	NaN	3625896.2980705	3625896.81461298
103	19	0	0	90	36.1581920903955	36.241610738255	7	0.233349536079913	2	3	4	NaN	1	5	0.135790103959126	1	1	NaN	84	2	21	2	121	221	321	NaN	521	0.633628322277218	1	1	NaN	3625897.8815822	NaN	3625898.8649813	3625899.38153018
103	19	0	0	90	36.1581920903955	36.241610738255	20	0.666712960228324	2	9	5	NaN	2	4	0.135790103959126	1	1	NaN	85	2	22	2	121	221	321	NaN	521	0.0241844221018255	2	1	NaN	3625902.6986292	NaN	3625903.6821091	3625904.19866658
103	19	0	0	90	36.1581920903955	36.241610738255	9	0.300020832102746	2	6	3	NaN	1	4	0.135790103959126	1	1	NaN	86	2	23	2	121	221	321	NaN	521	0.250943669583648	1	1	NaN	3625905.0322672	NaN	3625906.0156721	3625906.53222133
103	19	0	0	90	36.1581920903955	36.241610738255	18	0.600041664205492	2	3	6	NaN	1	5	0.135790103959126	1	1	NaN	87	2	24	2	121	221	321	NaN	521	0.292140021920204	1	1	NaN	3625907.5992051	NaN	3625908.58261	3625909.09915328
103	19	0	0	90	36.1581920903955	36.241610738255	25	0.833391200285405	2	4	1	NaN	1	5	0.135790103959126	1	1	NaN	88	2	25	2	121	221	321	NaN	521	0.36401089001447	1	1	NaN	3625910.1994667	NaN	3625911.1828563	3625911.69939971
103	19	0	0	90	36.1581920903955	36.241610738255	11	0.366692128125578	2	4	6	NaN	1	3	0.135790103959126	1	1	NaN	89	2	26	2	121	221	321	NaN	521	0.0801383219659328	1	1	NaN	3625912.8830472	NaN	3625913.8664483	3625914.38300618
103	19	0	0	90	36.1581920903955	36.241610738255	6	0.200013888068497	2	10	4	NaN	2	4	0.135790103959126	1	1	NaN	90	2	27	2	121	221	321	NaN	521	0.271806369535625	2	1	NaN	3625915.2832955	NaN	3625916.2666836	3625916.78323203
103	19	0	0	90	36.1581920903955	36.241610738255	7	0.233349536079913	2	3	2	NaN	1	3	0.135790103959126	1	1	NaN	91	2	28	2	121	221	321	NaN	521	1.16036626929417	2	0	NaN	3625917.8668937	NaN	3625918.850254	3625919.36681633
103	19	0	0	90	36.1581920903955	36.241610738255	8	0.26668518409133	2	1	4	NaN	1	4	0.135790103959126	1	1	NaN	92	2	29	2	121	221	321	NaN	521	0.260891017504036	1	1	NaN	3625921.3505972	NaN	3625922.3339384	3625922.85049538
103	19	0	0	90	36.1581920903955	36.241610738255	25	0.833391200285405	2	6	2	NaN	1	4	0.135790103959126	1	1	NaN	93	2	30	2	121	221	321	NaN	521	0.437039421871305	1	1	NaN	3625923.9341364	NaN	3625924.9175329	3625925.43408228
103	19	0	0	90	36.1581920903955	36.241610738255	25	0.833391200285405	2	1	6	NaN	1	4	0.135790103959126	1	1	NaN	94	2	31	2	121	221	321	NaN	521	0.254792622290552	1	1	NaN	3625926.6843974	NaN	3625927.6678004	3625928.18436188
103	19	0	0	90	36.1581920903955	36.241610738255	8	0.26668518409133	2	7	1	NaN	2	5	0.135790103959126	1	1	NaN	95	2	32	2	121	221	321	NaN	521	0.816255469806492	2	1	NaN	3625929.2513366	NaN	3625930.2347108	3625930.75126783
103	19	0	0	90	36.1581920903955	36.241610738255	9	0.300020832102746	2	2	1	NaN	1	5	0.135790103959126	1	1	NaN	96	2	33	2	121	221	321	NaN	521	0.130334469489753	1	1	NaN	3625932.3849869	NaN	3625933.3683656	3625933.88490703
103	19	0	0	90	36.1581920903955	36.241610738255	23	0.766719904262573	2	4	4	NaN	1	3	0.135790103959126	1	1	NaN	97	2	34	2	121	221	321	NaN	521	0.256910469383001	1	1	NaN	3625934.8185324	NaN	3625935.801935	3625936.31848273
103	19	0	0	90	36.1581920903955	36.241610738255	18	0.600041664205492	2	7	6	NaN	2	5	0.135790103959126	1	1	NaN	98	2	35	2	121	221	321	NaN	521	0.073909969534725	2	1	NaN	3625937.3853999	NaN	3625938.3688693	3625938.88540293
103	19	0	0	90	36.1581920903955	36.241610738255	11	0.366692128125578	2	11	2	NaN	2	3	0.135790103959126	1	1	NaN	99	2	36	2	121	221	321	NaN	521	0.289502622094005	2	1	NaN	3625939.7856938	NaN	3625940.7690743	3625941.28564408
103	19	0	0	90	36.1581920903955	36.241610738255	10	0.333356480114162	2	8	1	NaN	2	3	0.135790103959126	1	1	NaN	100	2	37	2	121	221	321	NaN	521	0.010406922083348	2	1	NaN	3625942.3859829	NaN	3625943.3693408	3625943.88589218
103	19	0	0	90	36.1581920903955	36.241610738255	12	0.400027776136994	2	1	2	NaN	1	3	0.135790103959126	1	1	NaN	101	2	38	2	121	221	321	NaN	521	1.19645996950567	1	1	NaN	3625944.7027219	NaN	3625945.6862399	3625946.20278583
103	19	0	0	90	36.1581920903955	36.241610738255	25	0.833391200285405	2	11	4	NaN	2	4	0.135790103959126	1	1	NaN	102	2	39	2	121	221	321	NaN	521	0.487767469603568	2	1	NaN	3625948.2031904	NaN	3625949.1865827	3625949.70313143
103	19	0	0	90	36.1581920903955	36.241610738255	16	0.533370368182659	2	1	5	NaN	1	4	0.135790103959126	1	1	NaN	103	2	40	2	121	221	321	NaN	521	1.31214536912739	1	1	NaN	3625951.0034202	NaN	3625951.986855	3625952.50340253
103	19	0	0	90	36.1581920903955	36.241610738255	25	0.833391200285405	2	2	2	NaN	1	3	0.135790103959126	1	1	NaN	104	2	41	2	121	221	321	NaN	521	0.132407922297716	1	1	NaN	3625954.8865064	NaN	3625955.8704692	3625956.38712598
103	19	0	0	90	36.1581920903955	36.241610738255	25	0.833391200285405	2	10	5	NaN	2	5	0.135790103959126	1	1	NaN	105	2	42	2	121	221	321	NaN	521	0.218182521872222	2	1	NaN	3625957.3374331	NaN	3625958.3208768	3625958.83736888
103	19	0	0	90	36.1581920903955	36.241610738255	23	0.766719904262573	2	10	4	NaN	2	5	0.135790103959126	1	1	NaN	106	2	43	2	121	221	321	NaN	521	0.0104070696979761	2	1	NaN	3625960.0043504	NaN	3625960.9877288	3625961.50430683
103	19	0	0	90	36.1581920903955	36.241610738255	16	0.533370368182659	2	6	1	NaN	1	4	0.135790103959126	1	1	NaN	107	2	44	2	121	221	321	NaN	521	0.307888822164387	1	1	NaN	3625962.4712271	NaN	3625963.4546446	3625963.97120768
103	19	0	0	90	36.1581920903955	36.241610738255	13	0.433363424148411	2	8	3	NaN	2	5	0.135790103959126	1	1	NaN	108	2	45	2	121	221	321	NaN	521	0.294424922205508	2	1	NaN	3625965.6048843	NaN	3625966.5883574	3625967.10484688
103	19	0	0	90	36.1581920903955	36.241610738255	8	0.26668518409133	2	9	2	NaN	2	5	0.135790103959126	1	1	NaN	109	2	46	2	121	221	321	NaN	521	0.141443864442408	1	0	NaN	3625968.2218433	NaN	3625969.2052073	3625969.72176234
103	19	0	0	90	36.1581920903955	36.241610738255	0	0	1	6	3	NaN	1	4	0.135790103959126	1	1	NaN	110	2	47	2	111	211	311	NaN	511	0.39447582187131	1	1	NaN	3625970.6887284	NaN	3625971.6721126	3625972.18867298
103	19	0	0	90	36.1581920903955	36.241610738255	18	0.600041664205492	2	11	4	NaN	2	3	0.135790103959126	1	1	NaN	111	2	48	2	121	221	321	NaN	521	0.422385590150952	2	1	NaN	3625973.3889894	NaN	3625974.3723833	3625974.88894101
103	19	0	0	90	36.1581920903955	36.241610738255	14	0.466699072159827	2	8	5	NaN	2	3	0.135790103959126	1	1	NaN	112	2	49	2	121	221	321	NaN	521	0.12062712199986	2	1	NaN	3625976.1226146	NaN	3625977.1060062	3625977.62253938
103	19	0	0	90	36.1581920903955	36.241610738255	12	0.400027776136994	2	6	1	NaN	1	4	0.135790103959126	1	1	NaN	113	2	50	2	121	221	321	NaN	521	1.27133231749758	1	1	NaN	3625978.5561639	NaN	3625979.5396077	3625980.05612038
103	19	0	0	90	36.1581920903955	36.241610738255	16	0.533370368182659	2	10	6	NaN	2	5	0.135790103959126	1	1	NaN	114	2	51	2	121	221	321	NaN	521	0.161777917295694	2	1	NaN	3625983.289934	NaN	3625984.2733874	3625984.78990688
103	19	0	0	90	36.1581920903955	36.241610738255	6	0.200013888068497	2	5	4	NaN	1	4	0.135790103959126	1	1	NaN	115	2	52	2	121	221	321	NaN	521	0.0104252174496651	1	1	NaN	3625986.1735865	NaN	3625987.1569832	3625987.67352058
103	19	0	0	90	36.1581920903955	36.241610738255	13	0.433363424148411	2	6	3	NaN	1	4	0.135790103959126	1	1	NaN	116	2	53	2	121	221	321	NaN	521	0.248762922361493	1	1	NaN	3625988.4905157	NaN	3625989.473883	3625989.99042308
103	19	0	0	90	36.1581920903955	36.241610738255	23	0.766719904262573	2	7	3	NaN	2	5	0.135790103959126	1	1	NaN	117	2	54	2	121	221	321	NaN	521	0.397539469413459	2	1	NaN	3625991.3740637	NaN	3625992.3574874	3625992.87403703
103	19	0	0	90	36.1581920903955	36.241610738255	20	0.666712960228324	2	11	3	NaN	2	4	0.135790103959126	1	1	NaN	118	2	55	2	121	221	321	NaN	521	0.264503822196275	2	1	NaN	3625994.0910174	NaN	3625995.0744216	3625995.59097048
103	19	0	0	90	36.1581920903955	36.241610738255	25	0.833391200285405	2	8	4	NaN	2	3	0.135790103959126	1	1	NaN	119	2	56	2	121	221	321	NaN	521	0.665195064619184	1	0	NaN	3625996.6746095	NaN	3625997.6580114	3625998.17455214
103	19	0	0	90	36.1581920903955	36.241610738255	8	0.26668518409133	2	5	1	NaN	1	4	0.135790103959126	1	1	NaN	120	2	57	2	121	221	321	NaN	521	0.801599474623799	1	1	NaN	3625999.6415716	NaN	3626000.6249467	3626001.14152293
103	19	0	0	90	36.1581920903955	36.241610738255	7	0.233349536079913	2	6	6	NaN	1	5	0.135790103959126	1	1	NaN	121	2	58	2	121	221	321	NaN	521	0.0103979692794383	1	1	NaN	3626002.7585503	NaN	3626003.7419415	3626004.25848433
103	19	0	0	90	36.1581920903955	36.241610738255	11	0.366692128125578	2	12	2	NaN	2	3	0.135790103959126	1	1	NaN	122	2	59	2	121	221	321	NaN	521	0.352161137387156	2	1	NaN	3626005.0754265	NaN	3626006.0588632	3626006.57539246
103	19	0	0	90	36.1581920903955	36.241610738255	0	0	1	4	3	NaN	1	4	0.135790103959126	1	1	NaN	123	2	60	2	111	211	311	NaN	511	0.668936422094703	1	1	NaN	3626007.7423793	NaN	3626008.7257607	3626009.24231428
103	19	0	0	90	36.1581920903955	36.241610738255	21	0.70004860823974	2	4	2	NaN	1	4	0.135790103959126	1	1	NaN	124	2	61	2	121	221	321	NaN	521	0.221708422061056	1	1	NaN	3626010.7260059	NaN	3626011.7093664	3626012.22594118
103	19	0	0	90	36.1581920903955	36.241610738255	17	0.566706016194075	2	9	4	NaN	2	3	0.135790103959126	1	1	NaN	125	2	62	2	121	221	321	NaN	521	2.3918352695182	2	1	NaN	3626013.2594367	NaN	3626014.242964	3626014.75952073
103	19	0	0	90	36.1581920903955	36.241610738255	11	0.366692128125578	2	11	1	NaN	2	5	0.135790103959126	1	1	NaN	126	2	63	2	121	221	321	NaN	521	0.131432017311454	2	1	NaN	3626017.9600269	NaN	3626018.943428	3626019.45998038
103	19	0	0	90	36.1581920903955	36.241610738255	21	0.70004860823974	2	1	4	NaN	1	3	0.135790103959126	1	1	NaN	127	3	1	2	121	221	321	NaN	521	0.44089281745255	1	1	NaN	3626026.0105122	NaN	3626026.9942146	3626027.51076648
103	19	0	0	90	36.1581920903955	36.241610738255	9	0.300020832102746	2	12	3	NaN	2	5	0.135790103959126	1	1	NaN	128	3	2	2	121	221	321	NaN	521	0.311474922113121	2	1	NaN	3626029.2277796	NaN	3626030.2112031	3626030.72777008
103	19	0	0	90	36.1581920903955	36.241610738255	22	0.733384256251156	2	11	4	NaN	2	4	0.135790103959126	1	1	NaN	129	3	3	2	121	221	321	NaN	521	0.267317074351013	2	1	NaN	3626032.7281215	NaN	3626033.7115596	3626034.22809993
103	19	0	0	90	36.1581920903955	36.241610738255	11	0.366692128125578	2	5	2	NaN	1	3	0.135790103959126	1	1	NaN	130	3	4	2	121	221	321	NaN	521	0.0104366173036397	1	1	NaN	3626035.3117058	NaN	3626036.2951408	3626036.81169028
103	19	0	0	90	36.1581920903955	36.241610738255	20	0.666712960228324	2	2	1	NaN	1	5	0.135790103959126	1	1	NaN	131	3	5	2	121	221	321	NaN	521	0.391081827227026	1	1	NaN	3626037.6286973	NaN	3626038.6120172	3626039.12858897
103	19	0	0	90	36.1581920903955	36.241610738255	16	0.533370368182659	2	3	6	NaN	1	5	0.135790103959126	1	1	NaN	132	3	6	2	121	221	321	NaN	521	0.234826765023172	1	1	NaN	3626040.3287746	NaN	3626041.3122806	3626041.82884564
103	19	0	0	90	36.1581920903955	36.241610738255	16	0.533370368182659	2	1	5	NaN	1	4	0.135790103959126	1	1	NaN	133	3	7	2	121	221	321	NaN	521	0.251526769716293	1	1	NaN	3626043.4957326	NaN	3626044.4793338	3626044.99581783
103	19	0	0	90	36.1581920903955	36.241610738255	16	0.533370368182659	2	4	6	NaN	1	3	0.135790103959126	1	1	NaN	134	3	8	2	121	221	321	NaN	521	0.340629669371992	1	1	NaN	3626046.062815	NaN	3626047.0461972	3626047.56274393
103	19	0	0	90	36.1581920903955	36.241610738255	14	0.466699072159827	2	10	2	NaN	2	4	0.135790103959126	1	1	NaN	135	3	9	2	121	221	321	NaN	521	0.218655664473772	2	1	NaN	3626048.7129269	NaN	3626049.6964702	3626050.21299774
103	19	0	0	90	36.1581920903955	36.241610738255	9	0.300020832102746	2	12	5	NaN	2	4	0.135790103959126	1	1	NaN	136	3	10	2	121	221	321	NaN	521	0.276769322343171	2	1	NaN	3626051.2466371	NaN	3626052.2300269	3626052.74658918
103	19	0	0	90	36.1581920903955	36.241610738255	21	0.70004860823974	2	3	4	NaN	1	4	0.135790103959126	1	1	NaN	137	3	11	2	121	221	321	NaN	521	0.0103808273561299	1	1	NaN	3626053.8468784	NaN	3626054.8302852	3626055.34684457
103	19	0	0	90	36.1581920903955	36.241610738255	15	0.500034720171243	2	1	1	NaN	1	5	0.135790103959126	1	1	NaN	138	3	12	2	121	221	321	NaN	521	0.0103127374313772	1	1	NaN	3626057.1471972	NaN	3626058.1306129	3626058.64716076
103	19	0	0	90	36.1581920903955	36.241610738255	18	0.600041664205492	2	1	5	NaN	1	4	0.135790103959126	1	1	NaN	139	3	13	2	121	221	321	NaN	521	0.0192686221562326	1	1	NaN	3626059.4641147	NaN	3626060.447497	3626060.96406288
103	19	0	0	90	36.1581920903955	36.241610738255	13	0.433363424148411	2	7	6	NaN	2	3	0.135790103959126	1	1	NaN	140	3	14	2	121	221	321	NaN	521	1.14205192215741	2	1	NaN	3626061.7976583	NaN	3626062.7810631	3626063.29762598
103	19	0	0	90	36.1581920903955	36.241610738255	20	0.666712960228324	2	8	6	NaN	2	4	0.135790103959126	1	1	NaN	141	3	15	2	121	221	321	NaN	521	0.331256622448564	2	1	NaN	3626065.2480462	NaN	3626066.2314097	3626066.74795698
103	19	0	0	90	36.1581920903955	36.241610738255	19	0.633377312216908	2	5	4	NaN	1	4	0.135790103959126	1	1	NaN	142	3	16	2	121	221	321	NaN	521	2.08118646964431	1	1	NaN	3626067.8982837	NaN	3626068.8816706	3626069.39821593
103	19	0	0	90	36.1581920903955	36.241610738255	10	0.333356480114162	2	7	4	NaN	2	3	0.135790103959126	1	1	NaN	143	3	17	2	121	221	321	NaN	521	0.287097974680364	2	1	NaN	3626072.748752	NaN	3626073.7321433	3626074.24870263
103	19	0	0	90	36.1581920903955	36.241610738255	20	0.666712960228324	2	11	4	NaN	2	5	0.135790103959126	1	1	NaN	144	3	18	2	121	221	321	NaN	521	0.0104044694453478	2	1	NaN	3626075.3488711	NaN	3626076.3323986	3626076.84894473
103	19	0	0	90	36.1581920903955	36.241610738255	11	0.366692128125578	2	3	5	NaN	1	5	0.135790103959126	1	1	NaN	145	3	19	2	121	221	321	NaN	521	0.0104051223024726	1	1	NaN	3626077.6824263	NaN	3626078.6659728	3626079.18251738
103	19	0	0	90	36.1581920903955	36.241610738255	7	0.233349536079913	2	8	3	NaN	2	4	0.135790103959126	1	1	NaN	146	3	20	2	121	221	321	NaN	521	1.02829826483503	2	1	NaN	3626079.9994834	NaN	3626080.9828643	3626081.49940684
103	19	0	0	90	36.1581920903955	36.241610738255	9	0.300020832102746	2	1	1	NaN	1	3	0.135790103959126	1	1	NaN	147	3	21	2	121	221	321	NaN	521	0.317817769479007	1	1	NaN	3626083.3497965	NaN	3626084.3331675	3626084.84973313
103	19	0	0	90	36.1581920903955	36.241610738255	8	0.26668518409133	2	2	4	NaN	1	4	0.135790103959126	1	1	NaN	148	3	22	2	121	221	321	NaN	521	0.276351822074503	1	1	NaN	3626085.9834032	NaN	3626086.9667686	3626087.48333368
103	19	0	0	90	36.1581920903955	36.241610738255	8	0.26668518409133	2	3	3	NaN	1	3	0.135790103959126	1	1	NaN	149	3	23	2	121	221	321	NaN	521	0.428510132245719	1	1	NaN	3626088.566958	NaN	3626089.5503746	3626090.06691397
103	19	0	0	90	36.1581920903955	36.241610738255	23	0.766719904262573	2	12	1	NaN	2	5	0.135790103959126	1	1	NaN	150	3	24	2	121	221	321	NaN	521	0.31928042229265	2	1	NaN	3626091.3005453	NaN	3626092.2839613	3626092.80052448
103	19	0	0	90	36.1581920903955	36.241610738255	17	0.566706016194075	2	2	3	NaN	1	5	0.135790103959126	1	1	NaN	151	3	25	2	121	221	321	NaN	521	0.892224722076207	1	1	NaN	3626095.3674877	NaN	3626096.351028	3626096.86757688
103	19	0	0	90	36.1581920903955	36.241610738255	17	0.566706016194075	2	4	1	NaN	1	4	0.135790103959126	1	1	NaN	152	3	26	2	121	221	321	NaN	521	0.363873269408941	1	1	NaN	3626098.5679768	NaN	3626099.5513421	3626100.06789193
103	19	0	0	90	36.1581920903955	36.241610738255	19	0.633377312216908	2	11	2	NaN	2	4	0.135790103959126	1	1	NaN	153	3	27	2	121	221	321	NaN	521	0.272265269421041	2	1	NaN	3626101.2515626	NaN	3626102.2349565	3626102.75148743
103	19	0	0	90	36.1581920903955	36.241610738255	12	0.400027776136994	2	9	6	NaN	2	4	0.135790103959126	1	1	NaN	154	3	28	2	121	221	321	NaN	521	0.0104447742924094	2	1	NaN	3626105.268577	NaN	3626106.2520007	3626106.76855813
103	19	0	0	90	36.1581920903955	36.241610738255	11	0.366692128125578	2	1	4	NaN	1	5	0.135790103959126	1	1	NaN	155	3	29	2	121	221	321	NaN	521	0.186331669799984	1	1	NaN	3626107.585565	NaN	3626108.5688909	3626109.08545403
103	19	0	0	90	36.1581920903955	36.241610738255	22	0.733384256251156	2	3	6	NaN	1	3	0.135790103959126	1	1	NaN	156	3	30	2	121	221	321	NaN	521	0.277790822088718	1	1	NaN	3626110.0857483	NaN	3626111.0691413	3626111.58571798
103	19	0	0	90	36.1581920903955	36.241610738255	10	0.333356480114162	2	11	2	NaN	2	4	0.135790103959126	1	1	NaN	157	3	31	2	121	221	321	NaN	521	0.350303021725267	2	1	NaN	3626112.669338	NaN	3626113.6527517	3626114.16928548
103	19	0	0	90	36.1581920903955	36.241610738255	13	0.433363424148411	2	2	3	NaN	1	3	0.135790103959126	1	1	NaN	158	3	32	2	121	221	321	NaN	521	0.0103861223906279	1	1	NaN	3626115.3361616	NaN	3626116.3196666	3626116.83620578
103	19	0	0	90	36.1581920903955	36.241610738255	6	0.200013888068497	2	9	6	NaN	2	4	0.135790103959126	1	1	NaN	159	3	33	2	121	221	321	NaN	521	1.15849962225184	2	1	NaN	3626117.6531648	NaN	3626118.6365565	3626119.15311138
103	19	0	0	90	36.1581920903955	36.241610738255	9	0.300020832102746	2	3	2	NaN	1	5	0.135790103959126	1	1	NaN	160	3	34	2	121	221	321	NaN	521	0.323278222233057	1	1	NaN	3626121.1202376	NaN	3626122.1035508	3626122.62011798
103	19	0	0	90	36.1581920903955	36.241610738255	18	0.600041664205492	2	6	2	NaN	1	4	0.135790103959126	1	1	NaN	161	3	35	2	121	221	321	NaN	521	0.162062232382596	1	1	NaN	3626123.7536406	NaN	3626124.737145	3626125.25370237
103	19	0	0	90	36.1581920903955	36.241610738255	0	0	1	6	3	NaN	1	4	0.135790103959126	1	1	NaN	162	3	36	2	111	211	311	NaN	511	0.222671717405319	1	1	NaN	3626126.2206553	NaN	3626127.2040559	3626127.72061458
103	19	0	0	90	36.1581920903955	36.241610738255	12	0.400027776136994	2	3	3	NaN	1	3	0.135790103959126	1	1	NaN	163	3	37	2	121	221	321	NaN	521	0.207586074713618	1	1	NaN	3626129.004153	NaN	3626129.9876589	3626130.50422333
103	19	0	0	90	36.1581920903955	36.241610738255	24	0.800055552273989	2	11	3	NaN	2	5	0.135790103959126	1	1	NaN	164	3	38	2	121	221	321	NaN	521	0.476533532142639	2	1	NaN	3626132.4712585	NaN	3626133.4546825	3626133.97123347
103	19	0	0	90	36.1581920903955	36.241610738255	7	0.233349536079913	2	11	4	NaN	2	4	0.135790103959126	1	1	NaN	165	3	39	2	121	221	321	NaN	521	0.288278569933027	2	1	NaN	3626135.9715033	NaN	3626136.9550382	3626137.47157673
103	19	0	0	90	36.1581920903955	36.241610738255	22	0.733384256251156	2	8	2	NaN	2	4	0.135790103959126	1	1	NaN	166	3	40	2	121	221	321	NaN	521	0.0395924691110849	2	1	NaN	3626138.5718815	NaN	3626139.5553324	3626140.07181983
103	19	0	0	90	36.1581920903955	36.241610738255	17	0.566706016194075	2	12	3	NaN	2	3	0.135790103959126	1	1	NaN	167	3	41	2	121	221	321	NaN	521	1.18443592218682	2	1	NaN	3626141.5554952	NaN	3626142.5388895	3626143.05545478
103	19	0	0	90	36.1581920903955	36.241610738255	21	0.70004860823974	2	2	3	NaN	1	4	0.135790103959126	1	1	NaN	168	3	42	2	121	221	321	NaN	521	0.996061369311064	1	1	NaN	3626145.0558918	NaN	3626146.0392395	3626146.55579143
103	19	0	0	90	36.1581920903955	36.241610738255	13	0.433363424148411	2	1	3	NaN	1	3	0.135790103959126	1	1	NaN	169	3	43	2	121	221	321	NaN	521	0.26890362193808	1	1	NaN	3626148.8227746	NaN	3626149.80629	3626150.32283508
103	19	0	0	90	36.1581920903955	36.241610738255	15	0.500034720171243	2	5	6	NaN	1	3	0.135790103959126	1	1	NaN	170	3	44	2	121	221	321	NaN	521	0.165109169669449	1	1	NaN	3626151.4064778	NaN	3626152.3898475	3626152.90641463
103	19	0	0	90	36.1581920903955	36.241610738255	14	0.466699072159827	2	2	3	NaN	1	4	0.135790103959126	1	1	NaN	171	3	45	2	121	221	321	NaN	521	0.281775122508407	1	1	NaN	3626153.8900426	NaN	3626154.8734417	3626155.38998918
103	19	0	0	90	36.1581920903955	36.241610738255	10	0.333356480114162	2	3	5	NaN	1	5	0.135790103959126	1	1	NaN	172	3	46	2	121	221	321	NaN	521	0.0103292320854962	1	1	NaN	3626156.4735349	NaN	3626157.4570298	3626157.97358167
103	19	0	0	90	36.1581920903955	36.241610738255	13	0.433363424148411	2	12	4	NaN	2	5	0.135790103959126	1	1	NaN	173	3	47	2	121	221	321	NaN	521	2.19739664299414	2	1	NaN	3626158.7905317	NaN	3626159.7739096	3626160.29047806
103	19	0	0	90	36.1581920903955	36.241610738255	12	0.400027776136994	2	12	1	NaN	2	3	0.135790103959126	1	1	NaN	174	3	48	2	121	221	321	NaN	521	0.0104425647296011	2	1	NaN	3626163.3076373	NaN	3626164.2910319	3626164.80757794
103	19	0	0	90	36.1581920903955	36.241610738255	9	0.300020832102746	2	8	2	NaN	2	5	0.135790103959126	1	1	NaN	175	3	49	2	121	221	321	NaN	521	0.313424774911255	2	1	NaN	3626168.4580823	NaN	3626169.441528	3626169.95809893
103	19	0	0	90	36.1581920903955	36.241610738255	24	0.800055552273989	2	3	4	NaN	1	4	0.135790103959126	1	1	NaN	176	3	50	2	121	221	321	NaN	521	0.503687222022563	1	1	NaN	3626171.0917125	NaN	3626172.0751295	3626172.59168738
103	19	0	0	90	36.1581920903955	36.241610738255	10	0.333356480114162	2	8	1	NaN	2	4	0.135790103959126	1	1	NaN	177	3	51	2	121	221	321	NaN	521	0.214850622229278	2	1	NaN	3626173.9086913	NaN	3626174.8920836	3626175.40862588
103	19	0	0	90	36.1581920903955	36.241610738255	15	0.500034720171243	2	1	1	NaN	1	3	0.135790103959126	1	1	NaN	178	3	52	2	121	221	321	NaN	521	0.0103897219523787	1	1	NaN	3626176.4421315	NaN	3626177.4256733	3626177.94220318
103	19	0	0	90	36.1581920903955	36.241610738255	12	0.400027776136994	2	6	5	NaN	1	4	0.135790103959126	1	1	NaN	179	3	53	2	121	221	321	NaN	521	3.31608217442408	2	0	NaN	3626178.77582	NaN	3626179.7592233	3626180.27577963
103	19	0	0	90	36.1581920903955	36.241610738255	6	0.200013888068497	2	3	3	NaN	1	3	0.135790103959126	1	1	NaN	180	3	54	2	121	221	321	NaN	521	0.0103640272282064	1	1	NaN	3626184.4097081	NaN	3626185.3930919	3626185.90965667
103	19	0	0	90	36.1581920903955	36.241610738255	22	0.733384256251156	2	4	6	NaN	1	4	0.135790103959126	1	1	NaN	181	3	55	2	121	221	321	NaN	521	0.692631169687957	1	1	NaN	3626186.7433772	NaN	3626187.7267268	3626188.24321763
103	19	0	0	90	36.1581920903955	36.241610738255	11	0.366692128125578	2	3	2	NaN	1	5	0.135790103959126	1	1	NaN	182	3	56	2	121	221	321	NaN	521	0.0104037220589817	1	1	NaN	3626189.743566	NaN	3626190.7269626	3626191.24351248
103	19	0	0	90	36.1581920903955	36.241610738255	11	0.366692128125578	2	7	3	NaN	2	5	0.135790103959126	1	1	NaN	183	3	57	2	121	221	321	NaN	521	0.0392363173887134	2	1	NaN	3626192.0604699	NaN	3626193.0438566	3626193.56040968
103	19	0	0	90	36.1581920903955	36.241610738255	22	0.733384256251156	2	12	6	NaN	2	5	0.135790103959126	1	1	NaN	184	3	58	2	121	221	321	NaN	521	0.0934836221858859	2	1	NaN	3626195.8941518	NaN	3626196.8775614	3626197.39412428
103	19	0	0	90	36.1581920903955	36.241610738255	12	0.400027776136994	2	4	1	NaN	1	4	0.135790103959126	1	1	NaN	185	3	59	2	121	221	321	NaN	521	0.0104062692262232	1	1	NaN	3626198.2944093	NaN	3626199.2778218	3626199.79434703
103	19	0	0	90	36.1581920903955	36.241610738255	20	0.666712960228324	2	3	3	NaN	1	3	0.135790103959126	1	1	NaN	186	3	60	2	121	221	321	NaN	521	1.55251472210512	1	1	NaN	3626200.6112816	NaN	3626201.5946947	3626202.11125198
103	19	0	0	90	36.1581920903955	36.241610738255	22	0.733384256251156	2	6	6	NaN	1	3	0.135790103959126	1	1	NaN	187	3	61	2	121	221	321	NaN	521	0.3011016221717	1	1	NaN	3626204.4782435	NaN	3626205.4617592	3626205.97829888
103	19	0	0	90	36.1581920903955	36.241610738255	6	0.200013888068497	2	4	1	NaN	1	3	0.135790103959126	1	1	NaN	188	3	62	2	121	221	321	NaN	521	0.220012122299522	1	1	NaN	3626207.0951982	NaN	3626208.0786674	3626208.59522128
103	19	0	0	90	36.1581920903955	36.241610738255	9	0.300020832102746	2	4	5	NaN	1	4	0.135790103959126	1	1	NaN	189	3	63	2	121	221	321	NaN	521	0.0104135693982244	1	1	NaN	3626209.6288539	NaN	3626210.6122383	3626211.12879373
103	19	0	0	90	36.1581920903955	36.241610738255	22	0.733384256251156	2	1	5	NaN	1	3	0.135790103959126	1	1	NaN	190	4	1	2	121	221	321	NaN	521	0.053780522197485	1	1	NaN	3626220.8299247	NaN	3626221.813374	3626222.32990308
103	19	0	0	90	36.1581920903955	36.241610738255	7	0.233349536079913	2	4	2	NaN	1	5	0.135790103959126	1	1	NaN	191	4	2	2	121	221	321	NaN	521	0.72296936949715	1	1	NaN	3626223.8968873	NaN	3626224.8803071	3626225.39686253
103	19	0	0	90	36.1581920903955	36.241610738255	11	0.366692128125578	2	9	6	NaN	2	5	0.135790103959126	1	1	NaN	192	4	3	2	121	221	321	NaN	521	0.306342422030866	2	1	NaN	3626229.6974568	NaN	3626230.6808767	3626231.19743088
103	19	0	0	90	36.1581920903955	36.241610738255	8	0.26668518409133	2	11	6	NaN	2	3	0.135790103959126	1	1	NaN	193	4	4	2	121	221	321	NaN	521	0.0103930220939219	2	1	NaN	3626232.647776	NaN	3626233.6311886	3626234.14772698
103	19	0	0	90	36.1581920903955	36.241610738255	15	0.500034720171243	2	2	4	NaN	1	3	0.135790103959126	1	1	NaN	194	4	5	2	121	221	321	NaN	521	0.254312222357839	1	1	NaN	3626234.9811954	NaN	3626235.9647366	3626236.48129608
103	19	0	0	90	36.1581920903955	36.241610738255	24	0.800055552273989	2	7	6	NaN	2	3	0.135790103959126	1	1	NaN	195	4	6	2	121	221	321	NaN	521	0.0104362647980452	2	1	NaN	3626237.5482724	NaN	3626238.5316523	3626239.04821134
103	19	0	0	90	36.1581920903955	36.241610738255	23	0.766719904262573	2	5	2	NaN	1	5	0.135790103959126	1	1	NaN	196	4	7	2	121	221	321	NaN	521	1.8655065218918	1	1	NaN	3626239.881695	NaN	3626240.8652242	3626241.38177088
103	19	0	0	90	36.1581920903955	36.241610738255	8	0.26668518409133	2	10	5	NaN	2	3	0.135790103959126	1	1	NaN	197	4	8	2	121	221	321	NaN	521	0.338200721889734	2	1	NaN	3626244.0654669	NaN	3626245.0489667	3626245.56551698
103	19	0	0	90	36.1581920903955	36.241610738255	8	0.26668518409133	2	4	6	NaN	1	3	0.135790103959126	1	1	NaN	198	4	9	2	121	221	321	NaN	521	0.343701422214508	1	1	NaN	3626246.7157381	NaN	3626247.6992105	3626248.21577318
103	19	0	0	90	36.1581920903955	36.241610738255	8	0.26668518409133	2	12	1	NaN	2	5	0.135790103959126	1	1	NaN	199	4	10	2	121	221	321	NaN	521	1.18789466936141	2	1	NaN	3626249.8160576	NaN	3626250.7995333	3626251.31607603
103	19	0	0	90	36.1581920903955	36.241610738255	24	0.800055552273989	2	7	5	NaN	2	4	0.135790103959126	1	1	NaN	200	4	11	2	121	221	321	NaN	521	0.0631285696290433	2	1	NaN	3626253.316464	NaN	3626254.2998827	3626254.81641613
103	19	0	0	90	36.1581920903955	36.241610738255	20	0.666712960228324	2	10	3	NaN	2	4	0.135790103959126	1	1	NaN	201	4	12	2	121	221	321	NaN	521	0.0102862897329032	2	1	NaN	3626256.6334423	NaN	3626257.6168599	3626258.13342441
103	19	0	0	90	36.1581920903955	36.241610738255	16	0.533370368182659	2	12	2	NaN	2	4	0.135790103959126	1	1	NaN	202	4	13	2	121	221	321	NaN	521	0.0103957219980657	2	1	NaN	3626258.9503635	NaN	3626259.933758	3626260.45030598
103	19	0	0	90	36.1581920903955	36.241610738255	14	0.466699072159827	2	5	1	NaN	1	4	0.135790103959126	1	1	NaN	203	4	14	2	121	221	321	NaN	521	2.23164977971464	1	1	NaN	3626261.6839873	NaN	3626262.6673482	3626263.18391912
103	19	0	0	90	36.1581920903955	36.241610738255	23	0.766719904262573	2	1	3	NaN	1	4	0.135790103959126	1	1	NaN	204	4	15	2	121	221	321	NaN	521	0.473486416973174	1	1	NaN	3626267.234478	NaN	3626268.21791	3626268.73445608
103	19	0	0	90	36.1581920903955	36.241610738255	19	0.633377312216908	2	6	2	NaN	1	4	0.135790103959126	1	1	NaN	205	4	16	2	121	221	321	NaN	521	0.113489364739507	1	1	NaN	3626270.018103	NaN	3626271.0015259	3626271.51805374
103	19	0	0	90	36.1581920903955	36.241610738255	10	0.333356480114162	2	4	6	NaN	1	3	0.135790103959126	1	1	NaN	206	4	17	2	121	221	321	NaN	521	3.76835181750357	1	1	NaN	3626272.4516921	NaN	3626273.4350726	3626273.95163848
103	19	0	0	90	36.1581920903955	36.241610738255	8	0.26668518409133	2	8	5	NaN	2	4	0.135790103959126	1	1	NaN	207	4	18	2	121	221	321	NaN	521	0.476693122182041	2	1	NaN	3626279.3188983	NaN	3626280.3024072	3626280.81897728
103	19	0	0	90	36.1581920903955	36.241610738255	25	0.833391200285405	2	6	6	NaN	1	3	0.135790103959126	1	1	NaN	208	4	19	2	121	221	321	NaN	521	0.338537622243166	1	1	NaN	3626282.5692236	NaN	3626283.5527455	3626284.06929768
103	19	0	0	90	36.1581920903955	36.241610738255	23	0.766719904262573	2	6	3	NaN	1	4	0.135790103959126	1	1	NaN	209	4	20	2	121	221	321	NaN	521	0.29042677488178	1	1	NaN	3626285.5696122	NaN	3626286.5530259	3626287.06958853
103	19	0	0	90	36.1581920903955	36.241610738255	13	0.433363424148411	2	1	2	NaN	1	4	0.135790103959126	1	1	NaN	210	4	21	2	121	221	321	NaN	521	1.02593488013372	1	1	NaN	3626288.1699537	NaN	3626289.1532907	3626289.66984582
103	19	0	0	90	36.1581920903955	36.241610738255	25	0.833391200285405	2	3	6	NaN	1	5	0.135790103959126	1	1	NaN	211	4	22	2	121	221	321	NaN	521	0.3315190221183	1	1	NaN	3626291.5202573	NaN	3626292.503622	3626293.02017638
103	19	0	0	90	36.1581920903955	36.241610738255	15	0.500034720171243	2	6	3	NaN	1	5	0.135790103959126	1	1	NaN	212	4	23	2	121	221	321	NaN	521	0.169228522107005	1	1	NaN	3626294.1704106	NaN	3626295.1538408	3626295.67043478
103	19	0	0	90	36.1581920903955	36.241610738255	15	0.500034720171243	2	8	2	NaN	2	4	0.135790103959126	1	1	NaN	213	4	24	2	121	221	321	NaN	521	0.117733117658645	2	1	NaN	3626296.6540757	NaN	3626297.6374573	3626298.15401398
103	19	0	0	90	36.1581920903955	36.241610738255	0	0	1	2	3	NaN	1	5	0.135790103959126	1	1	NaN	214	4	25	2	111	211	311	NaN	511	0.124028421938419	1	1	NaN	3626299.0876499	NaN	3626300.0710275	3626300.58758488
103	19	0	0	90	36.1581920903955	36.241610738255	18	0.600041664205492	2	5	5	NaN	1	5	0.135790103959126	1	1	NaN	215	4	26	2	121	221	321	NaN	521	0.0103933224454522	1	1	NaN	3626301.5212092	NaN	3626302.5046186	3626303.02115328
103	19	0	0	90	36.1581920903955	36.241610738255	13	0.433363424148411	2	7	4	NaN	2	5	0.135790103959126	1	1	NaN	216	4	27	2	121	221	321	NaN	521	1.94163032248616	1	0	NaN	3626303.8381063	NaN	3626304.8215204	3626305.33805688
103	19	0	0	90	36.1581920903955	36.241610738255	19	0.633377312216908	2	11	3	NaN	2	3	0.135790103959126	1	1	NaN	217	4	28	2	121	221	321	NaN	521	3.96353832213208	1	0	NaN	3626308.0884428	NaN	3626309.0719718	3626309.58846608
103	19	0	0	90	36.1581920903955	36.241610738255	9	0.300020832102746	2	7	4	NaN	2	5	0.135790103959126	1	1	NaN	218	4	29	2	121	221	321	NaN	521	0.266681089997292	2	1	NaN	3626315.0891489	NaN	3626316.0726161	3626316.58915281
103	19	0	0	90	36.1581920903955	36.241610738255	7	0.233349536079913	2	1	4	NaN	1	3	0.135790103959126	1	1	NaN	219	4	30	2	121	221	321	NaN	521	0.259464574512094	1	1	NaN	3626318.4561974	NaN	3626319.4395994	3626319.95615623
103	19	0	0	90	36.1581920903955	36.241610738255	24	0.800055552273989	2	4	2	NaN	1	5	0.135790103959126	1	1	NaN	220	4	31	2	121	221	321	NaN	521	0.244649122003466	1	1	NaN	3626321.0231307	NaN	3626322.0065088	3626322.52306858
103	19	0	0	90	36.1581920903955	36.241610738255	0	0	1	1	4	NaN	1	3	0.135790103959126	1	1	NaN	221	4	32	2	111	211	311	NaN	511	0.0104056219570339	2	0	NaN	3626323.9899887	NaN	3626324.9734717	3626325.49003428
103	19	0	0	90	36.1581920903955	36.241610738255	24	0.800055552273989	2	9	2	NaN	2	3	0.135790103959126	1	1	NaN	222	4	33	2	121	221	321	NaN	521	0.640075332485139	2	1	NaN	3626326.3236673	NaN	3626327.3070284	3626327.82359767
103	19	0	0	90	36.1581920903955	36.241610738255	25	0.833391200285405	2	8	4	NaN	2	4	0.135790103959126	1	1	NaN	223	4	34	2	121	221	321	NaN	521	0.0104157696478069	2	1	NaN	3626330.4073796	NaN	3626331.3908081	3626331.90732223
103	19	0	0	90	36.1581920903955	36.241610738255	16	0.533370368182659	2	2	5	NaN	1	3	0.135790103959126	1	1	NaN	224	4	35	2	121	221	321	NaN	521	0.0103925219736993	1	1	NaN	3626332.7242605	NaN	3626333.7076852	3626334.22421328
103	19	0	0	90	36.1581920903955	36.241610738255	13	0.433363424148411	2	4	1	NaN	1	5	0.135790103959126	1	1	NaN	225	4	36	2	121	221	321	NaN	521	4.16257886961102	2	0	NaN	3626335.0411817	NaN	3626336.0245642	3626336.54111053
103	19	0	0	90	36.1581920903955	36.241610738255	16	0.533370368182659	2	12	4	NaN	2	4	0.135790103959126	1	1	NaN	226	4	37	2	121	221	321	NaN	521	2.30310313217342	2	1	NaN	3626341.5251278	NaN	3626342.5085296	3626343.02508387
103	19	0	0	90	36.1581920903955	36.241610738255	0	0	1	2	1	NaN	1	5	0.135790103959126	1	1	NaN	227	4	38	2	111	211	311	NaN	511	0.0104151694104075	1	1	NaN	3626346.4255977	NaN	3626347.4090109	3626347.92555693
103	19	0	0	90	36.1581920903955	36.241610738255	12	0.400027776136994	2	1	4	NaN	1	3	0.135790103959126	1	1	NaN	228	4	39	2	121	221	321	NaN	521	3.89258922217414	2	0	NaN	3626348.7591712	NaN	3626349.7425718	3626350.25913268
103	19	0	0	90	36.1581920903955	36.241610738255	24	0.800055552273989	2	5	2	NaN	1	4	0.135790103959126	1	1	NaN	229	4	40	2	121	221	321	NaN	521	1.03463512193412	1	1	NaN	3626355.3931584	NaN	3626356.3765575	3626356.89311698
103	19	0	0	90	36.1581920903955	36.241610738255	23	0.766719904262573	2	8	5	NaN	2	4	0.135790103959126	1	1	NaN	230	4	41	2	121	221	321	NaN	521	0.508276369422674	2	1	NaN	3626358.7433696	NaN	3626359.7268969	3626360.24343683
103	19	0	0	90	36.1581920903955	36.241610738255	12	0.400027776136994	2	3	2	NaN	1	5	0.135790103959126	1	1	NaN	231	4	42	2	121	221	321	NaN	521	0.22778631746769	1	1	NaN	3626361.5604042	NaN	3626362.5438244	3626363.06038698
103	19	0	0	90	36.1581920903955	36.241610738255	21	0.70004860823974	2	4	2	NaN	1	4	0.135790103959126	1	1	NaN	232	4	43	2	121	221	321	NaN	521	0.0104029220528901	1	1	NaN	3626364.1106914	NaN	3626365.0940702	3626365.61063758
103	19	0	0	90	36.1581920903955	36.241610738255	24	0.800055552273989	2	6	5	NaN	1	5	0.135790103959126	1	1	NaN	233	4	44	2	121	221	321	NaN	521	1.20867452211678	1	1	NaN	3626366.4274709	NaN	3626367.4109709	3626367.92753398
103	19	0	0	90	36.1581920903955	36.241610738255	15	0.500034720171243	2	9	5	NaN	2	5	0.135790103959126	1	1	NaN	234	4	45	2	121	221	321	NaN	521	1.85850186971948	2	1	NaN	3626369.9612956	NaN	3626370.944695	3626371.46120743
103	19	0	0	90	36.1581920903955	36.241610738255	12	0.400027776136994	2	7	5	NaN	2	5	0.135790103959126	1	1	NaN	235	4	46	2	121	221	321	NaN	521	3.42755741719157	2	1	NaN	3626374.1283498	NaN	3626375.1117549	3626375.62828648
103	19	0	0	90	36.1581920903955	36.241610738255	6	0.200013888068497	2	2	5	NaN	1	5	0.135790103959126	1	1	NaN	236	4	47	2	121	221	321	NaN	521	0.261518169660121	1	1	NaN	3626379.8622582	NaN	3626380.8456213	3626381.36218323
103	19	0	0	90	36.1581920903955	36.241610738255	18	0.600041664205492	2	8	6	NaN	2	5	0.135790103959126	1	1	NaN	237	4	48	2	121	221	321	NaN	521	1.07911666948348	2	1	NaN	3626382.4291553	NaN	3626383.4125325	3626383.92909433
103	19	0	0	90	36.1581920903955	36.241610738255	14	0.466699072159827	2	5	3	NaN	1	4	0.135790103959126	1	1	NaN	238	4	49	2	121	221	321	NaN	521	0.390622822102159	1	1	NaN	3626385.8294753	NaN	3626386.8128838	3626387.32943708
103	19	0	0	90	36.1581920903955	36.241610738255	18	0.600041664205492	2	4	6	NaN	1	4	0.135790103959126	1	1	NaN	239	4	50	2	121	221	321	NaN	521	0.402202969416976	1	1	NaN	3626388.5295921	NaN	3626389.51314	3626390.02969453
103	19	0	0	90	36.1581920903955	36.241610738255	24	0.800055552273989	2	12	5	NaN	2	4	0.135790103959126	1	1	NaN	240	4	51	2	121	221	321	NaN	521	0.505465322174132	1	0	NaN	3626391.7467419	NaN	3626392.7301154	3626393.24668138
103	19	0	0	90	36.1581920903955	36.241610738255	18	0.600041664205492	2	2	2	NaN	1	4	0.135790103959126	1	1	NaN	241	4	52	2	121	221	321	NaN	521	0.28854201734066	1	1	NaN	3626394.5636924	NaN	3626395.5470631	3626396.06362758
103	19	0	0	90	36.1581920903955	36.241610738255	16	0.533370368182659	2	11	2	NaN	2	5	0.135790103959126	1	1	NaN	242	4	53	2	121	221	321	NaN	521	0.422855922486633	1	0	NaN	3626398.3973875	NaN	3626399.3807904	3626399.89732998
103	19	0	0	90	36.1581920903955	36.241610738255	17	0.566706016194075	2	11	2	NaN	2	3	0.135790103959126	1	1	NaN	243	4	54	2	121	221	321	NaN	521	0.356015469413251	2	1	NaN	3626404.0480796	NaN	3626405.0313393	3626405.54789263
103	19	0	0	90	36.1581920903955	36.241610738255	17	0.566706016194075	2	11	1	NaN	2	4	0.135790103959126	1	1	NaN	244	4	55	2	121	221	321	NaN	521	0.241421574726701	2	1	NaN	3626409.0984074	NaN	3626410.081846	3626410.59840013
103	19	0	0	90	36.1581920903955	36.241610738255	21	0.70004860823974	2	12	3	NaN	2	5	0.135790103959126	1	1	NaN	245	4	56	2	121	221	321	NaN	521	0.0432364218868315	2	1	NaN	3626411.6486959	NaN	3626412.6320841	3626413.14863128
103	19	0	0	90	36.1581920903955	36.241610738255	21	0.70004860823974	2	3	6	NaN	1	5	0.135790103959126	1	1	NaN	246	4	57	2	121	221	321	NaN	521	0.308015822432935	1	1	NaN	3626414.4322596	NaN	3626415.4157362	3626415.93223768
103	19	0	0	90	36.1581920903955	36.241610738255	6	0.200013888068497	2	10	3	NaN	2	5	0.135790103959126	1	1	NaN	247	4	58	2	121	221	321	NaN	521	0.282639169599861	2	1	NaN	3626417.0492117	NaN	3626418.0326173	3626418.54916643
103	19	0	0	90	36.1581920903955	36.241610738255	16	0.533370368182659	2	4	2	NaN	1	5	0.135790103959126	1	1	NaN	248	4	59	2	121	221	321	NaN	521	0.242852122057229	1	1	NaN	3626419.649347	NaN	3626420.6328725	3626421.14942538
103	19	0	0	90	36.1581920903955	36.241610738255	17	0.566706016194075	2	3	5	NaN	1	4	0.135790103959126	1	1	NaN	249	4	60	2	121	221	321	NaN	521	0.220238669309765	1	1	NaN	3626422.5996345	NaN	3626423.5831597	3626424.09971563
103	19	0	0	90	36.1581920903955	36.241610738255	0	0	1	3	1	NaN	1	4	0.135790103959126	1	1	NaN	250	4	61	2	111	211	311	NaN	511	0.0547176222316921	1	1	NaN	3626425.1333287	NaN	3626426.1167478	3626426.63328818
103	19	0	0	90	36.1581920903955	36.241610738255	25	0.833391200285405	2	3	5	NaN	1	3	0.135790103959126	1	1	NaN	251	4	62	2	121	221	321	NaN	521	5.29547902196646	2	0	NaN	3626427.5003155	NaN	3626428.4836336	3626429.00019548
103	19	0	0	90	36.1581920903955	36.241610738255	0	0	1	5	1	NaN	1	3	0.135790103959126	1	1	NaN	252	4	63	2	111	211	311	NaN	511	0.0104112694971263	2	0	NaN	3626435.1176691	NaN	3626436.1010595	3626436.61760023
103	19	0	0	90	36.1581920903955	36.241610738255	6	0.200013888068497	2	11	1	NaN	2	5	0.135790103959126	1	1	NaN	253	5	1	2	121	221	321	NaN	521	0.260141022037715	2	1	NaN	3626444.7519272	NaN	3626445.7353311	3626446.25188898
103	19	0	0	90	36.1581920903955	36.241610738255	19	0.633377312216908	2	7	4	NaN	2	4	0.135790103959126	1	1	NaN	254	5	2	2	121	221	321	NaN	521	0.0102836424484849	2	1	NaN	3626447.3188629	NaN	3626448.3022447	3626448.81880856
103	19	0	0	90	36.1581920903955	36.241610738255	16	0.533370368182659	2	8	4	NaN	2	5	0.135790103959126	1	1	NaN	255	5	3	2	121	221	321	NaN	521	0.38646632200107	2	1	NaN	3626452.9692959	NaN	3626453.9528224	3626454.46935818
103	19	0	0	90	36.1581920903955	36.241610738255	9	0.300020832102746	2	10	6	NaN	2	4	0.135790103959126	1	1	NaN	256	5	4	2	121	221	321	NaN	521	0.010395921766758	2	1	NaN	3626456.1030322	NaN	3626457.0864289	3626457.60300698
103	19	0	0	90	36.1581920903955	36.241610738255	21	0.70004860823974	2	9	2	NaN	2	4	0.135790103959126	1	1	NaN	257	5	5	2	121	221	321	NaN	521	0.303047821857035	2	1	NaN	3626462.0369367	NaN	3626463.0202603	3626463.53691518
103	19	0	0	90	36.1581920903955	36.241610738255	14	0.466699072159827	2	7	4	NaN	2	3	0.135790103959126	1	1	NaN	258	5	6	2	121	221	321	NaN	521	0.206116022076458	2	1	NaN	3626464.6537394	NaN	3626465.6372859	3626466.15384528
103	19	0	0	90	36.1581920903955	36.241610738255	0	0	1	7	3	NaN	2	4	0.135790103959126	1	1	NaN	259	5	7	2	111	211	311	NaN	511	0.773027469404042	2	1	NaN	3626467.8708562	NaN	3626468.854287	3626469.37081713
103	19	0	0	90	36.1581920903955	36.241610738255	8	0.26668518409133	2	7	5	NaN	2	3	0.135790103959126	1	1	NaN	260	5	8	2	121	221	321	NaN	521	0.937340669333935	2	1	NaN	3626470.9545364	NaN	3626471.9378963	3626472.45445863
103	19	0	0	90	36.1581920903955	36.241610738255	17	0.566706016194075	2	8	1	NaN	2	5	0.135790103959126	1	1	NaN	261	5	9	2	121	221	321	NaN	521	0.303462617564946	2	1	NaN	3626474.2047299	NaN	3626475.1882175	3626475.70477828
103	19	0	0	90	36.1581920903955	36.241610738255	15	0.500034720171243	2	8	1	NaN	2	4	0.135790103959126	1	1	NaN	262	5	10	2	121	221	321	NaN	521	0.214181574992836	2	1	NaN	3626476.8217527	NaN	3626477.8051396	3626478.32169753
103	19	0	0	90	36.1581920903955	36.241610738255	20	0.666712960228324	2	7	3	NaN	2	4	0.135790103959126	1	1	NaN	263	5	11	2	121	221	321	NaN	521	0.362875069491565	2	1	NaN	3626480.7053414	NaN	3626481.6888535	3626482.20540993
103	19	0	0	90	36.1581920903955	36.241610738255	19	0.633377312216908	2	12	6	NaN	2	5	0.135790103959126	1	1	NaN	264	5	12	2	121	221	321	NaN	521	0.23992206947878	2	1	NaN	3626483.5723012	NaN	3626484.5558116	3626485.07235923
103	19	0	0	90	36.1581920903955	36.241610738255	12	0.400027776136994	2	11	1	NaN	2	5	0.135790103959126	1	1	NaN	265	5	13	2	121	221	321	NaN	521	0.246692917309701	2	1	NaN	3626486.3894489	NaN	3626487.3727643	3626487.88931098
103	19	0	0	90	36.1581920903955	36.241610738255	24	0.800055552273989	2	2	1	NaN	1	4	0.135790103959126	1	1	NaN	266	5	14	2	121	221	321	NaN	521	0.247561564669013	1	1	NaN	3626489.7563236	NaN	3626490.7397528	3626491.25630044
103	19	0	0	90	36.1581920903955	36.241610738255	17	0.566706016194075	2	8	5	NaN	2	5	0.135790103959126	1	1	NaN	267	5	15	2	121	221	321	NaN	521	0.360801122151315	2	1	NaN	3626492.3232874	NaN	3626493.3066562	3626493.82321708
103	19	0	0	90	36.1581920903955	36.241610738255	23	0.766719904262573	2	3	6	NaN	1	3	0.135790103959126	1	1	NaN	268	5	16	2	121	221	321	NaN	521	0.742378669325262	1	1	NaN	3626496.7736937	NaN	3626497.7571086	3626498.27365403
103	19	0	0	90	36.1581920903955	36.241610738255	9	0.300020832102746	2	7	3	NaN	2	5	0.135790103959126	1	1	NaN	269	5	17	2	121	221	321	NaN	521	0.579236069694161	2	1	NaN	3626500.8406552	NaN	3626501.8241928	3626502.34071843
103	19	0	0	90	36.1581920903955	36.241610738255	7	0.233349536079913	2	2	6	NaN	1	4	0.135790103959126	1	1	NaN	270	5	18	2	121	221	321	NaN	521	0.231674469541758	1	1	NaN	3626503.7244008	NaN	3626504.7077888	3626505.22433993
103	19	0	0	90	36.1581920903955	36.241610738255	24	0.800055552273989	2	4	4	NaN	1	5	0.135790103959126	1	1	NaN	271	5	19	2	121	221	321	NaN	521	0.161592369899154	1	1	NaN	3626508.2748148	NaN	3626509.2582279	3626509.77478193
103	19	0	0	90	36.1581920903955	36.241610738255	14	0.466699072159827	2	9	4	NaN	2	4	0.135790103959126	1	1	NaN	272	5	20	2	121	221	321	NaN	521	0.158267769496888	2	1	NaN	3626510.7417442	NaN	3626511.7251317	3626512.24170163
103	19	0	0	90	36.1581920903955	36.241610738255	0	0	1	1	5	NaN	1	3	0.135790103959126	1	1	NaN	273	5	21	2	111	211	311	NaN	511	3.96344427438453	2	0	NaN	3626513.2085369	NaN	3626514.1920797	3626514.70860903
103	19	0	0	90	36.1581920903955	36.241610738255	10	0.333356480114162	2	1	6	NaN	1	3	0.135790103959126	1	1	NaN	274	5	22	2	121	221	321	NaN	521	0.607566222548485	1	1	NaN	3626519.4925312	NaN	3626520.4760038	3626520.99255628
103	19	0	0	90	36.1581920903955	36.241610738255	9	0.300020832102746	2	5	6	NaN	1	3	0.135790103959126	1	1	NaN	275	5	23	2	121	221	321	NaN	521	4.03967142198235	2	0	NaN	3626522.8762353	NaN	3626523.8596674	3626524.37621718
103	19	0	0	90	36.1581920903955	36.241610738255	11	0.366692128125578	2	8	4	NaN	2	4	0.135790103959126	1	1	NaN	276	5	24	2	121	221	321	NaN	521	0.313518869224936	2	1	NaN	3626529.2268926	NaN	3626530.2102954	3626530.72684863
103	19	0	0	90	36.1581920903955	36.241610738255	0	0	1	11	5	NaN	2	5	0.135790103959126	1	1	NaN	277	5	25	2	111	211	311	NaN	511	0.0802355697378516	2	1	NaN	3626531.8438358	NaN	3626532.8272204	3626533.34377243
103	19	0	0	90	36.1581920903955	36.241610738255	18	0.600041664205492	2	9	1	NaN	2	5	0.135790103959126	1	1	NaN	278	5	26	2	121	221	321	NaN	521	0.648340269457549	2	1	NaN	3626534.2441346	NaN	3626535.227476	3626535.74400193
103	19	0	0	90	36.1581920903955	36.241610738255	17	0.566706016194075	2	7	1	NaN	2	3	0.135790103959126	1	1	NaN	279	5	27	2	121	221	321	NaN	521	0.266096575185657	2	1	NaN	3626537.1943435	NaN	3626538.1777489	3626538.69430383
103	19	0	0	90	36.1581920903955	36.241610738255	25	0.833391200285405	2	7	5	NaN	2	3	0.135790103959126	1	1	NaN	280	5	28	2	121	221	321	NaN	521	0.0104394648224115	2	1	NaN	3626539.7779733	NaN	3626540.7613298	3626541.27788194
103	19	0	0	90	36.1581920903955	36.241610738255	12	0.400027776136994	2	9	3	NaN	2	5	0.135790103959126	1	1	NaN	281	5	29	2	121	221	321	NaN	521	0.133380769286305	2	1	NaN	3626542.0948358	NaN	3626543.0782209	3626543.59477993
103	19	0	0	90	36.1581920903955	36.241610738255	0	0	1	12	2	NaN	2	4	0.135790103959126	1	1	NaN	282	5	30	2	111	211	311	NaN	511	0.624121942557395	2	1	NaN	3626545.8118482	NaN	3626546.7952473	3626547.31180866
103	19	0	0	90	36.1581920903955	36.241610738255	7	0.233349536079913	2	11	2	NaN	2	3	0.135790103959126	1	1	NaN	283	5	31	2	121	221	321	NaN	521	0.346905727405101	2	1	NaN	3626548.7454691	NaN	3626549.7289135	3626550.24543907
103	19	0	0	90	36.1581920903955	36.241610738255	9	0.300020832102746	2	9	6	NaN	2	3	0.135790103959126	1	1	NaN	284	5	32	2	121	221	321	NaN	521	0.303590722382069	2	1	NaN	3626552.612503	NaN	3626553.5959216	3626554.11248108
103	19	0	0	90	36.1581920903955	36.241610738255	18	0.600041664205492	2	2	5	NaN	1	5	0.135790103959126	1	1	NaN	285	5	33	2	121	221	321	NaN	521	3.47847706917673	2	0	NaN	3626555.2294489	NaN	3626556.2128565	3626556.72939353
103	19	0	0	90	36.1581920903955	36.241610738255	9	0.300020832102746	2	1	2	NaN	1	4	0.135790103959126	1	1	NaN	286	5	34	2	121	221	321	NaN	521	0.303431532345712	1	1	NaN	3626561.1967305	NaN	3626562.1801447	3626562.69665327
103	19	0	0	90	36.1581920903955	36.241610738255	10	0.333356480114162	2	12	4	NaN	2	4	0.135790103959126	1	1	NaN	287	5	35	2	121	221	321	NaN	521	0.214417369570583	2	1	NaN	3626563.8136271	NaN	3626564.7970493	3626565.31357923
103	19	0	0	90	36.1581920903955	36.241610738255	10	0.333356480114162	2	10	3	NaN	2	5	0.135790103959126	1	1	NaN	288	5	36	2	121	221	321	NaN	521	1.48222986934707	2	1	NaN	3626566.9139273	NaN	3626567.8973268	3626568.41388483
103	19	0	0	90	36.1581920903955	36.241610738255	7	0.233349536079913	2	1	3	NaN	1	5	0.135790103959126	1	1	NaN	289	5	37	2	121	221	321	NaN	521	0.480812069494277	1	1	NaN	3626571.1475497	NaN	3626572.1310838	3626572.64762363
103	19	0	0	90	36.1581920903955	36.241610738255	13	0.433363424148411	2	9	4	NaN	2	3	0.135790103959126	1	1	NaN	290	5	38	2	121	221	321	NaN	521	0.207582890056074	2	1	NaN	3626574.3646905	NaN	3626575.3480697	3626575.86462131
103	19	0	0	90	36.1581920903955	36.241610738255	11	0.366692128125578	2	12	2	NaN	2	5	0.135790103959126	1	1	NaN	291	5	39	2	121	221	321	NaN	521	0.0103287324309349	2	1	NaN	3626576.8816168	NaN	3626577.864983	3626578.38152277
103	19	0	0	90	36.1581920903955	36.241610738255	10	0.333356480114162	2	5	4	NaN	1	5	0.135790103959126	1	1	NaN	292	5	40	2	121	221	321	NaN	521	0.0104189696721733	1	1	NaN	3626579.198334	NaN	3626580.1818685	3626580.69842543
103	19	0	0	90	36.1581920903955	36.241610738255	21	0.70004860823974	2	8	4	NaN	2	3	0.135790103959126	1	1	NaN	293	5	41	2	121	221	321	NaN	521	4.69603242212906	2	1	NaN	3626581.5320267	NaN	3626582.5154841	3626583.03197718
103	19	0	0	90	36.1581920903955	36.241610738255	10	0.333356480114162	2	1	6	NaN	1	4	0.135790103959126	1	1	NaN	294	5	42	2	121	221	321	NaN	521	0.198712469544262	1	1	NaN	3626588.5494027	NaN	3626589.5327888	3626590.04933933
103	19	0	0	90	36.1581920903955	36.241610738255	24	0.800055552273989	2	10	1	NaN	2	4	0.135790103959126	1	1	NaN	295	5	43	2	121	221	321	NaN	521	0.0484457747079432	2	1	NaN	3626591.4996517	NaN	3626592.4830738	3626592.99963403
103	19	0	0	90	36.1581920903955	36.241610738255	13	0.433363424148411	2	10	5	NaN	2	3	0.135790103959126	1	1	NaN	296	5	44	2	121	221	321	NaN	521	0.18629142222926	2	1	NaN	3626593.8499221	NaN	3626594.8333071	3626595.34986588
103	19	0	0	90	36.1581920903955	36.241610738255	22	0.733384256251156	2	8	2	NaN	2	3	0.135790103959126	1	1	NaN	297	5	45	2	121	221	321	NaN	521	0.0539604220539331	2	1	NaN	3626596.3501657	NaN	3626597.3335481	3626597.85010798
103	19	0	0	90	36.1581920903955	36.241610738255	19	0.633377312216908	2	8	6	NaN	2	4	0.135790103959126	1	1	NaN	298	5	46	2	121	221	321	NaN	521	0.0871548219583929	2	1	NaN	3626598.717082	NaN	3626599.7004605	3626600.21700368
103	19	0	0	90	36.1581920903955	36.241610738255	22	0.733384256251156	2	6	6	NaN	1	5	0.135790103959126	1	1	NaN	299	5	47	2	121	221	321	NaN	521	0.01043521752581	1	1	NaN	3626601.1172918	NaN	3626602.1006944	3626602.61723148
103	19	0	0	90	36.1581920903955	36.241610738255	14	0.466699072159827	2	9	4	NaN	2	3	0.135790103959126	1	1	NaN	300	5	48	2	121	221	321	NaN	521	1.86580306477845	2	1	NaN	3626603.4341812	NaN	3626604.4175691	3626604.93412534
103	19	0	0	90	36.1581920903955	36.241610738255	21	0.70004860823974	2	10	6	NaN	2	3	0.135790103959126	1	1	NaN	301	5	49	2	121	221	321	NaN	521	0.186642921995372	2	1	NaN	3626607.6179294	NaN	3626608.6013111	3626609.11788368
103	19	0	0	90	36.1581920903955	36.241610738255	25	0.833391200285405	2	10	3	NaN	2	5	0.135790103959126	1	1	NaN	302	5	50	2	121	221	321	NaN	521	2.13425106462091	2	1	NaN	3626610.1181075	NaN	3626611.1015776	3626611.61814294
103	19	0	0	90	36.1581920903955	36.241610738255	0	0	1	9	4	NaN	2	5	0.135790103959126	1	1	NaN	303	5	51	2	111	211	311	NaN	511	0.243982122279704	1	0	NaN	3626614.5686413	NaN	3626615.5520117	3626616.06855898
103	19	0	0	90	36.1581920903955	36.241610738255	15	0.500034720171243	2	7	5	NaN	2	4	0.135790103959126	1	1	NaN	304	5	52	2	121	221	321	NaN	521	0.341410069726408	2	1	NaN	3626617.1187404	NaN	3626618.1022557	3626618.61880753
103	19	0	0	90	36.1581920903955	36.241610738255	23	0.766719904262573	2	12	5	NaN	2	3	0.135790103959126	1	1	NaN	305	5	53	2	121	221	321	NaN	521	0.0103904218412936	2	1	NaN	3626619.7857819	NaN	3626620.7691862	3626621.28573968
103	19	0	0	90	36.1581920903955	36.241610738255	18	0.600041664205492	2	12	5	NaN	2	5	0.135790103959126	1	1	NaN	306	5	54	2	121	221	321	NaN	521	0.733275789767504	2	1	NaN	3626622.1026091	NaN	3626623.0860897	3626623.60264221
103	19	0	0	90	36.1581920903955	36.241610738255	20	0.666712960228324	2	1	2	NaN	1	4	0.135790103959126	1	1	NaN	307	5	55	2	121	221	321	NaN	521	4.80309492209926	2	0	NaN	3626625.1529867	NaN	3626626.1363941	3626626.65293438
103	19	0	0	90	36.1581920903955	36.241610738255	6	0.200013888068497	2	5	5	NaN	1	5	0.135790103959126	1	1	NaN	308	5	56	2	121	221	321	NaN	521	0.262191237416118	1	1	NaN	3626632.2703357	NaN	3626633.2537395	3626633.77030916
103	19	0	0	90	36.1581920903955	36.241610738255	14	0.466699072159827	2	7	2	NaN	2	3	0.135790103959126	1	1	NaN	309	5	57	2	121	221	321	NaN	521	0.766282622236758	2	1	NaN	3626634.8539344	NaN	3626635.8373282	3626636.35388528
103	19	0	0	90	36.1581920903955	36.241610738255	13	0.433363424148411	2	4	3	NaN	1	5	0.135790103959126	1	1	NaN	310	5	58	2	121	221	321	NaN	521	0.0103000374510884	1	1	NaN	3626637.9375736	NaN	3626638.920964	3626639.43752086
103	19	0	0	90	36.1581920903955	36.241610738255	25	0.833391200285405	2	4	4	NaN	1	5	0.135790103959126	1	1	NaN	311	5	59	2	121	221	321	NaN	521	0.229018422309309	1	1	NaN	3626640.2711268	NaN	3626641.2545452	3626641.77108748
103	19	0	0	90	36.1581920903955	36.241610738255	18	0.600041664205492	2	3	4	NaN	1	3	0.135790103959126	1	1	NaN	312	5	60	2	121	221	321	NaN	521	0.207269122358412	1	1	NaN	3626642.8212865	NaN	3626643.8047938	3626644.32133118
103	19	0	0	90	36.1581920903955	36.241610738255	21	0.70004860823974	2	8	4	NaN	2	5	0.135790103959126	1	1	NaN	313	5	61	2	121	221	321	NaN	521	0.26592516945675	1	0	NaN	3626645.338166	NaN	3626646.3217019	3626646.83824243
103	19	0	0	90	36.1581920903955	36.241610738255	20	0.666712960228324	2	1	2	NaN	1	4	0.135790103959126	1	1	NaN	314	5	62	2	121	221	321	NaN	521	0.290722469799221	1	1	NaN	3626647.921788	NaN	3626648.9052808	3626649.42183653
103	19	0	0	90	36.1581920903955	36.241610738255	6	0.200013888068497	2	7	5	NaN	2	5	0.135790103959126	1	1	NaN	315	5	63	2	121	221	321	NaN	521	1.28192056948319	2	1	NaN	3626651.9222407	NaN	3626652.9056846	3626653.42222723
103	19	0	0	90	36.1581920903955	36.241610738255	14	0.466699072159827	2	4	3	NaN	1	4	0.135790103959126	1	1	NaN	316	6	1	2	121	221	321	NaN	521	0.333364264573902	2	0	NaN	3626659.0230019	NaN	3626660.0063737	3626660.52292354
103	19	0	0	90	36.1581920903955	36.241610738255	12	0.400027776136994	2	4	4	NaN	1	4	0.135790103959126	1	1	NaN	317	6	2	2	121	221	321	NaN	521	0.0104111223481596	1	1	NaN	3626661.6732617	NaN	3626662.6566302	3626663.17318848
103	19	0	0	90	36.1581920903955	36.241610738255	13	0.433363424148411	2	5	3	NaN	1	4	0.135790103959126	1	1	NaN	318	6	3	2	121	221	321	NaN	521	0.126016869209707	1	1	NaN	3626663.9901331	NaN	3626664.9735175	3626665.49007603
103	19	0	0	90	36.1581920903955	36.241610738255	15	0.500034720171243	2	2	3	NaN	1	5	0.135790103959126	1	1	NaN	319	6	4	2	121	221	321	NaN	521	0.681118174921721	2	0	NaN	3626666.707098	NaN	3626667.6904533	3626668.20702223
103	19	0	0	90	36.1581920903955	36.241610738255	25	0.833391200285405	2	9	2	NaN	2	4	0.135790103959126	1	1	NaN	320	6	5	2	121	221	321	NaN	521	0.0976935219950974	2	1	NaN	3626669.690765	NaN	3626670.6740798	3626671.19063218
103	19	0	0	90	36.1581920903955	36.241610738255	14	0.466699072159827	2	6	2	NaN	1	3	0.135790103959126	1	1	NaN	321	6	6	2	121	221	321	NaN	521	0.251360717229545	1	1	NaN	3626672.2409137	NaN	3626673.2243402	3626673.74090218
103	19	0	0	90	36.1581920903955	36.241610738255	20	0.666712960228324	2	6	4	NaN	1	4	0.135790103959126	1	1	NaN	322	6	7	2	121	221	321	NaN	521	0.308829121757299	1	1	NaN	3626674.8078702	NaN	3626675.7912581	3626676.30780228
103	19	0	0	90	36.1581920903955	36.241610738255	0	0	1	10	6	NaN	2	5	0.135790103959126	1	1	NaN	323	6	8	2	111	211	311	NaN	511	2.33168192254379	2	1	NaN	3626677.4247765	NaN	3626678.4081736	3626678.92473508
103	19	0	0	90	36.1581920903955	36.241610738255	23	0.766719904262573	2	11	6	NaN	2	3	0.135790103959126	1	1	NaN	324	6	9	2	121	221	321	NaN	521	0.530075669754297	2	1	NaN	3626682.0585684	NaN	3626683.0419614	3626683.55851863
103	19	0	0	90	36.1581920903955	36.241610738255	10	0.333356480114162	2	6	4	NaN	1	4	0.135790103959126	1	1	NaN	325	6	10	2	121	221	321	NaN	521	0.0642222696915269	1	1	NaN	3626684.8921766	NaN	3626685.8756481	3626686.39212883
103	19	0	0	90	36.1581920903955	36.241610738255	17	0.566706016194075	2	1	1	NaN	1	4	0.135790103959126	1	1	NaN	326	6	11	2	121	221	321	NaN	521	0.280958669260144	1	1	NaN	3626687.2757608	NaN	3626688.259058	3626688.77569903
103	19	0	0	90	36.1581920903955	36.241610738255	6	0.200013888068497	2	6	4	NaN	1	4	0.135790103959126	1	1	NaN	327	6	12	2	121	221	321	NaN	521	0.0104389800690114	1	1	NaN	3626690.7426263	NaN	3626691.726149	3626692.24273302
103	19	0	0	90	36.1581920903955	36.241610738255	12	0.400027776136994	2	5	2	NaN	1	5	0.135790103959126	1	1	NaN	328	6	13	2	121	221	321	NaN	521	0.0353573174215853	1	1	NaN	3626693.3930054	NaN	3626694.3764241	3626694.89298098
103	19	0	0	90	36.1581920903955	36.241610738255	23	0.766719904262573	2	2	6	NaN	1	5	0.135790103959126	1	1	NaN	329	6	14	2	121	221	321	NaN	521	0.125012821983546	1	1	NaN	3626695.7432477	NaN	3626696.726648	3626697.24319918
103	19	0	0	90	36.1581920903955	36.241610738255	7	0.233349536079913	2	12	3	NaN	2	5	0.135790103959126	1	1	NaN	330	6	15	2	121	221	321	NaN	521	0.250849222298712	2	1	NaN	3626698.1935022	NaN	3626699.1768782	3626699.69343378
103	19	0	0	90	36.1581920903955	36.241610738255	11	0.366692128125578	2	9	1	NaN	2	5	0.135790103959126	1	1	NaN	331	6	16	2	121	221	321	NaN	521	0.491858722176403	2	1	NaN	3626700.7604329	NaN	3626701.7437843	3626702.26035868
103	19	0	0	90	36.1581920903955	36.241610738255	23	0.766719904262573	2	8	5	NaN	2	3	0.135790103959126	1	1	NaN	332	6	17	2	121	221	321	NaN	521	0.180940722115338	2	1	NaN	3626705.1275231	NaN	3626706.1109064	3626706.62745408
103	19	0	0	90	36.1581920903955	36.241610738255	9	0.300020832102746	2	8	3	NaN	2	4	0.135790103959126	1	1	NaN	333	6	18	2	121	221	321	NaN	521	0.100565869361162	2	1	NaN	3626707.9277829	NaN	3626708.9111745	3626709.42772183
103	19	0	0	90	36.1581920903955	36.241610738255	22	0.733384256251156	2	7	4	NaN	2	3	0.135790103959126	1	1	NaN	334	6	19	2	121	221	321	NaN	521	0.339585169684142	2	1	NaN	3626710.3447079	NaN	3626711.3281063	3626711.84462733
103	19	0	0	90	36.1581920903955	36.241610738255	7	0.233349536079913	2	5	3	NaN	1	4	0.135790103959126	1	1	NaN	335	6	20	2	121	221	321	NaN	521	0.153463169466704	1	1	NaN	3626712.9949348	NaN	3626713.9783978	3626714.49488763
103	19	0	0	90	36.1581920903955	36.241610738255	7	0.233349536079913	2	2	6	NaN	1	3	0.135790103959126	1	1	NaN	336	6	21	2	121	221	321	NaN	521	1.22114361729473	1	1	NaN	3626715.8948974	NaN	3626716.878636	3626717.39517378
103	19	0	0	90	36.1581920903955	36.241610738255	20	0.666712960228324	2	10	2	NaN	2	4	0.135790103959126	1	1	NaN	337	6	22	2	121	221	321	NaN	521	1.07184286927804	2	1	NaN	3626719.4289042	NaN	3626720.4123109	3626720.92885013
103	19	0	0	90	36.1581920903955	36.241610738255	17	0.566706016194075	2	9	1	NaN	2	5	0.135790103959126	1	1	NaN	338	6	23	2	121	221	321	NaN	521	0.0103929224424064	2	1	NaN	3626722.8125799	NaN	3626723.7959467	3626724.31252628
103	19	0	0	90	36.1581920903955	36.241610738255	24	0.800055552273989	2	6	4	NaN	1	4	0.135790103959126	1	1	NaN	339	6	24	2	121	221	321	NaN	521	0.162278817500919	1	1	NaN	3626725.1461479	NaN	3626726.1295316	3626726.64608558
103	19	0	0	90	36.1581920903955	36.241610738255	15	0.500034720171243	2	9	2	NaN	2	5	0.135790103959126	1	1	NaN	340	6	25	2	121	221	321	NaN	521	1.36668546916917	2	1	NaN	3626727.6296795	NaN	3626728.6131123	3626729.12965593
103	19	0	0	90	36.1581920903955	36.241610738255	10	0.333356480114162	2	5	1	NaN	1	3	0.135790103959126	1	1	NaN	341	6	26	2	121	221	321	NaN	521	0.0103933219797909	1	1	NaN	3626731.3134154	NaN	3626732.2968142	3626732.81336248
103	19	0	0	90	36.1581920903955	36.241610738255	14	0.466699072159827	2	6	1	NaN	1	4	0.135790103959126	1	1	NaN	342	6	27	2	121	221	321	NaN	521	0.0104049690999091	1	1	NaN	3626733.630177	NaN	3626734.6136899	3626735.13025243
103	19	0	0	90	36.1581920903955	36.241610738255	14	0.466699072159827	2	3	5	NaN	1	5	0.135790103959126	1	1	NaN	343	6	28	2	121	221	321	NaN	521	0.254655327647924	1	1	NaN	3626739.5974383	NaN	3626740.5809481	3626741.09751447
103	19	0	0	90	36.1581920903955	36.241610738255	14	0.466699072159827	2	12	4	NaN	2	3	0.135790103959126	1	1	NaN	344	6	29	2	121	221	321	NaN	521	0.283140269573778	2	1	NaN	3626743.6812672	NaN	3626744.6646938	3626745.18123123
103	19	0	0	90	36.1581920903955	36.241610738255	9	0.300020832102746	2	11	1	NaN	2	5	0.135790103959126	1	1	NaN	345	6	30	2	121	221	321	NaN	521	0.415812017396092	2	1	NaN	3626746.5642337	NaN	3626747.5482979	3626748.06485538
103	19	0	0	90	36.1581920903955	36.241610738255	0	0	1	9	6	NaN	2	3	0.135790103959126	1	1	NaN	346	6	31	2	111	211	311	NaN	511	0.0499660219065845	2	1	NaN	3626749.298497	NaN	3626750.2819127	3626750.79845088
103	19	0	0	90	36.1581920903955	36.241610738255	23	0.766719904262573	2	7	1	NaN	2	5	0.135790103959126	1	1	NaN	347	6	32	2	121	221	321	NaN	521	0.0104065695777535	2	1	NaN	3626752.0821338	NaN	3626753.0655039	3626753.58205933
103	19	0	0	90	36.1581920903955	36.241610738255	17	0.566706016194075	2	10	2	NaN	2	3	0.135790103959126	1	1	NaN	348	6	33	2	121	221	321	NaN	521	0.124780721962452	2	1	NaN	3626754.4156715	NaN	3626755.3990755	3626755.91562208
103	19	0	0	90	36.1581920903955	36.241610738255	11	0.366692128125578	2	1	6	NaN	1	5	0.135790103959126	1	1	NaN	349	6	34	2	121	221	321	NaN	521	1.77153541753069	2	0	NaN	3626756.849248	NaN	3626757.8326421	3626758.34921018
103	19	0	0	90	36.1581920903955	36.241610738255	7	0.233349536079913	2	9	6	NaN	2	4	0.135790103959126	1	1	NaN	350	6	35	2	121	221	321	NaN	521	0.0104077695868909	2	1	NaN	3626760.9329607	NaN	3626761.9163772	3626762.43292563
103	19	0	0	90	36.1581920903955	36.241610738255	7	0.233349536079913	2	12	1	NaN	2	5	0.135790103959126	1	1	NaN	351	6	36	2	121	221	321	NaN	521	0.0103948218747973	2	1	NaN	3626763.2498667	NaN	3626764.2332669	3626764.74982498
103	19	0	0	90	36.1581920903955	36.241610738255	21	0.70004860823974	2	1	6	NaN	1	5	0.135790103959126	1	1	NaN	352	6	37	2	121	221	321	NaN	521	2.42117272224277	2	0	NaN	3626765.5834343	NaN	3626766.5668379	3626767.08339238
103	19	0	0	90	36.1581920903955	36.241610738255	6	0.200013888068497	2	11	3	NaN	2	3	0.135790103959126	1	1	NaN	353	6	38	2	121	221	321	NaN	521	0.599560869857669	2	1	NaN	3626770.3172104	NaN	3626771.300632	3626771.81718103
103	19	0	0	90	36.1581920903955	36.241610738255	19	0.633377312216908	2	3	1	NaN	1	4	0.135790103959126	1	1	NaN	354	6	39	2	121	221	321	NaN	521	0.810621589887887	1	1	NaN	3626773.2341844	NaN	3626774.2175761	3626774.73416191
103	19	0	0	90	36.1581920903955	36.241610738255	11	0.366692128125578	2	2	4	NaN	1	3	0.135790103959126	1	1	NaN	355	6	40	2	121	221	321	NaN	521	0.253666817210615	1	1	NaN	3626776.3511575	NaN	3626777.3345587	3626777.85111268
103	19	0	0	90	36.1581920903955	36.241610738255	7	0.233349536079913	2	4	5	NaN	1	4	0.135790103959126	1	1	NaN	356	6	41	2	121	221	321	NaN	521	2.63072812231258	1	1	NaN	3626778.9179758	NaN	3626779.9014819	3626780.41803218
103	19	0	0	90	36.1581920903955	36.241610738255	20	0.666712960228324	2	12	1	NaN	2	4	0.135790103959126	1	1	NaN	357	6	42	2	121	221	321	NaN	521	0.239889737218618	2	1	NaN	3626783.8685705	NaN	3626784.8519488	3626785.36851956
103	19	0	0	90	36.1581920903955	36.241610738255	19	0.633377312216908	2	6	6	NaN	1	3	0.135790103959126	1	1	NaN	358	6	43	2	121	221	321	NaN	521	0.689446137752384	1	1	NaN	3626786.4188466	NaN	3626787.4022197	3626787.91876346
103	19	0	0	90	36.1581920903955	36.241610738255	16	0.533370368182659	2	8	2	NaN	2	3	0.135790103959126	1	1	NaN	359	6	44	2	121	221	321	NaN	521	0.276906569488347	2	1	NaN	3626792.7195069	NaN	3626793.7028301	3626794.21938393
103	19	0	0	90	36.1581920903955	36.241610738255	16	0.533370368182659	2	5	6	NaN	1	3	0.135790103959126	1	1	NaN	360	6	45	2	121	221	321	NaN	521	0.316811817232519	2	0	NaN	3626795.3196868	NaN	3626796.3030911	3626796.81963718
103	19	0	0	90	36.1581920903955	36.241610738255	16	0.533370368182659	2	2	5	NaN	1	5	0.135790103959126	1	1	NaN	361	6	46	2	121	221	321	NaN	521	2.03519721701741	2	0	NaN	3626797.9532863	NaN	3626798.9367033	3626799.45323428
103	19	0	0	90	36.1581920903955	36.241610738255	12	0.400027776136994	2	10	1	NaN	2	5	0.135790103959126	1	1	NaN	362	6	47	2	121	221	321	NaN	521	0.196828922256827	2	1	NaN	3626802.3035836	NaN	3626803.2870839	3626803.80366678
103	19	0	0	90	36.1581920903955	36.241610738255	17	0.566706016194075	2	7	6	NaN	2	4	0.135790103959126	1	1	NaN	363	6	48	2	121	221	321	NaN	521	7.12889246921986	2	1	NaN	3626804.8039539	NaN	3626805.7873294	3626806.30390503
103	19	0	0	90	36.1581920903955	36.241610738255	24	0.800055552273989	2	12	6	NaN	2	4	0.135790103959126	1	1	NaN	364	6	49	2	121	221	321	NaN	521	0.555638184770942	2	1	NaN	3626814.3048563	NaN	3626815.2882897	3626815.80484502
103	19	0	0	90	36.1581920903955	36.241610738255	16	0.533370368182659	2	9	3	NaN	2	4	0.135790103959126	1	1	NaN	365	6	50	2	121	221	321	NaN	521	0.159741122275591	1	0	NaN	3626817.2051973	NaN	3626818.1885776	3626818.70512398
103	19	0	0	90	36.1581920903955	36.241610738255	19	0.633377312216908	2	1	1	NaN	1	3	0.135790103959126	1	1	NaN	366	6	51	2	121	221	321	NaN	521	0.183761722408235	1	1	NaN	3626820.1887902	NaN	3626821.1721942	3626821.68875538
103	19	0	0	90	36.1581920903955	36.241610738255	25	0.833391200285405	2	11	5	NaN	2	3	0.135790103959126	1	1	NaN	367	6	52	2	121	221	321	NaN	521	1.14733142219484	1	0	NaN	3626822.6890657	NaN	3626823.6724382	3626824.18900168
103	19	0	0	90	36.1581920903955	36.241610738255	15	0.500034720171243	2	4	1	NaN	1	3	0.135790103959126	1	1	NaN	368	6	53	2	121	221	321	NaN	521	0.184363169595599	1	1	NaN	3626826.356039	NaN	3626827.3394328	3626827.85601883
103	19	0	0	90	36.1581920903955	36.241610738255	12	0.400027776136994	2	2	2	NaN	1	4	0.135790103959126	1	1	NaN	369	6	54	2	121	221	321	NaN	521	0.1241948697716	1	1	NaN	3626828.8563092	NaN	3626829.8396007	3626830.35627143
103	19	0	0	90	36.1581920903955	36.241610738255	6	0.200013888068497	2	9	5	NaN	2	5	0.135790103959126	1	1	NaN	370	6	55	2	121	221	321	NaN	521	0.24287942238152	2	1	NaN	3626831.2897646	NaN	3626832.2732874	3626832.78983868
103	19	0	0	90	36.1581920903955	36.241610738255	22	0.733384256251156	2	1	3	NaN	1	5	0.135790103959126	1	1	NaN	371	6	56	2	121	221	321	NaN	521	2.66044296929613	1	1	NaN	3626833.8401421	NaN	3626834.8235333	3626835.34008423
103	19	0	0	90	36.1581920903955	36.241610738255	9	0.300020832102746	2	2	1	NaN	1	3	0.135790103959126	1	1	NaN	372	6	57	2	121	221	321	NaN	521	2.82945586973801	2	0	NaN	3626838.807306	NaN	3626839.7906951	3626840.30724093
103	19	0	0	90	36.1581920903955	36.241610738255	12	0.400027776136994	2	12	6	NaN	2	5	0.135790103959126	1	1	NaN	373	6	58	2	121	221	321	NaN	521	0.0874769743531942	2	1	NaN	3626843.9411326	NaN	3626844.9245594	3626845.44108883
103	19	0	0	90	36.1581920903955	36.241610738255	22	0.733384256251156	2	7	1	NaN	2	3	0.135790103959126	1	1	NaN	374	6	59	2	121	221	321	NaN	521	0.0103959222324193	2	1	NaN	3626846.3412161	NaN	3626847.3247963	3626847.84131948
103	19	0	0	90	36.1581920903955	36.241610738255	8	0.26668518409133	2	4	1	NaN	1	3	0.135790103959126	1	1	NaN	375	6	60	2	121	221	321	NaN	521	1.61760840006173	2	0	NaN	3626848.6749535	NaN	3626849.6583322	3626850.1748959
103	19	0	0	90	36.1581920903955	36.241610738255	10	0.333356480114162	2	12	3	NaN	2	4	0.135790103959126	1	1	NaN	376	6	61	2	121	221	321	NaN	521	0.0919580175541341	2	1	NaN	3626852.6086704	NaN	3626853.5921044	3626854.10860458
103	19	0	0	90	36.1581920903955	36.241610738255	15	0.500034720171243	2	11	1	NaN	2	4	0.135790103959126	1	1	NaN	377	6	62	2	121	221	321	NaN	521	1.36376636987552	2	1	NaN	3626855.0087666	NaN	3626855.992284	3626856.50882913
103	19	0	0	90	36.1581920903955	36.241610738255	9	0.300020832102746	2	11	6	NaN	2	4	0.135790103959126	1	1	NaN	378	6	63	2	121	221	321	NaN	521	0.205307722557336	2	1	NaN	3626858.9592606	NaN	3626859.9426536	3626860.45922868
103	19	0	0	90	36.1581920903955	36.241610738255	6	0.200013888068497	2	1	1	NaN	1	3	0.135790103959126	1	1	NaN	379	7	1	2	121	221	321	NaN	521	0.202738821972162	1	1	NaN	3626866.4099704	NaN	3626867.3933873	3626867.90995518
103	19	0	0	90	36.1581920903955	36.241610738255	14	0.466699072159827	2	12	6	NaN	2	5	0.135790103959126	1	1	NaN	380	7	2	2	121	221	321	NaN	521	0.154793621972203	2	1	NaN	3626869.3935947	NaN	3626870.3770261	3626870.89358308
103	19	0	0	90	36.1581920903955	36.241610738255	24	0.800055552273989	2	10	3	NaN	2	5	0.135790103959126	1	1	NaN	381	7	3	2	121	221	321	NaN	521	0.455864722374827	2	1	NaN	3626871.8605624	NaN	3626872.8439237	3626873.36048388
103	19	0	0	90	36.1581920903955	36.241610738255	19	0.633377312216908	2	3	6	NaN	1	4	0.135790103959126	1	1	NaN	382	7	4	2	121	221	321	NaN	521	0.390046769287437	1	1	NaN	3626874.7107948	NaN	3626875.6942152	3626876.21076533
103	19	0	0	90	36.1581920903955	36.241610738255	23	0.766719904262573	2	1	3	NaN	1	5	0.135790103959126	1	1	NaN	383	7	5	2	121	221	321	NaN	521	0.742674479726702	1	1	NaN	3626877.8776692	NaN	3626878.8612033	3626879.37774492
103	19	0	0	90	36.1581920903955	36.241610738255	17	0.566706016194075	2	3	3	NaN	1	3	0.135790103959126	1	1	NaN	384	7	6	2	121	221	321	NaN	521	0.284803669434041	1	1	NaN	3626880.9280909	NaN	3626881.9114826	3626882.42804093
103	19	0	0	90	36.1581920903955	36.241610738255	7	0.233349536079913	2	5	3	NaN	1	4	0.135790103959126	1	1	NaN	385	7	7	2	121	221	321	NaN	521	0.276444721966982	1	1	NaN	3626883.528381	NaN	3626884.5117861	3626885.02829598
103	19	0	0	90	36.1581920903955	36.241610738255	20	0.666712960228324	2	5	5	NaN	1	4	0.135790103959126	1	1	NaN	386	7	8	2	121	221	321	NaN	521	1.33255232218653	2	0	NaN	3626886.1118276	NaN	3626887.0953477	3626887.61188718
103	19	0	0	90	36.1581920903955	36.241610738255	8	0.26668518409133	2	5	3	NaN	1	3	0.135790103959126	1	1	NaN	387	7	9	2	121	221	321	NaN	521	0.266599021852016	2	0	NaN	3626889.7623014	NaN	3626890.7457029	3626891.26225208
103	19	0	0	90	36.1581920903955	36.241610738255	18	0.600041664205492	2	10	5	NaN	2	3	0.135790103959126	1	1	NaN	388	7	10	2	121	221	321	NaN	521	0.0104064699262381	2	1	NaN	3626892.3458909	NaN	3626893.3292664	3626893.84582923
103	19	0	0	90	36.1581920903955	36.241610738255	21	0.70004860823974	2	2	5	NaN	1	5	0.135790103959126	1	1	NaN	389	7	11	2	121	221	321	NaN	521	0.010400622151792	1	1	NaN	3626894.6794493	NaN	3626895.6628794	3626896.17939438
103	19	0	0	90	36.1581920903955	36.241610738255	12	0.400027776136994	2	10	4	NaN	2	4	0.135790103959126	1	1	NaN	390	7	12	2	121	221	321	NaN	521	0.0802642218768597	2	1	NaN	3626896.9963474	NaN	3626897.9797381	3626898.49629768
103	19	0	0	90	36.1581920903955	36.241610738255	20	0.666712960228324	2	12	5	NaN	2	5	0.135790103959126	1	1	NaN	391	7	13	2	121	221	321	NaN	521	0.0104404222220182	2	1	NaN	3626899.3799119	NaN	3626900.3633118	3626900.87985768
103	19	0	0	90	36.1581920903955	36.241610738255	0	0	1	10	2	NaN	2	5	0.135790103959126	1	1	NaN	392	7	14	2	111	211	311	NaN	511	0.0103913219645619	2	1	NaN	3626901.7134789	NaN	3626902.6968649	3626903.21341668
103	19	0	0	90	36.1581920903955	36.241610738255	10	0.333356480114162	2	3	1	NaN	1	3	0.135790103959126	1	1	NaN	393	7	15	2	121	221	321	NaN	521	0.261500922031701	1	1	NaN	3626904.0470093	NaN	3626905.0304851	3626905.54698728
103	19	0	0	90	36.1581920903955	36.241610738255	15	0.500034720171243	2	7	2	NaN	2	3	0.135790103959126	1	1	NaN	394	7	16	2	121	221	321	NaN	521	0.334913922008127	1	0	NaN	3626906.6138775	NaN	3626907.5973492	3626908.11390608
103	19	0	0	90	36.1581920903955	36.241610738255	7	0.233349536079913	2	6	5	NaN	1	5	0.135790103959126	1	1	NaN	395	7	17	2	121	221	321	NaN	521	0.188620469532907	2	0	NaN	3626909.2641935	NaN	3626910.2476591	3626910.76415633
103	19	0	0	90	36.1581920903955	36.241610738255	21	0.70004860823974	2	6	2	NaN	1	3	0.135790103959126	1	1	NaN	396	7	18	2	121	221	321	NaN	521	0.608554021921009	1	1	NaN	3626911.7644856	NaN	3626912.7478719	3626913.26440358
103	19	0	0	90	36.1581920903955	36.241610738255	7	0.233349536079913	2	7	6	NaN	2	5	0.135790103959126	1	1	NaN	397	7	19	2	121	221	321	NaN	521	0.4832997424528	1	0	NaN	3626914.6812893	NaN	3626915.6648157	3626916.18136596
103	19	0	0	90	36.1581920903955	36.241610738255	10	0.333356480114162	2	2	4	NaN	1	4	0.135790103959126	1	1	NaN	398	7	20	2	121	221	321	NaN	521	0.138845769688487	1	1	NaN	3626917.481562	NaN	3626918.4650763	3626918.98163513
103	19	0	0	90	36.1581920903955	36.241610738255	18	0.600041664205492	2	9	1	NaN	2	3	0.135790103959126	1	1	NaN	399	7	21	2	121	221	321	NaN	521	1.02294962201267	2	1	NaN	3626920.181839	NaN	3626921.16536	3626921.68189838
103	19	0	0	90	36.1581920903955	36.241610738255	8	0.26668518409133	2	12	2	NaN	2	4	0.135790103959126	1	1	NaN	400	7	22	2	121	221	321	NaN	521	0.874543622136116	2	1	NaN	3626934.849995	NaN	3626935.8334576	3626936.35000348
103	19	0	0	90	36.1581920903955	36.241610738255	16	0.533370368182659	2	6	4	NaN	1	4	0.135790103959126	1	1	NaN	401	7	23	2	121	221	321	NaN	521	0.32355732191354	1	1	NaN	3626939.2171333	NaN	3626940.2005511	3626940.71709788
103	19	0	0	90	36.1581920903955	36.241610738255	10	0.333356480114162	2	4	3	NaN	1	3	0.135790103959126	1	1	NaN	402	7	24	2	121	221	321	NaN	521	1.24994611740112	1	1	NaN	3626941.8507403	NaN	3626942.8341538	3626943.35069468
103	19	0	0	90	36.1581920903955	36.241610738255	23	0.766719904262573	2	11	3	NaN	2	4	0.135790103959126	1	1	NaN	403	7	25	2	121	221	321	NaN	521	1.05479846987873	1	0	NaN	3626946.1174208	NaN	3626947.1012302	3626947.61778203
103	19	0	0	90	36.1581920903955	36.241610738255	14	0.466699072159827	2	11	5	NaN	2	3	0.135790103959126	1	1	NaN	404	7	26	2	121	221	321	NaN	521	0.306705717463046	2	1	NaN	3626949.8181552	NaN	3626950.8015993	3626951.31813548
103	19	0	0	90	36.1581920903955	36.241610738255	17	0.566706016194075	2	12	5	NaN	2	3	0.135790103959126	1	1	NaN	405	7	27	2	121	221	321	NaN	521	0.401921174488962	2	1	NaN	3626952.4351127	NaN	3626953.4185021	3626953.93506023
103	19	0	0	90	36.1581920903955	36.241610738255	22	0.733384256251156	2	9	6	NaN	2	5	0.135790103959126	1	1	NaN	406	7	28	2	121	221	321	NaN	521	0.250148069579154	2	1	NaN	3626955.618726	NaN	3626956.6021532	3626957.11872043
103	19	0	0	90	36.1581920903955	36.241610738255	10	0.333356480114162	2	9	4	NaN	2	3	0.135790103959126	1	1	NaN	407	7	29	2	121	221	321	NaN	521	0.201395722106099	2	1	NaN	3626958.6357523	NaN	3626959.6191151	3626960.13567648
103	19	0	0	90	36.1581920903955	36.241610738255	21	0.70004860823974	2	9	1	NaN	2	5	0.135790103959126	1	1	NaN	408	7	30	2	121	221	321	NaN	521	0.324170622508973	1	0	NaN	3626961.1526347	NaN	3626962.1360429	3626962.65258438
103	19	0	0	90	36.1581920903955	36.241610738255	6	0.200013888068497	2	4	6	NaN	1	5	0.135790103959126	1	1	NaN	409	7	31	2	121	221	321	NaN	521	0.297094269189984	1	1	NaN	3626963.8195511	NaN	3626964.802962	3626965.31951133
103	19	0	0	90	36.1581920903955	36.241610738255	0	0	1	5	3	NaN	1	3	0.135790103959126	1	1	NaN	410	7	32	2	111	211	311	NaN	511	0.288276722189039	1	1	NaN	3626966.4365072	NaN	3626967.4198961	3626967.93644358
103	19	0	0	90	36.1581920903955	36.241610738255	18	0.600041664205492	2	7	5	NaN	2	3	0.135790103959126	1	1	NaN	411	7	33	2	121	221	321	NaN	521	0.276287064887583	2	1	NaN	3626969.136662	NaN	3626970.1201502	3626970.63669764
103	19	0	0	90	36.1581920903955	36.241610738255	22	0.733384256251156	2	2	6	NaN	1	5	0.135790103959126	1	1	NaN	412	7	34	2	121	221	321	NaN	521	0.402272069361061	1	1	NaN	3626972.7704095	NaN	3626973.7538429	3626974.27039183
103	19	0	0	90	36.1581920903955	36.241610738255	22	0.733384256251156	2	11	6	NaN	2	3	0.135790103959126	1	1	NaN	413	7	35	2	121	221	321	NaN	521	0.173152569215745	2	1	NaN	3626975.487377	NaN	3626976.4707521	3626976.98733523
103	19	0	0	90	36.1581920903955	36.241610738255	14	0.466699072159827	2	10	6	NaN	2	4	0.135790103959126	1	1	NaN	414	7	36	2	121	221	321	NaN	521	0.498840922489762	2	1	NaN	3626978.9375923	NaN	3626979.9211287	3626980.43767248
103	19	0	0	90	36.1581920903955	36.241610738255	20	0.666712960228324	2	3	3	NaN	1	4	0.135790103959126	1	1	NaN	415	7	37	2	121	221	321	NaN	521	1.69796946970746	2	0	NaN	3626981.7546849	NaN	3626982.7380584	3626983.25460723
103	19	0	0	90	36.1581920903955	36.241610738255	25	0.833391200285405	2	7	2	NaN	2	3	0.135790103959126	1	1	NaN	416	7	38	2	121	221	321	NaN	521	7.54495212202892	2	1	NaN	3626985.7717587	NaN	3626986.7551011	3626987.27167888
103	19	0	0	90	36.1581920903955	36.241610738255	21	0.70004860823974	2	11	6	NaN	2	3	0.135790103959126	1	1	NaN	417	7	39	2	121	221	321	NaN	521	0.0104398648254573	2	1	NaN	3626995.6392335	NaN	3626996.6227568	3626997.13929834
103	19	0	0	90	36.1581920903955	36.241610738255	14	0.466699072159827	2	1	3	NaN	1	3	0.135790103959126	1	1	NaN	418	7	40	2	121	221	321	NaN	521	0.350638021714985	1	1	NaN	3627000.0064208	NaN	3627000.9898619	3627001.50640288
103	19	0	0	90	36.1581920903955	36.241610738255	14	0.466699072159827	2	11	1	NaN	2	5	0.135790103959126	1	1	NaN	419	7	41	2	121	221	321	NaN	521	0.203695769887418	2	1	NaN	3627002.6733829	NaN	3627003.6566753	3627004.17332713
103	19	0	0	90	36.1581920903955	36.241610738255	18	0.600041664205492	2	8	1	NaN	2	3	0.135790103959126	1	1	NaN	420	7	42	2	121	221	321	NaN	521	0.0224774219095707	2	1	NaN	3627005.1902851	NaN	3627006.1736948	3627006.69024548
103	19	0	0	90	36.1581920903955	36.241610738255	19	0.633377312216908	2	8	3	NaN	2	5	0.135790103959126	1	1	NaN	421	7	43	2	121	221	321	NaN	521	0.344888969324529	1	0	NaN	3627007.5238572	NaN	3627008.5072482	3627009.02380093
103	19	0	0	90	36.1581920903955	36.241610738255	20	0.666712960228324	2	6	1	NaN	1	3	0.135790103959126	1	1	NaN	422	7	44	2	121	221	321	NaN	521	0.654930822085589	1	1	NaN	3627010.1741112	NaN	3627011.157522	3627011.67406538
103	19	0	0	90	36.1581920903955	36.241610738255	22	0.733384256251156	2	2	6	NaN	1	5	0.135790103959126	1	1	NaN	423	7	45	2	121	221	321	NaN	521	0.194704417139292	1	1	NaN	3627013.2744449	NaN	3627014.2578228	3627014.77437728
103	19	0	0	90	36.1581920903955	36.241610738255	18	0.600041664205492	2	4	5	NaN	1	3	0.135790103959126	1	1	NaN	424	7	46	2	121	221	321	NaN	521	0.0103901224210858	1	1	NaN	3627016.1246741	NaN	3627017.1081076	3627017.62465318
103	19	0	0	90	36.1581920903955	36.241610738255	19	0.633377312216908	2	4	3	NaN	1	5	0.135790103959126	1	1	NaN	425	7	47	2	121	221	321	NaN	521	1.67437401693314	1	1	NaN	3627018.458258	NaN	3627019.4416643	3627019.95821138
103	19	0	0	90	36.1581920903955	36.241610738255	9	0.300020832102746	2	6	2	NaN	1	4	0.135790103959126	1	1	NaN	426	7	48	2	121	221	321	NaN	521	1.97884402191266	1	1	NaN	3627022.441979	NaN	3627023.4253963	3627023.94194408
103	19	0	0	90	36.1581920903955	36.241610738255	14	0.466699072159827	2	1	5	NaN	1	5	0.135790103959126	1	1	NaN	427	7	49	2	121	221	321	NaN	521	0.310465265065432	1	1	NaN	3627026.7424347	NaN	3627027.7258089	3627028.24235264
103	19	0	0	90	36.1581920903955	36.241610738255	23	0.766719904262573	2	4	3	NaN	1	5	0.135790103959126	1	1	NaN	428	7	50	2	121	221	321	NaN	521	0.221515222452581	1	1	NaN	3627029.3593307	NaN	3627030.3427327	3627030.85928288
103	19	0	0	90	36.1581920903955	36.241610738255	16	0.533370368182659	2	7	3	NaN	2	3	0.135790103959126	1	1	NaN	429	7	51	2	121	221	321	NaN	521	5.63987552234903	1	0	NaN	3627031.8929097	NaN	3627032.8763088	3627033.39286688
103	19	0	0	90	36.1581920903955	36.241610738255	11	0.366692128125578	2	10	2	NaN	2	4	0.135790103959126	1	1	NaN	430	7	52	2	121	221	321	NaN	521	0.0103887221775949	2	1	NaN	3627039.8437041	NaN	3627040.8270979	3627041.34364218
103	19	0	0	90	36.1581920903955	36.241610738255	20	0.666712960228324	2	4	4	NaN	1	4	0.135790103959126	1	1	NaN	431	7	53	2	121	221	321	NaN	521	0.14768201764673	1	1	NaN	3627042.1772738	NaN	3627043.1606522	3627043.67721418
103	19	0	0	90	36.1581920903955	36.241610738255	16	0.533370368182659	2	3	1	NaN	1	3	0.135790103959126	1	1	NaN	432	7	54	2	121	221	321	NaN	521	0.384582922328264	1	1	NaN	3627044.6441628	NaN	3627045.627557	3627046.14411658
103	19	0	0	90	36.1581920903955	36.241610738255	13	0.433363424148411	2	2	1	NaN	1	4	0.135790103959126	1	1	NaN	433	7	55	2	121	221	321	NaN	521	0.111349022481591	1	1	NaN	3627049.8613573	NaN	3627050.8447491	3627051.36129208
103	19	0	0	90	36.1581920903955	36.241610738255	17	0.566706016194075	2	1	1	NaN	1	4	0.135790103959126	1	1	NaN	434	7	56	2	121	221	321	NaN	521	0.190578822046518	1	1	NaN	3627052.2783483	NaN	3627053.2616519	3627053.77820298
103	19	0	0	90	36.1581920903955	36.241610738255	22	0.733384256251156	2	3	4	NaN	1	5	0.135790103959126	1	1	NaN	435	7	57	2	121	221	321	NaN	521	0.778641369659454	1	1	NaN	3627054.7785058	NaN	3627055.7619201	3627056.27844013
103	19	0	0	90	36.1581920903955	36.241610738255	0	0	1	3	5	NaN	1	4	0.135790103959126	1	1	NaN	436	7	58	2	111	211	311	NaN	511	0.0701204370707273	1	1	NaN	3627057.8788046	NaN	3627058.8622022	3627059.37875426
103	19	0	0	90	36.1581920903955	36.241610738255	19	0.633377312216908	2	4	5	NaN	1	5	0.135790103959126	1	1	NaN	437	7	59	2	121	221	321	NaN	521	0.302534522488713	1	1	NaN	3627060.262365	NaN	3627061.245761	3627061.76231988
103	19	0	0	90	36.1581920903955	36.241610738255	16	0.533370368182659	2	10	6	NaN	2	3	0.135790103959126	1	1	NaN	438	7	60	2	121	221	321	NaN	521	0.0103944223374128	2	1	NaN	3627062.8793185	NaN	3627063.8626821	3627064.37924758
103	19	0	0	90	36.1581920903955	36.241610738255	17	0.566706016194075	2	10	3	NaN	2	4	0.135790103959126	1	1	NaN	439	7	61	2	121	221	321	NaN	521	0.13673342205584	2	1	NaN	3627065.1961908	NaN	3627066.17961	3627066.69614238
103	19	0	0	90	36.1581920903955	36.241610738255	25	0.833391200285405	2	5	4	NaN	1	5	0.135790103959126	1	1	NaN	440	7	62	2	121	221	321	NaN	521	0.308043022174388	1	1	NaN	3627067.9130903	NaN	3627068.8965163	3627069.41306638
103	19	0	0	90	36.1581920903955	36.241610738255	18	0.600041664205492	2	12	3	NaN	2	3	0.135790103959126	1	1	NaN	441	7	63	2	121	221	321	NaN	521	0.442739369813353	2	1	NaN	3627070.5300411	NaN	3627071.5135438	3627072.02999473
103	19	0	0	90	36.1581920903955	36.241610738255	24	0.800055552273989	2	1	6	NaN	1	4	0.135790103959126	1	1	NaN	442	8	1	2	121	221	321	NaN	521	1.2720989221707	1	1	NaN	3627075.397184	NaN	3627076.3805777	3627076.89714358
103	19	0	0	90	36.1581920903955	36.241610738255	13	0.433363424148411	2	3	2	NaN	1	3	0.135790103959126	1	1	NaN	443	8	2	2	121	221	321	NaN	521	0.0103969695046544	1	1	NaN	3627078.9808662	NaN	3627079.9642903	3627080.48081783
103	19	0	0	90	36.1581920903955	36.241610738255	6	0.200013888068497	2	12	4	NaN	2	4	0.135790103959126	1	1	NaN	444	8	3	2	121	221	321	NaN	521	0.730337869375944	2	1	NaN	3627081.3144369	NaN	3627082.2978395	3627082.81439193
103	19	0	0	90	36.1581920903955	36.241610738255	21	0.70004860823974	2	6	5	NaN	1	4	0.135790103959126	1	1	NaN	445	8	4	2	121	221	321	NaN	521	0.224406969733536	1	1	NaN	3627084.3647371	NaN	3627085.3481224	3627085.86468953
103	19	0	0	90	36.1581920903955	36.241610738255	12	0.400027776136994	2	2	2	NaN	1	3	0.135790103959126	1	1	NaN	446	8	5	2	121	221	321	NaN	521	0.100463969167322	1	1	NaN	3627087.2483362	NaN	3627088.2317493	3627088.74830703
103	19	0	0	90	36.1581920903955	36.241610738255	23	0.766719904262573	2	6	6	NaN	1	5	0.135790103959126	1	1	NaN	447	8	6	2	121	221	321	NaN	521	1.47592426976189	1	1	NaN	3627089.6652518	NaN	3627090.6486627	3627091.16520033
103	19	0	0	90	36.1581920903955	36.241610738255	15	0.500034720171243	2	3	1	NaN	1	4	0.135790103959126	1	1	NaN	448	8	7	2	121	221	321	NaN	521	2.73221323732287	2	0	NaN	3627093.4489907	NaN	3627094.4323466	3627094.94891566
103	19	0	0	90	36.1581920903955	36.241610738255	20	0.666712960228324	2	9	3	NaN	2	5	0.135790103959126	1	1	NaN	449	8	8	2	121	221	321	NaN	521	0.218452469445765	2	1	NaN	3627098.4828072	NaN	3627099.4661954	3627099.98273303
103	19	0	0	90	36.1581920903955	36.241610738255	15	0.500034720171243	2	12	4	NaN	2	4	0.135790103959126	1	1	NaN	450	8	9	2	121	221	321	NaN	521	0.137131821829826	2	1	NaN	3627101.0997157	NaN	3627102.0831049	3627102.59966238
103	19	0	0	90	36.1581920903955	36.241610738255	20	0.666712960228324	2	8	5	NaN	2	5	0.135790103959126	1	1	NaN	451	8	10	2	121	221	321	NaN	521	0.159539122134447	2	1	NaN	3627103.7332733	NaN	3627104.7166981	3627105.23325778
103	19	0	0	90	36.1581920903955	36.241610738255	21	0.70004860823974	2	5	1	NaN	1	3	0.135790103959126	1	1	NaN	452	8	11	2	121	221	321	NaN	521	0.181033022236079	1	1	NaN	3627106.2002275	NaN	3627107.1836014	3627107.70016398
103	19	0	0	90	36.1581920903955	36.241610738255	18	0.600041664205492	2	1	2	NaN	1	3	0.135790103959126	1	1	NaN	453	8	12	2	121	221	321	NaN	521	0.208184821996838	1	1	NaN	3627109.3005001	NaN	3627110.2838907	3627110.80047238
103	19	0	0	90	36.1581920903955	36.241610738255	13	0.433363424148411	2	11	5	NaN	2	3	0.135790103959126	1	1	NaN	454	8	13	2	121	221	321	NaN	521	0.634944017510861	1	0	NaN	3627112.4340347	NaN	3627113.4175523	3627113.93411148
103	19	0	0	90	36.1581920903955	36.241610738255	17	0.566706016194075	2	4	3	NaN	1	4	0.135790103959126	1	1	NaN	455	8	14	2	121	221	321	NaN	521	0.0883886218070984	1	1	NaN	3627115.4844299	NaN	3627116.467838	3627116.98441068
103	19	0	0	90	36.1581920903955	36.241610738255	10	0.333356480114162	2	9	5	NaN	2	3	0.135790103959126	1	1	NaN	456	8	15	2	121	221	321	NaN	521	0.201801469549537	2	1	NaN	3627119.4515623	NaN	3627120.4349084	3627120.95145853
103	19	0	0	90	36.1581920903955	36.241610738255	19	0.633377312216908	2	12	3	NaN	2	3	0.135790103959126	1	1	NaN	457	8	16	2	121	221	321	NaN	521	0.229834669735283	2	1	NaN	3627122.3351576	NaN	3627123.3185421	3627123.83507333
103	19	0	0	90	36.1581920903955	36.241610738255	23	0.766719904262573	2	2	4	NaN	1	3	0.135790103959126	1	1	NaN	458	8	17	2	121	221	321	NaN	521	0.0104273692704737	1	1	NaN	3627124.8853828	NaN	3627125.8687769	3627126.38533553
