subjno	age	gender	isPractice	viewdist	CmToPixX	CmToPixY	SOA_frm	SOA_time	targNum	targID	targExample	targRace	targGender	firstTargPos	contrast	familiarity	curr_staircase	iStair	TrialNum	BlockNum	blktrl	sessionNum	TC_FIXATION	TC_RSVP_START	TC_RSVP_END	TC_BLANK	TC_RESPONSE_ONSET	RT2afc	resp_2afc	acc	RSVPOnsetVBL	RSVPOnsetTime	RSVPOffsetVBL	RSVPOffsetTime	startrt_2afc
64	21	0	0	90	36.1581920903955	36.241610738255	23	0.766716408021748	2	10	2	NaN	2	5	0.0441215250327206	1	1	NaN	1	1	1	1	121	221	321	NaN	521	0.546634263824672	1	0	NaN	3112058.5372611	NaN	3112059.5205235	3112060.05364984
64	21	0	0	90	36.1581920903955	36.241610738255	0	0	1	2	5	NaN	1	4	0.0441215250327206	1	1	NaN	2	1	2	1	111	211	311	NaN	511	1.38954542623833	2	0	NaN	3112061.4541941	NaN	3112062.4374746	3112062.97061127
64	21	0	0	90	36.1581920903955	36.241610738255	7	0.233348472006619	2	12	1	NaN	2	4	0.0441215250327206	1	1	NaN	3	1	3	1	121	221	321	NaN	521	0.634322931524366	1	0	NaN	3112066.3377761	NaN	3112067.3212049	3112067.83775517
64	21	0	0	90	36.1581920903955	36.241610738255	13	0.433361448012292	2	12	5	NaN	2	4	0.0441215250327206	1	1	NaN	4	1	4	1	121	221	321	NaN	521	0.332393589429557	2	1	NaN	3112069.2880979	NaN	3112070.2715034	3112070.78804631
64	21	0	0	90	36.1581920903955	36.241610738255	18	0.60003892801702	2	10	3	NaN	2	5	0.0441215250327206	1	1	NaN	5	1	5	1	121	221	321	NaN	521	0.161699121352285	2	1	NaN	3112071.9383483	NaN	3112072.9217511	3112073.43831018
64	21	0	0	90	36.1581920903955	36.241610738255	21	0.700045416019857	2	1	5	NaN	1	3	0.0441215250327206	1	1	NaN	6	1	6	1	121	221	321	NaN	521	0.0863864691928029	2	0	NaN	3112074.421822	NaN	3112075.4052458	3112075.92188063
64	21	0	0	90	36.1581920903955	36.241610738255	10	0.333354960009456	2	11	4	NaN	2	3	0.0441215250327206	1	1	NaN	7	1	7	1	121	221	321	NaN	521	0.149345216806978	1	0	NaN	3112076.838828	NaN	3112077.8222614	3112078.33878818
64	21	0	0	90	36.1581920903955	36.241610738255	25	0.833387400023639	2	1	2	NaN	1	4	0.0441215250327206	1	1	NaN	8	1	8	1	121	221	321	NaN	521	0.0903696692548692	1	1	NaN	3112079.305617	NaN	3112080.2891338	3112080.80569653
64	21	0	0	90	36.1581920903955	36.241610738255	9	0.30001946400851	2	7	5	NaN	2	3	0.0441215250327206	1	1	NaN	9	1	9	1	121	221	321	NaN	521	0.0103978216648102	2	1	NaN	3112081.7226584	NaN	3112082.7060507	3112083.22260668
64	21	0	0	90	36.1581920903955	36.241610738255	13	0.433361448012292	2	6	5	NaN	1	4	0.0441215250327206	1	1	NaN	10	1	10	1	121	221	321	NaN	521	0.691894521471113	2	0	NaN	3112084.0562253	NaN	3112085.0396126	3112085.55616758
64	21	0	0	90	36.1581920903955	36.241610738255	11	0.366690456010401	2	6	3	NaN	1	3	0.0441215250327206	1	1	NaN	11	1	11	1	121	221	321	NaN	521	0.764989968854934	2	0	NaN	3112087.2231717	NaN	3112088.2066006	3112088.72313953
64	21	0	0	90	36.1581920903955	36.241610738255	19	0.633374424017966	2	8	1	NaN	2	5	0.0441215250327206	1	1	NaN	12	1	12	1	121	221	321	NaN	521	0.31325076892972	1	0	NaN	3112090.3068114	NaN	3112091.2902105	3112091.80677183
64	21	0	0	90	36.1581920903955	36.241610738255	13	0.433361448012292	2	3	6	NaN	1	4	0.0441215250327206	1	1	NaN	13	1	13	1	121	221	321	NaN	521	0.0104118692688644	1	1	NaN	3112092.9402775	NaN	3112093.9238186	3112094.44036263
64	21	0	0	90	36.1581920903955	36.241610738255	0	0	1	11	5	NaN	2	3	0.0441215250327206	1	1	NaN	14	1	14	1	111	211	311	NaN	511	0.0501867216080427	2	1	NaN	3112095.2739804	NaN	3112096.2573835	3112096.77393568
64	21	0	0	90	36.1581920903955	36.241610738255	15	0.500032440014184	2	3	6	NaN	1	5	0.0441215250327206	1	1	NaN	15	1	15	1	121	221	321	NaN	521	1.78560176864266	1	1	NaN	3112097.8909128	NaN	3112098.8743026	3112099.39084833
64	21	0	0	90	36.1581920903955	36.241610738255	13	0.433361448012292	2	9	1	NaN	2	5	0.0441215250327206	1	1	NaN	16	1	16	1	121	221	321	NaN	521	0.0102888895198703	2	1	NaN	3112103.8081275	NaN	3112104.7915721	3112105.30810931
64	21	0	0	90	36.1581920903955	36.241610738255	21	0.700045416019857	2	6	3	NaN	1	3	0.0441215250327206	1	1	NaN	17	1	17	1	121	221	321	NaN	521	0.283991116564721	1	1	NaN	3112107.0084536	NaN	3112107.9918566	3112108.50841238
64	21	0	0	90	36.1581920903955	36.241610738255	16	0.533367936015129	2	5	1	NaN	1	5	0.0441215250327206	1	1	NaN	18	1	18	1	121	221	321	NaN	521	0.395603969227523	2	0	NaN	3112109.6087213	NaN	3112110.5921323	3112111.10866853
64	21	0	0	90	36.1581920903955	36.241610738255	0	0	1	12	1	NaN	2	5	0.0441215250327206	1	1	NaN	19	1	19	1	111	211	311	NaN	511	0.942930421791971	2	1	NaN	3112112.3255826	NaN	3112113.3090667	3112113.82560988
64	21	0	0	90	36.1581920903955	36.241610738255	0	0	1	1	2	NaN	1	4	0.0441215250327206	1	1	NaN	20	1	20	1	111	211	311	NaN	511	0.3874899786897	2	0	NaN	3112115.5926425	NaN	3112116.5760386	3112117.09260602
64	21	0	0	90	36.1581920903955	36.241610738255	8	0.266683968007565	2	5	1	NaN	1	5	0.0441215250327206	1	1	NaN	21	1	21	1	121	221	321	NaN	521	0.983304384164512	1	1	NaN	3112118.2929378	NaN	3112119.2763109	3112119.79286002
64	21	0	0	90	36.1581920903955	36.241610738255	22	0.733380912020803	2	8	6	NaN	2	5	0.0441215250327206	1	1	NaN	22	1	22	1	121	221	321	NaN	521	0.666853642091155	1	0	NaN	3112121.5932676	NaN	3112122.5766307	3112123.09319676
64	21	0	0	90	36.1581920903955	36.241610738255	0	0	1	3	5	NaN	1	3	0.0441215250327206	1	1	NaN	23	1	23	1	111	211	311	NaN	511	0.0104061216115952	2	0	NaN	3112124.5768578	NaN	3112125.5602719	3112126.07681958
64	21	0	0	90	36.1581920903955	36.241610738255	15	0.500032440014184	2	2	5	NaN	1	4	0.0441215250327206	1	1	NaN	24	1	24	1	121	221	321	NaN	521	1.72620546910912	1	1	NaN	3112126.9104296	NaN	3112127.8938003	3112128.41037523
64	21	0	0	90	36.1581920903955	36.241610738255	21	0.700045416019857	2	11	6	NaN	2	4	0.0441215250327206	1	1	NaN	25	1	25	1	121	221	321	NaN	521	0.13206731621176	1	0	NaN	3112130.9441423	NaN	3112131.9275658	3112132.44410038
64	21	0	0	90	36.1581920903955	36.241610738255	23	0.766716408021748	2	6	2	NaN	1	5	0.0441215250327206	1	1	NaN	26	1	26	1	121	221	321	NaN	521	0.233354789670557	2	0	NaN	3112136.3946753	NaN	3112137.3780841	3112137.89464401
64	21	0	0	90	36.1581920903955	36.241610738255	25	0.833387400023639	2	6	3	NaN	1	3	0.0441215250327206	1	1	NaN	27	1	27	1	121	221	321	NaN	521	0.115376068744808	1	1	NaN	3112138.9449585	NaN	3112139.9283436	3112140.44489273
64	21	0	0	90	36.1581920903955	36.241610738255	17	0.566703432016075	2	2	1	NaN	1	5	0.0441215250327206	1	1	NaN	28	1	28	1	121	221	321	NaN	521	0.521606469061226	1	1	NaN	3112141.3785139	NaN	3112142.3619496	3112142.87846073
64	21	0	0	90	36.1581920903955	36.241610738255	19	0.633374424017966	2	9	2	NaN	2	3	0.0441215250327206	1	1	NaN	29	1	29	1	121	221	321	NaN	521	0.487855868879706	1	0	NaN	3112144.2286433	NaN	3112145.2122254	3112145.72873893
64	21	0	0	90	36.1581920903955	36.241610738255	12	0.400025952011347	2	6	3	NaN	1	5	0.0441215250327206	1	1	NaN	30	1	30	1	121	221	321	NaN	521	0.198259921744466	1	1	NaN	3112148.4458537	NaN	3112149.4292664	3112149.94583448
64	21	0	0	90	36.1581920903955	36.241610738255	6	0.200012976005673	2	8	6	NaN	2	4	0.0441215250327206	1	1	NaN	31	1	31	1	121	221	321	NaN	521	0.649406016338617	1	0	NaN	3112150.9628079	NaN	3112151.946195	3112152.46273528
64	21	0	0	90	36.1581920903955	36.241610738255	24	0.800051904022694	2	6	6	NaN	1	4	0.0441215250327206	1	1	NaN	32	1	32	1	121	221	321	NaN	521	0.666460884269327	1	1	NaN	3112153.9297472	NaN	3112154.9131423	3112155.42970592
64	21	0	0	90	36.1581920903955	36.241610738255	24	0.800051904022694	2	1	4	NaN	1	3	0.0441215250327206	1	1	NaN	33	1	33	1	121	221	321	NaN	521	0.06690006935969	1	1	NaN	3112156.9132372	NaN	3112157.8967727	3112158.41332543
64	21	0	0	90	36.1581920903955	36.241610738255	15	0.500032440014184	2	8	3	NaN	2	4	0.0441215250327206	1	1	NaN	34	1	34	1	121	221	321	NaN	521	0.379689721390605	1	0	NaN	3112159.296945	NaN	3112160.2803534	3112160.79690228
64	21	0	0	90	36.1581920903955	36.241610738255	0	0	1	7	4	NaN	2	4	0.0441215250327206	1	1	NaN	35	1	35	1	111	211	311	NaN	511	0.143068021629006	2	1	NaN	3112161.9972096	NaN	3112162.9806117	3112163.49716198
64	21	0	0	90	36.1581920903955	36.241610738255	9	0.30001946400851	2	5	4	NaN	1	5	0.0441215250327206	1	1	NaN	36	1	36	1	121	221	321	NaN	521	3.27647718973458	2	0	NaN	3112164.4641106	NaN	3112165.4475193	3112165.96408151
64	21	0	0	90	36.1581920903955	36.241610738255	12	0.400025952011347	2	11	5	NaN	2	4	0.0441215250327206	1	1	NaN	37	1	37	1	121	221	321	NaN	521	0.0104139689356089	2	1	NaN	3112170.0646596	NaN	3112171.0480746	3112171.56462723
64	21	0	0	90	36.1581920903955	36.241610738255	10	0.333354960009456	2	7	2	NaN	2	3	0.0441215250327206	1	1	NaN	38	1	38	1	121	221	321	NaN	521	0.526505769230425	2	1	NaN	3112173.3817873	NaN	3112174.3650499	3112174.88160843
64	21	0	0	90	36.1581920903955	36.241610738255	13	0.433361448012292	2	11	4	NaN	2	3	0.0441215250327206	1	1	NaN	39	1	39	1	121	221	321	NaN	521	0.400444921571761	2	1	NaN	3112176.3319326	NaN	3112177.3153572	3112177.83190978
64	21	0	0	90	36.1581920903955	36.241610738255	19	0.633374424017966	2	6	4	NaN	1	4	0.0441215250327206	1	1	NaN	40	1	40	1	121	221	321	NaN	521	0.435862369369715	2	0	NaN	3112180.6323837	NaN	3112181.6157737	3112182.13231943
64	21	0	0	90	36.1581920903955	36.241610738255	14	0.466696944013238	2	9	6	NaN	2	3	0.0441215250327206	1	1	NaN	41	1	41	1	121	221	321	NaN	521	0.429580021649599	1	0	NaN	3112183.382659	NaN	3112184.3660702	3112184.88260168
64	21	0	0	90	36.1581920903955	36.241610738255	10	0.333354960009456	2	8	5	NaN	2	4	0.0441215250327206	1	1	NaN	42	1	42	1	121	221	321	NaN	521	0.576557621359825	2	1	NaN	3112186.699613	NaN	3112187.6830423	3112188.19959038
64	21	0	0	90	36.1581920903955	36.241610738255	14	0.466696944013238	2	3	6	NaN	1	4	0.0441215250327206	1	1	NaN	43	1	43	1	121	221	321	NaN	521	0.0363623690791428	2	0	NaN	3112189.599944	NaN	3112190.5833299	3112191.09987743
64	21	0	0	90	36.1581920903955	36.241610738255	11	0.366690456010401	2	2	3	NaN	1	3	0.0441215250327206	1	1	NaN	44	1	44	1	121	221	321	NaN	521	0.0103976214304566	2	0	NaN	3112192.1667396	NaN	3112193.1502724	3112193.66680038
64	21	0	0	90	36.1581920903955	36.241610738255	7	0.233348472006619	2	3	5	NaN	1	3	0.0441215250327206	1	1	NaN	45	1	45	1	121	221	321	NaN	521	0.0104273688048124	2	0	NaN	3112194.5003954	NaN	3112195.4838034	3112196.00035043
64	21	0	0	90	36.1581920903955	36.241610738255	23	0.766716408021748	2	5	2	NaN	1	3	0.0441215250327206	1	1	NaN	46	1	46	1	121	221	321	NaN	521	0.339348468929529	2	0	NaN	3112196.8172981	NaN	3112197.8007072	3112198.31725043
64	21	0	0	90	36.1581920903955	36.241610738255	20	0.666709920018911	2	2	2	NaN	1	4	0.0441215250327206	1	1	NaN	47	1	47	1	121	221	321	NaN	521	0.368737816344947	2	0	NaN	3112199.4675043	NaN	3112200.4509626	3112200.96750668
64	21	0	0	90	36.1581920903955	36.241610738255	13	0.433361448012292	2	2	2	NaN	1	4	0.0441215250327206	1	1	NaN	48	1	48	1	121	221	321	NaN	521	0.0103945219889283	1	1	NaN	3112202.1511519	NaN	3112203.1345513	3112203.65111638
64	21	0	0	90	36.1581920903955	36.241610738255	6	0.200012976005673	2	2	1	NaN	1	3	0.0441215250327206	1	1	NaN	49	1	49	1	121	221	321	NaN	521	0.764487116597593	2	0	NaN	3112207.5682268	NaN	3112208.5518012	3112209.06831898
64	21	0	0	90	36.1581920903955	36.241610738255	17	0.566703432016075	2	3	2	NaN	1	5	0.0441215250327206	1	1	NaN	50	1	50	1	121	221	321	NaN	521	3.28035832149908	1	1	NaN	3112210.6520086	NaN	3112211.6354011	3112212.15195158
64	21	0	0	90	36.1581920903955	36.241610738255	15	0.500032440014184	2	10	5	NaN	2	4	0.0441215250327206	1	1	NaN	51	1	51	1	121	221	321	NaN	521	0.010382373817265	1	0	NaN	3112216.2525317	NaN	3112217.2359426	3112217.75250333
64	21	0	0	90	36.1581920903955	36.241610738255	19	0.633374424017966	2	2	4	NaN	1	3	0.0441215250327206	1	1	NaN	52	1	52	1	121	221	321	NaN	521	0.0104477689601481	1	1	NaN	3112218.586105	NaN	3112219.569513	3112220.08605383
64	21	0	0	90	36.1581920903955	36.241610738255	14	0.466696944013238	2	10	3	NaN	2	4	0.0441215250327206	1	1	NaN	53	1	53	1	121	221	321	NaN	521	0.0533640687353909	2	1	NaN	3112220.902995	NaN	3112221.8864027	3112222.40295153
64	21	0	0	90	36.1581920903955	36.241610738255	8	0.266683968007565	2	5	2	NaN	1	4	0.0441215250327206	1	1	NaN	54	1	54	1	121	221	321	NaN	521	0.410813269205391	2	0	NaN	3112223.3699344	NaN	3112224.3532838	3112224.86986543
64	21	0	0	90	36.1581920903955	36.241610738255	20	0.666709920018911	2	6	2	NaN	1	5	0.0441215250327206	1	1	NaN	55	1	55	1	121	221	321	NaN	521	0.557667916640639	1	1	NaN	3112226.086836	NaN	3112227.0702782	3112227.58679838
64	21	0	0	90	36.1581920903955	36.241610738255	11	0.366690456010401	2	8	5	NaN	2	5	0.0441215250327206	1	1	NaN	56	1	56	1	121	221	321	NaN	521	0.010415269061923	2	1	NaN	3112228.9537958	NaN	3112229.9372016	3112230.45374763
64	21	0	0	90	36.1581920903955	36.241610738255	8	0.266683968007565	2	7	3	NaN	2	3	0.0441215250327206	1	1	NaN	57	1	57	1	121	221	321	NaN	521	0.0137213165871799	2	1	NaN	3112231.2706787	NaN	3112232.2540957	3112232.77063948
64	21	0	0	90	36.1581920903955	36.241610738255	21	0.700045416019857	2	10	5	NaN	2	4	0.0441215250327206	1	1	NaN	58	1	58	1	121	221	321	NaN	521	0.251507269218564	2	1	NaN	3112233.720848	NaN	3112234.7043524	3112235.22087573
64	21	0	0	90	36.1581920903955	36.241610738255	21	0.700045416019857	2	5	6	NaN	1	4	0.0441215250327206	1	1	NaN	59	1	59	1	121	221	321	NaN	521	0.260581168811768	2	0	NaN	3112236.2878484	NaN	3112237.2712625	3112237.78779633
64	21	0	0	90	36.1581920903955	36.241610738255	0	0	1	9	5	NaN	2	5	0.0441215250327206	1	1	NaN	60	1	60	1	111	211	311	NaN	511	0.661972469184548	2	1	NaN	3112238.8546114	NaN	3112239.8381783	3112240.35471643
64	21	0	0	90	36.1581920903955	36.241610738255	24	0.800051904022694	2	5	4	NaN	1	3	0.0441215250327206	1	1	NaN	61	1	61	1	121	221	321	NaN	521	0.784981068689376	2	0	NaN	3112242.3716687	NaN	3112243.3552375	3112243.87172773
64	21	0	0	90	36.1581920903955	36.241610738255	16	0.533367936015129	2	3	3	NaN	1	5	0.0441215250327206	1	1	NaN	62	1	62	1	121	221	321	NaN	521	0.244513721670955	2	0	NaN	3112245.4720796	NaN	3112246.455508	3112246.97204288
64	21	0	0	90	36.1581920903955	36.241610738255	18	0.60003892801702	2	9	3	NaN	2	4	0.0441215250327206	1	1	NaN	63	1	63	1	121	221	321	NaN	521	0.0104285161942244	1	0	NaN	3112248.0388477	NaN	3112249.0223992	3112249.53894728
64	21	0	0	90	36.1581920903955	36.241610738255	10	0.333354960009456	2	5	1	NaN	1	5	0.0441215250327206	1	1	NaN	64	2	1	1	121	221	321	NaN	521	0.0255519691854715	1	1	NaN	3112260.1068653	NaN	3112261.0902567	3112261.60680603
64	21	0	0	90	36.1581920903955	36.241610738255	16	0.533367936015129	2	12	4	NaN	2	4	0.0441215250327206	1	1	NaN	65	2	2	1	121	221	321	NaN	521	0.0103952214121819	2	1	NaN	3112264.2905759	NaN	3112265.2740137	3112265.79055388
64	21	0	0	90	36.1581920903955	36.241610738255	21	0.700045416019857	2	11	1	NaN	2	4	0.0441215250327206	1	1	NaN	66	2	3	1	121	221	321	NaN	521	0.052914469037205	1	0	NaN	3112266.6074897	NaN	3112267.5909337	3112268.10744073
64	21	0	0	90	36.1581920903955	36.241610738255	19	0.633374424017966	2	7	5	NaN	2	5	0.0441215250327206	1	1	NaN	67	2	4	1	121	221	321	NaN	521	0.142081368714571	2	1	NaN	3112268.9744034	NaN	3112269.957797	3112270.47434653
64	21	0	0	90	36.1581920903955	36.241610738255	23	0.766716408021748	2	1	5	NaN	1	4	0.0441215250327206	1	1	NaN	68	2	5	1	121	221	321	NaN	521	0.315902616363019	2	0	NaN	3112272.0246955	NaN	3112273.0080971	3112273.52463928
64	21	0	0	90	36.1581920903955	36.241610738255	22	0.733380912020803	2	10	3	NaN	2	5	0.0441215250327206	1	1	NaN	69	2	6	1	121	221	321	NaN	521	0.130102469120175	1	0	NaN	3112274.6582938	NaN	3112275.6417072	3112276.15823733
64	21	0	0	90	36.1581920903955	36.241610738255	13	0.433361448012292	2	5	5	NaN	1	5	0.0441215250327206	1	1	NaN	70	2	7	1	121	221	321	NaN	521	0.0102938893251121	2	0	NaN	3112277.1085477	NaN	3112278.0919188	3112278.60847871
64	21	0	0	90	36.1581920903955	36.241610738255	9	0.30001946400851	2	3	2	NaN	1	3	0.0441215250327206	1	1	NaN	71	2	8	1	121	221	321	NaN	521	0.363155069295317	1	1	NaN	3112279.4254281	NaN	3112280.4088259	3112280.92538023
64	21	0	0	90	36.1581920903955	36.241610738255	24	0.800051904022694	2	4	4	NaN	1	4	0.0441215250327206	1	1	NaN	72	2	9	1	121	221	321	NaN	521	0.327758569270372	2	0	NaN	3112282.1090339	NaN	3112283.0923094	3112283.60897333
64	21	0	0	90	36.1581920903955	36.241610738255	0	0	1	5	2	NaN	1	4	0.0441215250327206	1	1	NaN	73	2	10	1	111	211	311	NaN	511	0.469315069261938	1	1	NaN	3112284.7592937	NaN	3112285.7426858	3112286.25922583
64	21	0	0	90	36.1581920903955	36.241610738255	7	0.233348472006619	2	1	3	NaN	1	4	0.0441215250327206	1	1	NaN	74	2	11	1	121	221	321	NaN	521	0.469351016450673	2	0	NaN	3112287.5428973	NaN	3112288.5262854	3112289.04284198
64	21	0	0	90	36.1581920903955	36.241610738255	11	0.366690456010401	2	10	1	NaN	2	3	0.0441215250327206	1	1	NaN	75	2	12	1	121	221	321	NaN	521	0.373825569171458	2	1	NaN	3112290.326489	NaN	3112291.3098755	3112291.82643913
64	21	0	0	90	36.1581920903955	36.241610738255	10	0.333354960009456	2	12	2	NaN	2	3	0.0441215250327206	1	1	NaN	76	2	13	1	121	221	321	NaN	521	0.354471168946475	1	0	NaN	3112293.0100895	NaN	3112293.9935145	3112294.51003663
64	21	0	0	90	36.1581920903955	36.241610738255	9	0.30001946400851	2	12	2	NaN	2	5	0.0441215250327206	1	1	NaN	77	2	14	1	121	221	321	NaN	521	0.381586369127035	2	1	NaN	3112295.926991	NaN	3112296.9104501	3112297.42699623
64	21	0	0	90	36.1581920903955	36.241610738255	7	0.233348472006619	2	2	6	NaN	1	4	0.0441215250327206	1	1	NaN	78	2	15	1	121	221	321	NaN	521	0.427886916790158	2	0	NaN	3112298.7606351	NaN	3112299.7440581	3112300.26061228
64	21	0	0	90	36.1581920903955	36.241610738255	23	0.766716408021748	2	3	5	NaN	1	3	0.0441215250327206	1	1	NaN	79	2	16	1	121	221	321	NaN	521	0.374228469096124	2	0	NaN	3112301.4942285	NaN	3112302.477688	3112302.99421063
64	21	0	0	90	36.1581920903955	36.241610738255	25	0.833387400023639	2	3	6	NaN	1	5	0.0441215250327206	1	1	NaN	80	2	17	1	121	221	321	NaN	521	0.121922616381198	1	1	NaN	3112307.1947164	NaN	3112308.1782167	3112308.69477348
64	21	0	0	90	36.1581920903955	36.241610738255	15	0.500032440014184	2	1	4	NaN	1	4	0.0441215250327206	1	1	NaN	81	2	18	1	121	221	321	NaN	521	0.392090969253331	1	1	NaN	3112309.6284501	NaN	3112310.6117954	3112311.12834233
64	21	0	0	90	36.1581920903955	36.241610738255	9	0.30001946400851	2	11	1	NaN	2	4	0.0441215250327206	1	1	NaN	82	2	19	1	121	221	321	NaN	521	2.60418406873941	2	1	NaN	3112312.3286051	NaN	3112313.31206	3112313.82860863
64	21	0	0	90	36.1581920903955	36.241610738255	8	0.266683968007565	2	12	5	NaN	2	5	0.0441215250327206	1	1	NaN	83	2	20	1	121	221	321	NaN	521	1.24227817356586	2	1	NaN	3112317.5624446	NaN	3112318.5459084	3112319.06246363
64	21	0	0	90	36.1581920903955	36.241610738255	22	0.733380912020803	2	2	6	NaN	1	5	0.0441215250327206	1	1	NaN	84	2	21	1	121	221	321	NaN	521	0.0104293692857027	2	0	NaN	3112343.2816768	NaN	3112344.265106	3112344.78166023
64	21	0	0	90	36.1581920903955	36.241610738255	9	0.30001946400851	2	6	5	NaN	1	4	0.0441215250327206	1	1	NaN	85	2	22	1	121	221	321	NaN	521	3.0289928689599	1	1	NaN	3112348.8154565	NaN	3112349.7989789	3112350.31552473
64	21	0	0	90	36.1581920903955	36.241610738255	24	0.800051904022694	2	2	6	NaN	1	5	0.0441215250327206	1	1	NaN	86	2	23	1	121	221	321	NaN	521	2.69798122160137	2	0	NaN	3112355.2828527	NaN	3112356.2662833	3112356.78283588
64	21	0	0	90	36.1581920903955	36.241610738255	13	0.433361448012292	2	11	6	NaN	2	4	0.0441215250327206	1	1	NaN	87	2	24	1	121	221	321	NaN	521	0.38516596890986	2	1	NaN	3112360.2833765	NaN	3112361.2667814	3112361.78332433
64	21	0	0	90	36.1581920903955	36.241610738255	16	0.533367936015129	2	1	5	NaN	1	4	0.0441215250327206	1	1	NaN	88	2	25	1	121	221	321	NaN	521	0.276850021909922	1	1	NaN	3112362.9836463	NaN	3112363.9670428	3112364.48359448
64	21	0	0	90	36.1581920903955	36.241610738255	15	0.500032440014184	2	11	4	NaN	2	5	0.0441215250327206	1	1	NaN	89	2	26	1	121	221	321	NaN	521	0.405359342228621	1	0	NaN	3112365.5672257	NaN	3112366.5506282	3112367.06718916
64	21	0	0	90	36.1581920903955	36.241610738255	12	0.400025952011347	2	10	4	NaN	2	4	0.0441215250327206	1	1	NaN	90	2	27	1	121	221	321	NaN	521	0.352327821776271	1	0	NaN	3112368.2841712	NaN	3112369.267552	3112369.78411898
64	21	0	0	90	36.1581920903955	36.241610738255	0	0	1	8	3	NaN	2	5	0.0441215250327206	1	1	NaN	91	2	28	1	111	211	311	NaN	511	0.317233921959996	2	1	NaN	3112370.9510897	NaN	3112371.9344101	3112372.45104778
64	21	0	0	90	36.1581920903955	36.241610738255	0	0	1	3	1	NaN	1	5	0.0441215250327206	1	1	NaN	92	2	29	1	111	211	311	NaN	511	0.0104281692765653	2	0	NaN	3112373.5847983	NaN	3112374.5679761	3112375.08462653
64	21	0	0	90	36.1581920903955	36.241610738255	22	0.733380912020803	2	7	1	NaN	2	5	0.0441215250327206	1	1	NaN	93	2	30	1	121	221	321	NaN	521	2.53489142190665	1	0	NaN	3112375.9014653	NaN	3112376.8849699	3112377.40153488
64	21	0	0	90	36.1581920903955	36.241610738255	16	0.533367936015129	2	4	4	NaN	1	5	0.0441215250327206	1	1	NaN	94	2	31	1	121	221	321	NaN	521	0.420380221679807	2	0	NaN	3112380.7520613	NaN	3112381.7354561	3112382.25200358
64	21	0	0	90	36.1581920903955	36.241610738255	7	0.233348472006619	2	11	6	NaN	2	4	0.0441215250327206	1	1	NaN	95	2	32	1	121	221	321	NaN	521	0.846766389906406	1	0	NaN	3112383.4855301	NaN	3112384.469057	3112384.98560741
64	21	0	0	90	36.1581920903955	36.241610738255	22	0.733380912020803	2	4	2	NaN	1	4	0.0441215250327206	1	1	NaN	96	2	33	1	121	221	321	NaN	521	0.010400521568954	2	0	NaN	3112386.6526319	NaN	3112387.6360353	3112388.15258868
64	21	0	0	90	36.1581920903955	36.241610738255	10	0.333354960009456	2	3	6	NaN	1	4	0.0441215250327206	1	1	NaN	97	2	34	1	121	221	321	NaN	521	0.0104229687713087	1	1	NaN	3112388.9694632	NaN	3112389.9529296	3112390.46947873
64	21	0	0	90	36.1581920903955	36.241610738255	8	0.266683968007565	2	4	3	NaN	1	4	0.0441215250327206	1	1	NaN	98	2	35	1	121	221	321	NaN	521	2.26142696896568	1	1	NaN	3112391.303089	NaN	3112392.2864968	3112392.80304323
64	21	0	0	90	36.1581920903955	36.241610738255	23	0.766716408021748	2	7	2	NaN	2	5	0.0441215250327206	1	1	NaN	99	2	36	1	121	221	321	NaN	521	2.03799026878551	1	0	NaN	3112395.8868807	NaN	3112396.8702761	3112397.38682533
64	21	0	0	90	36.1581920903955	36.241610738255	25	0.833387400023639	2	2	2	NaN	1	3	0.0441215250327206	1	1	NaN	100	2	37	1	121	221	321	NaN	521	0.134579921606928	1	1	NaN	3112400.4538724	NaN	3112401.4373956	3112401.95394798
64	21	0	0	90	36.1581920903955	36.241610738255	14	0.466696944013238	2	3	3	NaN	1	3	0.0441215250327206	1	1	NaN	101	2	38	1	121	221	321	NaN	521	0.0104269166477025	1	1	NaN	3112402.9042323	NaN	3112403.8876224	3112404.40417728
64	21	0	0	90	36.1581920903955	36.241610738255	15	0.500032440014184	2	7	1	NaN	2	3	0.0441215250327206	1	1	NaN	102	2	39	1	121	221	321	NaN	521	0.0103943212889135	1	0	NaN	3112405.2211284	NaN	3112406.2045217	3112406.72107948
64	21	0	0	90	36.1581920903955	36.241610738255	9	0.30001946400851	2	12	6	NaN	2	4	0.0441215250327206	1	1	NaN	103	2	40	1	121	221	321	NaN	521	1.10652966378257	2	1	NaN	3112407.5380206	NaN	3112408.5214081	3112409.03796904
64	21	0	0	90	36.1581920903955	36.241610738255	0	0	1	10	5	NaN	2	4	0.0441215250327206	1	1	NaN	104	2	41	1	111	211	311	NaN	511	0.0176053368486464	1	0	NaN	3112410.9550214	NaN	3112411.9384369	3112412.45497406
64	21	0	0	90	36.1581920903955	36.241610738255	0	0	1	6	6	NaN	1	3	0.0441215250327206	1	1	NaN	105	2	42	1	111	211	311	NaN	511	2.76587246870622	2	0	NaN	3112414.6387319	NaN	3112415.622124	3112416.13866773
64	21	0	0	90	36.1581920903955	36.241610738255	7	0.233348472006619	2	1	5	NaN	1	5	0.0441215250327206	1	1	NaN	106	2	43	1	121	221	321	NaN	521	2.44205082161352	1	1	NaN	3112419.7225546	NaN	3112420.7059611	3112421.22250438
64	21	0	0	90	36.1581920903955	36.241610738255	21	0.700045416019857	2	2	3	NaN	1	4	0.0441215250327206	1	1	NaN	107	2	44	1	121	221	321	NaN	521	0.0102771422825754	1	1	NaN	3112425.739697	NaN	3112426.7232295	3112427.23977266
64	21	0	0	90	36.1581920903955	36.241610738255	25	0.833387400023639	2	5	1	NaN	1	4	0.0441215250327206	1	1	NaN	108	2	45	1	121	221	321	NaN	521	2.92421022150666	1	1	NaN	3112428.0567351	NaN	3112429.0401529	3112429.55666428
64	21	0	0	90	36.1581920903955	36.241610738255	7	0.233348472006619	2	5	4	NaN	1	5	0.0441215250327206	1	1	NaN	109	2	46	1	121	221	321	NaN	521	0.0104105691425502	1	1	NaN	3112433.2905239	NaN	3112434.2739543	3112434.79051273
64	21	0	0	90	36.1581920903955	36.241610738255	20	0.666709920018911	2	7	5	NaN	2	5	0.0441215250327206	1	1	NaN	110	2	47	1	121	221	321	NaN	521	0.0104324691928923	1	0	NaN	3112435.6073161	NaN	3112436.5908412	3112437.10740113
64	21	0	0	90	36.1581920903955	36.241610738255	6	0.200012976005673	2	4	5	NaN	1	3	0.0441215250327206	1	1	NaN	111	2	48	1	121	221	321	NaN	521	0.0881642214953899	1	1	NaN	3112437.92434	NaN	3112438.9077434	3112439.42429768
64	21	0	0	90	36.1581920903955	36.241610738255	18	0.60003892801702	2	10	1	NaN	2	5	0.0441215250327206	1	1	NaN	112	2	49	1	121	221	321	NaN	521	2.56821384234354	2	1	NaN	3112440.3245928	NaN	3112441.3079595	3112441.82453736
64	21	0	0	90	36.1581920903955	36.241610738255	14	0.466696944013238	2	1	1	NaN	1	5	0.0441215250327206	1	1	NaN	113	2	50	1	121	221	321	NaN	521	0.0629548262804747	1	1	NaN	3112445.3416248	NaN	3112446.3251135	3112446.84168767
64	21	0	0	90	36.1581920903955	36.241610738255	11	0.366690456010401	2	6	4	NaN	1	3	0.0441215250327206	1	1	NaN	114	2	51	1	121	221	321	NaN	521	0.0103874737396836	2	0	NaN	3112515.0152895	NaN	3112515.9987103	3112516.51521823
64	21	0	0	90	36.1581920903955	36.241610738255	9	0.30001946400851	2	7	6	NaN	2	3	0.0441215250327206	1	1	NaN	115	2	52	1	121	221	321	NaN	521	1.68892532167956	2	1	NaN	3112517.3321338	NaN	3112518.3155622	3112518.83211128
64	21	0	0	90	36.1581920903955	36.241610738255	24	0.800051904022694	2	12	6	NaN	2	3	0.0441215250327206	1	1	NaN	116	2	53	1	121	221	321	NaN	521	0.936637568753213	1	0	NaN	3112521.3324621	NaN	3112522.3159544	3112522.83250623
64	21	0	0	90	36.1581920903955	36.241610738255	13	0.433361448012292	2	8	1	NaN	2	5	0.0441215250327206	1	1	NaN	117	2	54	1	121	221	321	NaN	521	0.365209089592099	1	0	NaN	3112524.5995557	NaN	3112525.5829549	3112526.09949411
64	21	0	0	90	36.1581920903955	36.241610738255	23	0.766716408021748	2	1	2	NaN	1	3	0.0441215250327206	1	1	NaN	118	2	55	1	121	221	321	NaN	521	0.55350532149896	2	0	NaN	3112527.2831462	NaN	3112528.2665544	3112528.78308698
64	21	0	0	90	36.1581920903955	36.241610738255	11	0.366690456010401	2	9	1	NaN	2	3	0.0441215250327206	1	1	NaN	119	2	56	1	121	221	321	NaN	521	0.301904316525906	2	1	NaN	3112530.1667662	NaN	3112531.1501416	3112531.66672088
64	21	0	0	90	36.1581920903955	36.241610738255	9	0.30001946400851	2	3	4	NaN	1	4	0.0441215250327206	1	1	NaN	120	2	57	1	121	221	321	NaN	521	0.213105069007725	1	1	NaN	3112532.7836844	NaN	3112533.7671184	3112534.28363293
64	21	0	0	90	36.1581920903955	36.241610738255	11	0.366690456010401	2	10	4	NaN	2	3	0.0441215250327206	1	1	NaN	121	2	58	1	121	221	321	NaN	521	1.62379962205887	2	1	NaN	3112535.3172524	NaN	3112536.3006671	3112536.81721198
64	21	0	0	90	36.1581920903955	36.241610738255	0	0	1	12	3	NaN	2	5	0.0441215250327206	1	1	NaN	122	2	59	1	111	211	311	NaN	511	0.465466216206551	1	0	NaN	3112539.2676476	NaN	3112540.2510548	3112540.76759338
64	21	0	0	90	36.1581920903955	36.241610738255	6	0.200012976005673	2	5	6	NaN	1	4	0.0441215250327206	1	1	NaN	123	2	60	1	121	221	321	NaN	521	1.28189602168277	1	1	NaN	3112542.0512564	NaN	3112543.0346963	3112543.55120738
64	21	0	0	90	36.1581920903955	36.241610738255	18	0.60003892801702	2	12	2	NaN	2	3	0.0441215250327206	1	1	NaN	124	2	61	1	121	221	321	NaN	521	0.329545121639967	1	0	NaN	3112545.6516307	NaN	3112546.6350185	3112547.15156248
64	21	0	0	90	36.1581920903955	36.241610738255	16	0.533367936015129	2	5	1	NaN	1	4	0.0441215250327206	1	1	NaN	125	2	62	1	121	221	321	NaN	521	0.391391369048506	1	1	NaN	3112548.3018773	NaN	3112549.2852952	3112549.80181503
64	21	0	0	90	36.1581920903955	36.241610738255	17	0.566703432016075	2	10	2	NaN	2	4	0.0441215250327206	1	1	NaN	126	2	63	1	121	221	321	NaN	521	1.76234606886283	1	0	NaN	3112551.0188154	NaN	3112552.0022118	3112552.51874973
64	21	0	0	90	36.1581920903955	36.241610738255	9	0.30001946400851	2	10	1	NaN	2	5	0.0441215250327206	1	1	NaN	127	3	1	1	121	221	321	NaN	521	2.36990492139012	2	1	NaN	3112560.2030165	NaN	3112561.1865164	3112561.70299328
64	21	0	0	90	36.1581920903955	36.241610738255	10	0.333354960009456	2	8	4	NaN	2	3	0.0441215250327206	1	1	NaN	128	3	2	1	121	221	321	NaN	521	0.0104901692830026	2	1	NaN	3112564.8868359	NaN	3112565.8702331	3112566.38678613
64	21	0	0	90	36.1581920903955	36.241610738255	13	0.433361448012292	2	7	2	NaN	2	4	0.0441215250327206	1	1	NaN	129	3	3	1	121	221	321	NaN	521	0.288833869155496	2	1	NaN	3112567.2204103	NaN	3112568.2037993	3112568.72035123
64	21	0	0	90	36.1581920903955	36.241610738255	24	0.800051904022694	2	2	4	NaN	1	3	0.0441215250327206	1	1	NaN	130	3	4	1	121	221	321	NaN	521	0.143839568831027	1	1	NaN	3112569.837368	NaN	3112570.8207273	3112571.33726543
64	21	0	0	90	36.1581920903955	36.241610738255	23	0.766716408021748	2	11	2	NaN	2	3	0.0441215250327206	1	1	NaN	131	3	5	1	121	221	321	NaN	521	0.0104184690862894	2	1	NaN	3112572.3041123	NaN	3112573.2876462	3112573.80417053
64	21	0	0	90	36.1581920903955	36.241610738255	8	0.266683968007565	2	11	1	NaN	2	4	0.0441215250327206	1	1	NaN	132	3	6	1	121	221	321	NaN	521	16.5120861693285	1	0	NaN	3112574.6211101	NaN	3112575.6045436	3112576.12106743
64	21	0	0	90	36.1581920903955	36.241610738255	18	0.60003892801702	2	12	1	NaN	2	5	0.0441215250327206	1	1	NaN	133	3	7	1	121	221	321	NaN	521	0.372490868903697	1	0	NaN	3112593.4563273	NaN	3112594.4397239	3112594.95625203
64	21	0	0	90	36.1581920903955	36.241610738255	7	0.233348472006619	2	8	2	NaN	2	4	0.0441215250327206	1	1	NaN	134	3	8	1	121	221	321	NaN	521	0.312985073775053	2	1	NaN	3112596.1398981	NaN	3112597.1233228	3112597.63985683
64	21	0	0	90	36.1581920903955	36.241610738255	21	0.700045416019857	2	7	5	NaN	2	5	0.0441215250327206	1	1	NaN	135	3	9	1	121	221	321	NaN	521	0.167522769421339	2	1	NaN	3112598.7735136	NaN	3112599.7569063	3112600.27344553
64	21	0	0	90	36.1581920903955	36.241610738255	21	0.700045416019857	2	3	3	NaN	1	4	0.0441215250327206	1	1	NaN	136	3	10	1	121	221	321	NaN	521	0.259916516486555	1	1	NaN	3112601.2570852	NaN	3112602.2404796	3112602.75702328
64	21	0	0	90	36.1581920903955	36.241610738255	18	0.60003892801702	2	3	4	NaN	1	5	0.0441215250327206	1	1	NaN	137	3	11	1	121	221	321	NaN	521	0.77777332207188	2	0	NaN	3112605.7075596	NaN	3112606.690952	3112607.20746938
64	21	0	0	90	36.1581920903955	36.241610738255	19	0.633374424017966	2	11	2	NaN	2	4	0.0441215250327206	1	1	NaN	138	3	12	1	121	221	321	NaN	521	1.04501616908237	2	1	NaN	3112608.8078152	NaN	3112609.7912467	3112610.30777303
64	21	0	0	90	36.1581920903955	36.241610738255	10	0.333354960009456	2	9	5	NaN	2	4	0.0441215250327206	1	1	NaN	139	3	13	1	121	221	321	NaN	521	2.19801078969613	1	0	NaN	3112612.1748348	NaN	3112613.1582087	3112613.67477261
64	21	0	0	90	36.1581920903955	36.241610738255	12	0.400025952011347	2	2	1	NaN	1	4	0.0441215250327206	1	1	NaN	140	3	14	1	121	221	321	NaN	521	0.313306563999504	2	0	NaN	3112616.6919552	NaN	3112617.675364	3112618.19187564
64	21	0	0	90	36.1581920903955	36.241610738255	12	0.400025952011347	2	12	5	NaN	2	5	0.0441215250327206	1	1	NaN	141	3	15	1	121	221	321	NaN	521	0.28784606885165	1	0	NaN	3112619.325518	NaN	3112620.3089412	3112620.82546103
64	21	0	0	90	36.1581920903955	36.241610738255	17	0.566703432016075	2	11	4	NaN	2	4	0.0441215250327206	1	1	NaN	142	3	16	1	121	221	321	NaN	521	0.327048716135323	2	1	NaN	3112621.9257905	NaN	3112622.9091922	3112623.42572378
64	21	0	0	90	36.1581920903955	36.241610738255	14	0.466696944013238	2	7	3	NaN	2	3	0.0441215250327206	1	1	NaN	143	3	17	1	121	221	321	NaN	521	0.293208168819547	2	1	NaN	3112624.5760443	NaN	3112625.5594566	3112626.07597983
64	21	0	0	90	36.1581920903955	36.241610738255	22	0.733380912020803	2	12	2	NaN	2	5	0.0441215250327206	1	1	NaN	144	3	18	1	121	221	321	NaN	521	1.36401962162927	1	0	NaN	3112627.1929754	NaN	3112628.1763605	3112628.69291538
64	21	0	0	90	36.1581920903955	36.241610738255	12	0.400025952011347	2	5	3	NaN	1	3	0.0441215250327206	1	1	NaN	145	3	19	1	121	221	321	NaN	521	0.768036084249616	2	0	NaN	3112630.8766593	NaN	3112631.8600818	3112632.37660732
64	21	0	0	90	36.1581920903955	36.241610738255	25	0.833387400023639	2	2	1	NaN	1	5	0.0441215250327206	1	1	NaN	146	3	20	1	121	221	321	NaN	521	0.148334668949246	1	1	NaN	3112633.9769675	NaN	3112634.960375	3112635.47690683
64	21	0	0	90	36.1581920903955	36.241610738255	24	0.800051904022694	2	11	5	NaN	2	5	0.0441215250327206	1	1	NaN	147	3	21	1	121	221	321	NaN	521	1.27293066913262	2	1	NaN	3112636.4438856	NaN	3112637.4272926	3112637.94381343
64	21	0	0	90	36.1581920903955	36.241610738255	20	0.666709920018911	2	11	5	NaN	2	3	0.0441215250327206	1	1	NaN	148	3	22	1	121	221	321	NaN	521	0.36079502152279	2	1	NaN	3112640.0442208	NaN	3112641.0276184	3112641.54420118
64	21	0	0	90	36.1581920903955	36.241610738255	20	0.666709920018911	2	1	5	NaN	1	5	0.0441215250327206	1	1	NaN	149	3	23	1	121	221	321	NaN	521	0.373420921619982	1	1	NaN	3112642.7278479	NaN	3112643.7112398	3112644.22777478
64	21	0	0	90	36.1581920903955	36.241610738255	23	0.766716408021748	2	8	4	NaN	2	4	0.0441215250327206	1	1	NaN	150	3	24	1	121	221	321	NaN	521	0.0104515738785267	2	1	NaN	3112645.4280258	NaN	3112646.4115085	3112646.92804043
64	21	0	0	90	36.1581920903955	36.241610738255	17	0.566703432016075	2	8	3	NaN	2	4	0.0441215250327206	1	1	NaN	151	3	25	1	121	221	321	NaN	521	0.731071169022471	2	1	NaN	3112647.7616495	NaN	3112648.7450497	3112649.26159773
64	21	0	0	90	36.1581920903955	36.241610738255	21	0.700045416019857	2	2	6	NaN	1	4	0.0441215250327206	1	1	NaN	152	3	26	1	121	221	321	NaN	521	0.393043621443212	2	0	NaN	3112650.8119367	NaN	3112651.795364	3112652.31190368
64	21	0	0	90	36.1581920903955	36.241610738255	6	0.200012976005673	2	1	4	NaN	1	4	0.0441215250327206	1	1	NaN	153	3	27	1	121	221	321	NaN	521	0.347874521277845	1	1	NaN	3112653.5288851	NaN	3112654.5122807	3112655.02883018
64	21	0	0	90	36.1581920903955	36.241610738255	16	0.533367936015129	2	7	5	NaN	2	5	0.0441215250327206	1	1	NaN	154	3	28	1	121	221	321	NaN	521	0.969587969128042	2	1	NaN	3112656.1958044	NaN	3112657.1792097	3112657.69575343
64	21	0	0	90	36.1581920903955	36.241610738255	12	0.400025952011347	2	11	1	NaN	2	4	0.0441215250327206	1	1	NaN	155	3	29	1	121	221	321	NaN	521	0.397334321402013	2	1	NaN	3112659.4794796	NaN	3112660.4628847	3112660.97942168
64	21	0	0	90	36.1581920903955	36.241610738255	9	0.30001946400851	2	4	3	NaN	1	3	0.0441215250327206	1	1	NaN	156	3	30	1	121	221	321	NaN	521	0.280691400170326	1	1	NaN	3112662.1962434	NaN	3112663.1797922	3112663.6963722
64	21	0	0	90	36.1581920903955	36.241610738255	21	0.700045416019857	2	4	5	NaN	1	4	0.0441215250327206	1	1	NaN	157	3	31	1	121	221	321	NaN	521	0.449282369110733	1	1	NaN	3112664.7799978	NaN	3112665.7634379	3112666.27994273
64	21	0	0	90	36.1581920903955	36.241610738255	7	0.233348472006619	2	4	3	NaN	1	5	0.0441215250327206	1	1	NaN	158	3	32	1	121	221	321	NaN	521	0.979153921362013	1	1	NaN	3112667.9302735	NaN	3112668.9137137	3112669.43024848
64	21	0	0	90	36.1581920903955	36.241610738255	18	0.60003892801702	2	1	6	NaN	1	4	0.0441215250327206	1	1	NaN	159	3	33	1	121	221	321	NaN	521	0.222626826260239	1	1	NaN	3112671.2306242	NaN	3112672.2140234	3112672.73056797
64	21	0	0	90	36.1581920903955	36.241610738255	14	0.466696944013238	2	11	6	NaN	2	5	0.0441215250327206	1	1	NaN	160	3	34	1	121	221	321	NaN	521	0.728583578951657	1	0	NaN	3112673.7642033	NaN	3112674.7476861	3112675.26416232
64	21	0	0	90	36.1581920903955	36.241610738255	8	0.266683968007565	2	8	6	NaN	2	5	0.0441215250327206	1	1	NaN	161	3	35	1	121	221	321	NaN	521	0.449214569292963	1	0	NaN	3112676.9478527	NaN	3112677.9312634	3112678.44779473
64	21	0	0	90	36.1581920903955	36.241610738255	8	0.266683968007565	2	3	4	NaN	1	5	0.0441215250327206	1	1	NaN	162	3	36	1	121	221	321	NaN	521	0.738619321491569	1	1	NaN	3112679.7147919	NaN	3112680.6982309	3112681.21474278
64	21	0	0	90	36.1581920903955	36.241610738255	17	0.566703432016075	2	3	3	NaN	1	3	0.0441215250327206	1	1	NaN	163	3	37	1	121	221	321	NaN	521	0.32753304252401	1	1	NaN	3112682.7817617	NaN	3112683.7651835	3112684.28171896
64	21	0	0	90	36.1581920903955	36.241610738255	18	0.60003892801702	2	8	3	NaN	2	5	0.0441215250327206	1	1	NaN	164	3	38	1	121	221	321	NaN	521	0.010400521568954	2	1	NaN	3112685.4320134	NaN	3112686.4154257	3112686.93196228
64	21	0	0	90	36.1581920903955	36.241610738255	13	0.433361448012292	2	12	1	NaN	2	3	0.0441215250327206	1	1	NaN	165	3	39	1	121	221	321	NaN	521	0.0104251690208912	2	1	NaN	3112687.7656179	NaN	3112688.7489956	3112689.26552893
64	21	0	0	90	36.1581920903955	36.241610738255	15	0.500032440014184	2	7	2	NaN	2	3	0.0441215250327206	1	1	NaN	166	3	40	1	121	221	321	NaN	521	0.321769068948925	2	1	NaN	3112690.0992635	NaN	3112691.082555	3112691.59909263
64	21	0	0	90	36.1581920903955	36.241610738255	0	0	1	11	2	NaN	2	4	0.0441215250327206	1	1	NaN	167	3	41	1	111	211	311	NaN	511	0.552329063881189	1	0	NaN	3112692.7327341	NaN	3112693.7161331	3112694.23267904
64	21	0	0	90	36.1581920903955	36.241610738255	25	0.833387400023639	2	9	2	NaN	2	5	0.0441215250327206	1	1	NaN	168	3	42	1	121	221	321	NaN	521	0.213372922036797	1	0	NaN	3112695.5996922	NaN	3112696.5830975	3112697.09963908
64	21	0	0	90	36.1581920903955	36.241610738255	11	0.366690456010401	2	3	6	NaN	1	5	0.0441215250327206	1	1	NaN	169	3	43	1	121	221	321	NaN	521	0.0104793692007661	1	1	NaN	3112698.1334471	NaN	3112699.1166748	3112699.63321443
64	21	0	0	90	36.1581920903955	36.241610738255	8	0.266683968007565	2	11	2	NaN	2	5	0.0441215250327206	1	1	NaN	170	3	44	1	121	221	321	NaN	521	0.25808121683076	1	0	NaN	3112700.4668189	NaN	3112701.4502271	3112701.96677978
64	21	0	0	90	36.1581920903955	36.241610738255	22	0.733380912020803	2	11	3	NaN	2	4	0.0441215250327206	1	1	NaN	171	3	45	1	121	221	321	NaN	521	3.13096576882526	2	1	NaN	3112703.0504166	NaN	3112704.0338114	3112704.55036163
64	21	0	0	90	36.1581920903955	36.241610738255	19	0.633374424017966	2	5	6	NaN	1	3	0.0441215250327206	1	1	NaN	172	3	46	1	121	221	321	NaN	521	0.440006516408175	2	0	NaN	3112708.5009975	NaN	3112709.4843671	3112710.00090038
64	21	0	0	90	36.1581920903955	36.241610738255	23	0.766716408021748	2	3	2	NaN	1	4	0.0441215250327206	1	1	NaN	173	3	47	1	121	221	321	NaN	521	0.289191621355712	1	1	NaN	3112711.2678931	NaN	3112712.2513041	3112712.76783638
64	21	0	0	90	36.1581920903955	36.241610738255	25	0.833387400023639	2	8	4	NaN	2	3	0.0441215250327206	1	1	NaN	174	3	48	1	121	221	321	NaN	521	0.312551521230489	1	0	NaN	3112713.8848305	NaN	3112714.8682551	3112715.38476528
64	21	0	0	90	36.1581920903955	36.241610738255	11	0.366690456010401	2	1	3	NaN	1	3	0.0441215250327206	1	1	NaN	175	3	49	1	121	221	321	NaN	521	0.0103677371516824	2	0	NaN	3112716.6517509	NaN	3112717.6351697	3112718.15170986
64	21	0	0	90	36.1581920903955	36.241610738255	6	0.200012976005673	2	7	3	NaN	2	3	0.0441215250327206	1	1	NaN	176	3	50	1	121	221	321	NaN	521	0.0104608219116926	2	1	NaN	3112718.9853249	NaN	3112719.9687199	3112720.48527078
64	21	0	0	90	36.1581920903955	36.241610738255	9	0.30001946400851	2	4	2	NaN	1	5	0.0441215250327206	1	1	NaN	177	3	51	1	121	221	321	NaN	521	0.118600368965417	2	0	NaN	3112721.3188693	NaN	3112722.3022976	3112722.81882083
64	21	0	0	90	36.1581920903955	36.241610738255	24	0.800051904022694	2	8	4	NaN	2	4	0.0441215250327206	1	1	NaN	178	3	52	1	121	221	321	NaN	521	0.484497821424156	2	1	NaN	3112723.7524813	NaN	3112724.7358702	3112725.25239828
64	21	0	0	90	36.1581920903955	36.241610738255	0	0	1	4	4	NaN	1	5	0.0441215250327206	1	1	NaN	179	3	53	1	111	211	311	NaN	511	0.348659568931907	2	0	NaN	3112726.5527393	NaN	3112727.5361478	3112728.05268613
64	21	0	0	90	36.1581920903955	36.241610738255	13	0.433361448012292	2	2	5	NaN	1	4	0.0441215250327206	1	1	NaN	180	3	54	1	121	221	321	NaN	521	2.08212292660028	2	0	NaN	3112729.2029102	NaN	3112730.1863761	3112730.70293817
64	21	0	0	90	36.1581920903955	36.241610738255	0	0	1	9	6	NaN	2	5	0.0441215250327206	1	1	NaN	181	3	55	1	111	211	311	NaN	511	0.314069269225001	1	0	NaN	3112733.6034275	NaN	3112734.5868295	3112735.10337193
64	21	0	0	90	36.1581920903955	36.241610738255	23	0.766716408021748	2	4	6	NaN	1	3	0.0441215250327206	1	1	NaN	182	3	56	1	121	221	321	NaN	521	0.032226721290499	1	1	NaN	3112736.2368704	NaN	3112737.2204263	3112737.73696238
64	21	0	0	90	36.1581920903955	36.241610738255	8	0.266683968007565	2	2	3	NaN	1	5	0.0441215250327206	1	1	NaN	183	3	57	1	121	221	321	NaN	521	0.706321921665221	1	1	NaN	3112738.5871175	NaN	3112739.5706334	3112740.08719778
64	21	0	0	90	36.1581920903955	36.241610738255	0	0	1	10	2	NaN	2	5	0.0441215250327206	1	1	NaN	184	3	58	1	111	211	311	NaN	511	0.552636516280472	2	1	NaN	3112741.6208853	NaN	3112742.6042737	3112743.12081928
64	21	0	0	90	36.1581920903955	36.241610738255	20	0.666709920018911	2	10	6	NaN	2	5	0.0441215250327206	1	1	NaN	185	3	59	1	121	221	321	NaN	521	1.49289086880162	1	0	NaN	3112744.5045081	NaN	3112745.4879023	3112746.00444283
64	21	0	0	90	36.1581920903955	36.241610738255	25	0.833387400023639	2	1	3	NaN	1	5	0.0441215250327206	1	1	NaN	186	3	60	1	121	221	321	NaN	521	0.435810731723905	2	0	NaN	3112748.3215821	NaN	3112749.3049573	3112749.82150467
64	21	0	0	90	36.1581920903955	36.241610738255	10	0.333354960009456	2	10	5	NaN	2	3	0.0441215250327206	1	1	NaN	187	3	61	1	121	221	321	NaN	521	0.461565721780062	2	1	NaN	3112751.0716838	NaN	3112752.0552103	3112752.57175568
64	21	0	0	90	36.1581920903955	36.241610738255	21	0.700045416019857	2	4	3	NaN	1	3	0.0441215250327206	1	1	NaN	188	3	62	1	121	221	321	NaN	521	0.174197221640497	1	1	NaN	3112753.8554059	NaN	3112754.8388285	3112755.35536038
64	21	0	0	90	36.1581920903955	36.241610738255	14	0.466696944013238	2	12	2	NaN	2	5	0.0441215250327206	1	1	NaN	189	3	63	1	121	221	321	NaN	521	0.313401389401406	2	1	NaN	3112756.3556668	NaN	3112757.3390689	3112757.85561221
64	21	0	0	90	36.1581920903955	36.241610738255	7	0.233348472006619	2	7	3	NaN	2	3	0.0441215250327206	1	1	NaN	190	4	1	1	121	221	321	NaN	521	1.59025362180546	1	0	NaN	3112765.4233275	NaN	3112766.4066242	3112766.92318188
64	21	0	0	90	36.1581920903955	36.241610738255	11	0.366690456010401	2	7	6	NaN	2	3	0.0441215250327206	1	1	NaN	191	4	2	1	121	221	321	NaN	521	1.174809621647	1	0	NaN	3112769.7902835	NaN	3112770.7737302	3112771.29026378
64	21	0	0	90	36.1581920903955	36.241610738255	10	0.333354960009456	2	5	3	NaN	1	4	0.0441215250327206	1	1	NaN	192	4	3	1	121	221	321	NaN	521	0.59484276920557	2	0	NaN	3112773.2906238	NaN	3112774.2740353	3112774.79059903
64	21	0	0	90	36.1581920903955	36.241610738255	21	0.700045416019857	2	9	3	NaN	2	5	0.0441215250327206	1	1	NaN	193	4	4	1	121	221	321	NaN	521	0.165465321857482	1	0	NaN	3112776.2074924	NaN	3112777.1910232	3112777.70755888
64	21	0	0	90	36.1581920903955	36.241610738255	11	0.366690456010401	2	11	1	NaN	2	3	0.0441215250327206	1	1	NaN	194	4	5	1	121	221	321	NaN	521	1.04977828962728	2	1	NaN	3112778.6912141	NaN	3112779.6746004	3112780.19114241
64	21	0	0	90	36.1581920903955	36.241610738255	15	0.500032440014184	2	5	5	NaN	1	5	0.0441215250327206	1	1	NaN	195	4	6	1	121	221	321	NaN	521	0.578971289563924	2	0	NaN	3112782.0581461	NaN	3112783.0415855	3112783.55812801
64	21	0	0	90	36.1581920903955	36.241610738255	16	0.533367936015129	2	10	1	NaN	2	5	0.0441215250327206	1	1	NaN	196	4	7	1	121	221	321	NaN	521	0.36733132135123	2	1	NaN	3112784.9417124	NaN	3112785.9252148	3112786.44174538
64	21	0	0	90	36.1581920903955	36.241610738255	7	0.233348472006619	2	2	4	NaN	1	3	0.0441215250327206	1	1	NaN	197	4	8	1	121	221	321	NaN	521	0.436080036684871	2	0	NaN	3112787.6253906	NaN	3112788.6087881	3112789.12535056
64	21	0	0	90	36.1581920903955	36.241610738255	13	0.433361448012292	2	3	4	NaN	1	5	0.0441215250327206	1	1	NaN	198	4	9	1	121	221	321	NaN	521	0.859299441799521	2	0	NaN	3112790.6256849	NaN	3112791.6091113	3112792.12564806
64	21	0	0	90	36.1581920903955	36.241610738255	6	0.200012976005673	2	10	4	NaN	2	4	0.0441215250327206	1	1	NaN	199	4	10	1	121	221	321	NaN	521	0.311315121594816	2	1	NaN	3112795.3261279	NaN	3112796.3095706	3112796.82610428
64	21	0	0	90	36.1581920903955	36.241610738255	15	0.500032440014184	2	12	4	NaN	2	5	0.0441215250327206	1	1	NaN	200	4	11	1	121	221	321	NaN	521	0.0104540213942528	2	1	NaN	3112798.8431483	NaN	3112799.8265773	3112800.34311958
64	21	0	0	90	36.1581920903955	36.241610738255	10	0.333354960009456	2	12	6	NaN	2	3	0.0441215250327206	1	1	NaN	201	4	12	1	121	221	321	NaN	521	1.78171976888552	2	1	NaN	3112801.5435002	NaN	3112802.5268907	3112803.04338683
64	21	0	0	90	36.1581920903955	36.241610738255	10	0.333354960009456	2	11	3	NaN	2	3	0.0441215250327206	1	1	NaN	202	4	13	1	121	221	321	NaN	521	1.27332046348602	2	1	NaN	3112805.6438412	NaN	3112806.6271666	3112807.14378554
64	21	0	0	90	36.1581920903955	36.241610738255	7	0.233348472006619	2	11	5	NaN	2	4	0.0441215250327206	1	1	NaN	203	4	14	1	121	221	321	NaN	521	0.689339726697654	2	1	NaN	3112809.2441931	NaN	3112810.2275945	3112810.74413877
64	21	0	0	90	36.1581920903955	36.241610738255	9	0.30001946400851	2	2	5	NaN	1	5	0.0441215250327206	1	1	NaN	204	4	15	1	121	221	321	NaN	521	0.441057068761438	2	0	NaN	3112812.2444832	NaN	3112813.2279076	3112813.74442603
64	21	0	0	90	36.1581920903955	36.241610738255	12	0.400025952011347	2	4	4	NaN	1	5	0.0441215250327206	1	1	NaN	205	4	16	1	121	221	321	NaN	521	2.17780941631645	1	1	NaN	3112815.0114164	NaN	3112815.9948317	3112816.51136008
64	21	0	0	90	36.1581920903955	36.241610738255	7	0.233348472006619	2	7	1	NaN	2	5	0.0441215250327206	1	1	NaN	206	4	17	1	121	221	321	NaN	521	0.405684373807162	2	1	NaN	3112819.5118349	NaN	3112820.4952817	3112821.01181823
64	21	0	0	90	36.1581920903955	36.241610738255	12	0.400025952011347	2	9	2	NaN	2	3	0.0441215250327206	1	1	NaN	207	4	18	1	121	221	321	NaN	521	0.280365926213562	2	1	NaN	3112822.2287923	NaN	3112823.2122107	3112823.72874787
64	21	0	0	90	36.1581920903955	36.241610738255	10	0.333354960009456	2	9	3	NaN	2	5	0.0441215250327206	1	1	NaN	208	4	19	1	121	221	321	NaN	521	0.576515368651599	1	0	NaN	3112824.8290422	NaN	3112825.8124556	3112826.32899213
64	21	0	0	90	36.1581920903955	36.241610738255	13	0.433361448012292	2	4	6	NaN	1	4	0.0441215250327206	1	1	NaN	209	4	20	1	121	221	321	NaN	521	0.236164269037545	2	0	NaN	3112827.7293356	NaN	3112828.7127432	3112829.22928393
64	21	0	0	90	36.1581920903955	36.241610738255	22	0.733380912020803	2	5	5	NaN	1	3	0.0441215250327206	1	1	NaN	210	4	21	1	121	221	321	NaN	521	0.0105153638869524	2	0	NaN	3112830.2794884	NaN	3112831.2630136	3112831.77954114
64	21	0	0	90	36.1581920903955	36.241610738255	18	0.60003892801702	2	2	6	NaN	1	3	0.0441215250327206	1	1	NaN	211	4	22	1	121	221	321	NaN	521	0.624427116475999	2	0	NaN	3112832.6130363	NaN	3112833.5965714	3112834.11309108
64	21	0	0	90	36.1581920903955	36.241610738255	6	0.200012976005673	2	12	3	NaN	2	3	0.0441215250327206	1	1	NaN	212	4	23	1	121	221	321	NaN	521	1.2848433163017	1	0	NaN	3112838.8805173	NaN	3112839.8638335	3112840.38037488
64	21	0	0	90	36.1581920903955	36.241610738255	12	0.400025952011347	2	1	1	NaN	1	4	0.0441215250327206	1	1	NaN	213	4	24	1	121	221	321	NaN	521	1.41973074711859	1	1	NaN	3112842.4974608	NaN	3112843.4808627	3112843.99740195
64	21	0	0	90	36.1581920903955	36.241610738255	15	0.500032440014184	2	10	1	NaN	2	5	0.0441215250327206	1	1	NaN	214	4	25	1	121	221	321	NaN	521	3.41415806906298	2	1	NaN	3112846.8312142	NaN	3112847.8146393	3112848.33116343
64	21	0	0	90	36.1581920903955	36.241610738255	12	0.400025952011347	2	10	2	NaN	2	5	0.0441215250327206	1	1	NaN	215	4	26	1	121	221	321	NaN	521	1.84038041625172	2	1	NaN	3112852.5650696	NaN	3112853.5485211	3112854.06506598
64	21	0	0	90	36.1581920903955	36.241610738255	21	0.700045416019857	2	7	6	NaN	2	5	0.0441215250327206	1	1	NaN	216	4	27	1	121	221	321	NaN	521	0.665612969081849	1	0	NaN	3112856.7155126	NaN	3112857.698915	3112858.21547103
64	21	0	0	90	36.1581920903955	36.241610738255	22	0.733380912020803	2	9	3	NaN	2	3	0.0441215250327206	1	1	NaN	217	4	28	1	121	221	321	NaN	521	0.337452569045126	2	1	NaN	3112859.7158087	NaN	3112860.6992566	3112861.21577773
64	21	0	0	90	36.1581920903955	36.241610738255	15	0.500032440014184	2	12	4	NaN	2	5	0.0441215250327206	1	1	NaN	218	4	29	1	121	221	321	NaN	521	0.527505421545357	2	1	NaN	3112862.3659606	NaN	3112863.3495199	3112863.86602658
64	21	0	0	90	36.1581920903955	36.241610738255	15	0.500032440014184	2	4	1	NaN	1	4	0.0441215250327206	1	1	NaN	219	4	30	1	121	221	321	NaN	521	0.108898521866649	2	0	NaN	3112865.2163408	NaN	3112866.1997739	3112866.71630598
64	21	0	0	90	36.1581920903955	36.241610738255	20	0.666709920018911	2	9	5	NaN	2	3	0.0441215250327206	1	1	NaN	220	4	31	1	121	221	321	NaN	521	0.010400221683085	2	1	NaN	3112867.633249	NaN	3112868.6166692	3112869.13321058
64	21	0	0	90	36.1581920903955	36.241610738255	22	0.733380912020803	2	8	3	NaN	2	3	0.0441215250327206	1	1	NaN	221	4	32	1	121	221	321	NaN	521	1.7984395166859	2	1	NaN	3112869.9668331	NaN	3112870.9502282	3112871.46677428
64	21	0	0	90	36.1581920903955	36.241610738255	13	0.433361448012292	2	7	2	NaN	2	3	0.0441215250327206	1	1	NaN	222	4	33	1	121	221	321	NaN	521	0.129820737056434	2	1	NaN	3112874.0837991	NaN	3112875.0673135	3112875.58383946
64	21	0	0	90	36.1581920903955	36.241610738255	20	0.666709920018911	2	8	6	NaN	2	3	0.0441215250327206	1	1	NaN	223	4	34	1	121	221	321	NaN	521	0.335255468729883	2	1	NaN	3112876.5341361	NaN	3112877.5175423	3112878.03407743
64	21	0	0	90	36.1581920903955	36.241610738255	13	0.433361448012292	2	5	6	NaN	1	4	0.0441215250327206	1	1	NaN	224	4	35	1	121	221	321	NaN	521	0.572906569112092	1	1	NaN	3112879.1844086	NaN	3112880.1677989	3112880.68433283
64	21	0	0	90	36.1581920903955	36.241610738255	11	0.366690456010401	2	7	4	NaN	2	5	0.0441215250327206	1	1	NaN	225	4	36	1	121	221	321	NaN	521	0.329060489311814	2	1	NaN	3112882.0846891	NaN	3112883.0680986	3112883.58463591
64	21	0	0	90	36.1581920903955	36.241610738255	12	0.400025952011347	2	8	2	NaN	2	4	0.0441215250327206	1	1	NaN	226	4	37	1	121	221	321	NaN	521	0.550165663938969	2	1	NaN	3112884.7349443	NaN	3112885.7183612	3112886.23488914
64	21	0	0	90	36.1581920903955	36.241610738255	17	0.566703432016075	2	1	6	NaN	1	3	0.0441215250327206	1	1	NaN	227	4	38	1	121	221	321	NaN	521	0.275423237122595	1	1	NaN	3112887.6018687	NaN	3112888.5853172	3112889.10183366
64	21	0	0	90	36.1581920903955	36.241610738255	10	0.333354960009456	2	2	4	NaN	1	3	0.0441215250327206	1	1	NaN	228	4	39	1	121	221	321	NaN	521	0.270996022038162	2	0	NaN	3112890.5021952	NaN	3112891.4855843	3112892.00211378
64	21	0	0	90	36.1581920903955	36.241610738255	17	0.566703432016075	2	9	5	NaN	2	4	0.0441215250327206	1	1	NaN	229	4	40	1	121	221	321	NaN	521	0.159863121341914	2	1	NaN	3112893.0857435	NaN	3112894.0690512	3112894.58571088
64	21	0	0	90	36.1581920903955	36.241610738255	14	0.466696944013238	2	4	5	NaN	1	5	0.0441215250327206	1	1	NaN	230	4	41	1	121	221	321	NaN	521	2.56832742132246	1	1	NaN	3112895.852717	NaN	3112896.8361227	3112897.35264888
64	21	0	0	90	36.1581920903955	36.241610738255	11	0.366690456010401	2	3	3	NaN	1	5	0.0441215250327206	1	1	NaN	231	4	42	1	121	221	321	NaN	521	0.0104848216287792	1	1	NaN	3112900.969846	NaN	3112901.9532855	3112902.46982188
64	21	0	0	90	36.1581920903955	36.241610738255	14	0.466696944013238	2	7	4	NaN	2	4	0.0441215250327206	1	1	NaN	232	4	43	1	121	221	321	NaN	521	0.309902963694185	1	0	NaN	3112903.7034584	NaN	3112904.6868831	3112905.20341474
64	21	0	0	90	36.1581920903955	36.241610738255	23	0.766716408021748	2	7	6	NaN	2	4	0.0441215250327206	1	1	NaN	233	4	44	1	121	221	321	NaN	521	0.421320131979883	2	1	NaN	3112909.1040105	NaN	3112910.0874526	3112910.60394837
64	21	0	0	90	36.1581920903955	36.241610738255	23	0.766716408021748	2	9	2	NaN	2	4	0.0441215250327206	1	1	NaN	234	4	45	1	121	221	321	NaN	521	0.471372469328344	2	1	NaN	3112911.8542595	NaN	3112912.8376757	3112913.35421043
64	21	0	0	90	36.1581920903955	36.241610738255	11	0.366690456010401	2	12	2	NaN	2	4	0.0441215250327206	1	1	NaN	235	4	46	1	121	221	321	NaN	521	4.05549382651225	2	1	NaN	3112914.6377561	NaN	3112915.621288	3112916.13782687
64	21	0	0	90	36.1581920903955	36.241610738255	17	0.566703432016075	2	2	1	NaN	1	3	0.0441215250327206	1	1	NaN	236	4	47	1	121	221	321	NaN	521	0.314934816211462	1	1	NaN	3112921.5385501	NaN	3112922.5219354	3112923.03849618
64	21	0	0	90	36.1581920903955	36.241610738255	10	0.333354960009456	2	4	1	NaN	1	4	0.0441215250327206	1	1	NaN	237	4	48	1	121	221	321	NaN	521	2.46583341667429	1	1	NaN	3112924.5554996	NaN	3112925.5389566	3112926.05546648
64	21	0	0	90	36.1581920903955	36.241610738255	13	0.433361448012292	2	8	2	NaN	2	3	0.0441215250327206	1	1	NaN	238	4	49	1	121	221	321	NaN	521	0.73820786876604	2	1	NaN	3112929.3392849	NaN	3112930.3226372	3112930.83926533
64	21	0	0	90	36.1581920903955	36.241610738255	8	0.266683968007565	2	9	1	NaN	2	3	0.0441215250327206	1	1	NaN	239	4	50	1	121	221	321	NaN	521	0.0104018216952682	2	1	NaN	3112932.3896285	NaN	3112933.3730183	3112933.88957418
64	21	0	0	90	36.1581920903955	36.241610738255	13	0.433361448012292	2	9	1	NaN	2	3	0.0441215250327206	1	1	NaN	240	4	51	1	121	221	321	NaN	521	0.362292268779129	1	0	NaN	3112934.7230539	NaN	3112935.7065927	3112936.22313253
64	21	0	0	90	36.1581920903955	36.241610738255	6	0.200012976005673	2	4	6	NaN	1	5	0.0441215250327206	1	1	NaN	241	4	52	1	121	221	321	NaN	521	2.29298626910895	2	0	NaN	3112938.4402091	NaN	3112939.4236542	3112939.94015983
64	21	0	0	90	36.1581920903955	36.241610738255	20	0.666709920018911	2	2	1	NaN	1	3	0.0441215250327206	1	1	NaN	242	4	53	1	121	221	321	NaN	521	0.676067969296128	2	0	NaN	3112943.0573534	NaN	3112944.040737	3112944.55727703
64	21	0	0	90	36.1581920903955	36.241610738255	22	0.733380912020803	2	10	6	NaN	2	3	0.0441215250327206	1	1	NaN	243	4	54	1	121	221	321	NaN	521	1.97450231667608	2	1	NaN	3112946.3908641	NaN	3112947.3744187	3112947.89093588
64	21	0	0	90	36.1581920903955	36.241610738255	16	0.533367936015129	2	9	5	NaN	2	3	0.0441215250327206	1	1	NaN	244	4	55	1	121	221	321	NaN	521	0.0104932738468051	2	1	NaN	3112950.6913792	NaN	3112951.6749231	3112952.19137023
64	21	0	0	90	36.1581920903955	36.241610738255	22	0.733380912020803	2	1	6	NaN	1	5	0.0441215250327206	1	1	NaN	245	4	56	1	121	221	321	NaN	521	0.0104974168352783	2	0	NaN	3112953.0249754	NaN	3112954.0084201	3112954.52492348
64	21	0	0	90	36.1581920903955	36.241610738255	12	0.400025952011347	2	9	5	NaN	2	3	0.0441215250327206	1	1	NaN	246	4	57	1	121	221	321	NaN	521	0.319123631343246	1	0	NaN	3112955.358429	NaN	3112956.3419696	3112956.85849927
64	21	0	0	90	36.1581920903955	36.241610738255	6	0.200012976005673	2	11	6	NaN	2	4	0.0441215250327206	1	1	NaN	247	4	58	1	121	221	321	NaN	521	0.173087868839502	2	1	NaN	3112957.9920253	NaN	3112958.975564	3112959.49208123
64	21	0	0	90	36.1581920903955	36.241610738255	6	0.200012976005673	2	6	5	NaN	1	5	0.0441215250327206	1	1	NaN	248	4	59	1	121	221	321	NaN	521	0.010292689781636	1	1	NaN	3112960.4924065	NaN	3112961.4757988	3112961.99232751
64	21	0	0	90	36.1581920903955	36.241610738255	25	0.833387400023639	2	5	2	NaN	1	4	0.0441215250327206	1	1	NaN	249	4	60	1	121	221	321	NaN	521	0.291487969458103	1	1	NaN	3112962.8259612	NaN	3112963.8093437	3112964.32589403
64	21	0	0	90	36.1581920903955	36.241610738255	7	0.233348472006619	2	10	6	NaN	2	3	0.0441215250327206	1	1	NaN	250	4	61	1	121	221	321	NaN	521	0.514593373984098	2	1	NaN	3112965.4428792	NaN	3112966.4262861	3112966.94282493
64	21	0	0	90	36.1581920903955	36.241610738255	18	0.60003892801702	2	5	5	NaN	1	3	0.0441215250327206	1	1	NaN	251	4	62	1	121	221	321	NaN	521	0.472794816363603	1	1	NaN	3112968.2764974	NaN	3112969.2599074	3112969.77642268
64	21	0	0	90	36.1581920903955	36.241610738255	10	0.333354960009456	2	2	4	NaN	1	5	0.0441215250327206	1	1	NaN	252	4	63	1	121	221	321	NaN	521	0.640709869097918	2	0	NaN	3112971.0768733	NaN	3112972.0601692	3112972.57669943
64	21	0	0	90	36.1581920903955	36.241610738255	12	0.400025952011347	2	2	5	NaN	1	3	0.0441215250327206	1	1	NaN	253	5	1	1	121	221	321	NaN	521	0.0103149893693626	2	0	NaN	3112988.395121	NaN	3112989.378526	3112989.89506991
64	21	0	0	90	36.1581920903955	36.241610738255	20	0.666709920018911	2	4	3	NaN	1	4	0.0441215250327206	1	1	NaN	254	5	2	1	121	221	321	NaN	521	1.00461562629789	2	0	NaN	3112990.7286949	NaN	3112991.7120819	3112992.22863557
64	21	0	0	90	36.1581920903955	36.241610738255	17	0.566703432016075	2	12	2	NaN	2	4	0.0441215250327206	1	1	NaN	255	5	3	1	121	221	321	NaN	521	0.671157469041646	2	1	NaN	3112994.0623543	NaN	3112995.0457746	3112995.56230363
64	21	0	0	90	36.1581920903955	36.241610738255	15	0.500032440014184	2	5	6	NaN	1	3	0.0441215250327206	1	1	NaN	256	5	4	1	121	221	321	NaN	521	0.326839963905513	1	1	NaN	3112997.062643	NaN	3112998.046067	3112998.56259654
64	21	0	0	90	36.1581920903955	36.241610738255	11	0.366690456010401	2	12	4	NaN	2	3	0.0441215250327206	1	1	NaN	257	5	5	1	121	221	321	NaN	521	0.268474931363016	2	1	NaN	3112999.7129051	NaN	3113000.6963011	3113001.21286107
64	21	0	0	90	36.1581920903955	36.241610738255	7	0.233348472006619	2	12	6	NaN	2	4	0.0441215250327206	1	1	NaN	258	5	6	1	121	221	321	NaN	521	0.749392694793642	2	1	NaN	3113002.2964868	NaN	3113003.2799034	3113003.79644911
64	21	0	0	90	36.1581920903955	36.241610738255	19	0.633374424017966	2	4	5	NaN	1	5	0.0441215250327206	1	1	NaN	259	5	7	1	121	221	321	NaN	521	0.314334769267589	1	1	NaN	3113005.3634496	NaN	3113006.3468857	3113006.86339923
64	21	0	0	90	36.1581920903955	36.241610738255	8	0.266683968007565	2	4	4	NaN	1	5	0.0441215250327206	1	1	NaN	260	5	8	1	121	221	321	NaN	521	0.289135216269642	2	0	NaN	3113008.1803486	NaN	3113009.1637952	3113009.68034048
64	21	0	0	90	36.1581920903955	36.241610738255	10	0.333354960009456	2	6	4	NaN	1	4	0.0441215250327206	1	1	NaN	261	5	9	1	121	221	321	NaN	521	0.0242074690759182	1	1	NaN	3113010.7973254	NaN	3113011.7807528	3113012.29726713
64	21	0	0	90	36.1581920903955	36.241610738255	25	0.833387400023639	2	12	4	NaN	2	4	0.0441215250327206	1	1	NaN	262	5	10	1	121	221	321	NaN	521	0.0104647218249738	1	0	NaN	3113013.63094	NaN	3113014.6143255	3113015.13089078
64	21	0	0	90	36.1581920903955	36.241610738255	6	0.200012976005673	2	2	3	NaN	1	5	0.0441215250327206	1	1	NaN	263	5	11	1	121	221	321	NaN	521	0.177666621748358	1	1	NaN	3113015.9477309	NaN	3113016.9312111	3113017.44778648
64	21	0	0	90	36.1581920903955	36.241610738255	15	0.500032440014184	2	6	4	NaN	1	5	0.0441215250327206	1	1	NaN	264	5	12	1	121	221	321	NaN	521	0.365257069002837	1	1	NaN	3113018.4480844	NaN	3113019.4314796	3113019.94802253
64	21	0	0	90	36.1581920903955	36.241610738255	21	0.700045416019857	2	12	5	NaN	2	3	0.0441215250327206	1	1	NaN	265	5	13	1	121	221	321	NaN	521	1.43368106894195	1	0	NaN	3113021.1317012	NaN	3113022.1150729	3113022.63161633
64	21	0	0	90	36.1581920903955	36.241610738255	17	0.566703432016075	2	4	1	NaN	1	3	0.0441215250327206	1	1	NaN	266	5	14	1	121	221	321	NaN	521	0.419655931647867	1	1	NaN	3113024.8820366	NaN	3113025.8654779	3113026.38199147
64	21	0	0	90	36.1581920903955	36.241610738255	21	0.700045416019857	2	6	5	NaN	1	3	0.0441215250327206	1	1	NaN	267	5	15	1	121	221	321	NaN	521	0.814132931642234	1	1	NaN	3113027.6155218	NaN	3113028.5990396	3113029.11559627
64	21	0	0	90	36.1581920903955	36.241610738255	18	0.60003892801702	2	4	4	NaN	1	3	0.0441215250327206	1	1	NaN	268	5	16	1	121	221	321	NaN	521	0.536156163550913	1	1	NaN	3113030.7493038	NaN	3113031.7327028	3113032.24922554
64	21	0	0	90	36.1581920903955	36.241610738255	23	0.766716408021748	2	8	2	NaN	2	4	0.0441215250327206	1	1	NaN	269	5	17	1	121	221	321	NaN	521	1.23753093183041	1	0	NaN	3113033.6162348	NaN	3113034.5996295	3113035.11618447
64	21	0	0	90	36.1581920903955	36.241610738255	18	0.60003892801702	2	1	2	NaN	1	4	0.0441215250327206	1	1	NaN	270	5	18	1	121	221	321	NaN	521	0.238646616227925	1	1	NaN	3113037.1830985	NaN	3113038.1666626	3113038.68319138
64	21	0	0	90	36.1581920903955	36.241610738255	24	0.800051904022694	2	10	6	NaN	2	5	0.0441215250327206	1	1	NaN	271	5	19	1	121	221	321	NaN	521	0.271628331858665	2	1	NaN	3113039.7501847	NaN	3113040.7335655	3113041.25012597
64	21	0	0	90	36.1581920903955	36.241610738255	14	0.466696944013238	2	4	6	NaN	1	5	0.0441215250327206	1	1	NaN	272	5	20	1	121	221	321	NaN	521	0.0104875690303743	2	0	NaN	3113042.3504177	NaN	3113043.333829	3113043.85037353
64	21	0	0	90	36.1581920903955	36.241610738255	14	0.466696944013238	2	8	3	NaN	2	4	0.0441215250327206	1	1	NaN	273	5	21	1	121	221	321	NaN	521	0.433632521424443	1	0	NaN	3113044.6838693	NaN	3113045.6673942	3113046.18394108
64	21	0	0	90	36.1581920903955	36.241610738255	16	0.533367936015129	2	3	4	NaN	1	3	0.0441215250327206	1	1	NaN	274	5	22	1	121	221	321	NaN	521	1.73129391623661	1	1	NaN	3113047.4342706	NaN	3113048.4176721	3113048.93421078
64	21	0	0	90	36.1581920903955	36.241610738255	21	0.700045416019857	2	3	5	NaN	1	5	0.0441215250327206	1	1	NaN	275	5	23	1	121	221	321	NaN	521	0.0104295164346695	1	1	NaN	3113051.4846526	NaN	3113052.468057	3113052.98460828
64	21	0	0	90	36.1581920903955	36.241610738255	17	0.566703432016075	2	4	4	NaN	1	3	0.0441215250327206	1	1	NaN	276	5	24	1	121	221	321	NaN	521	2.61235972167924	2	0	NaN	3113053.8015515	NaN	3113054.7849288	3113055.30150088
64	21	0	0	90	36.1581920903955	36.241610738255	9	0.30001946400851	2	2	6	NaN	1	4	0.0441215250327206	1	1	NaN	277	5	25	1	121	221	321	NaN	521	0.0104767689481378	2	0	NaN	3113058.7352215	NaN	3113059.718767	3113060.23531523
64	21	0	0	90	36.1581920903955	36.241610738255	18	0.60003892801702	2	7	6	NaN	2	4	0.0441215250327206	1	1	NaN	278	5	26	1	121	221	321	NaN	521	0.0104828691110015	2	1	NaN	3113061.1522704	NaN	3113062.135714	3113062.65222523
64	21	0	0	90	36.1581920903955	36.241610738255	17	0.566703432016075	2	7	6	NaN	2	4	0.0441215250327206	1	1	NaN	279	5	27	1	121	221	321	NaN	521	1.28774206945673	2	1	NaN	3113063.4858318	NaN	3113064.4692416	3113064.98578583
64	21	0	0	90	36.1581920903955	36.241610738255	23	0.766716408021748	2	11	2	NaN	2	3	0.0441215250327206	1	1	NaN	280	5	28	1	121	221	321	NaN	521	0.0104812164790928	2	1	NaN	3113067.1028445	NaN	3113068.0862534	3113068.60279588
64	21	0	0	90	36.1581920903955	36.241610738255	8	0.266683968007565	2	10	3	NaN	2	3	0.0441215250327206	1	1	NaN	281	5	29	1	121	221	321	NaN	521	1.73741088435054	1	0	NaN	3113069.436436	NaN	3113070.4198662	3113070.93636502
64	21	0	0	90	36.1581920903955	36.241610738255	25	0.833387400023639	2	7	2	NaN	2	5	0.0441215250327206	1	1	NaN	282	5	30	1	121	221	321	NaN	521	0.0104275164194405	1	0	NaN	3113073.503339	NaN	3113074.4869044	3113075.00343408
64	21	0	0	90	36.1581920903955	36.241610738255	8	0.266683968007565	2	12	1	NaN	2	4	0.0441215250327206	1	1	NaN	283	5	31	1	121	221	321	NaN	521	1.4724961691536	2	1	NaN	3113075.8370394	NaN	3113076.8204864	3113077.33699793
64	21	0	0	90	36.1581920903955	36.241610738255	9	0.30001946400851	2	1	2	NaN	1	3	0.0441215250327206	1	1	NaN	284	5	32	1	121	221	321	NaN	521	0.248224969021976	2	0	NaN	3113079.6374317	NaN	3113080.62084	3113081.13736723
64	21	0	0	90	36.1581920903955	36.241610738255	24	0.800051904022694	2	3	1	NaN	1	3	0.0441215250327206	1	1	NaN	285	5	33	1	121	221	321	NaN	521	0.30556576885283	1	1	NaN	3113082.2043415	NaN	3113083.1877607	3113083.70428283
64	21	0	0	90	36.1581920903955	36.241610738255	15	0.500032440014184	2	1	6	NaN	1	5	0.0441215250327206	1	1	NaN	286	5	34	1	121	221	321	NaN	521	0.0104291164316237	1	1	NaN	3113084.8212795	NaN	3113085.8046935	3113086.32120948
64	21	0	0	90	36.1581920903955	36.241610738255	23	0.766716408021748	2	10	1	NaN	2	5	0.0441215250327206	1	1	NaN	287	5	35	1	121	221	321	NaN	521	1.17457456886768	2	1	NaN	3113087.6548509	NaN	3113088.6382756	3113089.15481643
64	21	0	0	90	36.1581920903955	36.241610738255	10	0.333354960009456	2	7	5	NaN	2	4	0.0441215250327206	1	1	NaN	288	5	36	1	121	221	321	NaN	521	0.250465768855065	1	0	NaN	3113091.1552375	NaN	3113092.1386394	3113092.65516193
64	21	0	0	90	36.1581920903955	36.241610738255	17	0.566703432016075	2	10	5	NaN	2	5	0.0441215250327206	1	1	NaN	289	5	37	1	121	221	321	NaN	521	1.22773952642456	2	1	NaN	3113093.7221576	NaN	3113094.7055554	3113095.22208427
64	21	0	0	90	36.1581920903955	36.241610738255	18	0.60003892801702	2	7	3	NaN	2	4	0.0441215250327206	1	1	NaN	290	5	38	1	121	221	321	NaN	521	0.0450807739980519	1	0	NaN	3113097.2724028	NaN	3113098.2559065	3113098.77246993
64	21	0	0	90	36.1581920903955	36.241610738255	17	0.566703432016075	2	9	3	NaN	2	5	0.0441215250327206	1	1	NaN	291	5	39	1	121	221	321	NaN	521	1.11014993162826	2	1	NaN	3113099.6394059	NaN	3113100.6227976	3113101.13933977
64	21	0	0	90	36.1581920903955	36.241610738255	20	0.666709920018911	2	12	6	NaN	2	4	0.0441215250327206	1	1	NaN	292	5	40	1	121	221	321	NaN	521	0.284865042194724	1	0	NaN	3113103.0729679	NaN	3113104.0564719	3113104.57300916
64	21	0	0	90	36.1581920903955	36.241610738255	18	0.60003892801702	2	3	1	NaN	1	5	0.0441215250327206	1	1	NaN	293	5	41	1	121	221	321	NaN	521	1.90484202140942	1	1	NaN	3113106.1566931	NaN	3113107.1400974	3113107.65664328
64	21	0	0	90	36.1581920903955	36.241610738255	17	0.566703432016075	2	1	3	NaN	1	4	0.0441215250327206	1	1	NaN	294	5	42	1	121	221	321	NaN	521	2.22317873733118	1	1	NaN	3113110.3903582	NaN	3113111.3738587	3113111.89039736
64	21	0	0	90	36.1581920903955	36.241610738255	0	0	1	5	4	NaN	1	5	0.0441215250327206	1	1	NaN	295	5	43	1	111	211	311	NaN	511	0.0104834688827395	2	0	NaN	3113114.9409027	NaN	3113115.9243013	3113116.44084573
64	21	0	0	90	36.1581920903955	36.241610738255	14	0.466696944013238	2	10	4	NaN	2	3	0.0441215250327206	1	1	NaN	296	5	44	1	121	221	321	NaN	521	0.0104438164271414	1	0	NaN	3113117.2744836	NaN	3113118.2578697	3113118.77439998
64	21	0	0	90	36.1581920903955	36.241610738255	7	0.233348472006619	2	10	2	NaN	2	3	0.0441215250327206	1	1	NaN	297	5	45	1	121	221	321	NaN	521	1.21356836939231	2	1	NaN	3113119.6080194	NaN	3113120.591425	3113121.10796033
64	21	0	0	90	36.1581920903955	36.241610738255	15	0.500032440014184	2	3	3	NaN	1	5	0.0441215250327206	1	1	NaN	298	5	46	1	121	221	321	NaN	521	0.791871016379446	2	0	NaN	3113123.1415328	NaN	3113124.1251052	3113124.64163788
64	21	0	0	90	36.1581920903955	36.241610738255	16	0.533367936015129	2	10	6	NaN	2	4	0.0441215250327206	1	1	NaN	299	5	47	1	121	221	321	NaN	521	1.0349255213514	2	1	NaN	3113126.258568	NaN	3113127.2420845	3113127.75862188
64	21	0	0	90	36.1581920903955	36.241610738255	19	0.633374424017966	2	9	2	NaN	2	5	0.0441215250327206	1	1	NaN	300	5	48	1	121	221	321	NaN	521	0.059695569332689	2	1	NaN	3113129.6423127	NaN	3113130.6257244	3113131.14227823
64	21	0	0	90	36.1581920903955	36.241610738255	11	0.366690456010401	2	8	1	NaN	2	3	0.0441215250327206	1	1	NaN	301	5	49	1	121	221	321	NaN	521	0.147725668735802	2	1	NaN	3113132.0257879	NaN	3113133.0091981	3113133.52584413
64	21	0	0	90	36.1581920903955	36.241610738255	11	0.366690456010401	2	11	4	NaN	2	4	0.0441215250327206	1	1	NaN	302	5	50	1	121	221	321	NaN	521	0.0104836164973676	2	1	NaN	3113134.4928451	NaN	3113135.476231	3113135.99276068
64	21	0	0	90	36.1581920903955	36.241610738255	8	0.266683968007565	2	6	3	NaN	1	5	0.0441215250327206	1	1	NaN	303	5	51	1	121	221	321	NaN	521	0.37123626889661	1	1	NaN	3113136.8264152	NaN	3113137.8097932	3113138.32631903
64	21	0	0	90	36.1581920903955	36.241610738255	15	0.500032440014184	2	9	4	NaN	2	5	0.0441215250327206	1	1	NaN	304	5	52	1	121	221	321	NaN	521	0.359627116471529	1	0	NaN	3113139.5100038	NaN	3113140.4933862	3113141.00991618
64	21	0	0	90	36.1581920903955	36.241610738255	23	0.766716408021748	2	12	6	NaN	2	4	0.0441215250327206	1	1	NaN	305	5	53	1	121	221	321	NaN	521	1.54834416368976	2	1	NaN	3113142.1934519	NaN	3113143.1769746	3113143.69351224
64	21	0	0	90	36.1581920903955	36.241610738255	15	0.500032440014184	2	11	3	NaN	2	4	0.0441215250327206	1	1	NaN	306	5	54	1	121	221	321	NaN	521	0.0170135688968003	2	1	NaN	3113146.0606213	NaN	3113147.044012	3113147.56055983
64	21	0	0	90	36.1581920903955	36.241610738255	8	0.266683968007565	2	6	5	NaN	1	3	0.0441215250327206	1	1	NaN	307	5	55	1	121	221	321	NaN	521	0.0515003688633442	2	0	NaN	3113148.3941743	NaN	3113149.3775741	3113149.89411933
64	21	0	0	90	36.1581920903955	36.241610738255	14	0.466696944013238	2	6	2	NaN	1	4	0.0441215250327206	1	1	NaN	308	5	56	1	121	221	321	NaN	521	0.252617769408971	1	1	NaN	3113150.7609612	NaN	3113151.7444678	3113152.26102953
64	21	0	0	90	36.1581920903955	36.241610738255	9	0.30001946400851	2	6	3	NaN	1	3	0.0441215250327206	1	1	NaN	309	5	57	1	121	221	321	NaN	521	0.253673021681607	2	0	NaN	3113153.3280301	NaN	3113154.3114435	3113154.82794378
64	21	0	0	90	36.1581920903955	36.241610738255	22	0.733380912020803	2	1	1	NaN	1	3	0.0441215250327206	1	1	NaN	310	5	58	1	121	221	321	NaN	521	1.64638743689284	1	1	NaN	3113155.9115834	NaN	3113156.8950823	3113157.41153166
64	21	0	0	90	36.1581920903955	36.241610738255	10	0.333354960009456	2	10	4	NaN	2	5	0.0441215250327206	1	1	NaN	311	5	59	1	121	221	321	NaN	521	1.51147788949311	1	0	NaN	3113159.8786506	NaN	3113160.8620722	3113161.37859881
64	21	0	0	90	36.1581920903955	36.241610738255	16	0.533367936015129	2	4	6	NaN	1	5	0.0441215250327206	1	1	NaN	312	5	60	1	121	221	321	NaN	521	0.213333168998361	2	0	NaN	3113163.7123401	NaN	3113164.6956709	3113165.21228883
64	21	0	0	90	36.1581920903955	36.241610738255	21	0.700045416019857	2	8	2	NaN	2	4	0.0441215250327206	1	1	NaN	313	5	61	1	121	221	321	NaN	521	1.06375846918672	1	0	NaN	3113166.2459424	NaN	3113167.2293399	3113167.74587923
64	21	0	0	90	36.1581920903955	36.241610738255	6	0.200012976005673	2	7	4	NaN	2	4	0.0441215250327206	1	1	NaN	314	5	62	1	121	221	321	NaN	521	0.271983121521771	1	0	NaN	3113169.6295868	NaN	3113170.613016	3113171.12954528
64	21	0	0	90	36.1581920903955	36.241610738255	20	0.666709920018911	2	8	1	NaN	2	4	0.0441215250327206	1	1	NaN	315	5	63	1	121	221	321	NaN	521	0.231872116215527	1	0	NaN	3113172.2297427	NaN	3113173.2133249	3113173.72979578
64	21	0	0	90	36.1581920903955	36.241610738255	12	0.400025952011347	2	12	4	NaN	2	5	0.0441215250327206	1	1	NaN	316	6	1	1	121	221	321	NaN	521	0.0406227693893015	2	1	NaN	3113192.5651877	NaN	3113193.5485791	3113194.06512533
64	21	0	0	90	36.1581920903955	36.241610738255	14	0.466696944013238	2	8	5	NaN	2	5	0.0441215250327206	1	1	NaN	317	6	2	1	121	221	321	NaN	521	0.649635516107082	2	1	NaN	3113194.9320849	NaN	3113195.9155027	3113196.43202698
64	21	0	0	90	36.1581920903955	36.241610738255	18	0.60003892801702	2	8	1	NaN	2	5	0.0441215250327206	1	1	NaN	318	6	3	1	121	221	321	NaN	521	0.450753869023174	2	1	NaN	3113197.8990518	NaN	3113198.8824511	3113199.39899363
64	21	0	0	90	36.1581920903955	36.241610738255	9	0.30001946400851	2	1	3	NaN	1	5	0.0441215250327206	1	1	NaN	319	6	4	1	121	221	321	NaN	521	0.23004881106317	2	0	NaN	3113200.8158783	NaN	3113201.7994072	3113202.31593359
64	21	0	0	90	36.1581920903955	36.241610738255	18	0.60003892801702	2	4	2	NaN	1	5	0.0441215250327206	1	1	NaN	320	6	5	1	121	221	321	NaN	521	0.0104805687442422	2	0	NaN	3113203.3663555	NaN	3113204.3496502	3113204.86618883
64	21	0	0	90	36.1581920903955	36.241610738255	23	0.766716408021748	2	2	3	NaN	1	5	0.0441215250327206	1	1	NaN	321	6	6	1	121	221	321	NaN	521	1.08970086881891	2	0	NaN	3113205.6997993	NaN	3113206.6832122	3113207.19975503
64	21	0	0	90	36.1581920903955	36.241610738255	8	0.266683968007565	2	9	3	NaN	2	5	0.0441215250327206	1	1	NaN	322	6	7	1	121	221	321	NaN	521	0.249237389769405	2	1	NaN	3113209.1168187	NaN	3113210.1002136	3113210.61676201
64	21	0	0	90	36.1581920903955	36.241610738255	20	0.666709920018911	2	3	6	NaN	1	3	0.0441215250327206	1	1	NaN	323	6	8	1	121	221	321	NaN	521	0.010392842348665	1	1	NaN	3113211.6837289	NaN	3113212.6671458	3113213.18370406
64	21	0	0	90	36.1581920903955	36.241610738255	20	0.666709920018911	2	7	3	NaN	2	3	0.0441215250327206	1	1	NaN	324	6	9	1	121	221	321	NaN	521	0.232754269149154	1	0	NaN	3113214.5173402	NaN	3113215.5007467	3113216.01728393
64	21	0	0	90	36.1581920903955	36.241610738255	15	0.500032440014184	2	4	2	NaN	1	4	0.0441215250327206	1	1	NaN	325	6	10	1	121	221	321	NaN	521	0.290195121429861	1	1	NaN	3113217.0675492	NaN	3113218.0510003	3113218.56753778
64	21	0	0	90	36.1581920903955	36.241610738255	23	0.766716408021748	2	9	2	NaN	2	4	0.0441215250327206	1	1	NaN	326	6	11	1	121	221	321	NaN	521	0.0104759694077075	2	1	NaN	3113219.6845052	NaN	3113220.6679157	3113221.18446313
64	21	0	0	90	36.1581920903955	36.241610738255	20	0.666709920018911	2	9	6	NaN	2	3	0.0441215250327206	1	1	NaN	327	6	12	1	121	221	321	NaN	521	0.228001426439732	1	0	NaN	3113222.01807	NaN	3113223.0014866	3113223.51802667
64	21	0	0	90	36.1581920903955	36.241610738255	12	0.400025952011347	2	5	3	NaN	1	5	0.0441215250327206	1	1	NaN	328	6	13	1	121	221	321	NaN	521	0.389859668910503	1	1	NaN	3113224.5683272	NaN	3113225.5517248	3113226.06826573
64	21	0	0	90	36.1581920903955	36.241610738255	12	0.400025952011347	2	1	5	NaN	1	3	0.0441215250327206	1	1	NaN	329	6	14	1	121	221	321	NaN	521	1.72044816892594	1	1	NaN	3113227.2852631	NaN	3113228.26869	3113228.78520053
64	21	0	0	90	36.1581920903955	36.241610738255	14	0.466696944013238	2	1	3	NaN	1	3	0.0441215250327206	1	1	NaN	330	6	15	1	121	221	321	NaN	521	0.263057868927717	1	1	NaN	3113231.3190053	NaN	3113232.3023939	3113232.81893313
64	21	0	0	90	36.1581920903955	36.241610738255	7	0.233348472006619	2	9	4	NaN	2	5	0.0441215250327206	1	1	NaN	331	6	16	1	121	221	321	NaN	521	0.271064421627671	1	0	NaN	3113233.9025646	NaN	3113234.8859685	3113235.40252538
64	21	0	0	90	36.1581920903955	36.241610738255	9	0.30001946400851	2	5	2	NaN	1	3	0.0441215250327206	1	1	NaN	332	6	17	1	121	221	321	NaN	521	0.110948221758008	1	1	NaN	3113236.5028442	NaN	3113237.4862513	3113238.00278758
64	21	0	0	90	36.1581920903955	36.241610738255	0	0	1	6	1	NaN	1	3	0.0441215250327206	1	1	NaN	333	6	18	1	111	211	311	NaN	511	0.853368669282645	1	1	NaN	3113238.9363938	NaN	3113239.91982	3113240.43635803
64	21	0	0	90	36.1581920903955	36.241610738255	23	0.766716408021748	2	6	2	NaN	1	4	0.0441215250327206	1	1	NaN	334	6	19	1	121	221	321	NaN	521	0.0105044636875391	2	0	NaN	3113242.1032888	NaN	3113243.0868067	3113243.60332574
64	21	0	0	90	36.1581920903955	36.241610738255	12	0.400025952011347	2	8	6	NaN	2	5	0.0441215250327206	1	1	NaN	335	6	20	1	121	221	321	NaN	521	0.912873216439039	2	1	NaN	3113244.4368537	NaN	3113245.4203603	3113245.93689178
64	21	0	0	90	36.1581920903955	36.241610738255	8	0.266683968007565	2	8	2	NaN	2	4	0.0441215250327206	1	1	NaN	336	6	21	1	121	221	321	NaN	521	0.503506469074637	2	1	NaN	3113247.6706043	NaN	3113248.6540117	3113249.17054903
64	21	0	0	90	36.1581920903955	36.241610738255	25	0.833387400023639	2	8	5	NaN	2	4	0.0441215250327206	1	1	NaN	337	6	22	1	121	221	321	NaN	521	0.110354979056865	2	1	NaN	3113250.4875359	NaN	3113251.4709267	3113251.98749492
64	21	0	0	90	36.1581920903955	36.241610738255	22	0.733380912020803	2	4	5	NaN	1	5	0.0441215250327206	1	1	NaN	338	6	23	1	121	221	321	NaN	521	0.48497568955645	1	1	NaN	3113252.9211387	NaN	3113253.9045364	3113254.42106411
64	21	0	0	90	36.1581920903955	36.241610738255	19	0.633374424017966	2	7	4	NaN	2	5	0.0441215250327206	1	1	NaN	339	6	24	1	121	221	321	NaN	521	0.203895416110754	2	1	NaN	3113255.7379506	NaN	3113256.7214488	3113257.23800328
64	21	0	0	90	36.1581920903955	36.241610738255	25	0.833387400023639	2	10	5	NaN	2	3	0.0441215250327206	1	1	NaN	340	6	25	1	121	221	321	NaN	521	2.35889226896688	2	1	NaN	3113258.254842	NaN	3113259.2383961	3113259.75490903
64	21	0	0	90	36.1581920903955	36.241610738255	7	0.233348472006619	2	6	2	NaN	1	3	0.0441215250327206	1	1	NaN	341	6	26	1	121	221	321	NaN	521	0.0104194218292832	1	1	NaN	3113262.9387813	NaN	3113263.9221795	3113264.43871308
64	21	0	0	90	36.1581920903955	36.241610738255	19	0.633374424017966	2	12	6	NaN	2	5	0.0441215250327206	1	1	NaN	342	6	27	1	121	221	321	NaN	521	0.341422468889505	1	0	NaN	3113265.2723269	NaN	3113266.2557277	3113266.77228303
64	21	0	0	90	36.1581920903955	36.241610738255	14	0.466696944013238	2	2	2	NaN	1	4	0.0441215250327206	1	1	NaN	343	6	28	1	121	221	321	NaN	521	0.274884521961212	2	0	NaN	3113267.9391783	NaN	3113268.9226739	3113269.43920528
64	21	0	0	90	36.1581920903955	36.241610738255	21	0.700045416019857	2	12	5	NaN	2	4	0.0441215250327206	1	1	NaN	344	6	29	1	121	221	321	NaN	521	0.52255542203784	1	0	NaN	3113270.5393813	NaN	3113271.5229366	3113272.03946308
64	21	0	0	90	36.1581920903955	36.241610738255	6	0.200012976005673	2	5	4	NaN	1	5	0.0441215250327206	1	1	NaN	345	6	30	1	121	221	321	NaN	521	1.13605146901682	2	0	NaN	3113273.3897824	NaN	3113274.3732182	3113274.88974233
64	21	0	0	90	36.1581920903955	36.241610738255	10	0.333354960009456	2	4	3	NaN	1	3	0.0441215250327206	1	1	NaN	346	6	31	1	121	221	321	NaN	521	0.237810769118369	1	1	NaN	3113276.8400305	NaN	3113277.8235427	3113278.34006733
64	21	0	0	90	36.1581920903955	36.241610738255	22	0.733380912020803	2	2	3	NaN	1	3	0.0441215250327206	1	1	NaN	347	6	32	1	121	221	321	NaN	521	0.0104333688504994	2	0	NaN	3113279.4070712	NaN	3113280.3904903	3113280.90699373
64	21	0	0	90	36.1581920903955	36.241610738255	9	0.30001946400851	2	9	4	NaN	2	3	0.0441215250327206	1	1	NaN	348	6	33	1	121	221	321	NaN	521	1.648270141799	1	0	NaN	3113281.7739523	NaN	3113282.7573727	3113283.27390516
64	21	0	0	90	36.1581920903955	36.241610738255	18	0.60003892801702	2	9	4	NaN	2	3	0.0441215250327206	1	1	NaN	349	6	34	1	121	221	321	NaN	521	0.072802321985364	1	0	NaN	3113285.7409987	NaN	3113286.7244009	3113287.24094838
64	21	0	0	90	36.1581920903955	36.241610738255	16	0.533367936015129	2	11	3	NaN	2	5	0.0441215250327206	1	1	NaN	350	6	35	1	121	221	321	NaN	521	0.408753674011678	1	0	NaN	3113288.141309	NaN	3113289.1246515	3113289.64119293
64	21	0	0	90	36.1581920903955	36.241610738255	25	0.833387400023639	2	6	1	NaN	1	4	0.0441215250327206	1	1	NaN	351	6	36	1	121	221	321	NaN	521	0.030442563816905	1	1	NaN	3113291.1915339	NaN	3113292.1749353	3113292.69148074
64	21	0	0	90	36.1581920903955	36.241610738255	11	0.366690456010401	2	2	4	NaN	1	5	0.0441215250327206	1	1	NaN	352	6	37	1	121	221	321	NaN	521	0.567977116443217	1	1	NaN	3113293.541754	NaN	3113294.5251698	3113295.04170888
64	21	0	0	90	36.1581920903955	36.241610738255	13	0.433361448012292	2	10	6	NaN	2	3	0.0441215250327206	1	1	NaN	353	6	38	1	121	221	321	NaN	521	0.500706358347088	1	0	NaN	3113296.4253758	NaN	3113297.4088297	3113297.92533134
64	21	0	0	90	36.1581920903955	36.241610738255	6	0.200012976005673	2	9	6	NaN	2	4	0.0441215250327206	1	1	NaN	354	6	39	1	121	221	321	NaN	521	1.63548996904865	2	1	NaN	3113299.2423309	NaN	3113300.225731	3113300.74227683
64	21	0	0	90	36.1581920903955	36.241610738255	8	0.266683968007565	2	7	3	NaN	2	3	0.0441215250327206	1	1	NaN	355	6	40	1	121	221	321	NaN	521	0.188508669380099	2	1	NaN	3113303.2092608	NaN	3113304.1927806	3113304.70933923
64	21	0	0	90	36.1581920903955	36.241610738255	25	0.833387400023639	2	3	1	NaN	1	5	0.0441215250327206	1	1	NaN	356	6	41	1	121	221	321	NaN	521	0.0103993220254779	2	0	NaN	3113305.7096408	NaN	3113306.6930487	3113307.20958118
64	21	0	0	90	36.1581920903955	36.241610738255	18	0.60003892801702	2	5	6	NaN	1	4	0.0441215250327206	1	1	NaN	357	6	42	1	121	221	321	NaN	521	0.0104717584326863	2	0	NaN	3113310.1934026	NaN	3113311.1767963	3113311.69334674
64	21	0	0	90	36.1581920903955	36.241610738255	16	0.533367936015129	2	2	6	NaN	1	4	0.0441215250327206	1	1	NaN	358	6	43	1	121	221	321	NaN	521	0.0629897690378129	2	0	NaN	3113312.5268817	NaN	3113313.5103789	3113314.02692073
64	21	0	0	90	36.1581920903955	36.241610738255	12	0.400025952011347	2	7	1	NaN	2	5	0.0441215250327206	1	1	NaN	359	6	44	1	121	221	321	NaN	521	0.406296032015234	1	0	NaN	3113315.3438111	NaN	3113316.3273191	3113316.84385867
64	21	0	0	90	36.1581920903955	36.241610738255	25	0.833387400023639	2	11	2	NaN	2	4	0.0441215250327206	1	1	NaN	360	6	45	1	121	221	321	NaN	521	0.600928468629718	2	1	NaN	3113318.0608516	NaN	3113319.0442421	3113319.56078523
64	21	0	0	90	36.1581920903955	36.241610738255	11	0.366690456010401	2	5	5	NaN	1	5	0.0441215250327206	1	1	NaN	361	6	46	1	121	221	321	NaN	521	0.524460516404361	2	0	NaN	3113320.9776803	NaN	3113321.9612009	3113322.47773688
64	21	0	0	90	36.1581920903955	36.241610738255	22	0.733380912020803	2	6	6	NaN	1	4	0.0441215250327206	1	1	NaN	362	6	47	1	121	221	321	NaN	521	0.281854789704084	2	0	NaN	3113323.828096	NaN	3113324.8114992	3113325.32802411
64	21	0	0	90	36.1581920903955	36.241610738255	15	0.500032440014184	2	9	4	NaN	2	3	0.0441215250327206	1	1	NaN	363	6	48	1	121	221	321	NaN	521	0.137604368850589	1	0	NaN	3113326.4283454	NaN	3113327.4117111	3113327.92827853
64	21	0	0	90	36.1581920903955	36.241610738255	25	0.833387400023639	2	12	5	NaN	2	3	0.0441215250327206	1	1	NaN	364	6	49	1	121	221	321	NaN	521	1.18040226912126	2	1	NaN	3113329.1619236	NaN	3113330.1453641	3113330.66189053
64	21	0	0	90	36.1581920903955	36.241610738255	22	0.733380912020803	2	5	3	NaN	1	5	0.0441215250327206	1	1	NaN	365	6	50	1	121	221	321	NaN	521	0.991825416684151	2	0	NaN	3113332.6624122	NaN	3113333.6457119	3113334.16223388
64	21	0	0	90	36.1581920903955	36.241610738255	18	0.60003892801702	2	11	5	NaN	2	3	0.0441215250327206	1	1	NaN	366	6	51	1	121	221	321	NaN	521	0.459174069110304	2	1	NaN	3113335.9792595	NaN	3113336.9627072	3113337.47921093
64	21	0	0	90	36.1581920903955	36.241610738255	24	0.800051904022694	2	12	3	NaN	2	4	0.0441215250327206	1	1	NaN	367	6	52	1	121	221	321	NaN	521	0.97889036918059	2	1	NaN	3113338.7628865	NaN	3113339.746291	3113340.26281833
64	21	0	0	90	36.1581920903955	36.241610738255	23	0.766716408021748	2	5	5	NaN	1	3	0.0441215250327206	1	1	NaN	368	6	53	1	121	221	321	NaN	521	0.694905563723296	2	0	NaN	3113342.0632149	NaN	3113343.0466157	3113343.56314944
64	21	0	0	90	36.1581920903955	36.241610738255	11	0.366690456010401	2	4	2	NaN	1	3	0.0441215250327206	1	1	NaN	369	6	54	1	121	221	321	NaN	521	0.205747263971716	1	1	NaN	3113345.0800536	NaN	3113346.0635734	3113346.58011814
64	21	0	0	90	36.1581920903955	36.241610738255	11	0.366690456010401	2	1	6	NaN	1	5	0.0441215250327206	1	1	NaN	370	6	55	1	121	221	321	NaN	521	0.296453178860247	2	0	NaN	3113347.6137494	NaN	3113348.5971762	3113349.11370072
64	21	0	0	90	36.1581920903955	36.241610738255	18	0.60003892801702	2	11	6	NaN	2	3	0.0441215250327206	1	1	NaN	371	6	56	1	121	221	321	NaN	521	0.359352779109031	2	1	NaN	3113350.2305828	NaN	3113351.214107	3113351.73062742
64	21	0	0	90	36.1581920903955	36.241610738255	17	0.566703432016075	2	11	6	NaN	2	4	0.0441215250327206	1	1	NaN	372	6	57	1	121	221	321	NaN	521	0.388079668860883	2	1	NaN	3113352.9141572	NaN	3113353.8976881	3113354.41421103
64	21	0	0	90	36.1581920903955	36.241610738255	22	0.733380912020803	2	11	4	NaN	2	4	0.0441215250327206	1	1	NaN	373	6	58	1	121	221	321	NaN	521	1.35868846904486	2	1	NaN	3113355.6311858	NaN	3113356.6146178	3113357.13114323
64	21	0	0	90	36.1581920903955	36.241610738255	17	0.566703432016075	2	5	1	NaN	1	3	0.0441215250327206	1	1	NaN	374	6	59	1	121	221	321	NaN	521	0.299342989455909	2	0	NaN	3113359.3149149	NaN	3113360.2983054	3113360.81485551
64	21	0	0	90	36.1581920903955	36.241610738255	7	0.233348472006619	2	8	1	NaN	2	5	0.0441215250327206	1	1	NaN	375	6	60	1	121	221	321	NaN	521	0.346290268935263	1	0	NaN	3113361.9317168	NaN	3113362.9152379	3113363.43177173
64	21	0	0	90	36.1581920903955	36.241610738255	14	0.466696944013238	2	12	1	NaN	2	5	0.0441215250327206	1	1	NaN	376	6	61	1	121	221	321	NaN	521	1.8710034689866	1	0	NaN	3113364.5987543	NaN	3113365.5821502	3113366.09869613
64	21	0	0	90	36.1581920903955	36.241610738255	17	0.566703432016075	2	12	3	NaN	2	5	0.0441215250327206	1	1	NaN	377	6	62	1	121	221	321	NaN	521	0.0104566216468811	2	1	NaN	3113368.79925	NaN	3113369.7825716	3113370.29911188
64	21	0	0	90	36.1581920903955	36.241610738255	20	0.666709920018911	2	6	4	NaN	1	4	0.0441215250327206	1	1	NaN	378	6	63	1	121	221	321	NaN	521	0.953268368728459	1	1	NaN	3113371.1327488	NaN	3113372.1161264	3113372.63268693
64	21	0	0	90	36.1581920903955	36.241610738255	22	0.733380912020803	2	7	6	NaN	2	3	0.0441215250327206	1	1	NaN	379	7	1	1	121	221	321	NaN	521	0.0104816691018641	2	1	NaN	3113394.6184378	NaN	3113395.6018141	3113396.11830993
64	21	0	0	90	36.1581920903955	36.241610738255	16	0.533367936015129	2	12	3	NaN	2	3	0.0441215250327206	1	1	NaN	380	7	2	1	121	221	321	NaN	521	0.301954315975308	2	1	NaN	3113398.5520924	NaN	3113399.5354834	3113400.05202498
64	21	0	0	90	36.1581920903955	36.241610738255	16	0.533367936015129	2	6	4	NaN	1	3	0.0441215250327206	1	1	NaN	381	7	3	1	121	221	321	NaN	521	1.37652242183685	1	1	NaN	3113412.0534103	NaN	3113413.0368448	3113413.55335898
64	21	0	0	90	36.1581920903955	36.241610738255	0	0	1	7	5	NaN	2	3	0.0441215250327206	1	1	NaN	382	7	4	1	111	211	311	NaN	511	0.124316621571779	2	1	NaN	3113415.7537747	NaN	3113416.7371858	3113417.25372738
64	21	0	0	90	36.1581920903955	36.241610738255	25	0.833387400023639	2	11	5	NaN	2	5	0.0441215250327206	1	1	NaN	383	7	5	1	121	221	321	NaN	521	0.250140968710184	2	1	NaN	3113418.2040059	NaN	3113419.1874188	3113419.70396303
64	21	0	0	90	36.1581920903955	36.241610738255	22	0.733380912020803	2	9	6	NaN	2	5	0.0441215250327206	1	1	NaN	384	7	6	1	121	221	321	NaN	521	0.0103996219113469	1	0	NaN	3113420.7709259	NaN	3113421.7543489	3113422.27088658
64	21	0	0	90	36.1581920903955	36.241610738255	7	0.233348472006619	2	6	2	NaN	1	5	0.0441215250327206	1	1	NaN	385	7	7	1	121	221	321	NaN	521	0.229842642322183	1	1	NaN	3113423.1045198	NaN	3113424.0878993	3113424.60445176
64	21	0	0	90	36.1581920903955	36.241610738255	15	0.500032440014184	2	8	5	NaN	2	3	0.0441215250327206	1	1	NaN	386	7	8	1	121	221	321	NaN	521	0.231996663846076	1	0	NaN	3113425.6380966	NaN	3113426.6214961	3113427.13802684
64	21	0	0	90	36.1581920903955	36.241610738255	25	0.833387400023639	2	7	4	NaN	2	4	0.0441215250327206	1	1	NaN	387	7	9	1	121	221	321	NaN	521	0.305872437078506	2	1	NaN	3113428.1883285	NaN	3113429.1717237	3113429.68830126
64	21	0	0	90	36.1581920903955	36.241610738255	11	0.366690456010401	2	4	5	NaN	1	4	0.0441215250327206	1	1	NaN	388	7	10	1	121	221	321	NaN	521	0.0104265687987208	1	1	NaN	3113430.8052431	NaN	3113431.7886422	3113432.30519333
64	21	0	0	90	36.1581920903955	36.241610738255	8	0.266683968007565	2	1	3	NaN	1	4	0.0441215250327206	1	1	NaN	389	7	11	1	121	221	321	NaN	521	0.725014416500926	1	1	NaN	3113433.3054962	NaN	3113434.2889002	3113434.80544548
64	21	0	0	90	36.1581920903955	36.241610738255	16	0.533367936015129	2	8	4	NaN	2	3	0.0441215250327206	1	1	NaN	390	7	12	1	121	221	321	NaN	521	0.714319269172847	2	1	NaN	3113436.3557967	NaN	3113437.339147	3113437.85573823
64	21	0	0	90	36.1581920903955	36.241610738255	19	0.633374424017966	2	8	3	NaN	2	5	0.0441215250327206	1	1	NaN	391	7	13	1	121	221	321	NaN	521	0.416648821439594	2	1	NaN	3113439.3894403	NaN	3113440.3728426	3113440.88937028
64	21	0	0	90	36.1581920903955	36.241610738255	20	0.666709920018911	2	3	2	NaN	1	3	0.0441215250327206	1	1	NaN	392	7	14	1	121	221	321	NaN	521	0.282988269347697	2	0	NaN	3113442.1230237	NaN	3113443.1064243	3113443.62298483
64	21	0	0	90	36.1581920903955	36.241610738255	17	0.566703432016075	2	8	4	NaN	2	5	0.0441215250327206	1	1	NaN	393	7	15	1	121	221	321	NaN	521	0.530565621796995	2	1	NaN	3113444.7232458	NaN	3113445.7065999	3113446.22325158
64	21	0	0	90	36.1581920903955	36.241610738255	19	0.633374424017966	2	5	6	NaN	1	5	0.0441215250327206	1	1	NaN	394	7	16	1	121	221	321	NaN	521	1.1125342217274	2	0	NaN	3113447.5735539	NaN	3113448.5569825	3113449.07351308
64	21	0	0	90	36.1581920903955	36.241610738255	16	0.533367936015129	2	9	4	NaN	2	3	0.0441215250327206	1	1	NaN	395	7	17	1	121	221	321	NaN	521	0.126759269274771	2	1	NaN	3113451.0071355	NaN	3113451.9906565	3113452.50718473
64	21	0	0	90	36.1581920903955	36.241610738255	19	0.633374424017966	2	3	2	NaN	1	4	0.0441215250327206	1	1	NaN	396	7	18	1	121	221	321	NaN	521	0.229591721668839	1	1	NaN	3113453.4408201	NaN	3113454.4242558	3113454.94076328
64	21	0	0	90	36.1581920903955	36.241610738255	11	0.366690456010401	2	5	3	NaN	1	3	0.0441215250327206	1	1	NaN	397	7	19	1	121	221	321	NaN	521	0.0104121691547334	1	1	NaN	3113455.9910805	NaN	3113456.9744788	3113457.49100663
64	21	0	0	90	36.1581920903955	36.241610738255	24	0.800051904022694	2	11	4	NaN	2	4	0.0441215250327206	1	1	NaN	398	7	20	1	121	221	321	NaN	521	0.297344468999654	1	0	NaN	3113458.3246265	NaN	3113459.3080147	3113459.82457243
64	21	0	0	90	36.1581920903955	36.241610738255	9	0.30001946400851	2	11	1	NaN	2	5	0.0441215250327206	1	1	NaN	399	7	21	1	121	221	321	NaN	521	0.304467816371471	2	1	NaN	3113460.9414468	NaN	3113461.924954	3113462.44148728
64	21	0	0	90	36.1581920903955	36.241610738255	9	0.30001946400851	2	9	1	NaN	2	4	0.0441215250327206	1	1	NaN	400	7	22	1	121	221	321	NaN	521	1.1087293215096	1	0	NaN	3113463.6251439	NaN	3113464.6085824	3113465.12509588
64	21	0	0	90	36.1581920903955	36.241610738255	0	0	1	1	1	NaN	1	3	0.0441215250327206	1	1	NaN	401	7	23	1	111	211	311	NaN	511	0.404365973547101	2	0	NaN	3113467.0421801	NaN	3113468.0256028	3113468.54209523
64	21	0	0	90	36.1581920903955	36.241610738255	13	0.433361448012292	2	4	1	NaN	1	4	0.0441215250327206	1	1	NaN	402	7	24	1	121	221	321	NaN	521	0.359320821706206	2	0	NaN	3113469.7591295	NaN	3113470.7424798	3113471.25903858
64	21	0	0	90	36.1581920903955	36.241610738255	25	0.833387400023639	2	9	1	NaN	2	4	0.0441215250327206	1	1	NaN	403	7	25	1	121	221	321	NaN	521	0.707244963850826	2	1	NaN	3113472.4427001	NaN	3113473.4260882	3113473.94262704
64	21	0	0	90	36.1581920903955	36.241610738255	14	0.466696944013238	2	5	4	NaN	1	4	0.0441215250327206	1	1	NaN	404	7	26	1	121	221	321	NaN	521	0.946550916414708	2	0	NaN	3113475.4596452	NaN	3113476.4430446	3113476.95958858
64	21	0	0	90	36.1581920903955	36.241610738255	12	0.400025952011347	2	7	1	NaN	2	5	0.0441215250327206	1	1	NaN	405	7	27	1	121	221	321	NaN	521	0.0104424166493118	1	0	NaN	3113478.7266374	NaN	3113479.7100353	3113480.22658258
64	21	0	0	90	36.1581920903955	36.241610738255	24	0.800051904022694	2	9	2	NaN	2	4	0.0441215250327206	1	1	NaN	406	7	28	1	121	221	321	NaN	521	0.257892868947238	2	1	NaN	3113481.0602119	NaN	3113482.0435885	3113482.56013243
64	21	0	0	90	36.1581920903955	36.241610738255	19	0.633374424017966	2	12	3	NaN	2	5	0.0441215250327206	1	1	NaN	407	7	29	1	121	221	321	NaN	521	0.259108316618949	1	0	NaN	3113483.6269933	NaN	3113484.6105339	3113485.12705028
64	21	0	0	90	36.1581920903955	36.241610738255	18	0.60003892801702	2	6	5	NaN	1	5	0.0441215250327206	1	1	NaN	408	7	30	1	121	221	321	NaN	521	0.195369669236243	1	1	NaN	3113486.2107207	NaN	3113487.1941021	3113487.71063953
64	21	0	0	90	36.1581920903955	36.241610738255	7	0.233348472006619	2	5	3	NaN	1	5	0.0441215250327206	1	1	NaN	409	7	31	1	121	221	321	NaN	521	1.62244676891714	1	1	NaN	3113488.727616	NaN	3113489.7110235	3113490.22755933
64	21	0	0	90	36.1581920903955	36.241610738255	19	0.633374424017966	2	1	4	NaN	1	3	0.0441215250327206	1	1	NaN	410	7	32	1	121	221	321	NaN	521	0.344769669231027	1	1	NaN	3113492.6614363	NaN	3113493.6447403	3113494.16127443
64	21	0	0	90	36.1581920903955	36.241610738255	19	0.633374424017966	2	2	3	NaN	1	5	0.0441215250327206	1	1	NaN	411	7	33	1	121	221	321	NaN	521	0.389175353571773	1	1	NaN	3113495.3450652	NaN	3113496.3283619	3113496.84489065
64	21	0	0	90	36.1581920903955	36.241610738255	18	0.60003892801702	2	6	4	NaN	1	3	0.0441215250327206	1	1	NaN	412	7	34	1	121	221	321	NaN	521	2.6400587214157	2	0	NaN	3113498.0618552	NaN	3113499.0452782	3113499.56181238
64	21	0	0	90	36.1581920903955	36.241610738255	14	0.466696944013238	2	11	1	NaN	2	3	0.0441215250327206	1	1	NaN	413	7	35	1	121	221	321	NaN	521	0.393526169005781	2	1	NaN	3113503.0290331	NaN	3113504.0124633	3113504.52895883
64	21	0	0	90	36.1581920903955	36.241610738255	24	0.800051904022694	2	4	1	NaN	1	5	0.0441215250327206	1	1	NaN	414	7	36	1	121	221	321	NaN	521	0.604192521888763	2	0	NaN	3113505.7459436	NaN	3113506.7293708	3113507.24590278
64	21	0	0	90	36.1581920903955	36.241610738255	14	0.466696944013238	2	6	6	NaN	1	5	0.0441215250327206	1	1	NaN	415	7	37	1	121	221	321	NaN	521	0.48667526897043	2	0	NaN	3113508.6796461	NaN	3113509.6629885	3113510.17951283
64	21	0	0	90	36.1581920903955	36.241610738255	11	0.366690456010401	2	9	6	NaN	2	3	0.0441215250327206	1	1	NaN	416	7	38	1	121	221	321	NaN	521	0.381906969007105	2	1	NaN	3113511.4965184	NaN	3113512.4799174	3113512.99648003
64	21	0	0	90	36.1581920903955	36.241610738255	19	0.633374424017966	2	3	5	NaN	1	4	0.0441215250327206	1	1	NaN	417	7	39	1	121	221	321	NaN	521	1.14336516382173	2	0	NaN	3113514.2467904	NaN	3113515.2302086	3113515.74673354
64	21	0	0	90	36.1581920903955	36.241610738255	24	0.800051904022694	2	10	4	NaN	2	3	0.0441215250327206	1	1	NaN	418	7	40	1	121	221	321	NaN	521	0.404545821715146	1	0	NaN	3113517.7137936	NaN	3113518.6972165	3113519.21374258
64	21	0	0	90	36.1581920903955	36.241610738255	24	0.800051904022694	2	3	3	NaN	1	3	0.0441215250327206	1	1	NaN	419	7	41	1	121	221	321	NaN	521	0.327719168737531	2	0	NaN	3113520.4307677	NaN	3113521.4141357	3113521.93067783
64	21	0	0	90	36.1581920903955	36.241610738255	19	0.633374424017966	2	10	1	NaN	2	4	0.0441215250327206	1	1	NaN	420	7	42	1	121	221	321	NaN	521	0.253495631273836	2	1	NaN	3113523.0809726	NaN	3113524.0643939	3113524.58094547
64	21	0	0	90	36.1581920903955	36.241610738255	20	0.666709920018911	2	12	3	NaN	2	5	0.0441215250327206	1	1	NaN	421	7	43	1	121	221	321	NaN	521	1.12664616899565	2	1	NaN	3113525.6479128	NaN	3113526.6313148	3113527.14785183
64	21	0	0	90	36.1581920903955	36.241610738255	20	0.666709920018911	2	5	1	NaN	1	3	0.0441215250327206	1	1	NaN	422	7	44	1	121	221	321	NaN	521	2.18835833156481	2	0	NaN	3113529.0981545	NaN	3113530.0816589	3113530.59819427
64	21	0	0	90	36.1581920903955	36.241610738255	8	0.266683968007565	2	10	2	NaN	2	5	0.0441215250327206	1	1	NaN	423	7	45	1	121	221	321	NaN	521	0.0104509168304503	2	1	NaN	3113533.5986948	NaN	3113534.5820885	3113535.09862738
64	21	0	0	90	36.1581920903955	36.241610738255	6	0.200012976005673	2	1	2	NaN	1	5	0.0441215250327206	1	1	NaN	424	7	46	1	121	221	321	NaN	521	1.1304568736814	1	1	NaN	3113535.9155727	NaN	3113536.8990019	3113537.41553903
64	21	0	0	90	36.1581920903955	36.241610738255	20	0.666709920018911	2	4	6	NaN	1	4	0.0441215250327206	1	1	NaN	425	7	47	1	121	221	321	NaN	521	0.0104644214734435	1	1	NaN	3113539.3659229	NaN	3113540.3493501	3113540.86587278
64	21	0	0	90	36.1581920903955	36.241610738255	19	0.633374424017966	2	1	1	NaN	1	3	0.0441215250327206	1	1	NaN	426	7	48	1	121	221	321	NaN	521	0.202901821583509	1	1	NaN	3113541.6995091	NaN	3113542.6828126	3113543.19943738
64	21	0	0	90	36.1581920903955	36.241610738255	13	0.433361448012292	2	1	4	NaN	1	4	0.0441215250327206	1	1	NaN	427	7	49	1	121	221	321	NaN	521	2.36510122194886	1	1	NaN	3113544.2330735	NaN	3113545.2164651	3113545.73301758
64	21	0	0	90	36.1581920903955	36.241610738255	21	0.700045416019857	2	8	6	NaN	2	3	0.0441215250327206	1	1	NaN	428	7	50	1	121	221	321	NaN	521	0.0103758266195655	2	1	NaN	3113548.9667456	NaN	3113549.950275	3113550.46681337
64	21	0	0	90	36.1581920903955	36.241610738255	23	0.766716408021748	2	2	5	NaN	1	5	0.0441215250327206	1	1	NaN	429	7	51	1	121	221	321	NaN	521	0.482819221448153	1	1	NaN	3113551.2837643	NaN	3113552.2671591	3113552.78371218
64	21	0	0	90	36.1581920903955	36.241610738255	9	0.30001946400851	2	10	3	NaN	2	5	0.0441215250327206	1	1	NaN	430	7	52	1	121	221	321	NaN	521	0.906124821864069	1	0	NaN	3113554.0840097	NaN	3113555.0674417	3113555.58398228
64	21	0	0	90	36.1581920903955	36.241610738255	23	0.766716408021748	2	4	1	NaN	1	5	0.0441215250327206	1	1	NaN	431	7	53	1	121	221	321	NaN	521	0.0104108690284193	1	1	NaN	3113557.3009068	NaN	3113558.284425	3113558.80096313
64	21	0	0	90	36.1581920903955	36.241610738255	25	0.833387400023639	2	10	4	NaN	2	4	0.0441215250327206	1	1	NaN	432	7	54	1	121	221	321	NaN	521	1.7164871217683	1	0	NaN	3113559.6178007	NaN	3113560.6012973	3113561.11785968
64	21	0	0	90	36.1581920903955	36.241610738255	7	0.233348472006619	2	3	1	NaN	1	4	0.0441215250327206	1	1	NaN	433	7	55	1	121	221	321	NaN	521	3.20247272169217	2	0	NaN	3113563.6516429	NaN	3113564.6350876	3113565.15158618
64	21	0	0	90	36.1581920903955	36.241610738255	20	0.666709920018911	2	10	3	NaN	2	3	0.0441215250327206	1	1	NaN	434	7	56	1	121	221	321	NaN	521	0.325528468936682	2	1	NaN	3113569.1688544	NaN	3113570.1523606	3113570.66880333
64	21	0	0	90	36.1581920903955	36.241610738255	23	0.766716408021748	2	12	4	NaN	2	5	0.0441215250327206	1	1	NaN	435	7	57	1	121	221	321	NaN	521	1.05912296939641	2	1	NaN	3113571.8190052	NaN	3113572.8025226	3113573.31905203
64	21	0	0	90	36.1581920903955	36.241610738255	6	0.200012976005673	2	6	3	NaN	1	3	0.0441215250327206	1	1	NaN	436	7	58	1	121	221	321	NaN	521	1.14052202180028	1	1	NaN	3113575.1861262	NaN	3113576.1695153	3113576.68605798
64	21	0	0	90	36.1581920903955	36.241610738255	13	0.433361448012292	2	1	1	NaN	1	4	0.0441215250327206	1	1	NaN	437	7	59	1	121	221	321	NaN	521	1.84110461641103	2	0	NaN	3113578.6531361	NaN	3113579.636565	3113580.15305998
64	21	0	0	90	36.1581920903955	36.241610738255	12	0.400025952011347	2	6	1	NaN	1	5	0.0441215250327206	1	1	NaN	438	7	60	1	121	221	321	NaN	521	0.602352869231254	2	0	NaN	3113582.8202188	NaN	3113583.8036069	3113584.32014613
64	21	0	0	90	36.1581920903955	36.241610738255	13	0.433361448012292	2	10	2	NaN	2	4	0.0441215250327206	1	1	NaN	439	7	61	1	121	221	321	NaN	521	0.389110269024968	1	0	NaN	3113585.7371225	NaN	3113586.7205455	3113587.23708763
64	21	0	0	90	36.1581920903955	36.241610738255	24	0.800051904022694	2	5	3	NaN	1	3	0.0441215250327206	1	1	NaN	440	7	62	1	121	221	321	NaN	521	0.496289968956262	2	0	NaN	3113588.4540978	NaN	3113589.4375028	3113589.95402763
64	21	0	0	90	36.1581920903955	36.241610738255	24	0.800051904022694	2	8	4	NaN	2	5	0.0441215250327206	1	1	NaN	441	7	63	1	121	221	321	NaN	521	0.0102418474853039	2	1	NaN	3113591.2710219	NaN	3113592.2544129	3113592.77096655
64	21	0	0	90	36.1581920903955	36.241610738255	24	0.800051904022694	2	9	6	NaN	2	4	0.0441215250327206	1	1	NaN	442	8	1	1	121	221	321	NaN	521	0.0103724370710552	1	0	NaN	3113599.0884413	NaN	3113600.0718505	3113600.58841416
64	21	0	0	90	36.1581920903955	36.241610738255	9	0.30001946400851	2	8	2	NaN	2	5	0.0441215250327206	1	1	NaN	443	8	2	1	121	221	321	NaN	521	0.912281321827322	2	1	NaN	3113601.422018	NaN	3113602.4054179	3113602.92197258
64	21	0	0	90	36.1581920903955	36.241610738255	16	0.533367936015129	2	11	2	NaN	2	5	0.0441215250327206	1	1	NaN	444	8	3	1	121	221	321	NaN	521	0.518975622020662	2	1	NaN	3113604.6556662	NaN	3113605.639082	3113606.15561698
64	21	0	0	90	36.1581920903955	36.241610738255	18	0.60003892801702	2	2	5	NaN	1	3	0.0441215250327206	1	1	NaN	445	8	4	1	121	221	321	NaN	521	0.189215469174087	1	1	NaN	3113607.4892767	NaN	3113608.4726962	3113608.98922813
64	21	0	0	90	36.1581920903955	36.241610738255	22	0.733380912020803	2	3	2	NaN	1	5	0.0441215250327206	1	1	NaN	446	8	5	1	121	221	321	NaN	521	0.928887069225311	1	1	NaN	3113609.9895185	NaN	3113610.9729138	3113611.48946473
64	21	0	0	90	36.1581920903955	36.241610738255	6	0.200012976005673	2	11	3	NaN	2	5	0.0441215250327206	1	1	NaN	447	8	6	1	121	221	321	NaN	521	0.270561968907714	2	1	NaN	3113613.2398494	NaN	3113614.2232733	3113614.73978663
64	21	0	0	90	36.1581920903955	36.241610738255	0	0	1	4	5	NaN	1	3	0.0441215250327206	1	1	NaN	448	8	7	1	111	211	311	NaN	511	0.158615631517023	1	1	NaN	3113615.84011	NaN	3113616.8235128	3113617.34004707
64	21	0	0	90	36.1581920903955	36.241610738255	24	0.800051904022694	2	1	5	NaN	1	5	0.0441215250327206	1	1	NaN	449	8	8	1	121	221	321	NaN	521	0.298962321598083	1	1	NaN	3113618.3236904	NaN	3113619.3070697	3113619.82363218
64	21	0	0	90	36.1581920903955	36.241610738255	21	0.700045416019857	2	5	4	NaN	1	3	0.0441215250327206	1	1	NaN	450	8	9	1	121	221	321	NaN	521	0.0104144690558314	2	0	NaN	3113620.9406353	NaN	3113621.924	3113622.44054713
64	21	0	0	90	36.1581920903955	36.241610738255	24	0.800051904022694	2	7	1	NaN	2	5	0.0441215250327206	1	1	NaN	451	8	10	1	121	221	321	NaN	521	0.236309421714395	2	1	NaN	3113623.2741948	NaN	3113624.2575577	3113624.77410688
64	21	0	0	90	36.1581920903955	36.241610738255	10	0.333354960009456	2	6	1	NaN	1	4	0.0441215250327206	1	1	NaN	452	8	11	1	121	221	321	NaN	521	0.0103999213315547	2	0	NaN	3113625.8410994	NaN	3113626.8244892	3113627.34103048
64	21	0	0	90	36.1581920903955	36.241610738255	14	0.466696944013238	2	9	4	NaN	2	5	0.0441215250327206	1	1	NaN	453	8	12	1	121	221	321	NaN	521	0.280015573836863	2	1	NaN	3113628.1746567	NaN	3113629.1580501	3113629.67459893
64	21	0	0	90	36.1581920903955	36.241610738255	0	0	1	8	5	NaN	2	3	0.0441215250327206	1	1	NaN	454	8	13	1	111	211	311	NaN	511	0.322410516440868	2	1	NaN	3113631.3082557	NaN	3113632.291701	3113632.80823848
64	21	0	0	90	36.1581920903955	36.241610738255	20	0.666709920018911	2	1	4	NaN	1	4	0.0441215250327206	1	1	NaN	455	8	14	1	121	221	321	NaN	521	0.0105046690441668	1	1	NaN	3113633.94175	NaN	3113634.9252941	3113635.44181973
64	21	0	0	90	36.1581920903955	36.241610738255	19	0.633374424017966	2	10	5	NaN	2	4	0.0441215250327206	1	1	NaN	456	8	15	1	121	221	321	NaN	521	0.321973422076553	1	0	NaN	3113636.3086798	NaN	3113637.2921745	3113637.80872708
64	21	0	0	90	36.1581920903955	36.241610738255	12	0.400025952011347	2	4	2	NaN	1	5	0.0441215250327206	1	1	NaN	457	8	16	1	121	221	321	NaN	521	1.22343066893518	1	1	NaN	3113638.9590395	NaN	3113639.9424576	3113640.45898373
64	21	0	0	90	36.1581920903955	36.241610738255	6	0.200012976005673	2	8	6	NaN	2	3	0.0441215250327206	1	1	NaN	458	8	17	1	121	221	321	NaN	521	0.0104141691699624	1	0	NaN	3113642.5094062	NaN	3113643.4928033	3113644.00933383
