subjno	age	gender	isPractice	viewdist	CmToPixX	CmToPixY	SOA_frm	SOA_time	targNum	targID	targExample	targRace	targGender	firstTargPos	contrast	familiarity	curr_staircase	iStair	TrialNum	BlockNum	blktrl	sessionNum	TC_FIXATION	TC_RSVP_START	TC_RSVP_END	TC_BLANK	TC_RESPONSE_ONSET	RT2afc	resp_2afc	acc	RSVPOnsetVBL	RSVPOnsetTime	RSVPOffsetVBL	RSVPOffsetTime	startrt_2afc
64	21	0	0	90	36.1581920903955	36.241610738255	15	0.500064359977841	2	11	6	NaN	2	3	0.0441215250327206	0	1	NaN	1	1	1	2	120	220	320	NaN	520	0.0115460841916502	2	1	NaN	3113864.8647902	NaN	3113865.8480804	3113866.38117532
64	21	0	0	90	36.1581920903955	36.241610738255	17	0.566739607974887	2	7	4	NaN	2	5	0.0441215250327206	0	1	NaN	2	1	2	2	120	220	320	NaN	520	1.63972998410463	2	1	NaN	3113867.7983742	NaN	3113868.781667	3113869.31480382
64	21	0	0	90	36.1581920903955	36.241610738255	10	0.333376239985228	2	8	6	NaN	2	3	0.0441215250327206	0	1	NaN	3	1	3	2	120	220	320	NaN	520	0.529960671439767	2	1	NaN	3113871.7652451	NaN	3113872.7486345	3113873.26518423
64	21	0	0	90	36.1581920903955	36.241610738255	23	0.766765351966023	2	11	1	NaN	2	5	0.0441215250327206	0	1	NaN	4	1	4	2	120	220	320	NaN	520	0.311699432320893	2	1	NaN	3113874.6155191	NaN	3113875.5988888	3113876.11546687
64	21	0	0	90	36.1581920903955	36.241610738255	24	0.800102975964546	2	12	1	NaN	2	4	0.0441215250327206	0	1	NaN	5	1	5	2	120	220	320	NaN	520	1.65393618075177	2	1	NaN	3113877.2490973	NaN	3113878.2325062	3113878.74906842
64	21	0	0	90	36.1581920903955	36.241610738255	16	0.533401983976364	2	3	6	NaN	1	3	0.0441215250327206	0	1	NaN	6	1	6	2	120	220	320	NaN	520	0.254210044629872	2	0	NaN	3113881.2328425	NaN	3113882.2162387	3113882.73280276
64	21	0	0	90	36.1581920903955	36.241610738255	12	0.400051487982273	2	3	2	NaN	1	4	0.0441215250327206	0	1	NaN	7	1	7	2	120	220	320	NaN	520	0.622401632368565	2	0	NaN	3113883.8164143	NaN	3113884.7998226	3113885.31638007
64	21	0	0	90	36.1581920903955	36.241610738255	6	0.200025743991137	2	12	3	NaN	2	5	0.0441215250327206	0	1	NaN	8	1	8	2	120	220	320	NaN	520	0.0104044321924448	2	1	NaN	3113886.7500442	NaN	3113887.7334568	3113888.25000217
64	21	0	0	90	36.1581920903955	36.241610738255	23	0.766765351966023	2	1	1	NaN	1	3	0.0441215250327206	0	1	NaN	9	1	9	2	120	220	320	NaN	520	0.351620532106608	1	1	NaN	3113889.366991	NaN	3113890.3503605	3113890.86692477
64	21	0	0	90	36.1581920903955	36.241610738255	14	0.466726735979319	2	1	1	NaN	1	5	0.0441215250327206	0	1	NaN	10	1	10	2	120	220	320	NaN	520	1.64477993221954	1	1	NaN	3113892.0337745	NaN	3113893.017326	3113893.53385317
64	21	0	0	90	36.1581920903955	36.241610738255	13	0.433389111980796	2	2	2	NaN	1	3	0.0441215250327206	0	1	NaN	11	1	11	2	120	220	320	NaN	520	0.238062728662044	1	1	NaN	3113896.0008363	NaN	3113896.9843453	3113897.50090807
64	21	0	0	90	36.1581920903955	36.241610738255	0	0	1	1	2	NaN	1	4	0.0441215250327206	0	1	NaN	12	1	12	2	110	210	310	NaN	510	0.694691680837423	1	1	NaN	3113898.5678792	NaN	3113899.5511756	3113900.06782782
64	21	0	0	90	36.1581920903955	36.241610738255	12	0.400051487982273	2	4	3	NaN	1	4	0.0441215250327206	0	1	NaN	13	1	13	2	120	220	320	NaN	520	3.38183558080345	1	1	NaN	3113901.5848324	NaN	3113902.5682291	3113903.08478372
64	21	0	0	90	36.1581920903955	36.241610738255	0	0	1	9	2	NaN	2	3	0.0441215250327206	0	1	NaN	14	1	14	2	110	210	310	NaN	510	0.50533333234489	2	1	NaN	3113907.2854016	NaN	3113908.2687873	3113908.78534687
64	21	0	0	90	36.1581920903955	36.241610738255	24	0.800102975964546	2	9	4	NaN	2	4	0.0441215250327206	0	1	NaN	15	1	15	2	120	220	320	NaN	520	0.50364128081128	2	1	NaN	3113911.3191117	NaN	3113912.3025483	3113912.81907722
64	21	0	0	90	36.1581920903955	36.241610738255	11	0.36671386398375	2	1	2	NaN	1	4	0.0441215250327206	0	1	NaN	16	1	16	2	120	220	320	NaN	520	0.419160880614072	2	0	NaN	3113914.6194613	NaN	3113915.6028308	3113916.11939442
64	21	0	0	90	36.1581920903955	36.241610738255	13	0.433389111980796	2	8	3	NaN	2	4	0.0441215250327206	0	1	NaN	17	1	17	2	120	220	320	NaN	520	1.90966798085719	2	1	NaN	3113918.753064	NaN	3113919.7365904	3113920.25314982
64	21	0	0	90	36.1581920903955	36.241610738255	0	0	1	4	6	NaN	1	4	0.0441215250327206	0	1	NaN	18	1	18	2	110	210	310	NaN	510	0.259953980799764	1	1	NaN	3113922.9869485	NaN	3113923.9703524	3113924.48689672
64	21	0	0	90	36.1581920903955	36.241610738255	18	0.60007723197341	2	3	3	NaN	1	5	0.0441215250327206	0	1	NaN	19	1	19	2	120	220	320	NaN	520	0.244636580348015	2	0	NaN	3113925.5705233	NaN	3113926.5539178	3113927.07047582
64	21	0	0	90	36.1581920903955	36.241610738255	23	0.766765351966023	2	2	5	NaN	1	5	0.0441215250327206	0	1	NaN	20	1	20	2	120	220	320	NaN	520	0.285698780789971	1	1	NaN	3113928.1374727	NaN	3113929.1208474	3113929.63739922
64	21	0	0	90	36.1581920903955	36.241610738255	21	0.700090103968978	2	1	2	NaN	1	3	0.0441215250327206	0	1	NaN	21	1	21	2	120	220	320	NaN	520	0.421206783968955	2	0	NaN	3113930.7375691	NaN	3113931.7211034	3113932.23765992
64	21	0	0	90	36.1581920903955	36.241610738255	7	0.233363367989659	2	3	2	NaN	1	4	0.0441215250327206	0	1	NaN	22	1	22	2	120	220	320	NaN	520	0.279445784166455	1	1	NaN	3113933.4712965	NaN	3113934.4547121	3113934.97125122
64	21	0	0	90	36.1581920903955	36.241610738255	7	0.233363367989659	2	3	1	NaN	1	4	0.0441215250327206	0	1	NaN	23	1	23	2	120	220	320	NaN	520	0.23132974235341	2	0	NaN	3113936.0715549	NaN	3113937.054966	3113937.57151716
64	21	0	0	90	36.1581920903955	36.241610738255	25	0.833440599963069	2	6	3	NaN	1	3	0.0441215250327206	0	1	NaN	24	1	24	2	120	220	320	NaN	520	1.89720338070765	1	1	NaN	3113938.6217986	NaN	3113939.6052495	3113940.12175492
64	21	0	0	90	36.1581920903955	36.241610738255	10	0.333376239985228	2	1	4	NaN	1	4	0.0441215250327206	0	1	NaN	25	1	25	2	120	220	320	NaN	520	0.880216632038355	1	1	NaN	3113942.8388921	NaN	3113943.8222138	3113944.33884277
64	21	0	0	90	36.1581920903955	36.241610738255	8	0.266700991988182	2	1	2	NaN	1	4	0.0441215250327206	0	1	NaN	26	1	26	2	120	220	320	NaN	520	0.415506132412702	1	1	NaN	3113946.0392052	NaN	3113947.0226392	3113947.53915957
64	21	0	0	90	36.1581920903955	36.241610738255	12	0.400051487982273	2	10	4	NaN	2	3	0.0441215250327206	0	1	NaN	27	1	27	2	120	220	320	NaN	520	0.19409123249352	1	0	NaN	3113948.7728008	NaN	3113949.7562095	3113950.27276517
64	21	0	0	90	36.1581920903955	36.241610738255	8	0.266700991988182	2	8	5	NaN	2	3	0.0441215250327206	0	1	NaN	28	1	28	2	120	220	320	NaN	520	0.309026590082794	2	1	NaN	3113952.689841	NaN	3113953.6732479	3113954.18980811
64	21	0	0	90	36.1581920903955	36.241610738255	6	0.200025743991137	2	11	4	NaN	2	4	0.0441215250327206	0	1	NaN	29	1	29	2	120	220	320	NaN	520	0.281277280766517	2	1	NaN	3113956.9735916	NaN	3113957.9570124	3113958.47355742
64	21	0	0	90	36.1581920903955	36.241610738255	9	0.300038615986705	2	2	4	NaN	1	4	0.0441215250327206	0	1	NaN	30	1	30	2	120	220	320	NaN	520	0.448849932290614	2	0	NaN	3113959.5737135	NaN	3113960.5572972	3113961.07382357
64	21	0	0	90	36.1581920903955	36.241610738255	0	0	1	10	6	NaN	2	5	0.0441215250327206	0	1	NaN	31	1	31	2	110	210	310	NaN	510	0.360883229412138	1	0	NaN	3113962.574138	NaN	3113963.5575604	3113964.07410697
64	21	0	0	90	36.1581920903955	36.241610738255	15	0.500064359977841	2	8	2	NaN	2	5	0.0441215250327206	0	1	NaN	32	1	32	2	120	220	320	NaN	520	0.282434580847621	1	0	NaN	3113965.7244542	NaN	3113966.7078968	3113967.22441752
64	21	0	0	90	36.1581920903955	36.241610738255	25	0.833440599963069	2	9	3	NaN	2	4	0.0441215250327206	0	1	NaN	33	1	33	2	120	220	320	NaN	520	0.24997663218528	1	0	NaN	3113968.3246016	NaN	3113969.3080169	3113969.82468737
64	21	0	0	90	36.1581920903955	36.241610738255	25	0.833440599963069	2	12	5	NaN	2	4	0.0441215250327206	0	1	NaN	34	1	34	2	120	220	320	NaN	520	0.219246744643897	1	0	NaN	3113970.8916492	NaN	3113971.8750511	3113972.39160966
64	21	0	0	90	36.1581920903955	36.241610738255	10	0.333376239985228	2	11	2	NaN	2	4	0.0441215250327206	0	1	NaN	35	1	35	2	120	220	320	NaN	520	0.252009380608797	2	1	NaN	3113973.4584925	NaN	3113974.4420328	3113974.95852802
64	21	0	0	90	36.1581920903955	36.241610738255	6	0.200025743991137	2	10	1	NaN	2	3	0.0441215250327206	0	1	NaN	36	1	36	2	120	220	320	NaN	520	0.324981035199016	2	1	NaN	3113976.642212	NaN	3113977.6255985	3113978.14217566
64	21	0	0	90	36.1581920903955	36.241610738255	20	0.666752479970455	2	2	2	NaN	1	3	0.0441215250327206	0	1	NaN	37	1	37	2	120	220	320	NaN	520	0.465850644744933	2	0	NaN	3113983.6928697	NaN	3113984.6763	3113985.19285956
64	21	0	0	90	36.1581920903955	36.241610738255	20	0.666752479970455	2	2	2	NaN	1	4	0.0441215250327206	0	1	NaN	38	1	38	2	120	220	320	NaN	520	0.58195893233642	1	1	NaN	3113986.5931686	NaN	3113987.5765949	3113988.09314637
64	21	0	0	90	36.1581920903955	36.241610738255	12	0.400051487982273	2	10	6	NaN	2	5	0.0441215250327206	0	1	NaN	39	1	39	2	120	220	320	NaN	520	1.83185252919793	1	0	NaN	3113989.5268135	NaN	3113990.5102122	3113991.02677387
64	21	0	0	90	36.1581920903955	36.241610738255	20	0.666752479970455	2	8	5	NaN	2	5	0.0441215250327206	0	1	NaN	40	1	40	2	120	220	320	NaN	520	0.401659180875868	1	0	NaN	3113993.6772265	NaN	3113994.6606404	3113995.17716882
64	21	0	0	90	36.1581920903955	36.241610738255	0	0	1	8	6	NaN	2	4	0.0441215250327206	0	1	NaN	41	1	41	2	110	210	310	NaN	510	0.645111680496484	1	0	NaN	3113996.3941534	NaN	3113997.3775607	3113997.89410382
64	21	0	0	90	36.1581920903955	36.241610738255	13	0.433389111980796	2	3	5	NaN	1	3	0.0441215250327206	0	1	NaN	42	1	42	2	120	220	320	NaN	520	2.95756304496899	1	1	NaN	3113999.3611168	NaN	3114000.3445003	3114000.86107635
64	21	0	0	90	36.1581920903955	36.241610738255	13	0.433389111980796	2	9	4	NaN	2	4	0.0441215250327206	0	1	NaN	43	1	43	2	120	220	320	NaN	520	0.0103602353483438	1	0	NaN	3114004.6282917	NaN	3114005.6116939	3114006.12824886
64	21	0	0	90	36.1581920903955	36.241610738255	9	0.300038615986705	2	1	5	NaN	1	4	0.0441215250327206	0	1	NaN	44	1	44	2	120	220	320	NaN	520	0.628849932458252	2	0	NaN	3114006.9618528	NaN	3114007.9451641	3114008.46181667
64	21	0	0	90	36.1581920903955	36.241610738255	8	0.266700991988182	2	3	3	NaN	1	3	0.0441215250327206	0	1	NaN	45	1	45	2	120	220	320	NaN	520	0.326761080883443	1	1	NaN	3114009.9121406	NaN	3114010.8955475	3114011.41210232
64	21	0	0	90	36.1581920903955	36.241610738255	22	0.733427727967501	2	5	1	NaN	1	4	0.0441215250327206	0	1	NaN	46	1	46	2	120	220	320	NaN	520	0.293195938691497	1	1	NaN	3114012.5457473	NaN	3114013.5291618	3114014.04570046
64	21	0	0	90	36.1581920903955	36.241610738255	23	0.766765351966023	2	7	2	NaN	2	4	0.0441215250327206	0	1	NaN	47	1	47	2	120	220	320	NaN	520	0.252628480549902	1	0	NaN	3114015.1626587	NaN	3114016.1460715	3114016.66261552
64	21	0	0	90	36.1581920903955	36.241610738255	14	0.466726735979319	2	10	3	NaN	2	3	0.0441215250327206	0	1	NaN	48	1	48	2	120	220	320	NaN	520	0.205405032262206	1	0	NaN	3114017.7295943	NaN	3114018.7129773	3114019.22955447
64	21	0	0	90	36.1581920903955	36.241610738255	13	0.433389111980796	2	4	5	NaN	1	4	0.0441215250327206	0	1	NaN	49	1	49	2	120	220	320	NaN	520	1.5312922806479	1	1	NaN	3114020.37995	NaN	3114021.3632424	3114021.87979442
64	21	0	0	90	36.1581920903955	36.241610738255	18	0.60007723197341	2	4	3	NaN	1	3	0.0441215250327206	0	1	NaN	50	1	50	2	120	220	320	NaN	520	0.0887482324615121	2	0	NaN	3114024.2302262	NaN	3114025.2136557	3114025.73017777
64	21	0	0	90	36.1581920903955	36.241610738255	22	0.733427727967501	2	9	6	NaN	2	4	0.0441215250327206	0	1	NaN	51	1	51	2	120	220	320	NaN	520	0.183502277359366	2	1	NaN	3114026.6638859	NaN	3114027.6471943	3114028.16374512
64	21	0	0	90	36.1581920903955	36.241610738255	25	0.833440599963069	2	10	2	NaN	2	3	0.0441215250327206	0	1	NaN	52	1	52	2	120	220	320	NaN	520	0.558664193376899	1	0	NaN	3114029.2807008	NaN	3114030.2641028	3114030.78067611
64	21	0	0	90	36.1581920903955	36.241610738255	20	0.666752479970455	2	7	6	NaN	2	5	0.0441215250327206	0	1	NaN	53	1	53	2	120	220	320	NaN	520	0.267352380324155	2	1	NaN	3114032.1476641	NaN	3114033.1310827	3114033.64761642
64	21	0	0	90	36.1581920903955	36.241610738255	22	0.733427727967501	2	8	4	NaN	2	3	0.0441215250327206	0	1	NaN	54	1	54	2	120	220	320	NaN	520	0.283807532396168	1	0	NaN	3114034.7312648	NaN	3114035.7146528	3114036.23121477
64	21	0	0	90	36.1581920903955	36.241610738255	14	0.466726735979319	2	9	1	NaN	2	4	0.0441215250327206	0	1	NaN	55	1	55	2	120	220	320	NaN	520	0.370047532487661	1	0	NaN	3114037.5647302	NaN	3114038.5482844	3114039.06482527
64	21	0	0	90	36.1581920903955	36.241610738255	20	0.666752479970455	2	6	5	NaN	1	4	0.0441215250327206	0	1	NaN	56	1	56	2	120	220	320	NaN	520	0.286778332199901	1	1	NaN	3114040.2484722	NaN	3114041.2318659	3114041.74841897
64	21	0	0	90	36.1581920903955	36.241610738255	6	0.200025743991137	2	7	4	NaN	2	4	0.0441215250327206	0	1	NaN	57	1	57	2	120	220	320	NaN	520	0.30215978063643	1	0	NaN	3114042.8485907	NaN	3114043.8321214	3114044.34866552
64	21	0	0	90	36.1581920903955	36.241610738255	0	0	1	7	3	NaN	2	5	0.0441215250327206	0	1	NaN	58	1	58	2	110	210	310	NaN	510	0.285362280439585	2	1	NaN	3114045.4656384	NaN	3114046.4490956	3114046.96560882
64	21	0	0	90	36.1581920903955	36.241610738255	25	0.833440599963069	2	7	2	NaN	2	4	0.0441215250327206	0	1	NaN	59	1	59	2	120	220	320	NaN	520	0.365113280713558	2	1	NaN	3114048.0658829	NaN	3114049.0492067	3114049.56584442
64	21	0	0	90	36.1581920903955	36.241610738255	17	0.566739607974887	2	5	4	NaN	1	4	0.0441215250327206	0	1	NaN	60	1	60	2	120	220	320	NaN	520	0.0814441321417689	2	0	NaN	3114050.7495065	NaN	3114051.7328868	3114052.24945107
64	21	0	0	90	36.1581920903955	36.241610738255	6	0.200025743991137	2	3	3	NaN	1	5	0.0441215250327206	0	1	NaN	61	1	61	2	120	220	320	NaN	520	0.137649080716074	1	1	NaN	3114053.1497287	NaN	3114054.133131	3114054.64967952
64	21	0	0	90	36.1581920903955	36.241610738255	21	0.700090103968978	2	11	3	NaN	2	5	0.0441215250327206	0	1	NaN	62	1	62	2	120	220	320	NaN	520	4.35931143863127	2	1	NaN	3114055.5999766	NaN	3114056.5833808	3114057.09993456
64	21	0	0	90	36.1581920903955	36.241610738255	15	0.500064359977841	2	10	1	NaN	2	5	0.0441215250327206	0	1	NaN	63	1	63	2	120	220	320	NaN	520	0.811198480427265	2	1	NaN	3114062.2839799	NaN	3114063.2673638	3114063.78391572
64	21	0	0	90	36.1581920903955	36.241610738255	17	0.566739607974887	2	3	4	NaN	1	5	0.0441215250327206	0	1	NaN	64	2	1	2	120	220	320	NaN	520	0.529790732078254	2	0	NaN	3114068.3012282	NaN	3114069.2846179	3114069.80116677
64	21	0	0	90	36.1581920903955	36.241610738255	7	0.233363367989659	2	9	5	NaN	2	5	0.0441215250327206	0	1	NaN	65	2	2	2	120	220	320	NaN	520	0.423196380957961	2	1	NaN	3114071.5681605	NaN	3114072.5516087	3114073.06815542
64	21	0	0	90	36.1581920903955	36.241610738255	18	0.60007723197341	2	12	1	NaN	2	4	0.0441215250327206	0	1	NaN	66	2	3	2	120	220	320	NaN	520	0.265070232562721	2	1	NaN	3114074.3018039	NaN	3114075.2852096	3114075.80177037
64	21	0	0	90	36.1581920903955	36.241610738255	22	0.733427727967501	2	12	6	NaN	2	3	0.0441215250327206	0	1	NaN	67	2	4	2	120	220	320	NaN	520	0.353985880501568	2	1	NaN	3114076.8854255	NaN	3114077.8687928	3114078.38535132
64	21	0	0	90	36.1581920903955	36.241610738255	0	0	1	11	5	NaN	2	5	0.0441215250327206	0	1	NaN	68	2	5	2	110	210	310	NaN	510	0.281727332621813	2	1	NaN	3114080.0690318	NaN	3114081.0524455	3114081.56899597
64	21	0	0	90	36.1581920903955	36.241610738255	8	0.266700991988182	2	6	6	NaN	1	3	0.0441215250327206	0	1	NaN	69	2	6	2	120	220	320	NaN	520	0.0175336808897555	1	1	NaN	3114082.6693029	NaN	3114083.6527053	3114084.16925752
64	21	0	0	90	36.1581920903955	36.241610738255	17	0.566739607974887	2	8	1	NaN	2	4	0.0441215250327206	0	1	NaN	70	2	7	2	120	220	320	NaN	520	0.236110728699714	2	1	NaN	3114085.0027351	NaN	3114085.9862669	3114086.50280727
64	21	0	0	90	36.1581920903955	36.241610738255	16	0.533401983976364	2	2	4	NaN	1	5	0.0441215250327206	0	1	NaN	71	2	8	2	120	220	320	NaN	520	0.30414278106764	1	1	NaN	3114087.7031209	NaN	3114088.6865207	3114089.20308172
64	21	0	0	90	36.1581920903955	36.241610738255	18	0.60007723197341	2	2	5	NaN	1	4	0.0441215250327206	0	1	NaN	72	2	9	2	120	220	320	NaN	520	0.0709485807456076	2	0	NaN	3114090.3200727	NaN	3114091.3034631	3114091.81999832
64	21	0	0	90	36.1581920903955	36.241610738255	21	0.700090103968978	2	9	1	NaN	2	4	0.0441215250327206	0	1	NaN	73	2	10	2	120	220	320	NaN	520	1.20721308095381	2	1	NaN	3114092.7036276	NaN	3114093.6870075	3114094.20357302
64	21	0	0	90	36.1581920903955	36.241610738255	13	0.433389111980796	2	1	5	NaN	1	5	0.0441215250327206	0	1	NaN	74	2	11	2	120	220	320	NaN	520	0.2904555327259	2	0	NaN	3114096.2205069	NaN	3114097.2040406	3114097.72059037
64	21	0	0	90	36.1581920903955	36.241610738255	20	0.666752479970455	2	3	4	NaN	1	3	0.0441215250327206	0	1	NaN	75	2	12	2	120	220	320	NaN	520	0.362484571058303	2	0	NaN	3114098.8208925	NaN	3114099.8042886	3114100.32083403
64	21	0	0	90	36.1581920903955	36.241610738255	10	0.333376239985228	2	2	1	NaN	1	4	0.0441215250327206	0	1	NaN	76	2	13	2	120	220	320	NaN	520	0.0864403322339058	2	0	NaN	3114101.5044828	NaN	3114102.4878882	3114103.00444187
64	21	0	0	90	36.1581920903955	36.241610738255	14	0.466726735979319	2	1	2	NaN	1	4	0.0441215250327206	0	1	NaN	77	2	14	2	120	220	320	NaN	520	0.462514780461788	2	0	NaN	3114103.9047137	NaN	3114104.8881274	3114105.40466542
64	21	0	0	90	36.1581920903955	36.241610738255	23	0.766765351966023	2	6	6	NaN	1	5	0.0441215250327206	0	1	NaN	78	2	15	2	120	220	320	NaN	520	0.0103823840618134	1	1	NaN	3114106.6884725	NaN	3114107.671701	3114108.18828732
64	21	0	0	90	36.1581920903955	36.241610738255	7	0.233363367989659	2	9	3	NaN	2	4	0.0441215250327206	0	1	NaN	79	2	16	2	120	220	320	NaN	520	0.289202632382512	1	0	NaN	3114109.0218959	NaN	3114110.0052731	3114110.52184467
64	21	0	0	90	36.1581920903955	36.241610738255	0	0	1	5	2	NaN	1	4	0.0441215250327206	0	1	NaN	80	2	17	2	110	210	310	NaN	510	0.240053929388523	1	1	NaN	3114111.6388082	NaN	3114112.6222118	3114113.13875967
64	21	0	0	90	36.1581920903955	36.241610738255	10	0.333376239985228	2	1	1	NaN	1	4	0.0441215250327206	0	1	NaN	81	2	18	2	120	220	320	NaN	520	0.338019432500005	1	1	NaN	3114114.1890623	NaN	3114115.1724552	3114115.68901897
64	21	0	0	90	36.1581920903955	36.241610738255	17	0.566739607974887	2	4	5	NaN	1	3	0.0441215250327206	0	1	NaN	82	2	19	2	120	220	320	NaN	520	0.215607380960137	2	0	NaN	3114116.8393446	NaN	3114117.8227332	3114118.33927822
64	21	0	0	90	36.1581920903955	36.241610738255	20	0.666752479970455	2	4	2	NaN	1	4	0.0441215250327206	0	1	NaN	83	2	20	2	120	220	320	NaN	520	0.0104170809499919	1	1	NaN	3114119.372788	NaN	3114120.3562941	3114120.87286322
64	21	0	0	90	36.1581920903955	36.241610738255	23	0.766765351966023	2	7	4	NaN	2	4	0.0441215250327206	0	1	NaN	84	2	21	2	120	220	320	NaN	520	0.276664928998798	2	1	NaN	3114121.7064609	NaN	3114122.6898859	3114123.20642397
64	21	0	0	90	36.1581920903955	36.241610738255	21	0.700090103968978	2	1	5	NaN	1	5	0.0441215250327206	0	1	NaN	85	2	22	2	120	220	320	NaN	520	0.362010993529111	1	1	NaN	3114124.7734268	NaN	3114125.7568502	3114126.27339051
64	21	0	0	90	36.1581920903955	36.241610738255	13	0.433389111980796	2	1	5	NaN	1	3	0.0441215250327206	0	1	NaN	86	2	23	2	120	220	320	NaN	520	0.230257628951222	2	0	NaN	3114127.4570209	NaN	3114128.440439	3114128.95698727
64	21	0	0	90	36.1581920903955	36.241610738255	12	0.400051487982273	2	3	4	NaN	1	3	0.0441215250327206	0	1	NaN	87	2	24	2	120	220	320	NaN	520	0.152458481024951	2	0	NaN	3114129.9904842	NaN	3114130.9740122	3114131.49056572
64	21	0	0	90	36.1581920903955	36.241610738255	23	0.766765351966023	2	8	5	NaN	2	5	0.0441215250327206	0	1	NaN	88	2	25	2	120	220	320	NaN	520	0.156966332346201	2	1	NaN	3114132.474175	NaN	3114133.4575973	3114133.97415447
64	21	0	0	90	36.1581920903955	36.241610738255	23	0.766765351966023	2	3	1	NaN	1	4	0.0441215250327206	0	1	NaN	89	2	26	2	120	220	320	NaN	520	0.346139080822468	2	0	NaN	3114134.9410994	NaN	3114135.9245292	3114136.44105842
64	21	0	0	90	36.1581920903955	36.241610738255	14	0.466726735979319	2	10	3	NaN	2	5	0.0441215250327206	0	1	NaN	90	2	27	2	120	220	320	NaN	520	0.33312112884596	2	1	NaN	3114137.6580171	NaN	3114138.6414743	3114139.15798387
64	21	0	0	90	36.1581920903955	36.241610738255	19	0.633414855971932	2	8	6	NaN	2	3	0.0441215250327206	0	1	NaN	91	2	28	2	120	220	320	NaN	520	0.242385332472622	2	1	NaN	3114140.3249445	NaN	3114141.3083657	3114141.82492617
64	21	0	0	90	36.1581920903955	36.241610738255	9	0.300038615986705	2	12	5	NaN	2	4	0.0441215250327206	0	1	NaN	92	2	29	2	120	220	320	NaN	520	1.90764758083969	2	1	NaN	3114142.875213	NaN	3114143.8586076	3114144.37516262
64	21	0	0	90	36.1581920903955	36.241610738255	14	0.466726735979319	2	4	4	NaN	1	4	0.0441215250327206	0	1	NaN	93	2	30	2	120	220	320	NaN	520	0.762722880579531	2	0	NaN	3114147.0922898	NaN	3114148.0756973	3114148.59225492
64	21	0	0	90	36.1581920903955	36.241610738255	20	0.666752479970455	2	6	1	NaN	1	5	0.0441215250327206	0	1	NaN	94	2	31	2	120	220	320	NaN	520	0.455775586888194	1	1	NaN	3114150.1591483	NaN	3114151.1426631	3114151.65922621
64	21	0	0	90	36.1581920903955	36.241610738255	19	0.633414855971932	2	10	5	NaN	2	4	0.0441215250327206	0	1	NaN	95	2	32	2	120	220	320	NaN	520	0.28912583226338	1	0	NaN	3114152.9262193	NaN	3114153.9096035	3114154.42616587
64	21	0	0	90	36.1581920903955	36.241610738255	10	0.333376239985228	2	6	4	NaN	1	5	0.0441215250327206	0	1	NaN	96	2	33	2	120	220	320	NaN	520	1.04097347706556	1	1	NaN	3114155.5265112	NaN	3114156.5098736	3114157.02640642
64	21	0	0	90	36.1581920903955	36.241610738255	16	0.533401983976364	2	9	3	NaN	2	5	0.0441215250327206	0	1	NaN	97	2	34	2	120	220	320	NaN	520	0.218651280738413	1	0	NaN	3114158.8767894	NaN	3114159.8601829	3114160.37673882
64	21	0	0	90	36.1581920903955	36.241610738255	7	0.233363367989659	2	2	3	NaN	1	4	0.0441215250327206	0	1	NaN	98	2	35	2	120	220	320	NaN	520	0.747483529150486	1	1	NaN	3114161.4435814	NaN	3114162.4270572	3114162.94365557
64	21	0	0	90	36.1581920903955	36.241610738255	11	0.36671386398375	2	11	1	NaN	2	5	0.0441215250327206	0	1	NaN	99	2	36	2	120	220	320	NaN	520	0.288544880691916	1	0	NaN	3114164.5106044	NaN	3114165.4940759	3114166.01062412
64	21	0	0	90	36.1581920903955	36.241610738255	0	0	1	3	6	NaN	1	3	0.0441215250327206	0	1	NaN	100	2	37	2	110	210	310	NaN	510	0.320262093562633	1	1	NaN	3114167.1108262	NaN	3114168.0943353	3114168.61089251
64	21	0	0	90	36.1581920903955	36.241610738255	7	0.233363367989659	2	5	3	NaN	1	4	0.0441215250327206	0	1	NaN	101	2	38	2	120	220	320	NaN	520	0.670554432086647	1	1	NaN	3114169.7445321	NaN	3114170.7279228	3114171.24447607
64	21	0	0	90	36.1581920903955	36.241610738255	20	0.666752479970455	2	5	5	NaN	1	3	0.0441215250327206	0	1	NaN	102	2	39	2	120	220	320	NaN	520	0.167017080821097	2	0	NaN	3114172.7281538	NaN	3114173.711474	3114174.22810272
64	21	0	0	90	36.1581920903955	36.241610738255	20	0.666752479970455	2	10	5	NaN	2	4	0.0441215250327206	0	1	NaN	103	2	40	2	120	220	320	NaN	520	0.179994684178382	2	1	NaN	3114175.1949368	NaN	3114176.1784656	3114176.69502112
64	21	0	0	90	36.1581920903955	36.241610738255	0	0	1	9	2	NaN	2	5	0.0441215250327206	0	1	NaN	104	2	41	2	110	210	310	NaN	510	1.29581138398498	1	0	NaN	3114177.6953013	NaN	3114178.6787091	3114179.19526142
64	21	0	0	90	36.1581920903955	36.241610738255	6	0.200025743991137	2	9	5	NaN	2	4	0.0441215250327206	0	1	NaN	105	2	42	2	120	220	320	NaN	520	0.0149493324570358	1	0	NaN	3114181.3124613	NaN	3114182.2957206	3114182.81228487
64	21	0	0	90	36.1581920903955	36.241610738255	6	0.200025743991137	2	12	2	NaN	2	4	0.0441215250327206	0	1	NaN	106	2	43	2	120	220	320	NaN	520	0.928143580444157	2	1	NaN	3114184.0792525	NaN	3114185.0626679	3114185.57921502
64	21	0	0	90	36.1581920903955	36.241610738255	9	0.300038615986705	2	6	2	NaN	1	5	0.0441215250327206	0	1	NaN	107	2	44	2	120	220	320	NaN	520	0.317808332387358	1	1	NaN	3114187.3295923	NaN	3114188.3130452	3114188.82954717
64	21	0	0	90	36.1581920903955	36.241610738255	16	0.533401983976364	2	11	3	NaN	2	3	0.0441215250327206	0	1	NaN	108	2	45	2	120	220	320	NaN	520	0.235981080681086	2	1	NaN	3114189.9630817	NaN	3114190.9465777	3114191.46312672
64	21	0	0	90	36.1581920903955	36.241610738255	25	0.833440599963069	2	11	6	NaN	2	5	0.0441215250327206	0	1	NaN	109	2	46	2	120	220	320	NaN	520	0.125770644750446	2	1	NaN	3114192.5135041	NaN	3114193.4968296	3114194.01339106
64	21	0	0	90	36.1581920903955	36.241610738255	19	0.633414855971932	2	5	1	NaN	1	3	0.0441215250327206	0	1	NaN	110	2	47	2	120	220	320	NaN	520	0.211702280677855	1	1	NaN	3114194.9636756	NaN	3114195.9470739	3114196.46362102
64	21	0	0	90	36.1581920903955	36.241610738255	8	0.266700991988182	2	8	3	NaN	2	5	0.0441215250327206	0	1	NaN	111	2	48	2	120	220	320	NaN	520	0.646121532656252	2	1	NaN	3114197.497273	NaN	3114198.4806449	3114198.99720907
64	21	0	0	90	36.1581920903955	36.241610738255	11	0.36671386398375	2	5	2	NaN	1	3	0.0441215250327206	0	1	NaN	112	2	49	2	120	220	320	NaN	520	0.294948132708669	1	1	NaN	3114200.4642078	NaN	3114201.4476199	3114201.96417117
64	21	0	0	90	36.1581920903955	36.241610738255	18	0.60007723197341	2	5	6	NaN	1	4	0.0441215250327206	0	1	NaN	113	2	50	2	120	220	320	NaN	520	0.230197980534285	2	0	NaN	3114203.0811459	NaN	3114204.0645348	3114204.58108352
64	21	0	0	90	36.1581920903955	36.241610738255	12	0.400051487982273	2	1	4	NaN	1	3	0.0441215250327206	0	1	NaN	114	2	51	2	120	220	320	NaN	520	0.0104285292327404	1	1	NaN	3114205.6314001	NaN	3114206.6147871	3114207.13133117
64	21	0	0	90	36.1581920903955	36.241610738255	12	0.400051487982273	2	1	4	NaN	1	4	0.0441215250327206	0	1	NaN	115	2	52	2	120	220	320	NaN	520	0.243043180555105	1	1	NaN	3114207.9482746	NaN	3114208.9316745	3114209.44822582
64	21	0	0	90	36.1581920903955	36.241610738255	7	0.233363367989659	2	11	6	NaN	2	4	0.0441215250327206	0	1	NaN	116	2	53	2	120	220	320	NaN	520	0.332753577269614	1	0	NaN	3114210.4986242	NaN	3114211.4819362	3114211.99848122
64	21	0	0	90	36.1581920903955	36.241610738255	8	0.266700991988182	2	7	5	NaN	2	4	0.0441215250327206	0	1	NaN	117	2	54	2	120	220	320	NaN	520	0.338497680611908	1	0	NaN	3114213.1488086	NaN	3114214.1321862	3114214.64874362
64	21	0	0	90	36.1581920903955	36.241610738255	24	0.800102975964546	2	6	1	NaN	1	4	0.0441215250327206	0	1	NaN	118	2	55	2	120	220	320	NaN	520	0.84809253225103	1	1	NaN	3114215.7990435	NaN	3114216.782456	3114217.29901167
64	21	0	0	90	36.1581920903955	36.241610738255	11	0.36671386398375	2	3	6	NaN	1	4	0.0441215250327206	0	1	NaN	119	2	56	2	120	220	320	NaN	520	0.010419980622828	2	0	NaN	3114218.9660396	NaN	3114219.9494463	3114220.46598052
64	21	0	0	90	36.1581920903955	36.241610738255	23	0.766765351966023	2	9	1	NaN	2	4	0.0441215250327206	0	1	NaN	120	2	57	2	120	220	320	NaN	520	0.01043162913993	2	1	NaN	3114221.549619	NaN	3114222.5330277	3114223.04957267
64	21	0	0	90	36.1581920903955	36.241610738255	6	0.200025743991137	2	10	2	NaN	2	5	0.0441215250327206	0	1	NaN	121	2	58	2	120	220	320	NaN	520	1.84426133241504	1	0	NaN	3114223.88318	NaN	3114224.86659	3114225.38313867
64	21	0	0	90	36.1581920903955	36.241610738255	7	0.233363367989659	2	2	6	NaN	1	3	0.0441215250327206	0	1	NaN	122	2	59	2	120	220	320	NaN	520	0.428830128628761	1	1	NaN	3114228.0502599	NaN	3114229.0335578	3114229.55020957
64	21	0	0	90	36.1581920903955	36.241610738255	14	0.466726735979319	2	6	3	NaN	1	3	0.0441215250327206	0	1	NaN	123	2	60	2	120	220	320	NaN	520	1.07961703231558	2	0	NaN	3114230.7838586	NaN	3114231.767253	3114232.28381577
64	21	0	0	90	36.1581920903955	36.241610738255	13	0.433389111980796	2	3	6	NaN	1	3	0.0441215250327206	0	1	NaN	124	2	61	2	120	220	320	NaN	520	0.45517314504832	2	0	NaN	3114234.1841892	NaN	3114235.1676017	3114235.68415795
64	21	0	0	90	36.1581920903955	36.241610738255	22	0.733427727967501	2	6	5	NaN	1	4	0.0441215250327206	0	1	NaN	125	2	62	2	120	220	320	NaN	520	2.01643888046965	2	0	NaN	3114236.9511764	NaN	3114237.934533	3114238.45107782
64	21	0	0	90	36.1581920903955	36.241610738255	25	0.833440599963069	2	8	3	NaN	2	4	0.0441215250327206	0	1	NaN	126	2	63	2	120	220	320	NaN	520	0.362255132291466	2	1	NaN	3114241.2848832	NaN	3114242.2683022	3114242.78484417
64	21	0	0	90	36.1581920903955	36.241610738255	17	0.566739607974887	2	10	1	NaN	2	4	0.0441215250327206	0	1	NaN	127	3	1	2	120	220	320	NaN	520	0.725987532176077	2	1	NaN	3114261.5535466	NaN	3114262.5369427	3114263.05350457
64	21	0	0	90	36.1581920903955	36.241610738255	10	0.333376239985228	2	9	3	NaN	2	3	0.0441215250327206	0	1	NaN	128	3	2	2	120	220	320	NaN	520	0.892184380907565	2	1	NaN	3114264.5871859	NaN	3114265.5705749	3114266.08712852
64	21	0	0	90	36.1581920903955	36.241610738255	25	0.833440599963069	2	5	3	NaN	1	4	0.0441215250327206	0	1	NaN	129	3	3	2	120	220	320	NaN	520	1.1560231805779	2	0	NaN	3114267.7874925	NaN	3114268.7709217	3114269.28744942
64	21	0	0	90	36.1581920903955	36.241610738255	12	0.400051487982273	2	5	1	NaN	1	3	0.0441215250327206	0	1	NaN	130	3	4	2	120	220	320	NaN	520	0.70472433231771	2	0	NaN	3114271.2545069	NaN	3114272.2378984	3114272.75446107
64	21	0	0	90	36.1581920903955	36.241610738255	17	0.566739607974887	2	12	1	NaN	2	5	0.0441215250327206	0	1	NaN	131	3	5	2	120	220	320	NaN	520	0.464136380702257	2	1	NaN	3114274.2715602	NaN	3114275.2548656	3114275.77141862
64	21	0	0	90	36.1581920903955	36.241610738255	23	0.766765351966023	2	5	1	NaN	1	4	0.0441215250327206	0	1	NaN	132	3	6	2	120	220	320	NaN	520	0.456458280794322	2	0	NaN	3114277.0550723	NaN	3114278.0385303	3114278.55502462
64	21	0	0	90	36.1581920903955	36.241610738255	19	0.633414855971932	2	9	3	NaN	2	3	0.0441215250327206	0	1	NaN	133	3	7	2	120	220	320	NaN	520	0.321201432496309	2	1	NaN	3114279.8218898	NaN	3114280.8054098	3114281.32196787
64	21	0	0	90	36.1581920903955	36.241610738255	9	0.300038615986705	2	11	2	NaN	2	4	0.0441215250327206	0	1	NaN	134	3	8	2	120	220	320	NaN	520	0.010381184052676	2	1	NaN	3114282.4555425	NaN	3114283.4390185	3114283.95556402
64	21	0	0	90	36.1581920903955	36.241610738255	6	0.200025743991137	2	8	2	NaN	2	5	0.0441215250327206	0	1	NaN	135	3	9	2	120	220	320	NaN	520	0.674705780576915	1	0	NaN	3114284.7725134	NaN	3114285.7558944	3114286.27245172
64	21	0	0	90	36.1581920903955	36.241610738255	7	0.233363367989659	2	11	1	NaN	2	5	0.0441215250327206	0	1	NaN	136	3	10	2	120	220	320	NaN	520	0.3071707803756	1	0	NaN	3114287.7561269	NaN	3114288.7395345	3114289.25607742
64	21	0	0	90	36.1581920903955	36.241610738255	14	0.466726735979319	2	7	6	NaN	2	5	0.0441215250327206	0	1	NaN	137	3	11	2	120	220	320	NaN	520	0.266141732223332	2	1	NaN	3114290.3731547	NaN	3114291.356459	3114291.87300817
64	21	0	0	90	36.1581920903955	36.241610738255	25	0.833440599963069	2	7	1	NaN	2	3	0.0441215250327206	0	1	NaN	138	3	12	2	120	220	320	NaN	520	0.21074798097834	1	0	NaN	3114292.9566378	NaN	3114293.9400298	3114294.45659522
64	21	0	0	90	36.1581920903955	36.241610738255	13	0.433389111980796	2	5	4	NaN	1	5	0.0441215250327206	0	1	NaN	139	3	13	2	120	220	320	NaN	520	0.174031929112971	1	1	NaN	3114295.47354	NaN	3114296.4569558	3114296.97350387
64	21	0	0	90	36.1581920903955	36.241610738255	18	0.60007723197341	2	7	6	NaN	2	4	0.0441215250327206	0	1	NaN	140	3	14	2	120	220	320	NaN	520	0.121517832390964	2	1	NaN	3114297.9737926	NaN	3114298.9571927	3114299.47375237
64	21	0	0	90	36.1581920903955	36.241610738255	6	0.200025743991137	2	1	5	NaN	1	4	0.0441215250327206	0	1	NaN	141	3	15	2	120	220	320	NaN	520	0.22402792936191	2	0	NaN	3114300.4073038	NaN	3114301.3907696	3114301.90732027
64	21	0	0	90	36.1581920903955	36.241610738255	12	0.400051487982273	2	6	2	NaN	1	3	0.0441215250327206	0	1	NaN	142	3	16	2	120	220	320	NaN	520	1.40249113226309	1	1	NaN	3114302.9409473	NaN	3114303.924348	3114304.44091027
64	21	0	0	90	36.1581920903955	36.241610738255	17	0.566739607974887	2	9	4	NaN	2	5	0.0441215250327206	0	1	NaN	143	3	17	2	120	220	320	NaN	520	0.229615380521864	1	0	NaN	3114306.6580118	NaN	3114307.6413872	3114308.15793692
64	21	0	0	90	36.1581920903955	36.241610738255	9	0.300038615986705	2	10	3	NaN	2	5	0.0441215250327206	0	1	NaN	144	3	18	2	120	220	320	NaN	520	0.262855981010944	1	0	NaN	3114309.2081997	NaN	3114310.1916432	3114310.70818392
64	21	0	0	90	36.1581920903955	36.241610738255	15	0.500064359977841	2	1	5	NaN	1	4	0.0441215250327206	0	1	NaN	145	3	19	2	120	220	320	NaN	520	0.24751588050276	1	1	NaN	3114311.7918359	NaN	3114312.7752191	3114313.29177152
64	21	0	0	90	36.1581920903955	36.241610738255	24	0.800102975964546	2	6	4	NaN	1	4	0.0441215250327206	0	1	NaN	146	3	20	2	120	220	320	NaN	520	0.280434832442552	2	0	NaN	3114314.3587354	NaN	3114315.3421242	3114315.85869517
64	21	0	0	90	36.1581920903955	36.241610738255	22	0.733427727967501	2	7	2	NaN	2	5	0.0441215250327206	0	1	NaN	147	3	21	2	120	220	320	NaN	520	0.24077792884782	1	0	NaN	3114316.9589913	NaN	3114317.9424014	3114318.45895287
64	21	0	0	90	36.1581920903955	36.241610738255	19	0.633414855971932	2	6	5	NaN	1	4	0.0441215250327206	0	1	NaN	148	3	22	2	120	220	320	NaN	520	0.0662697325460613	1	1	NaN	3114319.5091037	NaN	3114320.4927612	3114321.00920377
64	21	0	0	90	36.1581920903955	36.241610738255	24	0.800102975964546	2	3	2	NaN	1	5	0.0441215250327206	0	1	NaN	149	3	23	2	120	220	320	NaN	520	2.02655382920057	1	1	NaN	3114321.8928164	NaN	3114322.876217	3114323.39276117
64	21	0	0	90	36.1581920903955	36.241610738255	12	0.400051487982273	2	7	3	NaN	2	5	0.0441215250327206	0	1	NaN	150	3	24	2	120	220	320	NaN	520	0.292738880962133	1	0	NaN	3114326.2265725	NaN	3114327.2099835	3114327.72652212
64	21	0	0	90	36.1581920903955	36.241610738255	11	0.36671386398375	2	9	6	NaN	2	4	0.0441215250327206	0	1	NaN	151	3	25	2	120	220	320	NaN	520	0.820845280773938	2	1	NaN	3114328.8268252	NaN	3114329.8102345	3114330.32678122
64	21	0	0	90	36.1581920903955	36.241610738255	16	0.533401983976364	2	11	6	NaN	2	5	0.0441215250327206	0	1	NaN	152	3	26	2	120	220	320	NaN	520	1.48722468083724	1	0	NaN	3114331.9604967	NaN	3114332.9438826	3114333.46041902
64	21	0	0	90	36.1581920903955	36.241610738255	15	0.500064359977841	2	2	1	NaN	1	5	0.0441215250327206	0	1	NaN	153	3	27	2	120	220	320	NaN	520	0.286608929280192	1	1	NaN	3114335.7608437	NaN	3114336.744226	3114337.26079037
64	21	0	0	90	36.1581920903955	36.241610738255	18	0.60007723197341	2	4	5	NaN	1	4	0.0441215250327206	0	1	NaN	154	3	28	2	120	220	320	NaN	520	0.462121180724353	1	1	NaN	3114338.3610953	NaN	3114339.3445129	3114339.86105352
64	21	0	0	90	36.1581920903955	36.241610738255	17	0.566739607974887	2	4	1	NaN	1	5	0.0441215250327206	0	1	NaN	155	3	29	2	120	220	320	NaN	520	0.366610632743686	1	1	NaN	3114341.1447065	NaN	3114342.12811	3114342.64466657
64	21	0	0	90	36.1581920903955	36.241610738255	19	0.633414855971932	2	11	2	NaN	2	5	0.0441215250327206	0	1	NaN	156	3	30	2	120	220	320	NaN	520	0.186901680659503	2	1	NaN	3114343.8282969	NaN	3114344.8116233	3114345.32825992
64	21	0	0	90	36.1581920903955	36.241610738255	8	0.266700991988182	2	9	1	NaN	2	4	0.0441215250327206	0	1	NaN	157	3	31	2	120	220	320	NaN	520	1.1425942806527	2	1	NaN	3114346.3285413	NaN	3114347.3119871	3114347.82850162
64	21	0	0	90	36.1581920903955	36.241610738255	17	0.566739607974887	2	2	6	NaN	1	5	0.0441215250327206	0	1	NaN	158	3	32	2	120	220	320	NaN	520	1.82882783235982	2	0	NaN	3114349.7789777	NaN	3114350.7622993	3114351.27884687
64	21	0	0	90	36.1581920903955	36.241610738255	24	0.800102975964546	2	1	5	NaN	1	5	0.0441215250327206	0	1	NaN	159	3	33	2	120	220	320	NaN	520	0.26286278385669	1	1	NaN	3114353.9126253	NaN	3114354.8960336	3114355.41258282
64	21	0	0	90	36.1581920903955	36.241610738255	14	0.466726735979319	2	6	6	NaN	1	5	0.0441215250327206	0	1	NaN	160	3	34	2	120	220	320	NaN	520	2.15191713254899	1	1	NaN	3114356.4795287	NaN	3114357.4629495	3114357.97950297
64	21	0	0	90	36.1581920903955	36.241610738255	24	0.800102975964546	2	7	4	NaN	2	3	0.0441215250327206	0	1	NaN	161	3	35	2	120	220	320	NaN	520	0.348739980719984	1	0	NaN	3114360.9466513	NaN	3114361.9300576	3114362.44660412
64	21	0	0	90	36.1581920903955	36.241610738255	17	0.566739607974887	2	3	3	NaN	1	5	0.0441215250327206	0	1	NaN	162	3	36	2	120	220	320	NaN	520	0.241565380711108	1	1	NaN	3114363.6135849	NaN	3114364.5969387	3114365.11352652
64	21	0	0	90	36.1581920903955	36.241610738255	17	0.566739607974887	2	7	3	NaN	2	3	0.0441215250327206	0	1	NaN	163	3	37	2	120	220	320	NaN	520	0.179545145016164	2	1	NaN	3114366.1638301	NaN	3114367.1472344	3114367.66379326
64	21	0	0	90	36.1581920903955	36.241610738255	25	0.833440599963069	2	2	5	NaN	1	5	0.0441215250327206	0	1	NaN	164	3	38	2	120	220	320	NaN	520	0.247291880659759	1	1	NaN	3114368.6640992	NaN	3114369.6474738	3114370.16402592
64	21	0	0	90	36.1581920903955	36.241610738255	20	0.666752479970455	2	10	5	NaN	2	5	0.0441215250327206	0	1	NaN	165	3	39	2	120	220	320	NaN	520	0.224407176952809	2	1	NaN	3114371.2308845	NaN	3114372.2144053	3114372.73095342
64	21	0	0	90	36.1581920903955	36.241610738255	9	0.300038615986705	2	2	5	NaN	1	5	0.0441215250327206	0	1	NaN	166	3	40	2	120	220	320	NaN	520	0.162845732178539	1	1	NaN	3114373.764574	NaN	3114374.7479712	3114375.26453007
64	21	0	0	90	36.1581920903955	36.241610738255	9	0.300038615986705	2	9	1	NaN	2	4	0.0441215250327206	0	1	NaN	167	3	41	2	120	220	320	NaN	520	0.231434432789683	1	0	NaN	3114376.2481513	NaN	3114377.2315536	3114377.74810397
64	21	0	0	90	36.1581920903955	36.241610738255	18	0.60007723197341	2	10	3	NaN	2	3	0.0441215250327206	0	1	NaN	168	3	42	2	120	220	320	NaN	520	0.265102132689208	2	1	NaN	3114378.7982919	NaN	3114379.7818125	3114380.29836017
64	21	0	0	90	36.1581920903955	36.241610738255	25	0.833440599963069	2	4	6	NaN	1	4	0.0441215250327206	0	1	NaN	169	3	43	2	120	220	320	NaN	520	0.145412229001522	1	1	NaN	3114381.3819925	NaN	3114382.3653978	3114382.88194977
64	21	0	0	90	36.1581920903955	36.241610738255	19	0.633414855971932	2	7	4	NaN	2	4	0.0441215250327206	0	1	NaN	170	3	44	2	120	220	320	NaN	520	0.231452445033938	1	0	NaN	3114383.8321085	NaN	3114384.8155458	3114385.33219886
64	21	0	0	90	36.1581920903955	36.241610738255	14	0.466726735979319	2	8	4	NaN	2	3	0.0441215250327206	0	1	NaN	171	3	45	2	120	220	320	NaN	520	1.65726028056815	1	0	NaN	3114386.38248	NaN	3114387.3658967	3114387.88243772
64	21	0	0	90	36.1581920903955	36.241610738255	9	0.300038615986705	2	10	4	NaN	2	3	0.0441215250327206	0	1	NaN	172	3	46	2	120	220	320	NaN	520	0.217920232564211	1	0	NaN	3114390.3495556	NaN	3114391.3329619	3114391.84949377
64	21	0	0	90	36.1581920903955	36.241610738255	7	0.233363367989659	2	1	1	NaN	1	3	0.0441215250327206	0	1	NaN	173	3	47	2	120	220	320	NaN	520	1.36426558066159	1	1	NaN	3114392.8831267	NaN	3114393.8665276	3114394.38309462
64	21	0	0	90	36.1581920903955	36.241610738255	20	0.666752479970455	2	7	3	NaN	2	5	0.0441215250327206	0	1	NaN	174	3	48	2	120	220	320	NaN	520	0.296618732623756	1	0	NaN	3114396.5668096	NaN	3114397.5502166	3114398.06677097
64	21	0	0	90	36.1581920903955	36.241610738255	22	0.733427727967501	2	1	1	NaN	1	3	0.0441215250327206	0	1	NaN	175	3	49	2	120	220	320	NaN	520	1.27954148082063	1	1	NaN	3114399.1836236	NaN	3114400.1671684	3114400.68369632
64	21	0	0	90	36.1581920903955	36.241610738255	6	0.200025743991137	2	9	6	NaN	2	3	0.0441215250327206	0	1	NaN	176	3	50	2	120	220	320	NaN	520	1.86328353267163	2	1	NaN	3114402.7841158	NaN	3114403.7674999	3114404.28405927
64	21	0	0	90	36.1581920903955	36.241610738255	17	0.566739607974887	2	11	3	NaN	2	4	0.0441215250327206	0	1	NaN	177	3	51	2	120	220	320	NaN	520	0.168250980786979	2	1	NaN	3114406.9511779	NaN	3114407.9345742	3114408.45112772
64	21	0	0	90	36.1581920903955	36.241610738255	9	0.300038615986705	2	1	3	NaN	1	5	0.0441215250327206	0	1	NaN	178	3	52	2	120	220	320	NaN	520	2.2853742451407	1	1	NaN	3114409.4181016	NaN	3114410.4014804	3114410.91804325
64	21	0	0	90	36.1581920903955	36.241610738255	16	0.533401983976364	2	12	1	NaN	2	4	0.0441215250327206	0	1	NaN	179	3	53	2	120	220	320	NaN	520	2.07686528097838	1	0	NaN	3114414.018476	NaN	3114415.0019402	3114415.51848912
64	21	0	0	90	36.1581920903955	36.241610738255	0	0	1	2	2	NaN	1	5	0.0441215250327206	0	1	NaN	180	3	54	2	110	210	310	NaN	510	2.35717498091981	1	1	NaN	3114418.4023198	NaN	3114419.3857255	3114419.90224752
64	21	0	0	90	36.1581920903955	36.241610738255	10	0.333376239985228	2	10	3	NaN	2	4	0.0441215250327206	0	1	NaN	181	3	55	2	120	220	320	NaN	520	0.242341880686581	1	0	NaN	3114423.0694838	NaN	3114424.0528595	3114424.56937782
64	21	0	0	90	36.1581920903955	36.241610738255	7	0.233363367989659	2	12	4	NaN	2	4	0.0441215250327206	0	1	NaN	182	3	56	2	120	220	320	NaN	520	0.43549933237955	2	1	NaN	3114426.0197147	NaN	3114427.0030195	3114427.51967697
64	21	0	0	90	36.1581920903955	36.241610738255	18	0.60007723197341	2	6	1	NaN	1	3	0.0441215250327206	0	1	NaN	183	3	57	2	120	220	320	NaN	520	1.01357768056914	2	0	NaN	3114428.770007	NaN	3114429.7533976	3114430.26993852
64	21	0	0	90	36.1581920903955	36.241610738255	21	0.700090103968978	2	10	6	NaN	2	4	0.0441215250327206	0	1	NaN	184	3	58	2	120	220	320	NaN	520	0.231987732462585	1	0	NaN	3114432.103655	NaN	3114433.0870341	3114433.60360487
64	21	0	0	90	36.1581920903955	36.241610738255	13	0.433389111980796	2	12	3	NaN	2	3	0.0441215250327206	0	1	NaN	185	3	59	2	120	220	320	NaN	520	0.241686880588531	2	1	NaN	3114434.6537735	NaN	3114435.6373052	3114436.15385022
64	21	0	0	90	36.1581920903955	36.241610738255	8	0.266700991988182	2	5	6	NaN	1	5	0.0441215250327206	0	1	NaN	186	3	60	2	120	220	320	NaN	520	0.21928593236953	1	1	NaN	3114437.2041499	NaN	3114438.1875925	3114438.70410387
64	21	0	0	90	36.1581920903955	36.241610738255	24	0.800102975964546	2	7	2	NaN	2	5	0.0441215250327206	0	1	NaN	187	3	61	2	120	220	320	NaN	520	0.134139180649072	1	0	NaN	3114439.7376487	NaN	3114440.7211341	3114441.23767712
64	21	0	0	90	36.1581920903955	36.241610738255	13	0.433389111980796	2	10	4	NaN	2	5	0.0441215250327206	0	1	NaN	188	3	62	2	120	220	320	NaN	520	0.179606332443655	2	1	NaN	3114442.1879705	NaN	3114443.1713849	3114443.68792857
64	21	0	0	90	36.1581920903955	36.241610738255	18	0.60007723197341	2	12	5	NaN	2	5	0.0441215250327206	0	1	NaN	189	3	63	2	120	220	320	NaN	520	0.215360980480909	2	1	NaN	3114444.6882073	NaN	3114445.6716182	3114446.18816832
64	21	0	0	90	36.1581920903955	36.241610738255	18	0.60007723197341	2	8	4	NaN	2	4	0.0441215250327206	0	1	NaN	190	4	1	2	120	220	320	NaN	520	1.4695224808529	2	1	NaN	3114448.921965	NaN	3114449.9053686	3114450.42191912
64	21	0	0	90	36.1581920903955	36.241610738255	12	0.400051487982273	2	12	5	NaN	2	4	0.0441215250327206	0	1	NaN	191	4	2	2	120	220	320	NaN	520	0.302118180785328	2	1	NaN	3114452.7056785	NaN	3114453.6890672	3114454.20562892
64	21	0	0	90	36.1581920903955	36.241610738255	20	0.666752479970455	2	4	2	NaN	1	4	0.0441215250327206	0	1	NaN	192	4	3	2	120	220	320	NaN	520	0.010411680676043	2	0	NaN	3114455.3225958	NaN	3114456.3060004	3114456.82254832
64	21	0	0	90	36.1581920903955	36.241610738255	22	0.733427727967501	2	6	1	NaN	1	5	0.0441215250327206	0	1	NaN	193	4	4	2	120	220	320	NaN	520	0.248328380752355	2	0	NaN	3114457.6393628	NaN	3114458.6228709	3114459.13944492
64	21	0	0	90	36.1581920903955	36.241610738255	11	0.36671386398375	2	8	6	NaN	2	5	0.0441215250327206	0	1	NaN	194	4	5	2	120	220	320	NaN	520	0.193121345248073	2	1	NaN	3114460.2064177	NaN	3114461.1898262	3114461.70636465
64	21	0	0	90	36.1581920903955	36.241610738255	23	0.766765351966023	2	6	3	NaN	1	3	0.0441215250327206	0	1	NaN	195	4	6	2	120	220	320	NaN	520	0.452889371197671	2	0	NaN	3114462.7065309	NaN	3114463.6900489	3114464.20660993
64	21	0	0	90	36.1581920903955	36.241610738255	8	0.266700991988182	2	3	1	NaN	1	3	0.0441215250327206	0	1	NaN	196	4	7	2	120	220	320	NaN	520	0.190031580626965	2	0	NaN	3114465.473497	NaN	3114466.4569972	3114466.97354052
64	21	0	0	90	36.1581920903955	36.241610738255	13	0.433389111980796	2	11	5	NaN	2	5	0.0441215250327206	0	1	NaN	197	4	8	2	120	220	320	NaN	520	0.233510790392756	2	1	NaN	3114467.9738498	NaN	3114468.9572424	3114469.47380021
64	21	0	0	90	36.1581920903955	36.241610738255	18	0.60007723197341	2	3	6	NaN	1	4	0.0441215250327206	0	1	NaN	198	4	9	2	120	220	320	NaN	520	0.24400863237679	1	1	NaN	3114470.5074192	NaN	3114471.4908319	3114472.00738307
64	21	0	0	90	36.1581920903955	36.241610738255	25	0.833440599963069	2	9	5	NaN	2	5	0.0441215250327206	0	1	NaN	199	4	10	2	120	220	320	NaN	520	0.261145571246743	1	0	NaN	3114473.074352	NaN	3114474.0577418	3114474.57429003
64	21	0	0	90	36.1581920903955	36.241610738255	19	0.633414855971932	2	3	2	NaN	1	4	0.0441215250327206	0	1	NaN	200	4	11	2	120	220	320	NaN	520	0.246634432580322	1	1	NaN	3114475.6412713	NaN	3114476.6246668	3114477.14121837
64	21	0	0	90	36.1581920903955	36.241610738255	18	0.60007723197341	2	8	6	NaN	2	3	0.0441215250327206	0	1	NaN	201	4	12	2	120	220	320	NaN	520	0.51073363237083	1	0	NaN	3114478.2248638	NaN	3114479.2082963	3114479.72480777
64	21	0	0	90	36.1581920903955	36.241610738255	19	0.633414855971932	2	7	3	NaN	2	5	0.0441215250327206	0	1	NaN	202	4	13	2	120	220	320	NaN	520	0.0931863323785365	2	1	NaN	3114481.0584481	NaN	3114482.0418538	3114482.55841937
64	21	0	0	90	36.1581920903955	36.241610738255	11	0.36671386398375	2	10	1	NaN	2	4	0.0441215250327206	0	1	NaN	203	4	14	2	120	220	320	NaN	520	0.23686972912401	2	1	NaN	3114483.4586996	NaN	3114484.4420887	3114484.95864747
64	21	0	0	90	36.1581920903955	36.241610738255	14	0.466726735979319	2	11	3	NaN	2	4	0.0441215250327206	0	1	NaN	204	4	15	2	120	220	320	NaN	520	0.510716580785811	1	0	NaN	3114486.0089403	NaN	3114486.9923464	3114487.50889702
64	21	0	0	90	36.1581920903955	36.241610738255	23	0.766765351966023	2	1	1	NaN	1	4	0.0441215250327206	0	1	NaN	205	4	16	2	120	220	320	NaN	520	0.517157532740384	1	1	NaN	3114488.8425493	NaN	3114489.8259681	3114490.34251567
64	21	0	0	90	36.1581920903955	36.241610738255	24	0.800102975964546	2	4	3	NaN	1	4	0.0441215250327206	0	1	NaN	206	4	17	2	120	220	320	NaN	520	0.171456580515951	1	1	NaN	3114491.6761668	NaN	3114492.6595704	3114493.17611662
64	21	0	0	90	36.1581920903955	36.241610738255	25	0.833440599963069	2	10	3	NaN	2	4	0.0441215250327206	0	1	NaN	207	4	18	2	120	220	320	NaN	520	0.175816380418837	1	0	NaN	3114494.1597518	NaN	3114495.1431406	3114495.65970182
64	21	0	0	90	36.1581920903955	36.241610738255	15	0.500064359977841	2	7	1	NaN	2	4	0.0441215250327206	0	1	NaN	208	4	19	2	120	220	320	NaN	520	0.650094880722463	2	1	NaN	3114496.6933316	NaN	3114497.6767283	3114498.19327572
64	21	0	0	90	36.1581920903955	36.241610738255	16	0.533401983976364	2	10	5	NaN	2	3	0.0441215250327206	0	1	NaN	209	4	20	2	120	220	320	NaN	520	1.42725148051977	1	0	NaN	3114499.6602925	NaN	3114500.6436853	3114501.16024102
64	21	0	0	90	36.1581920903955	36.241610738255	8	0.266700991988182	2	12	2	NaN	2	5	0.0441215250327206	0	1	NaN	210	4	21	2	120	220	320	NaN	520	0.58993583265692	2	1	NaN	3114503.3940398	NaN	3114504.3774141	3114504.89394777
64	21	0	0	90	36.1581920903955	36.241610738255	23	0.766765351966023	2	10	5	NaN	2	4	0.0441215250327206	0	1	NaN	211	4	22	2	120	220	320	NaN	520	0.305455083958805	1	0	NaN	3114506.2942939	NaN	3114507.2776768	3114507.79422772
64	21	0	0	90	36.1581920903955	36.241610738255	14	0.466726735979319	2	12	6	NaN	2	5	0.0441215250327206	0	1	NaN	212	4	23	2	120	220	320	NaN	520	0.264681632630527	1	0	NaN	3114508.9112068	NaN	3114509.8945985	3114510.41115117
64	21	0	0	90	36.1581920903955	36.241610738255	18	0.60007723197341	2	9	3	NaN	2	5	0.0441215250327206	0	1	NaN	213	4	24	2	120	220	320	NaN	520	0.0887394323945045	2	1	NaN	3114511.4947928	NaN	3114512.4782014	3114512.99474517
64	21	0	0	90	36.1581920903955	36.241610738255	10	0.333376239985228	2	10	3	NaN	2	3	0.0441215250327206	0	1	NaN	214	4	25	2	120	220	320	NaN	520	0.248006332200021	2	1	NaN	3114513.9116591	NaN	3114514.8950805	3114515.41164967
64	21	0	0	90	36.1581920903955	36.241610738255	15	0.500064359977841	2	2	6	NaN	1	4	0.0441215250327206	0	1	NaN	215	4	26	2	120	220	320	NaN	520	3.23295852914453	2	0	NaN	3114516.4786145	NaN	3114517.4619858	3114517.97855367
64	21	0	0	90	36.1581920903955	36.241610738255	7	0.233363367989659	2	10	1	NaN	2	4	0.0441215250327206	0	1	NaN	216	4	27	2	120	220	320	NaN	520	0.914833980612457	2	1	NaN	3114522.0290219	NaN	3114523.0125608	3114523.52910632
64	21	0	0	90	36.1581920903955	36.241610738255	20	0.666752479970455	2	1	2	NaN	1	3	0.0441215250327206	0	1	NaN	217	4	28	2	120	220	320	NaN	520	1.0170406321995	2	0	NaN	3114525.2628022	NaN	3114526.2462955	3114526.76276087
64	21	0	0	90	36.1581920903955	36.241610738255	20	0.666752479970455	2	12	1	NaN	2	5	0.0441215250327206	0	1	NaN	218	4	29	2	120	220	320	NaN	520	0.619303280953318	2	1	NaN	3114528.5964608	NaN	3114529.5798744	3114530.09641752
64	21	0	0	90	36.1581920903955	36.241610738255	7	0.233363367989659	2	6	4	NaN	1	3	0.0441215250327206	0	1	NaN	219	4	30	2	120	220	320	NaN	520	0.421706932131201	2	0	NaN	3114531.5300959	NaN	3114532.5134836	3114533.03004697
64	21	0	0	90	36.1581920903955	36.241610738255	18	0.60007723197341	2	9	6	NaN	2	3	0.0441215250327206	0	1	NaN	220	4	31	2	120	220	320	NaN	520	0.0104401288554072	2	1	NaN	3114534.2636837	NaN	3114535.2470841	3114535.76364667
64	21	0	0	90	36.1581920903955	36.241610738255	11	0.36671386398375	2	4	6	NaN	1	3	0.0441215250327206	0	1	NaN	221	4	32	2	120	220	320	NaN	520	3.57899728044868	2	0	NaN	3114536.5805915	NaN	3114537.5639969	3114538.08053202
64	21	0	0	90	36.1581920903955	36.241610738255	18	0.60007723197341	2	6	6	NaN	1	3	0.0441215250327206	0	1	NaN	222	4	33	2	120	220	320	NaN	520	0.126845680642873	2	0	NaN	3114542.481171	NaN	3114543.4645658	3114543.98111702
64	21	0	0	90	36.1581920903955	36.241610738255	22	0.733427727967501	2	4	2	NaN	1	4	0.0441215250327206	0	1	NaN	223	4	34	2	120	220	320	NaN	520	3.78118764515966	1	1	NaN	3114544.9147437	NaN	3114545.8981321	3114546.41470246
64	21	0	0	90	36.1581920903955	36.241610738255	9	0.300038615986705	2	9	2	NaN	2	5	0.0441215250327206	0	1	NaN	224	4	35	2	120	220	320	NaN	520	1.3844452323392	2	1	NaN	3114551.0153325	NaN	3114551.9987555	3114552.51529427
64	21	0	0	90	36.1581920903955	36.241610738255	11	0.36671386398375	2	12	3	NaN	2	5	0.0441215250327206	0	1	NaN	225	4	36	2	120	220	320	NaN	520	0.284007732290775	2	1	NaN	3114554.7157096	NaN	3114555.6991428	3114556.21565967
64	21	0	0	90	36.1581920903955	36.241610738255	21	0.700090103968978	2	5	3	NaN	1	5	0.0441215250327206	0	1	NaN	226	4	37	2	120	220	320	NaN	520	0.155726432334632	2	0	NaN	3114557.3159709	NaN	3114558.2993624	3114558.81591617
64	21	0	0	90	36.1581920903955	36.241610738255	21	0.700090103968978	2	12	4	NaN	2	4	0.0441215250327206	0	1	NaN	227	4	38	2	120	220	320	NaN	520	0.200606680940837	2	1	NaN	3114559.7828964	NaN	3114560.7662655	3114561.28281832
64	21	0	0	90	36.1581920903955	36.241610738255	21	0.700090103968978	2	3	3	NaN	1	5	0.0441215250327206	0	1	NaN	228	4	39	2	120	220	320	NaN	520	0.388302932493389	2	0	NaN	3114562.2997684	NaN	3114563.2830736	3114563.79973707
64	21	0	0	90	36.1581920903955	36.241610738255	20	0.666752479970455	2	9	4	NaN	2	5	0.0441215250327206	0	1	NaN	229	4	40	2	120	220	320	NaN	520	0.487601580563933	2	1	NaN	3114565.00004	NaN	3114565.983602	3114566.50000302
64	21	0	0	90	36.1581920903955	36.241610738255	13	0.433389111980796	2	11	1	NaN	2	4	0.0441215250327206	0	1	NaN	230	4	41	2	120	220	320	NaN	520	0.295752480626106	1	0	NaN	3114567.8003194	NaN	3114568.7837236	3114569.30027072
64	21	0	0	90	36.1581920903955	36.241610738255	16	0.533401983976364	2	2	1	NaN	1	5	0.0441215250327206	0	1	NaN	231	4	42	2	120	220	320	NaN	520	0.638482980895787	1	1	NaN	3114570.4171199	NaN	3114571.4006404	3114571.91719782
64	21	0	0	90	36.1581920903955	36.241610738255	16	0.533401983976364	2	5	2	NaN	1	3	0.0441215250327206	0	1	NaN	232	4	43	2	120	220	320	NaN	520	0.71228323224932	1	1	NaN	3114573.3675314	NaN	3114574.3509377	3114574.86748847
64	21	0	0	90	36.1581920903955	36.241610738255	10	0.333376239985228	2	4	1	NaN	1	5	0.0441215250327206	0	1	NaN	233	4	44	2	120	220	320	NaN	520	0.214899884071201	2	0	NaN	3114576.401196	NaN	3114577.3845718	3114577.90112492
64	21	0	0	90	36.1581920903955	36.241610738255	15	0.500064359977841	2	12	2	NaN	2	5	0.0441215250327206	0	1	NaN	234	4	45	2	120	220	320	NaN	520	0.608817228581756	2	1	NaN	3114578.9346497	NaN	3114579.9181421	3114580.43469557
64	21	0	0	90	36.1581920903955	36.241610738255	6	0.200025743991137	2	4	4	NaN	1	4	0.0441215250327206	0	1	NaN	235	4	46	2	120	220	320	NaN	520	0.21199008077383	2	0	NaN	3114581.8517097	NaN	3114582.8351143	3114583.35164722
64	21	0	0	90	36.1581920903955	36.241610738255	8	0.266700991988182	2	5	2	NaN	1	4	0.0441215250327206	0	1	NaN	236	4	47	2	120	220	320	NaN	520	0.382358380593359	1	1	NaN	3114584.3852799	NaN	3114585.3686849	3114585.88523622
64	21	0	0	90	36.1581920903955	36.241610738255	15	0.500064359977841	2	3	6	NaN	1	5	0.0441215250327206	0	1	NaN	237	4	48	2	120	220	320	NaN	520	0.265992832370102	2	0	NaN	3114587.0855495	NaN	3114588.0689537	3114588.58550837
64	21	0	0	90	36.1581920903955	36.241610738255	6	0.200025743991137	2	7	6	NaN	2	5	0.0441215250327206	0	1	NaN	238	4	49	2	120	220	320	NaN	520	0.0104154804721475	2	1	NaN	3114589.6691453	NaN	3114590.6525373	3114591.16908902
64	21	0	0	90	36.1581920903955	36.241610738255	16	0.533401983976364	2	8	2	NaN	2	4	0.0441215250327206	0	1	NaN	239	4	50	2	120	220	320	NaN	520	0.293273680377752	2	1	NaN	3114592.0027069	NaN	3114592.9860971	3114593.50264502
64	21	0	0	90	36.1581920903955	36.241610738255	22	0.733427727967501	2	5	3	NaN	1	3	0.0441215250327206	0	1	NaN	240	4	51	2	120	220	320	NaN	520	0.917105780448765	2	0	NaN	3114594.6028272	NaN	3114595.5863569	3114596.10290712
64	21	0	0	90	36.1581920903955	36.241610738255	10	0.333376239985228	2	5	5	NaN	1	5	0.0441215250327206	0	1	NaN	241	4	52	2	120	220	320	NaN	520	0.714916832745075	2	0	NaN	3114597.8366189	NaN	3114598.8199843	3114599.33655467
64	21	0	0	90	36.1581920903955	36.241610738255	22	0.733427727967501	2	3	5	NaN	1	5	0.0441215250327206	0	1	NaN	242	4	53	2	120	220	320	NaN	520	0.601501245051622	1	1	NaN	3114600.870235	NaN	3114601.8536595	3114602.37019225
64	21	0	0	90	36.1581920903955	36.241610738255	14	0.466726735979319	2	3	4	NaN	1	3	0.0441215250327206	0	1	NaN	243	4	54	2	120	220	320	NaN	520	0.132857377175242	2	0	NaN	3114603.7871966	NaN	3114604.7705805	3114605.28714182
64	21	0	0	90	36.1581920903955	36.241610738255	24	0.800102975964546	2	5	3	NaN	1	4	0.0441215250327206	0	1	NaN	244	4	55	2	120	220	320	NaN	520	0.242704129312187	1	1	NaN	3114606.2374406	NaN	3114607.2208353	3114607.73738187
64	21	0	0	90	36.1581920903955	36.241610738255	16	0.533401983976364	2	5	4	NaN	1	3	0.0441215250327206	0	1	NaN	245	4	56	2	120	220	320	NaN	520	0.211739528924227	1	1	NaN	3114608.8043502	NaN	3114609.787678	3114610.30430667
64	21	0	0	90	36.1581920903955	36.241610738255	23	0.766765351966023	2	12	3	NaN	2	4	0.0441215250327206	0	1	NaN	246	4	57	2	120	220	320	NaN	520	0.261839732527733	1	0	NaN	3114611.3379526	NaN	3114612.3213362	3114612.83788017
64	21	0	0	90	36.1581920903955	36.241610738255	17	0.566739607974887	2	9	1	NaN	2	4	0.0441215250327206	0	1	NaN	247	4	58	2	120	220	320	NaN	520	0.190406180452555	1	0	NaN	3114613.9215267	NaN	3114614.9049111	3114615.42147752
64	21	0	0	90	36.1581920903955	36.241610738255	15	0.500064359977841	2	4	5	NaN	1	5	0.0441215250327206	0	1	NaN	248	4	59	2	120	220	320	NaN	520	0.36722383229062	1	1	NaN	3114616.4883273	NaN	3114617.4718634	3114617.98839087
64	21	0	0	90	36.1581920903955	36.241610738255	14	0.466726735979319	2	5	3	NaN	1	5	0.0441215250327206	0	1	NaN	249	4	60	2	120	220	320	NaN	520	0.0104261804372072	1	1	NaN	3114619.1720317	NaN	3114620.1554854	3114620.67198222
64	21	0	0	90	36.1581920903955	36.241610738255	14	0.466726735979319	2	12	5	NaN	2	3	0.0441215250327206	0	1	NaN	250	4	61	2	120	220	320	NaN	520	0.774872480891645	1	0	NaN	3114621.4888062	NaN	3114622.4723392	3114622.98887812
64	21	0	0	90	36.1581920903955	36.241610738255	11	0.36671386398375	2	5	2	NaN	1	3	0.0441215250327206	0	1	NaN	251	4	62	2	120	220	320	NaN	520	0.0104191810823977	1	1	NaN	3114624.5724509	NaN	3114625.5559742	3114626.07251332
64	21	0	0	90	36.1581920903955	36.241610738255	17	0.566739607974887	2	1	1	NaN	1	3	0.0441215250327206	0	1	NaN	252	4	63	2	120	220	320	NaN	520	0.182383480481803	1	1	NaN	3114626.8894523	NaN	3114627.8727926	3114628.38941322
64	21	0	0	90	36.1581920903955	36.241610738255	10	0.333376239985228	2	11	5	NaN	2	5	0.0441215250327206	0	1	NaN	253	5	1	2	120	220	320	NaN	520	0.588595984037966	2	1	NaN	3114637.7071906	NaN	3114638.6905888	3114639.20715112
64	21	0	0	90	36.1581920903955	36.241610738255	6	0.200025743991137	2	2	3	NaN	1	5	0.0441215250327206	0	1	NaN	254	5	2	2	120	220	320	NaN	520	0.224357232451439	1	1	NaN	3114640.6075084	NaN	3114641.5908733	3114642.10743707
64	21	0	0	90	36.1581920903955	36.241610738255	24	0.800102975964546	2	4	3	NaN	1	5	0.0441215250327206	0	1	NaN	255	5	3	2	120	220	320	NaN	520	0.48269958095625	1	1	NaN	3114643.1410773	NaN	3114644.1244533	3114644.64101052
64	21	0	0	90	36.1581920903955	36.241610738255	24	0.800102975964546	2	11	2	NaN	2	5	0.0441215250327206	0	1	NaN	256	5	4	2	120	220	320	NaN	520	0.154553680680692	2	1	NaN	3114645.9412306	NaN	3114646.9247604	3114647.44128152
64	21	0	0	90	36.1581920903955	36.241610738255	24	0.800102975964546	2	10	6	NaN	2	4	0.0441215250327206	0	1	NaN	257	5	5	2	120	220	320	NaN	520	0.506639832165092	1	0	NaN	3114649.3251228	NaN	3114650.3084059	3114650.82495787
64	21	0	0	90	36.1581920903955	36.241610738255	9	0.300038615986705	2	5	3	NaN	1	5	0.0441215250327206	0	1	NaN	258	5	6	2	120	220	320	NaN	520	0.386123380623758	2	0	NaN	3114652.141947	NaN	3114653.1253439	3114653.64189122
64	21	0	0	90	36.1581920903955	36.241610738255	20	0.666752479970455	2	12	3	NaN	2	4	0.0441215250327206	0	1	NaN	259	5	7	2	120	220	320	NaN	520	0.0104069807566702	2	1	NaN	3114655.2589029	NaN	3114656.2423224	3114656.75886252
64	21	0	0	90	36.1581920903955	36.241610738255	11	0.36671386398375	2	8	5	NaN	2	4	0.0441215250327206	0	1	NaN	260	5	8	2	120	220	320	NaN	520	1.07163348095492	1	0	NaN	3114657.592471	NaN	3114658.5758925	3114659.09242522
64	21	0	0	90	36.1581920903955	36.241610738255	22	0.733427727967501	2	8	6	NaN	2	4	0.0441215250327206	0	1	NaN	261	5	9	2	120	220	320	NaN	520	0.215957480482757	1	0	NaN	3114660.9760156	NaN	3114661.9595496	3114662.47610292
64	21	0	0	90	36.1581920903955	36.241610738255	18	0.60007723197341	2	1	6	NaN	1	4	0.0441215250327206	0	1	NaN	262	5	10	2	120	220	320	NaN	520	0.402393480762839	2	0	NaN	3114663.5096486	NaN	3114664.4931318	3114665.00967842
64	21	0	0	90	36.1581920903955	36.241610738255	20	0.666752479970455	2	3	5	NaN	1	3	0.0441215250327206	0	1	NaN	263	5	11	2	120	220	320	NaN	520	0.333266680594534	2	0	NaN	3114666.2266664	NaN	3114667.2101036	3114667.72660692
64	21	0	0	90	36.1581920903955	36.241610738255	17	0.566739607974887	2	2	1	NaN	1	4	0.0441215250327206	0	1	NaN	264	5	12	2	120	220	320	NaN	520	0.010413680691272	2	0	NaN	3114668.876926	NaN	3114669.8603172	3114670.37687162
64	21	0	0	90	36.1581920903955	36.241610738255	7	0.233363367989659	2	7	6	NaN	2	4	0.0441215250327206	0	1	NaN	265	5	13	2	120	220	320	NaN	520	2.9659919324331	2	1	NaN	3114671.1938993	NaN	3114672.1772167	3114672.69377597
64	21	0	0	90	36.1581920903955	36.241610738255	22	0.733427727967501	2	2	2	NaN	1	4	0.0441215250327206	0	1	NaN	266	5	14	2	120	220	320	NaN	520	0.0662469808012247	2	0	NaN	3114676.4776836	NaN	3114677.4610702	3114677.97761582
64	21	0	0	90	36.1581920903955	36.241610738255	6	0.200025743991137	2	1	3	NaN	1	5	0.0441215250327206	0	1	NaN	267	5	15	2	120	220	320	NaN	520	6.32292493246496	2	0	NaN	3114678.8612303	NaN	3114679.8445337	3114680.36121007
64	21	0	0	90	36.1581920903955	36.241610738255	16	0.533401983976364	2	1	6	NaN	1	4	0.0441215250327206	0	1	NaN	268	5	16	2	120	220	320	NaN	520	0.416282632388175	2	0	NaN	3114687.4952861	NaN	3114688.4788322	3114688.99537597
64	21	0	0	90	36.1581920903955	36.241610738255	21	0.700090103968978	2	9	1	NaN	2	3	0.0441215250327206	0	1	NaN	269	5	17	2	120	220	320	NaN	520	0.13894817745313	1	0	NaN	3114690.2289086	NaN	3114691.2124293	3114691.72896742
64	21	0	0	90	36.1581920903955	36.241610738255	22	0.733427727967501	2	11	6	NaN	2	5	0.0441215250327206	0	1	NaN	270	5	18	2	120	220	320	NaN	520	0.305323380511254	1	0	NaN	3114693.0626343	NaN	3114694.0460379	3114694.56258572
64	21	0	0	90	36.1581920903955	36.241610738255	21	0.700090103968978	2	11	5	NaN	2	4	0.0441215250327206	0	1	NaN	271	5	19	2	120	220	320	NaN	520	0.80045702913776	1	0	NaN	3114695.6794976	NaN	3114696.6629484	3114697.17950247
64	21	0	0	90	36.1581920903955	36.241610738255	18	0.60007723197341	2	2	3	NaN	1	3	0.0441215250327206	0	1	NaN	272	5	20	2	120	220	320	NaN	520	0.259211080614477	1	1	NaN	3114698.7965328	NaN	3114699.779927	3114700.29647572
64	21	0	0	90	36.1581920903955	36.241610738255	10	0.333376239985228	2	12	4	NaN	2	4	0.0441215250327206	0	1	NaN	273	5	21	2	120	220	320	NaN	520	1.54874383239076	1	0	NaN	3114701.3634482	NaN	3114702.3468528	3114702.86341117
64	21	0	0	90	36.1581920903955	36.241610738255	8	0.266700991988182	2	10	5	NaN	2	3	0.0441215250327206	0	1	NaN	274	5	22	2	120	220	320	NaN	520	0.0104068326763809	1	0	NaN	3114705.2305035	NaN	3114706.213901	3114706.73044557
64	21	0	0	90	36.1581920903955	36.241610738255	17	0.566739607974887	2	5	4	NaN	1	3	0.0441215250327206	0	1	NaN	275	5	23	2	120	220	320	NaN	520	0.260398696642369	2	0	NaN	3114707.5474157	NaN	3114708.5307844	3114709.0473531
64	21	0	0	90	36.1581920903955	36.241610738255	0	0	1	5	1	NaN	1	5	0.0441215250327206	0	1	NaN	276	5	24	2	110	210	310	NaN	510	0.309615532401949	2	0	NaN	3114710.114207	NaN	3114711.0977214	3114711.61426797
64	21	0	0	90	36.1581920903955	36.241610738255	22	0.733427727967501	2	3	1	NaN	1	3	0.0441215250327206	0	1	NaN	277	5	25	2	120	220	320	NaN	520	0.0361074805259705	2	0	NaN	3114712.7479153	NaN	3114713.7312944	3114714.24785902
64	21	0	0	90	36.1581920903955	36.241610738255	23	0.766765351966023	2	10	2	NaN	2	4	0.0441215250327206	0	1	NaN	278	5	26	2	120	220	320	NaN	520	0.638063480611891	2	1	NaN	3114715.0981374	NaN	3114716.0815406	3114716.59808082
64	21	0	0	90	36.1581920903955	36.241610738255	22	0.733427727967501	2	4	6	NaN	1	3	0.0441215250327206	0	1	NaN	279	5	27	2	120	220	320	NaN	520	0.391465738881379	1	1	NaN	3114718.0484178	NaN	3114719.0318231	3114719.54838176
64	21	0	0	90	36.1581920903955	36.241610738255	23	0.766765351966023	2	11	5	NaN	2	4	0.0441215250327206	0	1	NaN	280	5	28	2	120	220	320	NaN	520	0.339465780649334	1	0	NaN	3114720.7486793	NaN	3114721.7320777	3114722.24863502
64	21	0	0	90	36.1581920903955	36.241610738255	12	0.400051487982273	2	7	4	NaN	2	3	0.0441215250327206	0	1	NaN	281	5	29	2	120	220	320	NaN	520	0.289252780377865	2	1	NaN	3114723.3990009	NaN	3114724.3823447	3114724.89890642
64	21	0	0	90	36.1581920903955	36.241610738255	15	0.500064359977841	2	8	1	NaN	2	4	0.0441215250327206	0	1	NaN	282	5	30	2	120	220	320	NaN	520	0.21696168044582	1	0	NaN	3114725.999198	NaN	3114726.9825959	3114727.49915512
64	21	0	0	90	36.1581920903955	36.241610738255	13	0.433389111980796	2	7	5	NaN	2	4	0.0441215250327206	0	1	NaN	283	5	31	2	120	220	320	NaN	520	0.242958280723542	1	0	NaN	3114728.5328486	NaN	3114729.5162259	3114730.03273852
64	21	0	0	90	36.1581920903955	36.241610738255	15	0.500064359977841	2	5	5	NaN	1	3	0.0441215250327206	0	1	NaN	284	5	32	2	120	220	320	NaN	520	0.289432532154024	1	1	NaN	3114732.566493	NaN	3114733.5499008	3114734.06647617
64	21	0	0	90	36.1581920903955	36.241610738255	10	0.333376239985228	2	7	5	NaN	2	4	0.0441215250327206	0	1	NaN	285	5	33	2	120	220	320	NaN	520	0.36118838051334	1	0	NaN	3114735.166766	NaN	3114736.1501787	3114736.66672072
64	21	0	0	90	36.1581920903955	36.241610738255	7	0.233363367989659	2	4	4	NaN	1	3	0.0441215250327206	0	1	NaN	286	5	34	2	120	220	320	NaN	520	0.582537980750203	2	0	NaN	3114737.8336957	NaN	3114738.8171101	3114739.33365932
64	21	0	0	90	36.1581920903955	36.241610738255	10	0.333376239985228	2	6	4	NaN	1	3	0.0441215250327206	0	1	NaN	287	5	35	2	120	220	320	NaN	520	0.54620992904529	2	0	NaN	3114740.7340042	NaN	3114741.7173857	3114742.23393767
64	21	0	0	90	36.1581920903955	36.241610738255	0	0	1	8	3	NaN	2	3	0.0441215250327206	0	1	NaN	288	5	36	2	110	210	310	NaN	510	0.174966632388532	2	1	NaN	3114743.6009291	NaN	3114744.5843394	3114745.10089377
64	21	0	0	90	36.1581920903955	36.241610738255	16	0.533401983976364	2	8	5	NaN	2	4	0.0441215250327206	0	1	NaN	289	5	37	2	120	220	320	NaN	520	2.1947598294355	2	1	NaN	3114746.1011965	NaN	3114747.0846134	3114747.60113297
64	21	0	0	90	36.1581920903955	36.241610738255	8	0.266700991988182	2	11	4	NaN	2	3	0.0441215250327206	0	1	NaN	290	5	38	2	120	220	320	NaN	520	1.48911473248154	1	0	NaN	3114750.7349645	NaN	3114751.7183835	3114752.23493927
64	21	0	0	90	36.1581920903955	36.241610738255	8	0.266700991988182	2	2	4	NaN	1	3	0.0441215250327206	0	1	NaN	291	5	39	2	120	220	320	NaN	520	0.232583032455295	1	1	NaN	3114754.5353378	NaN	3114755.5187438	3114756.03530147
64	21	0	0	90	36.1581920903955	36.241610738255	23	0.766765351966023	2	4	4	NaN	1	5	0.0441215250327206	0	1	NaN	292	5	40	2	120	220	320	NaN	520	0.22733743255958	2	0	NaN	3114757.0689284	NaN	3114758.0523333	3114758.56888397
64	21	0	0	90	36.1581920903955	36.241610738255	19	0.633414855971932	2	6	2	NaN	1	5	0.0441215250327206	0	1	NaN	293	5	41	2	120	220	320	NaN	520	1.31753807747737	1	1	NaN	3114759.6025614	NaN	3114760.5859078	3114761.10245562
64	21	0	0	90	36.1581920903955	36.241610738255	7	0.233363367989659	2	8	1	NaN	2	4	0.0441215250327206	0	1	NaN	294	5	42	2	120	220	320	NaN	520	0.572105480358005	2	1	NaN	3114763.2362045	NaN	3114764.219572	3114764.73615012
64	21	0	0	90	36.1581920903955	36.241610738255	6	0.200025743991137	2	11	3	NaN	2	3	0.0441215250327206	0	1	NaN	295	5	43	2	120	220	320	NaN	520	0.0104075805284083	2	1	NaN	3114766.1198121	NaN	3114767.1032216	3114767.61976322
64	21	0	0	90	36.1581920903955	36.241610738255	21	0.700090103968978	2	7	4	NaN	2	4	0.0441215250327206	0	1	NaN	296	5	44	2	120	220	320	NaN	520	0.010413380805403	2	1	NaN	3114768.436638	NaN	3114769.4201538	3114769.93665452
64	21	0	0	90	36.1581920903955	36.241610738255	25	0.833440599963069	2	2	1	NaN	1	5	0.0441215250327206	0	1	NaN	297	5	45	2	120	220	320	NaN	520	0.502164128702134	2	0	NaN	3114770.7536076	NaN	3114771.7370039	3114772.25354957
64	21	0	0	90	36.1581920903955	36.241610738255	24	0.800102975964546	2	3	3	NaN	1	3	0.0441215250327206	0	1	NaN	298	5	46	2	120	220	320	NaN	520	0.717847980558872	2	0	NaN	3114773.5705556	NaN	3114774.5539568	3114775.07050322
64	21	0	0	90	36.1581920903955	36.241610738255	15	0.500064359977841	2	12	4	NaN	2	4	0.0441215250327206	0	1	NaN	299	5	47	2	120	220	320	NaN	520	0.899690880440176	2	1	NaN	3114776.6041718	NaN	3114777.5875861	3114778.10412922
64	21	0	0	90	36.1581920903955	36.241610738255	0	0	1	2	3	NaN	1	4	0.0441215250327206	0	1	NaN	300	5	48	2	110	210	310	NaN	510	0.354801680427045	1	1	NaN	3114779.82115	NaN	3114780.8045534	3114781.32110882
64	21	0	0	90	36.1581920903955	36.241610738255	10	0.333376239985228	2	12	4	NaN	2	5	0.0441215250327206	0	1	NaN	301	5	49	2	120	220	320	NaN	520	0.280190432444215	1	0	NaN	3114782.4880856	NaN	3114783.4714969	3114783.98804977
64	21	0	0	90	36.1581920903955	36.241610738255	7	0.233363367989659	2	1	6	NaN	1	4	0.0441215250327206	0	1	NaN	302	5	50	2	120	220	320	NaN	520	0.319436232559383	1	1	NaN	3114785.0883383	NaN	3114786.0717648	3114786.58829447
64	21	0	0	90	36.1581920903955	36.241610738255	12	0.400051487982273	2	2	3	NaN	1	5	0.0441215250327206	0	1	NaN	303	5	51	2	120	220	320	NaN	520	0.286407244857401	1	1	NaN	3114787.7219584	NaN	3114788.70534	3114789.22189556
64	21	0	0	90	36.1581920903955	36.241610738255	9	0.300038615986705	2	4	3	NaN	1	3	0.0441215250327206	0	1	NaN	304	5	52	2	120	220	320	NaN	520	0.397931029088795	1	1	NaN	3114790.32219	NaN	3114791.3055896	3114791.82214437
64	21	0	0	90	36.1581920903955	36.241610738255	11	0.36671386398375	2	9	5	NaN	2	3	0.0441215250327206	0	1	NaN	305	5	53	2	120	220	320	NaN	520	0.224849544931203	2	1	NaN	3114793.0391143	NaN	3114794.0225256	3114794.53908506
64	21	0	0	90	36.1581920903955	36.241610738255	14	0.466726735979319	2	11	1	NaN	2	3	0.0441215250327206	0	1	NaN	306	5	54	2	120	220	320	NaN	520	0.355558193754405	2	1	NaN	3114795.572701	NaN	3114796.5561039	3114797.07266211
64	21	0	0	90	36.1581920903955	36.241610738255	24	0.800102975964546	2	5	2	NaN	1	3	0.0441215250327206	0	1	NaN	307	5	55	2	120	220	320	NaN	520	0.504285093862563	2	0	NaN	3114798.2396388	NaN	3114799.2230519	3114799.73959011
64	21	0	0	90	36.1581920903955	36.241610738255	20	0.666752479970455	2	11	4	NaN	2	5	0.0441215250327206	0	1	NaN	308	5	56	2	120	220	320	NaN	520	0.23336149379611	2	1	NaN	3114801.2066059	NaN	3114802.1899973	3114802.70655001
64	21	0	0	90	36.1581920903955	36.241610738255	13	0.433389111980796	2	6	5	NaN	1	3	0.0441215250327206	0	1	NaN	309	5	57	2	120	220	320	NaN	520	0.347464228980243	2	0	NaN	3114803.7567146	NaN	3114804.740256	3114805.25679327
64	21	0	0	90	36.1581920903955	36.241610738255	0	0	1	6	2	NaN	1	3	0.0441215250327206	0	1	NaN	310	5	58	2	110	210	310	NaN	510	0.272530580405146	2	0	NaN	3114806.4238083	NaN	3114807.4071808	3114807.92372482
64	21	0	0	90	36.1581920903955	36.241610738255	10	0.333376239985228	2	2	1	NaN	1	5	0.0441215250327206	0	1	NaN	311	5	59	2	120	220	320	NaN	520	0.168628032319248	1	1	NaN	3114809.007274	NaN	3114809.9907712	3114810.50731817
64	21	0	0	90	36.1581920903955	36.241610738255	6	0.200025743991137	2	5	5	NaN	1	5	0.0441215250327206	0	1	NaN	312	5	60	2	120	220	320	NaN	520	0.149034128990024	1	1	NaN	3114811.4909798	NaN	3114812.4743481	3114812.99089447
64	21	0	0	90	36.1581920903955	36.241610738255	10	0.333376239985228	2	3	5	NaN	1	3	0.0441215250327206	0	1	NaN	313	5	61	2	120	220	320	NaN	520	0.554350280668586	1	1	NaN	3114813.9578545	NaN	3114814.94123	3114815.45779802
64	21	0	0	90	36.1581920903955	36.241610738255	21	0.700090103968978	2	5	6	NaN	1	3	0.0441215250327206	0	1	NaN	314	5	62	2	120	220	320	NaN	520	0.407075880561024	1	1	NaN	3114816.8248207	NaN	3114817.8082023	3114818.32474812
64	21	0	0	90	36.1581920903955	36.241610738255	21	0.700090103968978	2	8	1	NaN	2	3	0.0441215250327206	0	1	NaN	315	5	63	2	120	220	320	NaN	520	1.24256143253297	1	0	NaN	3114819.5417454	NaN	3114820.5251564	3114821.04169257
64	21	0	0	90	36.1581920903955	36.241610738255	6	0.200025743991137	2	2	2	NaN	1	4	0.0441215250327206	0	1	NaN	316	6	1	2	120	220	320	NaN	520	0.69174263253808	1	1	NaN	3114836.0600287	NaN	3114837.043423	3114837.55997977
64	21	0	0	90	36.1581920903955	36.241610738255	9	0.300038615986705	2	12	5	NaN	2	5	0.0441215250327206	0	1	NaN	317	6	2	2	120	220	320	NaN	520	0.363818780519068	2	1	NaN	3114839.0603187	NaN	3114840.0437128	3114840.56026362
64	21	0	0	90	36.1581920903955	36.241610738255	8	0.266700991988182	2	1	4	NaN	1	3	0.0441215250327206	0	1	NaN	318	6	3	2	120	220	320	NaN	520	0.0104186804965138	2	0	NaN	3114841.7439144	NaN	3114842.7272111	3114843.24386562
64	21	0	0	90	36.1581920903955	36.241610738255	19	0.633414855971932	2	5	2	NaN	1	4	0.0441215250327206	0	1	NaN	319	6	4	2	120	220	320	NaN	520	0.25584017438814	1	1	NaN	3114844.3440655	NaN	3114845.3275734	3114845.84411373
64	21	0	0	90	36.1581920903955	36.241610738255	16	0.533401983976364	2	4	1	NaN	1	5	0.0441215250327206	0	1	NaN	320	6	5	2	120	220	320	NaN	520	0.201130774337798	1	1	NaN	3114846.9111143	NaN	3114847.8945246	3114848.41103643
64	21	0	0	90	36.1581920903955	36.241610738255	25	0.833440599963069	2	1	6	NaN	1	5	0.0441215250327206	0	1	NaN	321	6	6	2	120	220	320	NaN	520	0.228193329181522	1	1	NaN	3114849.4280023	NaN	3114850.4114012	3114850.92796067
64	21	0	0	90	36.1581920903955	36.241610738255	14	0.466726735979319	2	9	5	NaN	2	5	0.0441215250327206	0	1	NaN	322	6	7	2	120	220	320	NaN	520	0.526321731973439	1	0	NaN	3114851.9615885	NaN	3114852.9449826	3114853.46153947
64	21	0	0	90	36.1581920903955	36.241610738255	11	0.36671386398375	2	3	5	NaN	1	4	0.0441215250327206	0	1	NaN	323	6	8	2	120	220	320	NaN	520	0.316238280851394	1	1	NaN	3114854.8118365	NaN	3114855.795242	3114856.31181552
64	21	0	0	90	36.1581920903955	36.241610738255	17	0.566739607974887	2	6	6	NaN	1	5	0.0441215250327206	0	1	NaN	324	6	9	2	120	220	320	NaN	520	1.21051158709452	2	0	NaN	3114857.4453277	NaN	3114858.4288596	3114858.94541901
64	21	0	0	90	36.1581920903955	36.241610738255	19	0.633414855971932	2	2	3	NaN	1	5	0.0441215250327206	0	1	NaN	325	6	10	2	120	220	320	NaN	520	1.38079293258488	2	0	NaN	3114860.9791397	NaN	3114861.9625306	3114862.47909847
64	21	0	0	90	36.1581920903955	36.241610738255	24	0.800102975964546	2	10	4	NaN	2	4	0.0441215250327206	0	1	NaN	326	6	11	2	120	220	320	NaN	520	0.351038680877537	2	1	NaN	3114864.7128285	NaN	3114865.6962358	3114866.21278782
64	21	0	0	90	36.1581920903955	36.241610738255	12	0.400051487982273	2	12	2	NaN	2	3	0.0441215250327206	0	1	NaN	327	6	12	2	120	220	320	NaN	520	0.268268428742886	2	1	NaN	3114867.3797783	NaN	3114868.3631539	3114868.87973227
64	21	0	0	90	36.1581920903955	36.241610738255	19	0.633414855971932	2	4	3	NaN	1	5	0.0441215250327206	0	1	NaN	328	6	13	2	120	220	320	NaN	520	1.62912728032097	1	1	NaN	3114869.963366	NaN	3114870.946755	3114871.46333102
64	21	0	0	90	36.1581920903955	36.241610738255	7	0.233363367989659	2	4	3	NaN	1	3	0.0441215250327206	0	1	NaN	329	6	14	2	120	220	320	NaN	520	0.43908318085596	1	1	NaN	3114873.897066	NaN	3114874.8804696	3114875.39702402
64	21	0	0	90	36.1581920903955	36.241610738255	21	0.700090103968978	2	4	4	NaN	1	3	0.0441215250327206	0	1	NaN	330	6	15	2	120	220	320	NaN	520	0.57694047736004	1	1	NaN	3114876.6473268	NaN	3114877.6307392	3114878.14729382
64	21	0	0	90	36.1581920903955	36.241610738255	10	0.333376239985228	2	7	1	NaN	2	4	0.0441215250327206	0	1	NaN	331	6	16	2	120	220	320	NaN	520	0.236861532088369	1	0	NaN	3114879.5476325	NaN	3114880.5310355	3114881.04758547
64	21	0	0	90	36.1581920903955	36.241610738255	23	0.766765351966023	2	9	5	NaN	2	3	0.0441215250327206	0	1	NaN	332	6	17	2	120	220	320	NaN	520	0.196918780449778	1	0	NaN	3114882.3311095	NaN	3114883.3146323	3114883.83118922
64	21	0	0	90	36.1581920903955	36.241610738255	11	0.36671386398375	2	11	1	NaN	2	4	0.0441215250327206	0	1	NaN	333	6	18	2	120	220	320	NaN	520	0.0481030810624361	1	0	NaN	3114884.8481525	NaN	3114885.8315919	3114886.34809842
64	21	0	0	90	36.1581920903955	36.241610738255	22	0.733427727967501	2	7	6	NaN	2	5	0.0441215250327206	0	1	NaN	334	6	19	2	120	220	320	NaN	520	0.0812274804338813	1	0	NaN	3114887.2150629	NaN	3114888.1984595	3114888.71500092
64	21	0	0	90	36.1581920903955	36.241610738255	21	0.700090103968978	2	12	2	NaN	2	3	0.0441215250327206	0	1	NaN	335	6	20	2	120	220	320	NaN	520	0.273274380713701	1	0	NaN	3114889.6152916	NaN	3114890.5986778	3114891.11523872
64	21	0	0	90	36.1581920903955	36.241610738255	14	0.466726735979319	2	5	6	NaN	1	5	0.0441215250327206	0	1	NaN	336	6	21	2	120	220	320	NaN	520	0.217305132187903	1	1	NaN	3114892.1988649	NaN	3114893.1822731	3114893.69883257
64	21	0	0	90	36.1581920903955	36.241610738255	7	0.233363367989659	2	12	1	NaN	2	4	0.0441215250327206	0	1	NaN	337	6	22	2	120	220	320	NaN	520	0.243832932785153	1	0	NaN	3114894.732454	NaN	3114895.7158388	3114896.23240747
64	21	0	0	90	36.1581920903955	36.241610738255	25	0.833440599963069	2	11	6	NaN	2	3	0.0441215250327206	0	1	NaN	338	6	23	2	120	220	320	NaN	520	0.252832080703229	1	0	NaN	3114897.2993704	NaN	3114898.282828	3114898.79933062
64	21	0	0	90	36.1581920903955	36.241610738255	23	0.766765351966023	2	8	4	NaN	2	3	0.0441215250327206	0	1	NaN	339	6	24	2	120	220	320	NaN	520	0.926014380995184	1	0	NaN	3114899.8663038	NaN	3114900.8497194	3114901.36624972
64	21	0	0	90	36.1581920903955	36.241610738255	13	0.433389111980796	2	7	2	NaN	2	5	0.0441215250327206	0	1	NaN	340	6	25	2	120	220	320	NaN	520	0.308469580952078	1	0	NaN	3114903.0999789	NaN	3114904.0834492	3114904.59989702
64	21	0	0	90	36.1581920903955	36.241610738255	25	0.833440599963069	2	5	6	NaN	1	4	0.0441215250327206	0	1	NaN	341	6	26	2	120	220	320	NaN	520	0.259583232458681	1	1	NaN	3114905.7167634	NaN	3114906.7002744	3114907.21682877
64	21	0	0	90	36.1581920903955	36.241610738255	0	0	1	11	3	NaN	2	4	0.0441215250327206	0	1	NaN	342	6	27	2	110	210	310	NaN	510	0.748262880835682	2	1	NaN	3114908.2837677	NaN	3114909.2671978	3114909.78373902
64	21	0	0	90	36.1581920903955	36.241610738255	12	0.400051487982273	2	11	2	NaN	2	3	0.0441215250327206	0	1	NaN	343	6	28	2	120	220	320	NaN	520	1.04937208071351	2	1	NaN	3114911.3507642	NaN	3114912.3341479	3114912.85070962
64	21	0	0	90	36.1581920903955	36.241610738255	24	0.800102975964546	2	9	3	NaN	2	3	0.0441215250327206	0	1	NaN	344	6	29	2	120	220	320	NaN	520	0.0102805448696017	2	1	NaN	3114914.7177887	NaN	3114915.7011547	3114916.21770805
64	21	0	0	90	36.1581920903955	36.241610738255	22	0.733427727967501	2	11	4	NaN	2	3	0.0441215250327206	0	1	NaN	345	6	30	2	120	220	320	NaN	520	0.117832580581307	2	1	NaN	3114917.0346575	NaN	3114918.0180207	3114918.53460622
64	21	0	0	90	36.1581920903955	36.241610738255	9	0.300038615986705	2	7	2	NaN	2	3	0.0441215250327206	0	1	NaN	346	6	31	2	120	220	320	NaN	520	0.340303680393845	1	0	NaN	3114919.4682612	NaN	3114920.451613	3114920.96817092
64	21	0	0	90	36.1581920903955	36.241610738255	10	0.333376239985228	2	3	6	NaN	1	4	0.0441215250327206	0	1	NaN	347	6	32	2	120	220	320	NaN	520	0.945678280666471	1	1	NaN	3114922.1184873	NaN	3114923.1019511	3114923.61843382
64	21	0	0	90	36.1581920903955	36.241610738255	19	0.633414855971932	2	8	3	NaN	2	4	0.0441215250327206	0	1	NaN	348	6	33	2	120	220	320	NaN	520	0.0867005805484951	1	0	NaN	3114925.3854064	NaN	3114926.3688823	3114926.88542042
64	21	0	0	90	36.1581920903955	36.241610738255	25	0.833440599963069	2	3	4	NaN	1	5	0.0441215250327206	0	1	NaN	349	6	34	2	120	220	320	NaN	520	0.494846228975803	2	0	NaN	3114927.7857075	NaN	3114928.769113	3114929.28565037
64	21	0	0	90	36.1581920903955	36.241610738255	25	0.833440599963069	2	8	5	NaN	2	4	0.0441215250327206	0	1	NaN	350	6	35	2	120	220	320	NaN	520	1.05387043207884	2	1	NaN	3114930.6026623	NaN	3114931.5860464	3114932.10260437
64	21	0	0	90	36.1581920903955	36.241610738255	7	0.233363367989659	2	7	1	NaN	2	5	0.0441215250327206	0	1	NaN	351	6	36	2	120	220	320	NaN	520	0.838901381008327	1	0	NaN	3114933.9697204	NaN	3114934.9530576	3114935.46959142
64	21	0	0	90	36.1581920903955	36.241610738255	16	0.533401983976364	2	7	5	NaN	2	5	0.0441215250327206	0	1	NaN	352	6	37	2	120	220	320	NaN	520	0.240495329257101	1	0	NaN	3114937.1199687	NaN	3114938.1033606	3114938.61990077
64	21	0	0	90	36.1581920903955	36.241610738255	15	0.500064359977841	2	10	1	NaN	2	5	0.0441215250327206	0	1	NaN	353	6	38	2	120	220	320	NaN	520	0.114123683888465	2	1	NaN	3114939.6701575	NaN	3114940.6536075	3114941.17016602
64	21	0	0	90	36.1581920903955	36.241610738255	12	0.400051487982273	2	8	3	NaN	2	4	0.0441215250327206	0	1	NaN	354	6	39	2	120	220	320	NaN	520	0.248655828647316	2	1	NaN	3114942.1037767	NaN	3114943.0871903	3114943.60373467
64	21	0	0	90	36.1581920903955	36.241610738255	14	0.466726735979319	2	2	5	NaN	1	5	0.0441215250327206	0	1	NaN	355	6	40	2	120	220	320	NaN	520	0.201563880778849	1	1	NaN	3114944.6706848	NaN	3114945.6541083	3114946.17064372
64	21	0	0	90	36.1581920903955	36.241610738255	11	0.36671386398375	2	7	1	NaN	2	3	0.0441215250327206	0	1	NaN	356	6	41	2	120	220	320	NaN	520	0.220970845315605	2	1	NaN	3114947.1876035	NaN	3114948.1710144	3114948.68756395
64	21	0	0	90	36.1581920903955	36.241610738255	18	0.60007723197341	2	1	4	NaN	1	3	0.0441215250327206	0	1	NaN	357	6	42	2	120	220	320	NaN	520	0.191359080839902	2	0	NaN	3114949.7210623	NaN	3114950.7046024	3114951.22114772
64	21	0	0	90	36.1581920903955	36.241610738255	6	0.200025743991137	2	4	1	NaN	1	3	0.0441215250327206	0	1	NaN	358	6	43	2	120	220	320	NaN	520	0.530138277448714	1	1	NaN	3114952.2381108	NaN	3114953.2215205	3114953.73805312
64	21	0	0	90	36.1581920903955	36.241610738255	22	0.733427727967501	2	2	2	NaN	1	3	0.0441215250327206	0	1	NaN	359	6	44	2	120	220	320	NaN	520	0.319893432315439	1	1	NaN	3114955.0883848	NaN	3114956.0717999	3114956.58834597
64	21	0	0	90	36.1581920903955	36.241610738255	16	0.533401983976364	2	7	1	NaN	2	5	0.0441215250327206	0	1	NaN	360	6	45	2	120	220	320	NaN	520	0.286287232302129	1	0	NaN	3114957.7219796	NaN	3114958.7054141	3114959.22194047
64	21	0	0	90	36.1581920903955	36.241610738255	15	0.500064359977841	2	9	6	NaN	2	4	0.0441215250327206	0	1	NaN	361	6	46	2	120	220	320	NaN	520	0.0103942328132689	2	1	NaN	3114960.3221128	NaN	3114961.3056676	3114961.82219297
64	21	0	0	90	36.1581920903955	36.241610738255	14	0.466726735979319	2	2	1	NaN	1	3	0.0441215250327206	0	1	NaN	362	6	47	2	120	220	320	NaN	520	0.113013632595539	1	1	NaN	3114962.6391306	NaN	3114963.622527	3114964.13908147
64	21	0	0	90	36.1581920903955	36.241610738255	17	0.566739607974887	2	11	4	NaN	2	5	0.0441215250327206	0	1	NaN	363	6	48	2	120	220	320	NaN	520	0.239536480978131	1	0	NaN	3114965.0725518	NaN	3114966.0561121	3114966.57265722
64	21	0	0	90	36.1581920903955	36.241610738255	12	0.400051487982273	2	11	2	NaN	2	3	0.0441215250327206	0	1	NaN	364	6	49	2	120	220	320	NaN	520	0.249251928646117	1	0	NaN	3114967.6228466	NaN	3114968.6063914	3114969.12289977
64	21	0	0	90	36.1581920903955	36.241610738255	16	0.533401983976364	2	3	5	NaN	1	3	0.0441215250327206	0	1	NaN	365	6	50	2	120	220	320	NaN	520	0.362416080664843	1	1	NaN	3114970.1898718	NaN	3114971.1733131	3114971.68981912
64	21	0	0	90	36.1581920903955	36.241610738255	18	0.60007723197341	2	5	5	NaN	1	3	0.0441215250327206	0	1	NaN	366	6	51	2	120	220	320	NaN	520	0.279120028950274	1	1	NaN	3114972.87345	NaN	3114973.8568749	3114974.37341517
64	21	0	0	90	36.1581920903955	36.241610738255	25	0.833440599963069	2	12	1	NaN	2	3	0.0441215250327206	0	1	NaN	367	6	52	2	120	220	320	NaN	520	0.380568680353463	1	0	NaN	3114976.5237192	NaN	3114977.5072201	3114978.02377482
64	21	0	0	90	36.1581920903955	36.241610738255	23	0.766765351966023	2	3	4	NaN	1	3	0.0441215250327206	0	1	NaN	368	6	53	2	120	220	320	NaN	520	0.333557928912342	2	0	NaN	3114979.6907906	NaN	3114980.6742136	3114981.19075647
64	21	0	0	90	36.1581920903955	36.241610738255	19	0.633414855971932	2	12	5	NaN	2	3	0.0441215250327206	0	1	NaN	369	6	54	2	120	220	320	NaN	520	0.275367493741214	2	1	NaN	3114982.3410638	NaN	3114983.3244658	3114983.84102331
64	21	0	0	90	36.1581920903955	36.241610738255	8	0.266700991988182	2	4	2	NaN	1	5	0.0441215250327206	0	1	NaN	370	6	55	2	120	220	320	NaN	520	0.331646532285959	2	0	NaN	3114984.9245483	NaN	3114985.9080828	3114986.42461437
64	21	0	0	90	36.1581920903955	36.241610738255	15	0.500064359977841	2	3	1	NaN	1	3	0.0441215250327206	0	1	NaN	371	6	56	2	120	220	320	NaN	520	0.410366480704397	1	1	NaN	3114987.5582572	NaN	3114988.5416557	3114989.05819262
64	21	0	0	90	36.1581920903955	36.241610738255	7	0.233363367989659	2	10	4	NaN	2	4	0.0441215250327206	0	1	NaN	372	6	57	2	120	220	320	NaN	520	0.381160780787468	1	0	NaN	3114990.2751556	NaN	3114991.2585785	3114991.77513152
64	21	0	0	90	36.1581920903955	36.241610738255	9	0.300038615986705	2	3	3	NaN	1	4	0.0441215250327206	0	1	NaN	373	6	58	2	120	220	320	NaN	520	0.192720680963248	1	1	NaN	3114992.9754513	NaN	3114993.9588321	3114994.47539112
64	21	0	0	90	36.1581920903955	36.241610738255	6	0.200025743991137	2	3	4	NaN	1	5	0.0441215250327206	0	1	NaN	374	6	59	2	120	220	320	NaN	520	0.18067183252424	1	1	NaN	3114995.4756927	NaN	3114996.459094	3114996.97564537
64	21	0	0	90	36.1581920903955	36.241610738255	16	0.533401983976364	2	1	4	NaN	1	5	0.0441215250327206	0	1	NaN	375	6	60	2	120	220	320	NaN	520	0.240484232548624	2	0	NaN	3114997.9758244	NaN	3114998.9593312	3114999.47589537
64	21	0	0	90	36.1581920903955	36.241610738255	14	0.466726735979319	2	7	3	NaN	2	3	0.0441215250327206	0	1	NaN	376	6	61	2	120	220	320	NaN	520	0.138021745253354	1	0	NaN	3115000.5261873	NaN	3115001.5095835	3115002.02614535
64	21	0	0	90	36.1581920903955	36.241610738255	15	0.500064359977841	2	9	2	NaN	2	4	0.0441215250327206	0	1	NaN	377	6	62	2	120	220	320	NaN	520	0.168200080748647	2	1	NaN	3115002.9763277	NaN	3115003.9598391	3115004.47637622
64	21	0	0	90	36.1581920903955	36.241610738255	13	0.433389111980796	2	6	6	NaN	1	3	0.0441215250327206	0	1	NaN	378	6	63	2	120	220	320	NaN	520	1.27633413253352	1	1	NaN	3115005.4600189	NaN	3115006.4433863	3115006.95995887
64	21	0	0	90	36.1581920903955	36.241610738255	22	0.733427727967501	2	12	3	NaN	2	4	0.0441215250327206	0	1	NaN	379	7	1	2	120	220	320	NaN	520	0.71301828417927	2	1	NaN	3115034.8794389	NaN	3115035.86296	3115036.37952022
64	21	0	0	90	36.1581920903955	36.241610738255	0	0	1	6	4	NaN	1	3	0.0441215250327206	0	1	NaN	380	7	2	2	110	210	310	NaN	510	0.248141544871032	2	0	NaN	3115037.8965207	NaN	3115038.8799406	3115039.39648846
64	21	0	0	90	36.1581920903955	36.241610738255	18	0.60007723197341	2	11	4	NaN	2	5	0.0441215250327206	0	1	NaN	381	7	3	2	120	220	320	NaN	520	0.345153687056154	2	1	NaN	3115040.4634484	NaN	3115041.4468314	3115041.96340541
64	21	0	0	90	36.1581920903955	36.241610738255	6	0.200025743991137	2	6	2	NaN	1	3	0.0441215250327206	0	1	NaN	382	7	4	2	120	220	320	NaN	520	0.215002880897373	1	1	NaN	3115043.1136971	NaN	3115044.0970993	3115044.61365982
64	21	0	0	90	36.1581920903955	36.241610738255	18	0.60007723197341	2	11	6	NaN	2	4	0.0441215250327206	0	1	NaN	383	7	5	2	120	220	320	NaN	520	0.185120680835098	2	1	NaN	3115045.6472796	NaN	3115046.6306877	3115047.14723862
64	21	0	0	90	36.1581920903955	36.241610738255	6	0.200025743991137	2	8	2	NaN	2	5	0.0441215250327206	0	1	NaN	384	7	6	2	120	220	320	NaN	520	0.22912828065455	1	0	NaN	3115048.1474128	NaN	3115049.1309387	3115049.64748012
64	21	0	0	90	36.1581920903955	36.241610738255	23	0.766765351966023	2	4	5	NaN	1	3	0.0441215250327206	0	1	NaN	385	7	7	2	120	220	320	NaN	520	0.735577784013003	1	1	NaN	3115050.6811143	NaN	3115051.6645232	3115052.18106572
64	21	0	0	90	36.1581920903955	36.241610738255	8	0.266700991988182	2	12	3	NaN	2	4	0.0441215250327206	0	1	NaN	386	7	8	2	120	220	320	NaN	520	0.204931080807	2	1	NaN	3115053.7312962	NaN	3115054.7147299	3115055.23136252
64	21	0	0	90	36.1581920903955	36.241610738255	9	0.300038615986705	2	7	5	NaN	2	5	0.0441215250327206	0	1	NaN	387	7	9	2	120	220	320	NaN	520	0.192214380949736	1	0	NaN	3115056.2483493	NaN	3115057.2318102	3115057.74827932
64	21	0	0	90	36.1581920903955	36.241610738255	15	0.500064359977841	2	11	4	NaN	2	3	0.0441215250327206	0	1	NaN	388	7	10	2	120	220	320	NaN	520	0.20295938057825	1	0	NaN	3115058.7652613	NaN	3115059.7485394	3115060.26519652
64	21	0	0	90	36.1581920903955	36.241610738255	13	0.433389111980796	2	10	2	NaN	2	5	0.0441215250327206	0	1	NaN	389	7	11	2	120	220	320	NaN	520	0.0544192804954946	2	1	NaN	3115061.2822882	NaN	3115062.2655512	3115062.78210542
64	21	0	0	90	36.1581920903955	36.241610738255	23	0.766765351966023	2	2	6	NaN	1	5	0.0441215250327206	0	1	NaN	390	7	12	2	120	220	320	NaN	520	0.0104081323370337	1	1	NaN	3115063.6490512	NaN	3115064.6324614	3115065.14901307
64	21	0	0	90	36.1581920903955	36.241610738255	19	0.633414855971932	2	1	3	NaN	1	3	0.0441215250327206	0	1	NaN	391	7	13	2	120	220	320	NaN	520	0.234525880776346	1	1	NaN	3115065.9659092	NaN	3115066.9493472	3115067.46590392
64	21	0	0	90	36.1581920903955	36.241610738255	0	0	1	12	2	NaN	2	5	0.0441215250327206	0	1	NaN	392	7	14	2	110	210	310	NaN	510	0.436401632148772	2	1	NaN	3115068.5162065	NaN	3115069.4996013	3115070.01616177
64	21	0	0	90	36.1581920903955	36.241610738255	25	0.833440599963069	2	4	1	NaN	1	3	0.0441215250327206	0	1	NaN	393	7	15	2	120	220	320	NaN	520	0.165922532323748	1	1	NaN	3115071.2664725	NaN	3115072.2498835	3115072.76643157
64	21	0	0	90	36.1581920903955	36.241610738255	10	0.333376239985228	2	5	4	NaN	1	3	0.0441215250327206	0	1	NaN	394	7	16	2	120	220	320	NaN	520	0.178792232647538	1	1	NaN	3115073.750051	NaN	3115074.7334707	3115075.25002027
64	21	0	0	90	36.1581920903955	36.241610738255	19	0.633414855971932	2	12	6	NaN	2	4	0.0441215250327206	0	1	NaN	395	7	17	2	120	220	320	NaN	520	0.150550276972353	2	1	NaN	3115076.2502883	NaN	3115077.2336974	3115077.75024132
64	21	0	0	90	36.1581920903955	36.241610738255	15	0.500064359977841	2	6	3	NaN	1	5	0.0441215250327206	0	1	NaN	396	7	18	2	120	220	320	NaN	520	1.1630809805356	1	1	NaN	3115078.7172061	NaN	3115079.7006084	3115080.21715942
64	21	0	0	90	36.1581920903955	36.241610738255	19	0.633414855971932	2	2	4	NaN	1	3	0.0441215250327206	0	1	NaN	397	7	19	2	120	220	320	NaN	520	0.416214732453227	1	1	NaN	3115082.184217	NaN	3115083.1676275	3115083.68417217
64	21	0	0	90	36.1581920903955	36.241610738255	20	0.666752479970455	2	9	4	NaN	2	5	0.0441215250327206	0	1	NaN	398	7	20	2	120	220	320	NaN	520	0.114731584209949	2	1	NaN	3115084.9178191	NaN	3115085.9011994	3115086.41777112
64	21	0	0	90	36.1581920903955	36.241610738255	9	0.300038615986705	2	11	2	NaN	2	4	0.0441215250327206	0	1	NaN	399	7	21	2	120	220	320	NaN	520	1.31402982911095	2	1	NaN	3115087.3346142	NaN	3115088.3181556	3115088.83466517
64	21	0	0	90	36.1581920903955	36.241610738255	11	0.36671386398375	2	6	2	NaN	1	4	0.0441215250327206	0	1	NaN	400	7	22	2	120	220	320	NaN	520	0.200002531986684	1	1	NaN	3115090.968453	NaN	3115091.9518182	3115092.46836527
64	21	0	0	90	36.1581920903955	36.241610738255	13	0.433389111980796	2	12	4	NaN	2	5	0.0441215250327206	0	1	NaN	401	7	23	2	120	220	320	NaN	520	0.235308132600039	2	1	NaN	3115093.4852141	NaN	3115094.4687235	3115094.98529747
64	21	0	0	90	36.1581920903955	36.241610738255	12	0.400051487982273	2	9	6	NaN	2	4	0.0441215250327206	0	1	NaN	402	7	24	2	120	220	320	NaN	520	0.17286428110674	1	0	NaN	3115096.0356155	NaN	3115097.0189896	3115097.53553202
64	21	0	0	90	36.1581920903955	36.241610738255	13	0.433389111980796	2	4	5	NaN	1	4	0.0441215250327206	0	1	NaN	403	7	25	2	120	220	320	NaN	520	0.258148932363838	1	1	NaN	3115099.9026068	NaN	3115100.8860286	3115101.40258087
64	21	0	0	90	36.1581920903955	36.241610738255	6	0.200025743991137	2	5	1	NaN	1	3	0.0441215250327206	0	1	NaN	404	7	26	2	120	220	320	NaN	520	0.555405941791832	2	0	NaN	3115102.4694211	NaN	3115103.4529433	3115103.96949356
64	21	0	0	90	36.1581920903955	36.241610738255	17	0.566739607974887	2	6	1	NaN	1	3	0.0441215250327206	0	1	NaN	405	7	27	2	120	220	320	NaN	520	0.240092880558223	1	1	NaN	3115105.3364874	NaN	3115106.3198882	3115106.83643772
64	21	0	0	90	36.1581920903955	36.241610738255	9	0.300038615986705	2	3	5	NaN	1	3	0.0441215250327206	0	1	NaN	406	7	28	2	120	220	320	NaN	520	0.305705632548779	1	1	NaN	3115107.8867475	NaN	3115108.8700868	3115109.38669837
64	21	0	0	90	36.1581920903955	36.241610738255	24	0.800102975964546	2	2	4	NaN	1	5	0.0441215250327206	0	1	NaN	407	7	29	2	120	220	320	NaN	520	0.11286848038435	1	1	NaN	3115110.5035549	NaN	3115111.487072	3115112.00361232
64	21	0	0	90	36.1581920903955	36.241610738255	13	0.433389111980796	2	5	6	NaN	1	5	0.0441215250327206	0	1	NaN	408	7	30	2	120	220	320	NaN	520	0.255040277261287	1	1	NaN	3115112.9372464	NaN	3115113.9206422	3115114.43718522
64	21	0	0	90	36.1581920903955	36.241610738255	9	0.300038615986705	2	8	6	NaN	2	5	0.0441215250327206	0	1	NaN	409	7	31	2	120	220	320	NaN	520	0.280272680800408	1	0	NaN	3115115.5041471	NaN	3115116.4875524	3115117.00409942
64	21	0	0	90	36.1581920903955	36.241610738255	16	0.533401983976364	2	12	2	NaN	2	4	0.0441215250327206	0	1	NaN	410	7	32	2	120	220	320	NaN	520	0.27281138068065	1	0	NaN	3115118.0877719	NaN	3115119.0711527	3115119.58768862
64	21	0	0	90	36.1581920903955	36.241610738255	22	0.733427727967501	2	10	4	NaN	2	3	0.0441215250327206	0	1	NaN	411	7	33	2	120	220	320	NaN	520	0.641080728732049	1	0	NaN	3115120.6713047	NaN	3115121.6547694	3115122.17128397
64	21	0	0	90	36.1581920903955	36.241610738255	11	0.36671386398375	2	2	4	NaN	1	5	0.0441215250327206	0	1	NaN	412	7	34	2	120	220	320	NaN	520	0.346889332402498	1	1	NaN	3115123.6216376	NaN	3115124.6050276	3115125.12157677
64	21	0	0	90	36.1581920903955	36.241610738255	25	0.833440599963069	2	6	1	NaN	1	3	0.0441215250327206	0	1	NaN	413	7	35	2	120	220	320	NaN	520	0.223921732511371	1	1	NaN	3115126.2885578	NaN	3115127.2719396	3115127.78850217
64	21	0	0	90	36.1581920903955	36.241610738255	22	0.733427727967501	2	1	2	NaN	1	3	0.0441215250327206	0	1	NaN	414	7	36	2	120	220	320	NaN	520	0.218329031951725	1	1	NaN	3115128.8222514	NaN	3115129.8055287	3115130.32208047
64	21	0	0	90	36.1581920903955	36.241610738255	16	0.533401983976364	2	4	2	NaN	1	3	0.0441215250327206	0	1	NaN	415	7	37	2	120	220	320	NaN	520	0.516727780923247	1	1	NaN	3115131.3556995	NaN	3115132.3391386	3115132.85566372
64	21	0	0	90	36.1581920903955	36.241610738255	12	0.400051487982273	2	2	6	NaN	1	3	0.0441215250327206	0	1	NaN	416	7	38	2	120	220	320	NaN	520	0.347139335237443	1	1	NaN	3115134.1893719	NaN	3115135.1727199	3115135.68928146
64	21	0	0	90	36.1581920903955	36.241610738255	0	0	1	1	6	NaN	1	3	0.0441215250327206	0	1	NaN	417	7	39	2	110	210	310	NaN	510	0.225019128993154	1	1	NaN	3115136.8395763	NaN	3115137.8230198	3115138.33953207
64	21	0	0	90	36.1581920903955	36.241610738255	20	0.666752479970455	2	5	5	NaN	1	5	0.0441215250327206	0	1	NaN	418	7	40	2	120	220	320	NaN	520	0.371470532380044	1	1	NaN	3115139.3730481	NaN	3115140.3565758	3115140.87312127
64	21	0	0	90	36.1581920903955	36.241610738255	21	0.700090103968978	2	8	2	NaN	2	3	0.0441215250327206	0	1	NaN	419	7	41	2	120	220	320	NaN	520	0.743621828965843	1	0	NaN	3115142.0567819	NaN	3115143.0401585	3115143.55670937
64	21	0	0	90	36.1581920903955	36.241610738255	22	0.733427727967501	2	9	2	NaN	2	5	0.0441215250327206	0	1	NaN	420	7	42	2	120	220	320	NaN	520	0.549376980867237	2	1	NaN	3115145.1070696	NaN	3115146.0904472	3115146.60701102
64	21	0	0	90	36.1581920903955	36.241610738255	11	0.36671386398375	2	7	3	NaN	2	4	0.0441215250327206	0	1	NaN	421	7	43	2	120	220	320	NaN	520	0.386748432647437	2	1	NaN	3115147.9738897	NaN	3115148.9574561	3115149.47396437
64	21	0	0	90	36.1581920903955	36.241610738255	8	0.266700991988182	2	9	2	NaN	2	5	0.0441215250327206	0	1	NaN	422	7	44	2	120	220	320	NaN	520	0.310043032281101	2	1	NaN	3115150.6742784	NaN	3115151.6576789	3115152.17422927
64	21	0	0	90	36.1581920903955	36.241610738255	19	0.633414855971932	2	10	5	NaN	2	5	0.0441215250327206	0	1	NaN	423	7	45	2	120	220	320	NaN	520	0.427834928967059	2	1	NaN	3115153.7245463	NaN	3115154.7079771	3115155.22452347
64	21	0	0	90	36.1581920903955	36.241610738255	15	0.500064359977841	2	6	5	NaN	1	4	0.0441215250327206	0	1	NaN	424	7	46	2	120	220	320	NaN	520	0.325933528598398	2	0	NaN	3115156.47485	NaN	3115157.4582677	3115157.97479887
64	21	0	0	90	36.1581920903955	36.241610738255	7	0.233363367989659	2	8	4	NaN	2	3	0.0441215250327206	0	1	NaN	425	7	47	2	120	220	320	NaN	520	0.315358180552721	1	0	NaN	3115159.1251005	NaN	3115160.1085097	3115160.62505982
64	21	0	0	90	36.1581920903955	36.241610738255	11	0.36671386398375	2	6	5	NaN	1	3	0.0441215250327206	0	1	NaN	426	7	48	2	120	220	320	NaN	520	0.0666490322910249	1	1	NaN	3115161.7420272	NaN	3115162.7254236	3115163.24198747
64	21	0	0	90	36.1581920903955	36.241610738255	24	0.800102975964546	2	2	4	NaN	1	3	0.0441215250327206	0	1	NaN	427	7	49	2	120	220	320	NaN	520	0.354879180435091	1	1	NaN	3115164.1255938	NaN	3115165.1090064	3115165.62555152
64	21	0	0	90	36.1581920903955	36.241610738255	21	0.700090103968978	2	4	1	NaN	1	5	0.0441215250327206	0	1	NaN	428	7	50	2	120	220	320	NaN	520	0.158030193764716	1	1	NaN	3115168.0425284	NaN	3115169.0260681	3115169.54260421
64	21	0	0	90	36.1581920903955	36.241610738255	11	0.36671386398375	2	2	5	NaN	1	5	0.0441215250327206	0	1	NaN	429	7	51	2	120	220	320	NaN	520	0.267166180536151	1	1	NaN	3115170.5095529	NaN	3115171.4929734	3115172.00951412
64	21	0	0	90	36.1581920903955	36.241610738255	15	0.500064359977841	2	5	4	NaN	1	3	0.0441215250327206	0	1	NaN	430	7	52	2	120	220	320	NaN	520	0.883099680300802	1	1	NaN	3115173.1096679	NaN	3115174.0932097	3115174.60977002
64	21	0	0	90	36.1581920903955	36.241610738255	12	0.400051487982273	2	6	1	NaN	1	4	0.0441215250327206	0	1	NaN	431	7	53	2	120	220	320	NaN	520	0.322694032453001	1	1	NaN	3115176.310246	NaN	3115177.2935269	3115177.81008907
64	21	0	0	90	36.1581920903955	36.241610738255	8	0.266700991988182	2	4	4	NaN	1	3	0.0441215250327206	0	1	NaN	432	7	54	2	120	220	320	NaN	520	0.312750580720603	1	1	NaN	3115178.9437504	NaN	3115179.9271279	3115180.44366992
64	21	0	0	90	36.1581920903955	36.241610738255	0	0	1	7	5	NaN	2	3	0.0441215250327206	0	1	NaN	433	7	55	2	110	210	310	NaN	510	0.383349332492799	2	1	NaN	3115181.5773102	NaN	3115182.5607249	3115183.07727427
64	21	0	0	90	36.1581920903955	36.241610738255	8	0.266700991988182	2	2	5	NaN	1	3	0.0441215250327206	0	1	NaN	434	7	56	2	120	220	320	NaN	520	0.371052232105285	1	1	NaN	3115184.277586	NaN	3115185.2609924	3115185.77753537
64	21	0	0	90	36.1581920903955	36.241610738255	8	0.266700991988182	2	7	2	NaN	2	4	0.0441215250327206	0	1	NaN	435	7	57	2	120	220	320	NaN	520	0.510972529184073	2	1	NaN	3115186.9778799	NaN	3115187.9612803	3115188.47779017
64	21	0	0	90	36.1581920903955	36.241610738255	18	0.60007723197341	2	10	1	NaN	2	3	0.0441215250327206	0	1	NaN	436	7	58	2	120	220	320	NaN	520	0.357720280997455	1	0	NaN	3115189.7947857	NaN	3115190.7781854	3115191.29474342
64	21	0	0	90	36.1581920903955	36.241610738255	11	0.36671386398375	2	12	6	NaN	2	4	0.0441215250327206	0	1	NaN	437	7	59	2	120	220	320	NaN	520	0.202142280992121	2	1	NaN	3115192.4783845	NaN	3115193.4617885	3115193.97833902
64	21	0	0	90	36.1581920903955	36.241610738255	0	0	1	4	6	NaN	1	4	0.0441215250327206	0	1	NaN	438	7	60	2	110	210	310	NaN	510	0.741524480748922	1	1	NaN	3115194.9953061	NaN	3115195.9787098	3115196.49524832
64	21	0	0	90	36.1581920903955	36.241610738255	9	0.300038615986705	2	8	1	NaN	2	5	0.0441215250327206	0	1	NaN	439	7	61	2	120	220	320	NaN	520	0.0104380291886628	2	1	NaN	3115198.0456128	NaN	3115199.0289852	3115199.54554577
64	21	0	0	90	36.1581920903955	36.241610738255	9	0.300038615986705	2	6	4	NaN	1	4	0.0441215250327206	0	1	NaN	440	7	62	2	120	220	320	NaN	520	0.694266680628061	2	0	NaN	3115200.3625044	NaN	3115201.3459086	3115201.86244792
64	21	0	0	90	36.1581920903955	36.241610738255	17	0.566739607974887	2	1	6	NaN	1	3	0.0441215250327206	0	1	NaN	441	7	63	2	120	220	320	NaN	520	0.010409680660814	2	0	NaN	3115203.3627788	NaN	3115204.3461955	3115204.86274032
64	21	0	0	90	36.1581920903955	36.241610738255	16	0.533401983976364	2	9	4	NaN	2	5	0.0441215250327206	0	1	NaN	442	8	1	2	120	220	320	NaN	520	0.472745880484581	2	1	NaN	3115207.4795481	NaN	3115208.46327	3115208.97980962
64	21	0	0	90	36.1581920903955	36.241610738255	22	0.733427727967501	2	10	2	NaN	2	4	0.0441215250327206	0	1	NaN	443	8	2	2	120	220	320	NaN	520	0.489164780359715	2	1	NaN	3115210.2635009	NaN	3115211.2468733	3115211.76341302
64	21	0	0	90	36.1581920903955	36.241610738255	8	0.266700991988182	2	6	2	NaN	1	5	0.0441215250327206	0	1	NaN	444	8	3	2	120	220	320	NaN	520	0.377116680610925	2	0	NaN	3115213.0637459	NaN	3115214.0472197	3115214.56368812
64	21	0	0	90	36.1581920903955	36.241610738255	16	0.533401983976364	2	6	6	NaN	1	5	0.0441215250327206	0	1	NaN	445	8	4	2	120	220	320	NaN	520	0.0104129808023572	1	1	NaN	3115215.7472053	NaN	3115216.7308473	3115217.24729502
64	21	0	0	90	36.1581920903955	36.241610738255	9	0.300038615986705	2	5	1	NaN	1	5	0.0441215250327206	0	1	NaN	446	8	5	2	120	220	320	NaN	520	0.215608180500567	1	1	NaN	3115218.0809156	NaN	3115219.064299	3115219.58085542
64	21	0	0	90	36.1581920903955	36.241610738255	24	0.800102975964546	2	11	1	NaN	2	3	0.0441215250327206	0	1	NaN	447	8	6	2	120	220	320	NaN	520	0.0103902323171496	2	1	NaN	3115220.614362	NaN	3115221.5978927	3115222.11444447
64	21	0	0	90	36.1581920903955	36.241610738255	24	0.800102975964546	2	12	4	NaN	2	3	0.0441215250327206	0	1	NaN	448	8	7	2	120	220	320	NaN	520	1.23677868070081	2	1	NaN	3115222.9480567	NaN	3115223.9314471	3115224.44799852
64	21	0	0	90	36.1581920903955	36.241610738255	0	0	1	10	6	NaN	2	4	0.0441215250327206	0	1	NaN	449	8	8	2	110	210	310	NaN	510	0.0103651867248118	2	1	NaN	3115226.4983918	NaN	3115227.4818048	3115227.99835051
64	21	0	0	90	36.1581920903955	36.241610738255	12	0.400051487982273	2	5	5	NaN	1	4	0.0441215250327206	0	1	NaN	450	8	9	2	120	220	320	NaN	520	0.0103955324739218	1	1	NaN	3115228.8151838	NaN	3115229.798697	3115230.31525017
64	21	0	0	90	36.1581920903955	36.241610738255	12	0.400051487982273	2	8	2	NaN	2	3	0.0441215250327206	0	1	NaN	451	8	10	2	120	220	320	NaN	520	1.45244568400085	1	0	NaN	3115231.1321919	NaN	3115232.1155955	3115232.63214412
64	21	0	0	90	36.1581920903955	36.241610738255	20	0.666752479970455	2	11	5	NaN	2	3	0.0441215250327206	0	1	NaN	452	8	11	2	120	220	320	NaN	520	0.269336932338774	1	0	NaN	3115234.8992153	NaN	3115235.882623	3115236.39917937
64	21	0	0	90	36.1581920903955	36.241610738255	10	0.333376239985228	2	4	4	NaN	1	3	0.0441215250327206	0	1	NaN	453	8	12	2	120	220	320	NaN	520	0.334140981081873	1	1	NaN	3115237.4828211	NaN	3115238.4662149	3115238.98275682
64	21	0	0	90	36.1581920903955	36.241610738255	14	0.466726735979319	2	8	1	NaN	2	3	0.0441215250327206	0	1	NaN	454	8	13	2	120	220	320	NaN	520	0.131622132379562	1	0	NaN	3115240.1330607	NaN	3115241.1164676	3115241.63302317
64	21	0	0	90	36.1581920903955	36.241610738255	19	0.633414855971932	2	11	3	NaN	2	5	0.0441215250327206	0	1	NaN	455	8	14	2	120	220	320	NaN	520	0.353216980583966	1	0	NaN	3115242.5833177	NaN	3115243.5667139	3115244.08325652
64	21	0	0	90	36.1581920903955	36.241610738255	14	0.466726735979319	2	3	1	NaN	1	5	0.0441215250327206	0	1	NaN	456	8	15	2	120	220	320	NaN	520	0.0942904804833233	2	0	NaN	3115245.2502772	NaN	3115246.2336674	3115246.75019192
64	21	0	0	90	36.1581920903955	36.241610738255	12	0.400051487982273	2	9	4	NaN	2	5	0.0441215250327206	0	1	NaN	457	8	16	2	120	220	320	NaN	520	1.06267248094082	1	0	NaN	3115247.6504768	NaN	3115248.6338798	3115249.15042022
64	21	0	0	90	36.1581920903955	36.241610738255	24	0.800102975964546	2	1	3	NaN	1	3	0.0441215250327206	0	1	NaN	458	8	17	2	120	220	320	NaN	520	0.278508480638266	1	1	NaN	3115251.0341452	NaN	3115252.0175392	3115252.53409272
