subjno	age	gender	isPractice	viewdist	CmToPixX	CmToPixY	SOA_frm	SOA_time	targNum	targID	targExample	targRace	targGender	firstTargPos	contrast	familiarity	curr_staircase	iStair	TrialNum	BlockNum	blktrl	sessionNum	TC_FIXATION	TC_RSVP_START	TC_RSVP_END	TC_BLANK	TC_RESPONSE_ONSET	RT2afc	resp_2afc	acc	RSVPOnsetVBL	RSVPOnsetTime	RSVPOffsetVBL	RSVPOffsetTime	startrt_2afc
87	99	99	1	90	36.1581920903955	36.241610738255	0	0	1	12	1	NaN	2	4	0.0630957344480193	0	1	1	1	1	1	1	110	210	310	NaN	510	0.50881012249738	2	1	NaN	4822484.2469035	NaN	4822485.2300838	4822485.76318788
87	99	99	1	90	36.1581920903955	36.241610738255	0	0	1	9	1	NaN	2	4	0.0398107170553497	0	1	2	2	1	2	1	110	210	310	NaN	510	0.0533537743613124	1	0	NaN	4822487.213758	NaN	4822488.196942	4822488.73015313
87	99	99	1	90	36.1581920903955	36.241610738255	0	0	1	11	1	NaN	2	3	0.630957344480193	0	1	3	3	1	3	1	110	210	310	NaN	510	0.44168094266206	2	1	NaN	4822489.7137845	NaN	4822490.6971717	4822491.21373166
87	99	99	1	90	36.1581920903955	36.241610738255	0	0	1	12	1	NaN	2	4	0.398107170553497	0	1	4	4	1	4	1	110	210	310	NaN	510	0.0106491493061185	2	1	NaN	4822492.5807339	NaN	4822493.5641741	4822494.08066685
87	99	99	1	90	36.1581920903955	36.241610738255	0	0	1	6	1	NaN	1	5	0.158489319246111	0	1	5	5	1	5	1	110	210	310	NaN	510	0.0132657699286938	1	1	NaN	4822495.0143052	NaN	4822495.9977039	4822496.51424783
87	99	99	1	90	36.1581920903955	36.241610738255	0	0	1	4	1	NaN	1	4	0.1	0	1	6	6	1	6	1	110	210	310	NaN	510	0.0104242172092199	1	1	NaN	4822497.4477503	NaN	4822498.4312813	4822498.94781748
87	99	99	1	90	36.1581920903955	36.241610738255	0	0	1	6	1	NaN	1	5	0.0251188643150958	0	1	7	7	1	7	1	110	210	310	NaN	510	0.0746776694431901	1	1	NaN	4822499.8647856	NaN	4822500.8481846	4822501.36472403
87	99	99	1	90	36.1581920903955	36.241610738255	0	0	1	1	1	NaN	1	3	0.0158489319246111	0	1	8	8	1	8	1	110	210	310	NaN	510	0.094649969600141	2	0	NaN	4822502.3650418	NaN	4822503.3484294	4822503.86497683
87	99	99	1	90	36.1581920903955	36.241610738255	0	0	1	5	1	NaN	1	4	0.630957344480193	0	1	9	9	1	9	1	110	210	310	NaN	510	0.0102558946236968	1	1	NaN	4822504.8652768	NaN	4822505.8486767	4822506.36523711
87	99	99	1	90	36.1581920903955	36.241610738255	0	0	1	5	1	NaN	1	4	0.0251188643150958	0	1	10	10	1	10	1	110	210	310	NaN	510	0.0174733232706785	1	1	NaN	4822507.2821772	NaN	4822508.2655748	4822508.78211898
87	99	99	1	90	36.1581920903955	36.241610738255	0	0	1	10	1	NaN	2	4	0.0630957344480193	0	1	11	11	1	11	1	110	210	310	NaN	510	0.0962908696383238	2	1	NaN	4822509.6989403	NaN	4822510.6824971	4822511.19903613
87	99	99	1	90	36.1581920903955	36.241610738255	0	0	1	1	1	NaN	1	4	0.1	0	1	12	12	1	12	1	110	210	310	NaN	510	0.0104339178651571	1	1	NaN	4822512.2158875	NaN	4822513.1994642	4822513.71594838
87	99	99	1	90	36.1581920903955	36.241610738255	0	0	1	7	1	NaN	2	4	0.158489319246111	0	1	13	13	1	13	1	110	210	310	NaN	510	0.0104531180113554	2	1	NaN	4822514.6329037	NaN	4822515.6162306	4822516.13284778
87	99	99	1	90	36.1581920903955	36.241610738255	0	0	1	5	1	NaN	1	4	0.398107170553497	0	1	14	14	1	14	1	110	210	310	NaN	510	0.0104113696143031	1	1	NaN	4822517.0498034	NaN	4822518.0332149	4822518.54975663
87	99	99	1	90	36.1581920903955	36.241610738255	0	0	1	9	1	NaN	2	5	0.251188643150958	0	1	15	15	1	15	1	110	210	310	NaN	510	0.0104127693921328	2	1	NaN	4822519.466753	NaN	4822520.4501141	4822520.96665533
87	99	99	1	90	36.1581920903955	36.241610738255	0	0	1	8	1	NaN	2	5	0.0158489319246111	0	1	16	16	1	16	1	110	210	310	NaN	510	0.103964369744062	1	0	NaN	4822521.8836428	NaN	4822522.8670329	4822523.38356343
87	99	99	1	90	36.1581920903955	36.241610738255	0	0	1	3	1	NaN	1	5	0.0398107170553497	0	1	17	17	1	17	1	110	210	310	NaN	510	0.0104151703417301	1	1	NaN	4822524.4504048	NaN	4822525.4339386	4822525.95047893
87	99	99	1	90	36.1581920903955	36.241610738255	0	0	1	7	1	NaN	2	5	0.1	0	1	18	18	1	18	1	110	210	310	NaN	510	0.0104126688092947	2	1	NaN	4822526.8841129	NaN	4822527.867515	4822528.38406133
87	99	99	1	90	36.1581920903955	36.241610738255	0	0	1	1	1	NaN	1	4	0.0294979902079981	0	1	19	19	1	19	1	110	210	310	NaN	510	0.0104234172031283	1	1	NaN	4822529.3176888	NaN	4822530.3010877	4822530.81762458
87	99	99	1	90	36.1581920903955	36.241610738255	0	0	1	2	1	NaN	1	3	0.0273434327050007	0	1	20	20	1	20	1	110	210	310	NaN	510	0.0104246698319912	2	0	NaN	4822531.7345919	NaN	4822532.7179846	4822533.23453443
87	99	99	1	90	36.1581920903955	36.241610738255	0	0	1	1	1	NaN	1	3	0.0309583369548749	0	1	21	21	1	21	1	110	210	310	NaN	510	0.0104133691638708	1	1	NaN	4822534.1514895	NaN	4822535.1349001	4822535.65144273
87	99	99	1	90	36.1581920903955	36.241610738255	0	0	1	4	1	NaN	1	4	0.0288036509589681	0	1	22	22	1	22	1	110	210	310	NaN	510	0.0110798692330718	2	0	NaN	4822536.5682668	NaN	4822537.5517753	4822538.06833973
87	99	99	1	90	36.1581920903955	36.241610738255	0	0	1	8	1	NaN	2	3	0.0323816684640488	0	1	23	23	1	23	1	110	210	310	NaN	510	0.0104281175881624	1	0	NaN	4822539.0019269	NaN	4822539.9853716	4822540.50191178
87	99	99	1	90	36.1581920903955	36.241610738255	0	0	1	7	1	NaN	2	4	0.0364602064380409	0	1	24	24	1	24	1	110	210	310	NaN	510	0.0104221180081367	2	1	NaN	4822541.4688114	NaN	4822542.4522763	4822542.96882028
87	99	99	1	90	36.1581920903955	36.241610738255	0	0	1	6	1	NaN	1	5	0.0339955483789194	0	1	25	25	1	25	1	110	210	310	NaN	510	0.0104406652972102	1	1	NaN	4822543.8856438	NaN	4822544.8691809	4822545.38572023
87	99	99	1	90	36.1581920903955	36.241610738255	0	0	1	3	1	NaN	1	3	0.0318361056292347	0	1	26	26	1	26	1	110	210	310	NaN	510	0.0104240169748664	2	0	NaN	4822546.3193529	NaN	4822547.3027579	4822547.81929978
87	99	99	1	90	36.1581920903955	36.241610738255	0	0	1	7	1	NaN	2	5	0.0353416560963515	0	1	27	27	1	27	1	110	210	310	NaN	510	0.0105325495824218	1	0	NaN	4822548.7362795	NaN	4822549.7197191	4822550.23619935
87	99	99	1	90	36.1581920903955	36.241610738255	0	0	1	8	1	NaN	2	4	0.0393933482351121	0	1	28	28	1	28	1	110	210	310	NaN	510	0.0103505793958902	1	0	NaN	4822551.1531757	NaN	4822552.1365711	4822552.65311522
87	99	99	1	90	36.1581920903955	36.241610738255	0	0	1	6	1	NaN	1	4	0.0441230453841134	0	1	29	29	1	29	1	110	210	310	NaN	510	0.209643469192088	2	0	NaN	4822553.5700652	NaN	4822554.5534685	4822555.07001353
87	99	99	1	90	36.1581920903955	36.241610738255	0	0	1	2	1	NaN	1	5	0.0497031563920728	0	1	30	30	1	30	1	110	210	310	NaN	510	0.010424917563796	2	0	NaN	4822556.1870062	NaN	4822557.1704553	4822557.68693818
87	99	99	1	90	36.1581920903955	36.241610738255	0	0	1	10	1	NaN	2	5	0.0563580391081076	0	1	31	31	1	31	1	110	210	310	NaN	510	0.0104301702231169	2	1	NaN	4822558.6205606	NaN	4822559.6039657	4822560.12051443
87	99	99	1	90	36.1581920903955	36.241610738255	0	0	1	10	1	NaN	2	4	0.0522305337820979	0	1	32	32	1	32	1	110	210	310	NaN	510	0.0104225687682629	2	1	NaN	4822561.0374844	NaN	4822562.0208648	4822562.53742343
87	99	99	1	90	36.1581920903955	36.241610738255	0	0	1	2	1	NaN	1	3	0.0486992130470193	0	1	33	33	1	33	1	110	210	310	NaN	510	0.0104092694818974	1	1	NaN	4822563.4710579	NaN	4822564.4544536	4822564.97099583
87	99	99	1	90	36.1581920903955	36.241610738255	0	0	1	11	1	NaN	2	3	0.045659989365139	0	1	34	34	1	34	1	110	210	310	NaN	510	0.0103917280212045	2	1	NaN	4822565.8879528	NaN	4822566.8713639	4822567.38789017
87	99	99	1	90	36.1581920903955	36.241610738255	0	0	1	3	1	NaN	1	4	0.0430279386101839	0	1	35	35	1	35	1	110	210	310	NaN	510	0.0104345167055726	1	1	NaN	4822568.3048616	NaN	4822569.2882559	4822569.80479658
87	99	99	1	90	36.1581920903955	36.241610738255	0	0	1	11	1	NaN	2	4	0.0407340268249492	0	1	36	36	1	36	1	110	210	310	NaN	510	0.169909622520208	2	1	NaN	4822570.7217629	NaN	4822571.7051612	4822572.22170348
87	99	99	1	90	36.1581920903955	36.241610738255	0	0	1	9	1	NaN	2	5	0.0387221914372829	0	1	37	37	1	37	1	110	210	310	NaN	510	0.0104148695245385	1	0	NaN	4822573.3053421	NaN	4822574.2887483	4822574.80529173
87	99	99	1	90	36.1581920903955	36.241610738255	0	0	1	4	1	NaN	1	5	0.0418452388637205	0	1	38	38	1	38	1	110	210	310	NaN	510	0.0104236174374819	1	1	NaN	4822575.7222434	NaN	4822576.7056213	4822577.22219448
87	99	99	1	90	36.1581920903955	36.241610738255	0	0	1	11	1	NaN	2	4	0.0397905261807084	0	1	39	39	1	39	1	110	210	310	NaN	510	0.200490716844797	1	0	NaN	4822578.1392079	NaN	4822579.1225799	4822579.63910708
87	99	99	1	90	36.1581920903955	36.241610738255	0	0	1	9	1	NaN	2	5	0.042972463679838	0	1	40	40	1	40	1	110	210	310	NaN	510	1.2323738168925	2	1	NaN	4822580.7394111	NaN	4822581.7228187	4822582.23935608
87	99	99	1	90	36.1581920903955	36.241610738255	0	0	1	12	1	NaN	2	4	0.0408713981415323	0	1	41	41	1	41	1	110	210	310	NaN	510	0.0104122692719102	2	1	NaN	4822584.3731001	NaN	4822585.3565066	4822585.87304773
87	99	99	1	90	36.1581920903955	36.241610738255	0	0	1	4	1	NaN	1	3	0.0390223380633184	0	1	42	42	1	42	1	110	210	310	NaN	510	0.0104778176173568	1	1	NaN	4822586.7900049	NaN	4822587.7734318	4822588.28994538
87	99	99	1	90	36.1581920903955	36.241610738255	0	0	1	10	1	NaN	2	3	0.0373850064009648	0	1	43	43	1	43	1	110	210	310	NaN	510	0.010414769873023	1	0	NaN	4822589.2070178	NaN	4822590.1903188	4822590.70685463
87	99	99	1	90	36.1581920903955	36.241610738255	0	0	1	11	1	NaN	2	4	0.0398889778477754	0	1	44	44	1	44	1	110	210	310	NaN	510	0.723735417239368	2	1	NaN	4822591.6236448	NaN	4822592.6072198	4822593.12376038
87	99	99	1	90	36.1581920903955	36.241610738255	0	0	1	5	1	NaN	1	5	0.0382160022799116	0	1	45	45	1	45	1	110	210	310	NaN	510	0.0104105696082115	1	1	NaN	4822594.7574515	NaN	4822595.7408677	4822596.25740913
87	99	99	1	90	36.1581920903955	36.241610738255	0	0	1	5	1	NaN	1	3	0.0367276967434531	0	1	46	46	1	46	1	110	210	310	NaN	510	0.0104515692219138	2	0	NaN	4822597.1743573	NaN	4822598.1577716	4822598.67431473
87	99	99	1	90	36.1581920903955	36.241610738255	0	0	1	4	1	NaN	1	5	0.0389916161523742	0	1	47	47	1	47	1	110	210	310	NaN	510	0.0104108694940805	1	1	NaN	4822599.5912621	NaN	4822600.5746672	4822601.09121313
87	99	99	1	90	36.1581920903955	36.241610738255	0	0	1	10	1	NaN	2	4	0.0374712241430002	0	1	48	48	1	48	1	110	210	310	NaN	510	0.803597980178893	1	0	NaN	4822602.0081689	NaN	4822602.9915757	4822603.50811982
87	99	99	1	90	36.1581920903955	36.241610738255	0	0	1	2	1	NaN	1	3	0.0397814399071791	0	1	49	49	1	49	1	110	210	310	NaN	510	0.0426809694617987	1	1	NaN	4822605.2251534	NaN	4822606.2085694	4822606.72510763
87	99	99	1	90	36.1581920903955	36.241610738255	0	0	1	3	1	NaN	1	5	0.0382271960398949	0	1	50	50	1	50	1	110	210	310	NaN	510	0.504213517531753	1	1	NaN	4822607.6754231	NaN	4822608.6588352	4822609.17533658
87	99	99	1	90	36.1581920903955	36.241610738255	0	0	1	5	1	NaN	1	3	0.0368399283077952	0	1	51	51	1	51	1	110	210	310	NaN	510	0.0104441698640585	1	1	NaN	4822610.5923131	NaN	4822611.575753	4822612.09230053
87	99	99	1	90	36.1581920903955	36.241610738255	0	0	1	12	1	NaN	2	4	0.0355947585348027	0	1	52	52	1	52	1	110	210	310	NaN	510	0.0103942276909947	2	1	NaN	4822613.0092614	NaN	4822613.9926603	4822614.50920877
87	99	99	1	90	36.1581920903955	36.241610738255	0	0	1	12	1	NaN	2	3	0.0344712024782277	0	1	53	53	1	53	1	110	210	310	NaN	510	0.0104093700647354	1	0	NaN	4822615.4260404	NaN	4822616.4095827	4822616.92610873
87	99	99	1	90	36.1581920903955	36.241610738255	0	0	1	7	1	NaN	2	5	0.0361625499803265	0	1	54	54	1	54	1	110	210	310	NaN	510	0.176828317344189	1	0	NaN	4822617.8430938	NaN	4822618.8264653	4822619.34300278
87	99	99	1	90	36.1581920903955	36.241610738255	0	0	1	8	1	NaN	2	4	0.0380791208213678	0	1	55	55	1	55	1	110	210	310	NaN	510	0.0650466177612543	2	1	NaN	4822620.4266457	NaN	4822621.4100847	4822621.92659958
87	99	99	1	90	36.1581920903955	36.241610738255	0	0	1	9	1	NaN	2	3	0.0367808804748538	0	1	56	56	1	56	1	110	210	310	NaN	510	0.0104376692324877	2	1	NaN	4822623.1934648	NaN	4822624.1769964	4822624.69353423
87	99	99	1	90	36.1581920903955	36.241610738255	0	0	1	8	1	NaN	2	3	0.0356120788023136	0	1	57	57	1	57	1	110	210	310	NaN	510	0.0892760697752237	1	0	NaN	4822625.6105531	NaN	4822626.5939	4822627.11044423
87	99	99	1	90	36.1581920903955	36.241610738255	0	0	1	11	1	NaN	2	5	0.0373689791532468	0	1	58	58	1	58	1	110	210	310	NaN	510	0.0450000176206231	2	1	NaN	4822628.1107475	NaN	4822629.0941458	4822629.61068478
87	99	99	1	90	36.1581920903955	36.241610738255	0	0	1	9	1	NaN	2	3	0.0361759488790758	0	1	59	59	1	59	1	110	210	310	NaN	510	0.0104413172230124	2	1	NaN	4822630.5609758	NaN	4822631.5443445	4822632.06092728
87	99	99	1	90	36.1581920903955	36.241610738255	0	0	1	10	1	NaN	2	5	0.0350974855400671	0	1	60	60	1	60	1	110	210	310	NaN	510	0.0817859694361687	2	1	NaN	4822632.9778774	NaN	4822633.9612472	4822634.47784023
87	99	99	1	90	36.1581920903955	36.241610738255	0	0	1	7	1	NaN	2	4	0.0341177848564859	0	1	61	61	1	61	1	110	210	310	NaN	510	0.0540858693420887	1	0	NaN	4822635.4614843	NaN	4822636.4448714	4822636.96140933
87	99	99	1	90	36.1581920903955	36.241610738255	0	0	1	3	1	NaN	1	3	0.0355845542986843	0	1	62	62	1	62	1	110	210	310	NaN	510	0.0104205701500177	2	0	NaN	4822637.9283816	NaN	4822638.9117795	4822639.42832663
87	99	99	1	90	36.1581920903955	36.241610738255	0	0	1	3	1	NaN	1	3	0.0372334504161019	0	1	63	63	1	63	1	110	210	310	NaN	510	0.762441317550838	1	1	NaN	4822640.34528	NaN	4822641.3286716	4822641.84522598
87	99	99	1	90	36.1581920903955	36.241610738255	0	0	1	8	1	NaN	2	3	0.0361105942878008	0	1	64	64	1	64	1	110	210	310	NaN	510	0.0104077691212296	1	0	NaN	4822643.512262	NaN	4822644.4956599	4822645.01219863
87	99	99	1	90	36.1581920903955	36.241610738255	0	0	1	6	1	NaN	1	4	0.0377925662185564	0	1	65	65	1	65	1	110	210	310	NaN	510	0.210661069490016	1	1	NaN	4822645.9291593	NaN	4822646.9125491	4822647.42910573
87	99	99	1	90	36.1581920903955	36.241610738255	0	0	1	6	1	NaN	1	5	0.0366461338487211	0	1	66	66	1	66	1	110	210	310	NaN	510	0.0105114169418812	1	1	NaN	4822648.5461064	NaN	4822649.529498	4822650.04603138
87	99	99	1	90	36.1581920903955	36.241610738255	0	0	1	2	1	NaN	1	5	0.0356079095992079	0	1	67	67	1	67	1	110	210	310	NaN	510	0.0648593176156282	1	1	NaN	4822650.9629975	NaN	4822651.9463972	4822652.46293488
87	99	99	1	90	36.1581920903955	36.241610738255	0	0	1	1	1	NaN	1	5	0.0346631326959657	0	1	68	68	1	68	1	110	210	310	NaN	510	0.526235617697239	2	0	NaN	4822653.4297685	NaN	4822654.4133252	4822654.92983968
87	99	99	1	90	36.1581920903955	36.241610738255	0	0	1	12	1	NaN	2	3	0.0360736172854521	0	1	69	69	1	69	1	110	210	310	NaN	510	0.192299765534699	2	1	NaN	4822656.3635281	NaN	4822657.346922	4822657.86346063
87	99	99	1	90	36.1581920903955	36.241610738255	0	0	1	2	1	NaN	1	4	0.0351106091159872	0	1	70	70	1	70	1	110	210	310	NaN	510	0.0168928951025009	2	0	NaN	4822658.9469916	NaN	4822659.9305094	4822660.4470661
87	99	99	1	90	36.1581920903955	36.241610738255	0	0	1	4	1	NaN	1	4	0.0365477020093058	0	1	71	71	1	71	1	110	210	310	NaN	510	0.010418969206512	2	0	NaN	4822661.4807108	NaN	4822662.4641155	4822662.98064823
87	99	99	1	90	36.1581920903955	36.241610738255	0	0	1	1	1	NaN	1	4	0.0381627785715081	0	1	72	72	1	72	1	110	210	310	NaN	510	0.010433416813612	2	0	NaN	4822663.8975997	NaN	4822664.8809941	4822665.39754418
