subjno	age	gender	isPractice	viewdist	CmToPixX	CmToPixY	SOA_frm	SOA_time	targNum	targID	targExample	targRace	targGender	firstTargPos	contrast	familiarity	curr_staircase	iStair	TrialNum	BlockNum	blktrl	sessionNum	TC_FIXATION	TC_RSVP_START	TC_RSVP_END	TC_BLANK	TC_RESPONSE_ONSET	RT2afc	resp_2afc	acc	RSVPOnsetVBL	RSVPOnsetTime	RSVPOffsetVBL	RSVPOffsetTime	startrt_2afc
25	19	0	0	90	36.1581920903955	36.241610738255	18	0.600048720091581	2	2	4	NaN	1	3	0.244781946575837	1	1	NaN	1	1	1	2	121	221	321	NaN	521	1.13939857669175	1	1	NaN	1562927.1353028	NaN	1562928.1185891	1562928.65170402
25	19	0	0	90	36.1581920903955	36.241610738255	18	0.600048720091581	2	4	1	NaN	1	4	0.244781946575837	1	1	NaN	2	1	2	2	121	221	321	NaN	521	0.277661024127156	1	1	NaN	1562930.6690566	NaN	1562931.6522898	1562932.18537888
25	19	0	0	90	36.1581920903955	36.241610738255	16	0.533376640081406	2	9	3	NaN	2	3	0.244781946575837	1	1	NaN	3	1	3	2	121	221	321	NaN	521	0.611451681237668	2	1	NaN	1562936.1193209	NaN	1562937.1027365	1562937.61925712
25	19	0	0	90	36.1581920903955	36.241610738255	13	0.433368520066142	2	10	1	NaN	2	5	0.244781946575837	1	1	NaN	4	1	4	2	121	221	321	NaN	521	0.285456024110317	2	1	NaN	1562939.069603	NaN	1562940.0529968	1562940.56954158
25	19	0	0	90	36.1581920903955	36.241610738255	16	0.533376640081406	2	10	4	NaN	2	4	0.244781946575837	1	1	NaN	5	1	5	2	121	221	321	NaN	521	0.731899871956557	2	1	NaN	1562943.1033143	NaN	1562944.0867316	1562944.60326413
25	19	0	0	90	36.1581920903955	36.241610738255	8	0.266688320040703	2	1	6	NaN	1	3	0.244781946575837	1	1	NaN	6	1	6	2	121	221	321	NaN	521	0.279978124191985	1	1	NaN	1562946.5870151	NaN	1562947.5704206	1562948.08693918
25	19	0	0	90	36.1581920903955	36.241610738255	10	0.333360400050879	2	10	1	NaN	2	3	0.244781946575837	1	1	NaN	7	1	7	2	121	221	321	NaN	521	0.299723019357771	2	1	NaN	1562950.8872982	NaN	1562951.8708541	1562952.38737358
25	19	0	0	90	36.1581920903955	36.241610738255	0	0	1	11	6	NaN	2	3	0.244781946575837	1	1	NaN	8	1	8	2	111	211	311	NaN	511	0.273300824221224	2	1	NaN	1563007.2096398	NaN	1563008.1930438	1563008.70956478
25	19	0	0	90	36.1581920903955	36.241610738255	20	0.666720800101757	2	10	5	NaN	2	4	0.244781946575837	1	1	NaN	9	1	9	2	121	221	321	NaN	521	0.342216124292463	2	1	NaN	1563012.276663	NaN	1563013.2601816	1563013.77672788
25	19	0	0	90	36.1581920903955	36.241610738255	12	0.400032480061054	2	5	6	NaN	1	5	0.244781946575837	1	1	NaN	10	1	10	2	121	221	321	NaN	521	0.267305224202573	1	1	NaN	1563014.9436073	NaN	1563015.9271197	1563016.44365898
25	19	0	0	90	36.1581920903955	36.241610738255	18	0.600048720091581	2	2	1	NaN	1	5	0.244781946575837	1	1	NaN	11	1	11	2	121	221	321	NaN	521	0.313647824106738	1	1	NaN	1563019.5771584	NaN	1563020.5609177	1563021.07743648
25	19	0	0	90	36.1581920903955	36.241610738255	13	0.433368520066142	2	8	1	NaN	2	4	0.244781946575837	1	1	NaN	12	1	12	2	121	221	321	NaN	521	0.257679790724069	2	1	NaN	1563023.561183	NaN	1563024.5446321	1563025.06117741
25	19	0	0	90	36.1581920903955	36.241610738255	25	0.833401000127196	2	4	3	NaN	1	4	0.244781946575837	1	1	NaN	13	1	13	2	121	221	321	NaN	521	0.290119724115357	1	1	NaN	1563026.1446424	NaN	1563027.1282022	1563027.64475618
25	19	0	0	90	36.1581920903955	36.241610738255	10	0.333360400050879	2	12	6	NaN	2	3	0.244781946575837	1	1	NaN	14	1	14	2	121	221	321	NaN	521	0.923106071772054	2	1	NaN	1563030.5117885	NaN	1563031.4953215	1563032.01185293
25	19	0	0	90	36.1581920903955	36.241610738255	19	0.633384760096669	2	1	1	NaN	1	5	0.244781946575837	1	1	NaN	15	1	15	2	121	221	321	NaN	521	0.584713729098439	1	1	NaN	1563033.7621097	NaN	1563034.7456341	1563035.26219467
25	19	0	0	90	36.1581920903955	36.241610738255	9	0.300024360045791	2	4	3	NaN	1	3	0.244781946575837	1	1	NaN	16	1	16	2	121	221	321	NaN	521	0.379773829132318	1	1	NaN	1563036.6791633	NaN	1563037.6625681	1563038.17911707
25	19	0	0	90	36.1581920903955	36.241610738255	16	0.533376640081406	2	6	3	NaN	1	5	0.244781946575837	1	1	NaN	17	1	17	2	121	221	321	NaN	521	0.254188771825284	1	1	NaN	1563039.4127961	NaN	1563040.396194	1563040.91272253
25	19	0	0	90	36.1581920903955	36.241610738255	9	0.300024360045791	2	9	3	NaN	2	3	0.244781946575837	1	1	NaN	18	1	18	2	121	221	321	NaN	521	0.673204290913418	2	1	NaN	1563043.529751	NaN	1563044.5132805	1563045.02981271
25	19	0	0	90	36.1581920903955	36.241610738255	23	0.766728920117021	2	3	1	NaN	1	4	0.244781946575837	1	1	NaN	19	1	19	2	121	221	321	NaN	521	0.256795219611377	1	1	NaN	1563046.5301607	NaN	1563047.5135427	1563048.03008638
25	19	0	0	90	36.1581920903955	36.241610738255	10	0.333360400050879	2	1	6	NaN	1	4	0.244781946575837	1	1	NaN	20	1	20	2	121	221	321	NaN	521	0.492852724390104	1	1	NaN	1563050.8139013	NaN	1563051.7973014	1563052.31384488
25	19	0	0	90	36.1581920903955	36.241610738255	23	0.766728920117021	2	10	6	NaN	2	3	0.244781946575837	1	1	NaN	21	1	21	2	121	221	321	NaN	521	0.532486886018887	2	1	NaN	1563053.6308581	NaN	1563054.6142458	1563055.13078801
25	19	0	0	90	36.1581920903955	36.241610738255	20	0.666720800101757	2	9	6	NaN	2	3	0.244781946575837	1	1	NaN	22	1	22	2	121	221	321	NaN	521	0.353207071777433	2	1	NaN	1563056.4978	NaN	1563057.4812041	1563057.99774773
25	19	0	0	90	36.1581920903955	36.241610738255	24	0.800064960122108	2	11	2	NaN	2	3	0.244781946575837	1	1	NaN	23	1	23	2	121	221	321	NaN	521	0.248366885818541	2	1	NaN	1563061.3149238	NaN	1563062.2983337	1563062.81487281
25	19	0	0	90	36.1581920903955	36.241610738255	24	0.800064960122108	2	11	5	NaN	2	3	0.244781946575837	1	1	NaN	24	1	24	2	121	221	321	NaN	521	0.264851185958833	2	1	NaN	1563063.8985249	NaN	1563064.8819434	1563065.39847471
25	19	0	0	90	36.1581920903955	36.241610738255	15	0.500040600076318	2	2	5	NaN	1	5	0.244781946575837	1	1	NaN	25	1	25	2	121	221	321	NaN	521	0.837868990842253	1	1	NaN	1563069.7490609	NaN	1563070.7324655	1563071.24904281
25	19	0	0	90	36.1581920903955	36.241610738255	8	0.266688320040703	2	6	2	NaN	1	5	0.244781946575837	1	1	NaN	26	1	26	2	121	221	321	NaN	521	0.303252024343237	1	1	NaN	1563072.9160188	NaN	1563073.8994917	1563074.41600668
25	19	0	0	90	36.1581920903955	36.241610738255	20	0.666720800101757	2	1	1	NaN	1	3	0.244781946575837	1	1	NaN	27	1	27	2	121	221	321	NaN	521	0.689978919457644	1	1	NaN	1563077.233047	NaN	1563078.2165672	1563078.73311028
25	19	0	0	90	36.1581920903955	36.241610738255	25	0.833401000127196	2	5	4	NaN	1	3	0.244781946575837	1	1	NaN	28	1	28	2	121	221	321	NaN	521	0.321285771671683	1	1	NaN	1563080.2501344	NaN	1563081.2336223	1563081.75006683
25	19	0	0	90	36.1581920903955	36.241610738255	18	0.600048720091581	2	5	1	NaN	1	5	0.244781946575837	1	1	NaN	29	1	29	2	121	221	321	NaN	521	0.236248233588412	1	1	NaN	1563086.9507728	NaN	1563087.9342014	1563088.45072627
25	19	0	0	90	36.1581920903955	36.241610738255	20	0.666720800101757	2	2	6	NaN	1	5	0.244781946575837	1	1	NaN	30	1	30	2	121	221	321	NaN	521	0.253388781100512	1	1	NaN	1563089.5176818	NaN	1563090.5011296	1563091.01764942
25	19	0	0	90	36.1581920903955	36.241610738255	9	0.300024360045791	2	12	1	NaN	2	3	0.244781946575837	1	1	NaN	31	1	31	2	121	221	321	NaN	521	0.680758924223483	2	1	NaN	1563093.4346762	NaN	1563094.4181402	1563094.93468898
25	19	0	0	90	36.1581920903955	36.241610738255	13	0.433368520066142	2	2	4	NaN	1	5	0.244781946575837	1	1	NaN	32	1	32	2	121	221	321	NaN	521	0.303728771861643	1	1	NaN	1563096.4516686	NaN	1563097.4351116	1563097.95164973
25	19	0	0	90	36.1581920903955	36.241610738255	9	0.300024360045791	2	2	5	NaN	1	3	0.244781946575837	1	1	NaN	33	1	33	2	121	221	321	NaN	521	0.245572971878573	1	1	NaN	1563099.0851135	NaN	1563100.0687506	1563100.58524423
25	19	0	0	90	36.1581920903955	36.241610738255	15	0.500040600076318	2	11	2	NaN	2	3	0.244781946575837	1	1	NaN	34	1	34	2	121	221	321	NaN	521	0.333586885826662	2	1	NaN	1563101.8855672	NaN	1563102.8689733	1563103.38552131
25	19	0	0	90	36.1581920903955	36.241610738255	15	0.500040600076318	2	4	1	NaN	1	5	0.244781946575837	1	1	NaN	35	1	35	2	121	221	321	NaN	521	1.01753702899441	1	1	NaN	1563106.3693346	NaN	1563107.3527468	1563107.86929617
25	19	0	0	90	36.1581920903955	36.241610738255	7	0.233352280035615	2	11	3	NaN	2	4	0.244781946575837	1	1	NaN	36	1	36	2	121	221	321	NaN	521	0.340415824204683	2	1	NaN	1563110.1029497	NaN	1563111.0864512	1563111.60299378
25	19	0	0	90	36.1581920903955	36.241610738255	7	0.233352280035615	2	11	4	NaN	2	4	0.244781946575837	1	1	NaN	37	1	37	2	121	221	321	NaN	521	0.321126324124634	2	1	NaN	1563114.3700142	NaN	1563115.3535451	1563115.87007858
25	19	0	0	90	36.1581920903955	36.241610738255	25	0.833401000127196	2	6	4	NaN	1	3	0.244781946575837	1	1	NaN	38	1	38	2	121	221	321	NaN	521	0.623516924213618	1	1	NaN	1563117.0037648	NaN	1563117.9872169	1563118.50368948
25	19	0	0	90	36.1581920903955	36.241610738255	23	0.766728920117021	2	2	6	NaN	1	3	0.244781946575837	1	1	NaN	39	1	39	2	121	221	321	NaN	521	0.344974124105647	1	1	NaN	1563119.9540785	NaN	1563120.9375224	1563121.45396378
25	19	0	0	90	36.1581920903955	36.241610738255	14	0.46670456007123	2	8	6	NaN	2	5	0.244781946575837	1	1	NaN	40	1	40	2	121	221	321	NaN	521	0.834691871888936	2	1	NaN	1563123.7043839	NaN	1563124.6878115	1563125.20432613
25	19	0	0	90	36.1581920903955	36.241610738255	23	0.766728920117021	2	5	4	NaN	1	3	0.244781946575837	1	1	NaN	41	1	41	2	121	221	321	NaN	521	0.308361224364489	1	1	NaN	1563126.8546398	NaN	1563127.8381397	1563128.35464008
25	19	0	0	90	36.1581920903955	36.241610738255	14	0.46670456007123	2	2	3	NaN	1	3	0.244781946575837	1	1	NaN	42	1	42	2	121	221	321	NaN	521	0.642759671900421	1	1	NaN	1563129.4882968	NaN	1563130.471698	1563130.98823063
25	19	0	0	90	36.1581920903955	36.241610738255	0	0	1	3	6	NaN	1	5	0.244781946575837	1	1	NaN	43	1	43	2	111	211	311	NaN	511	0.363750271964818	1	1	NaN	1563132.4552392	NaN	1563133.43866	1563133.95519243
25	19	0	0	90	36.1581920903955	36.241610738255	24	0.800064960122108	2	6	5	NaN	1	4	0.244781946575837	1	1	NaN	44	1	44	2	121	221	321	NaN	521	0.330460928846151	1	1	NaN	1563136.4722972	NaN	1563137.4557224	1563137.97226177
25	19	0	0	90	36.1581920903955	36.241610738255	11	0.366696440055966	2	12	4	NaN	2	3	0.244781946575837	1	1	NaN	45	1	45	2	121	221	321	NaN	521	0.288523124298081	2	1	NaN	1563139.1224392	NaN	1563140.1060026	1563140.62250698
25	19	0	0	90	36.1581920903955	36.241610738255	11	0.366696440055966	2	2	3	NaN	1	3	0.244781946575837	1	1	NaN	46	1	46	2	121	221	321	NaN	521	0.251259124372154	1	1	NaN	1563145.6398348	NaN	1563146.6232562	1563147.13983308
25	19	0	0	90	36.1581920903955	36.241610738255	21	0.700056840106845	2	8	5	NaN	2	4	0.244781946575837	1	1	NaN	47	1	47	2	121	221	321	NaN	521	0.548573367064819	2	1	NaN	1563148.2067848	NaN	1563149.1902119	1563149.70672623
25	19	0	0	90	36.1581920903955	36.241610738255	17	0.566712680086493	2	12	4	NaN	2	3	0.244781946575837	1	1	NaN	48	1	48	2	121	221	321	NaN	521	0.289789524162188	2	1	NaN	1563151.0737334	NaN	1563152.0571705	1563152.57368108
25	19	0	0	90	36.1581920903955	36.241610738255	18	0.600048720091581	2	7	2	NaN	2	5	0.244781946575837	1	1	NaN	49	1	49	2	121	221	321	NaN	521	0.640567090827972	2	1	NaN	1563155.6741801	NaN	1563156.6576104	1563157.17413441
25	19	0	0	90	36.1581920903955	36.241610738255	10	0.333360400050879	2	4	2	NaN	1	3	0.244781946575837	1	1	NaN	50	1	50	2	121	221	321	NaN	521	0.266103567089885	1	1	NaN	1563158.6410371	NaN	1563159.6246108	1563160.14108563
25	19	0	0	90	36.1581920903955	36.241610738255	14	0.46670456007123	2	5	4	NaN	1	5	0.244781946575837	1	1	NaN	51	1	51	2	121	221	321	NaN	521	0.231193024199456	1	1	NaN	1563162.1081665	NaN	1563163.0915567	1563163.60810138
25	19	0	0	90	36.1581920903955	36.241610738255	16	0.533376640081406	2	7	2	NaN	2	4	0.244781946575837	1	1	NaN	52	1	52	2	121	221	321	NaN	521	0.696285672020167	2	1	NaN	1563165.8751784	NaN	1563166.8586023	1563167.37513883
25	19	0	0	90	36.1581920903955	36.241610738255	20	0.666720800101757	2	9	5	NaN	2	4	0.244781946575837	1	1	NaN	53	1	53	2	121	221	321	NaN	521	0.319370676530525	2	1	NaN	1563168.8921587	NaN	1563169.8755689	1563170.39210172
25	19	0	0	90	36.1581920903955	36.241610738255	18	0.600048720091581	2	8	4	NaN	2	3	0.244781946575837	1	1	NaN	54	1	54	2	121	221	321	NaN	521	0.250520971836522	2	1	NaN	1563173.7924948	NaN	1563174.7760658	1563175.29258133
25	19	0	0	90	36.1581920903955	36.241610738255	17	0.566712680086493	2	10	3	NaN	2	5	0.244781946575837	1	1	NaN	55	1	55	2	121	221	321	NaN	521	0.926732124295086	2	1	NaN	1563179.8764541	NaN	1563180.8599893	1563181.37650328
25	19	0	0	90	36.1581920903955	36.241610738255	22	0.733392880111933	2	12	4	NaN	2	5	0.244781946575837	1	1	NaN	56	1	56	2	121	221	321	NaN	521	0.284303271910176	2	1	NaN	1563183.1269278	NaN	1563184.1102879	1563184.62682143
25	19	0	0	90	36.1581920903955	36.241610738255	0	0	1	4	2	NaN	1	4	0.244781946575837	1	1	NaN	57	1	57	2	111	211	311	NaN	511	0.292100329184905	2	0	NaN	1563185.7270179	NaN	1563186.7105304	1563187.22708687
25	19	0	0	90	36.1581920903955	36.241610738255	15	0.500040600076318	2	8	1	NaN	2	4	0.244781946575837	1	1	NaN	58	1	58	2	121	221	321	NaN	521	0.675761124119163	2	1	NaN	1563188.3274057	NaN	1563189.310804	1563189.82734428
25	19	0	0	90	36.1581920903955	36.241610738255	22	0.733392880111933	2	7	1	NaN	2	3	0.244781946575837	1	1	NaN	59	1	59	2	121	221	321	NaN	521	0.291541524231434	2	1	NaN	1563191.327702	NaN	1563192.3111336	1563192.82763638
25	19	0	0	90	36.1581920903955	36.241610738255	21	0.700056840106845	2	1	3	NaN	1	3	0.244781946575837	1	1	NaN	60	1	60	2	121	221	321	NaN	521	0.250516671920195	1	1	NaN	1563193.9446274	NaN	1563194.9280471	1563195.44454823
25	19	0	0	90	36.1581920903955	36.241610738255	9	0.300024360045791	2	11	1	NaN	2	5	0.244781946575837	1	1	NaN	61	1	61	2	121	221	321	NaN	521	0.603339676512405	2	1	NaN	1563198.1117881	NaN	1563199.0950902	1563199.61165032
25	19	0	0	90	36.1581920903955	36.241610738255	22	0.733392880111933	2	1	2	NaN	1	4	0.244781946575837	1	1	NaN	62	1	62	2	121	221	321	NaN	521	0.286135771777481	1	1	NaN	1563201.0453136	NaN	1563202.0287349	1563202.54525193
25	19	0	0	90	36.1581920903955	36.241610738255	13	0.433368520066142	2	8	6	NaN	2	3	0.244781946575837	1	1	NaN	63	1	63	2	121	221	321	NaN	521	0.549051524372771	2	1	NaN	1563203.6622842	NaN	1563204.6457201	1563205.16217578
25	19	0	0	90	36.1581920903955	36.241610738255	14	0.46670456007123	2	9	3	NaN	2	4	0.244781946575837	1	1	NaN	64	2	1	2	121	221	321	NaN	521	0.462645980995148	2	1	NaN	1563213.7964439	NaN	1563214.7799525	1563215.29650632
25	19	0	0	90	36.1581920903955	36.241610738255	13	0.433368520066142	2	7	3	NaN	2	4	0.244781946575837	1	1	NaN	65	2	2	2	121	221	321	NaN	521	0.83758918591775	2	1	NaN	1563218.4136629	NaN	1563219.3971031	1563219.91362871
25	19	0	0	90	36.1581920903955	36.241610738255	17	0.566712680086493	2	6	6	NaN	1	3	0.244781946575837	1	1	NaN	66	2	3	2	121	221	321	NaN	521	0.286370524438098	1	1	NaN	1563221.5806747	NaN	1563222.5640513	1563223.08060188
25	19	0	0	90	36.1581920903955	36.241610738255	19	0.633384760096669	2	10	1	NaN	2	5	0.244781946575837	1	1	NaN	67	2	4	2	121	221	321	NaN	521	0.628342071780935	2	1	NaN	1563224.630837	NaN	1563225.6143617	1563226.13090853
25	19	0	0	90	36.1581920903955	36.241610738255	12	0.400032480061054	2	8	3	NaN	2	3	0.244781946575837	1	1	NaN	68	2	5	2	121	221	321	NaN	521	0.270083524286747	1	0	NaN	1563227.5811263	NaN	1563228.5646444	1563229.08120208
25	19	0	0	90	36.1581920903955	36.241610738255	21	0.700056840106845	2	1	3	NaN	1	5	0.244781946575837	1	1	NaN	69	2	6	2	121	221	321	NaN	521	0.654363724170253	1	1	NaN	1563231.3649777	NaN	1563232.3483843	1563232.86489728
25	19	0	0	90	36.1581920903955	36.241610738255	11	0.366696440055966	2	3	3	NaN	1	3	0.244781946575837	1	1	NaN	70	2	7	2	121	221	321	NaN	521	0.295396229019389	1	1	NaN	1563234.331905	NaN	1563235.3153241	1563235.83185617
25	19	0	0	90	36.1581920903955	36.241610738255	9	0.300024360045791	2	11	1	NaN	2	5	0.244781946575837	1	1	NaN	71	2	8	2	121	221	321	NaN	521	0.289737919578329	2	1	NaN	1563237.0655364	NaN	1563238.0489542	1563238.56545348
25	19	0	0	90	36.1581920903955	36.241610738255	21	0.700056840106845	2	12	3	NaN	2	3	0.244781946575837	1	1	NaN	72	2	9	2	121	221	321	NaN	521	0.516725924098864	2	1	NaN	1563240.5824854	NaN	1563241.5659142	1563242.08246778
25	19	0	0	90	36.1581920903955	36.241610738255	7	0.233352280035615	2	10	6	NaN	2	5	0.244781946575837	1	1	NaN	73	2	10	2	121	221	321	NaN	521	0.275495680980384	2	1	NaN	1563243.4160302	NaN	1563244.3995753	1563244.91607342
25	19	0	0	90	36.1581920903955	36.241610738255	21	0.700056840106845	2	10	4	NaN	2	4	0.244781946575837	1	1	NaN	74	2	11	2	121	221	321	NaN	521	0.27494246698916	2	1	NaN	1563246.0163032	NaN	1563246.9998129	1563247.51633273
25	19	0	0	90	36.1581920903955	36.241610738255	0	0	1	9	2	NaN	2	4	0.244781946575837	1	1	NaN	75	2	12	2	111	211	311	NaN	511	0.266964280977845	2	1	NaN	1563248.6165229	NaN	1563249.6000507	1563250.11659782
25	19	0	0	90	36.1581920903955	36.241610738255	9	0.300024360045791	2	5	1	NaN	1	4	0.244781946575837	1	1	NaN	76	2	13	2	121	221	321	NaN	521	0.28265820001252	1	1	NaN	1563251.2167758	NaN	1563252.2002854	1563252.716846
25	19	0	0	90	36.1581920903955	36.241610738255	16	0.533376640081406	2	2	1	NaN	1	4	0.244781946575837	1	1	NaN	77	2	14	2	121	221	321	NaN	521	0.503412619465962	1	1	NaN	1563254.4838535	NaN	1563255.4672833	1563255.98383378
25	19	0	0	90	36.1581920903955	36.241610738255	12	0.400032480061054	2	6	3	NaN	1	4	0.244781946575837	1	1	NaN	78	2	15	2	121	221	321	NaN	521	0.358800590736791	1	1	NaN	1563257.3008401	NaN	1563258.2842375	1563258.80077921
25	19	0	0	90	36.1581920903955	36.241610738255	16	0.533376640081406	2	11	5	NaN	2	5	0.244781946575837	1	1	NaN	79	2	16	2	121	221	321	NaN	521	0.549709285842255	2	1	NaN	1563261.3011088	NaN	1563262.2846297	1563262.80116831
25	19	0	0	90	36.1581920903955	36.241610738255	12	0.400032480061054	2	9	4	NaN	2	3	0.244781946575837	1	1	NaN	80	2	17	2	121	221	321	NaN	521	0.28311186702922	2	1	NaN	1563264.1681573	NaN	1563265.1515932	1563265.66812373
25	19	0	0	90	36.1581920903955	36.241610738255	6	0.200016240030527	2	1	5	NaN	1	3	0.244781946575837	1	1	NaN	81	2	18	2	121	221	321	NaN	521	0.314802071778104	1	1	NaN	1563267.1684612	NaN	1563268.1518754	1563268.66840713
25	19	0	0	90	36.1581920903955	36.241610738255	17	0.566712680086493	2	1	5	NaN	1	5	0.244781946575837	1	1	NaN	82	2	19	2	121	221	321	NaN	521	0.60131558123976	1	1	NaN	1563269.8020436	NaN	1563270.7854741	1563271.30200702
25	19	0	0	90	36.1581920903955	36.241610738255	13	0.433368520066142	2	9	3	NaN	2	5	0.244781946575837	1	1	NaN	83	2	20	2	121	221	321	NaN	521	0.260305576492101	2	1	NaN	1563272.7190623	NaN	1563273.7024283	1563274.21896082
25	19	0	0	90	36.1581920903955	36.241610738255	10	0.333360400050879	2	2	6	NaN	1	5	0.244781946575837	1	1	NaN	84	2	21	2	121	221	321	NaN	521	0.292618585983291	1	1	NaN	1563275.302485	NaN	1563276.2860114	1563276.80253551
25	19	0	0	90	36.1581920903955	36.241610738255	8	0.266688320040703	2	8	6	NaN	2	5	0.244781946575837	1	1	NaN	85	2	22	2	121	221	321	NaN	521	0.603923924034461	2	1	NaN	1563277.9195063	NaN	1563278.9029251	1563279.41946958
25	19	0	0	90	36.1581920903955	36.241610738255	24	0.800064960122108	2	8	4	NaN	2	3	0.244781946575837	1	1	NaN	86	2	23	2	121	221	321	NaN	521	0.303146167192608	2	1	NaN	1563280.8364512	NaN	1563281.819898	1563282.33641163
25	19	0	0	90	36.1581920903955	36.241610738255	13	0.433368520066142	2	5	5	NaN	1	3	0.244781946575837	1	1	NaN	87	2	24	2	121	221	321	NaN	521	0.439097219379619	1	1	NaN	1563284.0201109	NaN	1563285.003525	1563285.52005328
25	19	0	0	90	36.1581920903955	36.241610738255	8	0.266688320040703	2	10	5	NaN	2	3	0.244781946575837	1	1	NaN	88	2	25	2	121	221	321	NaN	521	0.264485390624031	2	1	NaN	1563286.7870604	NaN	1563287.7704665	1563288.28700161
25	19	0	0	90	36.1581920903955	36.241610738255	21	0.700056840106845	2	8	2	NaN	2	3	0.244781946575837	1	1	NaN	89	2	26	2	121	221	321	NaN	521	0.208726524142548	2	1	NaN	1563289.3706703	NaN	1563290.3540778	1563290.87059358
25	19	0	0	90	36.1581920903955	36.241610738255	0	0	1	2	4	NaN	1	5	0.244781946575837	1	1	NaN	90	2	27	2	111	211	311	NaN	511	0.491414366988465	1	1	NaN	1563291.9041166	NaN	1563292.8876476	1563293.40416143
25	19	0	0	90	36.1581920903955	36.241610738255	10	0.333360400050879	2	10	6	NaN	2	5	0.244781946575837	1	1	NaN	91	2	28	2	121	221	321	NaN	521	0.218461124226451	2	1	NaN	1563294.7211792	NaN	1563295.7045688	1563296.22111668
25	19	0	0	90	36.1581920903955	36.241610738255	12	0.400032480061054	2	11	2	NaN	2	4	0.244781946575837	1	1	NaN	92	2	29	2	121	221	321	NaN	521	0.643539224285632	2	1	NaN	1563297.2714456	NaN	1563298.2548418	1563298.77136938
25	19	0	0	90	36.1581920903955	36.241610738255	16	0.533376640081406	2	5	6	NaN	1	5	0.244781946575837	1	1	NaN	93	2	30	2	121	221	321	NaN	521	0.404892219463363	1	1	NaN	1563300.2384782	NaN	1563301.2217845	1563301.73832498
25	19	0	0	90	36.1581920903955	36.241610738255	0	0	1	6	5	NaN	1	4	0.244781946575837	1	1	NaN	94	2	31	2	111	211	311	NaN	511	0.415505733573809	1	1	NaN	1563302.9718513	NaN	1563303.9553722	1563304.47192897
25	19	0	0	90	36.1581920903955	36.241610738255	9	0.300024360045791	2	6	1	NaN	1	3	0.244781946575837	1	1	NaN	95	2	32	2	121	221	321	NaN	521	0.329781614942476	1	1	NaN	1563305.7055849	NaN	1563306.6889956	1563307.20551269
25	19	0	0	90	36.1581920903955	36.241610738255	9	0.300024360045791	2	7	1	NaN	2	5	0.244781946575837	1	1	NaN	96	2	33	2	121	221	321	NaN	521	0.28766266698949	2	1	NaN	1563308.3558718	NaN	1563309.3392442	1563309.85578603
25	19	0	0	90	36.1581920903955	36.241610738255	20	0.666720800101757	2	8	3	NaN	2	5	0.244781946575837	1	1	NaN	97	2	34	2	121	221	321	NaN	521	0.783184219384566	2	1	NaN	1563310.9561163	NaN	1563311.9395054	1563312.45605628
25	19	0	0	90	36.1581920903955	36.241610738255	15	0.500040600076318	2	9	2	NaN	2	4	0.244781946575837	1	1	NaN	98	2	35	2	121	221	321	NaN	521	0.658717619488016	2	1	NaN	1563314.0564315	NaN	1563315.0398133	1563315.55634658
25	19	0	0	90	36.1581920903955	36.241610738255	19	0.633384760096669	2	12	2	NaN	2	3	0.244781946575837	1	1	NaN	99	2	36	2	121	221	321	NaN	521	0.815503371879458	2	1	NaN	1563317.9400971	NaN	1563318.923513	1563319.44005403
25	19	0	0	90	36.1581920903955	36.241610738255	0	0	1	1	3	NaN	1	4	0.244781946575837	1	1	NaN	100	2	37	2	111	211	311	NaN	511	0.41769161936827	1	1	NaN	1563321.0736229	NaN	1563322.0571469	1563322.57369608
25	19	0	0	90	36.1581920903955	36.241610738255	16	0.533376640081406	2	10	2	NaN	2	5	0.244781946575837	1	1	NaN	101	2	38	2	121	221	321	NaN	521	0.563393543008715	2	1	NaN	1563323.824143	NaN	1563324.8074282	1563325.32399166
25	19	0	0	90	36.1581920903955	36.241610738255	10	0.333360400050879	2	6	2	NaN	1	5	0.244781946575837	1	1	NaN	102	2	39	2	121	221	321	NaN	521	0.272123224101961	1	1	NaN	1563326.7076405	NaN	1563327.6910238	1563328.20759598
25	19	0	0	90	36.1581920903955	36.241610738255	23	0.766728920117021	2	3	4	NaN	1	4	0.244781946575837	1	1	NaN	103	2	40	2	121	221	321	NaN	521	0.831271671922877	1	1	NaN	1563329.3078865	NaN	1563330.2913033	1563330.80784103
25	19	0	0	90	36.1581920903955	36.241610738255	7	0.233352280035615	2	12	4	NaN	2	4	0.244781946575837	1	1	NaN	104	2	41	2	121	221	321	NaN	521	0.433399119414389	2	1	NaN	1563332.4582127	NaN	1563333.4416097	1563333.95815378
25	19	0	0	90	36.1581920903955	36.241610738255	15	0.500040600076318	2	12	6	NaN	2	5	0.244781946575837	1	1	NaN	105	2	42	2	121	221	321	NaN	521	0.394975971896201	2	1	NaN	1563335.2085014	NaN	1563336.1918937	1563336.70841493
25	19	0	0	90	36.1581920903955	36.241610738255	0	0	1	8	4	NaN	2	3	0.244781946575837	1	1	NaN	106	2	43	2	111	211	311	NaN	511	0.310022671939805	2	1	NaN	1563337.9254018	NaN	1563338.9088537	1563339.42535723
25	19	0	0	90	36.1581920903955	36.241610738255	24	0.800064960122108	2	1	1	NaN	1	3	0.244781946575837	1	1	NaN	107	2	44	2	121	221	321	NaN	521	0.582768919644877	1	1	NaN	1563340.6923406	NaN	1563341.6757712	1563342.19228588
25	19	0	0	90	36.1581920903955	36.241610738255	8	0.266688320040703	2	3	3	NaN	1	3	0.244781946575837	1	1	NaN	108	2	45	2	121	221	321	NaN	521	0.226274924352765	1	1	NaN	1563343.6093113	NaN	1563344.5927092	1563345.10925868
25	19	0	0	90	36.1581920903955	36.241610738255	10	0.333360400050879	2	5	1	NaN	1	3	0.244781946575837	1	1	NaN	109	2	46	2	121	221	321	NaN	521	0.491878747474402	1	1	NaN	1563346.1594742	NaN	1563347.1429125	1563347.65952605
25	19	0	0	90	36.1581920903955	36.241610738255	11	0.366696440055966	2	8	2	NaN	2	5	0.244781946575837	1	1	NaN	110	2	47	2	121	221	321	NaN	521	0.291224690852687	2	1	NaN	1563348.9765108	NaN	1563349.9599149	1563350.47644241
25	19	0	0	90	36.1581920903955	36.241610738255	7	0.233352280035615	2	10	1	NaN	2	5	0.244781946575837	1	1	NaN	111	2	48	2	121	221	321	NaN	521	0.281954581150785	2	1	NaN	1563351.5934474	NaN	1563352.5768093	1563353.09336442
25	19	0	0	90	36.1581920903955	36.241610738255	6	0.200016240030527	2	12	5	NaN	2	5	0.244781946575837	1	1	NaN	112	2	49	2	121	221	321	NaN	521	0.513980724150315	2	1	NaN	1563354.1936985	NaN	1563355.1771754	1563355.69360688
25	19	0	0	90	36.1581920903955	36.241610738255	7	0.233352280035615	2	3	6	NaN	1	3	0.244781946575837	1	1	NaN	113	2	50	2	121	221	321	NaN	521	0.272176472004503	1	1	NaN	1563357.027264	NaN	1563358.0106828	1563358.52723163
25	19	0	0	90	36.1581920903955	36.241610738255	17	0.566712680086493	2	4	4	NaN	1	4	0.244781946575837	1	1	NaN	114	2	51	2	121	221	321	NaN	521	0.207867324119434	1	1	NaN	1563359.627541	NaN	1563360.6109333	1563361.12747518
25	19	0	0	90	36.1581920903955	36.241610738255	20	0.666720800101757	2	3	6	NaN	1	5	0.244781946575837	1	1	NaN	115	2	52	2	121	221	321	NaN	521	0.194660024018958	1	1	NaN	1563362.1611459	NaN	1563363.1445339	1563363.66106158
25	19	0	0	90	36.1581920903955	36.241610738255	0	0	1	3	5	NaN	1	3	0.244781946575837	1	1	NaN	116	2	53	2	111	211	311	NaN	511	0.381391576491296	1	1	NaN	1563364.6779461	NaN	1563365.6615024	1563366.17798302
25	19	0	0	90	36.1581920903955	36.241610738255	16	0.533376640081406	2	1	4	NaN	1	4	0.244781946575837	1	1	NaN	117	2	54	2	121	221	321	NaN	521	0.361201295163482	1	1	NaN	1563367.3783079	NaN	1563368.361711	1563368.8782675
25	19	0	0	90	36.1581920903955	36.241610738255	0	0	1	7	6	NaN	2	5	0.244781946575837	1	1	NaN	118	2	55	2	111	211	311	NaN	511	0.301509024342522	2	1	NaN	1563370.0618311	NaN	1563371.0452962	1563371.56186388
25	19	0	0	90	36.1581920903955	36.241610738255	20	0.666720800101757	2	11	5	NaN	2	3	0.244781946575837	1	1	NaN	119	2	56	2	121	221	321	NaN	521	0.299994124099612	2	1	NaN	1563373.0955132	NaN	1563374.0789313	1563374.59547098
25	19	0	0	90	36.1581920903955	36.241610738255	6	0.200016240030527	2	10	6	NaN	2	5	0.244781946575837	1	1	NaN	120	2	57	2	121	221	321	NaN	521	0.274369924329221	2	1	NaN	1563375.7290114	NaN	1563376.7125102	1563377.22906848
25	19	0	0	90	36.1581920903955	36.241610738255	22	0.733392880111933	2	10	3	NaN	2	4	0.244781946575837	1	1	NaN	121	2	58	2	121	221	321	NaN	521	0.306167167145759	2	1	NaN	1563378.3292921	NaN	1563379.3127701	1563379.82931273
25	19	0	0	90	36.1581920903955	36.241610738255	12	0.400032480061054	2	1	3	NaN	1	3	0.244781946575837	1	1	NaN	122	2	59	2	121	221	321	NaN	521	0.248745271703228	1	1	NaN	1563380.9629496	NaN	1563381.9464078	1563382.46290173
25	19	0	0	90	36.1581920903955	36.241610738255	25	0.833401000127196	2	3	2	NaN	1	4	0.244781946575837	1	1	NaN	123	2	60	2	121	221	321	NaN	521	0.777995319571346	1	1	NaN	1563383.5299186	NaN	1563384.5132966	1563385.02982418
25	19	0	0	90	36.1581920903955	36.241610738255	19	0.633384760096669	2	4	2	NaN	1	3	0.244781946575837	1	1	NaN	124	2	61	2	121	221	321	NaN	521	0.293273171875626	1	1	NaN	1563386.6301834	NaN	1563387.6134975	1563388.13012763
25	19	0	0	90	36.1581920903955	36.241610738255	18	0.600048720091581	2	10	1	NaN	2	5	0.244781946575837	1	1	NaN	125	2	62	2	121	221	321	NaN	521	0.260587871773168	2	1	NaN	1563389.2471168	NaN	1563390.2304966	1563390.74704503
25	19	0	0	90	36.1581920903955	36.241610738255	20	0.666720800101757	2	1	2	NaN	1	4	0.244781946575837	1	1	NaN	126	2	63	2	121	221	321	NaN	521	0.244372824206948	1	1	NaN	1563391.8307516	NaN	1563392.814116	1563393.33064258
25	19	0	0	90	36.1581920903955	36.241610738255	25	0.833401000127196	2	11	6	NaN	2	3	0.244781946575837	1	1	NaN	127	3	1	2	121	221	321	NaN	521	0.269387776497751	2	1	NaN	1563495.9742649	NaN	1563496.9576466	1563497.47419352
25	19	0	0	90	36.1581920903955	36.241610738255	24	0.800064960122108	2	5	1	NaN	1	3	0.244781946575837	1	1	NaN	128	3	2	2	121	221	321	NaN	521	0.278138143010437	1	1	NaN	1563498.5578437	NaN	1563499.5412576	1563500.05778746
25	19	0	0	90	36.1581920903955	36.241610738255	12	0.400032480061054	2	7	5	NaN	2	5	0.244781946575837	1	1	NaN	129	3	3	2	121	221	321	NaN	521	1.92542393831536	2	1	NaN	1563503.1582551	NaN	1563504.1416841	1563504.65823026
25	19	0	0	90	36.1581920903955	36.241610738255	21	0.700056840106845	2	6	1	NaN	1	5	0.244781946575837	1	1	NaN	130	3	4	2	121	221	321	NaN	521	0.259081176714972	1	1	NaN	1563507.4087013	NaN	1563508.3921341	1563508.90865332
25	19	0	0	90	36.1581920903955	36.241610738255	11	0.366696440055966	2	1	5	NaN	1	5	0.244781946575837	1	1	NaN	131	3	5	2	121	221	321	NaN	521	0.603235771879554	1	1	NaN	1563509.9922717	NaN	1563510.9757048	1563511.49223263
25	19	0	0	90	36.1581920903955	36.241610738255	15	0.500040600076318	2	3	5	NaN	1	3	0.244781946575837	1	1	NaN	132	3	6	2	121	221	321	NaN	521	0.28610756713897	1	1	NaN	1563512.9092127	NaN	1563513.8926543	1563514.40918373
25	19	0	0	90	36.1581920903955	36.241610738255	19	0.633384760096669	2	4	5	NaN	1	3	0.244781946575837	1	1	NaN	133	3	7	2	121	221	321	NaN	521	0.277544519398361	1	1	NaN	1563515.5262001	NaN	1563516.5095566	1563517.02610718
25	19	0	0	90	36.1581920903955	36.241610738255	6	0.200016240030527	2	3	5	NaN	1	4	0.244781946575837	1	1	NaN	134	3	8	2	121	221	321	NaN	521	0.252879029139876	1	1	NaN	1563518.1264246	NaN	1563519.1098249	1563519.62638157
25	19	0	0	90	36.1581920903955	36.241610738255	16	0.533376640081406	2	9	4	NaN	2	3	0.244781946575837	1	1	NaN	135	3	9	2	121	221	321	NaN	521	0.621850400930271	2	1	NaN	1563520.7100286	NaN	1563521.6934739	1563522.2099379
25	19	0	0	90	36.1581920903955	36.241610738255	6	0.200016240030527	2	8	3	NaN	2	4	0.244781946575837	1	1	NaN	136	3	10	2	121	221	321	NaN	521	0.663778024259955	2	1	NaN	1563523.6435307	NaN	1563524.6270367	1563525.14357398
25	19	0	0	90	36.1581920903955	36.241610738255	22	0.733392880111933	2	2	4	NaN	1	5	0.244781946575837	1	1	NaN	137	3	11	2	121	221	321	NaN	521	0.368310024030507	1	1	NaN	1563526.6271458	NaN	1563527.6106742	1563528.12719528
25	19	0	0	90	36.1581920903955	36.241610738255	0	0	1	12	3	NaN	2	5	0.244781946575837	1	1	NaN	138	3	12	2	111	211	311	NaN	511	0.332968038273975	2	1	NaN	1563529.3108839	NaN	1563530.2942474	1563530.81081556
25	19	0	0	90	36.1581920903955	36.241610738255	15	0.500040600076318	2	1	4	NaN	1	3	0.244781946575837	1	1	NaN	139	3	13	2	121	221	321	NaN	521	0.578916924307123	1	1	NaN	1563531.9611161	NaN	1563532.9445218	1563533.46105408
25	19	0	0	90	36.1581920903955	36.241610738255	12	0.400032480061054	2	7	2	NaN	2	3	0.244781946575837	1	1	NaN	140	3	14	2	121	221	321	NaN	521	0.262633190723136	2	1	NaN	1563534.8614118	NaN	1563535.844794	1563536.36134221
25	19	0	0	90	36.1581920903955	36.241610738255	25	0.833401000127196	2	5	6	NaN	1	5	0.244781946575837	1	1	NaN	141	3	15	2	121	221	321	NaN	521	0.230970971751958	1	1	NaN	1563537.4449908	NaN	1563538.4283846	1563538.94492823
25	19	0	0	90	36.1581920903955	36.241610738255	15	0.500040600076318	2	3	2	NaN	1	3	0.244781946575837	1	1	NaN	142	3	16	2	121	221	321	NaN	521	0.528405638411641	1	1	NaN	1563539.9952982	NaN	1563540.9786509	1563541.49517696
25	19	0	0	90	36.1581920903955	36.241610738255	14	0.46670456007123	2	3	4	NaN	1	5	0.244781946575837	1	1	NaN	143	3	17	2	121	221	321	NaN	521	0.357925485819578	1	1	NaN	1563542.8455041	NaN	1563543.8289271	1563544.34545421
25	19	0	0	90	36.1581920903955	36.241610738255	11	0.366696440055966	2	5	3	NaN	1	4	0.244781946575837	1	1	NaN	144	3	18	2	121	221	321	NaN	521	0.338585567194968	1	1	NaN	1563545.529123	NaN	1563546.5125015	1563547.02904763
25	19	0	0	90	36.1581920903955	36.241610738255	10	0.333360400050879	2	2	6	NaN	1	3	0.244781946575837	1	1	NaN	145	3	19	2	121	221	321	NaN	521	0.567981633590534	1	1	NaN	1563548.1960586	NaN	1563549.1794478	1563549.69599087
25	19	0	0	90	36.1581920903955	36.241610738255	6	0.200016240030527	2	1	6	NaN	1	4	0.244781946575837	1	1	NaN	146	3	20	2	121	221	321	NaN	521	0.660118124447763	1	1	NaN	1563551.079671	NaN	1563552.0630493	1563552.57959148
25	19	0	0	90	36.1581920903955	36.241610738255	21	0.700056840106845	2	2	1	NaN	1	3	0.244781946575837	1	1	NaN	147	3	21	2	121	221	321	NaN	521	0.316557471873239	1	1	NaN	1563554.0633083	NaN	1563555.0466886	1563555.56322983
25	19	0	0	90	36.1581920903955	36.241610738255	17	0.566712680086493	2	10	6	NaN	2	4	0.244781946575837	1	1	NaN	148	3	22	2	121	221	321	NaN	521	0.442453919444233	2	1	NaN	1563556.6969098	NaN	1563557.6802475	1563558.19681668
25	19	0	0	90	36.1581920903955	36.241610738255	25	0.833401000127196	2	10	3	NaN	2	3	0.244781946575837	1	1	NaN	149	3	23	2	121	221	321	NaN	521	0.612143771955743	2	1	NaN	1563559.463814	NaN	1563560.4472221	1563560.96374673
25	19	0	0	90	36.1581920903955	36.241610738255	24	0.800064960122108	2	12	5	NaN	2	5	0.244781946575837	1	1	NaN	150	3	24	2	121	221	321	NaN	521	0.534268676768988	2	1	NaN	1563562.3975349	NaN	1563563.3808529	1563563.89738182
25	19	0	0	90	36.1581920903955	36.241610738255	0	0	1	8	5	NaN	2	5	0.244781946575837	1	1	NaN	151	3	25	2	111	211	311	NaN	511	0.299991881242022	2	1	NaN	1563565.2475818	NaN	1563566.2311353	1563566.74765932
25	19	0	0	90	36.1581920903955	36.241610738255	19	0.633384760096669	2	5	5	NaN	1	4	0.244781946575837	1	1	NaN	152	3	26	2	121	221	321	NaN	521	0.443186624208465	1	1	NaN	1563567.8645158	NaN	1563568.8480429	1563569.36457868
25	19	0	0	90	36.1581920903955	36.241610738255	21	0.700056840106845	2	10	1	NaN	2	5	0.244781946575837	1	1	NaN	153	3	27	2	121	221	321	NaN	521	0.323851724155247	2	1	NaN	1563570.6315975	NaN	1563571.6149701	1563572.13153768
25	19	0	0	90	36.1581920903955	36.241610738255	24	0.800064960122108	2	4	3	NaN	1	4	0.244781946575837	1	1	NaN	154	3	28	2	121	221	321	NaN	521	0.225907719461247	1	1	NaN	1563573.2819147	NaN	1563574.2652286	1563574.78179488
25	19	0	0	90	36.1581920903955	36.241610738255	17	0.566712680086493	2	5	4	NaN	1	4	0.244781946575837	1	1	NaN	155	3	29	2	121	221	321	NaN	521	0.171401619445533	1	1	NaN	1563575.8321027	NaN	1563576.8154681	1563577.33202828
25	19	0	0	90	36.1581920903955	36.241610738255	12	0.400032480061054	2	1	2	NaN	1	4	0.244781946575837	1	1	NaN	156	3	30	2	121	221	321	NaN	521	0.304132519289851	1	1	NaN	1563578.3157072	NaN	1563579.2990891	1563579.81560958
25	19	0	0	90	36.1581920903955	36.241610738255	22	0.733392880111933	2	3	1	NaN	1	4	0.244781946575837	1	1	NaN	157	3	31	2	121	221	321	NaN	521	0.255404071882367	1	1	NaN	1563580.9325887	NaN	1563581.9159999	1563582.43253323
25	19	0	0	90	36.1581920903955	36.241610738255	20	0.666720800101757	2	6	1	NaN	1	5	0.244781946575837	1	1	NaN	158	3	32	2	121	221	321	NaN	521	0.311625299975276	1	1	NaN	1563583.5161964	NaN	1563584.4995773	1563585.0161271
25	19	0	0	90	36.1581920903955	36.241610738255	11	0.366696440055966	2	6	2	NaN	1	3	0.244781946575837	1	1	NaN	159	3	33	2	121	221	321	NaN	521	0.365836624288931	1	1	NaN	1563586.1496371	NaN	1563587.1331832	1563587.64970038
25	19	0	0	90	36.1581920903955	36.241610738255	12	0.400032480061054	2	3	1	NaN	1	4	0.244781946575837	1	1	NaN	160	3	34	2	121	221	321	NaN	521	0.506095676450059	1	1	NaN	1563588.833279	NaN	1563589.8167602	1563590.33330492
25	19	0	0	90	36.1581920903955	36.241610738255	25	0.833401000127196	2	11	6	NaN	2	4	0.244781946575837	1	1	NaN	161	3	35	2	121	221	321	NaN	521	0.400865581119433	2	1	NaN	1563591.6670001	NaN	1563592.6503469	1563593.16691162
25	19	0	0	90	36.1581920903955	36.241610738255	24	0.800064960122108	2	2	6	NaN	1	3	0.244781946575837	1	1	NaN	162	3	36	2	121	221	321	NaN	521	0.324216767214239	1	1	NaN	1563594.3839095	NaN	1563595.3673069	1563595.88385053
25	19	0	0	90	36.1581920903955	36.241610738255	22	0.733392880111933	2	2	3	NaN	1	4	0.244781946575837	1	1	NaN	163	3	37	2	121	221	321	NaN	521	0.121462624054402	1	1	NaN	1563597.03419	NaN	1563598.0175439	1563598.53410238
25	19	0	0	90	36.1581920903955	36.241610738255	7	0.233352280035615	2	7	1	NaN	2	4	0.244781946575837	1	1	NaN	164	3	38	2	121	221	321	NaN	521	0.815333476755768	2	1	NaN	1563599.4842479	NaN	1563600.4678124	1563600.98436572
25	19	0	0	90	36.1581920903955	36.241610738255	14	0.46670456007123	2	11	3	NaN	2	4	0.244781946575837	1	1	NaN	165	3	39	2	121	221	321	NaN	521	0.905502524226904	2	1	NaN	1563602.6180389	NaN	1563603.6014901	1563604.11798448
25	19	0	0	90	36.1581920903955	36.241610738255	14	0.46670456007123	2	11	3	NaN	2	4	0.244781946575837	1	1	NaN	166	3	40	2	121	221	321	NaN	521	0.280035819392651	2	1	NaN	1563605.8517066	NaN	1563606.8351	1563607.35166128
25	19	0	0	90	36.1581920903955	36.241610738255	22	0.733392880111933	2	1	3	NaN	1	4	0.244781946575837	1	1	NaN	167	3	41	2	121	221	321	NaN	521	0.480315124383196	1	1	NaN	1563608.4352703	NaN	1563609.4186694	1563609.93522478
25	19	0	0	90	36.1581920903955	36.241610738255	14	0.46670456007123	2	4	6	NaN	1	4	0.244781946575837	1	1	NaN	168	3	42	2	121	221	321	NaN	521	0.352016124175861	1	1	NaN	1563611.2354636	NaN	1563612.2189521	1563612.73549918
25	19	0	0	90	36.1581920903955	36.241610738255	0	0	1	10	3	NaN	2	3	0.244781946575837	1	1	NaN	169	3	43	2	111	211	311	NaN	511	0.308614824200049	2	1	NaN	1563613.9191925	NaN	1563614.9025773	1563615.41911248
25	19	0	0	90	36.1581920903955	36.241610738255	19	0.633384760096669	2	10	6	NaN	2	4	0.244781946575837	1	1	NaN	170	3	44	2	121	221	321	NaN	521	1.36413701949641	2	1	NaN	1563617.1194474	NaN	1563618.1028422	1563618.61941238
25	19	0	0	90	36.1581920903955	36.241610738255	9	0.300024360045791	2	10	2	NaN	2	5	0.244781946575837	1	1	NaN	171	3	45	2	121	221	321	NaN	521	0.928930171765387	2	1	NaN	1563620.8030552	NaN	1563621.7865653	1563622.30310393
25	19	0	0	90	36.1581920903955	36.241610738255	9	0.300024360045791	2	2	6	NaN	1	5	0.244781946575837	1	1	NaN	172	3	46	2	121	221	321	NaN	521	0.710376924136654	1	1	NaN	1563624.0535052	NaN	1563625.0369103	1563625.55341668
25	19	0	0	90	36.1581920903955	36.241610738255	13	0.433368520066142	2	6	4	NaN	1	4	0.244781946575837	1	1	NaN	173	3	47	2	121	221	321	NaN	521	0.56484258105047	1	1	NaN	1563627.0871215	NaN	1563628.0705188	1563628.58705482
25	19	0	0	90	36.1581920903955	36.241610738255	7	0.233352280035615	2	9	6	NaN	2	5	0.244781946575837	1	1	NaN	174	3	48	2	121	221	321	NaN	521	0.289164471905679	2	1	NaN	1563629.9707289	NaN	1563630.9541358	1563631.47066393
25	19	0	0	90	36.1581920903955	36.241610738255	10	0.333360400050879	2	12	1	NaN	2	3	0.244781946575837	1	1	NaN	175	3	49	2	121	221	321	NaN	521	0.25596017180942	2	1	NaN	1563632.5876752	NaN	1563633.5711085	1563634.08760723
25	19	0	0	90	36.1581920903955	36.241610738255	23	0.766728920117021	2	8	6	NaN	2	4	0.244781946575837	1	1	NaN	176	3	50	2	121	221	321	NaN	521	0.193661819444969	2	1	NaN	1563635.1545737	NaN	1563636.1379726	1563636.65451098
25	19	0	0	90	36.1581920903955	36.241610738255	22	0.733392880111933	2	11	1	NaN	2	5	0.244781946575837	1	1	NaN	177	3	51	2	121	221	321	NaN	521	0.444425471825525	2	1	NaN	1563637.6715139	NaN	1563638.6548906	1563639.17143113
25	19	0	0	90	36.1581920903955	36.241610738255	6	0.200016240030527	2	4	6	NaN	1	4	0.244781946575837	1	1	NaN	178	3	52	2	121	221	321	NaN	521	0.213692443212494	1	1	NaN	1563640.4382919	NaN	1563641.4218164	1563641.93837356
25	19	0	0	90	36.1581920903955	36.241610738255	25	0.833401000127196	2	3	6	NaN	1	5	0.244781946575837	1	1	NaN	179	3	53	2	121	221	321	NaN	521	0.199489224236459	1	1	NaN	1563642.972024	NaN	1563643.9554228	1563644.47195078
25	19	0	0	90	36.1581920903955	36.241610738255	15	0.500040600076318	2	6	6	NaN	1	4	0.244781946575837	1	1	NaN	180	3	54	2	121	221	321	NaN	521	0.250718324212357	1	1	NaN	1563645.488926	NaN	1563646.4723423	1563646.98885968
25	19	0	0	90	36.1581920903955	36.241610738255	6	0.200016240030527	2	4	4	NaN	1	3	0.244781946575837	1	1	NaN	181	3	55	2	121	221	321	NaN	521	0.132044124417007	1	1	NaN	1563648.0556607	NaN	1563649.0393233	1563649.55577548
25	19	0	0	90	36.1581920903955	36.241610738255	6	0.200016240030527	2	6	2	NaN	1	4	0.244781946575837	1	1	NaN	182	3	56	2	121	221	321	NaN	521	0.604384671663865	1	1	NaN	1563650.6392877	NaN	1563651.6228466	1563652.13936853
25	19	0	0	90	36.1581920903955	36.241610738255	23	0.766728920117021	2	6	3	NaN	1	3	0.244781946575837	1	1	NaN	183	3	57	2	121	221	321	NaN	521	0.199119947617874	1	1	NaN	1563653.5563783	NaN	1563654.5397947	1563655.05632595
25	19	0	0	90	36.1581920903955	36.241610738255	13	0.433368520066142	2	10	3	NaN	2	4	0.244781946575837	1	1	NaN	184	3	58	2	121	221	321	NaN	521	0.162581319455057	2	1	NaN	1563656.0733111	NaN	1563657.056686	1563657.57322768
25	19	0	0	90	36.1581920903955	36.241610738255	25	0.833401000127196	2	8	2	NaN	2	5	0.244781946575837	1	1	NaN	185	3	59	2	121	221	321	NaN	521	0.230979124316946	2	1	NaN	1563658.5568663	NaN	1563659.540262	1563660.05681198
25	19	0	0	90	36.1581920903955	36.241610738255	7	0.233352280035615	2	2	5	NaN	1	3	0.244781946575837	1	1	NaN	186	3	60	2	121	221	321	NaN	521	0.312765619484708	1	1	NaN	1563661.1071111	NaN	1563662.0905242	1563662.60705358
25	19	0	0	90	36.1581920903955	36.241610738255	17	0.566712680086493	2	6	6	NaN	1	3	0.244781946575837	1	1	NaN	187	3	61	2	121	221	321	NaN	521	0.223278571851552	1	1	NaN	1563663.740609	NaN	1563664.7241229	1563665.24065503
25	19	0	0	90	36.1581920903955	36.241610738255	14	0.46670456007123	2	1	4	NaN	1	3	0.244781946575837	1	1	NaN	188	3	62	2	121	221	321	NaN	521	0.312916824128479	1	1	NaN	1563666.2909857	NaN	1563667.2743711	1563667.79089488
25	19	0	0	90	36.1581920903955	36.241610738255	12	0.400032480061054	2	3	4	NaN	1	4	0.244781946575837	1	1	NaN	189	3	63	2	121	221	321	NaN	521	0.183397424174473	1	1	NaN	1563668.9245567	NaN	1563669.907933	1563670.42450858
25	19	0	0	90	36.1581920903955	36.241610738255	19	0.633384760096669	2	7	5	NaN	2	4	0.244781946575837	1	1	NaN	190	4	1	2	121	221	321	NaN	521	0.14723782427609	1	0	NaN	1563675.80854	NaN	1563676.7919686	1563677.30849928
25	19	0	0	90	36.1581920903955	36.241610738255	20	0.666720800101757	2	11	4	NaN	2	3	0.244781946575837	1	1	NaN	191	4	2	2	121	221	321	NaN	521	0.431632638210431	2	1	NaN	1563678.2921453	NaN	1563679.2755739	1563679.79207766
25	19	0	0	90	36.1581920903955	36.241610738255	7	0.233352280035615	2	1	4	NaN	1	5	0.244781946575837	1	1	NaN	192	4	3	2	121	221	321	NaN	521	0.281583519419655	1	1	NaN	1563681.0424249	NaN	1563682.0258264	1563682.54234358
25	19	0	0	90	36.1581920903955	36.241610738255	8	0.266688320040703	2	3	1	NaN	1	4	0.244781946575837	1	1	NaN	193	4	4	2	121	221	321	NaN	521	0.217537176562473	1	1	NaN	1563683.6426848	NaN	1563684.6260868	1563685.14261062
25	19	0	0	90	36.1581920903955	36.241610738255	0	0	1	1	1	NaN	1	3	0.244781946575837	1	1	NaN	194	4	5	2	111	211	311	NaN	511	0.195576081285253	1	1	NaN	1563686.1762526	NaN	1563687.1596554	1563687.67618812
25	19	0	0	90	36.1581920903955	36.241610738255	0	0	1	4	1	NaN	1	3	0.244781946575837	1	1	NaN	195	4	6	2	111	211	311	NaN	511	0.214635481126606	1	1	NaN	1563688.6930549	NaN	1563689.6766066	1563690.19310672
25	19	0	0	90	36.1581920903955	36.241610738255	8	0.266688320040703	2	7	4	NaN	2	3	0.244781946575837	1	1	NaN	196	4	7	2	121	221	321	NaN	521	0.745036519365385	2	1	NaN	1563691.2267335	NaN	1563692.2101437	1563692.72667958
25	19	0	0	90	36.1581920903955	36.241610738255	8	0.266688320040703	2	11	2	NaN	2	3	0.244781946575837	1	1	NaN	197	4	8	2	121	221	321	NaN	521	0.238136271946132	2	1	NaN	1563694.2937056	NaN	1563695.2771261	1563695.79365223
25	19	0	0	90	36.1581920903955	36.241610738255	10	0.333360400050879	2	11	2	NaN	2	3	0.244781946575837	1	1	NaN	198	4	9	2	121	221	321	NaN	521	0.215949571691453	2	1	NaN	1563696.843997	NaN	1563697.8273703	1563698.34389973
25	19	0	0	90	36.1581920903955	36.241610738255	8	0.266688320040703	2	1	2	NaN	1	3	0.244781946575837	1	1	NaN	199	4	10	2	121	221	321	NaN	521	0.239382976433262	1	1	NaN	1563699.4442292	NaN	1563700.4276842	1563700.94415962
25	19	0	0	90	36.1581920903955	36.241610738255	12	0.400032480061054	2	4	6	NaN	1	4	0.244781946575837	1	1	NaN	200	4	11	2	121	221	321	NaN	521	0.295774224214256	1	1	NaN	1563702.0443635	NaN	1563703.0279117	1563703.54440738
25	19	0	0	90	36.1581920903955	36.241610738255	17	0.566712680086493	2	12	5	NaN	2	5	0.244781946575837	1	1	NaN	201	4	12	2	121	221	321	NaN	521	0.270531419431791	2	1	NaN	1563704.6614058	NaN	1563705.6448325	1563706.16133098
25	19	0	0	90	36.1581920903955	36.241610738255	21	0.700056840106845	2	12	5	NaN	2	5	0.244781946575837	1	1	NaN	202	4	13	2	121	221	321	NaN	521	0.271640285849571	2	1	NaN	1563707.4282996	NaN	1563708.4117496	1563708.92827601
25	19	0	0	90	36.1581920903955	36.241610738255	8	0.266688320040703	2	8	6	NaN	2	3	0.244781946575837	1	1	NaN	203	4	14	2	121	221	321	NaN	521	0.255980666959658	2	1	NaN	1563710.0119345	NaN	1563710.995304	1563711.51188123
25	19	0	0	90	36.1581920903955	36.241610738255	25	0.833401000127196	2	7	4	NaN	2	5	0.244781946575837	1	1	NaN	204	4	15	2	121	221	321	NaN	521	0.254640971776098	1	0	NaN	1563712.6455058	NaN	1563713.6288765	1563714.14544193
25	19	0	0	90	36.1581920903955	36.241610738255	15	0.500040600076318	2	7	3	NaN	2	4	0.244781946575837	1	1	NaN	205	4	16	2	121	221	321	NaN	521	0.486811967100948	1	0	NaN	1563715.2290877	NaN	1563716.2124869	1563716.72902433
25	19	0	0	90	36.1581920903955	36.241610738255	21	0.700056840106845	2	3	6	NaN	1	5	0.244781946575837	1	1	NaN	206	4	17	2	121	221	321	NaN	521	0.222529519582167	1	1	NaN	1563718.0293865	NaN	1563719.0127709	1563719.52931508
25	19	0	0	90	36.1581920903955	36.241610738255	8	0.266688320040703	2	10	5	NaN	2	3	0.244781946575837	1	1	NaN	207	4	18	2	121	221	321	NaN	521	0.264238724019378	2	1	NaN	1563720.5796088	NaN	1563721.5630359	1563722.07955988
25	19	0	0	90	36.1581920903955	36.241610738255	15	0.500040600076318	2	2	1	NaN	1	4	0.244781946575837	1	1	NaN	208	4	19	2	121	221	321	NaN	521	0.113115672022104	1	1	NaN	1563723.1632155	NaN	1563724.1466142	1563724.66314343
25	19	0	0	90	36.1581920903955	36.241610738255	17	0.566712680086493	2	3	2	NaN	1	4	0.244781946575837	1	1	NaN	209	4	20	2	121	221	321	NaN	521	0.239264024421573	1	1	NaN	1563725.5968298	NaN	1563726.5802262	1563727.09672958
25	19	0	0	90	36.1581920903955	36.241610738255	11	0.366696440055966	2	1	4	NaN	1	4	0.244781946575837	1	1	NaN	210	4	21	2	121	221	321	NaN	521	0.248387819388881	1	1	NaN	1563728.3636965	NaN	1563729.3471091	1563729.86364848
25	19	0	0	90	36.1581920903955	36.241610738255	18	0.600048720091581	2	9	5	NaN	2	3	0.244781946575837	1	1	NaN	211	4	22	2	121	221	321	NaN	521	0.240875167073682	2	1	NaN	1563730.9306417	NaN	1563731.9140132	1563732.43057973
25	19	0	0	90	36.1581920903955	36.241610738255	19	0.633384760096669	2	9	6	NaN	2	4	0.244781946575837	1	1	NaN	212	4	23	2	121	221	321	NaN	521	0.362778871785849	2	1	NaN	1563733.4975478	NaN	1563734.4809468	1563734.99749343
25	19	0	0	90	36.1581920903955	36.241610738255	8	0.266688320040703	2	7	6	NaN	2	4	0.244781946575837	1	1	NaN	213	4	24	2	121	221	321	NaN	521	0.238825324224308	2	1	NaN	1563736.1812342	NaN	1563737.1645632	1563737.68108458
25	19	0	0	90	36.1581920903955	36.241610738255	11	0.366696440055966	2	12	1	NaN	2	3	0.244781946575837	1	1	NaN	214	4	25	2	121	221	321	NaN	521	0.15220218594186	2	1	NaN	1563738.7480971	NaN	1563739.7315507	1563740.24801881
25	19	0	0	90	36.1581920903955	36.241610738255	16	0.533376640081406	2	4	2	NaN	1	3	0.244781946575837	1	1	NaN	215	4	26	2	121	221	321	NaN	521	0.317021419527009	2	0	NaN	1563741.2149895	NaN	1563742.1984733	1563742.71491288
25	19	0	0	90	36.1581920903955	36.241610738255	6	0.200016240030527	2	7	2	NaN	2	4	0.244781946575837	1	1	NaN	216	4	27	2	121	221	321	NaN	521	0.267324719345197	2	1	NaN	1563743.8485917	NaN	1563744.8319596	1563745.34850068
25	19	0	0	90	36.1581920903955	36.241610738255	18	0.600048720091581	2	8	4	NaN	2	5	0.244781946575837	1	1	NaN	217	4	28	2	121	221	321	NaN	521	0.331925028935075	2	1	NaN	1563746.4321654	NaN	1563747.4155725	1563747.93209487
25	19	0	0	90	36.1581920903955	36.241610738255	7	0.233352280035615	2	4	1	NaN	1	4	0.244781946575837	1	1	NaN	218	4	29	2	121	221	321	NaN	521	0.321713285753503	1	1	NaN	1563749.0824029	NaN	1563750.0658228	1563750.58236581
25	19	0	0	90	36.1581920903955	36.241610738255	20	0.666720800101757	2	4	6	NaN	1	3	0.244781946575837	1	1	NaN	219	4	30	2	121	221	321	NaN	521	0.239260390633717	1	1	NaN	1563751.732678	NaN	1563752.7160816	1563753.23263501
25	19	0	0	90	36.1581920903955	36.241610738255	20	0.666720800101757	2	4	5	NaN	1	4	0.244781946575837	1	1	NaN	220	4	31	2	121	221	321	NaN	521	0.328339971834794	1	1	NaN	1563754.2996184	NaN	1563755.2829754	1563755.79953623
25	19	0	0	90	36.1581920903955	36.241610738255	15	0.500040600076318	2	10	2	NaN	2	4	0.244781946575837	1	1	NaN	221	4	32	2	121	221	321	NaN	521	0.382045733509585	2	1	NaN	1563756.9498511	NaN	1563757.9332611	1563758.44979847
25	19	0	0	90	36.1581920903955	36.241610738255	8	0.266688320040703	2	9	4	NaN	2	4	0.244781946575837	1	1	NaN	222	4	33	2	121	221	321	NaN	521	0.370210767025128	2	1	NaN	1563759.6501428	NaN	1563760.6335576	1563761.15005503
25	19	0	0	90	36.1581920903955	36.241610738255	22	0.733392880111933	2	4	6	NaN	1	4	0.244781946575837	1	1	NaN	223	4	34	2	121	221	321	NaN	521	0.365874967072159	2	0	NaN	1563762.3503241	NaN	1563763.3337887	1563763.85032853
25	19	0	0	90	36.1581920903955	36.241610738255	12	0.400032480061054	2	8	1	NaN	2	5	0.244781946575837	1	1	NaN	224	4	35	2	121	221	321	NaN	521	0.282426071818918	2	1	NaN	1563765.0339826	NaN	1563766.017359	1563766.53391743
25	19	0	0	90	36.1581920903955	36.241610738255	18	0.600048720091581	2	11	4	NaN	2	5	0.244781946575837	1	1	NaN	225	4	36	2	121	221	321	NaN	521	0.505749667063355	2	1	NaN	1563767.6341689	NaN	1563768.6176581	1563769.13417763
25	19	0	0	90	36.1581920903955	36.241610738255	12	0.400032480061054	2	12	3	NaN	2	5	0.244781946575837	1	1	NaN	226	4	37	2	121	221	321	NaN	521	0.304043524200097	2	1	NaN	1563770.4678503	NaN	1563771.4512558	1563771.96779198
25	19	0	0	90	36.1581920903955	36.241610738255	18	0.600048720091581	2	10	2	NaN	2	4	0.244781946575837	1	1	NaN	227	4	38	2	121	221	321	NaN	521	0.598527371883392	2	1	NaN	1563773.1014497	NaN	1563774.084832	1563774.60137123
25	19	0	0	90	36.1581920903955	36.241610738255	10	0.333360400050879	2	5	2	NaN	1	5	0.244781946575837	1	1	NaN	228	4	39	2	121	221	321	NaN	521	0.249553924426436	1	1	NaN	1563776.0183874	NaN	1563777.0018124	1563777.51833058
25	19	0	0	90	36.1581920903955	36.241610738255	23	0.766728920117021	2	11	4	NaN	2	4	0.244781946575837	1	1	NaN	229	4	40	2	121	221	321	NaN	521	0.370626424206421	2	1	NaN	1563778.5853307	NaN	1563779.5687336	1563780.08524538
25	19	0	0	90	36.1581920903955	36.241610738255	10	0.333360400050879	2	4	3	NaN	1	3	0.244781946575837	1	1	NaN	230	4	41	2	121	221	321	NaN	521	0.238670299993828	1	1	NaN	1563781.2855798	NaN	1563782.2689626	1563782.7855224
25	19	0	0	90	36.1581920903955	36.241610738255	0	0	1	7	6	NaN	2	5	0.244781946575837	1	1	NaN	231	4	42	2	111	211	311	NaN	511	0.248170629143715	2	1	NaN	1563783.8358372	NaN	1563784.8192331	1563785.33577017
25	19	0	0	90	36.1581920903955	36.241610738255	9	0.300024360045791	2	3	3	NaN	1	5	0.244781946575837	1	1	NaN	232	4	43	2	121	221	321	NaN	521	0.280946685932577	1	1	NaN	1563786.4027625	NaN	1563787.3861211	1563787.90268131
25	19	0	0	90	36.1581920903955	36.241610738255	6	0.200016240030527	2	9	5	NaN	2	4	0.244781946575837	1	1	NaN	233	4	44	2	121	221	321	NaN	521	0.248978724237531	2	1	NaN	1563789.0030114	NaN	1563789.9864385	1563790.50294598
25	19	0	0	90	36.1581920903955	36.241610738255	6	0.200016240030527	2	11	6	NaN	2	3	0.244781946575837	1	1	NaN	234	4	45	2	121	221	321	NaN	521	0.273986124200746	2	1	NaN	1563791.5699037	NaN	1563792.5533303	1563793.06987778
25	19	0	0	90	36.1581920903955	36.241610738255	11	0.366696440055966	2	9	1	NaN	2	3	0.244781946575837	1	1	NaN	235	4	46	2	121	221	321	NaN	521	0.33779477654025	2	1	NaN	1563794.1702012	NaN	1563795.1535639	1563795.67011962
25	19	0	0	90	36.1581920903955	36.241610738255	10	0.333360400050879	2	9	1	NaN	2	4	0.244781946575837	1	1	NaN	236	4	47	2	121	221	321	NaN	521	0.430849676718935	2	1	NaN	1563796.83708	NaN	1563797.820515	1563798.33704732
25	19	0	0	90	36.1581920903955	36.241610738255	14	0.46670456007123	2	2	5	NaN	1	4	0.244781946575837	1	1	NaN	237	4	48	2	121	221	321	NaN	521	0.272669824073091	1	1	NaN	1563799.5872795	NaN	1563800.5707768	1563801.08730678
25	19	0	0	90	36.1581920903955	36.241610738255	12	0.400032480061054	2	12	2	NaN	2	4	0.244781946575837	1	1	NaN	238	4	49	2	121	221	321	NaN	521	0.240509319584817	2	1	NaN	1563802.1876213	NaN	1563803.1710263	1563803.68755978
25	19	0	0	90	36.1581920903955	36.241610738255	22	0.733392880111933	2	5	2	NaN	1	4	0.244781946575837	1	1	NaN	239	4	50	2	121	221	321	NaN	521	0.241577919572592	1	1	NaN	1563804.7545603	NaN	1563805.7379812	1563806.25448848
25	19	0	0	90	36.1581920903955	36.241610738255	21	0.700056840106845	2	7	1	NaN	2	3	0.244781946575837	1	1	NaN	240	4	51	2	121	221	321	NaN	521	0.194686228875071	2	1	NaN	1563807.3214672	NaN	1563808.3048556	1563808.82141107
25	19	0	0	90	36.1581920903955	36.241610738255	25	0.833401000127196	2	1	5	NaN	1	4	0.244781946575837	1	1	NaN	241	4	52	2	121	221	321	NaN	521	0.18969512428157	1	1	NaN	1563809.8383976	NaN	1563810.821772	1563811.33831228
25	19	0	0	90	36.1581920903955	36.241610738255	22	0.733392880111933	2	5	5	NaN	1	3	0.244781946575837	1	1	NaN	242	4	53	2	121	221	321	NaN	521	0.288820324232802	1	1	NaN	1563812.3553128	NaN	1563813.3387032	1563813.85522558
25	19	0	0	90	36.1581920903955	36.241610738255	18	0.600048720091581	2	12	2	NaN	2	3	0.244781946575837	1	1	NaN	243	4	54	2	121	221	321	NaN	521	0.696544524282217	1	0	NaN	1563814.9555628	NaN	1563815.9389489	1563816.45550278
25	19	0	0	90	36.1581920903955	36.241610738255	7	0.233352280035615	2	2	5	NaN	1	4	0.244781946575837	1	1	NaN	244	4	55	2	121	221	321	NaN	521	0.447558724321425	1	1	NaN	1563817.9724962	NaN	1563818.9559168	1563819.47246558
25	19	0	0	90	36.1581920903955	36.241610738255	17	0.566712680086493	2	3	2	NaN	1	5	0.244781946575837	1	1	NaN	245	4	56	2	121	221	321	NaN	521	0.040642719483003	1	1	NaN	1563820.7393606	NaN	1563821.7228351	1563822.23939878
25	19	0	0	90	36.1581920903955	36.241610738255	6	0.200016240030527	2	10	1	NaN	2	5	0.244781946575837	1	1	NaN	246	4	57	2	121	221	321	NaN	521	0.695475195301697	2	1	NaN	1563823.356377	NaN	1563824.3397692	1563824.8563157
25	19	0	0	90	36.1581920903955	36.241610738255	21	0.700056840106845	2	9	4	NaN	2	3	0.244781946575837	1	1	NaN	247	4	58	2	121	221	321	NaN	521	0.230768128996715	2	1	NaN	1563826.3733712	NaN	1563827.3567627	1563827.87327707
25	19	0	0	90	36.1581920903955	36.241610738255	18	0.600048720091581	2	1	6	NaN	1	3	0.244781946575837	1	1	NaN	248	4	59	2	121	221	321	NaN	521	0.136098771821707	1	1	NaN	1563828.923408	NaN	1563829.9069824	1563830.42352193
25	19	0	0	90	36.1581920903955	36.241610738255	17	0.566712680086493	2	11	5	NaN	2	4	0.244781946575837	1	1	NaN	249	4	60	2	121	221	321	NaN	521	0.341445185942575	2	1	NaN	1563831.3905173	NaN	1563832.373896	1563832.89044011
25	19	0	0	90	36.1581920903955	36.241610738255	6	0.200016240030527	2	9	4	NaN	2	5	0.244781946575837	1	1	NaN	250	4	61	2	121	221	321	NaN	521	0.23362432885915	2	1	NaN	1563834.0742282	NaN	1563835.0575115	1563835.57404107
25	19	0	0	90	36.1581920903955	36.241610738255	20	0.666720800101757	2	7	4	NaN	2	3	0.244781946575837	1	1	NaN	251	4	62	2	121	221	321	NaN	521	0.811850819503888	2	1	NaN	1563836.6242175	NaN	1563837.6077353	1563838.12426928
25	19	0	0	90	36.1581920903955	36.241610738255	24	0.800064960122108	2	3	5	NaN	1	3	0.244781946575837	1	1	NaN	252	4	63	2	121	221	321	NaN	521	0.318712571868673	1	1	NaN	1563839.7412973	NaN	1563840.7247154	1563841.24126393
25	19	0	0	90	36.1581920903955	36.241610738255	23	0.766728920117021	2	9	1	NaN	2	3	0.244781946575837	1	1	NaN	253	5	1	2	121	221	321	NaN	521	0.294170790584758	2	1	NaN	1563902.0136812	NaN	1563902.9974938	1563903.51403501
25	19	0	0	90	36.1581920903955	36.241610738255	24	0.800064960122108	2	4	1	NaN	1	3	0.244781946575837	1	1	NaN	254	5	2	2	121	221	321	NaN	521	0.292926228838041	1	1	NaN	1563904.631005	NaN	1563905.6143995	1563906.13095197
25	19	0	0	90	36.1581920903955	36.241610738255	0	0	1	10	5	NaN	2	5	0.244781946575837	1	1	NaN	255	5	3	2	111	211	311	NaN	511	0.244174724211916	2	1	NaN	1563907.2479546	NaN	1563908.2313429	1563908.74787628
25	19	0	0	90	36.1581920903955	36.241610738255	6	0.200016240030527	2	8	1	NaN	2	5	0.244781946575837	1	1	NaN	256	5	4	2	121	221	321	NaN	521	0.73438488598913	2	1	NaN	1563910.1814637	NaN	1563911.1649598	1563911.68149171
25	19	0	0	90	36.1581920903955	36.241610738255	10	0.333360400050879	2	7	6	NaN	2	4	0.244781946575837	1	1	NaN	257	5	5	2	121	221	321	NaN	521	0.324116324307397	1	0	NaN	1563913.2317346	NaN	1563914.215265	1563914.73179218
25	19	0	0	90	36.1581920903955	36.241610738255	22	0.733392880111933	2	6	1	NaN	1	3	0.244781946575837	1	1	NaN	258	5	6	2	121	221	321	NaN	521	0.287006119498983	1	1	NaN	1563916.1486804	NaN	1563917.1322247	1563917.64874538
25	19	0	0	90	36.1581920903955	36.241610738255	24	0.800064960122108	2	9	5	NaN	2	5	0.244781946575837	1	1	NaN	259	5	7	2	121	221	321	NaN	521	0.327927124453709	2	1	NaN	1563918.9322668	NaN	1563919.9158336	1563920.43234678
25	19	0	0	90	36.1581920903955	36.241610738255	16	0.533376640081406	2	12	6	NaN	2	3	0.244781946575837	1	1	NaN	260	5	8	2	121	221	321	NaN	521	0.515605747699738	2	1	NaN	1563921.6326728	NaN	1563922.6160794	1563923.13263175
25	19	0	0	90	36.1581920903955	36.241610738255	14	0.46670456007123	2	4	4	NaN	1	4	0.244781946575837	1	1	NaN	261	5	9	2	121	221	321	NaN	521	0.329985219519585	1	1	NaN	1563924.4663233	NaN	1563925.4495855	1563925.96623068
25	19	0	0	90	36.1581920903955	36.241610738255	19	0.633384760096669	2	6	5	NaN	1	5	0.244781946575837	1	1	NaN	262	5	10	2	121	221	321	NaN	521	0.255829919362441	1	1	NaN	1563927.116536	NaN	1563928.0999695	1563928.61648398
25	19	0	0	90	36.1581920903955	36.241610738255	24	0.800064960122108	2	8	5	NaN	2	3	0.244781946575837	1	1	NaN	263	5	11	2	121	221	321	NaN	521	0.416283924132586	2	1	NaN	1563929.7001484	NaN	1563930.683563	1563931.20008078
25	19	0	0	90	36.1581920903955	36.241610738255	10	0.333360400050879	2	7	6	NaN	2	3	0.244781946575837	1	1	NaN	264	5	12	2	121	221	321	NaN	521	0.370845124358311	2	1	NaN	1563932.4337282	NaN	1563933.4171288	1563933.93366858
25	19	0	0	90	36.1581920903955	36.241610738255	22	0.733392880111933	2	7	1	NaN	2	5	0.244781946575837	1	1	NaN	265	5	13	2	121	221	321	NaN	521	0.342678014887497	2	1	NaN	1563935.1340518	NaN	1563936.1173965	1563936.63394289
25	19	0	0	90	36.1581920903955	36.241610738255	20	0.666720800101757	2	7	2	NaN	2	5	0.244781946575837	1	1	NaN	266	5	14	2	121	221	321	NaN	521	0.331704224226996	2	1	NaN	1563937.8009245	NaN	1563938.784326	1563939.30087578
25	19	0	0	90	36.1581920903955	36.241610738255	23	0.766728920117021	2	11	4	NaN	2	4	0.244781946575837	1	1	NaN	267	5	15	2	121	221	321	NaN	521	0.289110324112698	2	1	NaN	1563940.4511767	NaN	1563941.4345068	1563941.95113718
25	19	0	0	90	36.1581920903955	36.241610738255	20	0.666720800101757	2	3	5	NaN	1	5	0.244781946575837	1	1	NaN	268	5	16	2	121	221	321	NaN	521	1.0565945240669	1	1	NaN	1563943.4514042	NaN	1563944.4348846	1563944.95141858
25	19	0	0	90	36.1581920903955	36.241610738255	25	0.833401000127196	2	1	1	NaN	1	3	0.244781946575837	1	1	NaN	269	5	17	2	121	221	321	NaN	521	0.305566871771589	1	1	NaN	1563946.8184892	NaN	1563947.801872	1563948.31842423
25	19	0	0	90	36.1581920903955	36.241610738255	16	0.533376640081406	2	5	3	NaN	1	3	0.244781946575837	1	1	NaN	270	5	18	2	121	221	321	NaN	521	0.332841200986877	1	1	NaN	1563949.7354453	NaN	1563950.7187241	1563951.2353818
25	19	0	0	90	36.1581920903955	36.241610738255	14	0.46670456007123	2	3	3	NaN	1	4	0.244781946575837	1	1	NaN	271	5	19	2	121	221	321	NaN	521	0.23994027171284	1	1	NaN	1563952.652394	NaN	1563953.6357831	1563954.15232353
25	19	0	0	90	36.1581920903955	36.241610738255	24	0.800064960122108	2	3	1	NaN	1	5	0.244781946575837	1	1	NaN	272	5	20	2	121	221	321	NaN	521	0.261619224213064	1	1	NaN	1563955.7026652	NaN	1563956.6860914	1563957.20263978
25	19	0	0	90	36.1581920903955	36.241610738255	22	0.733392880111933	2	11	5	NaN	2	5	0.244781946575837	1	1	NaN	273	5	21	2	121	221	321	NaN	521	0.276452124351636	2	1	NaN	1563958.7195369	NaN	1563959.7030607	1563960.21959258
25	19	0	0	90	36.1581920903955	36.241610738255	7	0.233352280035615	2	8	4	NaN	2	4	0.244781946575837	1	1	NaN	274	5	22	2	121	221	321	NaN	521	0.439013838302344	2	1	NaN	1563961.6532816	NaN	1563962.6366616	1563963.15321546
25	19	0	0	90	36.1581920903955	36.241610738255	17	0.566712680086493	2	9	6	NaN	2	4	0.244781946575837	1	1	NaN	275	5	23	2	121	221	321	NaN	521	0.305036095203832	2	1	NaN	1563964.4035619	NaN	1563965.3869437	1563965.903485
25	19	0	0	90	36.1581920903955	36.241610738255	16	0.533376640081406	2	8	1	NaN	2	5	0.244781946575837	1	1	NaN	276	5	24	2	121	221	321	NaN	521	0.191323019331321	2	1	NaN	1563967.0371341	NaN	1563968.0205374	1563968.53707638
25	19	0	0	90	36.1581920903955	36.241610738255	16	0.533376640081406	2	2	1	NaN	1	5	0.244781946575837	1	1	NaN	277	5	25	2	121	221	321	NaN	521	0.269776867004111	2	0	NaN	1563969.6706874	NaN	1563970.6541461	1563971.17066863
25	19	0	0	90	36.1581920903955	36.241610738255	14	0.46670456007123	2	6	4	NaN	1	3	0.244781946575837	1	1	NaN	278	5	26	2	121	221	321	NaN	521	0.261666824109852	1	1	NaN	1563972.2709895	NaN	1563973.254407	1563973.77092038
25	19	0	0	90	36.1581920903955	36.241610738255	20	0.666720800101757	2	8	2	NaN	2	4	0.244781946575837	1	1	NaN	279	5	27	2	121	221	321	NaN	521	0.183866047533229	2	1	NaN	1563975.0045607	NaN	1563975.9880007	1563976.50452545
25	19	0	0	90	36.1581920903955	36.241610738255	15	0.500040600076318	2	9	5	NaN	2	4	0.244781946575837	1	1	NaN	280	5	28	2	121	221	321	NaN	521	0.302089519333094	2	1	NaN	1563977.638231	NaN	1563978.6215614	1563979.13810678
25	19	0	0	90	36.1581920903955	36.241610738255	13	0.433368520066142	2	3	6	NaN	1	4	0.244781946575837	1	1	NaN	281	5	29	2	121	221	321	NaN	521	0.269537895219401	1	1	NaN	1563980.2551076	NaN	1563981.2385098	1563981.7550621
25	19	0	0	90	36.1581920903955	36.241610738255	8	0.266688320040703	2	4	5	NaN	1	5	0.244781946575837	1	1	NaN	282	5	30	2	121	221	321	NaN	521	0.317903290735558	1	1	NaN	1563982.8385533	NaN	1563983.8221157	1563984.33863401
25	19	0	0	90	36.1581920903955	36.241610738255	6	0.200016240030527	2	5	2	NaN	1	4	0.244781946575837	1	1	NaN	283	5	31	2	121	221	321	NaN	521	0.259792271768674	1	1	NaN	1563985.4889416	NaN	1563986.4723537	1563986.98888753
25	19	0	0	90	36.1581920903955	36.241610738255	7	0.233352280035615	2	8	4	NaN	2	4	0.244781946575837	1	1	NaN	284	5	32	2	121	221	321	NaN	521	0.0104460718575865	1	0	NaN	1563988.0725409	NaN	1563989.055944	1563989.57246773
25	19	0	0	90	36.1581920903955	36.241610738255	8	0.266688320040703	2	9	1	NaN	2	4	0.244781946575837	1	1	NaN	285	5	33	2	121	221	321	NaN	521	0.158565624151379	2	1	NaN	1563990.3894104	NaN	1563991.3728023	1563991.88937098
25	19	0	0	90	36.1581920903955	36.241610738255	13	0.433368520066142	2	5	2	NaN	1	5	0.244781946575837	1	1	NaN	286	5	34	2	121	221	321	NaN	521	0.122053266968578	1	1	NaN	1563992.9063289	NaN	1563993.889746	1563994.40626863
25	19	0	0	90	36.1581920903955	36.241610738255	12	0.400032480061054	2	2	1	NaN	1	4	0.244781946575837	1	1	NaN	287	5	35	2	121	221	321	NaN	521	0.144409019500017	1	1	NaN	1563995.3399144	NaN	1563996.323326	1563996.83985078
25	19	0	0	90	36.1581920903955	36.241610738255	22	0.733392880111933	2	3	2	NaN	1	5	0.244781946575837	1	1	NaN	288	5	36	2	121	221	321	NaN	521	0.253787524299696	1	1	NaN	1563997.8068243	NaN	1563998.7902235	1563999.30676818
25	19	0	0	90	36.1581920903955	36.241610738255	24	0.800064960122108	2	7	5	NaN	2	4	0.244781946575837	1	1	NaN	289	5	37	2	121	221	321	NaN	521	0.189852467272431	2	1	NaN	1564000.7904617	NaN	1564001.7738495	1564002.29037793
25	19	0	0	90	36.1581920903955	36.241610738255	18	0.600048720091581	2	1	6	NaN	1	3	0.244781946575837	1	1	NaN	290	5	38	2	121	221	321	NaN	521	0.32162942411378	1	1	NaN	1564003.2905785	NaN	1564004.2740931	1564004.79062408
25	19	0	0	90	36.1581920903955	36.241610738255	21	0.700056840106845	2	3	4	NaN	1	4	0.244781946575837	1	1	NaN	291	5	39	2	121	221	321	NaN	521	0.220156071940437	1	1	NaN	1564006.4243013	NaN	1564007.4077387	1564007.92426593
25	19	0	0	90	36.1581920903955	36.241610738255	18	0.600048720091581	2	4	2	NaN	1	5	0.244781946575837	1	1	NaN	292	5	40	2	121	221	321	NaN	521	0.33972227666527	1	1	NaN	1564009.0245988	NaN	1564010.0079889	1564010.52453082
25	19	0	0	90	36.1581920903955	36.241610738255	12	0.400032480061054	2	9	3	NaN	2	3	0.244781946575837	1	1	NaN	293	5	41	2	121	221	321	NaN	521	0.266084371833131	2	1	NaN	1564012.0581106	NaN	1564013.0415946	1564013.55817063
25	19	0	0	90	36.1581920903955	36.241610738255	16	0.533376640081406	2	11	2	NaN	2	3	0.244781946575837	1	1	NaN	294	5	42	2	121	221	321	NaN	521	0.307855224236846	2	1	NaN	1564015.2085224	NaN	1564016.1919244	1564016.70847908
25	19	0	0	90	36.1581920903955	36.241610738255	13	0.433368520066142	2	9	4	NaN	2	3	0.244781946575837	1	1	NaN	295	5	43	2	121	221	321	NaN	521	0.226735842879862	2	1	NaN	1564017.8253426	NaN	1564018.8088444	1564019.32540226
25	19	0	0	90	36.1581920903955	36.241610738255	17	0.566712680086493	2	5	6	NaN	1	5	0.244781946575837	1	1	NaN	296	5	44	2	121	221	321	NaN	521	0.420424276730046	1	1	NaN	1564020.3756907	NaN	1564021.3591567	1564021.87564142
25	19	0	0	90	36.1581920903955	36.241610738255	11	0.366696440055966	2	10	5	NaN	2	5	0.244781946575837	1	1	NaN	297	5	45	2	121	221	321	NaN	521	0.477718581212685	2	1	NaN	1564023.1425124	NaN	1564024.1260464	1564024.64257822
25	19	0	0	90	36.1581920903955	36.241610738255	18	0.600048720091581	2	6	2	NaN	1	4	0.244781946575837	1	1	NaN	298	5	46	2	121	221	321	NaN	521	0.278184633469209	1	1	NaN	1564025.9262434	NaN	1564026.9096603	1564027.42618617
25	19	0	0	90	36.1581920903955	36.241610738255	16	0.533376640081406	2	12	1	NaN	2	5	0.244781946575837	1	1	NaN	299	5	47	2	121	221	321	NaN	521	0.238555824384093	2	1	NaN	1564028.5098508	NaN	1564029.4931507	1564030.00978368
25	19	0	0	90	36.1581920903955	36.241610738255	25	0.833401000127196	2	2	2	NaN	1	3	0.244781946575837	1	1	NaN	300	5	48	2	121	221	321	NaN	521	0.415698047494516	1	1	NaN	1564031.0767673	NaN	1564032.0601361	1564032.57669505
25	19	0	0	90	36.1581920903955	36.241610738255	17	0.566712680086493	2	1	1	NaN	1	3	0.244781946575837	1	1	NaN	301	5	49	2	121	221	321	NaN	521	0.305673424387351	1	1	NaN	1564033.8102164	NaN	1564034.7937409	1564035.31028918
25	19	0	0	90	36.1581920903955	36.241610738255	10	0.333360400050879	2	8	5	NaN	2	4	0.244781946575837	1	1	NaN	302	5	50	2	121	221	321	NaN	521	0.230432090815157	2	1	NaN	1564036.4939398	NaN	1564037.4773368	1564037.99390001
25	19	0	0	90	36.1581920903955	36.241610738255	20	0.666720800101757	2	6	2	NaN	1	4	0.244781946575837	1	1	NaN	303	5	51	2	121	221	321	NaN	521	0.288448324194178	1	1	NaN	1564039.0442226	NaN	1564040.0275822	1564040.54415798
25	19	0	0	90	36.1581920903955	36.241610738255	0	0	1	12	3	NaN	2	5	0.244781946575837	1	1	NaN	304	5	52	2	111	211	311	NaN	511	0.28723437176086	2	1	NaN	1564041.6611163	NaN	1564042.6445192	1564043.16105603
25	19	0	0	90	36.1581920903955	36.241610738255	13	0.433368520066142	2	6	6	NaN	1	5	0.244781946575837	1	1	NaN	305	5	53	2	121	221	321	NaN	521	0.288378571625799	1	1	NaN	1564044.6280997	NaN	1564045.6113793	1564046.12803863
25	19	0	0	90	36.1581920903955	36.241610738255	13	0.433368520066142	2	4	6	NaN	1	3	0.244781946575837	1	1	NaN	306	5	54	2	121	221	321	NaN	521	0.210232724202797	1	1	NaN	1564047.378359	NaN	1564048.3617474	1564048.87828318
25	19	0	0	90	36.1581920903955	36.241610738255	14	0.46670456007123	2	1	5	NaN	1	4	0.244781946575837	1	1	NaN	307	5	55	2	121	221	321	NaN	521	0.469647576566786	1	1	NaN	1564050.2786309	NaN	1564051.2620481	1564051.77859512
25	19	0	0	90	36.1581920903955	36.241610738255	15	0.500040600076318	2	5	4	NaN	1	5	0.244781946575837	1	1	NaN	308	5	56	2	121	221	321	NaN	521	0.337125476682559	1	1	NaN	1564053.3956238	NaN	1564054.3790143	1564054.89556252
25	19	0	0	90	36.1581920903955	36.241610738255	7	0.233352280035615	2	7	3	NaN	2	3	0.244781946575837	1	1	NaN	309	5	57	2	121	221	321	NaN	521	0.197049272013828	1	0	NaN	1564056.4791999	NaN	1564057.462667	1564057.97918153
25	19	0	0	90	36.1581920903955	36.241610738255	19	0.633384760096669	2	2	3	NaN	1	4	0.244781946575837	1	1	NaN	310	5	58	2	121	221	321	NaN	521	0.379866219358519	1	1	NaN	1564059.2962035	NaN	1564060.2795529	1564060.79611888
25	19	0	0	90	36.1581920903955	36.241610738255	22	0.733392880111933	2	8	2	NaN	2	3	0.244781946575837	1	1	NaN	311	5	59	2	121	221	321	NaN	521	0.221876671770588	2	1	NaN	1564062.8465046	NaN	1564063.8299366	1564064.34646573
25	19	0	0	90	36.1581920903955	36.241610738255	8	0.266688320040703	2	12	2	NaN	2	3	0.244781946575837	1	1	NaN	312	5	60	2	121	221	321	NaN	521	0.25893972418271	2	1	NaN	1564065.71347	NaN	1564066.6968835	1564067.21341368
25	19	0	0	90	36.1581920903955	36.241610738255	17	0.566712680086493	2	2	4	NaN	1	4	0.244781946575837	1	1	NaN	313	5	61	2	121	221	321	NaN	521	2.02784629981034	2	0	NaN	1564068.6803021	NaN	1564069.6638479	1564070.1804043
25	19	0	0	90	36.1581920903955	36.241610738255	13	0.433368520066142	2	12	6	NaN	2	4	0.244781946575837	1	1	NaN	314	5	62	2	121	221	321	NaN	521	0.293718424160033	2	1	NaN	1564073.0308543	NaN	1564074.0142545	1564074.53080388
25	19	0	0	90	36.1581920903955	36.241610738255	0	0	1	11	1	NaN	2	4	0.244781946575837	1	1	NaN	315	5	63	2	111	211	311	NaN	511	0.219226666959003	2	1	NaN	1564075.8811304	NaN	1564076.86455	1564077.38108023
25	19	0	0	90	36.1581920903955	36.241610738255	25	0.833401000127196	2	7	4	NaN	2	3	0.244781946575837	1	1	NaN	316	6	1	2	121	221	321	NaN	521	0.283791643101722	1	0	NaN	1564091.632686	NaN	1564092.6161014	1564093.13263846
25	19	0	0	90	36.1581920903955	36.241610738255	11	0.366696440055966	2	4	1	NaN	1	5	0.244781946575837	1	1	NaN	317	6	2	2	121	221	321	NaN	521	0.275512038264424	1	1	NaN	1564094.232948	NaN	1564095.2163716	1564095.73288946
25	19	0	0	90	36.1581920903955	36.241610738255	14	0.46670456007123	2	9	6	NaN	2	3	0.244781946575837	1	1	NaN	318	6	3	2	121	221	321	NaN	521	0.331579367164522	2	1	NaN	1564096.8333035	NaN	1564097.8165886	1564098.33314283
25	19	0	0	90	36.1581920903955	36.241610738255	24	0.800064960122108	2	1	2	NaN	1	4	0.244781946575837	1	1	NaN	319	6	4	2	121	221	321	NaN	521	0.0490666718687862	1	1	NaN	1564099.4834816	NaN	1564100.4668634	1564100.98341073
25	19	0	0	90	36.1581920903955	36.241610738255	8	0.266688320040703	2	6	3	NaN	1	3	0.244781946575837	1	1	NaN	320	6	5	2	121	221	321	NaN	521	0.0662080717738718	1	1	NaN	1564101.8503816	NaN	1564102.8337588	1564103.35029743
25	19	0	0	90	36.1581920903955	36.241610738255	7	0.233352280035615	2	9	3	NaN	2	5	0.244781946575837	1	1	NaN	321	6	6	2	121	221	321	NaN	521	0.23539612442255	2	1	NaN	1564104.2171563	NaN	1564105.200651	1564105.71719248
25	19	0	0	90	36.1581920903955	36.241610738255	20	0.666720800101757	2	10	6	NaN	2	4	0.244781946575837	1	1	NaN	322	6	7	2	121	221	321	NaN	521	0.244942524237558	2	1	NaN	1564106.7675517	NaN	1564107.7509121	1564108.26744978
25	19	0	0	90	36.1581920903955	36.241610738255	6	0.200016240030527	2	5	3	NaN	1	5	0.244781946575837	1	1	NaN	323	6	8	2	121	221	321	NaN	521	0.270331424195319	1	1	NaN	1564109.3344326	NaN	1564110.3178222	1564110.83436298
25	19	0	0	90	36.1581920903955	36.241610738255	21	0.700056840106845	2	6	1	NaN	1	5	0.244781946575837	1	1	NaN	324	6	9	2	121	221	321	NaN	521	0.341140171978623	1	1	NaN	1564111.9513587	NaN	1564112.9347572	1564113.45129093
25	19	0	0	90	36.1581920903955	36.241610738255	11	0.366696440055966	2	3	5	NaN	1	4	0.244781946575837	1	1	NaN	325	6	10	2	121	221	321	NaN	521	0.232808467000723	1	1	NaN	1564115.0516548	NaN	1564116.0350416	1564116.55159173
25	19	0	0	90	36.1581920903955	36.241610738255	23	0.766728920117021	2	10	4	NaN	2	4	0.244781946575837	1	1	NaN	326	6	11	2	121	221	321	NaN	521	0.297725724056363	2	1	NaN	1564117.6185394	NaN	1564118.6019758	1564119.11851108
25	19	0	0	90	36.1581920903955	36.241610738255	9	0.300024360045791	2	10	4	NaN	2	5	0.244781946575837	1	1	NaN	327	6	12	2	121	221	321	NaN	521	0.377643590793014	2	1	NaN	1564120.4188625	NaN	1564121.4022398	1564121.91878641
25	19	0	0	90	36.1581920903955	36.241610738255	21	0.700056840106845	2	9	3	NaN	2	5	0.244781946575837	1	1	NaN	328	6	13	2	121	221	321	NaN	521	0.268144024303183	2	1	NaN	1564123.1523151	NaN	1564124.1358634	1564124.65240428
25	19	0	0	90	36.1581920903955	36.241610738255	23	0.766728920117021	2	4	5	NaN	1	5	0.244781946575837	1	1	NaN	329	6	14	2	121	221	321	NaN	521	0.216480671893805	1	1	NaN	1564126.2360952	NaN	1564127.219515	1564127.73602403
25	19	0	0	90	36.1581920903955	36.241610738255	18	0.600048720091581	2	7	1	NaN	2	3	0.244781946575837	1	1	NaN	330	6	15	2	121	221	321	NaN	521	0.263840224128217	2	1	NaN	1564128.852991	NaN	1564129.8364298	1564130.35296538
25	19	0	0	90	36.1581920903955	36.241610738255	25	0.833401000127196	2	12	3	NaN	2	5	0.244781946575837	1	1	NaN	331	6	16	2	121	221	321	NaN	521	0.302351267077029	2	1	NaN	1564131.4865045	NaN	1564132.4700089	1564132.98653293
25	19	0	0	90	36.1581920903955	36.241610738255	7	0.233352280035615	2	6	4	NaN	1	3	0.244781946575837	1	1	NaN	332	6	17	2	121	221	321	NaN	521	0.28898521955125	1	1	NaN	1564134.8035594	NaN	1564135.7870002	1564136.30352828
25	19	0	0	90	36.1581920903955	36.241610738255	24	0.800064960122108	2	10	4	NaN	2	4	0.244781946575837	1	1	NaN	333	6	18	2	121	221	321	NaN	521	0.271954776486382	2	1	NaN	1564137.4205179	NaN	1564138.4039249	1564138.92045902
25	19	0	0	90	36.1581920903955	36.241610738255	7	0.233352280035615	2	5	5	NaN	1	5	0.244781946575837	1	1	NaN	334	6	19	2	121	221	321	NaN	521	0.255734071834013	1	1	NaN	1564140.020796	NaN	1564141.0041866	1564141.52070913
25	19	0	0	90	36.1581920903955	36.241610738255	17	0.566712680086493	2	8	3	NaN	2	4	0.244781946575837	1	1	NaN	335	6	20	2	121	221	321	NaN	521	0.13414819072932	2	1	NaN	1564142.6542744	NaN	1564143.6377307	1564144.15430221
25	19	0	0	90	36.1581920903955	36.241610738255	12	0.400032480061054	2	10	2	NaN	2	4	0.244781946575837	1	1	NaN	336	6	21	2	121	221	321	NaN	521	0.260002824245021	2	1	NaN	1564145.1046324	NaN	1564146.0879865	1564146.60454198
25	19	0	0	90	36.1581920903955	36.241610738255	14	0.46670456007123	2	12	6	NaN	2	3	0.244781946575837	1	1	NaN	337	6	22	2	121	221	321	NaN	521	0.176421471871436	2	1	NaN	1564147.7881684	NaN	1564148.7716129	1564149.28814313
25	19	0	0	90	36.1581920903955	36.241610738255	21	0.700056840106845	2	11	4	NaN	2	4	0.244781946575837	1	1	NaN	338	6	23	2	121	221	321	NaN	521	0.400830924278125	2	1	NaN	1564150.571929	NaN	1564151.555213	1564152.07175048
25	19	0	0	90	36.1581920903955	36.241610738255	24	0.800064960122108	2	12	3	NaN	2	5	0.244781946575837	1	1	NaN	339	6	24	2	121	221	321	NaN	521	0.898462124168873	2	1	NaN	1564153.5216697	NaN	1564154.5055165	1564155.02204248
25	19	0	0	90	36.1581920903955	36.241610738255	17	0.566712680086493	2	7	2	NaN	2	3	0.244781946575837	1	1	NaN	340	6	25	2	121	221	321	NaN	521	0.48942452436313	2	1	NaN	1564156.7390718	NaN	1564157.7224785	1564158.23902588
25	19	0	0	90	36.1581920903955	36.241610738255	19	0.633384760096669	2	3	3	NaN	1	4	0.244781946575837	1	1	NaN	341	6	26	2	121	221	321	NaN	521	0.328577399952337	1	1	NaN	1564159.5560249	NaN	1564160.5394215	1564161.055958
25	19	0	0	90	36.1581920903955	36.241610738255	13	0.433368520066142	2	1	4	NaN	1	3	0.244781946575837	1	1	NaN	342	6	27	2	121	221	321	NaN	521	0.238202371867374	1	1	NaN	1564162.2062643	NaN	1564163.1896713	1564163.70622203
25	19	0	0	90	36.1581920903955	36.241610738255	15	0.500040600076318	2	4	5	NaN	1	4	0.244781946575837	1	1	NaN	343	6	28	2	121	221	321	NaN	521	0.225085919490084	1	1	NaN	1564164.9398774	NaN	1564165.923309	1564166.43981928
25	19	0	0	90	36.1581920903955	36.241610738255	6	0.200016240030527	2	12	2	NaN	2	5	0.244781946575837	1	1	NaN	344	6	29	2	121	221	321	NaN	521	0.466021362459287	2	1	NaN	1564167.5067963	NaN	1564168.4901936	1564169.00674014
25	19	0	0	90	36.1581920903955	36.241610738255	16	0.533376640081406	2	3	2	NaN	1	3	0.244781946575837	1	1	NaN	345	6	30	2	121	221	321	NaN	521	0.386246419511735	1	1	NaN	1564170.2904097	NaN	1564171.2738497	1564171.79034198
25	19	0	0	90	36.1581920903955	36.241610738255	11	0.366696440055966	2	8	6	NaN	2	4	0.244781946575837	1	1	NaN	346	6	31	2	121	221	321	NaN	521	0.26222260016948	2	1	NaN	1564172.9906369	NaN	1564173.9741163	1564174.4906149
25	19	0	0	90	36.1581920903955	36.241610738255	7	0.233352280035615	2	12	5	NaN	2	4	0.244781946575837	1	1	NaN	347	6	32	2	121	221	321	NaN	521	0.212974124355242	2	1	NaN	1564175.8075866	NaN	1564176.7910176	1564177.30755028
25	19	0	0	90	36.1581920903955	36.241610738255	25	0.833401000127196	2	9	4	NaN	2	3	0.244781946575837	1	1	NaN	348	6	33	2	121	221	321	NaN	521	0.247450333554298	2	1	NaN	1564178.3412191	NaN	1564179.3247888	1564179.84114157
25	19	0	0	90	36.1581920903955	36.241610738255	23	0.766728920117021	2	12	2	NaN	2	5	0.244781946575837	1	1	NaN	349	6	34	2	121	221	321	NaN	521	0.224369814852253	2	1	NaN	1564180.9081253	NaN	1564181.8915227	1564182.40804839
25	19	0	0	90	36.1581920903955	36.241610738255	9	0.300024360045791	2	4	4	NaN	1	4	0.244781946575837	1	1	NaN	350	6	35	2	121	221	321	NaN	521	0.0735572243575007	1	1	NaN	1564183.8750711	NaN	1564184.8585948	1564185.37501438
25	19	0	0	90	36.1581920903955	36.241610738255	12	0.400032480061054	2	10	5	NaN	2	4	0.244781946575837	1	1	NaN	351	6	36	2	121	221	321	NaN	521	0.285947924247012	2	1	NaN	1564186.7586484	NaN	1564187.742566	1564188.25864158
25	19	0	0	90	36.1581920903955	36.241610738255	7	0.233352280035615	2	5	3	NaN	1	3	0.244781946575837	1	1	NaN	352	6	37	2	121	221	321	NaN	521	0.197731719352305	1	1	NaN	1564189.5589083	NaN	1564190.5422994	1564191.05890208
25	19	0	0	90	36.1581920903955	36.241610738255	24	0.800064960122108	2	2	5	NaN	1	4	0.244781946575837	1	1	NaN	353	6	38	2	121	221	321	NaN	521	0.247652624035254	1	1	NaN	1564192.1091796	NaN	1564193.092581	1564193.60915728
25	19	0	0	90	36.1581920903955	36.241610738255	0	0	1	9	1	NaN	2	5	0.244781946575837	1	1	NaN	354	6	39	2	111	211	311	NaN	511	0.244820171734318	2	1	NaN	1564194.7595061	NaN	1564195.7428516	1564196.25941923
25	19	0	0	90	36.1581920903955	36.241610738255	13	0.433368520066142	2	7	5	NaN	2	5	0.244781946575837	1	1	NaN	355	6	40	2	121	221	321	NaN	521	0.771546671865508	2	1	NaN	1564197.393042	NaN	1564198.3765023	1564198.89300703
25	19	0	0	90	36.1581920903955	36.241610738255	10	0.333360400050879	2	1	4	NaN	1	3	0.244781946575837	1	1	NaN	356	6	41	2	121	221	321	NaN	521	0.287147871684283	1	1	NaN	1564200.4933792	NaN	1564201.4767762	1564201.99331363
25	19	0	0	90	36.1581920903955	36.241610738255	21	0.700056840106845	2	11	1	NaN	2	4	0.244781946575837	1	1	NaN	357	6	42	2	121	221	321	NaN	521	0.19104252429679	2	1	NaN	1564203.0936384	NaN	1564204.0770329	1564204.59356198
25	19	0	0	90	36.1581920903955	36.241610738255	23	0.766728920117021	2	8	5	NaN	2	4	0.244781946575837	1	1	NaN	358	6	43	2	121	221	321	NaN	521	0.266884438227862	2	1	NaN	1564205.5937688	NaN	1564206.5772564	1564207.09381866
25	19	0	0	90	36.1581920903955	36.241610738255	25	0.833401000127196	2	2	2	NaN	1	5	0.244781946575837	1	1	NaN	359	6	44	2	121	221	321	NaN	521	0.222406443208456	1	1	NaN	1564210.2943707	NaN	1564211.2777232	1564211.79427726
25	19	0	0	90	36.1581920903955	36.241610738255	7	0.233352280035615	2	1	5	NaN	1	3	0.244781946575837	1	1	NaN	360	6	45	2	121	221	321	NaN	521	0.335865971865132	1	1	NaN	1564213.6446499	NaN	1564214.6280791	1564215.14460453
25	19	0	0	90	36.1581920903955	36.241610738255	11	0.366696440055966	2	11	1	NaN	2	4	0.244781946575837	1	1	NaN	361	6	46	2	121	221	321	NaN	521	1.99741622409783	2	1	NaN	1564216.7116128	NaN	1564217.6950328	1564218.21158888
25	19	0	0	90	36.1581920903955	36.241610738255	14	0.46670456007123	2	7	4	NaN	2	5	0.244781946575837	1	1	NaN	362	6	47	2	121	221	321	NaN	521	0.419857381144539	2	1	NaN	1564221.5286332	NaN	1564222.5121675	1564223.02872232
25	19	0	0	90	36.1581920903955	36.241610738255	7	0.233352280035615	2	4	4	NaN	1	5	0.244781946575837	1	1	NaN	363	6	48	2	121	221	321	NaN	521	0.318269776646048	1	1	NaN	1564224.262364	NaN	1564225.2457849	1564225.76231792
25	19	0	0	90	36.1581920903955	36.241610738255	9	0.300024360045791	2	8	3	NaN	2	3	0.244781946575837	1	1	NaN	364	6	49	2	121	221	321	NaN	521	0.422676428919658	2	1	NaN	1564227.0460136	NaN	1564228.0293843	1564228.54591557
25	19	0	0	90	36.1581920903955	36.241610738255	25	0.833401000127196	2	9	2	NaN	2	3	0.244781946575837	1	1	NaN	365	6	50	2	121	221	321	NaN	521	0.197588638402522	2	1	NaN	1564230.4628721	NaN	1564231.4463915	1564231.96292036
25	19	0	0	90	36.1581920903955	36.241610738255	6	0.200016240030527	2	11	3	NaN	2	4	0.244781946575837	1	1	NaN	366	6	51	2	121	221	321	NaN	521	0.242154119536281	2	1	NaN	1564233.1466198	NaN	1564234.1299853	1564234.64650858
25	19	0	0	90	36.1581920903955	36.241610738255	22	0.733392880111933	2	6	1	NaN	1	3	0.244781946575837	1	1	NaN	367	6	52	2	121	221	321	NaN	521	0.357664067065343	1	1	NaN	1564240.0472413	NaN	1564241.030657	1564241.54719033
25	19	0	0	90	36.1581920903955	36.241610738255	23	0.766728920117021	2	7	3	NaN	2	5	0.244781946575837	1	1	NaN	368	6	53	2	121	221	321	NaN	521	0.297818133374676	1	0	NaN	1564242.7308721	NaN	1564243.714253	1564244.23079187
25	19	0	0	90	36.1581920903955	36.241610738255	25	0.833401000127196	2	4	5	NaN	1	4	0.244781946575837	1	1	NaN	369	6	54	2	121	221	321	NaN	521	0.150847585871816	1	1	NaN	1564245.3977807	NaN	1564246.3811778	1564246.89771721
25	19	0	0	90	36.1581920903955	36.241610738255	21	0.700056840106845	2	5	3	NaN	1	3	0.244781946575837	1	1	NaN	370	6	55	2	121	221	321	NaN	521	0.244088738458231	1	1	NaN	1564247.8647075	NaN	1564248.8480935	1564249.36464886
25	19	0	0	90	36.1581920903955	36.241610738255	9	0.300024360045791	2	6	4	NaN	1	4	0.244781946575837	1	1	NaN	371	6	56	2	121	221	321	NaN	521	0.340987624134868	1	1	NaN	1564250.4316079	NaN	1564251.4149989	1564251.93155128
25	19	0	0	90	36.1581920903955	36.241610738255	16	0.533376640081406	2	1	5	NaN	1	3	0.244781946575837	1	1	NaN	372	6	57	2	121	221	321	NaN	521	0.218490371713415	1	1	NaN	1564253.0985523	NaN	1564254.0819019	1564254.59847673
25	19	0	0	90	36.1581920903955	36.241610738255	15	0.500040600076318	2	12	4	NaN	2	5	0.244781946575837	1	1	NaN	373	6	58	2	121	221	321	NaN	521	0.330037024337798	2	1	NaN	1564255.6987963	NaN	1564256.682186	1564257.19874898
25	19	0	0	90	36.1581920903955	36.241610738255	0	0	1	2	4	NaN	1	3	0.244781946575837	1	1	NaN	374	6	59	2	111	211	311	NaN	511	0.376068824203685	2	0	NaN	1564258.3491116	NaN	1564259.3324312	1564259.84898308
25	19	0	0	90	36.1581920903955	36.241610738255	8	0.266688320040703	2	5	6	NaN	1	4	0.244781946575837	1	1	NaN	375	6	60	2	121	221	321	NaN	521	0.219463924178854	1	1	NaN	1564261.0493139	NaN	1564262.0327201	1564262.54926948
25	19	0	0	90	36.1581920903955	36.241610738255	8	0.266688320040703	2	2	1	NaN	1	4	0.244781946575837	1	1	NaN	376	6	61	2	121	221	321	NaN	521	0.229933819500729	1	1	NaN	1564263.5828956	NaN	1564264.566299	1564265.08282598
25	19	0	0	90	36.1581920903955	36.241610738255	18	0.600048720091581	2	3	3	NaN	1	4	0.244781946575837	1	1	NaN	377	6	62	2	121	221	321	NaN	521	0.231506876647472	1	1	NaN	1564266.133153	NaN	1564267.1165473	1564267.63310822
25	19	0	0	90	36.1581920903955	36.241610738255	16	0.533376640081406	2	6	4	NaN	1	4	0.244781946575837	1	1	NaN	378	6	63	2	121	221	321	NaN	521	0.273220724193379	1	1	NaN	1564268.6833893	NaN	1564269.6667845	1564270.18337808
25	19	0	0	90	36.1581920903955	36.241610738255	24	0.800064960122108	2	7	5	NaN	2	4	0.244781946575837	1	1	NaN	379	7	1	2	121	221	321	NaN	521	0.101277124136686	1	0	NaN	1564276.9674566	NaN	1564277.9509445	1564278.46747668
25	19	0	0	90	36.1581920903955	36.241610738255	19	0.633384760096669	2	5	3	NaN	1	5	0.244781946575837	1	1	NaN	380	7	2	2	121	221	321	NaN	521	0.297635319409892	1	1	NaN	1564280.0510504	NaN	1564281.0345703	1564281.55112108
25	19	0	0	90	36.1581920903955	36.241610738255	11	0.366696440055966	2	7	3	NaN	2	4	0.244781946575837	1	1	NaN	381	7	3	2	121	221	321	NaN	521	0.320590971736237	1	0	NaN	1564282.6679913	NaN	1564283.651504	1564284.16804233
25	19	0	0	90	36.1581920903955	36.241610738255	23	0.766728920117021	2	1	3	NaN	1	5	0.244781946575837	1	1	NaN	382	7	4	2	121	221	321	NaN	521	0.23061732435599	1	1	NaN	1564285.3183608	NaN	1564286.3017638	1564286.81831888
25	19	0	0	90	36.1581920903955	36.241610738255	9	0.300024360045791	2	5	2	NaN	1	3	0.244781946575837	1	1	NaN	383	7	5	2	121	221	321	NaN	521	0.231520771980286	1	1	NaN	1564287.8853038	NaN	1564288.8686915	1564289.38521833
25	19	0	0	90	36.1581920903955	36.241610738255	14	0.46670456007123	2	10	4	NaN	2	5	0.244781946575837	1	1	NaN	384	7	6	2	121	221	321	NaN	521	0.224609671859071	2	1	NaN	1564290.4522023	NaN	1564291.4356272	1564291.95213023
25	19	0	0	90	36.1581920903955	36.241610738255	6	0.200016240030527	2	6	6	NaN	1	3	0.244781946575837	1	1	NaN	385	7	7	2	121	221	321	NaN	521	0.30502936267294	1	1	NaN	1564293.0358439	NaN	1564294.0191759	1564294.53571894
25	19	0	0	90	36.1581920903955	36.241610738255	8	0.266688320040703	2	2	3	NaN	1	3	0.244781946575837	1	1	NaN	386	7	8	2	121	221	321	NaN	521	0.1115832766518	1	1	NaN	1564295.669365	NaN	1564296.6527685	1564297.16933742
25	19	0	0	90	36.1581920903955	36.241610738255	18	0.600048720091581	2	11	3	NaN	2	3	0.244781946575837	1	1	NaN	387	7	9	2	121	221	321	NaN	521	0.117821671999991	1	0	NaN	1564298.1029621	NaN	1564299.0863346	1564299.60288003
25	19	0	0	90	36.1581920903955	36.241610738255	19	0.633384760096669	2	8	6	NaN	2	3	0.244781946575837	1	1	NaN	388	7	10	2	121	221	321	NaN	521	0.284613567171618	2	1	NaN	1564300.5365492	NaN	1564301.5199353	1564302.03646283
25	19	0	0	90	36.1581920903955	36.241610738255	14	0.46670456007123	2	10	2	NaN	2	3	0.244781946575837	1	1	NaN	389	7	11	2	121	221	321	NaN	521	0.340024024248123	2	1	NaN	1564303.1366427	NaN	1564304.1202234	1564304.63671218
25	19	0	0	90	36.1581920903955	36.241610738255	11	0.366696440055966	2	4	4	NaN	1	3	0.244781946575837	1	1	NaN	390	7	12	2	121	221	321	NaN	521	0.161143390694633	1	1	NaN	1564305.8037151	NaN	1564306.7871041	1564307.30365331
25	19	0	0	90	36.1581920903955	36.241610738255	11	0.366696440055966	2	7	6	NaN	2	5	0.244781946575837	1	1	NaN	391	7	13	2	121	221	321	NaN	521	0.106210943078622	2	1	NaN	1564308.3706033	NaN	1564309.3540171	1564309.87056026
25	19	0	0	90	36.1581920903955	36.241610738255	10	0.333360400050879	2	6	1	NaN	1	4	0.244781946575837	1	1	NaN	392	7	14	2	121	221	321	NaN	521	0.0104474765248597	1	1	NaN	1564311.2208662	NaN	1564312.2041923	1564312.72083772
25	19	0	0	90	36.1581920903955	36.241610738255	14	0.46670456007123	2	7	1	NaN	2	3	0.244781946575837	1	1	NaN	393	7	15	2	121	221	321	NaN	521	0.088853585999459	2	1	NaN	1564314.1878694	NaN	1564315.1712383	1564315.68780071
25	19	0	0	90	36.1581920903955	36.241610738255	7	0.233352280035615	2	6	3	NaN	1	4	0.244781946575837	1	1	NaN	394	7	16	2	121	221	321	NaN	521	0.0822727670893073	1	1	NaN	1564316.7380972	NaN	1564317.7215151	1564318.23805283
25	19	0	0	90	36.1581920903955	36.241610738255	10	0.333360400050879	2	9	2	NaN	2	4	0.244781946575837	1	1	NaN	395	7	17	2	121	221	321	NaN	521	0.0105139194056392	2	1	NaN	1564319.1384079	NaN	1564320.1217598	1564320.63828028
25	19	0	0	90	36.1581920903955	36.241610738255	11	0.366696440055966	2	9	1	NaN	2	4	0.244781946575837	1	1	NaN	396	7	18	2	121	221	321	NaN	521	0.0104420671705157	2	1	NaN	1564321.4718302	NaN	1564322.455317	1564322.97184243
25	19	0	0	90	36.1581920903955	36.241610738255	11	0.366696440055966	2	10	4	NaN	2	5	0.244781946575837	1	1	NaN	397	7	19	2	121	221	321	NaN	521	2.31919958116487	2	1	NaN	1564323.8054914	NaN	1564324.788898	1564325.30541262
25	19	0	0	90	36.1581920903955	36.241610738255	10	0.333360400050879	2	3	1	NaN	1	3	0.244781946575837	1	1	NaN	398	7	20	2	121	221	321	NaN	521	0.589366724248976	1	1	NaN	1564329.0391839	NaN	1564330.0227109	1564330.53927668
25	19	0	0	90	36.1581920903955	36.241610738255	19	0.633384760096669	2	6	5	NaN	1	4	0.244781946575837	1	1	NaN	399	7	21	2	121	221	321	NaN	521	0.193533171899617	1	1	NaN	1564331.9395934	NaN	1564332.9230525	1564333.43953733
25	19	0	0	90	36.1581920903955	36.241610738255	19	0.633384760096669	2	7	2	NaN	2	5	0.244781946575837	1	1	NaN	400	7	22	2	121	221	321	NaN	521	0.313933971803635	2	1	NaN	1564334.7231949	NaN	1564335.7066317	1564336.22314303
25	19	0	0	90	36.1581920903955	36.241610738255	19	0.633384760096669	2	3	5	NaN	1	4	0.244781946575837	1	1	NaN	401	7	23	2	121	221	321	NaN	521	0.208052871748805	1	1	NaN	1564337.3568228	NaN	1564338.3402032	1564338.85674083
25	19	0	0	90	36.1581920903955	36.241610738255	20	0.666720800101757	2	2	6	NaN	1	3	0.244781946575837	1	1	NaN	402	7	24	2	121	221	321	NaN	521	0.248505838215351	1	1	NaN	1564339.9403477	NaN	1564340.9238747	1564341.44032326
25	19	0	0	90	36.1581920903955	36.241610738255	15	0.500040600076318	2	5	6	NaN	1	4	0.244781946575837	1	1	NaN	403	7	25	2	121	221	321	NaN	521	0.329674581298605	1	1	NaN	1564342.507276	NaN	1564343.4907065	1564344.00724612
25	19	0	0	90	36.1581920903955	36.241610738255	18	0.600048720091581	2	6	6	NaN	1	3	0.244781946575837	1	1	NaN	404	7	26	2	121	221	321	NaN	521	0.323250281158835	1	1	NaN	1564345.6576097	NaN	1564346.6410449	1564347.15755882
25	19	0	0	90	36.1581920903955	36.241610738255	7	0.233352280035615	2	3	6	NaN	1	5	0.244781946575837	1	1	NaN	405	7	27	2	121	221	321	NaN	521	0.481707714963704	1	1	NaN	1564348.4912038	NaN	1564349.4746311	1564349.99116999
25	19	0	0	90	36.1581920903955	36.241610738255	23	0.766728920117021	2	5	5	NaN	1	5	0.244781946575837	1	1	NaN	406	7	28	2	121	221	321	NaN	521	0.192640824243426	1	1	NaN	1564351.3081496	NaN	1564352.2915872	1564352.80810348
25	19	0	0	90	36.1581920903955	36.241610738255	13	0.433368520066142	2	12	3	NaN	2	3	0.244781946575837	1	1	NaN	407	7	29	2	121	221	321	NaN	521	0.201812690589577	2	1	NaN	1564354.0750071	NaN	1564355.0585128	1564355.57505211
25	19	0	0	90	36.1581920903955	36.241610738255	19	0.633384760096669	2	8	1	NaN	2	4	0.244781946575837	1	1	NaN	408	7	30	2	121	221	321	NaN	521	0.340318971779197	2	1	NaN	1564357.2087141	NaN	1564358.1921461	1564358.70869263
25	19	0	0	90	36.1581920903955	36.241610738255	24	0.800064960122108	2	10	3	NaN	2	5	0.244781946575837	1	1	NaN	409	7	31	2	121	221	321	NaN	521	0.153813771670684	2	1	NaN	1564359.8590253	NaN	1564360.8424064	1564361.35895443
25	19	0	0	90	36.1581920903955	36.241610738255	15	0.500040600076318	2	6	2	NaN	1	5	0.244781946575837	1	1	NaN	410	7	32	2	121	221	321	NaN	521	0.187456819461659	1	1	NaN	1564362.6093197	NaN	1564363.5927014	1564364.10922198
25	19	0	0	90	36.1581920903955	36.241610738255	20	0.666720800101757	2	12	6	NaN	2	4	0.244781946575837	1	1	NaN	411	7	33	2	121	221	321	NaN	521	0.531900071771815	1	0	NaN	1564365.192834	NaN	1564366.1762619	1564366.69280933
25	19	0	0	90	36.1581920903955	36.241610738255	13	0.433368520066142	2	1	6	NaN	1	5	0.244781946575837	1	1	NaN	412	7	34	2	121	221	321	NaN	521	0.417411371832713	1	1	NaN	1564368.0431438	NaN	1564369.0265691	1564369.54308363
25	19	0	0	90	36.1581920903955	36.241610738255	24	0.800064960122108	2	9	5	NaN	2	5	0.244781946575837	1	1	NaN	413	7	35	2	121	221	321	NaN	521	1.18167407182045	2	1	NaN	1564371.1434604	NaN	1564372.1268858	1564372.64338913
25	19	0	0	90	36.1581920903955	36.241610738255	23	0.766728920117021	2	2	3	NaN	1	5	0.244781946575837	1	1	NaN	414	7	36	2	121	221	321	NaN	521	0.265363224083558	1	1	NaN	1564374.6437961	NaN	1564375.6271965	1564376.14379608
25	19	0	0	90	36.1581920903955	36.241610738255	8	0.266688320040703	2	11	2	NaN	2	3	0.244781946575837	1	1	NaN	415	7	37	2	121	221	321	NaN	521	0.198362124152482	1	0	NaN	1564377.3107099	NaN	1564378.294157	1564378.81066398
25	19	0	0	90	36.1581920903955	36.241610738255	20	0.666720800101757	2	5	1	NaN	1	3	0.244781946575837	1	1	NaN	416	7	38	2	121	221	321	NaN	521	0.169333724305034	1	1	NaN	1564379.8275178	NaN	1564380.8110181	1564381.32756778
25	19	0	0	90	36.1581920903955	36.241610738255	8	0.266688320040703	2	4	3	NaN	1	5	0.244781946575837	1	1	NaN	417	7	39	2	121	221	321	NaN	521	0.245058180997148	1	1	NaN	1564382.3278632	NaN	1564383.3112847	1564383.82782442
25	19	0	0	90	36.1581920903955	36.241610738255	25	0.833401000127196	2	6	6	NaN	1	5	0.244781946575837	1	1	NaN	418	7	40	2	121	221	321	NaN	521	0.270036967238411	1	1	NaN	1564384.8948112	NaN	1564385.8782032	1564386.39474373
25	19	0	0	90	36.1581920903955	36.241610738255	22	0.733392880111933	2	9	2	NaN	2	3	0.244781946575837	1	1	NaN	419	7	41	2	121	221	321	NaN	521	0.293909571832046	2	1	NaN	1564387.4948686	NaN	1564388.478482	1564388.99499273
25	19	0	0	90	36.1581920903955	36.241610738255	16	0.533376640081406	2	7	5	NaN	2	5	0.244781946575837	1	1	NaN	420	7	42	2	121	221	321	NaN	521	0.301521924324334	2	1	NaN	1564390.0953191	NaN	1564391.0787168	1564391.59525168
25	19	0	0	90	36.1581920903955	36.241610738255	10	0.333360400050879	2	8	5	NaN	2	3	0.244781946575837	1	1	NaN	421	7	43	2	121	221	321	NaN	521	0.405893424293026	2	1	NaN	1564393.679002	NaN	1564394.6623979	1564395.17894038
25	19	0	0	90	36.1581920903955	36.241610738255	11	0.366696440055966	2	5	1	NaN	1	3	0.244781946575837	1	1	NaN	422	7	44	2	121	221	321	NaN	521	0.205726524116471	1	1	NaN	1564396.879187	NaN	1564397.8627264	1564398.37925298
25	19	0	0	90	36.1581920903955	36.241610738255	12	0.400032480061054	2	5	2	NaN	1	5	0.244781946575837	1	1	NaN	423	7	45	2	121	221	321	NaN	521	0.236305690603331	1	1	NaN	1564399.7129323	NaN	1564400.6963265	1564401.21285861
25	19	0	0	90	36.1581920903955	36.241610738255	23	0.766728920117021	2	7	4	NaN	2	4	0.244781946575837	1	1	NaN	424	7	46	2	121	221	321	NaN	521	0.234425095142797	2	1	NaN	1564402.7464467	NaN	1564403.7299603	1564404.2465108
25	19	0	0	90	36.1581920903955	36.241610738255	8	0.266688320040703	2	5	2	NaN	1	5	0.244781946575837	1	1	NaN	425	7	47	2	121	221	321	NaN	521	0.386389424325898	1	1	NaN	1564405.9468504	NaN	1564406.9302622	1564407.44680248
25	19	0	0	90	36.1581920903955	36.241610738255	23	0.766728920117021	2	1	3	NaN	1	5	0.244781946575837	1	1	NaN	426	7	48	2	121	221	321	NaN	521	0.26250577182509	1	1	NaN	1564410.8140056	NaN	1564411.7974104	1564412.31396783
25	19	0	0	90	36.1581920903955	36.241610738255	18	0.600048720091581	2	12	1	NaN	2	4	0.244781946575837	1	1	NaN	427	7	49	2	121	221	321	NaN	521	0.327375124208629	2	1	NaN	1564413.3975848	NaN	1564414.3809872	1564414.89754208
25	19	0	0	90	36.1581920903955	36.241610738255	23	0.766728920117021	2	4	2	NaN	1	3	0.244781946575837	1	1	NaN	428	7	50	2	121	221	321	NaN	521	0.197096524061635	2	0	NaN	1564416.047865	NaN	1564417.0312792	1564417.54779898
25	19	0	0	90	36.1581920903955	36.241610738255	15	0.500040600076318	2	10	5	NaN	2	5	0.244781946575837	1	1	NaN	429	7	51	2	121	221	321	NaN	521	0.31994792423211	2	1	NaN	1564421.5649169	NaN	1564422.5483724	1564423.06499418
25	19	0	0	90	36.1581920903955	36.241610738255	22	0.733392880111933	2	10	3	NaN	2	5	0.244781946575837	1	1	NaN	430	7	52	2	121	221	321	NaN	521	0.430173171916977	2	1	NaN	1564424.198649	NaN	1564425.1820533	1564425.69859683
25	19	0	0	90	36.1581920903955	36.241610738255	11	0.366696440055966	2	2	2	NaN	1	3	0.244781946575837	1	1	NaN	431	7	53	2	121	221	321	NaN	521	0.280076471855864	1	1	NaN	1564426.9489292	NaN	1564427.932373	1564428.44885533
25	19	0	0	90	36.1581920903955	36.241610738255	13	0.433368520066142	2	4	6	NaN	1	5	0.244781946575837	1	1	NaN	432	7	54	2	121	221	321	NaN	521	0.226903724251315	1	1	NaN	1564429.6658725	NaN	1564430.6492831	1564431.16579028
25	19	0	0	90	36.1581920903955	36.241610738255	17	0.566712680086493	2	2	2	NaN	1	3	0.244781946575837	1	1	NaN	433	7	55	2	121	221	321	NaN	521	0.202731871744618	1	1	NaN	1564432.4661096	NaN	1564433.4495576	1564433.96607773
25	19	0	0	90	36.1581920903955	36.241610738255	18	0.600048720091581	2	9	2	NaN	2	5	0.244781946575837	1	1	NaN	434	7	56	2	121	221	321	NaN	521	0.351234624162316	2	1	NaN	1564435.1497151	NaN	1564436.1331118	1564436.64967078
25	19	0	0	90	36.1581920903955	36.241610738255	13	0.433368520066142	2	11	6	NaN	2	3	0.244781946575837	1	1	NaN	435	7	57	2	121	221	321	NaN	521	0.119663571938872	2	1	NaN	1564437.9333086	NaN	1564438.9167333	1564439.43327913
25	19	0	0	90	36.1581920903955	36.241610738255	21	0.700056840106845	2	4	5	NaN	1	3	0.244781946575837	1	1	NaN	436	7	58	2	121	221	321	NaN	521	0.158166471868753	1	1	NaN	1564440.3669074	NaN	1564441.3503166	1564441.86685233
25	19	0	0	90	36.1581920903955	36.241610738255	13	0.433368520066142	2	11	1	NaN	2	3	0.244781946575837	1	1	NaN	437	7	59	2	121	221	321	NaN	521	0.242595343152061	2	1	NaN	1564442.8504876	NaN	1564443.8338702	1564444.35043316
25	19	0	0	90	36.1581920903955	36.241610738255	14	0.46670456007123	2	12	5	NaN	2	4	0.244781946575837	1	1	NaN	438	7	60	2	121	221	321	NaN	521	0.284246690804139	2	1	NaN	1564445.4007326	NaN	1564446.3841336	1564446.90068651
25	19	0	0	90	36.1581920903955	36.241610738255	0	0	1	5	5	NaN	1	3	0.244781946575837	1	1	NaN	439	7	61	2	111	211	311	NaN	511	0.243905119365081	2	0	NaN	1564448.0010064	NaN	1564448.9844207	1564449.50094648
25	19	0	0	90	36.1581920903955	36.241610738255	23	0.766728920117021	2	9	5	NaN	2	3	0.244781946575837	1	1	NaN	440	7	62	2	121	221	321	NaN	521	0.199792224215344	2	1	NaN	1564450.9012963	NaN	1564451.884707	1564452.40121548
25	19	0	0	90	36.1581920903955	36.241610738255	16	0.533376640081406	2	4	3	NaN	1	5	0.244781946575837	1	1	NaN	441	7	63	2	121	221	321	NaN	521	0.266787019558251	1	1	NaN	1564453.4180715	NaN	1564454.4016248	1564454.91811878
25	19	0	0	90	36.1581920903955	36.241610738255	14	0.46670456007123	2	8	1	NaN	2	5	0.244781946575837	1	1	NaN	442	8	1	2	121	221	321	NaN	521	0.339128524297848	1	0	NaN	1564463.9859027	NaN	1564464.9693375	1564465.48583718
25	19	0	0	90	36.1581920903955	36.241610738255	16	0.533376640081406	2	3	4	NaN	1	4	0.244781946575837	1	1	NaN	443	8	2	2	121	221	321	NaN	521	0.23223433829844	1	1	NaN	1564466.6526835	NaN	1564467.6362289	1564468.15275826
25	19	0	0	90	36.1581920903955	36.241610738255	13	0.433368520066142	2	3	4	NaN	1	3	0.244781946575837	1	1	NaN	444	8	3	2	121	221	321	NaN	521	0.0659417242277414	1	1	NaN	1564469.2030607	NaN	1564470.1864699	1564470.70301148
25	19	0	0	90	36.1581920903955	36.241610738255	11	0.366696440055966	2	6	3	NaN	1	4	0.244781946575837	1	1	NaN	445	8	4	2	121	221	321	NaN	521	0.170585324289277	1	1	NaN	1564471.5865724	NaN	1564472.570053	1564473.08658038
25	19	0	0	90	36.1581920903955	36.241610738255	15	0.500040600076318	2	1	2	NaN	1	3	0.244781946575837	1	1	NaN	446	8	5	2	121	221	321	NaN	521	0.282129624392837	1	1	NaN	1564474.786954	NaN	1564475.7703978	1564476.28689038
25	19	0	0	90	36.1581920903955	36.241610738255	19	0.633384760096669	2	2	2	NaN	1	3	0.244781946575837	1	1	NaN	447	8	6	2	121	221	321	NaN	521	0.267438529059291	1	1	NaN	1564477.537219	NaN	1564478.5206337	1564479.03716827
25	19	0	0	90	36.1581920903955	36.241610738255	11	0.366696440055966	2	11	6	NaN	2	5	0.244781946575837	1	1	NaN	448	8	7	2	121	221	321	NaN	521	0.314817519392818	2	1	NaN	1564480.3535318	NaN	1564481.337525	1564481.85410638
25	19	0	0	90	36.1581920903955	36.241610738255	22	0.733392880111933	2	9	2	NaN	2	4	0.244781946575837	1	1	NaN	449	8	8	2	121	221	321	NaN	521	0.401843795320019	2	1	NaN	1564484.5712204	NaN	1564485.5546503	1564486.0711916
25	19	0	0	90	36.1581920903955	36.241610738255	17	0.566712680086493	2	8	3	NaN	2	5	0.244781946575837	1	1	NaN	450	8	9	2	121	221	321	NaN	521	0.283936124294996	2	1	NaN	1564487.304985	NaN	1564488.2882384	1564488.80477758
25	19	0	0	90	36.1581920903955	36.241610738255	13	0.433368520066142	2	2	2	NaN	1	5	0.244781946575837	1	1	NaN	451	8	10	2	121	221	321	NaN	521	0.354405024088919	1	1	NaN	1564490.1384263	NaN	1564491.121871	1564491.63839088
25	19	0	0	90	36.1581920903955	36.241610738255	12	0.400032480061054	2	4	3	NaN	1	3	0.244781946575837	1	1	NaN	452	8	11	2	121	221	321	NaN	521	0.201610324205831	1	1	NaN	1564492.9554044	NaN	1564493.9388035	1564494.45533588
25	19	0	0	90	36.1581920903955	36.241610738255	9	0.300024360045791	2	8	3	NaN	2	5	0.244781946575837	1	1	NaN	453	8	12	2	121	221	321	NaN	521	0.293628819519654	2	1	NaN	1564495.8390106	NaN	1564496.8224119	1564497.33894858
25	19	0	0	90	36.1581920903955	36.241610738255	17	0.566712680086493	2	11	5	NaN	2	3	0.244781946575837	1	1	NaN	454	8	13	2	121	221	321	NaN	521	0.215248790569603	2	1	NaN	1564498.6059665	NaN	1564499.5893452	1564500.10591351
25	19	0	0	90	36.1581920903955	36.241610738255	12	0.400032480061054	2	2	2	NaN	1	5	0.244781946575837	1	1	NaN	455	8	14	2	121	221	321	NaN	521	0.258791976608336	1	1	NaN	1564501.5061125	NaN	1564502.4896377	1564503.00618352
25	19	0	0	90	36.1581920903955	36.241610738255	20	0.666720800101757	2	12	1	NaN	2	3	0.244781946575837	1	1	NaN	456	8	15	2	121	221	321	NaN	521	0.24879272421822	2	1	NaN	1564504.3565149	NaN	1564505.3398941	1564505.85645988
25	19	0	0	90	36.1581920903955	36.241610738255	19	0.633384760096669	2	12	4	NaN	2	4	0.244781946575837	1	1	NaN	457	8	16	2	121	221	321	NaN	521	0.0799327150452882	2	1	NaN	1564506.9567742	NaN	1564507.9401674	1564508.45670629
25	19	0	0	90	36.1581920903955	36.241610738255	16	0.533376640081406	2	8	2	NaN	2	4	0.244781946575837	1	1	NaN	458	8	17	2	121	221	321	NaN	521	0.112074071774259	1	0	NaN	1564509.3570369	NaN	1564510.3404018	1564510.85695013
25	19	0	0	90	36.1581920903955	36.241610738255	6	0.200016240030527	2	2	5	NaN	1	5	0.244781946575837	1	1	NaN	459	8	18	2	121	221	321	NaN	521	0.269204524112865	1	1	NaN	1564512.2239832	NaN	1564513.2073846	1564513.72390018
25	19	0	0	90	36.1581920903955	36.241610738255	9	0.300024360045791	2	1	6	NaN	1	5	0.244781946575837	1	1	NaN	460	8	19	2	121	221	321	NaN	521	0.261425371747464	1	1	NaN	1564515.00754	NaN	1564515.9909761	1564516.50749603
