subjno	age	gender	isPractice	viewdist	CmToPixX	CmToPixY	SOA_frm	SOA_time	targNum	targID	targExample	targRace	targGender	firstTargPos	contrast	familiarity	curr_staircase	iStair	TrialNum	BlockNum	blktrl	sessionNum	TC_FIXATION	TC_RSVP_START	TC_RSVP_END	TC_BLANK	TC_RESPONSE_ONSET	RT2afc	resp_2afc	acc	RSVPOnsetVBL	RSVPOnsetTime	RSVPOffsetVBL	RSVPOffsetTime	startrt_2afc
104	19	1	0	90	36.1581920903955	36.241610738255	23	0.766741616427898	2	12	6	NaN	2	5	0.105262013047592	0	1	NaN	1	1	1	2	120	220	320	NaN	520	0.551368023268878	2	1	NaN	4393149.0720144	NaN	4393150.0552764	4393150.58837818
104	19	1	0	90	36.1581920903955	36.241610738255	9	0.300029328167438	2	9	6	NaN	2	4	0.105262013047592	0	1	NaN	2	1	2	2	120	220	320	NaN	520	0.513271126896143	2	1	NaN	4393152.0056114	NaN	4393152.9888749	4393153.52200987
104	19	1	0	90	36.1581920903955	36.241610738255	0	0	1	10	4	NaN	2	3	0.105262013047592	0	1	NaN	3	1	3	2	110	210	310	NaN	510	0.59935977961868	2	1	NaN	4393154.8555624	NaN	4393155.8389536	4393156.37227792
104	19	1	0	90	36.1581920903955	36.241610738255	22	0.733405024409294	2	1	3	NaN	1	3	0.105262013047592	0	1	NaN	4	1	4	2	120	220	320	NaN	520	0.530484422110021	2	0	NaN	4393157.7891966	NaN	4393158.7727021	4393159.28923278
104	19	1	0	90	36.1581920903955	36.241610738255	7	0.23335614413023	2	9	5	NaN	2	3	0.105262013047592	0	1	NaN	5	1	5	2	120	220	320	NaN	520	0.240039980039001	2	1	NaN	4393160.6396681	NaN	4393161.6229462	4393162.13951462
104	19	1	0	90	36.1581920903955	36.241610738255	25	0.833414800465107	2	7	3	NaN	2	3	0.105262013047592	0	1	NaN	6	1	6	2	120	220	320	NaN	520	0.168958975933492	2	1	NaN	4393163.2064964	NaN	4393164.1898933	4393164.70643402
104	19	1	0	90	36.1581920903955	36.241610738255	22	0.733405024409294	2	4	2	NaN	1	5	0.105262013047592	0	1	NaN	7	1	7	2	120	220	320	NaN	520	0.31756507512182	1	1	NaN	4393165.6899277	NaN	4393166.673479	4393167.19000582
104	19	1	0	90	36.1581920903955	36.241610738255	7	0.23335614413023	2	2	3	NaN	1	5	0.105262013047592	0	1	NaN	8	1	8	2	120	220	320	NaN	520	0.427760775201023	1	1	NaN	4393168.3236507	NaN	4393169.3070395	4393169.82360432
104	19	1	0	90	36.1581920903955	36.241610738255	19	0.633395248353481	2	5	4	NaN	1	4	0.105262013047592	0	1	NaN	9	1	9	2	120	220	320	NaN	520	0.221374275162816	1	1	NaN	4393171.0739256	NaN	4393172.0573221	4393172.57387612
104	19	1	0	90	36.1581920903955	36.241610738255	9	0.300029328167438	2	3	6	NaN	1	3	0.105262013047592	0	1	NaN	10	1	10	2	120	220	320	NaN	520	1.47984187491238	2	0	NaN	4393173.6075146	NaN	4393174.5909218	4393175.10746103
104	19	1	0	90	36.1581920903955	36.241610738255	18	0.600058656334877	2	3	1	NaN	1	3	0.105262013047592	0	1	NaN	11	1	11	2	120	220	320	NaN	520	2.62367197498679	2	0	NaN	4393177.4078847	NaN	4393178.3912711	4393178.90782493
104	19	1	0	90	36.1581920903955	36.241610738255	6	0.200019552111626	2	1	4	NaN	1	5	0.105262013047592	0	1	NaN	12	1	12	2	120	220	320	NaN	520	0.304947075434029	1	1	NaN	4393182.3583732	NaN	4393183.3417656	4393183.85832092
104	19	1	0	90	36.1581920903955	36.241610738255	15	0.500048880279064	2	8	3	NaN	2	5	0.105262013047592	0	1	NaN	13	1	13	2	120	220	320	NaN	520	0.607326227240264	1	0	NaN	4393184.9919799	NaN	4393185.9753576	4393186.49190907
104	19	1	0	90	36.1581920903955	36.241610738255	25	0.833414800465107	2	3	1	NaN	1	3	0.105262013047592	0	1	NaN	14	1	14	2	120	220	320	NaN	520	0.281735674478114	2	0	NaN	4393187.9255522	NaN	4393188.9089766	4393189.42553073
104	19	1	0	90	36.1581920903955	36.241610738255	7	0.23335614413023	2	4	5	NaN	1	3	0.105262013047592	0	1	NaN	15	1	15	2	120	220	320	NaN	520	0.161817179992795	1	1	NaN	4393190.5258667	NaN	4393191.5092309	4393192.02578912
104	19	1	0	90	36.1581920903955	36.241610738255	20	0.666731840372086	2	12	1	NaN	2	4	0.105262013047592	0	1	NaN	16	1	16	2	120	220	320	NaN	520	0.0860879234969616	1	0	NaN	4393193.009422	NaN	4393193.9928069	4393194.50936468
104	19	1	0	90	36.1581920903955	36.241610738255	15	0.500048880279064	2	5	3	NaN	1	5	0.105262013047592	0	1	NaN	17	1	17	2	120	220	320	NaN	520	0.0104393707588315	1	1	NaN	4393195.4096533	NaN	4393196.3929478	4393196.90958923
104	19	1	0	90	36.1581920903955	36.241610738255	21	0.70006843239069	2	12	4	NaN	2	4	0.105262013047592	0	1	NaN	18	1	18	2	120	220	320	NaN	520	0.176264274865389	2	1	NaN	4393197.743215	NaN	4393198.7266086	4393199.24315962
104	19	1	0	90	36.1581920903955	36.241610738255	23	0.766741616427898	2	11	1	NaN	2	3	0.105262013047592	0	1	NaN	19	1	19	2	120	220	320	NaN	520	0.187983627431095	2	1	NaN	4393200.2434838	NaN	4393201.2268444	4393201.74341247
104	19	1	0	90	36.1581920903955	36.241610738255	0	0	1	2	3	NaN	1	5	0.105262013047592	0	1	NaN	20	1	20	2	110	210	310	NaN	510	0.506694323383272	2	0	NaN	4393202.8770426	NaN	4393203.8604254	4393204.37699438
104	19	1	0	90	36.1581920903955	36.241610738255	11	0.366702512204647	2	11	6	NaN	2	3	0.105262013047592	0	1	NaN	21	1	21	2	120	220	320	NaN	520	3.46478777565062	2	1	NaN	4393205.7105315	NaN	4393206.694108	4393207.21060152
104	19	1	0	90	36.1581920903955	36.241610738255	17	0.566722064316273	2	11	2	NaN	2	5	0.105262013047592	0	1	NaN	22	1	22	2	120	220	320	NaN	520	0.46519152354449	2	1	NaN	4393211.4945594	NaN	4393212.477961	4393212.99451258
104	19	1	0	90	36.1581920903955	36.241610738255	25	0.833414800465107	2	10	3	NaN	2	3	0.105262013047592	0	1	NaN	23	1	23	2	120	220	320	NaN	520	1.44160587526858	1	0	NaN	4393214.2782617	NaN	4393215.2615697	4393215.77811662
104	19	1	0	90	36.1581920903955	36.241610738255	11	0.366702512204647	2	3	4	NaN	1	4	0.105262013047592	0	1	NaN	24	1	24	2	120	220	320	NaN	520	0.570383974350989	1	1	NaN	4393218.0452073	NaN	4393219.0285998	4393219.54515923
104	19	1	0	90	36.1581920903955	36.241610738255	16	0.533385472297668	2	11	3	NaN	2	5	0.105262013047592	0	1	NaN	25	1	25	2	120	220	320	NaN	520	0.21372467558831	2	1	NaN	4393220.945491	NaN	4393221.9288869	4393222.44543772
104	19	1	0	90	36.1581920903955	36.241610738255	11	0.366702512204647	2	10	6	NaN	2	3	0.105262013047592	0	1	NaN	26	1	26	2	120	220	320	NaN	520	0.325378774665296	2	1	NaN	4393223.5624157	NaN	4393224.5458225	4393225.06236453
104	19	1	0	90	36.1581920903955	36.241610738255	23	0.766741616427898	2	2	6	NaN	1	4	0.105262013047592	0	1	NaN	27	1	27	2	120	220	320	NaN	520	4.78668442741036	2	0	NaN	4393226.2126709	NaN	4393227.1960724	4393227.71262337
104	19	1	0	90	36.1581920903955	36.241610738255	9	0.300029328167438	2	7	6	NaN	2	4	0.105262013047592	0	1	NaN	28	1	28	2	120	220	320	NaN	520	0.270395575091243	1	0	NaN	4393233.3133876	NaN	4393234.2967782	4393234.81332462
104	19	1	0	90	36.1581920903955	36.241610738255	21	0.70006843239069	2	1	6	NaN	1	4	0.105262013047592	0	1	NaN	29	1	29	2	120	220	320	NaN	520	0.542335444130003	2	0	NaN	4393235.8969497	NaN	4393236.8803602	4393237.39690966
104	19	1	0	90	36.1581920903955	36.241610738255	0	0	1	11	2	NaN	2	5	0.105262013047592	0	1	NaN	30	1	30	2	110	210	310	NaN	510	0.435395722277462	1	0	NaN	4393238.7638977	NaN	4393239.7473078	4393240.26385238
104	19	1	0	90	36.1581920903955	36.241610738255	22	0.733405024409294	2	9	2	NaN	2	3	0.105262013047592	0	1	NaN	31	1	31	2	120	220	320	NaN	520	0.245283827185631	1	0	NaN	4393241.5141075	NaN	4393242.4975639	4393243.01412977
104	19	1	0	90	36.1581920903955	36.241610738255	20	0.666731840372086	2	9	6	NaN	2	4	0.105262013047592	0	1	NaN	32	1	32	2	120	220	320	NaN	520	0.200100274756551	2	1	NaN	4393244.2309796	NaN	4393245.2145	4393245.73106362
104	19	1	0	90	36.1581920903955	36.241610738255	12	0.400039104223251	2	11	5	NaN	2	4	0.105262013047592	0	1	NaN	33	1	33	2	120	220	320	NaN	520	0.171258827671409	2	1	NaN	4393246.7479159	NaN	4393247.7314233	4393248.24797917
104	19	1	0	90	36.1581920903955	36.241610738255	6	0.200019552111626	2	4	1	NaN	1	3	0.105262013047592	0	1	NaN	34	1	34	2	120	220	320	NaN	520	0.592120675370097	1	1	NaN	4393249.2315976	NaN	4393250.2149866	4393250.73155292
104	19	1	0	90	36.1581920903955	36.241610738255	21	0.70006843239069	2	10	3	NaN	2	4	0.105262013047592	0	1	NaN	35	1	35	2	120	220	320	NaN	520	0.290703128091991	2	1	NaN	4393252.1485647	NaN	4393253.1319703	4393253.64850767
104	19	1	0	90	36.1581920903955	36.241610738255	7	0.23335614413023	2	8	5	NaN	2	4	0.105262013047592	0	1	NaN	36	1	36	2	120	220	320	NaN	520	2.74588392302394	1	0	NaN	4393254.7654736	NaN	4393255.7488956	4393256.26542118
104	19	1	0	90	36.1581920903955	36.241610738255	12	0.400039104223251	2	5	6	NaN	1	3	0.105262013047592	0	1	NaN	37	1	37	2	120	220	320	NaN	520	0.302839122712612	2	0	NaN	4393259.8326362	NaN	4393260.8160401	4393261.33258368
104	19	1	0	90	36.1581920903955	36.241610738255	24	0.800078208446503	2	7	6	NaN	2	4	0.105262013047592	0	1	NaN	38	1	38	2	120	220	320	NaN	520	0.445793274790049	2	1	NaN	4393262.4495604	NaN	4393263.4329471	4393263.94951933
104	19	1	0	90	36.1581920903955	36.241610738255	25	0.833414800465107	2	2	5	NaN	1	4	0.105262013047592	0	1	NaN	39	1	39	2	120	220	320	NaN	520	4.11132622789592	1	1	NaN	4393265.2165041	NaN	4393266.199902	4393266.71647477
104	19	1	0	90	36.1581920903955	36.241610738255	24	0.800078208446503	2	5	5	NaN	1	5	0.105262013047592	0	1	NaN	40	1	40	2	120	220	320	NaN	520	0.101161623373628	1	1	NaN	4393271.6504708	NaN	4393272.633935	4393273.15041078
104	19	1	0	90	36.1581920903955	36.241610738255	17	0.566722064316273	2	10	1	NaN	2	4	0.105262013047592	0	1	NaN	41	1	41	2	120	220	320	NaN	520	0.101411727257073	2	1	NaN	4393274.2340894	NaN	4393275.2174635	4393275.73401177
104	19	1	0	90	36.1581920903955	36.241610738255	18	0.600058656334877	2	5	4	NaN	1	5	0.105262013047592	0	1	NaN	42	1	42	2	120	220	320	NaN	520	0.0444789743050933	1	1	NaN	4393276.6508188	NaN	4393277.6343605	4393278.15091223
104	19	1	0	90	36.1581920903955	36.241610738255	9	0.300029328167438	2	2	2	NaN	1	5	0.105262013047592	0	1	NaN	43	1	43	2	120	220	320	NaN	520	0.0295787435024977	1	1	NaN	4393279.017857	NaN	4393280.0012405	4393280.51782006
104	19	1	0	90	36.1581920903955	36.241610738255	14	0.46671228826046	2	1	6	NaN	1	5	0.105262013047592	0	1	NaN	44	1	44	2	120	220	320	NaN	520	3.91953927464783	1	1	NaN	4393281.3681136	NaN	4393282.3514756	4393282.86804412
104	19	1	0	90	36.1581920903955	36.241610738255	15	0.500048880279064	2	9	2	NaN	2	4	0.105262013047592	0	1	NaN	45	1	45	2	120	220	320	NaN	520	0.150000975467265	2	1	NaN	4393287.6020321	NaN	4393288.5854347	4393289.10198382
104	19	1	0	90	36.1581920903955	36.241610738255	13	0.433375696241856	2	1	2	NaN	1	4	0.105262013047592	0	1	NaN	46	1	46	2	120	220	320	NaN	520	0.128935474902391	1	1	NaN	4393290.1189222	NaN	4393291.1023414	4393291.61890042
104	19	1	0	90	36.1581920903955	36.241610738255	12	0.400039104223251	2	11	3	NaN	2	4	0.105262013047592	0	1	NaN	47	1	47	2	120	220	320	NaN	520	0.102520175278187	2	1	NaN	4393292.5691934	NaN	4393293.5525935	4393294.06913343
104	19	1	0	90	36.1581920903955	36.241610738255	24	0.800078208446503	2	5	3	NaN	1	5	0.105262013047592	0	1	NaN	48	1	48	2	120	220	320	NaN	520	1.09369467478245	2	0	NaN	4393294.9860928	NaN	4393295.9694873	4393296.48604773
104	19	1	0	90	36.1581920903955	36.241610738255	20	0.666731840372086	2	11	1	NaN	2	5	0.105262013047592	0	1	NaN	49	1	49	2	120	220	320	NaN	520	0.117110727354884	2	1	NaN	4393298.3864954	NaN	4393299.3698381	4393299.88638497
104	19	1	0	90	36.1581920903955	36.241610738255	10	0.333365920186043	2	12	2	NaN	2	4	0.105262013047592	0	1	NaN	50	1	50	2	120	220	320	NaN	520	0.331536322832108	2	1	NaN	4393300.8199913	NaN	4393301.8034118	4393302.31994328
104	19	1	0	90	36.1581920903955	36.241610738255	23	0.766741616427898	2	6	1	NaN	1	4	0.105262013047592	0	1	NaN	51	1	51	2	120	220	320	NaN	520	0.33712447527796	1	1	NaN	4393303.4702886	NaN	4393304.4536627	4393304.97020283
104	19	1	0	90	36.1581920903955	36.241610738255	13	0.433375696241856	2	10	6	NaN	2	5	0.105262013047592	0	1	NaN	52	1	52	2	120	220	320	NaN	520	0.214237975887954	2	1	NaN	4393306.1371874	NaN	4393307.1206117	4393307.63714242
104	19	1	0	90	36.1581920903955	36.241610738255	8	0.266692736148834	2	4	5	NaN	1	5	0.105262013047592	0	1	NaN	53	1	53	2	120	220	320	NaN	520	1.5287655275315	1	1	NaN	4393308.6707792	NaN	4393309.6541791	4393310.17072187
104	19	1	0	90	36.1581920903955	36.241610738255	13	0.433375696241856	2	2	4	NaN	1	5	0.105262013047592	0	1	NaN	54	1	54	2	120	220	320	NaN	520	1.95840407535434	2	0	NaN	4393312.5211417	NaN	4393313.504554	4393314.02110073
104	19	1	0	90	36.1581920903955	36.241610738255	14	0.46671228826046	2	11	4	NaN	2	5	0.105262013047592	0	1	NaN	55	1	55	2	120	220	320	NaN	520	0.331004596315324	2	1	NaN	4393316.7882467	NaN	4393317.7716314	4393318.2881979
104	19	1	0	90	36.1581920903955	36.241610738255	0	0	1	3	5	NaN	1	3	0.105262013047592	0	1	NaN	56	1	56	2	110	210	310	NaN	510	0.137796374969184	1	1	NaN	4393319.4218265	NaN	4393320.4052584	4393320.92177993
104	19	1	0	90	36.1581920903955	36.241610738255	8	0.266692736148834	2	9	3	NaN	2	3	0.105262013047592	0	1	NaN	57	1	57	2	120	220	320	NaN	520	0.447841975837946	1	0	NaN	4393321.8719205	NaN	4393322.8554743	4393323.37200992
104	19	1	0	90	36.1581920903955	36.241610738255	8	0.266692736148834	2	9	1	NaN	2	4	0.105262013047592	0	1	NaN	58	1	58	2	120	220	320	NaN	520	0.257218074984848	2	1	NaN	4393324.6223459	NaN	4393325.6057423	4393326.12228962
104	19	1	0	90	36.1581920903955	36.241610738255	6	0.200019552111626	2	2	5	NaN	1	4	0.105262013047592	0	1	NaN	59	1	59	2	120	220	320	NaN	520	0.266168675385416	1	1	NaN	4393327.1891161	NaN	4393328.1726564	4393328.68920192
104	19	1	0	90	36.1581920903955	36.241610738255	22	0.733405024409294	2	2	5	NaN	1	4	0.105262013047592	0	1	NaN	60	1	60	2	120	220	320	NaN	520	0.362776623107493	1	1	NaN	4393329.7728477	NaN	4393330.7562292	4393331.27279118
104	19	1	0	90	36.1581920903955	36.241610738255	20	0.666731840372086	2	1	4	NaN	1	4	0.105262013047592	0	1	NaN	61	1	61	2	120	220	320	NaN	520	0.367341075092554	1	1	NaN	4393332.4564546	NaN	4393333.4398409	4393333.95638312
104	19	1	0	90	36.1581920903955	36.241610738255	7	0.23335614413023	2	3	2	NaN	1	5	0.105262013047592	0	1	NaN	62	1	62	2	120	220	320	NaN	520	0.275497022084892	1	1	NaN	4393335.1400326	NaN	4393336.1234316	4393336.63997908
104	19	1	0	90	36.1581920903955	36.241610738255	6	0.200019552111626	2	8	1	NaN	2	5	0.105262013047592	0	1	NaN	63	1	63	2	120	220	320	NaN	520	4.73231562692672	1	0	NaN	4393337.7236334	NaN	4393338.7070322	4393339.22357297
104	19	1	0	90	36.1581920903955	36.241610738255	6	0.200019552111626	2	6	2	NaN	1	4	0.105262013047592	0	1	NaN	64	2	1	2	120	220	320	NaN	520	0.906634675338864	1	1	NaN	4393417.9814955	NaN	4393418.9649123	4393419.48145302
104	19	1	0	90	36.1581920903955	36.241610738255	22	0.733405024409294	2	11	2	NaN	2	4	0.105262013047592	0	1	NaN	65	2	2	2	120	220	320	NaN	520	1.32126182317734	1	0	NaN	4393421.1984884	NaN	4393422.1818742	4393422.69844208
104	19	1	0	90	36.1581920903955	36.241610738255	19	0.633395248353481	2	12	4	NaN	2	4	0.105262013047592	0	1	NaN	66	2	3	2	120	220	320	NaN	520	0.42338552698493	2	1	NaN	4393424.8321764	NaN	4393425.815578	4393426.33212057
104	19	1	0	90	36.1581920903955	36.241610738255	23	0.766741616427898	2	8	3	NaN	2	4	0.105262013047592	0	1	NaN	67	2	4	2	120	220	320	NaN	520	0.79590817540884	2	1	NaN	4393427.915792	NaN	4393428.8992169	4393429.41576712
104	19	1	0	90	36.1581920903955	36.241610738255	13	0.433375696241856	2	8	5	NaN	2	5	0.105262013047592	0	1	NaN	68	2	5	2	120	220	320	NaN	520	1.39919087477028	2	1	NaN	4393431.0327886	NaN	4393432.0161925	4393432.53273922
104	19	1	0	90	36.1581920903955	36.241610738255	7	0.23335614413023	2	10	4	NaN	2	5	0.105262013047592	0	1	NaN	69	2	6	2	120	220	320	NaN	520	0.257765422575176	2	1	NaN	4393434.7498354	NaN	4393435.7332138	4393436.24976138
104	19	1	0	90	36.1581920903955	36.241610738255	7	0.23335614413023	2	6	5	NaN	1	4	0.105262013047592	0	1	NaN	70	2	7	2	120	220	320	NaN	520	0.344342374242842	1	1	NaN	4393437.3834169	NaN	4393438.3668181	4393438.88335553
104	19	1	0	90	36.1581920903955	36.241610738255	23	0.766741616427898	2	8	3	NaN	2	5	0.105262013047592	0	1	NaN	71	2	8	2	120	220	320	NaN	520	0.694005974568427	2	1	NaN	4393440.033671	NaN	4393441.0170817	4393441.53362483
104	19	1	0	90	36.1581920903955	36.241610738255	20	0.666731840372086	2	2	3	NaN	1	5	0.105262013047592	0	1	NaN	72	2	9	2	120	220	320	NaN	520	0.277851074934006	1	1	NaN	4393443.0339733	NaN	4393444.0173835	4393444.53390753
104	19	1	0	90	36.1581920903955	36.241610738255	12	0.400039104223251	2	4	1	NaN	1	4	0.105262013047592	0	1	NaN	73	2	10	2	120	220	320	NaN	520	0.245021742768586	2	0	NaN	4393445.6508026	NaN	4393446.6342819	4393447.15083986
104	19	1	0	90	36.1581920903955	36.241610738255	25	0.833414800465107	2	9	2	NaN	2	5	0.105262013047592	0	1	NaN	74	2	11	2	120	220	320	NaN	520	1.38186887465417	2	1	NaN	4393448.2178172	NaN	4393449.201217	4393449.71775272
104	19	1	0	90	36.1581920903955	36.241610738255	10	0.333365920186043	2	7	1	NaN	2	5	0.105262013047592	0	1	NaN	75	2	12	2	120	220	320	NaN	520	0.330618223175406	2	1	NaN	4393451.9015131	NaN	4393452.8848918	4393453.40144288
104	19	1	0	90	36.1581920903955	36.241610738255	6	0.200019552111626	2	9	5	NaN	2	5	0.105262013047592	0	1	NaN	76	2	13	2	120	220	320	NaN	520	0.399889286607504	2	1	NaN	4393454.551782	NaN	4393455.5351569	4393456.05171221
104	19	1	0	90	36.1581920903955	36.241610738255	14	0.46671228826046	2	1	1	NaN	1	5	0.105262013047592	0	1	NaN	77	2	14	2	120	220	320	NaN	520	0.707376770675182	1	1	NaN	4393457.2685961	NaN	4393458.2520887	4393458.76864573
104	19	1	0	90	36.1581920903955	36.241610738255	25	0.833414800465107	2	9	2	NaN	2	4	0.105262013047592	0	1	NaN	78	2	15	2	120	220	320	NaN	520	0.27409727498889	2	1	NaN	4393460.2856798	NaN	4393461.2690534	4393461.78560222
104	19	1	0	90	36.1581920903955	36.241610738255	6	0.200019552111626	2	4	6	NaN	1	3	0.105262013047592	0	1	NaN	79	2	16	2	120	220	320	NaN	520	0.346286674961448	1	1	NaN	4393462.8692427	NaN	4393463.8526436	4393464.36919972
104	19	1	0	90	36.1581920903955	36.241610738255	19	0.633395248353481	2	1	4	NaN	1	3	0.105262013047592	0	1	NaN	80	2	17	2	120	220	320	NaN	520	0.239868862554431	1	1	NaN	4393465.5362051	NaN	4393466.5195658	4393467.03612624
104	19	1	0	90	36.1581920903955	36.241610738255	24	0.800078208446503	2	9	2	NaN	2	3	0.105262013047592	0	1	NaN	81	2	18	2	120	220	320	NaN	520	0.425674722529948	2	1	NaN	4393468.0862851	NaN	4393469.0698369	4393469.58636898
104	19	1	0	90	36.1581920903955	36.241610738255	6	0.200019552111626	2	10	4	NaN	2	3	0.105262013047592	0	1	NaN	82	2	19	2	120	220	320	NaN	520	0.307729126885533	2	1	NaN	4393470.8200355	NaN	4393471.8034194	4393472.31997367
104	19	1	0	90	36.1581920903955	36.241610738255	14	0.46671228826046	2	4	3	NaN	1	3	0.105262013047592	0	1	NaN	83	2	20	2	120	220	320	NaN	520	1.12271897494793	2	0	NaN	4393473.4369874	NaN	4393474.4203489	4393474.93689233
104	19	1	0	90	36.1581920903955	36.241610738255	12	0.400039104223251	2	12	5	NaN	2	5	0.105262013047592	0	1	NaN	84	2	21	2	120	220	320	NaN	520	0.408959627151489	2	1	NaN	4393476.8706262	NaN	4393477.8540499	4393478.37057677
104	19	1	0	90	36.1581920903955	36.241610738255	18	0.600058656334877	2	12	1	NaN	2	4	0.105262013047592	0	1	NaN	85	2	22	2	120	220	320	NaN	520	0.236558275297284	1	0	NaN	4393479.5875521	NaN	4393480.5709534	4393481.08749892
104	19	1	0	90	36.1581920903955	36.241610738255	17	0.566722064316273	2	8	5	NaN	2	5	0.105262013047592	0	1	NaN	86	2	23	2	120	220	320	NaN	520	0.392585127614439	2	1	NaN	4393482.471145	NaN	4393483.4545649	4393483.97112697
104	19	1	0	90	36.1581920903955	36.241610738255	20	0.666731840372086	2	7	5	NaN	2	5	0.105262013047592	0	1	NaN	87	2	24	2	120	220	320	NaN	520	0.34823992755264	2	1	NaN	4393485.1714305	NaN	4393486.1548348	4393486.67139167
104	19	1	0	90	36.1581920903955	36.241610738255	15	0.500048880279064	2	6	6	NaN	1	5	0.105262013047592	0	1	NaN	88	2	25	2	120	220	320	NaN	520	3.56149732787162	1	1	NaN	4393487.8383598	NaN	4393488.8218283	4393489.33831827
104	19	1	0	90	36.1581920903955	36.241610738255	8	0.266692736148834	2	2	6	NaN	1	4	0.105262013047592	0	1	NaN	89	2	26	2	120	220	320	NaN	520	0.229934822767973	1	1	NaN	4393493.922229	NaN	4393494.9056942	4393495.42223758
104	19	1	0	90	36.1581920903955	36.241610738255	14	0.46671228826046	2	5	4	NaN	1	5	0.105262013047592	0	1	NaN	90	2	27	2	120	220	320	NaN	520	1.16710847523063	2	0	NaN	4393496.4725584	NaN	4393497.4559515	4393497.97249192
104	19	1	0	90	36.1581920903955	36.241610738255	25	0.833414800465107	2	5	1	NaN	1	5	0.105262013047592	0	1	NaN	91	2	28	2	120	220	320	NaN	520	0.29157917574048	1	1	NaN	4393499.9562224	NaN	4393500.9396202	4393501.45616432
104	19	1	0	90	36.1581920903955	36.241610738255	11	0.366702512204647	2	9	5	NaN	2	3	0.105262013047592	0	1	NaN	92	2	29	2	120	220	320	NaN	520	0.258363274857402	1	0	NaN	4393502.5898043	NaN	4393503.5732162	4393504.08975982
104	19	1	0	90	36.1581920903955	36.241610738255	10	0.333365920186043	2	2	5	NaN	1	3	0.105262013047592	0	1	NaN	93	2	30	2	120	220	320	NaN	520	0.331080727279186	1	1	NaN	4393505.156741	NaN	4393506.1401367	4393506.65668687
104	19	1	0	90	36.1581920903955	36.241610738255	23	0.766741616427898	2	10	2	NaN	2	5	0.105262013047592	0	1	NaN	94	2	31	2	120	220	320	NaN	520	0.508577174507082	1	0	NaN	4393508.1236841	NaN	4393509.1070867	4393509.62363813
104	19	1	0	90	36.1581920903955	36.241610738255	10	0.333365920186043	2	11	5	NaN	2	5	0.105262013047592	0	1	NaN	95	2	32	2	120	220	320	NaN	520	1.18382777553052	1	0	NaN	4393511.2238668	NaN	4393512.2073706	4393512.72393582
104	19	1	0	90	36.1581920903955	36.241610738255	17	0.566722064316273	2	1	1	NaN	1	4	0.105262013047592	0	1	NaN	96	2	33	2	120	220	320	NaN	520	0.283314174972475	1	1	NaN	4393514.7243427	NaN	4393515.7076864	4393516.22428133
104	19	1	0	90	36.1581920903955	36.241610738255	8	0.266692736148834	2	4	5	NaN	1	3	0.105262013047592	0	1	NaN	97	2	34	2	120	220	320	NaN	520	0.169468774460256	1	1	NaN	4393517.3745938	NaN	4393518.3579922	4393518.87455053
104	19	1	0	90	36.1581920903955	36.241610738255	18	0.600058656334877	2	10	4	NaN	2	3	0.105262013047592	0	1	NaN	98	2	35	2	120	220	320	NaN	520	0.708608575165272	2	1	NaN	4393519.8914999	NaN	4393520.8749303	4393521.39145442
104	19	1	0	90	36.1581920903955	36.241610738255	13	0.433375696241856	2	5	2	NaN	1	3	0.105262013047592	0	1	NaN	99	2	36	2	120	220	320	NaN	520	0.179440975189209	2	0	NaN	4393522.9084743	NaN	4393523.8918509	4393524.40842063
104	19	1	0	90	36.1581920903955	36.241610738255	18	0.600058656334877	2	1	5	NaN	1	5	0.105262013047592	0	1	NaN	100	2	37	2	120	220	320	NaN	520	1.39107952732593	1	1	NaN	4393525.4087074	NaN	4393526.3921609	4393526.90866897
104	19	1	0	90	36.1581920903955	36.241610738255	19	0.633395248353481	2	8	5	NaN	2	4	0.105262013047592	0	1	NaN	101	2	38	2	120	220	320	NaN	520	0.130784875713289	2	1	NaN	4393529.1090771	NaN	4393530.0924814	4393530.60902592
104	19	1	0	90	36.1581920903955	36.241610738255	15	0.500048880279064	2	10	4	NaN	2	5	0.105262013047592	0	1	NaN	102	2	39	2	120	220	320	NaN	520	0.201196175068617	2	1	NaN	4393531.5426655	NaN	4393532.5260699	4393533.04259812
104	19	1	0	90	36.1581920903955	36.241610738255	17	0.566722064316273	2	2	3	NaN	1	5	0.105262013047592	0	1	NaN	103	2	40	2	120	220	320	NaN	520	0.180421723052859	1	1	NaN	4393534.0596018	NaN	4393535.0429778	4393535.55951728
104	19	1	0	90	36.1581920903955	36.241610738255	21	0.70006843239069	2	7	1	NaN	2	3	0.105262013047592	0	1	NaN	104	2	41	2	120	220	320	NaN	520	0.190848827362061	2	1	NaN	4393536.5931296	NaN	4393537.5765489	4393538.09310107
104	19	1	0	90	36.1581920903955	36.241610738255	12	0.400039104223251	2	8	6	NaN	2	3	0.105262013047592	0	1	NaN	105	2	42	2	120	220	320	NaN	520	1.67451467458159	2	1	NaN	4393539.0932741	NaN	4393540.076787	4393540.59334833
104	19	1	0	90	36.1581920903955	36.241610738255	9	0.300029328167438	2	5	5	NaN	1	5	0.105262013047592	0	1	NaN	106	2	43	2	120	220	320	NaN	520	0.6109539270401	2	0	NaN	4393543.0769946	NaN	4393544.0605414	4393544.57707107
104	19	1	0	90	36.1581920903955	36.241610738255	16	0.533385472297668	2	6	6	NaN	1	4	0.105262013047592	0	1	NaN	107	2	44	2	120	220	320	NaN	520	0.50107207428664	1	1	NaN	4393546.010757	NaN	4393546.9941392	4393547.51069023
104	19	1	0	90	36.1581920903955	36.241610738255	21	0.70006843239069	2	11	3	NaN	2	3	0.105262013047592	0	1	NaN	108	2	45	2	120	220	320	NaN	520	7.4922188706696	2	1	NaN	4393548.8276943	NaN	4393549.8110878	4393550.32763123
104	19	1	0	90	36.1581920903955	36.241610738255	13	0.433375696241856	2	3	1	NaN	1	4	0.105262013047592	0	1	NaN	109	2	46	2	120	220	320	NaN	520	0.155275823548436	1	1	NaN	4393558.6286664	NaN	4393559.6120545	4393560.12859178
104	19	1	0	90	36.1581920903955	36.241610738255	12	0.400039104223251	2	12	6	NaN	2	3	0.105262013047592	0	1	NaN	110	2	47	2	120	220	320	NaN	520	0.91604267526418	2	1	NaN	4393561.2122099	NaN	4393562.1956364	4393562.71218812
104	19	1	0	90	36.1581920903955	36.241610738255	6	0.200019552111626	2	2	2	NaN	1	4	0.105262013047592	0	1	NaN	111	2	48	2	120	220	320	NaN	520	0.146022522822022	1	1	NaN	4393564.4458936	NaN	4393565.4292894	4393565.94584498
104	19	1	0	90	36.1581920903955	36.241610738255	13	0.433375696241856	2	10	6	NaN	2	4	0.105262013047592	0	1	NaN	112	2	49	2	120	220	320	NaN	520	0.223043975420296	2	1	NaN	4393566.9128112	NaN	4393567.8961983	4393568.41273892
104	19	1	0	90	36.1581920903955	36.241610738255	11	0.366702512204647	2	1	5	NaN	1	3	0.105262013047592	0	1	NaN	113	2	50	2	120	220	320	NaN	520	0.44121627509594	2	0	NaN	4393569.4630473	NaN	4393570.446444	4393570.96299732
104	19	1	0	90	36.1581920903955	36.241610738255	16	0.533385472297668	2	12	4	NaN	2	5	0.105262013047592	0	1	NaN	114	2	51	2	120	220	320	NaN	520	0.786822326481342	2	1	NaN	4393572.213331	NaN	4393573.1967145	4393573.71326997
104	19	1	0	90	36.1581920903955	36.241610738255	24	0.800078208446503	2	1	5	NaN	1	5	0.105262013047592	0	1	NaN	115	2	52	2	120	220	320	NaN	520	0.646091426722705	1	1	NaN	4393575.313625	NaN	4393576.297014	4393576.81357377
104	19	1	0	90	36.1581920903955	36.241610738255	6	0.200019552111626	2	12	1	NaN	2	4	0.105262013047592	0	1	NaN	116	2	53	2	120	220	320	NaN	520	0.287261675111949	2	1	NaN	4393578.2805817	NaN	4393579.2639819	4393579.78053282
104	19	1	0	90	36.1581920903955	36.241610738255	6	0.200019552111626	2	1	3	NaN	1	3	0.105262013047592	0	1	NaN	117	2	54	2	120	220	320	NaN	520	0.159235275350511	1	1	NaN	4393580.8808496	NaN	4393581.8641937	4393582.38077862
104	19	1	0	90	36.1581920903955	36.241610738255	10	0.333365920186043	2	7	4	NaN	2	4	0.105262013047592	0	1	NaN	118	2	55	2	120	220	320	NaN	520	1.34116737451404	1	0	NaN	4393583.5144087	NaN	4393584.4978318	4393585.01436863
104	19	1	0	90	36.1581920903955	36.241610738255	24	0.800078208446503	2	10	3	NaN	2	3	0.105262013047592	0	1	NaN	119	2	56	2	120	220	320	NaN	520	0.163162922486663	1	0	NaN	4393587.1647864	NaN	4393588.1481848	4393588.66473198
104	19	1	0	90	36.1581920903955	36.241610738255	20	0.666731840372086	2	12	5	NaN	2	5	0.105262013047592	0	1	NaN	120	2	57	2	120	220	320	NaN	520	0.135840875096619	2	1	NaN	4393589.6483633	NaN	4393590.6317516	4393591.14831033
104	19	1	0	90	36.1581920903955	36.241610738255	0	0	1	11	2	NaN	2	4	0.105262013047592	0	1	NaN	121	2	58	2	110	210	310	NaN	510	0.0933259753510356	2	1	NaN	4393592.09856	NaN	4393593.0819927	4393593.59854732
104	19	1	0	90	36.1581920903955	36.241610738255	12	0.400039104223251	2	4	6	NaN	1	5	0.105262013047592	0	1	NaN	122	2	59	2	120	220	320	NaN	520	0.221128690987825	1	1	NaN	4393594.4988559	NaN	4393595.4822991	4393595.99878971
104	19	1	0	90	36.1581920903955	36.241610738255	11	0.366702512204647	2	7	4	NaN	2	3	0.105262013047592	0	1	NaN	123	2	60	2	120	220	320	NaN	520	0.175803274847567	2	1	NaN	4393597.0322883	NaN	4393598.015836	4393598.53237003
104	19	1	0	90	36.1581920903955	36.241610738255	23	0.766741616427898	2	11	4	NaN	2	3	0.105262013047592	0	1	NaN	124	2	61	2	120	220	320	NaN	520	3.49192577507347	2	1	NaN	4393599.5160041	NaN	4393600.4993964	4393601.01593983
104	19	1	0	90	36.1581920903955	36.241610738255	20	0.666731840372086	2	8	5	NaN	2	3	0.105262013047592	0	1	NaN	125	2	62	2	120	220	320	NaN	520	0.0515027232468128	2	1	NaN	4393605.3166513	NaN	4393606.2999424	4393606.81651268
104	19	1	0	90	36.1581920903955	36.241610738255	17	0.566722064316273	2	9	3	NaN	2	4	0.105262013047592	0	1	NaN	126	2	63	2	120	220	320	NaN	520	0.364848027005792	2	1	NaN	4393607.6834398	NaN	4393608.6668723	4393609.18341907
104	19	1	0	90	36.1581920903955	36.241610738255	9	0.300029328167438	2	4	3	NaN	1	3	0.105262013047592	0	1	NaN	127	3	1	2	120	220	320	NaN	520	0.285543727688491	1	1	NaN	4393665.1224451	NaN	4393666.1058387	4393666.62238807
104	19	1	0	90	36.1581920903955	36.241610738255	12	0.400039104223251	2	1	4	NaN	1	3	0.105262013047592	0	1	NaN	128	3	2	2	120	220	320	NaN	520	0.557228875346482	2	0	NaN	4393668.1226617	NaN	4393669.1061082	4393669.62267793
104	19	1	0	90	36.1581920903955	36.241610738255	11	0.366702512204647	2	4	4	NaN	1	3	0.105262013047592	0	1	NaN	129	3	3	2	120	220	320	NaN	520	0.698310974985361	1	1	NaN	4393670.9895668	NaN	4393671.9730802	4393672.48963302
104	19	1	0	90	36.1581920903955	36.241610738255	11	0.366702512204647	2	11	2	NaN	2	3	0.105262013047592	0	1	NaN	130	3	4	2	120	220	320	NaN	520	0.251976827159524	2	1	NaN	4393674.1399699	NaN	4393675.1233901	4393675.63993817
104	19	1	0	90	36.1581920903955	36.241610738255	10	0.333365920186043	2	4	3	NaN	1	4	0.105262013047592	0	1	NaN	131	3	5	2	120	220	320	NaN	520	0.0291248271241784	2	0	NaN	4393676.7069289	NaN	4393677.6903088	4393678.20685897
104	19	1	0	90	36.1581920903955	36.241610738255	16	0.533385472297668	2	4	3	NaN	1	4	0.105262013047592	0	1	NaN	132	3	6	2	120	220	320	NaN	520	0.83122737519443	2	0	NaN	4393679.0571462	NaN	4393680.0405741	4393680.55709292
104	19	1	0	90	36.1581920903955	36.241610738255	6	0.200019552111626	2	7	5	NaN	2	4	0.105262013047592	0	1	NaN	133	3	7	2	120	220	320	NaN	520	0.137332627549767	1	0	NaN	4393682.1907855	NaN	4393683.174184	4393683.69073227
104	19	1	0	90	36.1581920903955	36.241610738255	18	0.600058656334877	2	2	5	NaN	1	3	0.105262013047592	0	1	NaN	134	3	8	2	120	220	320	NaN	520	0.0630792751908302	1	1	NaN	4393684.6410218	NaN	4393685.6244065	4393686.14096843
104	19	1	0	90	36.1581920903955	36.241610738255	21	0.70006843239069	2	5	1	NaN	1	3	0.105262013047592	0	1	NaN	135	3	9	2	120	220	320	NaN	520	0.815434727817774	2	0	NaN	4393687.0245945	NaN	4393688.0079967	4393688.52454297
104	19	1	0	90	36.1581920903955	36.241610738255	15	0.500048880279064	2	7	2	NaN	2	5	0.105262013047592	0	1	NaN	136	3	10	2	120	220	320	NaN	520	1.970204975456	2	1	NaN	4393690.1582243	NaN	4393691.1416153	4393691.65818042
104	19	1	0	90	36.1581920903955	36.241610738255	6	0.200019552111626	2	3	3	NaN	1	4	0.105262013047592	0	1	NaN	137	3	11	2	120	220	320	NaN	520	1.22197432722896	1	1	NaN	4393694.4419865	NaN	4393695.4253798	4393695.94193607
104	19	1	0	90	36.1581920903955	36.241610738255	19	0.633395248353481	2	10	3	NaN	2	4	0.105262013047592	0	1	NaN	138	3	12	2	120	220	320	NaN	520	0.425753875635564	2	1	NaN	4393698.1423306	NaN	4393699.1257444	4393699.64229222
104	19	1	0	90	36.1581920903955	36.241610738255	16	0.533385472297668	2	1	2	NaN	1	5	0.105262013047592	0	1	NaN	139	3	13	2	120	220	320	NaN	520	0.212522727437317	1	1	NaN	4393700.8759562	NaN	4393701.8593746	4393702.37589717
104	19	1	0	90	36.1581920903955	36.241610738255	10	0.333365920186043	2	8	3	NaN	2	3	0.105262013047592	0	1	NaN	140	3	14	2	120	220	320	NaN	520	0.574826574884355	1	0	NaN	4393703.4095343	NaN	4393704.3929179	4393704.90947033
104	19	1	0	90	36.1581920903955	36.241610738255	17	0.566722064316273	2	7	5	NaN	2	4	0.105262013047592	0	1	NaN	141	3	15	2	120	220	320	NaN	520	0.618859027512372	1	0	NaN	4393706.2932468	NaN	4393707.2765416	4393707.79309807
104	19	1	0	90	36.1581920903955	36.241610738255	10	0.333365920186043	2	1	3	NaN	1	4	0.105262013047592	0	1	NaN	142	3	16	2	120	220	320	NaN	520	1.18175582308322	1	1	NaN	4393709.210142	NaN	4393710.1934808	4393710.71004058
104	19	1	0	90	36.1581920903955	36.241610738255	25	0.833414800465107	2	8	2	NaN	2	4	0.105262013047592	0	1	NaN	143	3	17	2	120	220	320	NaN	520	0.385987870395184	2	1	NaN	4393712.7103234	NaN	4393713.6938408	4393714.21038263
104	19	1	0	90	36.1581920903955	36.241610738255	10	0.333365920186043	2	5	6	NaN	1	3	0.105262013047592	0	1	NaN	144	3	18	2	120	220	320	NaN	520	0.0935660749673843	1	1	NaN	4393715.4107111	NaN	4393716.3941442	4393716.91064923
104	19	1	0	90	36.1581920903955	36.241610738255	0	0	1	9	3	NaN	2	5	0.105262013047592	0	1	NaN	145	3	19	2	110	210	310	NaN	510	0.0691403234377503	2	1	NaN	4393717.810944	NaN	4393718.7943514	4393719.31089748
104	19	1	0	90	36.1581920903955	36.241610738255	17	0.566722064316273	2	4	4	NaN	1	4	0.105262013047592	0	1	NaN	146	3	20	2	120	220	320	NaN	520	0.149430375546217	1	1	NaN	4393720.1943696	NaN	4393721.1779025	4393721.69446172
104	19	1	0	90	36.1581920903955	36.241610738255	10	0.333365920186043	2	1	2	NaN	1	3	0.105262013047592	0	1	NaN	147	3	21	2	120	220	320	NaN	520	0.0987452790141106	1	1	NaN	4393722.6614107	NaN	4393723.6448338	4393724.16136782
104	19	1	0	90	36.1581920903955	36.241610738255	12	0.400039104223251	2	10	1	NaN	2	4	0.105262013047592	0	1	NaN	148	3	22	2	120	220	320	NaN	520	0.129788227379322	1	0	NaN	4393725.0782445	NaN	4393726.0617547	4393726.57827797
104	19	1	0	90	36.1581920903955	36.241610738255	9	0.300029328167438	2	8	3	NaN	2	3	0.105262013047592	0	1	NaN	149	3	23	2	120	220	320	NaN	520	0.103627774864435	2	1	NaN	4393727.5285915	NaN	4393728.5119687	4393729.02851272
104	19	1	0	90	36.1581920903955	36.241610738255	19	0.633395248353481	2	5	3	NaN	1	5	0.105262013047592	0	1	NaN	150	3	24	2	120	220	320	NaN	520	0.110608574934304	2	0	NaN	4393729.9455184	NaN	4393730.9288686	4393731.44541952
104	19	1	0	90	36.1581920903955	36.241610738255	25	0.833414800465107	2	12	2	NaN	2	3	0.105262013047592	0	1	NaN	151	3	25	2	120	220	320	NaN	520	0.165134427137673	2	1	NaN	4393732.3790415	NaN	4393733.3624468	4393733.87898907
104	19	1	0	90	36.1581920903955	36.241610738255	14	0.46671228826046	2	7	6	NaN	2	3	0.105262013047592	0	1	NaN	152	3	26	2	120	220	320	NaN	520	0.0104236230254173	2	1	NaN	4393734.8459895	NaN	4393735.8293294	4393736.34588938
104	19	1	0	90	36.1581920903955	36.241610738255	13	0.433375696241856	2	12	6	NaN	2	3	0.105262013047592	0	1	NaN	153	3	27	2	120	220	320	NaN	520	0.180543875321746	2	1	NaN	4393737.1795186	NaN	4393738.1629298	4393738.67946532
104	19	1	0	90	36.1581920903955	36.241610738255	11	0.366702512204647	2	5	5	NaN	1	4	0.105262013047592	0	1	NaN	154	3	28	2	120	220	320	NaN	520	0.264316274784505	1	1	NaN	4393739.6797537	NaN	4393740.6631518	4393741.17971222
104	19	1	0	90	36.1581920903955	36.241610738255	18	0.600058656334877	2	6	4	NaN	1	5	0.105262013047592	0	1	NaN	155	3	29	2	120	220	320	NaN	520	4.9285682272166	1	1	NaN	4393742.2634385	NaN	4393743.2467454	4393743.76329747
104	19	1	0	90	36.1581920903955	36.241610738255	15	0.500048880279064	2	3	1	NaN	1	3	0.105262013047592	0	1	NaN	156	3	30	2	120	220	320	NaN	520	2.68654368352145	2	0	NaN	4393749.497391	NaN	4393750.4807668	4393750.99733422
104	19	1	0	90	36.1581920903955	36.241610738255	24	0.800078208446503	2	4	4	NaN	1	5	0.105262013047592	0	1	NaN	157	3	31	2	120	220	320	NaN	520	0.558164827525616	2	0	NaN	4393754.4978857	NaN	4393755.4812818	4393755.99784977
104	19	1	0	90	36.1581920903955	36.241610738255	23	0.766741616427898	2	2	3	NaN	1	5	0.105262013047592	0	1	NaN	158	3	32	2	120	220	320	NaN	520	0.166307466104627	1	1	NaN	4393757.6980661	NaN	4393758.6815819	4393759.19814563
104	19	1	0	90	36.1581920903955	36.241610738255	15	0.500048880279064	2	9	3	NaN	2	4	0.105262013047592	0	1	NaN	159	3	33	2	120	220	320	NaN	520	0.15458332747221	2	1	NaN	4393760.1817612	NaN	4393761.1651863	4393761.68172487
104	19	1	0	90	36.1581920903955	36.241610738255	16	0.533385472297668	2	3	2	NaN	1	3	0.105262013047592	0	1	NaN	160	3	34	2	120	220	320	NaN	520	0.215350574813783	1	1	NaN	4393762.6486021	NaN	4393763.6320739	4393764.14862563
104	19	1	0	90	36.1581920903955	36.241610738255	13	0.433375696241856	2	12	1	NaN	2	5	0.105262013047592	0	1	NaN	161	3	35	2	120	220	320	NaN	520	0.0986024746671319	2	1	NaN	4393765.1655122	NaN	4393766.1490019	4393766.66553453
104	19	1	0	90	36.1581920903955	36.241610738255	23	0.766741616427898	2	9	2	NaN	2	4	0.105262013047592	0	1	NaN	162	3	36	2	120	220	320	NaN	520	0.221510723233223	2	1	NaN	4393767.6824844	NaN	4393768.6659008	4393769.18244628
104	19	1	0	90	36.1581920903955	36.241610738255	8	0.266692736148834	2	3	4	NaN	1	5	0.105262013047592	0	1	NaN	163	3	37	2	120	220	320	NaN	520	5.30717552732676	2	0	NaN	4393770.932821	NaN	4393771.9162202	4393772.43277427
104	19	1	0	90	36.1581920903955	36.241610738255	9	0.300029328167438	2	11	5	NaN	2	4	0.105262013047592	0	1	NaN	164	3	38	2	120	220	320	NaN	520	0.266131123527884	2	1	NaN	4393778.5502558	NaN	4393779.5336398	4393780.05018298
104	19	1	0	90	36.1581920903955	36.241610738255	25	0.833414800465107	2	2	3	NaN	1	4	0.105262013047592	0	1	NaN	165	3	39	2	120	220	320	NaN	520	0.115125122480094	2	0	NaN	4393781.1171479	NaN	4393782.1005545	4393782.61712348
104	19	1	0	90	36.1581920903955	36.241610738255	0	0	1	1	6	NaN	1	3	0.105262013047592	0	1	NaN	166	3	40	2	110	210	310	NaN	510	0.105324775911868	1	1	NaN	4393783.5507304	NaN	4393784.5341189	4393785.05067282
104	19	1	0	90	36.1581920903955	36.241610738255	19	0.633395248353481	2	1	1	NaN	1	5	0.105262013047592	0	1	NaN	167	3	41	2	120	220	320	NaN	520	0.0104551278054714	2	0	NaN	4393785.9676881	NaN	4393786.9510421	4393787.46759027
104	19	1	0	90	36.1581920903955	36.241610738255	18	0.600058656334877	2	4	3	NaN	1	5	0.105262013047592	0	1	NaN	168	3	42	2	120	220	320	NaN	520	0.17177087534219	2	0	NaN	4393788.2845314	NaN	4393789.2679256	4393789.78447712
104	19	1	0	90	36.1581920903955	36.241610738255	12	0.400039104223251	2	9	6	NaN	2	4	0.105262013047592	0	1	NaN	169	3	43	2	120	220	320	NaN	520	0.24006652738899	2	1	NaN	4393790.7681118	NaN	4393791.7515102	4393792.26805247
104	19	1	0	90	36.1581920903955	36.241610738255	6	0.200019552111626	2	7	2	NaN	2	3	0.105262013047592	0	1	NaN	170	3	44	2	120	220	320	NaN	520	0.545920974574983	2	1	NaN	4393793.3183654	NaN	4393794.3017576	4393794.81830173
104	19	1	0	90	36.1581920903955	36.241610738255	14	0.46671228826046	2	6	1	NaN	1	3	0.105262013047592	0	1	NaN	171	3	45	2	120	220	320	NaN	520	0.07095817476511	1	1	NaN	4393796.1852957	NaN	4393797.1686941	4393797.68524822
104	19	1	0	90	36.1581920903955	36.241610738255	15	0.500048880279064	2	6	2	NaN	1	4	0.105262013047592	0	1	NaN	172	3	46	2	120	220	320	NaN	520	0.0792523268610239	1	1	NaN	4393798.5689558	NaN	4393799.552298	4393800.06882597
104	19	1	0	90	36.1581920903955	36.241610738255	15	0.500048880279064	2	12	4	NaN	2	5	0.105262013047592	0	1	NaN	173	3	47	2	120	220	320	NaN	520	0.0558213265612721	1	0	NaN	4393800.9524357	NaN	4393801.9358343	4393802.45239137
104	19	1	0	90	36.1581920903955	36.241610738255	17	0.566722064316273	2	12	3	NaN	2	4	0.105262013047592	0	1	NaN	174	3	48	2	120	220	320	NaN	520	1.35298417042941	1	0	NaN	4393803.3191562	NaN	4393804.3027353	4393804.81928743
104	19	1	0	90	36.1581920903955	36.241610738255	15	0.500048880279064	2	2	1	NaN	1	3	0.105262013047592	0	1	NaN	175	3	49	2	120	220	320	NaN	520	0.205955175682902	2	0	NaN	4393806.9863808	NaN	4393807.9697552	4393808.48631272
104	19	1	0	90	36.1581920903955	36.241610738255	18	0.600058656334877	2	12	6	NaN	2	5	0.105262013047592	0	1	NaN	176	3	50	2	120	220	320	NaN	520	0.118624575436115	2	1	NaN	4393809.5699581	NaN	4393810.5533351	4393811.06990192
104	19	1	0	90	36.1581920903955	36.241610738255	11	0.366702512204647	2	2	4	NaN	1	5	0.105262013047592	0	1	NaN	177	3	51	2	120	220	320	NaN	520	0.180815027095377	1	1	NaN	4393812.003531	NaN	4393812.9869219	4393813.50347987
104	19	1	0	90	36.1581920903955	36.241610738255	21	0.70006843239069	2	3	6	NaN	1	4	0.105262013047592	0	1	NaN	178	3	52	2	120	220	320	NaN	520	0.489465974271297	2	0	NaN	4393814.486968	NaN	4393815.4704932	4393815.98704773
104	19	1	0	90	36.1581920903955	36.241610738255	20	0.666731840372086	2	6	5	NaN	1	5	0.105262013047592	0	1	NaN	179	3	53	2	120	220	320	NaN	520	0.45728902798146	2	0	NaN	4393817.2873732	NaN	4393818.2708514	4393818.78732527
104	19	1	0	90	36.1581920903955	36.241610738255	14	0.46671228826046	2	2	4	NaN	1	3	0.105262013047592	0	1	NaN	180	3	54	2	120	220	320	NaN	520	0.337890475057065	2	0	NaN	4393820.0543728	NaN	4393821.037694	4393821.55425632
104	19	1	0	90	36.1581920903955	36.241610738255	18	0.600058656334877	2	11	5	NaN	2	5	0.105262013047592	0	1	NaN	181	3	55	2	120	220	320	NaN	520	0.255734227597713	2	1	NaN	4393822.7045222	NaN	4393823.6879688	4393824.20452977
104	19	1	0	90	36.1581920903955	36.241610738255	23	0.766741616427898	2	5	6	NaN	1	5	0.105262013047592	0	1	NaN	182	3	56	2	120	220	320	NaN	520	0.26485679205507	1	1	NaN	4393825.2715097	NaN	4393826.2548793	4393826.77144281
104	19	1	0	90	36.1581920903955	36.241610738255	18	0.600058656334877	2	2	6	NaN	1	4	0.105262013047592	0	1	NaN	183	3	57	2	120	220	320	NaN	520	0.249041327275336	1	1	NaN	4393827.8551111	NaN	4393828.8384703	4393829.35503517
104	19	1	0	90	36.1581920903955	36.241610738255	10	0.333365920186043	2	6	3	NaN	1	5	0.105262013047592	0	1	NaN	184	3	58	2	120	220	320	NaN	520	0.962160774506629	1	1	NaN	4393830.4220516	NaN	4393831.4053873	4393831.92195173
104	19	1	0	90	36.1581920903955	36.241610738255	22	0.733405024409294	2	3	4	NaN	1	4	0.105262013047592	0	1	NaN	185	3	59	2	120	220	320	NaN	520	0.270708279684186	2	0	NaN	4393833.7056637	NaN	4393834.689061	4393835.20560672
104	19	1	0	90	36.1581920903955	36.241610738255	7	0.23335614413023	2	1	2	NaN	1	4	0.105262013047592	0	1	NaN	186	3	60	2	120	220	320	NaN	520	0.119153074920177	1	1	NaN	4393836.2893344	NaN	4393837.2726762	4393837.78919613
104	19	1	0	90	36.1581920903955	36.241610738255	23	0.766741616427898	2	4	6	NaN	1	4	0.105262013047592	0	1	NaN	187	3	61	2	120	220	320	NaN	520	0.173402926884592	1	1	NaN	4393838.7228084	NaN	4393839.706212	4393840.22276567
104	19	1	0	90	36.1581920903955	36.241610738255	12	0.400039104223251	2	5	1	NaN	1	5	0.105262013047592	0	1	NaN	188	3	62	2	120	220	320	NaN	520	0.177854374982417	1	1	NaN	4393841.2063966	NaN	4393842.1897946	4393842.70634613
104	19	1	0	90	36.1581920903955	36.241610738255	14	0.46671228826046	2	4	2	NaN	1	3	0.105262013047592	0	1	NaN	189	3	63	2	120	220	320	NaN	520	0.118368274532259	1	1	NaN	4393843.6899754	NaN	4393844.6733603	4393845.18991083
104	19	1	0	90	36.1581920903955	36.241610738255	0	0	1	4	2	NaN	1	5	0.105262013047592	0	1	NaN	190	4	1	2	110	210	310	NaN	510	0.217278127558529	1	1	NaN	4393956.351039	NaN	4393957.3344323	4393957.85097857
104	19	1	0	90	36.1581920903955	36.241610738255	17	0.566722064316273	2	2	4	NaN	1	4	0.105262013047592	0	1	NaN	191	4	2	2	120	220	320	NaN	520	3.87633817084134	1	1	NaN	4393958.8679141	NaN	4393959.8513388	4393960.36788843
104	19	1	0	90	36.1581920903955	36.241610738255	15	0.500048880279064	2	1	5	NaN	1	5	0.105262013047592	0	1	NaN	192	4	3	2	120	220	320	NaN	520	0.292724827304482	2	0	NaN	4393965.0518575	NaN	4393966.0352931	4393966.55183627
104	19	1	0	90	36.1581920903955	36.241610738255	18	0.600058656334877	2	1	3	NaN	1	5	0.105262013047592	0	1	NaN	193	4	4	2	120	220	320	NaN	520	0.196434935554862	2	0	NaN	4393967.6520631	NaN	4393968.6355342	4393969.15209206
104	19	1	0	90	36.1581920903955	36.241610738255	0	0	1	8	4	NaN	2	3	0.105262013047592	0	1	NaN	194	4	5	2	110	210	310	NaN	510	0.176163875497878	1	0	NaN	4393970.1524241	NaN	4393971.1357768	4393971.65233362
104	19	1	0	90	36.1581920903955	36.241610738255	8	0.266692736148834	2	6	3	NaN	1	4	0.105262013047592	0	1	NaN	195	4	6	2	120	220	320	NaN	520	0.220634622499347	1	1	NaN	4393972.6359639	NaN	4393973.6193899	4393974.13590578
104	19	1	0	90	36.1581920903955	36.241610738255	12	0.400039104223251	2	2	2	NaN	1	3	0.105262013047592	0	1	NaN	196	4	7	2	120	220	320	NaN	520	0.207231575623155	1	1	NaN	4393975.1694321	NaN	4393976.1529477	4393976.66948462
104	19	1	0	90	36.1581920903955	36.241610738255	12	0.400039104223251	2	3	2	NaN	1	4	0.105262013047592	0	1	NaN	197	4	8	2	120	220	320	NaN	520	3.29833342321217	1	1	NaN	4393977.686451	NaN	4393978.6698676	4393979.18639868
104	19	1	0	90	36.1581920903955	36.241610738255	24	0.800078208446503	2	2	2	NaN	1	5	0.105262013047592	0	1	NaN	198	4	9	2	120	220	320	NaN	520	0.128869826905429	1	1	NaN	4393983.3036829	NaN	4393984.2870706	4393984.80362257
104	19	1	0	90	36.1581920903955	36.241610738255	13	0.433375696241856	2	2	2	NaN	1	3	0.105262013047592	0	1	NaN	199	4	10	2	120	220	320	NaN	520	0.119814726524055	1	1	NaN	4393985.9205769	NaN	4393986.9040102	4393987.42055127
104	19	1	0	90	36.1581920903955	36.241610738255	8	0.266692736148834	2	5	3	NaN	1	5	0.105262013047592	0	1	NaN	200	4	11	2	120	220	320	NaN	520	0.19020002707839	2	0	NaN	4393988.3541603	NaN	4393989.3375975	4393989.85411827
104	19	1	0	90	36.1581920903955	36.241610738255	8	0.266692736148834	2	7	5	NaN	2	4	0.105262013047592	0	1	NaN	201	4	12	2	120	220	320	NaN	520	0.402270874939859	1	0	NaN	4393990.8544294	NaN	4393991.8378248	4393992.35437082
104	19	1	0	90	36.1581920903955	36.241610738255	13	0.433375696241856	2	7	1	NaN	2	4	0.105262013047592	0	1	NaN	202	4	13	2	120	220	320	NaN	520	0.0532644269987941	2	1	NaN	4393993.5713459	NaN	4393994.5547434	4393995.07130107
104	19	1	0	90	36.1581920903955	36.241610738255	11	0.366702512204647	2	7	2	NaN	2	3	0.105262013047592	0	1	NaN	203	4	14	2	120	220	320	NaN	520	0.278586722910404	2	1	NaN	4393996.1382451	NaN	4393997.1217004	4393997.63820798
104	19	1	0	90	36.1581920903955	36.241610738255	11	0.366702512204647	2	8	6	NaN	2	5	0.105262013047592	0	1	NaN	204	4	15	2	120	220	320	NaN	520	0.110742427408695	1	0	NaN	4393998.7218616	NaN	4393999.7052572	4394000.22180877
104	19	1	0	90	36.1581920903955	36.241610738255	19	0.633395248353481	2	9	4	NaN	2	3	0.105262013047592	0	1	NaN	205	4	16	2	120	220	320	NaN	520	0.157045775093138	1	0	NaN	4394001.1554262	NaN	4394002.1388261	4394002.65539113
104	19	1	0	90	36.1581920903955	36.241610738255	6	0.200019552111626	2	6	3	NaN	1	3	0.105262013047592	0	1	NaN	206	4	17	2	120	220	320	NaN	520	0.0104328226298094	1	1	NaN	4394003.6223284	NaN	4394004.6057258	4394005.12227818
104	19	1	0	90	36.1581920903955	36.241610738255	0	0	1	12	5	NaN	2	3	0.105262013047592	0	1	NaN	207	4	18	2	110	210	310	NaN	510	3.0369889754802	2	1	NaN	4394005.9559181	NaN	4394006.9393069	4394007.45584172
104	19	1	0	90	36.1581920903955	36.241610738255	17	0.566722064316273	2	4	4	NaN	1	5	0.105262013047592	0	1	NaN	208	4	19	2	120	220	320	NaN	520	0.724082127213478	1	1	NaN	4394011.5564274	NaN	4394012.5398391	4394013.05639527
104	19	1	0	90	36.1581920903955	36.241610738255	19	0.633395248353481	2	10	5	NaN	2	4	0.105262013047592	0	1	NaN	209	4	20	2	120	220	320	NaN	520	0.234742974862456	2	1	NaN	4394014.5900837	NaN	4394015.5734936	4394016.09002963
104	19	1	0	90	36.1581920903955	36.241610738255	25	0.833414800465107	2	6	4	NaN	1	5	0.105262013047592	0	1	NaN	210	4	21	2	120	220	320	NaN	520	0.307961926795542	1	1	NaN	4394017.1403261	NaN	4394018.1237374	4394018.64027647
104	19	1	0	90	36.1581920903955	36.241610738255	14	0.46671228826046	2	8	4	NaN	2	4	0.105262013047592	0	1	NaN	211	4	22	2	120	220	320	NaN	520	0.38715897500515	1	0	NaN	4394019.7572529	NaN	4394020.7406397	4394021.25720012
104	19	1	0	90	36.1581920903955	36.241610738255	15	0.500048880279064	2	4	1	NaN	1	3	0.105262013047592	0	1	NaN	212	4	23	2	120	220	320	NaN	520	0.215412374585867	1	1	NaN	4394022.4575182	NaN	4394023.4408831	4394023.95747293
104	19	1	0	90	36.1581920903955	36.241610738255	7	0.23335614413023	2	9	1	NaN	2	5	0.105262013047592	0	1	NaN	213	4	24	2	120	220	320	NaN	520	0.465455675497651	2	1	NaN	4394024.9910909	NaN	4394025.97449	4394026.49105392
104	19	1	0	90	36.1581920903955	36.241610738255	6	0.200019552111626	2	10	5	NaN	2	3	0.105262013047592	0	1	NaN	214	4	25	2	120	220	320	NaN	520	1.80202877521515	1	0	NaN	4394027.7746961	NaN	4394028.75819	4394029.27464902
104	19	1	0	90	36.1581920903955	36.241610738255	25	0.833414800465107	2	1	1	NaN	1	4	0.105262013047592	0	1	NaN	215	4	26	2	120	220	320	NaN	520	0.148846822790802	1	1	NaN	4394031.8918067	NaN	4394032.8751849	4394033.39171898
104	19	1	0	90	36.1581920903955	36.241610738255	21	0.70006843239069	2	10	2	NaN	2	3	0.105262013047592	0	1	NaN	216	4	27	2	120	220	320	NaN	520	0.0495776273310184	1	0	NaN	4394034.3586157	NaN	4394035.3421253	4394035.85864167
104	19	1	0	90	36.1581920903955	36.241610738255	8	0.266692736148834	2	1	3	NaN	1	4	0.105262013047592	0	1	NaN	217	4	28	2	120	220	320	NaN	520	4.95490474347025	2	0	NaN	4394036.7255813	NaN	4394037.7089888	4394038.22555286
104	19	1	0	90	36.1581920903955	36.241610738255	23	0.766741616427898	2	7	2	NaN	2	4	0.105262013047592	0	1	NaN	218	4	29	2	120	220	320	NaN	520	0.423573275096714	2	1	NaN	4394043.9929974	NaN	4394044.9763639	4394045.49291333
104	19	1	0	90	36.1581920903955	36.241610738255	7	0.23335614413023	2	7	3	NaN	2	5	0.105262013047592	0	1	NaN	219	4	30	2	120	220	320	NaN	520	0.116853679530323	2	1	NaN	4394046.8598885	NaN	4394047.843292	4394048.35985952
104	19	1	0	90	36.1581920903955	36.241610738255	15	0.500048880279064	2	8	1	NaN	2	4	0.105262013047592	0	1	NaN	220	4	31	2	120	220	320	NaN	520	0.127023327164352	2	1	NaN	4394049.3934652	NaN	4394050.3769022	4394050.89344067
104	19	1	0	90	36.1581920903955	36.241610738255	10	0.333365920186043	2	3	3	NaN	1	3	0.105262013047592	0	1	NaN	221	4	32	2	120	220	320	NaN	520	0.15748227480799	1	1	NaN	4394051.8270652	NaN	4394052.8104687	4394053.32702203
104	19	1	0	90	36.1581920903955	36.241610738255	13	0.433375696241856	2	9	4	NaN	2	3	0.105262013047592	0	1	NaN	222	4	33	2	120	220	320	NaN	520	0.250647227279842	1	0	NaN	4394054.2938494	NaN	4394055.2773743	4394055.79392467
104	19	1	0	90	36.1581920903955	36.241610738255	15	0.500048880279064	2	3	5	NaN	1	3	0.105262013047592	0	1	NaN	223	4	34	2	120	220	320	NaN	520	0.147966522723436	1	1	NaN	4394056.8609096	NaN	4394057.8442658	4394058.36084358
104	19	1	0	90	36.1581920903955	36.241610738255	20	0.666731840372086	2	8	2	NaN	2	4	0.105262013047592	0	1	NaN	224	4	35	2	120	220	320	NaN	520	0.313152726739645	2	1	NaN	4394059.3278107	NaN	4394060.3112157	4394060.82775907
104	19	1	0	90	36.1581920903955	36.241610738255	17	0.566722064316273	2	5	1	NaN	1	3	0.105262013047592	0	1	NaN	225	4	36	2	120	220	320	NaN	520	0.6321922224015	2	0	NaN	4394061.9447266	NaN	4394062.9281056	4394063.44467118
104	19	1	0	90	36.1581920903955	36.241610738255	21	0.70006843239069	2	4	2	NaN	1	3	0.105262013047592	0	1	NaN	226	4	37	2	120	220	320	NaN	520	0.250578274950385	1	1	NaN	4394064.8783583	NaN	4394065.8617493	4394066.37829063
104	19	1	0	90	36.1581920903955	36.241610738255	21	0.70006843239069	2	7	2	NaN	2	5	0.105262013047592	0	1	NaN	227	4	38	2	120	220	320	NaN	520	0.195308974944055	2	1	NaN	4394067.4452714	NaN	4394068.4286718	4394068.94522113
104	19	1	0	90	36.1581920903955	36.241610738255	11	0.366702512204647	2	4	1	NaN	1	3	0.105262013047592	0	1	NaN	228	4	39	2	120	220	320	NaN	520	0.094125927425921	1	1	NaN	4394069.9621902	NaN	4394070.9455762	4394071.46213637
104	19	1	0	90	36.1581920903955	36.241610738255	7	0.23335614413023	2	6	4	NaN	1	4	0.105262013047592	0	1	NaN	229	4	40	2	120	220	320	NaN	520	0.22497527487576	1	1	NaN	4394072.4957374	NaN	4394073.4791714	4394073.99570492
104	19	1	0	90	36.1581920903955	36.241610738255	21	0.70006843239069	2	5	1	NaN	1	5	0.105262013047592	0	1	NaN	230	4	41	2	120	220	320	NaN	520	0.307233027182519	2	0	NaN	4394075.0293652	NaN	4394076.0127424	4394076.52930207
104	19	1	0	90	36.1581920903955	36.241610738255	17	0.566722064316273	2	6	1	NaN	1	3	0.105262013047592	0	1	NaN	231	4	42	2	120	220	320	NaN	520	0.242348474450409	1	1	NaN	4394077.6462789	NaN	4394078.6296731	4394079.14622123
104	19	1	0	90	36.1581920903955	36.241610738255	21	0.70006843239069	2	2	2	NaN	1	4	0.105262013047592	0	1	NaN	232	4	43	2	120	220	320	NaN	520	0.340377527289093	1	1	NaN	4394080.1964905	NaN	4394081.1799482	4394081.69646527
104	19	1	0	90	36.1581920903955	36.241610738255	17	0.566722064316273	2	1	1	NaN	1	3	0.105262013047592	0	1	NaN	233	4	44	2	120	220	320	NaN	520	0.0499837230890989	1	1	NaN	4394082.846793	NaN	4394083.8301501	4394084.34672278
104	19	1	0	90	36.1581920903955	36.241610738255	0	0	1	5	4	NaN	1	4	0.105262013047592	0	1	NaN	234	4	45	2	110	210	310	NaN	510	0.235237526707351	1	1	NaN	4394085.2136732	NaN	4394086.1970652	4394086.71363187
104	19	1	0	90	36.1581920903955	36.241610738255	11	0.366702512204647	2	6	5	NaN	1	5	0.105262013047592	0	1	NaN	235	4	46	2	120	220	320	NaN	520	0.212753275409341	1	1	NaN	4394087.763997	NaN	4394088.7473198	4394089.26387833
104	19	1	0	90	36.1581920903955	36.241610738255	20	0.666731840372086	2	3	4	NaN	1	4	0.105262013047592	0	1	NaN	236	4	47	2	120	220	320	NaN	520	0.223117927089334	2	0	NaN	4394090.2975041	NaN	4394091.2809571	4394091.79746617
104	19	1	0	90	36.1581920903955	36.241610738255	24	0.800078208446503	2	6	5	NaN	1	5	0.105262013047592	0	1	NaN	237	4	48	2	120	220	320	NaN	520	0.089569223113358	1	1	NaN	4394092.8309851	NaN	4394093.8144911	4394094.33103468
104	19	1	0	90	36.1581920903955	36.241610738255	20	0.666731840372086	2	3	2	NaN	1	4	0.105262013047592	0	1	NaN	238	4	49	2	120	220	320	NaN	520	1.09720222279429	2	0	NaN	4394095.2312131	NaN	4394096.2147189	4394096.73128198
104	19	1	0	90	36.1581920903955	36.241610738255	23	0.766741616427898	2	5	4	NaN	1	5	0.105262013047592	0	1	NaN	239	4	50	2	120	220	320	NaN	520	0.0964864222332835	1	1	NaN	4394098.64833	NaN	4394099.6317153	4394100.14827558
104	19	1	0	90	36.1581920903955	36.241610738255	14	0.46671228826046	2	7	3	NaN	2	3	0.105262013047592	0	1	NaN	240	4	51	2	120	220	320	NaN	520	0.359621822834015	2	1	NaN	4394101.0652347	NaN	4394102.0486462	4394102.56517638
104	19	1	0	90	36.1581920903955	36.241610738255	24	0.800078208446503	2	7	5	NaN	2	4	0.105262013047592	0	1	NaN	241	4	52	2	120	220	320	NaN	520	0.0999651756137609	2	1	NaN	4394103.7488284	NaN	4394104.7322312	4394105.24878522
104	19	1	0	90	36.1581920903955	36.241610738255	14	0.46671228826046	2	3	6	NaN	1	5	0.105262013047592	0	1	NaN	242	4	53	2	120	220	320	NaN	520	0.626843627542257	2	0	NaN	4394106.1657261	NaN	4394107.1491229	4394107.66569177
104	19	1	0	90	36.1581920903955	36.241610738255	6	0.200019552111626	2	8	1	NaN	2	3	0.105262013047592	0	1	NaN	243	4	54	2	120	220	320	NaN	520	0.0103930272161961	2	1	NaN	4394109.0992313	NaN	4394110.0827588	4394110.59931197
104	19	1	0	90	36.1581920903955	36.241610738255	12	0.400039104223251	2	1	5	NaN	1	5	0.105262013047592	0	1	NaN	244	4	55	2	120	220	320	NaN	520	0.168621175922453	2	0	NaN	4394111.4162457	NaN	4394112.3996557	4394112.91619482
104	19	1	0	90	36.1581920903955	36.241610738255	11	0.366702512204647	2	10	1	NaN	2	5	0.105262013047592	0	1	NaN	245	4	56	2	120	220	320	NaN	520	0.221180770546198	2	1	NaN	4394113.8998261	NaN	4394114.8832687	4394115.39977133
104	19	1	0	90	36.1581920903955	36.241610738255	16	0.533385472297668	2	3	5	NaN	1	3	0.105262013047592	0	1	NaN	246	4	57	2	120	220	320	NaN	520	0.127348827198148	1	1	NaN	4394116.4334008	NaN	4394117.4169265	4394117.93335587
104	19	1	0	90	36.1581920903955	36.241610738255	15	0.500048880279064	2	1	5	NaN	1	4	0.105262013047592	0	1	NaN	247	4	58	2	120	220	320	NaN	520	0.150158175267279	2	0	NaN	4394118.8668634	NaN	4394119.8503653	4394120.36693582
104	19	1	0	90	36.1581920903955	36.241610738255	12	0.400039104223251	2	7	1	NaN	2	3	0.105262013047592	0	1	NaN	248	4	59	2	120	220	320	NaN	520	0.266628722660244	2	1	NaN	4394121.3504308	NaN	4394122.3339648	4394122.85050328
104	19	1	0	90	36.1581920903955	36.241610738255	16	0.533385472297668	2	6	4	NaN	1	5	0.105262013047592	0	1	NaN	249	4	60	2	120	220	320	NaN	520	0.171245374716818	1	1	NaN	4394123.9174833	NaN	4394124.900884	4394125.41742672
104	19	1	0	90	36.1581920903955	36.241610738255	17	0.566722064316273	2	3	3	NaN	1	5	0.105262013047592	0	1	NaN	250	4	61	2	120	220	320	NaN	520	0.183726727031171	1	1	NaN	4394126.4011683	NaN	4394127.3844534	4394127.90099807
104	19	1	0	90	36.1581920903955	36.241610738255	19	0.633395248353481	2	7	5	NaN	2	4	0.105262013047592	0	1	NaN	251	4	62	2	120	220	320	NaN	520	0.333090875297785	2	1	NaN	4394129.2679759	NaN	4394130.2513904	4394130.76795612
104	19	1	0	90	36.1581920903955	36.241610738255	9	0.300029328167438	2	11	2	NaN	2	4	0.105262013047592	0	1	NaN	252	4	63	2	120	220	320	NaN	520	0.258305327035487	2	1	NaN	4394131.9182484	NaN	4394132.9016632	4394133.41822037
104	19	1	0	90	36.1581920903955	36.241610738255	24	0.800078208446503	2	8	1	NaN	2	3	0.105262013047592	0	1	NaN	253	5	1	2	120	220	320	NaN	520	6.78852107468992	2	1	NaN	4394200.3083206	NaN	4394201.2917114	4394201.80825583
104	19	1	0	90	36.1581920903955	36.241610738255	17	0.566722064316273	2	6	5	NaN	1	5	0.105262013047592	0	1	NaN	254	5	2	2	120	220	320	NaN	520	0.135871875099838	1	1	NaN	4394209.409205	NaN	4394210.392604	4394210.90915752
104	19	1	0	90	36.1581920903955	36.241610738255	23	0.766741616427898	2	12	2	NaN	2	3	0.105262013047592	0	1	NaN	255	5	3	2	120	220	320	NaN	520	0.0692911744117737	2	1	NaN	4394211.8594538	NaN	4394212.8428552	4394213.35939053
104	19	1	0	90	36.1581920903955	36.241610738255	12	0.400039104223251	2	7	1	NaN	2	5	0.105262013047592	0	1	NaN	256	5	4	2	120	220	320	NaN	520	0.108462174423039	2	1	NaN	4394214.2763229	NaN	4394215.2597432	4394215.77629973
104	19	1	0	90	36.1581920903955	36.241610738255	7	0.23335614413023	2	12	2	NaN	2	3	0.105262013047592	0	1	NaN	257	5	5	2	120	220	320	NaN	520	0.899522074498236	2	1	NaN	4394216.6931796	NaN	4394217.6766604	4394218.19319753
104	19	1	0	90	36.1581920903955	36.241610738255	13	0.433375696241856	2	3	3	NaN	1	5	0.105262013047592	0	1	NaN	258	5	6	2	120	220	320	NaN	520	0.506888275034726	2	0	NaN	4394219.9102326	NaN	4394220.8936179	4394221.41018652
104	19	1	0	90	36.1581920903955	36.241610738255	16	0.533385472297668	2	12	1	NaN	2	3	0.105262013047592	0	1	NaN	259	5	7	2	120	220	320	NaN	520	0.153752875514328	2	1	NaN	4394222.7271888	NaN	4394223.7105828	4394224.22712572
104	19	1	0	90	36.1581920903955	36.241610738255	21	0.70006843239069	2	8	4	NaN	2	3	0.105262013047592	0	1	NaN	260	5	8	2	120	220	320	NaN	520	0.774838327430189	2	1	NaN	4394225.1940977	NaN	4394226.1774796	4394226.69403707
104	19	1	0	90	36.1581920903955	36.241610738255	17	0.566722064316273	2	5	5	NaN	1	3	0.105262013047592	0	1	NaN	261	5	9	2	120	220	320	NaN	520	2.57950957491994	1	1	NaN	4394228.277757	NaN	4394229.2611208	4394229.77766902
104	19	1	0	90	36.1581920903955	36.241610738255	10	0.333365920186043	2	3	5	NaN	1	3	0.105262013047592	0	1	NaN	262	5	10	2	120	220	320	NaN	520	0.286986823193729	2	0	NaN	4394233.17821	NaN	4394234.1615977	4394234.67814628
104	19	1	0	90	36.1581920903955	36.241610738255	7	0.23335614413023	2	8	1	NaN	2	3	0.105262013047592	0	1	NaN	263	5	11	2	120	220	320	NaN	520	0.278309475630522	1	0	NaN	4394235.7783659	NaN	4394236.7618117	4394237.27840312
104	19	1	0	90	36.1581920903955	36.241610738255	21	0.70006843239069	2	9	5	NaN	2	3	0.105262013047592	0	1	NaN	264	5	12	2	120	220	320	NaN	520	0.126415874809027	1	0	NaN	4394238.3787188	NaN	4394239.3620897	4394239.87867043
104	19	1	0	90	36.1581920903955	36.241610738255	9	0.300029328167438	2	8	6	NaN	2	3	0.105262013047592	0	1	NaN	265	5	13	2	120	220	320	NaN	520	0.612718175165355	2	1	NaN	4394240.8122819	NaN	4394241.7956894	4394242.31224213
104	19	1	0	90	36.1581920903955	36.241610738255	15	0.500048880279064	2	5	3	NaN	1	5	0.105262013047592	0	1	NaN	266	5	14	2	120	220	320	NaN	520	0.319961518980563	2	0	NaN	4394243.7292364	NaN	4394244.712624	4394245.22918298
104	19	1	0	90	36.1581920903955	36.241610738255	21	0.70006843239069	2	9	1	NaN	2	5	0.105262013047592	0	1	NaN	267	5	15	2	120	220	320	NaN	520	0.238345075398684	1	0	NaN	4394246.3627836	NaN	4394247.3462263	4394247.86277932
104	19	1	0	90	36.1581920903955	36.241610738255	9	0.300029328167438	2	10	5	NaN	2	3	0.105262013047592	0	1	NaN	268	5	16	2	120	220	320	NaN	520	0.367600074969232	2	1	NaN	4394248.9130662	NaN	4394249.8964822	4394250.41303953
104	19	1	0	90	36.1581920903955	36.241610738255	0	0	1	12	5	NaN	2	5	0.105262013047592	0	1	NaN	269	5	17	2	110	210	310	NaN	510	0.0598981268703938	2	1	NaN	4394251.5966844	NaN	4394252.5800933	4394253.09663167
104	19	1	0	90	36.1581920903955	36.241610738255	20	0.666731840372086	2	5	5	NaN	1	3	0.105262013047592	0	1	NaN	270	5	18	2	120	220	320	NaN	520	0.35658722743392	2	0	NaN	4394253.9801226	NaN	4394254.9636456	4394255.48019737
104	19	1	0	90	36.1581920903955	36.241610738255	23	0.766741616427898	2	1	2	NaN	1	5	0.105262013047592	0	1	NaN	271	5	19	2	120	220	320	NaN	520	0.265847674570978	1	1	NaN	4394256.6471806	NaN	4394257.630566	4394258.14711762
104	19	1	0	90	36.1581920903955	36.241610738255	19	0.633395248353481	2	3	6	NaN	1	3	0.105262013047592	0	1	NaN	272	5	20	2	120	220	320	NaN	520	0.282070922665298	2	0	NaN	4394259.2307588	NaN	4394260.2141518	4394260.73070998
104	19	1	0	90	36.1581920903955	36.241610738255	0	0	1	9	4	NaN	2	5	0.105262013047592	0	1	NaN	273	5	21	2	110	210	310	NaN	510	0.826128327287734	1	0	NaN	4394261.83101	NaN	4394262.8144182	4394263.33097247
104	19	1	0	90	36.1581920903955	36.241610738255	6	0.200019552111626	2	12	2	NaN	2	4	0.105262013047592	0	1	NaN	274	5	22	2	120	220	320	NaN	520	0.30847342684865	1	0	NaN	4394264.9646574	NaN	4394265.948068	4394266.46461327
104	19	1	0	90	36.1581920903955	36.241610738255	22	0.733405024409294	2	10	1	NaN	2	5	0.105262013047592	0	1	NaN	275	5	23	2	120	220	320	NaN	520	0.139316575601697	2	1	NaN	4394267.5814451	NaN	4394268.5649887	4394269.08152752
104	19	1	0	90	36.1581920903955	36.241610738255	16	0.533385472297668	2	7	4	NaN	2	4	0.105262013047592	0	1	NaN	276	5	24	2	120	220	320	NaN	520	1.49739452265203	2	1	NaN	4394270.0318226	NaN	4394271.0151195	4394271.53176428
104	19	1	0	90	36.1581920903955	36.241610738255	19	0.633395248353481	2	6	5	NaN	1	5	0.105262013047592	0	1	NaN	277	5	25	2	120	220	320	NaN	520	0.184081975370646	1	1	NaN	4394273.8488793	NaN	4394274.8322771	4394275.34881582
104	19	1	0	90	36.1581920903955	36.241610738255	24	0.800078208446503	2	8	2	NaN	2	4	0.105262013047592	0	1	NaN	278	5	26	2	120	220	320	NaN	520	0.220068074762821	2	1	NaN	4394276.3491138	NaN	4394277.3325112	4394277.84906263
104	19	1	0	90	36.1581920903955	36.241610738255	15	0.500048880279064	2	7	2	NaN	2	5	0.105262013047592	0	1	NaN	279	5	27	2	120	220	320	NaN	520	0.40654587559402	1	0	NaN	4394278.8826866	NaN	4394279.8660896	4394280.38264302
104	19	1	0	90	36.1581920903955	36.241610738255	20	0.666731840372086	2	10	3	NaN	2	5	0.105262013047592	0	1	NaN	280	5	28	2	120	220	320	NaN	520	0.129349734634161	2	1	NaN	4394281.599633	NaN	4394282.5830169	4394283.09959767
104	19	1	0	90	36.1581920903955	36.241610738255	25	0.833414800465107	2	11	4	NaN	2	4	0.105262013047592	0	1	NaN	281	5	29	2	120	220	320	NaN	520	0.151072327047586	2	1	NaN	4394284.0498771	NaN	4394285.0333035	4394285.54982247
104	19	1	0	90	36.1581920903955	36.241610738255	11	0.366702512204647	2	6	1	NaN	1	5	0.105262013047592	0	1	NaN	282	5	30	2	120	220	320	NaN	520	0.236185843124986	1	1	NaN	4394286.5167878	NaN	4394287.5001772	4394288.01672296
104	19	1	0	90	36.1581920903955	36.241610738255	16	0.533385472297668	2	5	4	NaN	1	3	0.105262013047592	0	1	NaN	283	5	31	2	120	220	320	NaN	520	6.30168062727898	2	0	NaN	4394289.0670302	NaN	4394290.0504381	4394290.56698127
104	19	1	0	90	36.1581920903955	36.241610738255	8	0.266692736148834	2	5	2	NaN	1	5	0.105262013047592	0	1	NaN	284	5	32	2	120	220	320	NaN	520	0.284422726370394	2	0	NaN	4394297.6845392	NaN	4394298.6679471	4394299.18448587
104	19	1	0	90	36.1581920903955	36.241610738255	9	0.300029328167438	2	1	3	NaN	1	5	0.105262013047592	0	1	NaN	285	5	33	2	120	220	320	NaN	520	0.10006957501173	2	0	NaN	4394300.2848039	NaN	4394301.268192	4394301.78474012
104	19	1	0	90	36.1581920903955	36.241610738255	17	0.566722064316273	2	12	2	NaN	2	5	0.105262013047592	0	1	NaN	286	5	34	2	120	220	320	NaN	520	0.411903070285916	2	1	NaN	4394302.6849061	NaN	4394303.6684293	4394304.18497753
104	19	1	0	90	36.1581920903955	36.241610738255	8	0.266692736148834	2	11	1	NaN	2	3	0.105262013047592	0	1	NaN	287	5	35	2	120	220	320	NaN	520	0.310849422588944	2	1	NaN	4394305.4018568	NaN	4394306.38536	4394306.90191178
104	19	1	0	90	36.1581920903955	36.241610738255	21	0.70006843239069	2	2	5	NaN	1	5	0.105262013047592	0	1	NaN	288	5	36	2	120	220	320	NaN	520	0.269459322094917	1	1	NaN	4394308.0355665	NaN	4394309.0189321	4394309.53550838
104	19	1	0	90	36.1581920903955	36.241610738255	15	0.500048880279064	2	12	4	NaN	2	4	0.105262013047592	0	1	NaN	289	5	37	2	120	220	320	NaN	520	0.477809427306056	1	0	NaN	4394310.6191697	NaN	4394311.6025306	4394312.11909837
104	19	1	0	90	36.1581920903955	36.241610738255	24	0.800078208446503	2	2	5	NaN	1	4	0.105262013047592	0	1	NaN	290	5	38	2	120	220	320	NaN	520	0.0102565959095955	1	1	NaN	4394313.4194291	NaN	4394314.4027956	4394314.9193727
104	19	1	0	90	36.1581920903955	36.241610738255	8	0.266692736148834	2	12	1	NaN	2	3	0.105262013047592	0	1	NaN	291	5	39	2	120	220	320	NaN	520	0.12008342333138	2	1	NaN	4394315.7529824	NaN	4394316.7363762	4394317.25292148
104	19	1	0	90	36.1581920903955	36.241610738255	11	0.366702512204647	2	1	6	NaN	1	5	0.105262013047592	0	1	NaN	292	5	40	2	120	220	320	NaN	520	0.166229374706745	2	0	NaN	4394318.1865268	NaN	4394319.1699636	4394319.68650592
104	19	1	0	90	36.1581920903955	36.241610738255	22	0.733405024409294	2	2	4	NaN	1	3	0.105262013047592	0	1	NaN	293	5	41	2	120	220	320	NaN	520	1.97095817979425	2	0	NaN	4394320.670125	NaN	4394321.6535597	4394322.17008452
104	19	1	0	90	36.1581920903955	36.241610738255	13	0.433375696241856	2	4	4	NaN	1	3	0.105262013047592	0	1	NaN	294	5	42	2	120	220	320	NaN	520	0.0551407225430012	2	0	NaN	4394324.9538758	NaN	4394325.9372816	4394326.45382658
104	19	1	0	90	36.1581920903955	36.241610738255	7	0.23335614413023	2	10	1	NaN	2	3	0.105262013047592	0	1	NaN	295	5	43	2	120	220	320	NaN	520	0.0322318272665143	2	1	NaN	4394327.3207899	NaN	4394328.3041782	4394328.82073147
104	19	1	0	90	36.1581920903955	36.241610738255	6	0.200019552111626	2	5	6	NaN	1	5	0.105262013047592	0	1	NaN	296	5	44	2	120	220	320	NaN	520	0.161990523338318	1	1	NaN	4394329.6709808	NaN	4394330.6544165	4394331.17096128
104	19	1	0	90	36.1581920903955	36.241610738255	15	0.500048880279064	2	2	3	NaN	1	3	0.105262013047592	0	1	NaN	297	5	45	2	120	220	320	NaN	520	0.366312575526536	2	0	NaN	4394332.1546006	NaN	4394333.1380234	4394333.65453702
104	19	1	0	90	36.1581920903955	36.241610738255	14	0.46671228826046	2	11	4	NaN	2	4	0.105262013047592	0	1	NaN	298	5	46	2	120	220	320	NaN	520	0.0588245755061507	2	1	NaN	4394334.8381893	NaN	4394335.8215898	4394336.33813472
104	19	1	0	90	36.1581920903955	36.241610738255	12	0.400039104223251	2	6	2	NaN	1	5	0.105262013047592	0	1	NaN	299	5	47	2	120	220	320	NaN	520	0.163919723592699	1	1	NaN	4394337.2050943	NaN	4394338.1884824	4394338.70502888
104	19	1	0	90	36.1581920903955	36.241610738255	12	0.400039104223251	2	10	2	NaN	2	4	0.105262013047592	0	1	NaN	300	5	48	2	120	220	320	NaN	520	0.200669374316931	1	0	NaN	4394339.6886658	NaN	4394340.6720449	4394341.18861173
104	19	1	0	90	36.1581920903955	36.241610738255	25	0.833414800465107	2	4	1	NaN	1	4	0.105262013047592	0	1	NaN	301	5	49	2	120	220	320	NaN	520	0.211441027000546	1	1	NaN	4394342.2055834	NaN	4394343.1889738	4394343.70553337
104	19	1	0	90	36.1581920903955	36.241610738255	9	0.300029328167438	2	12	3	NaN	2	4	0.105262013047592	0	1	NaN	302	5	50	2	120	220	320	NaN	520	4.45392417069525	2	1	NaN	4394344.7391667	NaN	4394345.7225425	4394346.23911413
104	19	1	0	90	36.1581920903955	36.241610738255	8	0.266692736148834	2	7	4	NaN	2	5	0.105262013047592	0	1	NaN	303	5	51	2	120	220	320	NaN	520	0.150834926404059	2	1	NaN	4394351.506494	NaN	4394352.4898907	4394353.00644517
104	19	1	0	90	36.1581920903955	36.241610738255	24	0.800078208446503	2	11	1	NaN	2	4	0.105262013047592	0	1	NaN	304	5	52	2	120	220	320	NaN	520	0.6259606750682	2	1	NaN	4394354.2232927	NaN	4394355.206827	4394355.72338043
104	19	1	0	90	36.1581920903955	36.241610738255	23	0.766741616427898	2	7	3	NaN	2	3	0.105262013047592	0	1	NaN	305	5	53	2	120	220	320	NaN	520	0.131456475704908	2	1	NaN	4394357.1735846	NaN	4394358.1571068	4394358.67367272
104	19	1	0	90	36.1581920903955	36.241610738255	10	0.333365920186043	2	8	3	NaN	2	4	0.105262013047592	0	1	NaN	306	5	54	2	120	220	320	NaN	520	0.0410354752093554	2	1	NaN	4394359.6239621	NaN	4394360.6073632	4394361.12389612
104	19	1	0	90	36.1581920903955	36.241610738255	13	0.433375696241856	2	11	3	NaN	2	5	0.105262013047592	0	1	NaN	307	5	55	2	120	220	320	NaN	520	0.554832874797285	2	1	NaN	4394361.9741848	NaN	4394362.9575787	4394363.47412822
104	19	1	0	90	36.1581920903955	36.241610738255	22	0.733405024409294	2	7	4	NaN	2	4	0.105262013047592	0	1	NaN	308	5	56	2	120	220	320	NaN	520	0.351813175715506	1	0	NaN	4394364.8411492	NaN	4394365.8245076	4394366.34108732
104	19	1	0	90	36.1581920903955	36.241610738255	20	0.666731840372086	2	4	6	NaN	1	5	0.105262013047592	0	1	NaN	309	5	57	2	120	220	320	NaN	520	0.084978275001049	1	1	NaN	4394367.508058	NaN	4394368.4914587	4394369.00800452
104	19	1	0	90	36.1581920903955	36.241610738255	25	0.833414800465107	2	3	6	NaN	1	5	0.105262013047592	0	1	NaN	310	5	58	2	120	220	320	NaN	520	0.181085675023496	2	0	NaN	4394369.9082996	NaN	4394370.8916975	4394371.40825082
104	19	1	0	90	36.1581920903955	36.241610738255	19	0.633395248353481	2	2	6	NaN	1	3	0.105262013047592	0	1	NaN	311	5	59	2	120	220	320	NaN	520	0.0103942267596722	2	0	NaN	4394372.3918784	NaN	4394373.3753139	4394373.89182867
104	19	1	0	90	36.1581920903955	36.241610738255	23	0.766741616427898	2	1	6	NaN	1	3	0.105262013047592	0	1	NaN	312	5	60	2	120	220	320	NaN	520	0.0735587757080793	2	0	NaN	4394375.1753442	NaN	4394376.1588893	4394376.67542402
104	19	1	0	90	36.1581920903955	36.241610738255	9	0.300029328167438	2	1	5	NaN	1	3	0.105262013047592	0	1	NaN	313	5	61	2	120	220	320	NaN	520	0.0420503271743655	1	1	NaN	4394377.5590529	NaN	4394378.5424527	4394379.05900487
104	19	1	0	90	36.1581920903955	36.241610738255	16	0.533385472297668	2	2	4	NaN	1	3	0.105262013047592	0	1	NaN	314	5	62	2	120	220	320	NaN	520	0.139843275770545	2	0	NaN	4394379.9092864	NaN	4394380.8926855	4394381.40922732
104	19	1	0	90	36.1581920903955	36.241610738255	15	0.500048880279064	2	10	2	NaN	2	5	0.105262013047592	0	1	NaN	315	5	63	2	120	220	320	NaN	520	0.0735577745363116	2	1	NaN	4394382.3595558	NaN	4394383.3429669	4394383.85946933
104	19	1	0	90	36.1581920903955	36.241610738255	22	0.733405024409294	2	9	3	NaN	2	4	0.105262013047592	0	1	NaN	316	6	1	2	120	220	320	NaN	520	0.97979037463665	1	0	NaN	4394625.9334492	NaN	4394626.916858	4394627.43338042
104	19	1	0	90	36.1581920903955	36.241610738255	0	0	1	7	4	NaN	2	5	0.105262013047592	0	1	NaN	317	6	2	2	110	210	310	NaN	510	0.767610175535083	2	1	NaN	4394629.2337601	NaN	4394630.217182	4394630.73371562
104	19	1	0	90	36.1581920903955	36.241610738255	8	0.266692736148834	2	12	3	NaN	2	4	0.105262013047592	0	1	NaN	318	6	3	2	120	220	320	NaN	520	0.300373123027384	2	1	NaN	4394632.3172709	NaN	4394633.3008166	4394633.81734158
104	19	1	0	90	36.1581920903955	36.241610738255	25	0.833414800465107	2	1	6	NaN	1	5	0.105262013047592	0	1	NaN	319	6	4	2	120	220	320	NaN	520	0.379084439016879	1	1	NaN	4394634.934396	NaN	4394635.9177231	4394636.43427246
104	19	1	0	90	36.1581920903955	36.241610738255	23	0.766741616427898	2	10	6	NaN	2	4	0.105262013047592	0	1	NaN	320	6	5	2	120	220	320	NaN	520	2.27137602772564	2	1	NaN	4394637.6345862	NaN	4394638.6179966	4394639.13454247
104	19	1	0	90	36.1581920903955	36.241610738255	23	0.766741616427898	2	3	3	NaN	1	3	0.105262013047592	0	1	NaN	321	6	6	2	120	220	320	NaN	520	0.182681770995259	1	1	NaN	4394642.235041	NaN	4394643.2184349	4394643.73498553
104	19	1	0	90	36.1581920903955	36.241610738255	10	0.333365920186043	2	2	6	NaN	1	4	0.105262013047592	0	1	NaN	322	6	7	2	120	220	320	NaN	520	0.210195175372064	2	0	NaN	4394644.7352673	NaN	4394645.7187344	4394646.23523332
104	19	1	0	90	36.1581920903955	36.241610738255	15	0.500048880279064	2	4	6	NaN	1	4	0.105262013047592	0	1	NaN	323	6	8	2	120	220	320	NaN	520	0.228947730734944	2	0	NaN	4394647.2688946	NaN	4394648.2522681	4394648.76881657
104	19	1	0	90	36.1581920903955	36.241610738255	21	0.70006843239069	2	4	5	NaN	1	3	0.105262013047592	0	1	NaN	324	6	9	2	120	220	320	NaN	520	0.478175139054656	1	1	NaN	4394649.8191546	NaN	4394650.8025298	4394651.31907286
104	19	1	0	90	36.1581920903955	36.241610738255	22	0.733405024409294	2	8	2	NaN	2	5	0.105262013047592	0	1	NaN	325	6	10	2	120	220	320	NaN	520	0.781870448030531	2	1	NaN	4394652.6193901	NaN	4394653.60281	4394654.11934725
104	19	1	0	90	36.1581920903955	36.241610738255	17	0.566722064316273	2	9	6	NaN	2	3	0.105262013047592	0	1	NaN	326	6	11	2	120	220	320	NaN	520	0.825845231302083	2	1	NaN	4394655.7196157	NaN	4394656.7030993	4394657.21964437
104	19	1	0	90	36.1581920903955	36.241610738255	16	0.533385472297668	2	10	6	NaN	2	3	0.105262013047592	0	1	NaN	327	6	12	2	120	220	320	NaN	520	0.50272657442838	2	1	NaN	4394659.1867216	NaN	4394660.1700973	4394660.68665173
104	19	1	0	90	36.1581920903955	36.241610738255	0	0	1	1	2	NaN	1	3	0.105262013047592	0	1	NaN	328	6	13	2	110	210	310	NaN	510	1.8212025705725	1	1	NaN	4394662.0202182	NaN	4394663.0037215	4394663.52026243
104	19	1	0	90	36.1581920903955	36.241610738255	11	0.366702512204647	2	2	1	NaN	1	4	0.105262013047592	0	1	NaN	329	6	14	2	120	220	320	NaN	520	0.270527427084744	2	0	NaN	4394666.1707252	NaN	4394667.1541363	4394667.67067917
104	19	1	0	90	36.1581920903955	36.241610738255	23	0.766741616427898	2	3	3	NaN	1	5	0.105262013047592	0	1	NaN	330	6	15	2	120	220	320	NaN	520	0.159114679321647	1	1	NaN	4394668.7543341	NaN	4394669.7377155	4394670.25426672
104	19	1	0	90	36.1581920903955	36.241610738255	20	0.666731840372086	2	6	6	NaN	1	3	0.105262013047592	0	1	NaN	331	6	16	2	120	220	320	NaN	520	0.0105204712599516	1	1	NaN	4394671.2212555	NaN	4394672.2046347	4394672.72117603
104	19	1	0	90	36.1581920903955	36.241610738255	22	0.733405024409294	2	4	6	NaN	1	4	0.105262013047592	0	1	NaN	332	6	17	2	120	220	320	NaN	520	0.350588522851467	2	0	NaN	4394673.5548203	NaN	4394674.5381819	4394675.05472638
104	19	1	0	90	36.1581920903955	36.241610738255	16	0.533385472297668	2	9	3	NaN	2	4	0.105262013047592	0	1	NaN	333	6	18	2	120	220	320	NaN	520	0.267692722380161	1	0	NaN	4394676.2217375	NaN	4394677.2051246	4394677.72166118
104	19	1	0	90	36.1581920903955	36.241610738255	20	0.666731840372086	2	1	1	NaN	1	4	0.105262013047592	0	1	NaN	334	6	19	2	120	220	320	NaN	520	0.132156723178923	1	1	NaN	4394678.8051749	NaN	4394679.7886889	4394680.30523908
104	19	1	0	90	36.1581920903955	36.241610738255	19	0.633395248353481	2	4	1	NaN	1	5	0.105262013047592	0	1	NaN	335	6	20	2	120	220	320	NaN	520	0.225875675678253	1	1	NaN	4394681.255449	NaN	4394682.238959	4394682.75548012
104	19	1	0	90	36.1581920903955	36.241610738255	6	0.200019552111626	2	11	2	NaN	2	5	0.105262013047592	0	1	NaN	336	6	21	2	120	220	320	NaN	520	0.0104085747152567	2	1	NaN	4394683.8058153	NaN	4394684.7892089	4394685.30573572
104	19	1	0	90	36.1581920903955	36.241610738255	18	0.600058656334877	2	9	1	NaN	2	4	0.105262013047592	0	1	NaN	337	6	22	2	120	220	320	NaN	520	0.0460202228277922	2	1	NaN	4394686.1393722	NaN	4394687.1227841	4394687.63930408
104	19	1	0	90	36.1581920903955	36.241610738255	13	0.433375696241856	2	5	3	NaN	1	3	0.105262013047592	0	1	NaN	338	6	23	2	120	220	320	NaN	520	0.0473493747413158	2	0	NaN	4394688.5062339	NaN	4394689.4896574	4394690.00620002
104	19	1	0	90	36.1581920903955	36.241610738255	23	0.766741616427898	2	6	4	NaN	1	5	0.105262013047592	0	1	NaN	339	6	24	2	120	220	320	NaN	520	0.544647723436356	2	0	NaN	4394690.8731655	NaN	4394691.8565666	4394692.37309548
104	19	1	0	90	36.1581920903955	36.241610738255	8	0.266692736148834	2	6	1	NaN	1	5	0.105262013047592	0	1	NaN	340	6	25	2	120	220	320	NaN	520	0.245665174908936	1	1	NaN	4394693.7401142	NaN	4394694.7234994	4394695.24006133
104	19	1	0	90	36.1581920903955	36.241610738255	10	0.333365920186043	2	9	6	NaN	2	4	0.105262013047592	0	1	NaN	341	6	26	2	120	220	320	NaN	520	0.0104282228276134	1	0	NaN	4394696.3069889	NaN	4394697.2904195	4394697.80696878
104	19	1	0	90	36.1581920903955	36.241610738255	12	0.400039104223251	2	9	5	NaN	2	3	0.105262013047592	0	1	NaN	342	6	27	2	120	220	320	NaN	520	1.22523412760347	2	1	NaN	4394698.6406021	NaN	4394699.6239891	4394700.14053127
104	19	1	0	90	36.1581920903955	36.241610738255	7	0.23335614413023	2	11	5	NaN	2	5	0.105262013047592	0	1	NaN	343	6	28	2	120	220	320	NaN	520	0.162585022859275	2	1	NaN	4394702.1909272	NaN	4394703.1743378	4394703.69088078
104	19	1	0	90	36.1581920903955	36.241610738255	11	0.366702512204647	2	12	3	NaN	2	5	0.105262013047592	0	1	NaN	344	6	29	2	120	220	320	NaN	520	0.095101579092443	1	0	NaN	4394704.6745068	NaN	4394705.6578188	4394706.17446292
104	19	1	0	90	36.1581920903955	36.241610738255	9	0.300029328167438	2	2	1	NaN	1	3	0.105262013047592	0	1	NaN	345	6	30	2	120	220	320	NaN	520	0.110187475569546	1	1	NaN	4394707.0914321	NaN	4394708.0748311	4394708.59136522
104	19	1	0	90	36.1581920903955	36.241610738255	17	0.566722064316273	2	11	5	NaN	2	4	0.105262013047592	0	1	NaN	346	6	31	2	120	220	320	NaN	520	0.0826100753620267	2	1	NaN	4394709.5748683	NaN	4394710.5584041	4394711.07493602
104	19	1	0	90	36.1581920903955	36.241610738255	12	0.400039104223251	2	6	2	NaN	1	5	0.105262013047592	0	1	NaN	347	6	32	2	120	220	320	NaN	520	3.35626592766494	1	1	NaN	4394713.5253894	NaN	4394714.5087549	4394715.02533077
104	19	1	0	90	36.1581920903955	36.241610738255	24	0.800078208446503	2	10	6	NaN	2	3	0.105262013047592	0	1	NaN	348	6	33	2	120	220	320	NaN	520	0.289309774525464	2	1	NaN	4394719.1926	NaN	4394720.1760005	4394720.69254543
104	19	1	0	90	36.1581920903955	36.241610738255	14	0.46671228826046	2	12	2	NaN	2	5	0.105262013047592	0	1	NaN	349	6	34	2	120	220	320	NaN	520	0.830165674909949	2	1	NaN	4394725.043177	NaN	4394726.026568	4394726.54312102
104	19	1	0	90	36.1581920903955	36.241610738255	24	0.800078208446503	2	12	3	NaN	2	4	0.105262013047592	0	1	NaN	350	6	35	2	120	220	320	NaN	520	0.763969774357975	2	1	NaN	4394728.6935072	NaN	4394729.6769497	4394730.19348023
104	19	1	0	90	36.1581920903955	36.241610738255	17	0.566722064316273	2	7	1	NaN	2	5	0.105262013047592	0	1	NaN	351	6	36	2	120	220	320	NaN	520	0.273795327171683	1	0	NaN	4394731.9439519	NaN	4394732.9272429	4394733.44380567
104	19	1	0	90	36.1581920903955	36.241610738255	13	0.433375696241856	2	6	6	NaN	1	5	0.105262013047592	0	1	NaN	352	6	37	2	120	220	320	NaN	520	0.395290247164667	1	1	NaN	4394736.8943315	NaN	4394737.8777504	4394738.39429965
104	19	1	0	90	36.1581920903955	36.241610738255	25	0.833414800465107	2	6	6	NaN	1	4	0.105262013047592	0	1	NaN	353	6	38	2	120	220	320	NaN	520	0.174213175661862	1	1	NaN	4394739.6112684	NaN	4394740.5946654	4394741.11121492
104	19	1	0	90	36.1581920903955	36.241610738255	21	0.70006843239069	2	6	6	NaN	1	4	0.105262013047592	0	1	NaN	354	6	39	2	120	220	320	NaN	520	0.430651491507888	1	1	NaN	4394858.9229035	NaN	4394859.9064076	4394860.42293611
104	19	1	0	90	36.1581920903955	36.241610738255	22	0.733405024409294	2	6	2	NaN	1	4	0.105262013047592	0	1	NaN	355	6	40	2	120	220	320	NaN	520	0.280378979630768	2	0	NaN	4394861.673274	NaN	4394862.6566741	4394863.17320462
104	19	1	0	90	36.1581920903955	36.241610738255	16	0.533385472297668	2	2	6	NaN	1	4	0.105262013047592	0	1	NaN	356	6	41	2	120	220	320	NaN	520	0.220314275473356	2	0	NaN	4394864.5734205	NaN	4394865.5569453	4394866.07348442
104	19	1	0	90	36.1581920903955	36.241610738255	12	0.400039104223251	2	3	4	NaN	1	5	0.105262013047592	0	1	NaN	357	6	42	2	120	220	320	NaN	520	0.301869640126824	1	1	NaN	4394867.1237989	NaN	4394868.1072412	4394868.62376356
104	19	1	0	90	36.1581920903955	36.241610738255	10	0.333365920186043	2	11	4	NaN	2	3	0.105262013047592	0	1	NaN	358	6	43	2	120	220	320	NaN	520	2.18856051843613	2	1	NaN	4394869.7574181	NaN	4394870.7407716	4394871.25733228
104	19	1	0	90	36.1581920903955	36.241610738255	22	0.733405024409294	2	7	5	NaN	2	3	0.105262013047592	0	1	NaN	359	6	44	2	120	220	320	NaN	520	0.359059323556721	2	1	NaN	4394874.2745506	NaN	4394875.2579183	4394875.77443908
104	19	1	0	90	36.1581920903955	36.241610738255	18	0.600058656334877	2	4	5	NaN	1	3	0.105262013047592	0	1	NaN	360	6	45	2	120	220	320	NaN	520	0.28362412750721	1	1	NaN	4394876.9581088	NaN	4394877.9415087	4394878.45803717
104	19	1	0	90	36.1581920903955	36.241610738255	15	0.500048880279064	2	11	6	NaN	2	5	0.105262013047592	0	1	NaN	361	6	46	2	120	220	320	NaN	520	0.219303638674319	2	1	NaN	4394879.5583239	NaN	4394880.5417629	4394881.05829426
104	19	1	0	90	36.1581920903955	36.241610738255	11	0.366702512204647	2	3	2	NaN	1	4	0.105262013047592	0	1	NaN	362	6	47	2	120	220	320	NaN	520	0.0692011751234531	1	1	NaN	4394882.1086305	NaN	4394883.0920107	4394883.60854283
104	19	1	0	90	36.1581920903955	36.241610738255	16	0.533385472297668	2	8	4	NaN	2	4	0.105262013047592	0	1	NaN	363	6	48	2	120	220	320	NaN	520	0.0936117749661207	1	0	NaN	4394884.4921381	NaN	4394885.4755904	4394885.99211193
104	19	1	0	90	36.1581920903955	36.241610738255	0	0	1	5	3	NaN	1	3	0.105262013047592	0	1	NaN	364	6	49	2	110	210	310	NaN	510	0.301104327663779	2	0	NaN	4394886.9090917	NaN	4394887.8924659	4394888.40902387
104	19	1	0	90	36.1581920903955	36.241610738255	8	0.266692736148834	2	10	5	NaN	2	4	0.105262013047592	0	1	NaN	365	6	50	2	120	220	320	NaN	520	0.139685871079564	1	0	NaN	4394889.5259992	NaN	4394890.5094054	4394891.02593413
104	19	1	0	90	36.1581920903955	36.241610738255	6	0.200019552111626	2	11	6	NaN	2	3	0.105262013047592	0	1	NaN	366	6	51	2	120	220	320	NaN	520	0.153510583564639	2	1	NaN	4394891.9762358	NaN	4394892.9596428	4394893.47620152
104	19	1	0	90	36.1581920903955	36.241610738255	18	0.600058656334877	2	7	3	NaN	2	5	0.105262013047592	0	1	NaN	367	6	52	2	120	220	320	NaN	520	0.66234992723912	2	1	NaN	4394894.4598223	NaN	4394895.4432389	4394895.95975957
104	19	1	0	90	36.1581920903955	36.241610738255	9	0.300029328167438	2	4	5	NaN	1	3	0.105262013047592	0	1	NaN	368	6	53	2	120	220	320	NaN	520	0.134309475310147	1	1	NaN	4394897.4434634	NaN	4394898.4268563	4394898.94338572
104	19	1	0	90	36.1581920903955	36.241610738255	16	0.533385472297668	2	5	4	NaN	1	4	0.105262013047592	0	1	NaN	369	6	54	2	120	220	320	NaN	520	2.47604087460786	2	0	NaN	4394899.8935695	NaN	4394900.8770837	4394901.39362733
104	19	1	0	90	36.1581920903955	36.241610738255	13	0.433375696241856	2	9	1	NaN	2	3	0.105262013047592	0	1	NaN	370	6	55	2	120	220	320	NaN	520	0.171760775148869	2	1	NaN	4394904.694211	NaN	4394905.6775816	4394906.19409482
104	19	1	0	90	36.1581920903955	36.241610738255	14	0.46671228826046	2	3	4	NaN	1	4	0.105262013047592	0	1	NaN	371	6	56	2	120	220	320	NaN	520	0.431277732364833	2	0	NaN	4394907.1942961	NaN	4394908.1778329	4394908.69433977
104	19	1	0	90	36.1581920903955	36.241610738255	0	0	1	3	5	NaN	1	3	0.105262013047592	0	1	NaN	372	6	57	2	110	210	310	NaN	510	1.79299302678555	2	0	NaN	4394909.9446557	NaN	4394910.9281167	4394911.44461097
104	19	1	0	90	36.1581920903955	36.241610738255	9	0.300029328167438	2	10	5	NaN	2	5	0.105262013047592	0	1	NaN	373	6	58	2	120	220	320	NaN	520	2.30801132228225	1	0	NaN	4394914.0617611	NaN	4394915.0451465	4394915.56168068
104	19	1	0	90	36.1581920903955	36.241610738255	19	0.633395248353481	2	11	6	NaN	2	3	0.105262013047592	0	1	NaN	374	6	59	2	120	220	320	NaN	520	0.306271526962519	2	1	NaN	4394918.6955449	NaN	4394919.6788272	4394920.19547957
104	19	1	0	90	36.1581920903955	36.241610738255	6	0.200019552111626	2	5	2	NaN	1	5	0.105262013047592	0	1	NaN	375	6	60	2	120	220	320	NaN	520	0.401650275103748	1	1	NaN	4394921.3124732	NaN	4394922.2958686	4394922.81238853
104	19	1	0	90	36.1581920903955	36.241610738255	24	0.800078208446503	2	3	5	NaN	1	4	0.105262013047592	0	1	NaN	376	6	61	2	120	220	320	NaN	520	0.460770571604371	1	1	NaN	4394924.0292869	NaN	4394925.0127983	4394925.52932933
104	19	1	0	90	36.1581920903955	36.241610738255	9	0.300029328167438	2	6	4	NaN	1	5	0.105262013047592	0	1	NaN	377	6	62	2	120	220	320	NaN	520	4.41318597458303	1	1	NaN	4394926.8130097	NaN	4394927.7964374	4394928.31293593
104	19	1	0	90	36.1581920903955	36.241610738255	16	0.533385472297668	2	9	2	NaN	2	3	0.105262013047592	0	1	NaN	378	6	63	2	120	220	320	NaN	520	0.262753579765558	2	1	NaN	4394933.5470003	NaN	4394934.5303985	4394935.04693622
104	19	1	0	90	36.1581920903955	36.241610738255	14	0.46671228826046	2	5	5	NaN	1	5	0.105262013047592	0	1	NaN	379	7	1	2	120	220	320	NaN	520	1.62249292712659	2	0	NaN	4394993.8195759	NaN	4394994.802978	4394995.31950977
104	19	1	0	90	36.1581920903955	36.241610738255	14	0.46671228826046	2	10	2	NaN	2	4	0.105262013047592	0	1	NaN	380	7	2	2	120	220	320	NaN	520	0.256361475214362	1	0	NaN	4394997.7699591	NaN	4394998.7533435	4394999.26990842
104	19	1	0	90	36.1581920903955	36.241610738255	10	0.333365920186043	2	4	2	NaN	1	4	0.105262013047592	0	1	NaN	381	7	3	2	120	220	320	NaN	520	0.776644335128367	1	1	NaN	4395000.3535448	NaN	4395001.3369718	4395001.85349237
104	19	1	0	90	36.1581920903955	36.241610738255	16	0.533385472297668	2	1	3	NaN	1	5	0.105262013047592	0	1	NaN	382	7	4	2	120	220	320	NaN	520	1.12442702706903	1	1	NaN	4395003.4538455	NaN	4395004.4372228	4395004.95378637
104	19	1	0	90	36.1581920903955	36.241610738255	8	0.266692736148834	2	3	6	NaN	1	3	0.105262013047592	0	1	NaN	383	7	5	2	120	220	320	NaN	520	0.938131091184914	2	0	NaN	4395006.9041967	NaN	4395007.8876148	4395008.40413081
104	19	1	0	90	36.1581920903955	36.241610738255	18	0.600058656334877	2	10	6	NaN	2	4	0.105262013047592	0	1	NaN	384	7	6	2	120	220	320	NaN	520	0.262777523137629	2	1	NaN	4395010.1711915	NaN	4395011.1545821	4395011.67112398
104	19	1	0	90	36.1581920903955	36.241610738255	25	0.833414800465107	2	11	3	NaN	2	3	0.105262013047592	0	1	NaN	385	7	7	2	120	220	320	NaN	520	0.159271522425115	2	1	NaN	4395012.7548022	NaN	4395013.738154	4395014.25470128
104	19	1	0	90	36.1581920903955	36.241610738255	23	0.766741616427898	2	9	5	NaN	2	5	0.105262013047592	0	1	NaN	386	7	8	2	120	220	320	NaN	520	3.87559779174626	2	1	NaN	4395015.2383491	NaN	4395016.221744	4395016.73828941
104	19	1	0	90	36.1581920903955	36.241610738255	16	0.533385472297668	2	7	1	NaN	2	4	0.105262013047592	0	1	NaN	387	7	9	2	120	220	320	NaN	520	0.411077227443457	2	1	NaN	4395021.4389499	NaN	4395022.4223569	4395022.93888607
104	19	1	0	90	36.1581920903955	36.241610738255	8	0.266692736148834	2	1	4	NaN	1	3	0.105262013047592	0	1	NaN	388	7	10	2	120	220	320	NaN	520	0.413428839296103	2	0	NaN	4395024.1725664	NaN	4395025.1559309	4395025.67249046
104	19	1	0	90	36.1581920903955	36.241610738255	9	0.300029328167438	2	3	2	NaN	1	5	0.105262013047592	0	1	NaN	389	7	11	2	120	220	320	NaN	520	2.90368877444416	2	0	NaN	4395026.9060128	NaN	4395027.8895818	4395028.40609713
104	19	1	0	90	36.1581920903955	36.241610738255	17	0.566722064316273	2	3	2	NaN	1	3	0.105262013047592	0	1	NaN	390	7	12	2	120	220	320	NaN	520	0.271044375374913	2	0	NaN	4395032.1233294	NaN	4395033.1067406	4395033.62327342
104	19	1	0	90	36.1581920903955	36.241610738255	22	0.733405024409294	2	12	5	NaN	2	4	0.105262013047592	0	1	NaN	391	7	13	2	120	220	320	NaN	520	0.182806774973869	2	1	NaN	4395034.7236809	NaN	4395035.7069928	4395036.22352192
104	19	1	0	90	36.1581920903955	36.241610738255	22	0.733405024409294	2	11	6	NaN	2	5	0.105262013047592	0	1	NaN	392	7	14	2	120	220	320	NaN	520	0.202075939625502	2	1	NaN	4395037.2236627	NaN	4395038.2071939	4395038.72377676
104	19	1	0	90	36.1581920903955	36.241610738255	7	0.23335614413023	2	1	4	NaN	1	5	0.105262013047592	0	1	NaN	393	7	15	2	120	220	320	NaN	520	0.0206791395321488	2	0	NaN	4395039.9574335	NaN	4395040.9408416	4395041.45738126
104	19	1	0	90	36.1581920903955	36.241610738255	18	0.600058656334877	2	9	4	NaN	2	3	0.105262013047592	0	1	NaN	394	7	16	2	120	220	320	NaN	520	0.0143793867900968	1	0	NaN	4395042.307683	NaN	4395043.2910745	4395043.80760261
104	19	1	0	90	36.1581920903955	36.241610738255	9	0.300029328167438	2	12	6	NaN	2	5	0.105262013047592	0	1	NaN	395	7	17	2	120	220	320	NaN	520	0.361046875827014	2	1	NaN	4395044.6412316	NaN	4395045.6246811	4395046.14116822
104	19	1	0	90	36.1581920903955	36.241610738255	20	0.666731840372086	2	7	3	NaN	2	4	0.105262013047592	0	1	NaN	396	7	18	2	120	220	320	NaN	520	0.138658170588315	2	1	NaN	4395047.3914835	NaN	4395048.3747903	4395048.89144003
104	19	1	0	90	36.1581920903955	36.241610738255	6	0.200019552111626	2	9	4	NaN	2	4	0.105262013047592	0	1	NaN	397	7	19	2	120	220	320	NaN	520	0.200136674568057	1	0	NaN	4395049.8417676	NaN	4395050.825164	4395051.34168182
104	19	1	0	90	36.1581920903955	36.241610738255	7	0.23335614413023	2	4	1	NaN	1	5	0.105262013047592	0	1	NaN	398	7	20	2	120	220	320	NaN	520	0.275646726600826	1	1	NaN	4395052.3586573	NaN	4395053.3420742	4395053.85858867
104	19	1	0	90	36.1581920903955	36.241610738255	25	0.833414800465107	2	12	6	NaN	2	3	0.105262013047592	0	1	NaN	399	7	21	2	120	220	320	NaN	520	0.0438414318487048	1	0	NaN	4395054.9422546	NaN	4395055.9256616	4395056.44218697
104	19	1	0	90	36.1581920903955	36.241610738255	10	0.333365920186043	2	9	4	NaN	2	3	0.105262013047592	0	1	NaN	400	7	22	2	120	220	320	NaN	520	1.4285724228248	1	0	NaN	4395057.3090614	NaN	4395058.292556	4395058.80907838
104	19	1	0	90	36.1581920903955	36.241610738255	22	0.733405024409294	2	8	1	NaN	2	4	0.105262013047592	0	1	NaN	401	7	23	2	120	220	320	NaN	520	0.158369584009051	2	1	NaN	4395061.0595041	NaN	4395062.0429028	4395062.55944722
104	19	1	0	90	36.1581920903955	36.241610738255	8	0.266692736148834	2	10	1	NaN	2	3	0.105262013047592	0	1	NaN	402	7	24	2	120	220	320	NaN	520	0.867604423314333	2	1	NaN	4395063.5263101	NaN	4395064.5098595	4395065.02635148
104	19	1	0	90	36.1581920903955	36.241610738255	12	0.400039104223251	2	8	1	NaN	2	4	0.105262013047592	0	1	NaN	403	7	25	2	120	220	320	NaN	520	0.21151852235198	1	0	NaN	4395066.7267341	NaN	4395067.7101741	4395068.22668688
104	19	1	0	90	36.1581920903955	36.241610738255	9	0.300029328167438	2	6	6	NaN	1	3	0.105262013047592	0	1	NaN	404	7	26	2	120	220	320	NaN	520	0.0697180796414614	1	1	NaN	4395069.2603245	NaN	4395070.2437047	4395070.76024882
104	19	1	0	90	36.1581920903955	36.241610738255	13	0.433375696241856	2	8	3	NaN	2	3	0.105262013047592	0	1	NaN	405	7	27	2	120	220	320	NaN	520	0.645756496116519	2	1	NaN	4395071.6605506	NaN	4395072.6439493	4395073.1605162
104	19	1	0	90	36.1581920903955	36.241610738255	25	0.833414800465107	2	4	2	NaN	1	5	0.105262013047592	0	1	NaN	406	7	28	2	120	220	320	NaN	520	1.08647063933313	1	1	NaN	4395074.6275167	NaN	4395075.6109085	4395076.12744176
104	19	1	0	90	36.1581920903955	36.241610738255	9	0.300029328167438	2	9	6	NaN	2	3	0.105262013047592	0	1	NaN	407	7	29	2	120	220	320	NaN	520	0.550011279061437	1	0	NaN	4395078.0278556	NaN	4395079.0112334	4395079.52778242
104	19	1	0	90	36.1581920903955	36.241610738255	0	0	1	8	5	NaN	2	3	0.105262013047592	0	1	NaN	408	7	30	2	110	210	310	NaN	510	0.363273775205016	2	1	NaN	4395080.8947985	NaN	4395081.8781978	4395082.39472502
104	19	1	0	90	36.1581920903955	36.241610738255	18	0.600058656334877	2	8	4	NaN	2	5	0.105262013047592	0	1	NaN	409	7	31	2	120	220	320	NaN	520	0.367711086757481	2	1	NaN	4395083.5784051	NaN	4395084.5617893	4395085.07832091
104	19	1	0	90	36.1581920903955	36.241610738255	7	0.23335614413023	2	3	4	NaN	1	5	0.105262013047592	0	1	NaN	410	7	32	2	120	220	320	NaN	520	0.164387023076415	2	0	NaN	4395086.2619818	NaN	4395087.2454205	4395087.76191638
104	19	1	0	90	36.1581920903955	36.241610738255	22	0.733405024409294	2	6	5	NaN	1	3	0.105262013047592	0	1	NaN	411	7	33	2	120	220	320	NaN	520	0.104633127339184	1	1	NaN	4395088.7455676	NaN	4395089.7289649	4395090.24549467
104	19	1	0	90	36.1581920903955	36.241610738255	7	0.23335614413023	2	2	1	NaN	1	4	0.105262013047592	0	1	NaN	412	7	34	2	120	220	320	NaN	520	0.0948665225878358	1	1	NaN	4395091.1790418	NaN	4395092.1625185	4395092.67906328
104	19	1	0	90	36.1581920903955	36.241610738255	7	0.23335614413023	2	5	6	NaN	1	4	0.105262013047592	0	1	NaN	413	7	35	2	120	220	320	NaN	520	0.894066322594881	1	1	NaN	4395093.596065	NaN	4395094.5794683	4395095.09596448
104	19	1	0	90	36.1581920903955	36.241610738255	10	0.333365920186043	2	10	1	NaN	2	3	0.105262013047592	0	1	NaN	414	7	36	2	120	220	320	NaN	520	0.173036644235253	2	1	NaN	4395096.8130361	NaN	4395097.796439	4395098.31296156
104	19	1	0	90	36.1581920903955	36.241610738255	24	0.800078208446503	2	12	3	NaN	2	3	0.105262013047592	0	1	NaN	415	7	37	2	120	220	320	NaN	520	0.400702187791467	2	1	NaN	4395099.3132841	NaN	4395100.2966712	4395100.81320411
104	19	1	0	90	36.1581920903955	36.241610738255	0	0	1	6	2	NaN	1	5	0.105262013047592	0	1	NaN	416	7	38	2	110	210	310	NaN	510	0.257275874726474	1	1	NaN	4395102.0968742	NaN	4395103.0802549	4395103.59680043
104	19	1	0	90	36.1581920903955	36.241610738255	10	0.333365920186043	2	5	2	NaN	1	5	0.105262013047592	0	1	NaN	417	7	39	2	120	220	320	NaN	520	0.129595279693604	1	1	NaN	4395104.6804603	NaN	4395105.6638561	4395106.18040912
104	19	1	0	90	36.1581920903955	36.241610738255	21	0.70006843239069	2	6	3	NaN	1	4	0.105262013047592	0	1	NaN	418	7	40	2	120	220	320	NaN	520	1.42371987551451	1	1	NaN	4395107.1307275	NaN	4395108.1140983	4395108.63063862
104	19	1	0	90	36.1581920903955	36.241610738255	24	0.800078208446503	2	1	4	NaN	1	4	0.105262013047592	0	1	NaN	419	7	41	2	120	220	320	NaN	520	0.753036526963115	1	1	NaN	4395110.8811017	NaN	4395111.8644712	4395112.38100137
104	19	1	0	90	36.1581920903955	36.241610738255	19	0.633395248353481	2	11	4	NaN	2	3	0.105262013047592	0	1	NaN	420	7	42	2	120	220	320	NaN	520	0.789866822771728	1	0	NaN	4395113.9480451	NaN	4395114.9314467	4395115.44796418
104	19	1	0	90	36.1581920903955	36.241610738255	24	0.800078208446503	2	9	4	NaN	2	4	0.105262013047592	0	1	NaN	421	7	43	2	120	220	320	NaN	520	0.713065574876964	1	0	NaN	4395117.0650012	NaN	4395118.04838	4395118.56494163
104	19	1	0	90	36.1581920903955	36.241610738255	8	0.266692736148834	2	11	4	NaN	2	4	0.105262013047592	0	1	NaN	422	7	44	2	120	220	320	NaN	520	0.22348433919251	2	1	NaN	4395120.0986423	NaN	4395121.0820415	4395121.59858206
104	19	1	0	90	36.1581920903955	36.241610738255	14	0.46671228826046	2	9	1	NaN	2	5	0.105262013047592	0	1	NaN	423	7	45	2	120	220	320	NaN	520	0.191919875331223	1	0	NaN	4395122.6821566	NaN	4395123.6656256	4395124.18215962
104	19	1	0	90	36.1581920903955	36.241610738255	19	0.633395248353481	2	7	6	NaN	2	4	0.105262013047592	0	1	NaN	424	7	46	2	120	220	320	NaN	520	0.202900439500809	2	1	NaN	4395125.1991334	NaN	4395126.1825597	4395126.69907416
104	19	1	0	90	36.1581920903955	36.241610738255	19	0.633395248353481	2	8	4	NaN	2	4	0.105262013047592	0	1	NaN	425	7	47	2	120	220	320	NaN	520	0.389188622124493	1	0	NaN	4395127.7327258	NaN	4395128.7161456	4395129.23265768
104	19	1	0	90	36.1581920903955	36.241610738255	17	0.566722064316273	2	10	4	NaN	2	5	0.105262013047592	0	1	NaN	426	7	48	2	120	220	320	NaN	520	0.192182332277298	2	1	NaN	4395130.4496553	NaN	4395131.4330385	4395131.94959257
104	19	1	0	90	36.1581920903955	36.241610738255	17	0.566722064316273	2	8	6	NaN	2	4	0.105262013047592	0	1	NaN	427	7	49	2	120	220	320	NaN	520	0.114788690581918	1	0	NaN	4395132.9832339	NaN	4395133.9667284	4395134.48317541
104	19	1	0	90	36.1581920903955	36.241610738255	19	0.633395248353481	2	6	4	NaN	1	4	0.105262013047592	0	1	NaN	428	7	50	2	120	220	320	NaN	520	0.353240432217717	1	1	NaN	4395135.4166924	NaN	4395136.4002008	4395136.91674627
104	19	1	0	90	36.1581920903955	36.241610738255	18	0.600058656334877	2	11	6	NaN	2	3	0.105262013047592	0	1	NaN	429	7	51	2	120	220	320	NaN	520	0.334101974964142	2	1	NaN	4395138.1004128	NaN	4395139.083807	4395139.60034582
104	19	1	0	90	36.1581920903955	36.241610738255	7	0.23335614413023	2	7	4	NaN	2	5	0.105262013047592	0	1	NaN	430	7	52	2	120	220	320	NaN	520	0.179497722536325	2	1	NaN	4395140.7506571	NaN	4395141.7340454	4395142.25059688
104	19	1	0	90	36.1581920903955	36.241610738255	11	0.366702512204647	2	12	3	NaN	2	3	0.105262013047592	0	1	NaN	431	7	53	2	120	220	320	NaN	520	1.95129107125103	2	1	NaN	4395143.2509245	NaN	4395144.2343403	4395144.75084553
104	19	1	0	90	36.1581920903955	36.241610738255	21	0.70006843239069	2	11	6	NaN	2	4	0.105262013047592	0	1	NaN	432	7	54	2	120	220	320	NaN	520	0.332575318403542	2	1	NaN	4395147.5179884	NaN	4395148.5013667	4395149.01792418
104	19	1	0	90	36.1581920903955	36.241610738255	0	0	1	4	3	NaN	1	3	0.105262013047592	0	1	NaN	433	7	55	2	110	210	310	NaN	510	0.138119574636221	2	0	NaN	4395150.1681044	NaN	4395151.151669	4395151.66818453
104	19	1	0	90	36.1581920903955	36.241610738255	10	0.333365920186043	2	6	1	NaN	1	5	0.105262013047592	0	1	NaN	434	7	56	2	120	220	320	NaN	520	0.127334075048566	1	1	NaN	4395152.6350266	NaN	4395153.6185529	4395154.13509412
104	19	1	0	90	36.1581920903955	36.241610738255	16	0.533385472297668	2	11	5	NaN	2	5	0.105262013047592	0	1	NaN	435	7	57	2	120	220	320	NaN	520	0.165075627155602	2	1	NaN	4395155.0854192	NaN	4395156.0688055	4395156.58533497
104	19	1	0	90	36.1581920903955	36.241610738255	13	0.433375696241856	2	4	5	NaN	1	3	0.105262013047592	0	1	NaN	436	7	58	2	120	220	320	NaN	520	0.121056674979627	1	1	NaN	4395157.5688417	NaN	4395158.5523948	4395159.06891272
104	19	1	0	90	36.1581920903955	36.241610738255	14	0.46671228826046	2	8	2	NaN	2	5	0.105262013047592	0	1	NaN	437	7	59	2	120	220	320	NaN	520	0.150965423323214	2	1	NaN	4395160.0192242	NaN	4395161.0026355	4395161.51915318
104	19	1	0	90	36.1581920903955	36.241610738255	14	0.46671228826046	2	2	1	NaN	1	4	0.105262013047592	0	1	NaN	438	7	60	2	120	220	320	NaN	520	0.492312226444483	1	1	NaN	4395162.4861491	NaN	4395163.4695329	4395163.98609387
104	19	1	0	90	36.1581920903955	36.241610738255	9	0.300029328167438	2	7	2	NaN	2	4	0.105262013047592	0	1	NaN	439	7	61	2	120	220	320	NaN	520	0.226944674737751	2	1	NaN	4395165.3030677	NaN	4395166.2864732	4395166.80301243
104	19	1	0	90	36.1581920903955	36.241610738255	11	0.366702512204647	2	5	2	NaN	1	5	0.105262013047592	0	1	NaN	440	7	62	2	120	220	320	NaN	520	0.116787671111524	2	0	NaN	4395167.8534004	NaN	4395168.8367543	4395169.35325793
104	19	1	0	90	36.1581920903955	36.241610738255	0	0	1	6	3	NaN	1	3	0.105262013047592	0	1	NaN	441	7	63	2	110	210	310	NaN	510	0.19488637894392	1	1	NaN	4395170.3035579	NaN	4395171.2869729	4395171.80351042
104	19	1	0	90	36.1581920903955	36.241610738255	20	0.666731840372086	2	9	5	NaN	2	4	0.105262013047592	0	1	NaN	442	8	1	2	120	220	320	NaN	520	0.344649623148143	1	0	NaN	4395302.6498625	NaN	4395303.6333057	4395304.14982748
104	19	1	0	90	36.1581920903955	36.241610738255	0	0	1	10	5	NaN	2	4	0.105262013047592	0	1	NaN	443	8	2	2	110	210	310	NaN	510	4.32540512736887	2	1	NaN	4395305.3167213	NaN	4395306.3002268	4395306.81675557
104	19	1	0	90	36.1581920903955	36.241610738255	12	0.400039104223251	2	2	2	NaN	1	4	0.105262013047592	0	1	NaN	444	8	3	2	120	220	320	NaN	520	0.210889322683215	1	1	NaN	4395311.9674789	NaN	4395312.9508743	4395313.46740338
104	19	1	0	90	36.1581920903955	36.241610738255	9	0.300029328167438	2	5	2	NaN	1	3	0.105262013047592	0	1	NaN	445	8	4	2	120	220	320	NaN	520	0.293338023126125	1	1	NaN	4395314.5010523	NaN	4395315.4844416	4395316.00098548
104	19	1	0	90	36.1581920903955	36.241610738255	21	0.70006843239069	2	1	1	NaN	1	5	0.105262013047592	0	1	NaN	446	8	5	2	120	220	320	NaN	520	0.256681839004159	1	1	NaN	4395317.4178908	NaN	4395318.4014203	4395318.91794836
104	19	1	0	90	36.1581920903955	36.241610738255	8	0.266692736148834	2	8	6	NaN	2	5	0.105262013047592	0	1	NaN	447	8	6	2	120	220	320	NaN	520	0.112740827724338	1	0	NaN	4395320.0016083	NaN	4395320.9850128	4395321.50155467
104	19	1	0	90	36.1581920903955	36.241610738255	24	0.800078208446503	2	6	1	NaN	1	4	0.105262013047592	0	1	NaN	448	8	7	2	120	220	320	NaN	520	1.15125197079033	1	1	NaN	4395322.435161	NaN	4395323.4185715	4395323.93509573
104	19	1	0	90	36.1581920903955	36.241610738255	24	0.800078208446503	2	3	1	NaN	1	4	0.105262013047592	0	1	NaN	449	8	8	2	120	220	320	NaN	520	0.420759622938931	2	0	NaN	4395325.9021009	NaN	4395326.88556	4395327.40211318
104	19	1	0	90	36.1581920903955	36.241610738255	21	0.70006843239069	2	3	1	NaN	1	5	0.105262013047592	0	1	NaN	450	8	9	2	120	220	320	NaN	520	0.366530222818255	2	0	NaN	4395328.635806	NaN	4395329.6191806	4395330.13572678
104	19	1	0	90	36.1581920903955	36.241610738255	22	0.733405024409294	2	1	2	NaN	1	5	0.105262013047592	0	1	NaN	451	8	10	2	120	220	320	NaN	520	1.29881592374295	2	0	NaN	4395331.3193639	NaN	4395332.3027779	4395332.81930898
104	19	1	0	90	36.1581920903955	36.241610738255	11	0.366702512204647	2	9	1	NaN	2	4	0.105262013047592	0	1	NaN	452	8	11	2	120	220	320	NaN	520	0.474343474954367	2	1	NaN	4395334.9363959	NaN	4395335.9197642	4395336.43633032
104	19	1	0	90	36.1581920903955	36.241610738255	18	0.600058656334877	2	6	2	NaN	1	3	0.105262013047592	0	1	NaN	453	8	12	2	120	220	320	NaN	520	0.249682779423892	1	1	NaN	4395337.7366787	NaN	4395338.7200461	4395339.23659652
104	19	1	0	90	36.1581920903955	36.241610738255	0	0	1	2	6	NaN	1	4	0.105262013047592	0	1	NaN	454	8	13	2	110	210	310	NaN	510	0.571288122795522	2	0	NaN	4395340.3036096	NaN	4395341.2869689	4395341.80351618
104	19	1	0	90	36.1581920903955	36.241610738255	23	0.766741616427898	2	4	3	NaN	1	5	0.105262013047592	0	1	NaN	455	8	14	2	120	220	320	NaN	520	0.167322179302573	1	1	NaN	4395343.1872278	NaN	4395344.1706068	4395344.68713802
104	19	1	0	90	36.1581920903955	36.241610738255	22	0.733405024409294	2	3	3	NaN	1	5	0.105262013047592	0	1	NaN	456	8	15	2	120	220	320	NaN	520	0.131704171188176	1	1	NaN	4395345.6707592	NaN	4395346.6541714	4395347.17071883
104	19	1	0	90	36.1581920903955	36.241610738255	22	0.733405024409294	2	10	5	NaN	2	3	0.105262013047592	0	1	NaN	457	8	16	2	120	220	320	NaN	520	0.369750475510955	2	1	NaN	4395348.1209016	NaN	4395349.1044351	4395349.62095072
104	19	1	0	90	36.1581920903955	36.241610738255	16	0.533385472297668	2	10	3	NaN	2	5	0.105262013047592	0	1	NaN	458	8	17	2	120	220	320	NaN	520	0.178840523585677	2	1	NaN	4395350.8879552	NaN	4395351.8713628	4395352.38791318
