subjno	age	gender	isPractice	viewdist	CmToPixX	CmToPixY	SOA_frm	SOA_time	targNum	targID	targExample	targRace	targGender	firstTargPos	contrast	familiarity	curr_staircase	iStair	TrialNum	BlockNum	blktrl	sessionNum	TC_FIXATION	TC_RSVP_START	TC_RSVP_END	TC_BLANK	TC_RESPONSE_ONSET	RT2afc	resp_2afc	acc	RSVPOnsetVBL	RSVPOnsetTime	RSVPOffsetVBL	RSVPOffsetTime	startrt_2afc
47	20	1	0	90	36.1581920903955	36.241610738255	19	0.633389699868858	2	1	5	NaN	1	3	0.080651200461123	0	1	NaN	1	1	1	1	120	220	320	NaN	520	0.249886278063059	1	1	NaN	4322016.8656878	NaN	4322017.8490353	4322018.38217192
47	20	1	0	90	36.1581920903955	36.241610738255	0	0	1	10	4	NaN	2	4	0.080651200461123	0	1	NaN	2	1	2	1	110	210	310	NaN	510	0.52845467813313	1	0	NaN	4322019.4827306	NaN	4322020.4660028	4322020.99909762
47	20	1	0	90	36.1581920903955	36.241610738255	15	0.500044499896467	2	10	4	NaN	2	3	0.080651200461123	0	1	NaN	3	1	3	1	120	220	320	NaN	520	4.79734857752919	2	1	NaN	4322022.3494335	NaN	4322023.3328474	4322023.86605962
47	20	1	0	90	36.1581920903955	36.241610738255	7	0.233354099951684	2	2	2	NaN	1	3	0.080651200461123	0	1	NaN	4	1	4	1	120	220	320	NaN	520	0.561256124638021	2	0	NaN	4322029.8501367	NaN	4322030.8335725	4322031.35011448
47	20	1	0	90	36.1581920903955	36.241610738255	13	0.433371899910271	2	6	5	NaN	1	3	0.080651200461123	0	1	NaN	5	1	5	1	120	220	320	NaN	520	0.229998225346208	1	1	NaN	4322032.7337981	NaN	4322033.717189	4322034.23373067
47	20	1	0	90	36.1581920903955	36.241610738255	24	0.800071199834347	2	4	2	NaN	1	4	0.080651200461123	0	1	NaN	6	1	6	1	120	220	320	NaN	520	0.199745773337781	1	1	NaN	4322035.2840266	NaN	4322036.2674092	4322036.78398043
47	20	1	0	90	36.1581920903955	36.241610738255	11	0.366699299924076	2	7	5	NaN	2	3	0.080651200461123	0	1	NaN	7	1	7	1	120	220	320	NaN	520	0.21074307244271	2	1	NaN	4322037.8009372	NaN	4322038.7843393	4322039.30088613
47	20	1	0	90	36.1581920903955	36.241610738255	7	0.233354099951684	2	11	4	NaN	2	3	0.080651200461123	0	1	NaN	8	1	8	1	120	220	320	NaN	520	0.245084321126342	2	1	NaN	4322040.3344004	NaN	4322041.3179181	4322041.83446548
47	20	1	0	90	36.1581920903955	36.241610738255	10	0.333362999930978	2	12	5	NaN	2	4	0.080651200461123	0	1	NaN	9	1	9	1	120	220	320	NaN	520	0.190452629700303	1	0	NaN	4322042.9014432	NaN	4322043.884844	4322044.40139137
47	20	1	0	90	36.1581920903955	36.241610738255	13	0.433371899910271	2	12	3	NaN	2	5	0.080651200461123	0	1	NaN	10	1	10	1	120	220	320	NaN	520	0.353076624684036	1	0	NaN	4322045.4184028	NaN	4322046.401748	4322046.91831117
47	20	1	0	90	36.1581920903955	36.241610738255	12	0.400035599917173	2	12	1	NaN	2	4	0.080651200461123	0	1	NaN	11	1	11	1	120	220	320	NaN	520	0.494295725598931	2	1	NaN	4322048.0851761	NaN	4322049.0686718	4322049.58523657
47	20	1	0	90	36.1581920903955	36.241610738255	25	0.833407499827445	2	1	6	NaN	1	3	0.080651200461123	0	1	NaN	12	1	12	1	120	220	320	NaN	520	0.0103941252455115	2	0	NaN	4322050.9022284	NaN	4322051.8856536	4322052.40217227
47	20	1	0	90	36.1581920903955	36.241610738255	24	0.800071199834347	2	2	4	NaN	1	4	0.080651200461123	0	1	NaN	13	1	13	1	120	220	320	NaN	520	0.792026424780488	2	0	NaN	4322053.2357874	NaN	4322054.2191906	4322054.73573797
47	20	1	0	90	36.1581920903955	36.241610738255	16	0.533380799889565	2	12	5	NaN	2	3	0.080651200461123	0	1	NaN	14	1	14	1	120	220	320	NaN	520	0.0428845211863518	2	1	NaN	4322056.3526384	NaN	4322057.3361609	4322057.85270758
47	20	1	0	90	36.1581920903955	36.241610738255	15	0.500044499896467	2	9	4	NaN	2	5	0.080651200461123	0	1	NaN	15	1	15	1	120	220	320	NaN	520	0.291913221590221	2	1	NaN	4322058.7196711	NaN	4322059.7030605	4322060.21960728
47	20	1	0	90	36.1581920903955	36.241610738255	12	0.400035599917173	2	9	4	NaN	2	5	0.080651200461123	0	1	NaN	16	1	16	1	120	220	320	NaN	520	0.0103877251967788	2	1	NaN	4322061.3365939	NaN	4322062.3199843	4322062.83653537
47	20	1	0	90	36.1581920903955	36.241610738255	11	0.366699299924076	2	4	1	NaN	1	3	0.080651200461123	0	1	NaN	17	1	17	1	120	220	320	NaN	520	0.557780925184488	1	1	NaN	4322063.670138	NaN	4322064.6534521	4322065.17009787
47	20	1	0	90	36.1581920903955	36.241610738255	13	0.433371899910271	2	11	5	NaN	2	3	0.080651200461123	0	1	NaN	18	1	18	1	120	220	320	NaN	520	0.305882625281811	2	1	NaN	4322066.5537462	NaN	4322067.5371607	4322068.05371427
47	20	1	0	90	36.1581920903955	36.241610738255	14	0.466708199903369	2	6	3	NaN	1	3	0.080651200461123	0	1	NaN	19	1	19	1	120	220	320	NaN	520	0.296407691203058	1	1	NaN	4322069.1873716	NaN	4322070.1707515	4322070.68730661
47	20	1	0	90	36.1581920903955	36.241610738255	13	0.433371899910271	2	3	6	NaN	1	3	0.080651200461123	0	1	NaN	20	1	20	1	120	220	320	NaN	520	0.303243272937834	2	0	NaN	4322071.8042769	NaN	4322072.7876718	4322073.30422123
47	20	1	0	90	36.1581920903955	36.241610738255	14	0.466708199903369	2	4	2	NaN	1	4	0.080651200461123	0	1	NaN	21	1	21	1	120	220	320	NaN	520	0.222449925728142	1	1	NaN	4322074.4210989	NaN	4322075.4046061	4322075.92114607
47	20	1	0	90	36.1581920903955	36.241610738255	22	0.733398599848151	2	10	1	NaN	2	3	0.080651200461123	0	1	NaN	22	1	22	1	120	220	320	NaN	520	0.17607837356627	2	1	NaN	4322076.9714586	NaN	4322077.9548522	4322078.47139133
47	20	1	0	90	36.1581920903955	36.241610738255	11	0.366699299924076	2	8	6	NaN	2	5	0.080651200461123	0	1	NaN	23	1	23	1	120	220	320	NaN	520	0.227978673763573	1	0	NaN	4322079.4716971	NaN	4322080.4550838	4322080.97164073
47	20	1	0	90	36.1581920903955	36.241610738255	20	0.666725999861956	2	3	5	NaN	1	3	0.080651200461123	0	1	NaN	24	1	24	1	120	220	320	NaN	520	0.229969673790038	1	1	NaN	4322082.021821	NaN	4322083.0053387	4322083.52188713
47	20	1	0	90	36.1581920903955	36.241610738255	20	0.666725999861956	2	1	3	NaN	1	5	0.080651200461123	0	1	NaN	25	1	25	1	120	220	320	NaN	520	0.447504873387516	1	1	NaN	4322084.5722564	NaN	4322085.5555925	4322086.07214713
47	20	1	0	90	36.1581920903955	36.241610738255	6	0.200017799958587	2	8	1	NaN	2	3	0.080651200461123	0	1	NaN	26	1	26	1	120	220	320	NaN	520	0.408820473589003	2	1	NaN	4322087.3391311	NaN	4322088.3225298	4322088.83907643
47	20	1	0	90	36.1581920903955	36.241610738255	15	0.500044499896467	2	7	2	NaN	2	3	0.080651200461123	0	1	NaN	27	1	27	1	120	220	320	NaN	520	0.41874067299068	1	0	NaN	4322090.072739	NaN	4322091.056147	4322091.57268553
47	20	1	0	90	36.1581920903955	36.241610738255	9	0.30002669993788	2	8	2	NaN	2	4	0.080651200461123	0	1	NaN	28	1	28	1	120	220	320	NaN	520	0.261623373255134	2	1	NaN	4322092.806415	NaN	4322093.7897313	4322094.30627803
47	20	1	0	90	36.1581920903955	36.241610738255	0	0	1	5	5	NaN	1	5	0.080651200461123	0	1	NaN	29	1	29	1	110	210	310	NaN	510	0.221622025594115	2	0	NaN	4322095.3899134	NaN	4322096.3733215	4322096.88987937
47	20	1	0	90	36.1581920903955	36.241610738255	17	0.566717099882662	2	10	1	NaN	2	5	0.080651200461123	0	1	NaN	30	1	30	1	120	220	320	NaN	520	0.231858473271132	2	1	NaN	4322097.9401684	NaN	4322098.9235631	4322099.44012713
47	20	1	0	90	36.1581920903955	36.241610738255	17	0.566717099882662	2	5	5	NaN	1	3	0.080651200461123	0	1	NaN	31	1	31	1	120	220	320	NaN	520	0.137281673029065	2	0	NaN	4322100.4904231	NaN	4322101.4738219	4322101.99037563
47	20	1	0	90	36.1581920903955	36.241610738255	17	0.566717099882662	2	2	6	NaN	1	3	0.080651200461123	0	1	NaN	32	1	32	1	120	220	320	NaN	520	0.182375221513212	1	1	NaN	4322102.9573286	NaN	4322103.9407277	4322104.45727858
47	20	1	0	90	36.1581920903955	36.241610738255	13	0.433371899910271	2	8	4	NaN	2	4	0.080651200461123	0	1	NaN	33	1	33	1	120	220	320	NaN	520	0.386134986765683	2	1	NaN	4322105.4575935	NaN	4322106.4410017	4322106.95752441
47	20	1	0	90	36.1581920903955	36.241610738255	10	0.333362999930978	2	3	5	NaN	1	3	0.080651200461123	0	1	NaN	34	1	34	1	120	220	320	NaN	520	0.174080844037235	1	1	NaN	4322108.157705	NaN	4322109.1412588	4322109.65778956
47	20	1	0	90	36.1581920903955	36.241610738255	18	0.60005339987576	2	1	2	NaN	1	4	0.080651200461123	0	1	NaN	35	1	35	1	120	220	320	NaN	520	0.217642025090754	1	1	NaN	4322110.658083	NaN	4322111.6414881	4322112.15804037
47	20	1	0	90	36.1581920903955	36.241610738255	0	0	1	7	6	NaN	2	5	0.080651200461123	0	1	NaN	36	1	36	1	110	210	310	NaN	510	0.331907773390412	2	1	NaN	4322113.191711	NaN	4322114.1750474	4322114.69161993
47	20	1	0	90	36.1581920903955	36.241610738255	0	0	1	6	2	NaN	1	3	0.080651200461123	0	1	NaN	37	1	37	1	110	210	310	NaN	510	0.281989739276469	2	0	NaN	4322115.8419373	NaN	4322116.8253525	4322117.34188306
47	20	1	0	90	36.1581920903955	36.241610738255	20	0.666725999861956	2	10	4	NaN	2	3	0.080651200461123	0	1	NaN	38	1	38	1	120	220	320	NaN	520	0.33428982552141	1	0	NaN	4322118.5255398	NaN	4322119.5089217	4322120.02547927
47	20	1	0	90	36.1581920903955	36.241610738255	9	0.30002669993788	2	7	4	NaN	2	3	0.080651200461123	0	1	NaN	39	1	39	1	120	220	320	NaN	520	0.18016027379781	2	1	NaN	4322121.1757898	NaN	4322122.159193	4322122.67573163
47	20	1	0	90	36.1581920903955	36.241610738255	8	0.266690399944782	2	7	2	NaN	2	3	0.080651200461123	0	1	NaN	40	1	40	1	120	220	320	NaN	520	2.64800699148327	1	0	NaN	4322123.6760327	NaN	4322124.6594348	4322125.17598281
47	20	1	0	90	36.1581920903955	36.241610738255	14	0.466708199903369	2	7	5	NaN	2	5	0.080651200461123	0	1	NaN	41	1	41	1	120	220	320	NaN	520	1.24881762079895	1	0	NaN	4322128.6431791	NaN	4322129.6265965	4322130.14313008
47	20	1	0	90	36.1581920903955	36.241610738255	0	0	1	12	4	NaN	2	4	0.080651200461123	0	1	NaN	42	1	42	1	110	210	310	NaN	510	0.297842972911894	2	1	NaN	4322132.210191	NaN	4322133.193632	4322133.71015203
47	20	1	0	90	36.1581920903955	36.241610738255	14	0.466708199903369	2	12	6	NaN	2	3	0.080651200461123	0	1	NaN	43	1	43	1	120	220	320	NaN	520	0.200494538992643	2	1	NaN	4322134.8271197	NaN	4322135.8105022	4322136.32707866
47	20	1	0	90	36.1581920903955	36.241610738255	12	0.400035599917173	2	12	5	NaN	2	3	0.080651200461123	0	1	NaN	44	1	44	1	120	220	320	NaN	520	1.25969387311488	1	0	NaN	4322137.3440142	NaN	4322138.3274433	4322138.84398003
47	20	1	0	90	36.1581920903955	36.241610738255	15	0.500044499896467	2	4	5	NaN	1	5	0.080651200461123	0	1	NaN	45	1	45	1	120	220	320	NaN	520	0.236462220549583	2	0	NaN	4322140.911059	NaN	4322141.8944339	4322142.41100178
47	20	1	0	90	36.1581920903955	36.241610738255	20	0.666725999861956	2	7	2	NaN	2	3	0.080651200461123	0	1	NaN	46	1	46	1	120	220	320	NaN	520	0.230294873006642	2	1	NaN	4322143.4613082	NaN	4322144.444738	4322144.96125313
47	20	1	0	90	36.1581920903955	36.241610738255	12	0.400035599917173	2	1	1	NaN	1	4	0.080651200461123	0	1	NaN	47	1	47	1	120	220	320	NaN	520	0.248372073285282	2	0	NaN	4322146.0115558	NaN	4322146.9949374	4322147.51149853
47	20	1	0	90	36.1581920903955	36.241610738255	14	0.466708199903369	2	9	5	NaN	2	5	0.080651200461123	0	1	NaN	48	1	48	1	120	220	320	NaN	520	0.249115725047886	2	1	NaN	4322148.5784709	NaN	4322149.5619034	4322150.07842857
47	20	1	0	90	36.1581920903955	36.241610738255	0	0	1	4	1	NaN	1	4	0.080651200461123	0	1	NaN	49	1	49	1	110	210	310	NaN	510	0.235327324829996	2	0	NaN	4322151.1287233	NaN	4322152.1121274	4322152.62867787
47	20	1	0	90	36.1581920903955	36.241610738255	15	0.500044499896467	2	1	4	NaN	1	4	0.080651200461123	0	1	NaN	50	1	50	1	120	220	320	NaN	520	0.180810364894569	2	0	NaN	4322153.6789687	NaN	4322154.6623704	4322155.17891423
47	20	1	0	90	36.1581920903955	36.241610738255	12	0.400035599917173	2	11	6	NaN	2	5	0.080651200461123	0	1	NaN	51	1	51	1	120	220	320	NaN	520	0.0102694435045123	2	1	NaN	4322156.1792209	NaN	4322157.1626165	4322157.67917306
47	20	1	0	90	36.1581920903955	36.241610738255	25	0.833407499827445	2	5	3	NaN	1	5	0.080651200461123	0	1	NaN	52	1	52	1	120	220	320	NaN	520	0.787465773522854	1	1	NaN	4322158.4961456	NaN	4322159.4795582	4322159.99606163
47	20	1	0	90	36.1581920903955	36.241610738255	24	0.800071199834347	2	4	1	NaN	1	3	0.080651200461123	0	1	NaN	53	1	53	1	120	220	320	NaN	520	0.223471373319626	1	1	NaN	4322161.5964233	NaN	4322162.5798168	4322163.09636443
47	20	1	0	90	36.1581920903955	36.241610738255	11	0.366699299924076	2	8	5	NaN	2	4	0.080651200461123	0	1	NaN	54	1	54	1	120	220	320	NaN	520	0.1700823251158	2	1	NaN	4322164.1298585	NaN	4322165.1133907	4322165.62995107
47	20	1	0	90	36.1581920903955	36.241610738255	10	0.333362999930978	2	9	2	NaN	2	5	0.080651200461123	0	1	NaN	55	1	55	1	120	220	320	NaN	520	0.262079673819244	2	1	NaN	4322166.6135885	NaN	4322167.5970064	4322168.11352133
47	20	1	0	90	36.1581920903955	36.241610738255	0	0	1	11	2	NaN	2	3	0.080651200461123	0	1	NaN	56	1	56	1	110	210	310	NaN	510	0.287476725876331	2	1	NaN	4322169.1805799	NaN	4322170.1638676	4322170.68044707
47	20	1	0	90	36.1581920903955	36.241610738255	7	0.233354099951684	2	6	2	NaN	1	4	0.080651200461123	0	1	NaN	57	1	57	1	120	220	320	NaN	520	0.191284173168242	1	1	NaN	4322171.7806272	NaN	4322172.7641464	4322173.28069073
47	20	1	0	90	36.1581920903955	36.241610738255	7	0.233354099951684	2	5	4	NaN	1	3	0.080651200461123	0	1	NaN	58	1	58	1	120	220	320	NaN	520	0.202906172722578	2	0	NaN	4322174.2809694	NaN	4322175.2643909	4322175.78093623
47	20	1	0	90	36.1581920903955	36.241610738255	23	0.766734899841249	2	1	4	NaN	1	4	0.080651200461123	0	1	NaN	59	1	59	1	120	220	320	NaN	520	0.238095873035491	2	0	NaN	4322176.7979018	NaN	4322177.7813111	4322178.29787643
47	20	1	0	90	36.1581920903955	36.241610738255	18	0.60005339987576	2	2	1	NaN	1	3	0.080651200461123	0	1	NaN	60	1	60	1	120	220	320	NaN	520	0.159945173189044	1	1	NaN	4322179.3480364	NaN	4322180.3315489	4322180.84810403
47	20	1	0	90	36.1581920903955	36.241610738255	16	0.533380799889565	2	7	4	NaN	2	4	0.080651200461123	0	1	NaN	61	1	61	1	120	220	320	NaN	520	0.245053072459996	1	0	NaN	4322181.8151766	NaN	4322182.7984662	4322183.31502123
47	20	1	0	90	36.1581920903955	36.241610738255	7	0.233354099951684	2	5	3	NaN	1	5	0.080651200461123	0	1	NaN	62	1	62	1	120	220	320	NaN	520	0.0104367211461067	2	0	NaN	4322184.3819829	NaN	4322185.3653738	4322185.88193018
47	20	1	0	90	36.1581920903955	36.241610738255	21	0.700062299855053	2	5	1	NaN	1	5	0.080651200461123	0	1	NaN	63	1	63	1	120	220	320	NaN	520	0.224689173512161	2	0	NaN	4322186.6988874	NaN	4322187.6822932	4322188.19883063
47	20	1	0	90	36.1581920903955	36.241610738255	13	0.433371899910271	2	8	5	NaN	2	3	0.080651200461123	0	1	NaN	64	2	1	1	120	220	320	NaN	520	0.193093392066658	2	1	NaN	4322256.3390222	NaN	4322257.3224461	4322257.83899971
47	20	1	0	90	36.1581920903955	36.241610738255	11	0.366699299924076	2	2	5	NaN	1	4	0.080651200461123	0	1	NaN	65	2	2	1	120	220	320	NaN	520	0.277775373309851	2	0	NaN	4322259.0060417	NaN	4322259.9893841	4322260.50591143
47	20	1	0	90	36.1581920903955	36.241610738255	16	0.533380799889565	2	7	6	NaN	2	5	0.080651200461123	0	1	NaN	66	2	3	1	120	220	320	NaN	520	0.13418042473495	2	1	NaN	4322261.5894128	NaN	4322262.5729954	4322263.08949747
47	20	1	0	90	36.1581920903955	36.241610738255	11	0.366699299924076	2	11	5	NaN	2	3	0.080651200461123	0	1	NaN	67	2	4	1	120	220	320	NaN	520	0.164064824581146	2	1	NaN	4322264.0397855	NaN	4322265.0231887	4322265.53974818
47	20	1	0	90	36.1581920903955	36.241610738255	8	0.266690399944782	2	11	2	NaN	2	4	0.080651200461123	0	1	NaN	68	2	5	1	120	220	320	NaN	520	0.128269891254604	2	1	NaN	4322266.5233765	NaN	4322267.5067733	4322268.02332911
47	20	1	0	90	36.1581920903955	36.241610738255	9	0.30002669993788	2	7	1	NaN	2	4	0.080651200461123	0	1	NaN	69	2	6	1	120	220	320	NaN	520	0.182591172866523	2	1	NaN	4322268.9736112	NaN	4322269.9570172	4322270.47355433
47	20	1	0	90	36.1581920903955	36.241610738255	16	0.533380799889565	2	6	2	NaN	1	3	0.080651200461123	0	1	NaN	70	2	7	1	120	220	320	NaN	520	0.13834482152015	2	0	NaN	4322271.4738606	NaN	4322272.4572605	4322272.97379938
47	20	1	0	90	36.1581920903955	36.241610738255	22	0.733398599848151	2	3	1	NaN	1	5	0.080651200461123	0	1	NaN	71	2	8	1	120	220	320	NaN	520	0.0558159248903394	1	1	NaN	4322273.9239824	NaN	4322274.9074942	4322275.42404937
47	20	1	0	90	36.1581920903955	36.241610738255	18	0.60005339987576	2	2	4	NaN	1	5	0.080651200461123	0	1	NaN	72	2	9	1	120	220	320	NaN	520	0.0729320738464594	2	0	NaN	4322276.2909876	NaN	4322277.2743685	4322277.79093743
47	20	1	0	90	36.1581920903955	36.241610738255	12	0.400035599917173	2	6	5	NaN	1	4	0.080651200461123	0	1	NaN	73	2	10	1	120	220	320	NaN	520	0.152692573145032	1	1	NaN	4322278.6912363	NaN	4322279.6746301	4322280.19117393
47	20	1	0	90	36.1581920903955	36.241610738255	24	0.800071199834347	2	10	2	NaN	2	3	0.080651200461123	0	1	NaN	74	2	11	1	120	220	320	NaN	520	0.189800925552845	1	0	NaN	4322281.1581329	NaN	4322282.1415421	4322282.65809487
47	20	1	0	90	36.1581920903955	36.241610738255	8	0.266690399944782	2	9	1	NaN	2	3	0.080651200461123	0	1	NaN	75	2	12	1	120	220	320	NaN	520	0.241473472677171	2	1	NaN	4322283.6582452	NaN	4322284.6417787	4322285.15832623
47	20	1	0	90	36.1581920903955	36.241610738255	10	0.333362999930978	2	4	4	NaN	1	3	0.080651200461123	0	1	NaN	76	2	13	1	120	220	320	NaN	520	0.227194173261523	2	0	NaN	4322286.2086404	NaN	4322287.1920354	4322287.70858423
47	20	1	0	90	36.1581920903955	36.241610738255	13	0.433371899910271	2	11	3	NaN	2	3	0.080651200461123	0	1	NaN	77	2	14	1	120	220	320	NaN	520	0.188964425586164	2	1	NaN	4322288.7588781	NaN	4322289.7422748	4322290.25885377
47	20	1	0	90	36.1581920903955	36.241610738255	21	0.700062299855053	2	9	1	NaN	2	3	0.080651200461123	0	1	NaN	78	2	15	1	120	220	320	NaN	520	0.224868073128164	2	1	NaN	4322291.2591341	NaN	4322292.2425327	4322292.75907443
47	20	1	0	90	36.1581920903955	36.241610738255	19	0.633389699868858	2	7	2	NaN	2	3	0.080651200461123	0	1	NaN	79	2	16	1	120	220	320	NaN	520	0.243164921179414	2	1	NaN	4322293.7925883	NaN	4322294.7761194	4322295.29265358
47	20	1	0	90	36.1581920903955	36.241610738255	25	0.833407499827445	2	3	4	NaN	1	4	0.080651200461123	0	1	NaN	80	2	17	1	120	220	320	NaN	520	0.260648872703314	1	1	NaN	4322296.3596406	NaN	4322297.3430313	4322297.85958483
47	20	1	0	90	36.1581920903955	36.241610738255	23	0.766734899841249	2	8	2	NaN	2	4	0.080651200461123	0	1	NaN	81	2	18	1	120	220	320	NaN	520	0.1338149914518	2	1	NaN	4322299.3264512	NaN	4322300.3099801	4322300.82654201
47	20	1	0	90	36.1581920903955	36.241610738255	23	0.766734899841249	2	8	1	NaN	2	3	0.080651200461123	0	1	NaN	82	2	19	1	120	220	320	NaN	520	0.251317425630987	2	1	NaN	4322301.77683	NaN	4322302.7602266	4322303.27678327
47	20	1	0	90	36.1581920903955	36.241610738255	9	0.30002669993788	2	10	6	NaN	2	4	0.080651200461123	0	1	NaN	83	2	20	1	120	220	320	NaN	520	0.0104125253856182	2	1	NaN	4322304.3436086	NaN	4322305.3271329	4322305.84369968
47	20	1	0	90	36.1581920903955	36.241610738255	18	0.60005339987576	2	11	6	NaN	2	3	0.080651200461123	0	1	NaN	84	2	21	1	120	220	320	NaN	520	0.0104101737961173	2	1	NaN	4322306.660646	NaN	4322307.6440337	4322308.16058603
47	20	1	0	90	36.1581920903955	36.241610738255	13	0.433371899910271	2	6	6	NaN	1	5	0.080651200461123	0	1	NaN	85	2	22	1	120	220	320	NaN	520	0.0897801257669926	1	1	NaN	4322308.9940737	NaN	4322309.9776084	4322310.49415457
47	20	1	0	90	36.1581920903955	36.241610738255	9	0.30002669993788	2	8	1	NaN	2	4	0.080651200461123	0	1	NaN	86	2	23	1	120	220	320	NaN	520	0.113474273122847	2	1	NaN	4322311.3943144	NaN	4322312.3778396	4322312.89438303
47	20	1	0	90	36.1581920903955	36.241610738255	23	0.766734899841249	2	2	6	NaN	1	4	0.080651200461123	0	1	NaN	87	2	24	1	120	220	320	NaN	520	0.184727273881435	1	1	NaN	4322313.8112667	NaN	4322314.7947359	4322315.31129253
47	20	1	0	90	36.1581920903955	36.241610738255	10	0.333362999930978	2	5	4	NaN	1	4	0.080651200461123	0	1	NaN	88	2	25	1	120	220	320	NaN	520	0.018428273499012	1	1	NaN	4322316.7616217	NaN	4322317.7450066	4322318.26157683
47	20	1	0	90	36.1581920903955	36.241610738255	14	0.466708199903369	2	5	4	NaN	1	5	0.080651200461123	0	1	NaN	89	2	26	1	120	220	320	NaN	520	0.148742816410959	1	1	NaN	4322319.0951955	NaN	4322320.0785823	4322320.59514878
47	20	1	0	90	36.1581920903955	36.241610738255	20	0.666725999861956	2	2	2	NaN	1	4	0.080651200461123	0	1	NaN	90	2	27	1	120	220	320	NaN	520	0.210188372991979	1	1	NaN	4322321.5621049	NaN	4322322.5454948	4322323.06204493
47	20	1	0	90	36.1581920903955	36.241610738255	21	0.700062299855053	2	10	3	NaN	2	4	0.080651200461123	0	1	NaN	91	2	28	1	120	220	320	NaN	520	0.125190582126379	2	1	NaN	4322324.0788833	NaN	4322325.0624057	4322325.57897042
47	20	1	0	90	36.1581920903955	36.241610738255	23	0.766734899841249	2	4	3	NaN	1	3	0.080651200461123	0	1	NaN	92	2	29	1	120	220	320	NaN	520	0.0512766735628247	1	1	NaN	4322326.5124649	NaN	4322327.4959903	4322328.01252983
47	20	1	0	90	36.1581920903955	36.241610738255	23	0.766734899841249	2	11	2	NaN	2	3	0.080651200461123	0	1	NaN	93	2	30	1	120	220	320	NaN	520	0.932404672726989	1	0	NaN	4322328.8793835	NaN	4322329.8628857	4322330.37943453
47	20	1	0	90	36.1581920903955	36.241610738255	13	0.433371899910271	2	7	4	NaN	2	4	0.080651200461123	0	1	NaN	94	2	31	1	120	220	320	NaN	520	0.258277572691441	2	1	NaN	4322332.1296678	NaN	4322333.113206	4322333.62975283
47	20	1	0	90	36.1581920903955	36.241610738255	19	0.633389699868858	2	10	1	NaN	2	4	0.080651200461123	0	1	NaN	95	2	32	1	120	220	320	NaN	520	0.275517173111439	2	1	NaN	4322334.6968084	NaN	4322335.6801159	4322336.19667183
47	20	1	0	90	36.1581920903955	36.241610738255	20	0.666725999861956	2	12	2	NaN	2	3	0.080651200461123	0	1	NaN	96	2	33	1	120	220	320	NaN	520	0.251968025229871	2	1	NaN	4322337.2803178	NaN	4322338.26371	4322338.78026087
47	20	1	0	90	36.1581920903955	36.241610738255	6	0.200017799958587	2	6	2	NaN	1	3	0.080651200461123	0	1	NaN	97	2	34	1	120	220	320	NaN	520	0.180717220529914	1	1	NaN	4322339.8472245	NaN	4322340.8306296	4322341.34717058
47	20	1	0	90	36.1581920903955	36.241610738255	25	0.833407499827445	2	2	5	NaN	1	3	0.080651200461123	0	1	NaN	98	2	35	1	120	220	320	NaN	520	0.464478273876011	1	1	NaN	4322342.3474674	NaN	4322343.3308666	4322343.84742303
47	20	1	0	90	36.1581920903955	36.241610738255	17	0.566717099882662	2	10	3	NaN	2	4	0.080651200461123	0	1	NaN	99	2	36	1	120	220	320	NaN	520	7.04990912508219	1	0	NaN	4322345.1143245	NaN	4322346.0978044	4322346.61436457
47	20	1	0	90	36.1581920903955	36.241610738255	16	0.533380799889565	2	3	4	NaN	1	5	0.080651200461123	0	1	NaN	100	2	37	1	120	220	320	NaN	520	0.297847673296928	1	1	NaN	4322354.4819942	NaN	4322355.465402	4322355.98193983
47	20	1	0	90	36.1581920903955	36.241610738255	21	0.700062299855053	2	10	5	NaN	2	5	0.080651200461123	0	1	NaN	101	2	38	1	120	220	320	NaN	520	0.201532386243343	1	0	NaN	4322357.0824121	NaN	4322358.0656447	4322358.58220341
47	20	1	0	90	36.1581920903955	36.241610738255	21	0.700062299855053	2	1	3	NaN	1	5	0.080651200461123	0	1	NaN	102	2	39	1	120	220	320	NaN	520	0.212740438990295	1	1	NaN	4322359.5991716	NaN	4322360.5825715	4322361.09911846
47	20	1	0	90	36.1581920903955	36.241610738255	8	0.266690399944782	2	10	5	NaN	2	4	0.080651200461123	0	1	NaN	103	2	40	1	120	220	320	NaN	520	0.231232972815633	1	0	NaN	4322362.1326479	NaN	4322363.1161473	4322363.63269363
47	20	1	0	90	36.1581920903955	36.241610738255	16	0.533380799889565	2	2	5	NaN	1	4	0.080651200461123	0	1	NaN	104	2	41	1	120	220	320	NaN	520	0.184965277090669	1	1	NaN	4322364.6830072	NaN	4322365.6664209	4322366.18294782
47	20	1	0	90	36.1581920903955	36.241610738255	13	0.433371899910271	2	5	3	NaN	1	3	0.080651200461123	0	1	NaN	105	2	42	1	120	220	320	NaN	520	0.156205125153065	2	0	NaN	4322367.5999315	NaN	4322368.5833574	4322369.09989988
47	20	1	0	90	36.1581920903955	36.241610738255	7	0.233354099951684	2	11	1	NaN	2	5	0.080651200461123	0	1	NaN	106	2	43	1	120	220	320	NaN	520	0.329077325761318	1	0	NaN	4322370.0668557	NaN	4322371.0502519	4322371.56680577
47	20	1	0	90	36.1581920903955	36.241610738255	8	0.266690399944782	2	4	2	NaN	1	5	0.080651200461123	0	1	NaN	107	2	44	1	120	220	320	NaN	520	0.214798677712679	1	1	NaN	4322372.7171514	NaN	4322373.7005396	4322374.21708952
47	20	1	0	90	36.1581920903955	36.241610738255	7	0.233354099951684	2	12	4	NaN	2	4	0.080651200461123	0	1	NaN	108	2	45	1	120	220	320	NaN	520	0.169340073131025	1	0	NaN	4322375.2506959	NaN	4322376.2340786	4322376.75064453
47	20	1	0	90	36.1581920903955	36.241610738255	12	0.400035599917173	2	3	1	NaN	1	3	0.080651200461123	0	1	NaN	109	2	46	1	120	220	320	NaN	520	0.261830591596663	1	1	NaN	4322377.7342675	NaN	4322378.7176815	4322379.23422511
47	20	1	0	90	36.1581920903955	36.241610738255	15	0.500044499896467	2	2	1	NaN	1	3	0.080651200461123	0	1	NaN	110	2	47	1	120	220	320	NaN	520	0.158261473290622	1	1	NaN	4322380.31786	NaN	4322381.3013026	4322381.81781353
47	20	1	0	90	36.1581920903955	36.241610738255	11	0.366699299924076	2	5	2	NaN	1	3	0.080651200461123	0	1	NaN	111	2	48	1	120	220	320	NaN	520	0.27532812487334	1	1	NaN	4322382.784749	NaN	4322383.7681829	4322384.28472397
47	20	1	0	90	36.1581920903955	36.241610738255	10	0.333362999930978	2	10	4	NaN	2	4	0.080651200461123	0	1	NaN	112	2	49	1	120	220	320	NaN	520	0.155267273075879	2	1	NaN	4322385.3850257	NaN	4322386.3684235	4322386.88497223
47	20	1	0	90	36.1581920903955	36.241610738255	11	0.366699299924076	2	4	4	NaN	1	3	0.080651200461123	0	1	NaN	113	2	50	1	120	220	320	NaN	520	0.152063925750554	1	1	NaN	4322387.8518286	NaN	4322388.8353144	4322389.35188967
47	20	1	0	90	36.1581920903955	36.241610738255	13	0.433371899910271	2	9	6	NaN	2	5	0.080651200461123	0	1	NaN	114	2	51	1	120	220	320	NaN	520	0.0452571259811521	2	1	NaN	4322390.3188406	NaN	4322391.3022024	4322391.81879117
47	20	1	0	90	36.1581920903955	36.241610738255	19	0.633389699868858	2	5	1	NaN	1	4	0.080651200461123	0	1	NaN	115	2	52	1	120	220	320	NaN	520	0.118283369578421	2	0	NaN	4322392.6857452	NaN	4322393.6691407	4322394.18568833
47	20	1	0	90	36.1581920903955	36.241610738255	14	0.466708199903369	2	8	2	NaN	2	4	0.080651200461123	0	1	NaN	116	2	53	1	120	220	320	NaN	520	0.141070825979114	2	1	NaN	4322395.1193069	NaN	4322396.1027141	4322396.61926527
47	20	1	0	90	36.1581920903955	36.241610738255	23	0.766734899841249	2	7	6	NaN	2	3	0.080651200461123	0	1	NaN	117	2	54	1	120	220	320	NaN	520	0.226664572954178	2	1	NaN	4322397.5695583	NaN	4322398.5529554	4322399.06949753
47	20	1	0	90	36.1581920903955	36.241610738255	21	0.700062299855053	2	2	4	NaN	1	3	0.080651200461123	0	1	NaN	118	2	55	1	120	220	320	NaN	520	0.236204973421991	2	0	NaN	4322400.1198254	NaN	4322401.1032059	4322401.61975513
47	20	1	0	90	36.1581920903955	36.241610738255	22	0.733398599848151	2	2	2	NaN	1	4	0.080651200461123	0	1	NaN	119	2	56	1	120	220	320	NaN	520	0.406966621056199	2	0	NaN	4322402.8533979	NaN	4322403.8367977	4322404.35334688
47	20	1	0	90	36.1581920903955	36.241610738255	8	0.266690399944782	2	1	3	NaN	1	4	0.080651200461123	0	1	NaN	120	2	57	1	120	220	320	NaN	520	0.0104049732908607	1	1	NaN	4322405.5703515	NaN	4322406.5537401	4322407.07028983
47	20	1	0	90	36.1581920903955	36.241610738255	23	0.766734899841249	2	12	3	NaN	2	3	0.080651200461123	0	1	NaN	121	2	58	1	120	220	320	NaN	520	0.156980725936592	2	1	NaN	4322408.2872456	NaN	4322409.2706661	4322409.78722527
47	20	1	0	90	36.1581920903955	36.241610738255	15	0.500044499896467	2	1	5	NaN	1	4	0.080651200461123	0	1	NaN	122	2	59	1	120	220	320	NaN	520	0.185882224701345	1	1	NaN	4322410.7541517	NaN	4322411.7375896	4322412.25413137
47	20	1	0	90	36.1581920903955	36.241610738255	20	0.666725999861956	2	3	5	NaN	1	3	0.080651200461123	0	1	NaN	123	2	60	1	120	220	320	NaN	520	0.0935999732464552	2	0	NaN	4322413.2544173	NaN	4322414.2378216	4322414.75437663
47	20	1	0	90	36.1581920903955	36.241610738255	9	0.30002669993788	2	9	6	NaN	2	5	0.080651200461123	0	1	NaN	124	2	61	1	120	220	320	NaN	520	0.141686425544322	2	1	NaN	4322415.6547695	NaN	4322416.6380601	4322417.15461507
47	20	1	0	90	36.1581920903955	36.241610738255	13	0.433371899910271	2	10	2	NaN	2	4	0.080651200461123	0	1	NaN	125	2	62	1	120	220	320	NaN	520	0.243390473537147	1	0	NaN	4322418.1050064	NaN	4322419.0883057	4322419.60484453
47	20	1	0	90	36.1581920903955	36.241610738255	16	0.533380799889565	2	8	3	NaN	2	5	0.080651200461123	0	1	NaN	126	2	63	1	120	220	320	NaN	520	0.213283773511648	1	0	NaN	4322420.655141	NaN	4322421.6385573	4322422.15509373
47	20	1	0	90	36.1581920903955	36.241610738255	10	0.333362999930978	2	10	1	NaN	2	3	0.080651200461123	0	1	NaN	127	3	1	1	120	220	320	NaN	520	0.894450625404716	2	1	NaN	4322452.5415741	NaN	4322453.5250145	4322454.04156327
47	20	1	0	90	36.1581920903955	36.241610738255	25	0.833407499827445	2	11	3	NaN	2	5	0.080651200461123	0	1	NaN	128	3	2	1	120	220	320	NaN	520	0.213543625548482	2	1	NaN	4322455.7586165	NaN	4322456.7420171	4322457.25854697
47	20	1	0	90	36.1581920903955	36.241610738255	16	0.533380799889565	2	4	2	NaN	1	4	0.080651200461123	0	1	NaN	129	3	3	1	120	220	320	NaN	520	0.104617125354707	1	1	NaN	4322458.2753646	NaN	4322459.2589034	4322459.77545697
47	20	1	0	90	36.1581920903955	36.241610738255	11	0.366699299924076	2	11	5	NaN	2	4	0.080651200461123	0	1	NaN	130	3	4	1	120	220	320	NaN	520	0.134798225015402	2	1	NaN	4322461.1256918	NaN	4322462.1091754	4322462.62574027
47	20	1	0	90	36.1581920903955	36.241610738255	0	0	1	3	2	NaN	1	5	0.080651200461123	0	1	NaN	131	3	5	1	110	210	310	NaN	510	0.188055125065148	1	1	NaN	4322463.5760272	NaN	4322464.5594086	4322465.07597438
47	20	1	0	90	36.1581920903955	36.241610738255	22	0.733398599848151	2	5	6	NaN	1	4	0.080651200461123	0	1	NaN	132	3	6	1	120	220	320	NaN	520	0.0959062734618783	1	1	NaN	4322466.0762635	NaN	4322467.0596726	4322467.57621913
47	20	1	0	90	36.1581920903955	36.241610738255	24	0.800071199834347	2	6	4	NaN	1	4	0.080651200461123	0	1	NaN	133	3	7	1	120	220	320	NaN	520	0.0868704775348306	2	0	NaN	4322468.493176	NaN	4322469.4765749	4322469.99313062
47	20	1	0	90	36.1581920903955	36.241610738255	22	0.733398599848151	2	1	6	NaN	1	3	0.080651200461123	0	1	NaN	134	3	8	1	120	220	320	NaN	520	0.182772525586188	2	0	NaN	4322470.8934314	NaN	4322471.8768179	4322472.39336137
47	20	1	0	90	36.1581920903955	36.241610738255	22	0.733398599848151	2	8	3	NaN	2	3	0.080651200461123	0	1	NaN	135	3	9	1	120	220	320	NaN	520	0.146428373642266	2	1	NaN	4322473.3936677	NaN	4322474.3770875	4322474.89360233
47	20	1	0	90	36.1581920903955	36.241610738255	14	0.466708199903369	2	12	1	NaN	2	4	0.080651200461123	0	1	NaN	136	3	10	1	120	220	320	NaN	520	0.095622873865068	1	0	NaN	4322475.8605738	NaN	4322476.8439513	4322477.36051503
47	20	1	0	90	36.1581920903955	36.241610738255	19	0.633389699868858	2	12	1	NaN	2	4	0.080651200461123	0	1	NaN	137	3	11	1	120	220	320	NaN	520	0.0635292259976268	1	0	NaN	4322478.2607033	NaN	4322479.2441996	4322479.76074807
47	20	1	0	90	36.1581920903955	36.241610738255	8	0.266690399944782	2	1	2	NaN	1	5	0.080651200461123	0	1	NaN	138	3	12	1	120	220	320	NaN	520	0.131180874072015	1	1	NaN	4322480.961061	NaN	4322481.9444432	4322482.46100613
47	20	1	0	90	36.1581920903955	36.241610738255	17	0.566717099882662	2	6	5	NaN	1	3	0.080651200461123	0	1	NaN	139	3	13	1	120	220	320	NaN	520	0.144890525378287	1	1	NaN	4322483.411332	NaN	4322484.3947467	4322484.91125507
47	20	1	0	90	36.1581920903955	36.241610738255	7	0.233354099951684	2	10	2	NaN	2	4	0.080651200461123	0	1	NaN	140	3	14	1	120	220	320	NaN	520	0.0786222731694579	1	0	NaN	4322485.8615444	NaN	4322486.8449393	4322487.36148553
47	20	1	0	90	36.1581920903955	36.241610738255	8	0.266690399944782	2	2	4	NaN	1	3	0.080651200461123	0	1	NaN	141	3	15	1	120	220	320	NaN	520	0.118367772549391	1	1	NaN	4322488.2617867	NaN	4322489.2451822	4322489.76172183
47	20	1	0	90	36.1581920903955	36.241610738255	21	0.700062299855053	2	11	3	NaN	2	3	0.080651200461123	0	1	NaN	142	3	16	1	120	220	320	NaN	520	0.300269773229957	2	1	NaN	4322491.112082	NaN	4322492.0954603	4322492.61201203
47	20	1	0	90	36.1581920903955	36.241610738255	15	0.500044499896467	2	2	1	NaN	1	5	0.080651200461123	0	1	NaN	143	3	17	1	120	220	320	NaN	520	0.226856472902	2	0	NaN	4322494.1457121	NaN	4322495.129094	4322495.64564033
47	20	1	0	90	36.1581920903955	36.241610738255	11	0.366699299924076	2	3	4	NaN	1	4	0.080651200461123	0	1	NaN	144	3	18	1	120	220	320	NaN	520	0.156418024562299	1	1	NaN	4322496.6958191	NaN	4322497.6793446	4322498.19589397
47	20	1	0	90	36.1581920903955	36.241610738255	14	0.466708199903369	2	3	3	NaN	1	5	0.080651200461123	0	1	NaN	145	3	19	1	120	220	320	NaN	520	0.233401425182819	1	1	NaN	4322499.1628547	NaN	4322500.1462543	4322500.66279077
47	20	1	0	90	36.1581920903955	36.241610738255	23	0.766734899841249	2	9	3	NaN	2	3	0.080651200461123	0	1	NaN	146	3	20	1	120	220	320	NaN	520	0.155094277113676	1	0	NaN	4322501.7130987	NaN	4322502.6964937	4322503.21305562
47	20	1	0	90	36.1581920903955	36.241610738255	11	0.366699299924076	2	10	1	NaN	2	3	0.080651200461123	0	1	NaN	147	3	21	1	120	220	320	NaN	520	0.248245572671294	2	1	NaN	4322504.1800027	NaN	4322505.1634137	4322505.67995073
47	20	1	0	90	36.1581920903955	36.241610738255	11	0.366699299924076	2	1	5	NaN	1	3	0.080651200461123	0	1	NaN	148	3	22	1	120	220	320	NaN	520	0.0731921251863241	1	1	NaN	4322506.7469288	NaN	4322507.7303012	4322508.24687258
47	20	1	0	90	36.1581920903955	36.241610738255	12	0.400035599917173	2	6	3	NaN	1	5	0.080651200461123	0	1	NaN	149	3	23	1	120	220	320	NaN	520	0.225937025621533	1	1	NaN	4322509.1306021	NaN	4322510.1138906	4322510.63044477
47	20	1	0	90	36.1581920903955	36.241610738255	16	0.533380799889565	2	4	3	NaN	1	4	0.080651200461123	0	1	NaN	150	3	24	1	120	220	320	NaN	520	0.203845324926078	1	1	NaN	4322511.6807572	NaN	4322512.6641746	4322513.18069877
47	20	1	0	90	36.1581920903955	36.241610738255	0	0	1	2	4	NaN	1	3	0.080651200461123	0	1	NaN	151	3	25	1	110	210	310	NaN	510	0.118377520702779	1	1	NaN	4322514.1976584	NaN	4322515.181064	4322515.69760828
47	20	1	0	90	36.1581920903955	36.241610738255	6	0.200017799958587	2	3	4	NaN	1	5	0.080651200461123	0	1	NaN	152	3	26	1	120	220	320	NaN	520	0.181881373748183	1	1	NaN	4322516.6144314	NaN	4322517.5979955	4322518.11450373
47	20	1	0	90	36.1581920903955	36.241610738255	12	0.400035599917173	2	4	4	NaN	1	4	0.080651200461123	0	1	NaN	153	3	27	1	120	220	320	NaN	520	0.121402073651552	1	1	NaN	4322519.1148019	NaN	4322520.0982034	4322520.61474773
47	20	1	0	90	36.1581920903955	36.241610738255	21	0.700062299855053	2	7	5	NaN	2	4	0.080651200461123	0	1	NaN	154	3	28	1	120	220	320	NaN	520	0.343942821025848	2	1	NaN	4322521.5483876	NaN	4322522.5317799	4322523.04832278
47	20	1	0	90	36.1581920903955	36.241610738255	17	0.566717099882662	2	8	4	NaN	2	4	0.080651200461123	0	1	NaN	155	3	29	1	120	220	320	NaN	520	0.125401421450078	1	0	NaN	4322524.1985038	NaN	4322525.1820428	4322525.69858568
47	20	1	0	90	36.1581920903955	36.241610738255	20	0.666725999861956	2	11	1	NaN	2	5	0.080651200461123	0	1	NaN	156	3	30	1	120	220	320	NaN	520	0.323997073806822	2	1	NaN	4322526.632204	NaN	4322527.6156559	4322528.13215173
47	20	1	0	90	36.1581920903955	36.241610738255	25	0.833407499827445	2	1	2	NaN	1	5	0.080651200461123	0	1	NaN	157	3	31	1	120	220	320	NaN	520	0.1304876729846	2	0	NaN	4322529.2656678	NaN	4322530.2492	4322530.76574263
47	20	1	0	90	36.1581920903955	36.241610738255	20	0.666725999861956	2	5	3	NaN	1	3	0.080651200461123	0	1	NaN	158	3	32	1	120	220	320	NaN	520	0.328931220807135	1	1	NaN	4322531.6992528	NaN	4322532.6827766	4322533.19931448
47	20	1	0	90	36.1581920903955	36.241610738255	6	0.200017799958587	2	10	3	NaN	2	5	0.080651200461123	0	1	NaN	159	3	33	1	120	220	320	NaN	520	0.0465985340997577	2	1	NaN	4322534.3496357	NaN	4322535.3330774	4322535.84957927
47	20	1	0	90	36.1581920903955	36.241610738255	22	0.733398599848151	2	1	5	NaN	1	3	0.080651200461123	0	1	NaN	160	3	34	1	120	220	320	NaN	520	0.223625672981143	2	0	NaN	4322536.7166177	NaN	4322537.6999179	4322538.21647493
47	20	1	0	90	36.1581920903955	36.241610738255	12	0.400035599917173	2	4	1	NaN	1	4	0.080651200461123	0	1	NaN	161	3	35	1	120	220	320	NaN	520	0.170425173826516	2	0	NaN	4322539.2501205	NaN	4322540.2335141	4322540.75005683
47	20	1	0	90	36.1581920903955	36.241610738255	22	0.733398599848151	2	6	1	NaN	1	3	0.080651200461123	0	1	NaN	162	3	36	1	120	220	320	NaN	520	0.118851172737777	2	0	NaN	4322541.7335542	NaN	4322542.7170972	4322543.23364303
47	20	1	0	90	36.1581920903955	36.241610738255	22	0.733398599848151	2	10	1	NaN	2	3	0.080651200461123	0	1	NaN	163	3	37	1	120	220	320	NaN	520	0.237322425469756	2	1	NaN	4322544.1671327	NaN	4322545.1506637	4322545.66721607
47	20	1	0	90	36.1581920903955	36.241610738255	7	0.233354099951684	2	1	4	NaN	1	5	0.080651200461123	0	1	NaN	164	3	38	1	120	220	320	NaN	520	0.110887025482953	2	0	NaN	4322546.7173895	NaN	4322547.7009101	4322548.21746557
47	20	1	0	90	36.1581920903955	36.241610738255	16	0.533380799889565	2	10	1	NaN	2	4	0.080651200461123	0	1	NaN	165	3	39	1	120	220	320	NaN	520	0.541593825444579	2	1	NaN	4322549.1342928	NaN	4322550.1178121	4322550.63437907
47	20	1	0	90	36.1581920903955	36.241610738255	16	0.533380799889565	2	1	6	NaN	1	4	0.080651200461123	0	1	NaN	166	3	40	1	120	220	320	NaN	520	0.0755963735282421	2	0	NaN	4322551.9847181	NaN	4322552.9681113	4322553.48463913
47	20	1	0	90	36.1581920903955	36.241610738255	11	0.366699299924076	2	2	3	NaN	1	5	0.080651200461123	0	1	NaN	167	3	41	1	120	220	320	NaN	520	0.0380672728642821	2	0	NaN	4322554.5181586	NaN	4322555.5016773	4322556.01822783
47	20	1	0	90	36.1581920903955	36.241610738255	6	0.200017799958587	2	2	3	NaN	1	3	0.080651200461123	0	1	NaN	168	3	42	1	120	220	320	NaN	520	0.187672773376107	1	1	NaN	4322557.3685407	NaN	4322558.3519566	4322558.86850203
47	20	1	0	90	36.1581920903955	36.241610738255	23	0.766734899841249	2	5	6	NaN	1	3	0.080651200461123	0	1	NaN	169	3	43	1	120	220	320	NaN	520	0.0104003259912133	2	0	NaN	4322560.2188541	NaN	4322561.2022406	4322561.71878597
47	20	1	0	90	36.1581920903955	36.241610738255	9	0.30002669993788	2	2	2	NaN	1	3	0.080651200461123	0	1	NaN	170	3	44	1	120	220	320	NaN	520	0.156931025907397	2	0	NaN	4322562.5356027	NaN	4322563.5191249	4322564.03568137
47	20	1	0	90	36.1581920903955	36.241610738255	10	0.333362999930978	2	12	6	NaN	2	5	0.080651200461123	0	1	NaN	171	3	45	1	120	220	320	NaN	520	0.169543872587383	2	1	NaN	4322565.0026952	NaN	4322565.9860426	4322566.50257973
47	20	1	0	90	36.1581920903955	36.241610738255	23	0.766734899841249	2	3	5	NaN	1	4	0.080651200461123	0	1	NaN	172	3	46	1	120	220	320	NaN	520	0.0780980251729488	1	1	NaN	4322567.4862072	NaN	4322568.4696265	4322568.98616737
47	20	1	0	90	36.1581920903955	36.241610738255	13	0.433371899910271	2	7	3	NaN	2	3	0.080651200461123	0	1	NaN	173	3	47	1	120	220	320	NaN	520	0.150350681506097	2	1	NaN	4322569.8698225	NaN	4322570.8532018	4322571.36973472
47	20	1	0	90	36.1581920903955	36.241610738255	10	0.333362999930978	2	8	6	NaN	2	5	0.080651200461123	0	1	NaN	174	3	48	1	120	220	320	NaN	520	0.163537682034075	1	0	NaN	4322572.3366844	NaN	4322573.3200847	4322573.83664582
47	20	1	0	90	36.1581920903955	36.241610738255	23	0.766734899841249	2	11	5	NaN	2	3	0.080651200461123	0	1	NaN	175	3	49	1	120	220	320	NaN	520	0.14407997764647	2	1	NaN	4322574.8202669	NaN	4322575.8036721	4322576.32021912
47	20	1	0	90	36.1581920903955	36.241610738255	15	0.500044499896467	2	8	5	NaN	2	3	0.080651200461123	0	1	NaN	176	3	50	1	120	220	320	NaN	520	0.17375382501632	2	1	NaN	4322577.4705867	NaN	4322578.4539308	4322578.97047997
47	20	1	0	90	36.1581920903955	36.241610738255	11	0.366699299924076	2	9	3	NaN	2	5	0.080651200461123	0	1	NaN	177	3	51	1	120	220	320	NaN	520	0.162343525327742	2	1	NaN	4322579.9539816	NaN	4322580.9374825	4322581.45405257
47	20	1	0	90	36.1581920903955	36.241610738255	11	0.366699299924076	2	10	2	NaN	2	4	0.080651200461123	0	1	NaN	178	3	52	1	120	220	320	NaN	520	0.0786007726565003	2	1	NaN	4322582.4376771	NaN	4322583.4210642	4322583.93763013
47	20	1	0	90	36.1581920903955	36.241610738255	24	0.800071199834347	2	7	2	NaN	2	3	0.080651200461123	0	1	NaN	179	3	53	1	120	220	320	NaN	520	0.0104240737855434	2	1	NaN	4322584.821343	NaN	4322585.8046462	4322586.32119643
47	20	1	0	90	36.1581920903955	36.241610738255	6	0.200017799958587	2	5	2	NaN	1	5	0.080651200461123	0	1	NaN	180	3	54	1	120	220	320	NaN	520	0.07411387283355	1	1	NaN	4322587.1381378	NaN	4322588.1215316	4322588.63809123
47	20	1	0	90	36.1581920903955	36.241610738255	22	0.733398599848151	2	7	1	NaN	2	3	0.080651200461123	0	1	NaN	181	3	55	1	120	220	320	NaN	520	0.0104292212054133	2	1	NaN	4322589.5383765	NaN	4322590.5217695	4322591.03832138
47	20	1	0	90	36.1581920903955	36.241610738255	13	0.433371899910271	2	1	6	NaN	1	3	0.080651200461123	0	1	NaN	182	3	56	1	120	220	320	NaN	520	0.010412372648716	2	0	NaN	4322591.8719317	NaN	4322592.8553538	4322593.37189373
47	20	1	0	90	36.1581920903955	36.241610738255	6	0.200017799958587	2	1	6	NaN	1	5	0.080651200461123	0	1	NaN	183	3	57	1	120	220	320	NaN	520	0.254918673075736	2	0	NaN	4322594.2054966	NaN	4322595.1889097	4322595.70544803
47	20	1	0	90	36.1581920903955	36.241610738255	10	0.333362999930978	2	6	1	NaN	1	3	0.080651200461123	0	1	NaN	184	3	58	1	120	220	320	NaN	520	0.184269173070788	1	1	NaN	4322596.7724059	NaN	4322597.7558116	4322598.27236493
47	20	1	0	90	36.1581920903955	36.241610738255	25	0.833407499827445	2	7	5	NaN	2	3	0.080651200461123	0	1	NaN	185	3	59	1	120	220	320	NaN	520	0.0103960251435637	2	1	NaN	4322599.2726601	NaN	4322600.2560676	4322600.77262027
47	20	1	0	90	36.1581920903955	36.241610738255	0	0	1	8	2	NaN	2	5	0.080651200461123	0	1	NaN	186	3	60	1	110	210	310	NaN	510	0.622298616915941	2	1	NaN	4322601.6062252	NaN	4322602.5896232	4322603.10617078
47	20	1	0	90	36.1581920903955	36.241610738255	24	0.800071199834347	2	11	4	NaN	2	3	0.080651200461123	0	1	NaN	187	3	61	1	120	220	320	NaN	520	0.259093664586544	2	1	NaN	4322604.8732317	NaN	4322605.8566179	4322606.37316234
47	20	1	0	90	36.1581920903955	36.241610738255	8	0.266690399944782	2	6	4	NaN	1	3	0.080651200461123	0	1	NaN	188	3	62	1	120	220	320	NaN	520	0.0104089733213186	1	1	NaN	4322607.4401166	NaN	4322608.4235285	4322608.94007763
47	20	1	0	90	36.1581920903955	36.241610738255	14	0.466708199903369	2	4	3	NaN	1	4	0.080651200461123	0	1	NaN	189	3	63	1	120	220	320	NaN	520	0.118929573334754	2	0	NaN	4322609.7736911	NaN	4322610.7570915	4322611.27363693
47	20	1	0	90	36.1581920903955	36.241610738255	18	0.60005339987576	2	9	1	NaN	2	5	0.080651200461123	0	1	NaN	190	4	1	1	120	220	320	NaN	520	0.0721259778365493	2	1	NaN	4322691.9482969	NaN	4322692.9318242	4322693.44837012
47	20	1	0	90	36.1581920903955	36.241610738255	17	0.566717099882662	2	7	3	NaN	2	5	0.080651200461123	0	1	NaN	191	4	2	1	120	220	320	NaN	520	0.208550177514553	2	1	NaN	4322694.7320355	NaN	4322695.7154201	4322696.23197922
47	20	1	0	90	36.1581920903955	36.241610738255	6	0.200017799958587	2	5	3	NaN	1	4	0.080651200461123	0	1	NaN	192	4	3	1	120	220	320	NaN	520	0.0116864247247577	2	0	NaN	4322697.2489309	NaN	4322698.2322464	4322698.74888927
47	20	1	0	90	36.1581920903955	36.241610738255	15	0.500044499896467	2	10	6	NaN	2	5	0.080651200461123	0	1	NaN	193	4	4	1	120	220	320	NaN	520	0.542541073635221	2	1	NaN	4322699.9658734	NaN	4322700.9492753	4322701.46581873
47	20	1	0	90	36.1581920903955	36.241610738255	18	0.60005339987576	2	7	3	NaN	2	5	0.080651200461123	0	1	NaN	194	4	5	1	120	220	320	NaN	520	0.13965732511133	2	1	NaN	4322702.8328271	NaN	4322703.8162187	4322704.33277087
47	20	1	0	90	36.1581920903955	36.241610738255	24	0.800071199834347	2	9	4	NaN	2	4	0.080651200461123	0	1	NaN	195	4	6	1	120	220	320	NaN	520	0.249364072456956	2	1	NaN	4322705.2830509	NaN	4322706.266464	4322706.78300153
47	20	1	0	90	36.1581920903955	36.241610738255	14	0.466708199903369	2	6	1	NaN	1	4	0.080651200461123	0	1	NaN	196	4	7	1	120	220	320	NaN	520	0.0905054733157158	2	0	NaN	4322707.8499786	NaN	4322708.8333577	4322709.34992623
47	20	1	0	90	36.1581920903955	36.241610738255	19	0.633389699868858	2	12	6	NaN	2	3	0.080651200461123	0	1	NaN	197	4	8	1	120	220	320	NaN	520	0.18636017292738	2	1	NaN	4322710.2502159	NaN	4322711.2335922	4322711.75015613
47	20	1	0	90	36.1581920903955	36.241610738255	6	0.200017799958587	2	4	6	NaN	1	3	0.080651200461123	0	1	NaN	198	4	9	1	120	220	320	NaN	520	0.0104093728587031	2	0	NaN	4322712.7504486	NaN	4322713.7338641	4322714.25040683
47	20	1	0	90	36.1581920903955	36.241610738255	12	0.400035599917173	2	5	6	NaN	1	4	0.080651200461123	0	1	NaN	199	4	10	1	120	220	320	NaN	520	0.169121026061475	1	1	NaN	4322715.0673507	NaN	4322716.0507557	4322716.56730797
47	20	1	0	90	36.1581920903955	36.241610738255	20	0.666725999861956	2	2	5	NaN	1	3	0.080651200461123	0	1	NaN	200	4	11	1	120	220	320	NaN	520	0.205552025698125	2	0	NaN	4322717.5507929	NaN	4322718.5343356	4322719.05088377
47	20	1	0	90	36.1581920903955	36.241610738255	23	0.766734899841249	2	1	1	NaN	1	3	0.080651200461123	0	1	NaN	201	4	12	1	120	220	320	NaN	520	0.144824425689876	2	0	NaN	4322720.0678489	NaN	4322721.0512497	4322721.56779437
47	20	1	0	90	36.1581920903955	36.241610738255	8	0.266690399944782	2	2	6	NaN	1	5	0.080651200461123	0	1	NaN	202	4	13	1	120	220	320	NaN	520	0.0104106729850173	2	0	NaN	4322722.5180794	NaN	4322723.5014775	4322724.01803213
47	20	1	0	90	36.1581920903955	36.241610738255	18	0.60005339987576	2	11	5	NaN	2	5	0.080651200461123	0	1	NaN	203	4	14	1	120	220	320	NaN	520	0.105697925202549	2	1	NaN	4322724.8349751	NaN	4322725.8183493	4322726.33492937
47	20	1	0	90	36.1581920903955	36.241610738255	23	0.766734899841249	2	5	1	NaN	1	4	0.080651200461123	0	1	NaN	204	4	15	1	120	220	320	NaN	520	0.064525025896728	2	0	NaN	4322727.2518759	NaN	4322728.2352843	4322728.75183237
47	20	1	0	90	36.1581920903955	36.241610738255	7	0.233354099951684	2	3	6	NaN	1	4	0.080651200461123	0	1	NaN	205	4	16	1	120	220	320	NaN	520	0.137070572935045	2	0	NaN	4322729.6354542	NaN	4322730.6188219	4322731.13539733
47	20	1	0	90	36.1581920903955	36.241610738255	10	0.333362999930978	2	1	2	NaN	1	3	0.080651200461123	0	1	NaN	206	4	17	1	120	220	320	NaN	520	0.295076525770128	1	1	NaN	4322732.0856953	NaN	4322733.0690878	4322733.58563607
47	20	1	0	90	36.1581920903955	36.241610738255	22	0.733398599848151	2	4	4	NaN	1	3	0.080651200461123	0	1	NaN	207	4	18	1	120	220	320	NaN	520	0.397939025424421	2	0	NaN	4322734.7026095	NaN	4322735.6860105	4322736.20256558
47	20	1	0	90	36.1581920903955	36.241610738255	8	0.266690399944782	2	3	3	NaN	1	5	0.080651200461123	0	1	NaN	208	4	19	1	120	220	320	NaN	520	0.0409544259309769	1	1	NaN	4322737.4195435	NaN	4322738.4029475	4322738.91950057
47	20	1	0	90	36.1581920903955	36.241610738255	24	0.800071199834347	2	12	2	NaN	2	3	0.080651200461123	0	1	NaN	209	4	20	1	120	220	320	NaN	520	0.0187582252547145	2	1	NaN	4322739.7696999	NaN	4322740.7531751	4322741.26972857
47	20	1	0	90	36.1581920903955	36.241610738255	18	0.60005339987576	2	3	4	NaN	1	3	0.080651200461123	0	1	NaN	210	4	21	1	120	220	320	NaN	520	0.0104100732132792	2	0	NaN	4322742.1033392	NaN	4322743.0867401	4322743.60329183
47	20	1	0	90	36.1581920903955	36.241610738255	19	0.633389699868858	2	4	4	NaN	1	3	0.080651200461123	0	1	NaN	211	4	22	1	120	220	320	NaN	520	0.0103321867063642	2	0	NaN	4322744.4202283	NaN	4322745.4036184	4322745.92018221
47	20	1	0	90	36.1581920903955	36.241610738255	19	0.633389699868858	2	10	5	NaN	2	3	0.080651200461123	0	1	NaN	212	4	23	1	120	220	320	NaN	520	0.283067373558879	1	0	NaN	4322747.1538406	NaN	4322748.1372317	4322748.65377703
47	20	1	0	90	36.1581920903955	36.241610738255	0	0	1	7	4	NaN	2	5	0.080651200461123	0	1	NaN	213	4	24	1	110	210	310	NaN	510	0.211434124968946	2	1	NaN	4322749.9373212	NaN	4322750.920845	4322751.43739088
47	20	1	0	90	36.1581920903955	36.241610738255	7	0.233354099951684	2	8	6	NaN	2	4	0.080651200461123	0	1	NaN	214	4	25	1	120	220	320	NaN	520	0.0212493250146508	2	1	NaN	4322752.4710282	NaN	4322753.4544236	4322753.97098957
47	20	1	0	90	36.1581920903955	36.241610738255	7	0.233354099951684	2	2	1	NaN	1	4	0.080651200461123	0	1	NaN	215	4	26	1	120	220	320	NaN	520	0.0104104736819863	2	0	NaN	4322754.8045858	NaN	4322755.787991	4322756.30453053
47	20	1	0	90	36.1581920903955	36.241610738255	9	0.30002669993788	2	5	6	NaN	1	5	0.080651200461123	0	1	NaN	216	4	27	1	120	220	320	NaN	520	0.146387725137174	1	1	NaN	4322757.1381425	NaN	4322758.1215395	4322758.63808957
47	20	1	0	90	36.1581920903955	36.241610738255	24	0.800071199834347	2	9	5	NaN	2	5	0.080651200461123	0	1	NaN	217	4	28	1	120	220	320	NaN	520	0.759334973990917	2	1	NaN	4322759.6050487	NaN	4322760.5884716	4322761.10499633
47	20	1	0	90	36.1581920903955	36.241610738255	16	0.533380799889565	2	5	2	NaN	1	5	0.080651200461123	0	1	NaN	218	4	29	1	120	220	320	NaN	520	0.195818472653627	1	1	NaN	4322762.6886945	NaN	4322763.6720988	4322764.18863453
47	20	1	0	90	36.1581920903955	36.241610738255	6	0.200017799958587	2	12	4	NaN	2	5	0.080651200461123	0	1	NaN	219	4	30	1	120	220	320	NaN	520	0.0950968256220222	2	1	NaN	4322765.2055908	NaN	4322766.1890139	4322766.70555787
47	20	1	0	90	36.1581920903955	36.241610738255	17	0.566717099882662	2	3	1	NaN	1	4	0.080651200461123	0	1	NaN	220	4	31	1	120	220	320	NaN	520	0.334367573261261	1	1	NaN	4322767.6225144	NaN	4322768.6059176	4322769.12245233
47	20	1	0	90	36.1581920903955	36.241610738255	25	0.833407499827445	2	12	6	NaN	2	4	0.080651200461123	0	1	NaN	221	4	32	1	120	220	320	NaN	520	0.0104079255834222	2	1	NaN	4322770.272761	NaN	4322771.2561677	4322771.77272157
47	20	1	0	90	36.1581920903955	36.241610738255	6	0.200017799958587	2	10	5	NaN	2	4	0.080651200461123	0	1	NaN	222	4	33	1	120	220	320	NaN	520	0.214245973154902	1	0	NaN	4322772.6062832	NaN	4322773.5897278	4322774.10627223
47	20	1	0	90	36.1581920903955	36.241610738255	9	0.30002669993788	2	4	4	NaN	1	3	0.080651200461123	0	1	NaN	223	4	34	1	120	220	320	NaN	520	0.232811625115573	2	0	NaN	4322775.1398961	NaN	4322776.12331	4322776.63986167
47	20	1	0	90	36.1581920903955	36.241610738255	7	0.233354099951684	2	3	4	NaN	1	3	0.080651200461123	0	1	NaN	224	4	35	1	120	220	320	NaN	520	0.0102859912440181	2	0	NaN	4322777.69015	NaN	4322778.6735709	4322779.19011281
47	20	1	0	90	36.1581920903955	36.241610738255	9	0.30002669993788	2	1	1	NaN	1	3	0.080651200461123	0	1	NaN	225	4	36	1	120	220	320	NaN	520	0.133515724912286	2	0	NaN	4322780.0070544	NaN	4322780.9904494	4322781.50702378
47	20	1	0	90	36.1581920903955	36.241610738255	21	0.700062299855053	2	7	5	NaN	2	4	0.080651200461123	0	1	NaN	226	4	37	1	120	220	320	NaN	520	0.18728522118181	2	1	NaN	4322782.4573138	NaN	4322783.4407258	4322783.95723618
47	20	1	0	90	36.1581920903955	36.241610738255	0	0	1	4	6	NaN	1	4	0.080651200461123	0	1	NaN	227	4	38	1	110	210	310	NaN	510	0.0103864772245288	2	0	NaN	4322784.9575392	NaN	4322785.9409496	4322786.45749342
47	20	1	0	90	36.1581920903955	36.241610738255	23	0.766734899841249	2	4	5	NaN	1	4	0.080651200461123	0	1	NaN	228	4	39	1	120	220	320	NaN	520	0.0662526255473495	2	0	NaN	4322787.2744305	NaN	4322788.2578618	4322788.77438757
47	20	1	0	90	36.1581920903955	36.241610738255	10	0.333362999930978	2	2	3	NaN	1	5	0.080651200461123	0	1	NaN	229	4	40	1	120	220	320	NaN	520	0.178841426037252	2	0	NaN	4322789.6579977	NaN	4322790.641391	4322791.15795067
47	20	1	0	90	36.1581920903955	36.241610738255	6	0.200017799958587	2	9	5	NaN	2	5	0.080651200461123	0	1	NaN	230	4	41	1	120	220	320	NaN	520	0.0104193734005094	2	1	NaN	4322792.1582602	NaN	4322793.141635	4322793.65819163
47	20	1	0	90	36.1581920903955	36.241610738255	14	0.466708199903369	2	11	6	NaN	2	3	0.080651200461123	0	1	NaN	231	4	42	1	120	220	320	NaN	520	0.0573867252096534	2	1	NaN	4322794.4751385	NaN	4322795.4585395	4322795.97509497
47	20	1	0	90	36.1581920903955	36.241610738255	9	0.30002669993788	2	1	3	NaN	1	5	0.080651200461123	0	1	NaN	232	4	43	1	120	220	320	NaN	520	0.162541473284364	1	1	NaN	4322796.8419207	NaN	4322797.8254461	4322798.34198833
47	20	1	0	90	36.1581920903955	36.241610738255	0	0	1	2	2	NaN	1	5	0.080651200461123	0	1	NaN	233	4	44	1	110	210	310	NaN	510	0.0104242730885744	2	0	NaN	4322799.3255948	NaN	4322800.3089902	4322800.82556273
47	20	1	0	90	36.1581920903955	36.241610738255	17	0.566717099882662	2	11	3	NaN	2	5	0.080651200461123	0	1	NaN	234	4	45	1	120	220	320	NaN	520	0.544833725318313	2	1	NaN	4322801.6758724	NaN	4322802.6592444	4322803.17579708
47	20	1	0	90	36.1581920903955	36.241610738255	22	0.733398599848151	2	6	4	NaN	1	4	0.080651200461123	0	1	NaN	235	4	46	1	120	220	320	NaN	520	0.366151925176382	1	1	NaN	4322804.5427905	NaN	4322805.5262104	4322806.04274867
47	20	1	0	90	36.1581920903955	36.241610738255	17	0.566717099882662	2	5	2	NaN	1	5	0.080651200461123	0	1	NaN	236	4	47	1	120	220	320	NaN	520	0.114178272895515	1	1	NaN	4322807.226389	NaN	4322808.2097867	4322808.72633483
47	20	1	0	90	36.1581920903955	36.241610738255	10	0.333362999930978	2	8	5	NaN	2	5	0.080651200461123	0	1	NaN	237	4	48	1	120	220	320	NaN	520	0.128801273182034	2	1	NaN	4322809.6599522	NaN	4322810.6434042	4322811.15991023
47	20	1	0	90	36.1581920903955	36.241610738255	20	0.666725999861956	2	6	1	NaN	1	5	0.080651200461123	0	1	NaN	238	4	49	1	120	220	320	NaN	520	0.095194673165679	1	1	NaN	4322812.0934688	NaN	4322813.0769423	4322813.59347933
47	20	1	0	90	36.1581920903955	36.241610738255	25	0.833407499827445	2	12	5	NaN	2	4	0.080651200461123	0	1	NaN	239	4	50	1	120	220	320	NaN	520	0.310338473878801	1	0	NaN	4322814.510453	NaN	4322815.4938329	4322816.01038573
47	20	1	0	90	36.1581920903955	36.241610738255	22	0.733398599848151	2	2	3	NaN	1	5	0.080651200461123	0	1	NaN	240	4	51	1	120	220	320	NaN	520	0.116603425703943	2	0	NaN	4322817.1439284	NaN	4322818.1274278	4322818.64398047
47	20	1	0	90	36.1581920903955	36.241610738255	11	0.366699299924076	2	7	4	NaN	2	4	0.080651200461123	0	1	NaN	241	4	52	1	120	220	320	NaN	520	0.131000773049891	2	1	NaN	4322819.5776013	NaN	4322820.560994	4322821.07754853
47	20	1	0	90	36.1581920903955	36.241610738255	18	0.60005339987576	2	10	3	NaN	2	4	0.080651200461123	0	1	NaN	242	4	53	1	120	220	320	NaN	520	0.0104135731235147	2	1	NaN	4322822.3610827	NaN	4322823.3446066	4322823.86115013
47	20	1	0	90	36.1581920903955	36.241610738255	0	0	1	1	3	NaN	1	5	0.080651200461123	0	1	NaN	243	4	54	1	110	210	310	NaN	510	0.0104213254526258	1	1	NaN	4322824.994811	NaN	4322825.9782356	4322826.49475377
47	20	1	0	90	36.1581920903955	36.241610738255	24	0.800071199834347	2	7	1	NaN	2	4	0.080651200461123	0	1	NaN	244	4	55	1	120	220	320	NaN	520	0.285061272792518	2	1	NaN	4322827.3115528	NaN	4322828.2950952	4322828.81163493
47	20	1	0	90	36.1581920903955	36.241610738255	22	0.733398599848151	2	3	2	NaN	1	5	0.080651200461123	0	1	NaN	245	4	56	1	120	220	320	NaN	520	0.128274525515735	1	1	NaN	4322830.0286166	NaN	4322831.0120234	4322831.52858177
47	20	1	0	90	36.1581920903955	36.241610738255	25	0.833407499827445	2	10	2	NaN	2	4	0.080651200461123	0	1	NaN	246	4	57	1	120	220	320	NaN	520	0.010408173315227	2	1	NaN	4322832.7288584	NaN	4322833.7122952	4322834.22884663
47	20	1	0	90	36.1581920903955	36.241610738255	15	0.500044499896467	2	5	3	NaN	1	3	0.080651200461123	0	1	NaN	247	4	58	1	120	220	320	NaN	520	0.0409192247316241	2	0	NaN	4322835.3956914	NaN	4322836.3792178	4322836.89577407
47	20	1	0	90	36.1581920903955	36.241610738255	8	0.266690399944782	2	4	2	NaN	1	3	0.080651200461123	0	1	NaN	248	4	59	1	120	220	320	NaN	520	0.0507740247994661	1	1	NaN	4322837.7460509	NaN	4322838.7294534	4322839.24600247
47	20	1	0	90	36.1581920903955	36.241610738255	25	0.833407499827445	2	6	6	NaN	1	4	0.080651200461123	0	1	NaN	249	4	60	1	120	220	320	NaN	520	0.107690272852778	1	1	NaN	4322840.1128442	NaN	4322841.0963461	4322841.61289713
47	20	1	0	90	36.1581920903955	36.241610738255	21	0.700062299855053	2	3	2	NaN	1	5	0.080651200461123	0	1	NaN	250	4	61	1	120	220	320	NaN	520	0.0345070725306869	2	0	NaN	4322842.5297968	NaN	4322843.5132517	4322844.02979563
47	20	1	0	90	36.1581920903955	36.241610738255	24	0.800071199834347	2	2	3	NaN	1	4	0.080651200461123	0	1	NaN	251	4	62	1	120	220	320	NaN	520	0.0767504256218672	2	0	NaN	4322844.8800637	NaN	4322845.8634582	4322846.38003617
47	20	1	0	90	36.1581920903955	36.241610738255	25	0.833407499827445	2	7	2	NaN	2	3	0.080651200461123	0	1	NaN	252	4	63	1	120	220	320	NaN	520	0.124406324699521	2	1	NaN	4322847.2803171	NaN	4322848.2637202	4322848.78027047
47	20	1	0	90	36.1581920903955	36.241610738255	11	0.366699299924076	2	12	3	NaN	2	4	0.080651200461123	0	1	NaN	253	5	1	1	120	220	320	NaN	520	1.60480092465878	1	0	NaN	4322917.3038484	NaN	4322918.2872382	4322918.80380417
47	20	1	0	90	36.1581920903955	36.241610738255	25	0.833407499827445	2	4	5	NaN	1	4	0.080651200461123	0	1	NaN	254	5	2	1	120	220	320	NaN	520	0.168004925362766	1	1	NaN	4322921.2209112	NaN	4322922.2043371	4322922.72085507
47	20	1	0	90	36.1581920903955	36.241610738255	6	0.200017799958587	2	2	5	NaN	1	4	0.080651200461123	0	1	NaN	255	5	3	1	120	220	320	NaN	520	1.33255797252059	2	0	NaN	4322923.7043418	NaN	4322924.6878746	4322925.20442143
47	20	1	0	90	36.1581920903955	36.241610738255	17	0.566717099882662	2	3	5	NaN	1	4	0.080651200461123	0	1	NaN	256	5	4	1	120	220	320	NaN	520	0.226026926189661	1	1	NaN	4322927.354842	NaN	4322928.338233	4322928.85480117
47	20	1	0	90	36.1581920903955	36.241610738255	17	0.566717099882662	2	2	6	NaN	1	3	0.080651200461123	0	1	NaN	257	5	5	1	120	220	320	NaN	520	0.100343273021281	1	1	NaN	4322929.8882983	NaN	4322930.8718132	4322931.38836473
47	20	1	0	90	36.1581920903955	36.241610738255	8	0.266690399944782	2	8	3	NaN	2	3	0.080651200461123	0	1	NaN	258	5	6	1	120	220	320	NaN	520	0.435354025103152	2	1	NaN	4322932.3051915	NaN	4322933.288718	4322933.80527538
47	20	1	0	90	36.1581920903955	36.241610738255	15	0.500044499896467	2	11	1	NaN	2	4	0.080651200461123	0	1	NaN	259	5	7	1	120	220	320	NaN	520	0.221553373150527	1	0	NaN	4322935.0554684	NaN	4322936.0389954	4322936.55554593
47	20	1	0	90	36.1581920903955	36.241610738255	12	0.400035599917173	2	8	1	NaN	2	4	0.080651200461123	0	1	NaN	260	5	8	1	120	220	320	NaN	520	0.151810225099325	1	0	NaN	4322937.5891717	NaN	4322938.5725977	4322939.08912397
47	20	1	0	90	36.1581920903955	36.241610738255	19	0.633389699868858	2	9	3	NaN	2	5	0.080651200461123	0	1	NaN	261	5	9	1	120	220	320	NaN	520	0.0102804433554411	2	1	NaN	4322940.0561871	NaN	4322941.0394823	4322941.55603316
47	20	1	0	90	36.1581920903955	36.241610738255	15	0.500044499896467	2	12	4	NaN	2	4	0.080651200461123	0	1	NaN	262	5	10	1	120	220	320	NaN	520	0.215474225580692	2	1	NaN	4322942.3896469	NaN	4322943.3730611	4322943.88959887
47	20	1	0	90	36.1581920903955	36.241610738255	15	0.500044499896467	2	5	3	NaN	1	5	0.080651200461123	0	1	NaN	263	5	11	1	120	220	320	NaN	520	0.0656621251255274	2	0	NaN	4322944.9232371	NaN	4322945.9066235	4322946.42318297
47	20	1	0	90	36.1581920903955	36.241610738255	15	0.500044499896467	2	9	4	NaN	2	5	0.080651200461123	0	1	NaN	264	5	12	1	120	220	320	NaN	520	0.0502953734248877	1	0	NaN	4322947.3068832	NaN	4322948.2901849	4322948.80674643
47	20	1	0	90	36.1581920903955	36.241610738255	21	0.700062299855053	2	3	5	NaN	1	5	0.080651200461123	0	1	NaN	265	5	13	1	120	220	320	NaN	520	0.131083973683417	1	1	NaN	4322949.6736837	NaN	4322950.6570932	4322951.17363903
47	20	1	0	90	36.1581920903955	36.241610738255	6	0.200017799958587	2	12	4	NaN	2	5	0.080651200461123	0	1	NaN	266	5	14	1	120	220	320	NaN	520	0.106457024812698	2	1	NaN	4322952.2904912	NaN	4322953.2740207	4322953.79056737
47	20	1	0	90	36.1581920903955	36.241610738255	12	0.400035599917173	2	7	6	NaN	2	5	0.080651200461123	0	1	NaN	267	5	15	1	120	220	320	NaN	520	0.177544673904777	2	1	NaN	4322954.7075194	NaN	4322955.6909184	4322956.20746133
47	20	1	0	90	36.1581920903955	36.241610738255	0	0	1	9	6	NaN	2	4	0.080651200461123	0	1	NaN	268	5	16	1	110	210	310	NaN	510	0.010412173345685	2	1	NaN	4322957.1909869	NaN	4322958.1744772	4322958.69103923
47	20	1	0	90	36.1581920903955	36.241610738255	24	0.800071199834347	2	3	3	NaN	1	5	0.080651200461123	0	1	NaN	269	5	17	1	120	220	320	NaN	520	0.624068973585963	2	0	NaN	4322959.5247708	NaN	4322960.5080646	4322961.02460553
47	20	1	0	90	36.1581920903955	36.241610738255	22	0.733398599848151	2	11	5	NaN	2	3	0.080651200461123	0	1	NaN	270	5	18	1	120	220	320	NaN	520	0.0939019257202744	2	1	NaN	4322962.7748771	NaN	4322963.7583735	4322964.27492937
47	20	1	0	90	36.1581920903955	36.241610738255	17	0.566717099882662	2	11	2	NaN	2	3	0.080651200461123	0	1	NaN	271	5	19	1	120	220	320	NaN	520	0.381261525675654	2	1	NaN	4322965.1918935	NaN	4322966.1753942	4322966.69183667
47	20	1	0	90	36.1581920903955	36.241610738255	24	0.800071199834347	2	1	2	NaN	1	3	0.080651200461123	0	1	NaN	272	5	20	1	120	220	320	NaN	520	0.136960073374212	2	0	NaN	4322968.0921447	NaN	4322969.0755724	4322969.59211513
47	20	1	0	90	36.1581920903955	36.241610738255	6	0.200017799958587	2	7	1	NaN	2	4	0.080651200461123	0	1	NaN	273	5	21	1	120	220	320	NaN	520	0.222759773023427	2	1	NaN	4322970.9424137	NaN	4322971.9258418	4322972.44239583
47	20	1	0	90	36.1581920903955	36.241610738255	21	0.700062299855053	2	5	4	NaN	1	3	0.080651200461123	0	1	NaN	274	5	22	1	120	220	320	NaN	520	0.0103944251313806	2	0	NaN	4322973.4760262	NaN	4322974.4594382	4322974.97598157
47	20	1	0	90	36.1581920903955	36.241610738255	17	0.566717099882662	2	1	4	NaN	1	5	0.080651200461123	0	1	NaN	275	5	23	1	120	220	320	NaN	520	0.3397520724684	2	0	NaN	4322975.7927997	NaN	4322976.7763396	4322977.29286653
47	20	1	0	90	36.1581920903955	36.241610738255	19	0.633389699868858	2	8	1	NaN	2	3	0.080651200461123	0	1	NaN	276	5	24	1	120	220	320	NaN	520	0.0104082738980651	2	1	NaN	4322978.4432143	NaN	4322979.4265965	4322979.94312923
47	20	1	0	90	36.1581920903955	36.241610738255	6	0.200017799958587	2	4	1	NaN	1	4	0.080651200461123	0	1	NaN	277	5	25	1	120	220	320	NaN	520	0.0539501253515482	2	0	NaN	4322981.1267453	NaN	4322982.1101783	4322982.62672917
47	20	1	0	90	36.1581920903955	36.241610738255	21	0.700062299855053	2	8	4	NaN	2	4	0.080651200461123	0	1	NaN	278	5	26	1	120	220	320	NaN	520	0.160640772432089	2	1	NaN	4322983.8603119	NaN	4322984.8437527	4322985.36033093
47	20	1	0	90	36.1581920903955	36.241610738255	16	0.533380799889565	2	8	3	NaN	2	4	0.080651200461123	0	1	NaN	279	5	27	1	120	220	320	NaN	520	0.045550424605608	2	1	NaN	4322986.3272945	NaN	4322987.3106873	4322987.82724007
47	20	1	0	90	36.1581920903955	36.241610738255	19	0.633389699868858	2	11	2	NaN	2	3	0.080651200461123	0	1	NaN	280	5	28	1	120	220	320	NaN	520	0.0104240737855434	2	1	NaN	4322988.6775151	NaN	4322989.6609226	4322990.17746233
47	20	1	0	90	36.1581920903955	36.241610738255	9	0.30002669993788	2	2	1	NaN	1	5	0.080651200461123	0	1	NaN	281	5	29	1	120	220	320	NaN	520	0.0104087740182877	2	0	NaN	4322991.0109588	NaN	4322991.9944834	4322992.51102343
47	20	1	0	90	36.1581920903955	36.241610738255	11	0.366699299924076	2	12	1	NaN	2	3	0.080651200461123	0	1	NaN	282	5	30	1	120	220	320	NaN	520	0.420454973354936	2	1	NaN	4322993.3446359	NaN	4322994.3280294	4322994.84458423
47	20	1	0	90	36.1581920903955	36.241610738255	8	0.266690399944782	2	5	6	NaN	1	4	0.080651200461123	0	1	NaN	283	5	31	1	120	220	320	NaN	520	0.598586025647819	2	0	NaN	4322996.0782444	NaN	4322997.0616384	4322997.57821377
47	20	1	0	90	36.1581920903955	36.241610738255	8	0.266690399944782	2	6	4	NaN	1	4	0.080651200461123	0	1	NaN	284	5	32	1	120	220	320	NaN	520	0.281498672440648	1	1	NaN	4322998.9951899	NaN	4322999.9785975	4323000.49514193
47	20	1	0	90	36.1581920903955	36.241610738255	10	0.333362999930978	2	3	2	NaN	1	4	0.080651200461123	0	1	NaN	285	5	33	1	120	220	320	NaN	520	0.0221008695662022	1	1	NaN	4323001.8786762	NaN	4323002.8622114	4323003.37876373
47	20	1	0	90	36.1581920903955	36.241610738255	7	0.233354099951684	2	1	4	NaN	1	4	0.080651200461123	0	1	NaN	286	5	34	1	120	220	320	NaN	520	0.0977791734039783	1	1	NaN	4323004.5791016	NaN	4323005.5624826	4323006.07901853
47	20	1	0	90	36.1581920903955	36.241610738255	14	0.466708199903369	2	1	1	NaN	1	3	0.080651200461123	0	1	NaN	287	5	35	1	120	220	320	NaN	520	0.217395038343966	1	1	NaN	4323006.9960276	NaN	4323007.9793807	4323008.49593206
47	20	1	0	90	36.1581920903955	36.241610738255	13	0.433371899910271	2	2	6	NaN	1	4	0.080651200461123	0	1	NaN	288	5	36	1	120	220	320	NaN	520	0.0593477245420218	2	0	NaN	4323009.5295647	NaN	4323010.5129602	4323011.02951708
47	20	1	0	90	36.1581920903955	36.241610738255	23	0.766734899841249	2	6	4	NaN	1	4	0.080651200461123	0	1	NaN	289	5	37	1	120	220	320	NaN	520	0.010271143168211	1	1	NaN	4323011.8963288	NaN	4323012.8798579	4323013.39641316
47	20	1	0	90	36.1581920903955	36.241610738255	19	0.633389699868858	2	2	1	NaN	1	4	0.080651200461123	0	1	NaN	290	5	38	1	120	220	320	NaN	520	0.199854033999145	1	1	NaN	4323014.2133581	NaN	4323015.1967483	4323015.71331237
47	20	1	0	90	36.1581920903955	36.241610738255	0	0	1	8	5	NaN	2	4	0.080651200461123	0	1	NaN	291	5	39	1	110	210	310	NaN	510	0.17881877347827	1	0	NaN	4323016.7302785	NaN	4323017.7136078	4323018.23022183
47	20	1	0	90	36.1581920903955	36.241610738255	21	0.700062299855053	2	2	3	NaN	1	3	0.080651200461123	0	1	NaN	292	5	40	1	120	220	320	NaN	520	0.0144262732937932	1	1	NaN	4323019.2303754	NaN	4323020.2139187	4323020.73045953
47	20	1	0	90	36.1581920903955	36.241610738255	24	0.800071199834347	2	11	1	NaN	2	3	0.080651200461123	0	1	NaN	293	5	41	1	120	220	320	NaN	520	0.0103824771940708	1	0	NaN	4323021.5640686	NaN	4323022.5474783	4323023.06403162
47	20	1	0	90	36.1581920903955	36.241610738255	16	0.533380799889565	2	2	3	NaN	1	4	0.080651200461123	0	1	NaN	294	5	42	1	120	220	320	NaN	520	0.010424773208797	2	0	NaN	4323023.8976254	NaN	4323024.8810307	4323025.39759403
47	20	1	0	90	36.1581920903955	36.241610738255	19	0.633389699868858	2	3	1	NaN	1	4	0.080651200461123	0	1	NaN	295	5	43	1	120	220	320	NaN	520	0.0103915249928832	2	0	NaN	4323026.2145377	NaN	4323027.1979818	4323027.71448257
47	20	1	0	90	36.1581920903955	36.241610738255	23	0.766734899841249	2	7	6	NaN	2	4	0.080651200461123	0	1	NaN	296	5	44	1	120	220	320	NaN	520	0.176916273310781	2	1	NaN	4323028.5480888	NaN	4323029.5314901	4323030.04803943
47	20	1	0	90	36.1581920903955	36.241610738255	23	0.766734899841249	2	6	2	NaN	1	5	0.080651200461123	0	1	NaN	297	5	45	1	120	220	320	NaN	520	0.141442673280835	1	1	NaN	4323031.0315589	NaN	4323032.0150657	4323032.53161843
47	20	1	0	90	36.1581920903955	36.241610738255	14	0.466708199903369	2	1	5	NaN	1	4	0.080651200461123	0	1	NaN	298	5	46	1	120	220	320	NaN	520	0.194985073059797	2	0	NaN	4323033.4819095	NaN	4323034.4653172	4323034.98186373
47	20	1	0	90	36.1581920903955	36.241610738255	8	0.266690399944782	2	12	4	NaN	2	5	0.080651200461123	0	1	NaN	299	5	47	1	120	220	320	NaN	520	0.215360373258591	2	1	NaN	4323036.1653772	NaN	4323037.148909	4323037.66545933
47	20	1	0	90	36.1581920903955	36.241610738255	15	0.500044499896467	2	11	3	NaN	2	4	0.080651200461123	0	1	NaN	300	5	48	1	120	220	320	NaN	520	0.0104133738204837	2	1	NaN	4323038.6990783	NaN	4323039.6824904	4323040.19904133
47	20	1	0	90	36.1581920903955	36.241610738255	18	0.60005339987576	2	5	5	NaN	1	5	0.080651200461123	0	1	NaN	301	5	49	1	120	220	320	NaN	520	0.0691538732498884	1	1	NaN	4323041.0159821	NaN	4323041.9994184	4323042.51593213
47	20	1	0	90	36.1581920903955	36.241610738255	10	0.333362999930978	2	9	1	NaN	2	4	0.080651200461123	0	1	NaN	302	5	50	1	120	220	320	NaN	520	0.0614841729402542	1	0	NaN	4323043.399405	NaN	4323044.3829537	4323044.89949513
47	20	1	0	90	36.1581920903955	36.241610738255	6	0.200017799958587	2	7	6	NaN	2	4	0.080651200461123	0	1	NaN	303	5	51	1	120	220	320	NaN	520	0.189957173541188	2	1	NaN	4323045.7831523	NaN	4323046.7665201	4323047.28306283
47	20	1	0	90	36.1581920903955	36.241610738255	7	0.233354099951684	2	10	6	NaN	2	5	0.080651200461123	0	1	NaN	304	5	52	1	120	220	320	NaN	520	0.233565624803305	2	1	NaN	4323048.2833864	NaN	4323049.2667598	4323049.78331717
47	20	1	0	90	36.1581920903955	36.241610738255	14	0.466708199903369	2	7	6	NaN	2	5	0.080651200461123	0	1	NaN	305	5	53	1	120	220	320	NaN	520	0.0354415774345398	2	1	NaN	4323050.8336235	NaN	4323051.8170124	4323052.33356912
47	20	1	0	90	36.1581920903955	36.241610738255	20	0.666725999861956	2	12	1	NaN	2	4	0.080651200461123	0	1	NaN	306	5	54	1	120	220	320	NaN	520	0.0104323737323284	2	1	NaN	4323053.1838219	NaN	4323054.1672359	4323054.68379293
47	20	1	0	90	36.1581920903955	36.241610738255	16	0.533380799889565	2	10	6	NaN	2	5	0.080651200461123	0	1	NaN	307	5	55	1	120	220	320	NaN	520	0.0964450258761644	1	0	NaN	4323055.5007347	NaN	4323056.4841345	4323057.00068827
47	20	1	0	90	36.1581920903955	36.241610738255	8	0.266690399944782	2	11	1	NaN	2	4	0.080651200461123	0	1	NaN	308	5	56	1	120	220	320	NaN	520	0.146349824965	2	1	NaN	4323058.0509664	NaN	4323059.0344054	4323059.55094147
47	20	1	0	90	36.1581920903955	36.241610738255	17	0.566717099882662	2	9	5	NaN	2	5	0.080651200461123	0	1	NaN	309	5	57	1	120	220	320	NaN	520	0.111098125576973	2	1	NaN	4323060.5179128	NaN	4323061.50131	4323062.01785777
47	20	1	0	90	36.1581920903955	36.241610738255	18	0.60005339987576	2	12	2	NaN	2	4	0.080651200461123	0	1	NaN	310	5	58	1	120	220	320	NaN	520	0.278156224638224	2	1	NaN	4323062.934798	NaN	4323063.9182135	4323064.43475557
47	20	1	0	90	36.1581920903955	36.241610738255	8	0.266690399944782	2	5	1	NaN	1	5	0.080651200461123	0	1	NaN	311	5	59	1	120	220	320	NaN	520	0.022787026129663	1	1	NaN	4323065.5184024	NaN	4323066.5017941	4323067.01834227
47	20	1	0	90	36.1581920903955	36.241610738255	21	0.700062299855053	2	4	6	NaN	1	3	0.080651200461123	0	1	NaN	312	5	60	1	120	220	320	NaN	520	0.0970166735351086	2	0	NaN	4323067.8518459	NaN	4323068.8353506	4323069.35189483
47	20	1	0	90	36.1581920903955	36.241610738255	21	0.700062299855053	2	8	2	NaN	2	3	0.080651200461123	0	1	NaN	313	5	61	1	120	220	320	NaN	520	0.0801452258601785	2	1	NaN	4323070.2688522	NaN	4323071.2522514	4323071.76880967
47	20	1	0	90	36.1581920903955	36.241610738255	8	0.266690399944782	2	10	5	NaN	2	4	0.080651200461123	0	1	NaN	314	5	62	1	120	220	320	NaN	520	0.152683973312378	1	0	NaN	4323072.6524308	NaN	4323073.6358431	4323074.15236853
47	20	1	0	90	36.1581920903955	36.241610738255	11	0.366699299924076	2	9	3	NaN	2	3	0.080651200461123	0	1	NaN	315	5	63	1	120	220	320	NaN	520	0.0104275206103921	2	1	NaN	4323075.1193415	NaN	4323076.102699	4323076.61926998
47	20	1	0	90	36.1581920903955	36.241610738255	16	0.533380799889565	2	12	5	NaN	2	4	0.080651200461123	0	1	NaN	316	6	1	1	120	220	320	NaN	520	0.233240095898509	2	1	NaN	4323140.2757238	NaN	4323141.2591098	4323141.7756686
47	20	1	0	90	36.1581920903955	36.241610738255	13	0.433371899910271	2	10	5	NaN	2	4	0.080651200461123	0	1	NaN	317	6	2	1	120	220	320	NaN	520	0.124968272633851	2	1	NaN	4323143.3758937	NaN	4323144.3594184	4323144.87597093
47	20	1	0	90	36.1581920903955	36.241610738255	16	0.533380799889565	2	11	4	NaN	2	4	0.080651200461123	0	1	NaN	318	6	3	1	120	220	320	NaN	520	0.0104499729350209	2	1	NaN	4323145.8095936	NaN	4323146.7930013	4323147.30954563
47	20	1	0	90	36.1581920903955	36.241610738255	16	0.533380799889565	2	1	3	NaN	1	3	0.080651200461123	0	1	NaN	319	6	4	1	120	220	320	NaN	520	0.246837772428989	2	0	NaN	4323148.1264905	NaN	4323149.1098906	4323149.62643003
47	20	1	0	90	36.1581920903955	36.241610738255	13	0.433371899910271	2	2	2	NaN	1	5	0.080651200461123	0	1	NaN	320	6	5	1	120	220	320	NaN	520	0.0397864738479257	1	1	NaN	4323150.6934209	NaN	4323151.6768012	4323152.19335133
47	20	1	0	90	36.1581920903955	36.241610738255	15	0.500044499896467	2	6	2	NaN	1	4	0.080651200461123	0	1	NaN	321	6	6	1	120	220	320	NaN	520	0.0497410260140896	1	1	NaN	4323153.0437096	NaN	4323154.0270366	4323154.54358987
47	20	1	0	90	36.1581920903955	36.241610738255	21	0.700062299855053	2	12	3	NaN	2	5	0.080651200461123	0	1	NaN	322	6	7	1	120	220	320	NaN	520	0.618852773681283	2	1	NaN	4323155.4104672	NaN	4323156.3939883	4323156.91047913
47	20	1	0	90	36.1581920903955	36.241610738255	18	0.60005339987576	2	6	5	NaN	1	3	0.080651200461123	0	1	NaN	323	6	8	1	120	220	320	NaN	520	0.077000473625958	1	1	NaN	4323158.344175	NaN	4323159.3275537	4323159.84410003
47	20	1	0	90	36.1581920903955	36.241610738255	6	0.200017799958587	2	6	1	NaN	1	3	0.080651200461123	0	1	NaN	324	6	9	1	120	220	320	NaN	520	0.010415873490274	1	1	NaN	4323160.7442256	NaN	4323161.7278127	4323162.24434373
47	20	1	0	90	36.1581920903955	36.241610738255	22	0.733398599848151	2	11	4	NaN	2	4	0.080651200461123	0	1	NaN	325	6	10	1	120	220	320	NaN	520	0.0104225212708116	2	1	NaN	4323163.0612878	NaN	4323164.0446831	4323164.56123258
47	20	1	0	90	36.1581920903955	36.241610738255	25	0.833407499827445	2	4	2	NaN	1	4	0.080651200461123	0	1	NaN	326	6	11	1	120	220	320	NaN	520	0.61121457349509	1	1	NaN	4323165.3781858	NaN	4323166.3616219	4323166.87812473
47	20	1	0	90	36.1581920903955	36.241610738255	10	0.333362999930978	2	6	3	NaN	1	4	0.080651200461123	0	1	NaN	327	6	12	1	120	220	320	NaN	520	0.189450873062015	1	1	NaN	4323168.3117912	NaN	4323169.2952154	4323169.81177073
47	20	1	0	90	36.1581920903955	36.241610738255	24	0.800071199834347	2	5	2	NaN	1	4	0.080651200461123	0	1	NaN	328	6	13	1	120	220	320	NaN	520	0.24116862565279	1	1	NaN	4323170.8120501	NaN	4323171.7954533	4323172.31202097
47	20	1	0	90	36.1581920903955	36.241610738255	10	0.333362999930978	2	11	6	NaN	2	5	0.080651200461123	0	1	NaN	329	6	14	1	120	220	320	NaN	520	0.178797477856278	1	0	NaN	4323173.3623136	NaN	4323174.3456775	4323174.86224422
47	20	1	0	90	36.1581920903955	36.241610738255	13	0.433371899910271	2	3	3	NaN	1	3	0.080651200461123	0	1	NaN	330	6	15	1	120	220	320	NaN	520	0.0866331728175282	1	1	NaN	4323175.8625454	NaN	4323176.8459427	4323177.36248903
47	20	1	0	90	36.1581920903955	36.241610738255	14	0.466708199903369	2	2	1	NaN	1	5	0.080651200461123	0	1	NaN	331	6	16	1	120	220	320	NaN	520	0.0545249432325363	1	1	NaN	4323178.2627896	NaN	4323179.2461721	4323179.76272766
47	20	1	0	90	36.1581920903955	36.241610738255	9	0.30002669993788	2	5	6	NaN	1	3	0.080651200461123	0	1	NaN	332	6	17	1	120	220	320	NaN	520	0.0476007778197527	1	1	NaN	4323180.6295385	NaN	4323181.6130948	4323182.12962912
47	20	1	0	90	36.1581920903955	36.241610738255	14	0.466708199903369	2	2	5	NaN	1	4	0.080651200461123	0	1	NaN	333	6	18	1	120	220	320	NaN	520	0.0885383253917098	1	1	NaN	4323182.9965971	NaN	4323183.9799829	4323184.49651957
47	20	1	0	90	36.1581920903955	36.241610738255	10	0.333362999930978	2	7	3	NaN	2	3	0.080651200461123	0	1	NaN	334	6	19	1	120	220	320	NaN	520	0.152216743677855	1	0	NaN	4323185.3967181	NaN	4323186.3802237	4323186.89676146
47	20	1	0	90	36.1581920903955	36.241610738255	15	0.500044499896467	2	6	6	NaN	1	4	0.080651200461123	0	1	NaN	335	6	20	1	120	220	320	NaN	520	0.0973437735810876	1	1	NaN	4323187.9635886	NaN	4323188.9471331	4323189.46367983
47	20	1	0	90	36.1581920903955	36.241610738255	25	0.833407499827445	2	9	1	NaN	2	4	0.080651200461123	0	1	NaN	336	6	21	1	120	220	320	NaN	520	0.104542625136673	1	0	NaN	4323190.3806372	NaN	4323191.3640335	4323191.88058207
47	20	1	0	90	36.1581920903955	36.241610738255	6	0.200017799958587	2	9	4	NaN	2	4	0.080651200461123	0	1	NaN	337	6	22	1	120	220	320	NaN	520	0.0316402250900865	2	1	NaN	4323192.797565	NaN	4323193.780937	4323194.29750917
47	20	1	0	90	36.1581920903955	36.241610738255	18	0.60005339987576	2	10	4	NaN	2	4	0.080651200461123	0	1	NaN	338	6	23	1	120	220	320	NaN	520	0.201634121127427	2	1	NaN	4323195.1477927	NaN	4323196.1311686	4323196.64770808
47	20	1	0	90	36.1581920903955	36.241610738255	12	0.400035599917173	2	3	5	NaN	1	3	0.080651200461123	0	1	NaN	339	6	24	1	120	220	320	NaN	520	0.0845842733979225	1	1	NaN	4323197.6646815	NaN	4323198.6480815	4323199.16462823
47	20	1	0	90	36.1581920903955	36.241610738255	24	0.800071199834347	2	8	2	NaN	2	4	0.080651200461123	0	1	NaN	340	6	25	1	120	220	320	NaN	520	0.140528772957623	2	1	NaN	4323200.0649151	NaN	4323201.0483166	4323201.56485963
47	20	1	0	90	36.1581920903955	36.241610738255	15	0.500044499896467	2	3	6	NaN	1	5	0.080651200461123	0	1	NaN	341	6	26	1	120	220	320	NaN	520	0.0980773260816932	1	1	NaN	4323202.5151933	NaN	4323203.4985631	4323204.01511067
47	20	1	0	90	36.1581920903955	36.241610738255	0	0	1	11	5	NaN	2	4	0.080651200461123	0	1	NaN	342	6	27	1	110	210	310	NaN	510	0.025139725767076	2	1	NaN	4323204.9320629	NaN	4323205.9154611	4323206.43201287
47	20	1	0	90	36.1581920903955	36.241610738255	19	0.633389699868858	2	3	6	NaN	1	3	0.080651200461123	0	1	NaN	343	6	28	1	120	220	320	NaN	520	0.171474573202431	1	1	NaN	4323207.2656518	NaN	4323208.2490221	4323208.76556623
47	20	1	0	90	36.1581920903955	36.241610738255	15	0.500044499896467	2	4	3	NaN	1	5	0.080651200461123	0	1	NaN	344	6	29	1	120	220	320	NaN	520	0.0320381736382842	2	0	NaN	4323209.7492031	NaN	4323210.7325987	4323211.24914283
47	20	1	0	90	36.1581920903955	36.241610738255	23	0.766734899841249	2	3	1	NaN	1	4	0.080651200461123	0	1	NaN	345	6	30	1	120	220	320	NaN	520	0.0336595252156258	2	0	NaN	4323212.0994212	NaN	4323213.0828322	4323213.59938307
47	20	1	0	90	36.1581920903955	36.241610738255	0	0	1	1	4	NaN	1	4	0.080651200461123	0	1	NaN	346	6	31	1	110	210	310	NaN	510	0.0835389737039804	1	1	NaN	4323214.4496638	NaN	4323215.4330647	4323215.94961133
47	20	1	0	90	36.1581920903955	36.241610738255	18	0.60005339987576	2	8	1	NaN	2	4	0.080651200461123	0	1	NaN	347	6	32	1	120	220	320	NaN	520	0.195792025886476	2	1	NaN	4323216.8331029	NaN	4323217.8166001	4323218.33318437
47	20	1	0	90	36.1581920903955	36.241610738255	25	0.833407499827445	2	8	3	NaN	2	3	0.080651200461123	0	1	NaN	348	6	33	1	120	220	320	NaN	520	0.143688124604523	2	1	NaN	4323219.3333485	NaN	4323220.3168726	4323220.83342557
47	20	1	0	90	36.1581920903955	36.241610738255	12	0.400035599917173	2	5	4	NaN	1	4	0.080651200461123	0	1	NaN	349	6	34	1	120	220	320	NaN	520	0.141718225553632	2	0	NaN	4323221.7836485	NaN	4323222.767113	4323223.28366297
47	20	1	0	90	36.1581920903955	36.241610738255	14	0.466708199903369	2	9	2	NaN	2	3	0.080651200461123	0	1	NaN	350	6	35	1	120	220	320	NaN	520	0.267658673226833	2	1	NaN	4323224.2338138	NaN	4323225.217341	4323225.73389643
47	20	1	0	90	36.1581920903955	36.241610738255	21	0.700062299855053	2	4	5	NaN	1	4	0.080651200461123	0	1	NaN	351	6	36	1	120	220	320	NaN	520	0.0103905769065022	2	0	NaN	4323226.8174268	NaN	4323227.8009405	4323228.31748782
47	20	1	0	90	36.1581920903955	36.241610738255	8	0.266690399944782	2	8	4	NaN	2	5	0.080651200461123	0	1	NaN	352	6	37	1	120	220	320	NaN	520	0.0628360733389854	2	1	NaN	4323229.1344342	NaN	4323230.1178721	4323230.63437813
47	20	1	0	90	36.1581920903955	36.241610738255	22	0.733398599848151	2	9	6	NaN	2	5	0.080651200461123	0	1	NaN	353	6	38	1	120	220	320	NaN	520	0.0237458730116487	2	1	NaN	4323231.5014048	NaN	4323232.4847385	4323233.00128233
47	20	1	0	90	36.1581920903955	36.241610738255	12	0.400035599917173	2	8	5	NaN	2	4	0.080651200461123	0	1	NaN	354	6	39	1	120	220	320	NaN	520	0.0104403207078576	2	1	NaN	4323233.8347658	NaN	4323234.818322	4323235.33483868
47	20	1	0	90	36.1581920903955	36.241610738255	20	0.666725999861956	2	5	5	NaN	1	3	0.080651200461123	0	1	NaN	355	6	40	1	120	220	320	NaN	520	0.125450025312603	1	1	NaN	4323236.1518103	NaN	4323237.13519	4323237.65174107
47	20	1	0	90	36.1581920903955	36.241610738255	20	0.666725999861956	2	7	1	NaN	2	5	0.080651200461123	0	1	NaN	356	6	41	1	120	220	320	NaN	520	0.0104119731113315	1	0	NaN	4323238.6020153	NaN	4323239.5854193	4323240.10197613
47	20	1	0	90	36.1581920903955	36.241610738255	8	0.266690399944782	2	12	5	NaN	2	3	0.080651200461123	0	1	NaN	357	6	42	1	120	220	320	NaN	520	0.0375769734382629	2	1	NaN	4323240.9355825	NaN	4323241.9189787	4323242.43554093
47	20	1	0	90	36.1581920903955	36.241610738255	9	0.30002669993788	2	11	6	NaN	2	5	0.080651200461123	0	1	NaN	358	6	43	1	120	220	320	NaN	520	0.0103923249989748	2	1	NaN	4323243.2858318	NaN	4323244.2692313	4323244.78577178
47	20	1	0	90	36.1581920903955	36.241610738255	25	0.833407499827445	2	3	3	NaN	1	4	0.080651200461123	0	1	NaN	359	6	44	1	120	220	320	NaN	520	0.113233934156597	2	0	NaN	4323245.8359604	NaN	4323246.8194788	4323247.33601937
47	20	1	0	90	36.1581920903955	36.241610738255	10	0.333362999930978	2	1	6	NaN	1	5	0.080651200461123	0	1	NaN	360	6	45	1	120	220	320	NaN	520	0.0875462731346488	2	0	NaN	4323248.2696415	NaN	4323249.2530625	4323249.76959163
47	20	1	0	90	36.1581920903955	36.241610738255	17	0.566717099882662	2	1	3	NaN	1	5	0.080651200461123	0	1	NaN	361	6	46	1	120	220	320	NaN	520	0.121625173836946	2	0	NaN	4323250.8197636	NaN	4323251.8032927	4323252.31984793
47	20	1	0	90	36.1581920903955	36.241610738255	14	0.466708199903369	2	8	4	NaN	2	4	0.080651200461123	0	1	NaN	362	6	47	1	120	220	320	NaN	520	0.0104153733700514	2	1	NaN	4323253.403362	NaN	4323254.3868862	4323254.90343113
47	20	1	0	90	36.1581920903955	36.241610738255	7	0.233354099951684	2	8	4	NaN	2	5	0.080651200461123	0	1	NaN	363	6	48	1	120	220	320	NaN	520	0.116454172879457	2	1	NaN	4323256.1370831	NaN	4323257.1204519	4323257.63702493
47	20	1	0	90	36.1581920903955	36.241610738255	13	0.433371899910271	2	9	1	NaN	2	5	0.080651200461123	0	1	NaN	364	6	49	1	120	220	320	NaN	520	0.0585327725857496	2	1	NaN	4323258.5707061	NaN	4323259.5540622	4323260.07060083
47	20	1	0	90	36.1581920903955	36.241610738255	13	0.433371899910271	2	4	6	NaN	1	5	0.080651200461123	0	1	NaN	365	6	50	1	120	220	320	NaN	520	0.0104183731600642	1	1	NaN	4323260.9375505	NaN	4323261.9209399	4323262.43749583
47	20	1	0	90	36.1581920903955	36.241610738255	20	0.666725999861956	2	10	3	NaN	2	4	0.080651200461123	0	1	NaN	366	6	51	1	120	220	320	NaN	520	0.23083227314055	1	0	NaN	4323263.2544429	NaN	4323264.2378472	4323264.75439623
47	20	1	0	90	36.1581920903955	36.241610738255	22	0.733398599848151	2	5	4	NaN	1	3	0.080651200461123	0	1	NaN	367	6	52	1	120	220	320	NaN	520	0.129100625403225	2	0	NaN	4323265.7879582	NaN	4323266.7714238	4323267.28798537
47	20	1	0	90	36.1581920903955	36.241610738255	11	0.366699299924076	2	6	3	NaN	1	3	0.080651200461123	0	1	NaN	368	6	53	1	120	220	320	NaN	520	0.215228873305023	1	1	NaN	4323268.238271	NaN	4323269.2216758	4323269.73821343
47	20	1	0	90	36.1581920903955	36.241610738255	14	0.466708199903369	2	3	6	NaN	1	3	0.080651200461123	0	1	NaN	369	6	54	1	120	220	320	NaN	520	0.209730373695493	1	1	NaN	4323270.7718499	NaN	4323271.7552693	4323272.27179463
47	20	1	0	90	36.1581920903955	36.241610738255	17	0.566717099882662	2	4	3	NaN	1	3	0.080651200461123	0	1	NaN	370	6	55	1	120	220	320	NaN	520	0.144804873503745	1	1	NaN	4323273.3887465	NaN	4323274.3721772	4323274.88871863
47	20	1	0	90	36.1581920903955	36.241610738255	25	0.833407499827445	2	8	4	NaN	2	5	0.080651200461123	0	1	NaN	371	6	56	1	120	220	320	NaN	520	0.0104015255346894	2	1	NaN	4323275.8556746	NaN	4323276.8390876	4323277.35564007
47	20	1	0	90	36.1581920903955	36.241610738255	9	0.30002669993788	2	3	3	NaN	1	4	0.080651200461123	0	1	NaN	372	6	57	1	120	220	320	NaN	520	0.129027625545859	1	1	NaN	4323278.1725914	NaN	4323279.1559847	4323279.67252607
47	20	1	0	90	36.1581920903955	36.241610738255	17	0.566717099882662	2	4	3	NaN	1	4	0.080651200461123	0	1	NaN	373	6	58	1	120	220	320	NaN	520	0.110553073696792	1	1	NaN	4323280.6228152	NaN	4323281.6062184	4323282.12277103
47	20	1	0	90	36.1581920903955	36.241610738255	16	0.533380799889565	2	6	1	NaN	1	3	0.080651200461123	0	1	NaN	374	6	59	1	120	220	320	NaN	520	0.0616947915405035	1	1	NaN	4323283.0397211	NaN	4323284.0231205	4323284.53967931
47	20	1	0	90	36.1581920903955	36.241610738255	10	0.333362999930978	2	11	6	NaN	2	5	0.080651200461123	0	1	NaN	375	6	60	1	120	220	320	NaN	520	0.23058302514255	2	1	NaN	4323285.4065125	NaN	4323286.3900596	4323286.90657587
47	20	1	0	90	36.1581920903955	36.241610738255	12	0.400035599917173	2	7	3	NaN	2	5	0.080651200461123	0	1	NaN	376	6	61	1	120	220	320	NaN	520	0.0103929257020354	2	1	NaN	4323288.3402222	NaN	4323289.3236413	4323289.84019057
47	20	1	0	90	36.1581920903955	36.241610738255	19	0.633389699868858	2	6	3	NaN	1	4	0.080651200461123	0	1	NaN	377	6	62	1	120	220	320	NaN	520	0.415307621471584	2	0	NaN	4323290.9737068	NaN	4323291.9571289	4323292.47378168
47	20	1	0	90	36.1581920903955	36.241610738255	9	0.30002669993788	2	10	6	NaN	2	4	0.080651200461123	0	1	NaN	378	6	63	1	120	220	320	NaN	520	0.0826442735269666	1	0	NaN	4323294.0907808	NaN	4323295.0741817	4323295.59076093
47	20	1	0	90	36.1581920903955	36.241610738255	16	0.533380799889565	2	5	2	NaN	1	4	0.080651200461123	0	1	NaN	379	7	1	1	120	220	320	NaN	520	0.25280137732625	2	0	NaN	4323379.8325506	NaN	4323380.8159505	4323381.33249882
47	20	1	0	90	36.1581920903955	36.241610738255	20	0.666725999861956	2	6	5	NaN	1	4	0.080651200461123	0	1	NaN	380	7	2	1	120	220	320	NaN	520	0.206019773148	1	1	NaN	4323382.3994642	NaN	4323383.3828604	4323383.89940823
47	20	1	0	90	36.1581920903955	36.241610738255	0	0	1	12	1	NaN	2	4	0.080651200461123	0	1	NaN	381	7	3	1	110	210	310	NaN	510	0.0569580253213644	2	1	NaN	4323384.9163929	NaN	4323385.8997739	4323386.41633527
47	20	1	0	90	36.1581920903955	36.241610738255	9	0.30002669993788	2	11	4	NaN	2	4	0.080651200461123	0	1	NaN	382	7	4	1	120	220	320	NaN	520	0.0104047730565071	2	1	NaN	4323387.2832796	NaN	4323388.2666703	4323388.78322033
47	20	1	0	90	36.1581920903955	36.241610738255	18	0.60005339987576	2	8	3	NaN	2	3	0.080651200461123	0	1	NaN	383	7	5	1	120	220	320	NaN	520	0.0103899259120226	1	0	NaN	4323389.600059	NaN	4323390.5835959	4323391.10012697
47	20	1	0	90	36.1581920903955	36.241610738255	13	0.433371899910271	2	5	5	NaN	1	5	0.080651200461123	0	1	NaN	384	7	6	1	120	220	320	NaN	520	0.0964581957086921	1	1	NaN	4323391.917093	NaN	4323392.9004613	4323393.4170247
47	20	1	0	90	36.1581920903955	36.241610738255	10	0.333362999930978	2	7	5	NaN	2	3	0.080651200461123	0	1	NaN	385	7	7	1	120	220	320	NaN	520	0.0104110734537244	2	1	NaN	4323394.3171768	NaN	4323395.3007005	4323395.81724863
47	20	1	0	90	36.1581920903955	36.241610738255	19	0.633389699868858	2	6	6	NaN	1	5	0.080651200461123	0	1	NaN	386	7	8	1	120	220	320	NaN	520	0.0986518254503608	1	1	NaN	4323396.6508535	NaN	4323397.6342537	4323398.15081477
47	20	1	0	90	36.1581920903955	36.241610738255	12	0.400035599917173	2	10	6	NaN	2	3	0.080651200461123	0	1	NaN	387	7	9	1	120	220	320	NaN	520	0.0104088736698031	1	0	NaN	4323399.0511805	NaN	4323400.0345	4323400.55105093
47	20	1	0	90	36.1581920903955	36.241610738255	12	0.400035599917173	2	11	4	NaN	2	4	0.080651200461123	0	1	NaN	388	7	10	1	120	220	320	NaN	520	0.0104216206818819	2	1	NaN	4323401.4346962	NaN	4323402.4180704	4323402.93460798
47	20	1	0	90	36.1581920903955	36.241610738255	21	0.700062299855053	2	11	2	NaN	2	5	0.080651200461123	0	1	NaN	389	7	11	1	120	220	320	NaN	520	0.0805032728239894	2	1	NaN	4323403.8848722	NaN	4323404.8682975	4323405.38485083
47	20	1	0	90	36.1581920903955	36.241610738255	9	0.30002669993788	2	12	1	NaN	2	3	0.080651200461123	0	1	NaN	390	7	12	1	120	220	320	NaN	520	0.0104132732376456	2	1	NaN	4323406.2851467	NaN	4323407.2685409	4323407.78509583
47	20	1	0	90	36.1581920903955	36.241610738255	19	0.633389699868858	2	1	4	NaN	1	4	0.080651200461123	0	1	NaN	391	7	13	1	120	220	320	NaN	520	0.0104196732863784	1	1	NaN	4323408.6019244	NaN	4323409.5854362	4323410.10199003
47	20	1	0	90	36.1581920903955	36.241610738255	18	0.60005339987576	2	4	2	NaN	1	5	0.080651200461123	0	1	NaN	392	7	14	1	120	220	320	NaN	520	0.206539873033762	1	1	NaN	4323410.91893	NaN	4323411.9023252	4323412.41887783
47	20	1	0	90	36.1581920903955	36.241610738255	7	0.233354099951684	2	7	2	NaN	2	5	0.080651200461123	0	1	NaN	393	7	15	1	120	220	320	NaN	520	0.0814858255907893	2	1	NaN	4323413.4358582	NaN	4323414.419241	4323414.93579527
47	20	1	0	90	36.1581920903955	36.241610738255	6	0.200017799958587	2	3	2	NaN	1	5	0.080651200461123	0	1	NaN	394	7	16	1	120	220	320	NaN	520	0.0104083735495806	2	0	NaN	4323415.8360726	NaN	4323416.8194722	4323417.33602903
47	20	1	0	90	36.1581920903955	36.241610738255	23	0.766734899841249	2	2	4	NaN	1	3	0.080651200461123	0	1	NaN	395	7	17	1	120	220	320	NaN	520	0.348199225030839	1	1	NaN	4323418.1696394	NaN	4323419.1530444	4323419.66960367
47	20	1	0	90	36.1581920903955	36.241610738255	0	0	1	5	5	NaN	1	4	0.080651200461123	0	1	NaN	396	7	18	1	110	210	310	NaN	510	0.153838225640357	1	1	NaN	4323420.8197965	NaN	4323421.803296	4323422.31985457
47	20	1	0	90	36.1581920903955	36.241610738255	6	0.200017799958587	2	11	1	NaN	2	4	0.080651200461123	0	1	NaN	397	7	19	1	120	220	320	NaN	520	0.0946806250140071	2	1	NaN	4323423.2869114	NaN	4323424.2702148	4323424.78676417
47	20	1	0	90	36.1581920903955	36.241610738255	20	0.666725999861956	2	11	6	NaN	2	3	0.080651200461123	0	1	NaN	398	7	20	1	120	220	320	NaN	520	0.270399873144925	2	1	NaN	4323425.6870189	NaN	4323426.6704446	4323427.18699123
47	20	1	0	90	36.1581920903955	36.241610738255	9	0.30002669993788	2	12	6	NaN	2	5	0.080651200461123	0	1	NaN	399	7	21	1	120	220	320	NaN	520	0.0629357257857919	2	1	NaN	4323428.2705868	NaN	4323429.254075	4323429.77058227
47	20	1	0	90	36.1581920903955	36.241610738255	17	0.566717099882662	2	8	6	NaN	2	4	0.080651200461123	0	1	NaN	400	7	22	1	120	220	320	NaN	520	0.0960566215217113	2	1	NaN	4323430.6375249	NaN	4323431.6209663	4323432.13747138
47	20	1	0	90	36.1581920903955	36.241610738255	25	0.833407499827445	2	6	5	NaN	1	3	0.080651200461123	0	1	NaN	401	7	23	1	120	220	320	NaN	520	0.245768325403333	1	1	NaN	4323433.0878086	NaN	4323434.0711681	4323434.58772707
47	20	1	0	90	36.1581920903955	36.241610738255	24	0.800071199834347	2	3	1	NaN	1	4	0.080651200461123	0	1	NaN	402	7	24	1	120	220	320	NaN	520	0.110835025086999	2	0	NaN	4323435.6546957	NaN	4323436.638084	4323437.15464437
47	20	1	0	90	36.1581920903955	36.241610738255	23	0.766734899841249	2	10	6	NaN	2	3	0.080651200461123	0	1	NaN	403	7	25	1	120	220	320	NaN	520	0.205194468609989	2	1	NaN	4323438.0883335	NaN	4323439.0716744	4323439.58821193
47	20	1	0	90	36.1581920903955	36.241610738255	20	0.666725999861956	2	8	6	NaN	2	3	0.080651200461123	0	1	NaN	404	7	26	1	120	220	320	NaN	520	0.158564673736691	1	0	NaN	4323440.655153	NaN	4323441.6385874	4323442.15512343
47	20	1	0	90	36.1581920903955	36.241610738255	21	0.700062299855053	2	6	6	NaN	1	5	0.080651200461123	0	1	NaN	405	7	27	1	120	220	320	NaN	520	0.0991048729047179	2	0	NaN	4323443.1219649	NaN	4323444.1054807	4323444.62203793
47	20	1	0	90	36.1581920903955	36.241610738255	7	0.233354099951684	2	6	5	NaN	1	3	0.080651200461123	0	1	NaN	406	7	28	1	120	220	320	NaN	520	0.106505225412548	1	1	NaN	4323445.5389833	NaN	4323446.5223975	4323447.03894458
47	20	1	0	90	36.1581920903955	36.241610738255	8	0.266690399944782	2	7	3	NaN	2	3	0.080651200461123	0	1	NaN	407	7	29	1	120	220	320	NaN	520	0.113651973195374	2	1	NaN	4323447.9558095	NaN	4323448.9392878	4323449.45584033
47	20	1	0	90	36.1581920903955	36.241610738255	8	0.266690399944782	2	3	2	NaN	1	4	0.080651200461123	0	1	NaN	408	7	30	1	120	220	320	NaN	520	0.0481969732791185	1	1	NaN	4323450.3894634	NaN	4323451.3728663	4323451.88941623
47	20	1	0	90	36.1581920903955	36.241610738255	13	0.433371899910271	2	1	2	NaN	1	4	0.080651200461123	0	1	NaN	409	7	31	1	120	220	320	NaN	520	0.0104170730337501	2	0	NaN	4323452.7397137	NaN	4323453.7230967	4323454.23964333
47	20	1	0	90	36.1581920903955	36.241610738255	8	0.266690399944782	2	9	5	NaN	2	4	0.080651200461123	0	1	NaN	410	7	32	1	120	220	320	NaN	520	0.0104092732071877	2	1	NaN	4323455.0565878	NaN	4323456.0400046	4323456.55653783
47	20	1	0	90	36.1581920903955	36.241610738255	12	0.400035599917173	2	2	6	NaN	1	3	0.080651200461123	0	1	NaN	411	7	33	1	120	220	320	NaN	520	0.256218421272933	2	0	NaN	4323457.3733718	NaN	4323458.3568777	4323458.87343748
47	20	1	0	90	36.1581920903955	36.241610738255	11	0.366699299924076	2	3	6	NaN	1	3	0.080651200461123	0	1	NaN	412	7	34	1	120	220	320	NaN	520	0.0103923249989748	1	1	NaN	4323459.9404108	NaN	4323460.9238204	4323461.44036197
47	20	1	0	90	36.1581920903955	36.241610738255	17	0.566717099882662	2	6	6	NaN	1	5	0.080651200461123	0	1	NaN	413	7	35	1	120	220	320	NaN	520	0.0103146396577358	1	1	NaN	4323462.2573297	NaN	4323463.2406797	4323463.75725246
47	20	1	0	90	36.1581920903955	36.241610738255	19	0.633389699868858	2	7	4	NaN	2	3	0.080651200461123	0	1	NaN	414	7	36	1	120	220	320	NaN	520	0.327226725406945	2	1	NaN	4323464.574197	NaN	4323465.5575868	4323466.07414697
47	20	1	0	90	36.1581920903955	36.241610738255	7	0.233354099951684	2	4	3	NaN	1	4	0.080651200461123	0	1	NaN	415	7	37	1	120	220	320	NaN	520	0.0859230738133192	2	0	NaN	4323467.207803	NaN	4323468.1911857	4323468.70772753
47	20	1	0	90	36.1581920903955	36.241610738255	25	0.833407499827445	2	10	3	NaN	2	3	0.080651200461123	0	1	NaN	416	7	38	1	120	220	320	NaN	520	0.0935697257518768	2	1	NaN	4323469.6081096	NaN	4323470.5914274	4323471.10797477
47	20	1	0	90	36.1581920903955	36.241610738255	20	0.666725999861956	2	4	4	NaN	1	5	0.080651200461123	0	1	NaN	417	7	39	1	120	220	320	NaN	520	0.276933025568724	2	0	NaN	4323472.0250301	NaN	4323473.0083237	4323473.52487747
47	20	1	0	90	36.1581920903955	36.241610738255	16	0.533380799889565	2	3	6	NaN	1	5	0.080651200461123	0	1	NaN	418	7	40	1	120	220	320	NaN	520	0.172336773015559	2	0	NaN	4323474.625213	NaN	4323475.6085713	4323476.12512913
47	20	1	0	90	36.1581920903955	36.241610738255	19	0.633389699868858	2	2	4	NaN	1	4	0.080651200461123	0	1	NaN	419	7	41	1	120	220	320	NaN	520	0.0103930253535509	2	0	NaN	4323477.1086711	NaN	4323478.0921549	4323478.60870637
47	20	1	0	90	36.1581920903955	36.241610738255	15	0.500044499896467	2	12	6	NaN	2	5	0.080651200461123	0	1	NaN	420	7	42	1	120	220	320	NaN	520	0.0104001257568598	2	1	NaN	4323479.4256431	NaN	4323480.4090558	4323480.92559367
47	20	1	0	90	36.1581920903955	36.241610738255	0	0	1	9	6	NaN	2	3	0.080651200461123	0	1	NaN	421	7	43	1	110	210	310	NaN	510	0.167305273003876	2	1	NaN	4323481.7424278	NaN	4323482.7259396	4323483.24248563
47	20	1	0	90	36.1581920903955	36.241610738255	17	0.566717099882662	2	12	5	NaN	2	3	0.080651200461123	0	1	NaN	422	7	44	1	120	220	320	NaN	520	0.0104122729972005	2	1	NaN	4323484.2259966	NaN	4323485.2095197	4323485.72606863
47	20	1	0	90	36.1581920903955	36.241610738255	24	0.800071199834347	2	10	2	NaN	2	5	0.080651200461123	0	1	NaN	423	7	45	1	120	220	320	NaN	520	0.117880472913384	2	1	NaN	4323486.5596862	NaN	4323487.5430758	4323488.05962583
47	20	1	0	90	36.1581920903955	36.241610738255	20	0.666725999861956	2	9	5	NaN	2	4	0.080651200461123	0	1	NaN	424	7	46	1	120	220	320	NaN	520	0.0104271210730076	1	0	NaN	4323488.9932936	NaN	4323489.9766631	4323490.49319678
47	20	1	0	90	36.1581920903955	36.241610738255	18	0.60005339987576	2	7	3	NaN	2	5	0.080651200461123	0	1	NaN	425	7	47	1	120	220	320	NaN	520	0.0104172732681036	2	1	NaN	4323491.3101472	NaN	4323492.2935636	4323492.81009333
47	20	1	0	90	36.1581920903955	36.241610738255	18	0.60005339987576	2	3	1	NaN	1	5	0.080651200461123	0	1	NaN	426	7	48	1	120	220	320	NaN	520	0.114518573507667	2	0	NaN	4323493.6270441	NaN	4323494.61046	4323495.12698393
47	20	1	0	90	36.1581920903955	36.241610738255	20	0.666725999861956	2	4	1	NaN	1	3	0.080651200461123	0	1	NaN	427	7	49	1	120	220	320	NaN	520	0.0696104252710938	2	0	NaN	4323496.1439235	NaN	4323497.1273461	4323497.64389867
47	20	1	0	90	36.1581920903955	36.241610738255	22	0.733398599848151	2	4	6	NaN	1	4	0.080651200461123	0	1	NaN	428	7	50	1	120	220	320	NaN	520	0.0141992727294564	2	0	NaN	4323498.5275957	NaN	4323499.5109231	4323500.02747163
47	20	1	0	90	36.1581920903955	36.241610738255	18	0.60005339987576	2	6	6	NaN	1	4	0.080651200461123	0	1	NaN	429	7	51	1	120	220	320	NaN	520	0.13675887323916	1	1	NaN	4323500.8610997	NaN	4323501.8444662	4323502.36102873
47	20	1	0	90	36.1581920903955	36.241610738255	10	0.333362999930978	2	2	6	NaN	1	4	0.080651200461123	0	1	NaN	430	7	52	1	120	220	320	NaN	520	0.143263473175466	2	0	NaN	4323503.494699	NaN	4323504.4780858	4323504.99462203
47	20	1	0	90	36.1581920903955	36.241610738255	6	0.200017799958587	2	8	5	NaN	2	3	0.080651200461123	0	1	NaN	431	7	53	1	120	220	320	NaN	520	0.0207160208374262	2	1	NaN	4323505.9449445	NaN	4323506.9283191	4323507.44486328
47	20	1	0	90	36.1581920903955	36.241610738255	17	0.566717099882662	2	9	6	NaN	2	4	0.080651200461123	0	1	NaN	432	7	54	1	120	220	320	NaN	520	0.223442072980106	1	0	NaN	4323508.278503	NaN	4323509.2618777	4323509.77842693
47	20	1	0	90	36.1581920903955	36.241610738255	19	0.633389699868858	2	8	6	NaN	2	3	0.080651200461123	0	1	NaN	433	7	55	1	120	220	320	NaN	520	0.0104088727384806	2	1	NaN	4323510.812071	NaN	4323511.7954679	4323512.31200263
47	20	1	0	90	36.1581920903955	36.241610738255	17	0.566717099882662	2	12	3	NaN	2	3	0.080651200461123	0	1	NaN	434	7	56	1	120	220	320	NaN	520	0.154759573750198	2	1	NaN	4323513.3788704	NaN	4323514.3623818	4323514.87892103
47	20	1	0	90	36.1581920903955	36.241610738255	16	0.533380799889565	2	9	4	NaN	2	3	0.080651200461123	0	1	NaN	435	7	57	1	120	220	320	NaN	520	0.175674673169851	2	1	NaN	4323515.8458905	NaN	4323516.82929	4323517.34583233
47	20	1	0	90	36.1581920903955	36.241610738255	14	0.466708199903369	2	10	3	NaN	2	5	0.080651200461123	0	1	NaN	436	7	58	1	120	220	320	NaN	520	0.0104132732376456	2	1	NaN	4323518.329536	NaN	4323519.3128647	4323519.82941763
47	20	1	0	90	36.1581920903955	36.241610738255	18	0.60005339987576	2	9	2	NaN	2	4	0.080651200461123	0	1	NaN	437	7	59	1	120	220	320	NaN	520	0.0104154730215669	2	1	NaN	4323520.6630248	NaN	4323521.6464304	4323522.16297923
47	20	1	0	90	36.1581920903955	36.241610738255	23	0.766734899841249	2	12	3	NaN	2	5	0.080651200461123	0	1	NaN	438	7	60	1	120	220	320	NaN	520	0.289829473942518	2	1	NaN	4323522.9799226	NaN	4323523.9633706	4323524.47987233
47	20	1	0	90	36.1581920903955	36.241610738255	6	0.200017799958587	2	1	1	NaN	1	5	0.080651200461123	0	1	NaN	439	7	61	1	120	220	320	NaN	520	0.145711691118777	2	0	NaN	4323525.5801757	NaN	4323526.5635769	4323527.08013551
47	20	1	0	90	36.1581920903955	36.241610738255	12	0.400035599917173	2	9	2	NaN	2	3	0.080651200461123	0	1	NaN	440	7	62	1	120	220	320	NaN	520	0.158880273811519	2	1	NaN	4323528.0470823	NaN	4323529.0304583	4323529.54703363
47	20	1	0	90	36.1581920903955	36.241610738255	19	0.633389699868858	2	9	2	NaN	2	4	0.080651200461123	0	1	NaN	441	7	63	1	120	220	320	NaN	520	0.0103342337533832	2	1	NaN	4323530.513862	NaN	4323531.4973918	4323532.01394117
47	20	1	0	90	36.1581920903955	36.241610738255	23	0.766734899841249	2	10	2	NaN	2	4	0.080651200461123	0	1	NaN	442	8	1	1	120	220	320	NaN	520	0.16390822455287	1	0	NaN	4323559.0501238	NaN	4323560.0335226	4323560.55007418
47	20	1	0	90	36.1581920903955	36.241610738255	24	0.800071199834347	2	5	5	NaN	1	3	0.080651200461123	0	1	NaN	443	8	2	1	120	220	320	NaN	520	0.0103912251070142	1	1	NaN	4323561.5169076	NaN	4323562.5004269	4323563.01698388
47	20	1	0	90	36.1581920903955	36.241610738255	10	0.333362999930978	2	5	1	NaN	1	3	0.080651200461123	0	1	NaN	444	8	3	1	120	220	320	NaN	520	0.139871373772621	1	1	NaN	4323563.8340137	NaN	4323564.8173325	4323565.33387803
47	20	1	0	90	36.1581920903955	36.241610738255	22	0.733398599848151	2	12	6	NaN	2	5	0.080651200461123	0	1	NaN	445	8	4	1	120	220	320	NaN	520	0.161599525250494	2	1	NaN	4323566.2841573	NaN	4323567.2675641	4323567.78412127
47	20	1	0	90	36.1581920903955	36.241610738255	24	0.800071199834347	2	1	5	NaN	1	3	0.080651200461123	0	1	NaN	446	8	5	1	120	220	320	NaN	520	0.0860352767631412	2	0	NaN	4323568.767788	NaN	4323569.7511433	4323570.26769472
47	20	1	0	90	36.1581920903955	36.241610738255	7	0.233354099951684	2	9	2	NaN	2	5	0.080651200461123	0	1	NaN	447	8	6	1	120	220	320	NaN	520	0.0103473821654916	2	1	NaN	4323571.1679708	NaN	4323572.1513747	4323572.66792662
47	20	1	0	90	36.1581920903955	36.241610738255	24	0.800071199834347	2	12	4	NaN	2	4	0.080651200461123	0	1	NaN	448	8	7	1	120	220	320	NaN	520	0.0103938253596425	2	1	NaN	4323573.4847537	NaN	4323574.4682756	4323574.98481577
47	20	1	0	90	36.1581920903955	36.241610738255	18	0.60005339987576	2	1	1	NaN	1	5	0.080651200461123	0	1	NaN	449	8	8	1	120	220	320	NaN	520	0.0918683875352144	2	0	NaN	4323575.8017632	NaN	4323576.7851658	4323577.30172591
47	20	1	0	90	36.1581920903955	36.241610738255	25	0.833407499827445	2	9	6	NaN	2	4	0.080651200461123	0	1	NaN	450	8	9	1	120	220	320	NaN	520	0.0104138730093837	2	1	NaN	4323578.2018743	NaN	4323579.1854026	4323579.70194513
47	20	1	0	90	36.1581920903955	36.241610738255	14	0.466708199903369	2	5	2	NaN	1	4	0.080651200461123	0	1	NaN	451	8	10	1	120	220	320	NaN	520	0.0709039736539125	1	1	NaN	4323580.5189364	NaN	4323581.5021932	4323582.01884073
47	20	1	0	90	36.1581920903955	36.241610738255	13	0.433371899910271	2	4	5	NaN	1	4	0.080651200461123	0	1	NaN	452	8	11	1	120	220	320	NaN	520	0.191272643394768	2	0	NaN	4323582.902461	NaN	4323583.8858672	4323584.40241266
47	20	1	0	90	36.1581920903955	36.241610738255	18	0.60005339987576	2	12	2	NaN	2	5	0.080651200461123	0	1	NaN	453	8	12	1	120	220	320	NaN	520	0.434208572842181	2	1	NaN	4323585.4194032	NaN	4323586.4027853	4323586.91932493
47	20	1	0	90	36.1581920903955	36.241610738255	22	0.733398599848151	2	7	1	NaN	2	4	0.080651200461123	0	1	NaN	454	8	13	1	120	220	320	NaN	520	0.180429582484066	2	1	NaN	4323588.1696415	NaN	4323589.1530633	4323589.66959372
47	20	1	0	90	36.1581920903955	36.241610738255	0	0	1	3	3	NaN	1	4	0.080651200461123	0	1	NaN	455	8	14	1	110	210	310	NaN	510	1.1681363247335	2	0	NaN	4323590.6698931	NaN	4323591.6532986	4323592.16984547
47	20	1	0	90	36.1581920903955	36.241610738255	17	0.566717099882662	2	7	1	NaN	2	4	0.080651200461123	0	1	NaN	456	8	15	1	120	220	320	NaN	520	0.0104103740304708	2	1	NaN	4323594.6868306	NaN	4323595.6703709	4323596.18689943
47	20	1	0	90	36.1581920903955	36.241610738255	24	0.800071199834347	2	6	4	NaN	1	3	0.080651200461123	0	1	NaN	457	8	16	1	120	220	320	NaN	520	0.0653150733560324	1	1	NaN	4323597.0205206	NaN	4323598.0038978	4323598.52046323
47	20	1	0	90	36.1581920903955	36.241610738255	22	0.733398599848151	2	9	5	NaN	2	4	0.080651200461123	0	1	NaN	458	8	17	1	120	220	320	NaN	520	0.153646625578403	1	0	NaN	4323599.4040768	NaN	4323600.3874612	4323600.90403837
47	20	1	0	90	36.1581920903955	36.241610738255	0	0	1	10	5	NaN	2	4	0.080651200461123	0	1	NaN	459	8	18	1	110	210	310	NaN	510	0.0306941727176309	1	0	NaN	4323601.8709761	NaN	4323602.85439	4323603.37094083
