subjno	age	gender	isPractice	viewdist	CmToPixX	CmToPixY	SOA_frm	SOA_time	targNum	targID	targExample	targRace	targGender	firstTargPos	contrast	familiarity	curr_staircase	iStair	TrialNum	BlockNum	blktrl	sessionNum	TC_FIXATION	TC_RSVP_START	TC_RSVP_END	TC_BLANK	TC_RESPONSE_ONSET	RT2afc	resp_2afc	acc	RSVPOnsetVBL	RSVPOnsetTime	RSVPOffsetVBL	RSVPOffsetTime	startrt_2afc
62	18	0	0	90	36.1581920903955	36.241610738255	6	0.200015399940312	2	1	4	NaN	1	4	0.059286764476989	1	1	NaN	1	1	1	1	121	221	321	NaN	521	1.17023228574544	2	0	NaN	3371775.5406044	NaN	3371776.5238668	3371777.05699421
62	18	0	0	90	36.1581920903955	36.241610738255	14	0.466702599860728	2	1	2	NaN	1	5	0.059286764476989	1	1	NaN	2	1	2	1	121	221	321	NaN	521	0.335819728206843	1	1	NaN	3371779.1909449	NaN	3371780.1742547	3371780.70735497
62	18	0	0	90	36.1581920903955	36.241610738255	19	0.633382099810988	2	4	2	NaN	1	5	0.059286764476989	1	1	NaN	3	1	3	1	121	221	321	NaN	521	0.811994223389775	1	1	NaN	3371781.8743386	NaN	3371782.8577281	3371783.39094818
62	18	0	0	90	36.1581920903955	36.241610738255	15	0.50003849985078	2	3	3	NaN	1	4	0.059286764476989	1	1	NaN	4	1	4	1	121	221	321	NaN	521	0.0105260708369315	1	1	NaN	3371785.0245174	NaN	3371786.0080465	3371786.52461193
62	18	0	0	90	36.1581920903955	36.241610738255	21	0.700053899791092	2	3	3	NaN	1	4	0.059286764476989	1	1	NaN	5	1	5	1	121	221	321	NaN	521	1.82492257561535	1	1	NaN	3371787.3582174	NaN	3371788.3416457	3371788.85816102
62	18	0	0	90	36.1581920903955	36.241610738255	0	0	1	3	6	NaN	1	4	0.059286764476989	1	1	NaN	6	1	6	1	111	211	311	NaN	511	0.0104026710614562	1	1	NaN	3371791.5086062	NaN	3371792.4920069	3371793.00856263
62	18	0	0	90	36.1581920903955	36.241610738255	15	0.50003849985078	2	10	4	NaN	2	3	0.059286764476989	1	1	NaN	7	1	7	1	121	221	321	NaN	521	0.0366719234734774	2	1	NaN	3371793.8422028	NaN	3371794.8255773	3371795.34212888
62	18	0	0	90	36.1581920903955	36.241610738255	21	0.700053899791092	2	8	1	NaN	2	4	0.059286764476989	1	1	NaN	8	1	8	1	121	221	321	NaN	521	0.142402585595846	2	1	NaN	3371796.1924113	NaN	3371797.1757221	3371797.69236371
62	18	0	0	90	36.1581920903955	36.241610738255	15	0.50003849985078	2	5	4	NaN	1	5	0.059286764476989	1	1	NaN	9	1	9	1	121	221	321	NaN	521	0.0595462238416076	1	1	NaN	3371798.6592613	NaN	3371799.6427114	3371800.15927108
62	18	0	0	90	36.1581920903955	36.241610738255	23	0.766725699771196	2	1	3	NaN	1	4	0.059286764476989	1	1	NaN	10	1	10	1	121	221	321	NaN	521	0.371739671099931	2	0	NaN	3371801.0428766	NaN	3371802.0262889	3371802.54283483
62	18	0	0	90	36.1581920903955	36.241610738255	24	0.800061599761248	2	9	3	NaN	2	3	0.059286764476989	1	1	NaN	11	1	11	1	121	221	321	NaN	521	0.504250323399901	1	0	NaN	3371803.7264813	NaN	3371804.7098755	3371805.22643568
62	18	0	0	90	36.1581920903955	36.241610738255	8	0.266687199920416	2	11	6	NaN	2	4	0.059286764476989	1	1	NaN	12	1	12	1	121	221	321	NaN	521	0.415406371001154	2	1	NaN	3371806.5434198	NaN	3371807.5268216	3371808.04337493
62	18	0	0	90	36.1581920903955	36.241610738255	18	0.600046199820936	2	6	4	NaN	1	4	0.059286764476989	1	1	NaN	13	1	13	1	121	221	321	NaN	521	0.346179223619401	1	1	NaN	3371809.2770343	NaN	3371810.2604241	3371810.77698168
62	18	0	0	90	36.1581920903955	36.241610738255	9	0.300023099910468	2	11	6	NaN	2	4	0.059286764476989	1	1	NaN	14	1	14	1	121	221	321	NaN	521	0.390892318915576	2	1	NaN	3371811.9439477	NaN	3371812.9273536	3371813.44390898
62	18	0	0	90	36.1581920903955	36.241610738255	0	0	1	4	6	NaN	1	4	0.059286764476989	1	1	NaN	15	1	15	1	111	211	311	NaN	511	0.97888592351228	2	0	NaN	3371814.6442206	NaN	3371815.6276148	3371816.14416868
62	18	0	0	90	36.1581920903955	36.241610738255	22	0.733389799781144	2	4	3	NaN	1	4	0.059286764476989	1	1	NaN	16	1	16	1	121	221	321	NaN	521	1.3182518184185	1	1	NaN	3371817.9445227	NaN	3371818.9279348	3371819.44449108
62	18	0	0	90	36.1581920903955	36.241610738255	6	0.200015399940312	2	2	2	NaN	1	4	0.059286764476989	1	1	NaN	17	1	17	1	121	221	321	NaN	521	0.0104116713628173	1	1	NaN	3371821.6448965	NaN	3371822.6283066	3371823.14485853
62	18	0	0	90	36.1581920903955	36.241610738255	17	0.566710299830884	2	11	2	NaN	2	5	0.059286764476989	1	1	NaN	18	1	18	1	121	221	321	NaN	521	0.316489571239799	2	1	NaN	3371823.9784666	NaN	3371824.9619006	3371825.47841923
62	18	0	0	90	36.1581920903955	36.241610738255	0	0	1	10	2	NaN	2	5	0.059286764476989	1	1	NaN	19	1	19	1	111	211	311	NaN	511	0.202770223841071	2	1	NaN	3371826.6120608	NaN	3371827.5954614	3371828.11201498
62	18	0	0	90	36.1581920903955	36.241610738255	0	0	1	6	4	NaN	1	3	0.059286764476989	1	1	NaN	20	1	20	1	111	211	311	NaN	511	0.173569423612207	1	1	NaN	3371829.1456472	NaN	3371830.129034	3371830.64559728
62	18	0	0	90	36.1581920903955	36.241610738255	18	0.600046199820936	2	11	6	NaN	2	3	0.059286764476989	1	1	NaN	21	1	21	1	121	221	321	NaN	521	0.0104072708636522	2	1	NaN	3371831.6292344	NaN	3371832.6126139	3371833.12916593
62	18	0	0	90	36.1581920903955	36.241610738255	12	0.400030799880624	2	4	5	NaN	1	5	0.059286764476989	1	1	NaN	22	1	22	1	121	221	321	NaN	521	0.0103959236294031	1	1	NaN	3371833.9627884	NaN	3371834.9461778	3371835.46274068
62	18	0	0	90	36.1581920903955	36.241610738255	22	0.733389799781144	2	5	5	NaN	1	5	0.059286764476989	1	1	NaN	23	1	23	1	121	221	321	NaN	521	0.152310023549944	1	1	NaN	3371836.4463545	NaN	3371837.4297645	3371837.94631278
62	18	0	0	90	36.1581920903955	36.241610738255	23	0.766725699771196	2	7	6	NaN	2	3	0.059286764476989	1	1	NaN	24	1	24	1	121	221	321	NaN	521	0.357614670880139	2	1	NaN	3371838.9132709	NaN	3371839.8966962	3371840.41321803
62	18	0	0	90	36.1581920903955	36.241610738255	12	0.400030799880624	2	2	5	NaN	1	5	0.059286764476989	1	1	NaN	25	1	25	1	121	221	321	NaN	521	0.0579607710242271	1	1	NaN	3371841.5967436	NaN	3371842.5802717	3371843.09681933
62	18	0	0	90	36.1581920903955	36.241610738255	0	0	1	6	3	NaN	1	3	0.059286764476989	1	1	NaN	26	1	26	1	111	211	311	NaN	511	0.330573570914567	1	1	NaN	3371843.9803963	NaN	3371844.9638258	3371845.48038733
62	18	0	0	90	36.1581920903955	36.241610738255	9	0.300023099910468	2	2	1	NaN	1	4	0.059286764476989	1	1	NaN	27	1	27	1	121	221	321	NaN	521	1.54915112350136	1	1	NaN	3371846.7140623	NaN	3371847.6974402	3371848.21399268
62	18	0	0	90	36.1581920903955	36.241610738255	16	0.533374399840832	2	7	1	NaN	2	4	0.059286764476989	1	1	NaN	28	1	28	1	121	221	321	NaN	521	0.273822770919651	2	1	NaN	3371850.5809544	NaN	3371851.5644784	3371852.08103323
62	18	0	0	90	36.1581920903955	36.241610738255	20	0.66671799980104	2	11	4	NaN	2	3	0.059286764476989	1	1	NaN	29	1	29	1	121	221	321	NaN	521	0.481494723819196	2	1	NaN	3371853.1813434	NaN	3371854.1647473	3371854.68129588
62	18	0	0	90	36.1581920903955	36.241610738255	11	0.366694899890572	2	12	6	NaN	2	5	0.059286764476989	1	1	NaN	30	1	30	1	121	221	321	NaN	521	0.697190070990473	1	0	NaN	3371855.98161	NaN	3371856.9650096	3371857.48157073
62	18	0	0	90	36.1581920903955	36.241610738255	25	0.8333974997513	2	1	1	NaN	1	3	0.059286764476989	1	1	NaN	31	1	31	1	121	221	321	NaN	521	0.376349323894829	1	1	NaN	3371858.9985105	NaN	3371859.9819888	3371860.49852768
62	18	0	0	90	36.1581920903955	36.241610738255	13	0.433366699870676	2	12	1	NaN	2	3	0.059286764476989	1	1	NaN	32	1	32	1	121	221	321	NaN	521	0.156072370707989	2	1	NaN	3371861.6988369	NaN	3371862.6822273	3371863.19879553
62	18	0	0	90	36.1581920903955	36.241610738255	0	0	1	11	5	NaN	2	3	0.059286764476989	1	1	NaN	33	1	33	1	111	211	311	NaN	511	0.720836128108203	2	1	NaN	3371864.1824188	NaN	3371865.1658178	3371865.68237437
62	18	0	0	90	36.1581920903955	36.241610738255	17	0.566710299830884	2	8	1	NaN	2	5	0.059286764476989	1	1	NaN	34	1	34	1	121	221	321	NaN	521	0.0104356184601784	2	1	NaN	3371867.3327425	NaN	3371868.316127	3371868.83267278
62	18	0	0	90	36.1581920903955	36.241610738255	20	0.66671799980104	2	1	4	NaN	1	4	0.059286764476989	1	1	NaN	35	1	35	1	121	221	321	NaN	521	1.07687182351947	1	1	NaN	3371869.666298	NaN	3371870.6496851	3371871.16624268
62	18	0	0	90	36.1581920903955	36.241610738255	18	0.600046199820936	2	2	6	NaN	1	5	0.059286764476989	1	1	NaN	36	1	36	1	121	221	321	NaN	521	0.0103039424866438	1	1	NaN	3371873.0666443	NaN	3371874.0500223	3371874.56658146
62	18	0	0	90	36.1581920903955	36.241610738255	20	0.66671799980104	2	11	1	NaN	2	4	0.059286764476989	1	1	NaN	37	1	37	1	121	221	321	NaN	521	0.342955990694463	2	1	NaN	3371875.4001915	NaN	3371876.3835752	3371876.90014291
62	18	0	0	90	36.1581920903955	36.241610738255	23	0.766725699771196	2	7	1	NaN	2	5	0.059286764476989	1	1	NaN	38	1	38	1	121	221	321	NaN	521	1.29289137059823	1	0	NaN	3371878.0504454	NaN	3371879.0338517	3371879.55040313
62	18	0	0	90	36.1581920903955	36.241610738255	13	0.433366699870676	2	7	2	NaN	2	5	0.059286764476989	1	1	NaN	39	1	39	1	121	221	321	NaN	521	0.316465923562646	2	1	NaN	3371881.6507957	NaN	3371882.6342141	3371883.15075758
62	18	0	0	90	36.1581920903955	36.241610738255	7	0.233351299930364	2	2	3	NaN	1	5	0.059286764476989	1	1	NaN	40	1	40	1	121	221	321	NaN	521	2.62656121887267	1	1	NaN	3371884.2843928	NaN	3371885.2677797	3371885.78434628
62	18	0	0	90	36.1581920903955	36.241610738255	21	0.700053899791092	2	2	5	NaN	1	5	0.059286764476989	1	1	NaN	41	1	41	1	121	221	321	NaN	521	0.428625823464245	1	1	NaN	3371889.2182176	NaN	3371890.2016222	3371890.71816928
62	18	0	0	90	36.1581920903955	36.241610738255	19	0.633382099810988	2	3	5	NaN	1	3	0.059286764476989	1	1	NaN	42	1	42	1	121	221	321	NaN	521	0.494770490564406	1	1	NaN	3371891.9684867	NaN	3371892.9518821	3371893.46844141
62	18	0	0	90	36.1581920903955	36.241610738255	7	0.233351299930364	2	5	3	NaN	1	3	0.059286764476989	1	1	NaN	43	1	43	1	121	221	321	NaN	521	0.0103910234756768	1	1	NaN	3371894.7687933	NaN	3371895.7521646	3371896.26870388
62	18	0	0	90	36.1581920903955	36.241610738255	15	0.50003849985078	2	12	3	NaN	2	4	0.059286764476989	1	1	NaN	44	1	44	1	121	221	321	NaN	521	0.0104072708636522	2	1	NaN	3371897.1024175	NaN	3371898.0857276	3371898.60227103
62	18	0	0	90	36.1581920903955	36.241610738255	19	0.633382099810988	2	8	5	NaN	2	3	0.059286764476989	1	1	NaN	45	1	45	1	121	221	321	NaN	521	0.132117023225874	2	1	NaN	3371899.4190875	NaN	3371900.4026221	3371900.91916938
62	18	0	0	90	36.1581920903955	36.241610738255	15	0.50003849985078	2	11	3	NaN	2	4	0.059286764476989	1	1	NaN	46	1	46	1	121	221	321	NaN	521	0.0104279187507927	2	1	NaN	3371901.8694715	NaN	3371902.8528551	3371903.36940248
62	18	0	0	90	36.1581920903955	36.241610738255	17	0.566710299830884	2	3	5	NaN	1	5	0.059286764476989	1	1	NaN	47	1	47	1	121	221	321	NaN	521	0.133006823714823	1	1	NaN	3371904.1864169	NaN	3371905.1697592	3371905.68630198
62	18	0	0	90	36.1581920903955	36.241610738255	14	0.466702599860728	2	7	2	NaN	2	4	0.059286764476989	1	1	NaN	48	1	48	1	121	221	321	NaN	521	0.530340823810548	2	1	NaN	3371906.6365834	NaN	3371907.6199846	3371908.13654218
62	18	0	0	90	36.1581920903955	36.241610738255	11	0.366694899890572	2	1	3	NaN	1	5	0.059286764476989	1	1	NaN	49	1	49	1	121	221	321	NaN	521	0.448005823418498	2	0	NaN	3371909.4868726	NaN	3371910.470305	3371910.98682808
62	18	0	0	90	36.1581920903955	36.241610738255	25	0.8333974997513	2	8	3	NaN	2	3	0.059286764476989	1	1	NaN	50	1	50	1	121	221	321	NaN	521	0.865026819054037	2	1	NaN	3371912.2538114	NaN	3371913.2372089	3371913.75375638
62	18	0	0	90	36.1581920903955	36.241610738255	22	0.733389799781144	2	11	6	NaN	2	3	0.059286764476989	1	1	NaN	51	1	51	1	121	221	321	NaN	521	0.361546323634684	2	1	NaN	3371915.4374589	NaN	3371916.4208747	3371916.93741268
62	18	0	0	90	36.1581920903955	36.241610738255	21	0.700053899791092	2	9	3	NaN	2	4	0.059286764476989	1	1	NaN	52	1	52	1	121	221	321	NaN	521	0.337796919047832	2	1	NaN	3371918.2210422	NaN	3371919.2044593	3371919.72101968
62	18	0	0	90	36.1581920903955	36.241610738255	12	0.400030799880624	2	12	6	NaN	2	5	0.059286764476989	1	1	NaN	53	1	53	1	121	221	321	NaN	521	0.0102714425884187	2	1	NaN	3371920.8713136	NaN	3371921.8547293	3371922.37127536
62	18	0	0	90	36.1581920903955	36.241610738255	13	0.433366699870676	2	12	1	NaN	2	3	0.059286764476989	1	1	NaN	54	1	54	1	121	221	321	NaN	521	0.0104062706232071	1	0	NaN	3371923.1880977	NaN	3371924.1716071	3371924.68817943
62	18	0	0	90	36.1581920903955	36.241610738255	23	0.766725699771196	2	5	2	NaN	1	5	0.059286764476989	1	1	NaN	55	1	55	1	121	221	321	NaN	521	0.0618643239140511	2	0	NaN	3371925.5051175	NaN	3371926.4885117	3371927.00506888
62	18	0	0	90	36.1581920903955	36.241610738255	15	0.50003849985078	2	10	6	NaN	2	5	0.059286764476989	1	1	NaN	56	1	56	1	121	221	321	NaN	521	0.406610970851034	2	1	NaN	3371927.8886698	NaN	3371928.8720602	3371929.38863523
62	18	0	0	90	36.1581920903955	36.241610738255	13	0.433366699870676	2	3	5	NaN	1	5	0.059286764476989	1	1	NaN	57	1	57	1	121	221	321	NaN	521	0.825367123354226	2	0	NaN	3371930.6056163	NaN	3371931.5890145	3371932.10556808
62	18	0	0	90	36.1581920903955	36.241610738255	20	0.66671799980104	2	10	4	NaN	2	4	0.059286764476989	1	1	NaN	58	1	58	1	121	221	321	NaN	521	0.988118175417185	1	0	NaN	3371933.7392549	NaN	3371934.7226744	3371935.23921072
62	18	0	0	90	36.1581920903955	36.241610738255	18	0.600046199820936	2	3	5	NaN	1	3	0.059286764476989	1	1	NaN	59	1	59	1	121	221	321	NaN	521	0.591363723389804	1	1	NaN	3371937.0395836	NaN	3371938.0230225	3371938.53953408
62	18	0	0	90	36.1581920903955	36.241610738255	22	0.733389799781144	2	9	2	NaN	2	5	0.059286764476989	1	1	NaN	60	1	60	1	121	221	321	NaN	521	0.0104280188679695	1	0	NaN	3371939.9398582	NaN	3371940.9232607	3371941.43981468
62	18	0	0	90	36.1581920903955	36.241610738255	17	0.566710299830884	2	9	5	NaN	2	4	0.059286764476989	1	1	NaN	61	1	61	1	121	221	321	NaN	521	2.95755972387269	2	1	NaN	3371942.2734166	NaN	3371943.2568189	3371943.77337468
62	18	0	0	90	36.1581920903955	36.241610738255	20	0.66671799980104	2	7	6	NaN	2	5	0.059286764476989	1	1	NaN	62	1	62	1	121	221	321	NaN	521	0.338590123690665	2	1	NaN	3371947.5406155	NaN	3371948.5239993	3371949.04056758
62	18	0	0	90	36.1581920903955	36.241610738255	25	0.8333974997513	2	3	2	NaN	1	4	0.059286764476989	1	1	NaN	63	1	63	1	121	221	321	NaN	521	0.992040771059692	1	1	NaN	3371950.190867	NaN	3371951.1742677	3371951.69082193
62	18	0	0	90	36.1581920903955	36.241610738255	25	0.8333974997513	2	3	3	NaN	1	3	0.059286764476989	1	1	NaN	64	2	1	1	121	221	321	NaN	521	0.0104151754640043	1	1	NaN	3371960.2252261	NaN	3371961.2085867	3371961.72513692
62	18	0	0	90	36.1581920903955	36.241610738255	10	0.33335899990052	2	6	3	NaN	1	3	0.059286764476989	1	1	NaN	65	2	2	1	121	221	321	NaN	521	0.0167337185703218	1	1	NaN	3371962.5419891	NaN	3371963.5255105	3371964.04203348
62	18	0	0	90	36.1581920903955	36.241610738255	0	0	1	12	5	NaN	2	5	0.059286764476989	1	1	NaN	66	2	3	1	111	211	311	NaN	511	0.819652523379773	1	0	NaN	3371964.8756588	NaN	3371965.8590615	3371966.37560308
62	18	0	0	90	36.1581920903955	36.241610738255	9	0.300023099910468	2	5	2	NaN	1	3	0.059286764476989	1	1	NaN	67	2	4	1	121	221	321	NaN	521	0.55759367113933	1	1	NaN	3371968.009292	NaN	3371968.9926832	3371969.50924013
62	18	0	0	90	36.1581920903955	36.241610738255	24	0.800061599761248	2	8	2	NaN	2	5	0.059286764476989	1	1	NaN	68	2	5	1	121	221	321	NaN	521	0.610796870663762	2	1	NaN	3371970.8762917	NaN	3371971.859636	3371972.37618933
62	18	0	0	90	36.1581920903955	36.241610738255	19	0.633382099810988	2	11	1	NaN	2	4	0.059286764476989	1	1	NaN	69	2	6	1	121	221	321	NaN	521	0.309995642863214	2	1	NaN	3371973.7931952	NaN	3371974.7765964	3371975.29315026
62	18	0	0	90	36.1581920903955	36.241610738255	15	0.50003849985078	2	11	4	NaN	2	4	0.059286764476989	1	1	NaN	70	2	7	1	121	221	321	NaN	521	0.31737167108804	2	1	NaN	3371976.4101379	NaN	3371977.3935252	3371977.91006553
62	18	0	0	90	36.1581920903955	36.241610738255	10	0.33335899990052	2	11	2	NaN	2	3	0.059286764476989	1	1	NaN	71	2	8	1	121	221	321	NaN	521	0.731282613705844	2	1	NaN	3371979.0437032	NaN	3371980.0270934	3371980.54370269
62	18	0	0	90	36.1581920903955	36.241610738255	16	0.533374399840832	2	9	4	NaN	2	4	0.059286764476989	1	1	NaN	72	2	9	1	121	221	321	NaN	521	0.273881323169917	2	1	NaN	3371982.0773438	NaN	3371983.0607573	3371983.57729198
62	18	0	0	90	36.1581920903955	36.241610738255	9	0.300023099910468	2	1	4	NaN	1	3	0.059286764476989	1	1	NaN	73	2	10	1	121	221	321	NaN	521	0.137737418524921	1	1	NaN	3371984.677504	NaN	3371985.66099	3371986.17754188
62	18	0	0	90	36.1581920903955	36.241610738255	24	0.800061599761248	2	3	1	NaN	1	5	0.059286764476989	1	1	NaN	74	2	11	1	121	221	321	NaN	521	0.0103955236263573	1	1	NaN	3371987.1278295	NaN	3371988.1112267	3371988.62779028
62	18	0	0	90	36.1581920903955	36.241610738255	8	0.266687199920416	2	9	1	NaN	2	5	0.059286764476989	1	1	NaN	75	2	12	1	121	221	321	NaN	521	0.324318470899016	2	1	NaN	3371989.7947363	NaN	3371990.7780596	3371991.29471053
62	18	0	0	90	36.1581920903955	36.241610738255	14	0.466702599860728	2	3	2	NaN	1	4	0.059286764476989	1	1	NaN	76	2	13	1	121	221	321	NaN	521	0.298997623380274	1	1	NaN	3371992.4282368	NaN	3371993.4117509	3371993.92831148
62	18	0	0	90	36.1581920903955	36.241610738255	13	0.433366699870676	2	11	6	NaN	2	3	0.059286764476989	1	1	NaN	77	2	14	1	121	221	321	NaN	521	0.68191277096048	1	0	NaN	3371995.0453014	NaN	3371996.0287106	3371996.54522303
62	18	0	0	90	36.1581920903955	36.241610738255	9	0.300023099910468	2	3	4	NaN	1	4	0.059286764476989	1	1	NaN	78	2	15	1	121	221	321	NaN	521	0.353239723481238	1	1	NaN	3371998.0455631	NaN	3371999.0289768	3371999.54552398
62	18	0	0	90	36.1581920903955	36.241610738255	11	0.366694899890572	2	4	2	NaN	1	5	0.059286764476989	1	1	NaN	79	2	16	1	121	221	321	NaN	521	2.95685577113181	1	1	NaN	3372000.9624084	NaN	3372001.9459197	3372002.46247923
62	18	0	0	90	36.1581920903955	36.241610738255	12	0.400030799880624	2	3	5	NaN	1	3	0.059286764476989	1	1	NaN	80	2	17	1	121	221	321	NaN	521	0.458355542737991	2	0	NaN	3372006.4130376	NaN	3372007.3964697	3372007.91301416
62	18	0	0	90	36.1581920903955	36.241610738255	11	0.366694899890572	2	5	6	NaN	1	5	0.059286764476989	1	1	NaN	81	2	18	1	121	221	321	NaN	521	0.0104081709869206	1	1	NaN	3372009.1799528	NaN	3372010.1634319	3372010.67994953
62	18	0	0	90	36.1581920903955	36.241610738255	23	0.766725699771196	2	4	1	NaN	1	4	0.059286764476989	1	1	NaN	82	2	19	1	121	221	321	NaN	521	0.789813823532313	2	0	NaN	3372011.5135667	NaN	3372012.4969723	3372013.01351938
62	18	0	0	90	36.1581920903955	36.241610738255	19	0.633382099810988	2	6	4	NaN	1	5	0.059286764476989	1	1	NaN	83	2	20	1	121	221	321	NaN	521	1.97764197085053	1	1	NaN	3372014.6138547	NaN	3372015.5972637	3372016.11381903
62	18	0	0	90	36.1581920903955	36.241610738255	6	0.200015399940312	2	5	2	NaN	1	4	0.059286764476989	1	1	NaN	84	2	21	1	121	221	321	NaN	521	0.605460723396391	1	1	NaN	3372018.8975195	NaN	3372019.8810543	3372020.39757748
62	18	0	0	90	36.1581920903955	36.241610738255	24	0.800061599761248	2	12	3	NaN	2	4	0.059286764476989	1	1	NaN	85	2	22	1	121	221	321	NaN	521	0.600481775589287	1	0	NaN	3372021.8144639	NaN	3372022.7979638	3372023.31453412
62	18	0	0	90	36.1581920903955	36.241610738255	11	0.366694899890572	2	6	6	NaN	1	4	0.059286764476989	1	1	NaN	86	2	23	1	121	221	321	NaN	521	0.363492470700294	1	1	NaN	3372024.731527	NaN	3372025.7149307	3372026.23147903
62	18	0	0	90	36.1581920903955	36.241610738255	23	0.766725699771196	2	9	2	NaN	2	5	0.059286764476989	1	1	NaN	87	2	24	1	121	221	321	NaN	521	0.344552142545581	2	1	NaN	3372027.3984555	NaN	3372028.3818582	3372028.89841536
62	18	0	0	90	36.1581920903955	36.241610738255	16	0.533374399840832	2	10	5	NaN	2	3	0.059286764476989	1	1	NaN	88	2	25	1	121	221	321	NaN	521	0.582679770886898	2	1	NaN	3372030.0485958	NaN	3372031.032114	3372031.54866893
62	18	0	0	90	36.1581920903955	36.241610738255	6	0.200015399940312	2	6	3	NaN	1	3	0.059286764476989	1	1	NaN	89	2	26	1	121	221	321	NaN	521	0.338450770825148	1	1	NaN	3372032.949008	NaN	3372033.9323992	3372034.44895203
62	18	0	0	90	36.1581920903955	36.241610738255	10	0.33335899990052	2	8	5	NaN	2	4	0.059286764476989	1	1	NaN	90	2	27	1	121	221	321	NaN	521	0.010409623850137	2	1	NaN	3372035.5992662	NaN	3372036.5826719	3372037.09922178
62	18	0	0	90	36.1581920903955	36.241610738255	20	0.66671799980104	2	8	4	NaN	2	4	0.059286764476989	1	1	NaN	91	2	28	1	121	221	321	NaN	521	0.827056570909917	1	0	NaN	3372037.9161584	NaN	3372038.8995656	3372039.41611253
62	18	0	0	90	36.1581920903955	36.241610738255	17	0.566710299830884	2	7	3	NaN	2	3	0.059286764476989	1	1	NaN	92	2	29	1	121	221	321	NaN	521	0.0103965234011412	2	1	NaN	3372041.0497966	NaN	3372042.0331897	3372042.54975748
62	18	0	0	90	36.1581920903955	36.241610738255	8	0.266687199920416	2	5	1	NaN	1	5	0.059286764476989	1	1	NaN	93	2	30	1	121	221	321	NaN	521	0.0157619235105813	1	1	NaN	3372043.3833631	NaN	3372044.3667628	3372044.88331778
62	18	0	0	90	36.1581920903955	36.241610738255	24	0.800061599761248	2	6	3	NaN	1	4	0.059286764476989	1	1	NaN	94	2	31	1	121	221	321	NaN	521	0.370156923308969	1	1	NaN	3372045.7169007	NaN	3372046.7003213	3372047.21687888
62	18	0	0	90	36.1581920903955	36.241610738255	20	0.66671799980104	2	2	5	NaN	1	3	0.059286764476989	1	1	NaN	95	2	32	1	121	221	321	NaN	521	0.310651571024209	2	0	NaN	3372048.4004142	NaN	3372049.3839181	3372049.90047263
62	18	0	0	90	36.1581920903955	36.241610738255	8	0.266687199920416	2	9	5	NaN	2	3	0.059286764476989	1	1	NaN	96	2	33	1	121	221	321	NaN	521	0.341396818868816	1	0	NaN	3372051.0340992	NaN	3372052.0174977	3372052.53405938
62	18	0	0	90	36.1581920903955	36.241610738255	25	0.8333974997513	2	6	6	NaN	1	4	0.059286764476989	1	1	NaN	97	2	34	1	121	221	321	NaN	521	0.291195361409336	2	0	NaN	3372053.6843823	NaN	3372054.6677663	3372055.18431774
62	18	0	0	90	36.1581920903955	36.241610738255	25	0.8333974997513	2	11	2	NaN	2	4	0.059286764476989	1	1	NaN	98	2	35	1	121	221	321	NaN	521	0.0103544811718166	2	1	NaN	3372056.2845896	NaN	3372057.2680564	3372057.78458412
62	18	0	0	90	36.1581920903955	36.241610738255	11	0.366694899890572	2	10	1	NaN	2	5	0.059286764476989	1	1	NaN	99	2	36	1	121	221	321	NaN	521	1.94204707071185	2	1	NaN	3372058.6015301	NaN	3372059.584921	3372060.10147703
62	18	0	0	90	36.1581920903955	36.241610738255	10	0.33335899990052	2	6	4	NaN	1	3	0.059286764476989	1	1	NaN	100	2	37	1	121	221	321	NaN	521	0.0104062235914171	1	1	NaN	3372062.8519409	NaN	3372063.835342	3372064.35189318
62	18	0	0	90	36.1581920903955	36.241610738255	19	0.633382099810988	2	8	4	NaN	2	5	0.059286764476989	1	1	NaN	101	2	38	1	121	221	321	NaN	521	0.358215370681137	2	1	NaN	3372065.1688623	NaN	3372066.1521241	3372066.66878163
62	18	0	0	90	36.1581920903955	36.241610738255	11	0.366694899890572	2	11	1	NaN	2	4	0.059286764476989	1	1	NaN	102	2	39	1	121	221	321	NaN	521	0.0103945233859122	2	1	NaN	3372067.8357006	NaN	3372068.8191759	3372069.33571988
62	18	0	0	90	36.1581920903955	36.241610738255	20	0.66671799980104	2	1	6	NaN	1	3	0.059286764476989	1	1	NaN	103	2	40	1	121	221	321	NaN	521	0.0377631611190736	1	1	NaN	3372070.1693292	NaN	3372071.1527326	3372071.66927494
62	18	0	0	90	36.1581920903955	36.241610738255	14	0.466702599860728	2	4	6	NaN	1	5	0.059286764476989	1	1	NaN	104	2	41	1	121	221	321	NaN	521	0.159996218513697	1	1	NaN	3372072.5196346	NaN	3372073.5028817	3372074.01950408
62	18	0	0	90	36.1581920903955	36.241610738255	17	0.566710299830884	2	7	3	NaN	2	5	0.059286764476989	1	1	NaN	105	2	42	1	121	221	321	NaN	521	0.0104138711467385	2	1	NaN	3372074.9864627	NaN	3372075.9698624	3372076.48641463
62	18	0	0	90	36.1581920903955	36.241610738255	7	0.233351299930364	2	2	3	NaN	1	5	0.059286764476989	1	1	NaN	106	2	43	1	121	221	321	NaN	521	0.0103014381602407	2	0	NaN	3372077.3200559	NaN	3372078.3034577	3372078.81999066
62	18	0	0	90	36.1581920903955	36.241610738255	13	0.433366699870676	2	10	5	NaN	2	4	0.059286764476989	1	1	NaN	107	2	44	1	121	221	321	NaN	521	0.178308270871639	2	1	NaN	3372079.6368014	NaN	3372080.6203075	3372081.13687163
62	18	0	0	90	36.1581920903955	36.241610738255	14	0.466702599860728	2	12	1	NaN	2	3	0.059286764476989	1	1	NaN	108	2	45	1	121	221	321	NaN	521	0.0300933234393597	2	1	NaN	3372082.1371741	NaN	3372083.1205523	3372083.63712248
62	18	0	0	90	36.1581920903955	36.241610738255	23	0.766725699771196	2	12	6	NaN	2	4	0.059286764476989	1	1	NaN	109	2	46	1	121	221	321	NaN	521	0.184342971071601	2	1	NaN	3372084.4706069	NaN	3372085.4541364	3372085.97068003
62	18	0	0	90	36.1581920903955	36.241610738255	18	0.600046199820936	2	8	1	NaN	2	4	0.059286764476989	1	1	NaN	110	2	47	1	121	221	321	NaN	521	1.51602511899546	2	1	NaN	3372086.9709752	NaN	3372087.9543938	3372088.47092038
62	18	0	0	90	36.1581920903955	36.241610738255	11	0.366694899890572	2	10	4	NaN	2	3	0.059286764476989	1	1	NaN	111	2	48	1	121	221	321	NaN	521	0.930516170803457	1	0	NaN	3372090.804696	NaN	3372091.7880951	3372092.30463663
62	18	0	0	90	36.1581920903955	36.241610738255	17	0.566710299830884	2	4	4	NaN	1	5	0.059286764476989	1	1	NaN	112	2	49	1	121	221	321	NaN	521	0.8081562705338	2	0	NaN	3372094.0550138	NaN	3372095.0384099	3372095.55495813
62	18	0	0	90	36.1581920903955	36.241610738255	12	0.400030799880624	2	1	5	NaN	1	3	0.059286764476989	1	1	NaN	113	2	50	1	121	221	321	NaN	521	0.859162470791489	1	1	NaN	3372097.1718849	NaN	3372098.1553785	3372098.67192813
62	18	0	0	90	36.1581920903955	36.241610738255	17	0.566710299830884	2	1	5	NaN	1	4	0.059286764476989	1	1	NaN	114	2	51	1	121	221	321	NaN	521	1.61209092335775	2	0	NaN	3372100.3389568	NaN	3372101.3222146	3372101.83891558
62	18	0	0	90	36.1581920903955	36.241610738255	24	0.800061599761248	2	5	6	NaN	1	5	0.059286764476989	1	1	NaN	115	2	52	1	121	221	321	NaN	521	0.84662967082113	1	1	NaN	3372104.2725344	NaN	3372105.2560757	3372105.77263373
62	18	0	0	90	36.1581920903955	36.241610738255	7	0.233351299930364	2	6	5	NaN	1	5	0.059286764476989	1	1	NaN	116	2	53	1	121	221	321	NaN	521	0.607632723636925	1	1	NaN	3372107.4396629	NaN	3372108.4230547	3372108.93960978
62	18	0	0	90	36.1581920903955	36.241610738255	25	0.8333974997513	2	7	4	NaN	2	4	0.059286764476989	1	1	NaN	117	2	54	1	121	221	321	NaN	521	0.354964270722121	1	0	NaN	3372110.3566164	NaN	3372111.339996	3372111.85655783
62	18	0	0	90	36.1581920903955	36.241610738255	11	0.366694899890572	2	1	5	NaN	1	4	0.059286764476989	1	1	NaN	118	2	55	1	121	221	321	NaN	521	0.767722170799971	1	1	NaN	3372113.0236181	NaN	3372114.0069453	3372114.52348273
62	18	0	0	90	36.1581920903955	36.241610738255	21	0.700053899791092	2	1	3	NaN	1	3	0.059286764476989	1	1	NaN	119	2	56	1	121	221	321	NaN	521	0.396653142757714	2	0	NaN	3372116.0905083	NaN	3372117.073902	3372117.59046726
62	18	0	0	90	36.1581920903955	36.241610738255	20	0.66671799980104	2	9	3	NaN	2	3	0.059286764476989	1	1	NaN	120	2	57	1	121	221	321	NaN	521	1.58444207115099	2	1	NaN	3372118.7907695	NaN	3372119.7741619	3372120.29072143
62	18	0	0	90	36.1581920903955	36.241610738255	23	0.766725699771196	2	8	2	NaN	2	3	0.059286764476989	1	1	NaN	121	2	58	1	121	221	321	NaN	521	0.956447971053421	1	0	NaN	3372122.6910325	NaN	3372123.6745649	3372124.19110373
62	18	0	0	90	36.1581920903955	36.241610738255	17	0.566710299830884	2	6	1	NaN	1	3	0.059286764476989	1	1	NaN	122	2	59	1	121	221	321	NaN	521	0.641105823684484	1	1	NaN	3372125.9581677	NaN	3372126.9415309	3372127.45809828
62	18	0	0	90	36.1581920903955	36.241610738255	18	0.600046199820936	2	12	1	NaN	2	4	0.059286764476989	1	1	NaN	123	2	60	1	121	221	321	NaN	521	0.475135170854628	1	0	NaN	3372128.9084114	NaN	3372129.8918345	3372130.40838093
62	18	0	0	90	36.1581920903955	36.241610738255	23	0.766725699771196	2	10	6	NaN	2	4	0.059286764476989	1	1	NaN	124	2	61	1	121	221	321	NaN	521	0.739582123700529	1	0	NaN	3372131.6919169	NaN	3372132.6755126	3372133.19199338
62	18	0	0	90	36.1581920903955	36.241610738255	16	0.533374399840832	2	8	6	NaN	2	4	0.059286764476989	1	1	NaN	125	2	62	1	121	221	321	NaN	521	0.372097470797598	2	1	NaN	3372134.8588957	NaN	3372135.84241	3372136.35896243
62	18	0	0	90	36.1581920903955	36.241610738255	6	0.200015399940312	2	5	4	NaN	1	5	0.059286764476989	1	1	NaN	126	2	63	1	121	221	321	NaN	521	0.344694523140788	1	1	NaN	3372137.5426174	NaN	3372138.5260053	3372139.04257028
62	18	0	0	90	36.1581920903955	36.241610738255	22	0.733389799781144	2	10	6	NaN	2	4	0.059286764476989	1	1	NaN	127	3	1	1	121	221	321	NaN	521	0.367455823346972	2	1	NaN	3372146.1600265	NaN	3372147.143532	3372147.66007888
62	18	0	0	90	36.1581920903955	36.241610738255	17	0.566710299830884	2	3	5	NaN	1	4	0.059286764476989	1	1	NaN	128	3	2	1	121	221	321	NaN	521	0.483931123744696	2	0	NaN	3372148.8436484	NaN	3372149.8271217	3372150.34366988
62	18	0	0	90	36.1581920903955	36.241610738255	0	0	1	3	4	NaN	1	5	0.059286764476989	1	1	NaN	129	3	3	1	111	211	311	NaN	511	0.0104121710173786	1	1	NaN	3372151.6438776	NaN	3372152.6274191	3372153.14395103
62	18	0	0	90	36.1581920903955	36.241610738255	9	0.300023099910468	2	10	4	NaN	2	3	0.059286764476989	1	1	NaN	130	3	4	1	121	221	321	NaN	521	0.510665423702449	2	1	NaN	3372153.9608869	NaN	3372154.9442922	3372155.46086438
62	18	0	0	90	36.1581920903955	36.241610738255	12	0.400030799880624	2	12	2	NaN	2	3	0.059286764476989	1	1	NaN	131	3	5	1	121	221	321	NaN	521	0.677536923438311	1	0	NaN	3372156.7778477	NaN	3372157.7613534	3372158.27779198
62	18	0	0	90	36.1581920903955	36.241610738255	20	0.66671799980104	2	9	3	NaN	2	5	0.059286764476989	1	1	NaN	132	3	6	1	121	221	321	NaN	521	2.45304787578061	2	1	NaN	3372159.77813	NaN	3372160.7615304	3372161.27808462
62	18	0	0	90	36.1581920903955	36.241610738255	8	0.266687199920416	2	6	1	NaN	1	4	0.059286764476989	1	1	NaN	133	3	7	1	121	221	321	NaN	521	0.301808823831379	1	1	NaN	3372164.5619325	NaN	3372165.5453335	3372166.06188848
62	18	0	0	90	36.1581920903955	36.241610738255	17	0.566710299830884	2	5	2	NaN	1	3	0.059286764476989	1	1	NaN	134	3	8	1	121	221	321	NaN	521	1.03683117078617	1	1	NaN	3372167.178871	NaN	3372168.1622578	3372168.67880723
62	18	0	0	90	36.1581920903955	36.241610738255	14	0.466702599860728	2	8	6	NaN	2	5	0.059286764476989	1	1	NaN	135	3	9	1	121	221	321	NaN	521	0.0103947236202657	2	1	NaN	3372170.5291868	NaN	3372171.5125909	3372172.02914398
62	18	0	0	90	36.1581920903955	36.241610738255	20	0.66671799980104	2	5	1	NaN	1	5	0.059286764476989	1	1	NaN	136	3	10	1	121	221	321	NaN	521	2.38497117580846	2	0	NaN	3372172.8627521	NaN	3372173.8461697	3372174.36270852
62	18	0	0	90	36.1581920903955	36.241610738255	11	0.366694899890572	2	3	6	NaN	1	5	0.059286764476989	1	1	NaN	137	3	11	1	121	221	321	NaN	521	0.0104586710222065	1	1	NaN	3372177.61318	NaN	3372178.5966173	3372179.11316153
62	18	0	0	90	36.1581920903955	36.241610738255	17	0.566710299830884	2	12	4	NaN	2	5	0.059286764476989	1	1	NaN	138	3	12	1	121	221	321	NaN	521	1.04720182344317	1	0	NaN	3372180.4801453	NaN	3372181.463556	3372181.98012008
62	18	0	0	90	36.1581920903955	36.241610738255	15	0.50003849985078	2	6	3	NaN	1	5	0.059286764476989	1	1	NaN	139	3	13	1	121	221	321	NaN	521	0.440769070759416	1	1	NaN	3372183.8304783	NaN	3372184.8139005	3372185.33043863
62	18	0	0	90	36.1581920903955	36.241610738255	23	0.766725699771196	2	3	5	NaN	1	5	0.059286764476989	1	1	NaN	140	3	14	1	121	221	321	NaN	521	1.65047987131402	1	1	NaN	3372186.5807601	NaN	3372187.564148	3372188.08071133
62	18	0	0	90	36.1581920903955	36.241610738255	12	0.400030799880624	2	4	4	NaN	1	3	0.059286764476989	1	1	NaN	141	3	15	1	121	221	321	NaN	521	0.010397323872894	2	0	NaN	3372190.5478323	NaN	3372191.5312223	3372192.04777628
62	18	0	0	90	36.1581920903955	36.241610738255	15	0.50003849985078	2	9	3	NaN	2	5	0.059286764476989	1	1	NaN	142	3	16	1	121	221	321	NaN	521	0.566999170929193	1	0	NaN	3372192.8647297	NaN	3372193.8481336	3372194.36466343
62	18	0	0	90	36.1581920903955	36.241610738255	21	0.700053899791092	2	5	5	NaN	1	3	0.059286764476989	1	1	NaN	143	3	17	1	121	221	321	NaN	521	0.0103190904483199	2	0	NaN	3372195.7483249	NaN	3372196.7317216	3372197.24828321
62	18	0	0	90	36.1581920903955	36.241610738255	14	0.466702599860728	2	8	1	NaN	2	3	0.059286764476989	1	1	NaN	144	3	18	1	121	221	321	NaN	521	0.0104103712365031	2	1	NaN	3372198.0652217	NaN	3372199.0486393	3372199.56517463
62	18	0	0	90	36.1581920903955	36.241610738255	24	0.800061599761248	2	6	6	NaN	1	4	0.059286764476989	1	1	NaN	145	3	19	1	121	221	321	NaN	521	0.0729569238610566	1	1	NaN	3372200.3821276	NaN	3372201.3655152	3372201.88207458
62	18	0	0	90	36.1581920903955	36.241610738255	21	0.700053899791092	2	2	1	NaN	1	5	0.059286764476989	1	1	NaN	146	3	20	1	121	221	321	NaN	521	0.417656670790166	1	1	NaN	3372202.7657358	NaN	3372203.7490801	3372204.26563443
62	18	0	0	90	36.1581920903955	36.241610738255	8	0.266687199920416	2	1	2	NaN	1	3	0.059286764476989	1	1	NaN	147	3	21	1	121	221	321	NaN	521	0.0104891615919769	1	1	NaN	3372205.4991655	NaN	3372206.482708	3372206.99923254
62	18	0	0	90	36.1581920903955	36.241610738255	18	0.600046199820936	2	1	6	NaN	1	3	0.059286764476989	1	1	NaN	148	3	22	1	121	221	321	NaN	521	1.39900107076392	2	0	NaN	3372207.8161995	NaN	3372208.7996124	3372209.31612933
62	18	0	0	90	36.1581920903955	36.241610738255	7	0.233351299930364	2	6	5	NaN	1	4	0.059286764476989	1	1	NaN	149	3	23	1	121	221	321	NaN	521	2.57815552316606	2	0	NaN	3372211.5332189	NaN	3372212.5166127	3372213.03316738
62	18	0	0	90	36.1581920903955	36.241610738255	21	0.700053899791092	2	5	4	NaN	1	5	0.059286764476989	1	1	NaN	150	3	24	1	121	221	321	NaN	521	0.010409370996058	2	0	NaN	3372216.5670527	NaN	3372217.5504367	3372218.06699833
62	18	0	0	90	36.1581920903955	36.241610738255	22	0.733389799781144	2	9	6	NaN	2	4	0.059286764476989	1	1	NaN	151	3	25	1	121	221	321	NaN	521	0.0104165710508823	2	1	NaN	3372218.883932	NaN	3372219.8673355	3372220.38388843
62	18	0	0	90	36.1581920903955	36.241610738255	25	0.8333974997513	2	2	4	NaN	1	4	0.059286764476989	1	1	NaN	152	3	26	1	121	221	321	NaN	521	0.36652622371912	1	1	NaN	3372221.2008291	NaN	3372222.1842338	3372222.70078828
62	18	0	0	90	36.1581920903955	36.241610738255	11	0.366694899890572	2	9	6	NaN	2	4	0.059286764476989	1	1	NaN	153	3	27	1	121	221	321	NaN	521	0.0987689238972962	1	0	NaN	3372223.8843111	NaN	3372224.8678291	3372225.38437908
62	18	0	0	90	36.1581920903955	36.241610738255	7	0.233351299930364	2	1	6	NaN	1	4	0.059286764476989	1	1	NaN	154	3	28	1	121	221	321	NaN	521	0.362289770971984	2	0	NaN	3372226.3013602	NaN	3372227.2847095	3372227.80127953
62	18	0	0	90	36.1581920903955	36.241610738255	19	0.633382099810988	2	1	1	NaN	1	4	0.059286764476989	1	1	NaN	155	3	29	1	121	221	321	NaN	521	0.335069290362298	1	1	NaN	3372228.9682682	NaN	3372229.951661	3372230.46822161
62	18	0	0	90	36.1581920903955	36.241610738255	14	0.466702599860728	2	6	2	NaN	1	5	0.059286764476989	1	1	NaN	156	3	30	1	121	221	321	NaN	521	0.0104241706430912	1	1	NaN	3372231.6185203	NaN	3372232.6019216	3372233.11846793
62	18	0	0	90	36.1581920903955	36.241610738255	19	0.633382099810988	2	1	4	NaN	1	3	0.059286764476989	1	1	NaN	157	3	31	1	121	221	321	NaN	521	0.0103779756464064	2	0	NaN	3372233.9354273	NaN	3372234.9188021	3372235.43536392
62	18	0	0	90	36.1581920903955	36.241610738255	19	0.633382099810988	2	4	4	NaN	1	5	0.059286764476989	1	1	NaN	158	3	32	1	121	221	321	NaN	521	0.0428141709417105	2	0	NaN	3372236.2523117	NaN	3372237.2357498	3372237.75225793
62	18	0	0	90	36.1581920903955	36.241610738255	16	0.533374399840832	2	5	2	NaN	1	5	0.059286764476989	1	1	NaN	159	3	33	1	121	221	321	NaN	521	0.396789690479636	2	0	NaN	3372238.6025402	NaN	3372239.5859497	3372240.10249561
62	18	0	0	90	36.1581920903955	36.241610738255	24	0.800061599761248	2	3	2	NaN	1	5	0.059286764476989	1	1	NaN	160	3	34	1	121	221	321	NaN	521	0.992081870790571	1	1	NaN	3372241.3194748	NaN	3372242.3028724	3372242.81943063
62	18	0	0	90	36.1581920903955	36.241610738255	21	0.700053899791092	2	9	2	NaN	2	5	0.059286764476989	1	1	NaN	161	3	35	1	121	221	321	NaN	521	0.794927170965821	2	1	NaN	3372244.6364376	NaN	3372245.6198723	3372246.13641933
62	18	0	0	90	36.1581920903955	36.241610738255	16	0.533374399840832	2	2	5	NaN	1	3	0.059286764476989	1	1	NaN	162	3	36	1	121	221	321	NaN	521	0.781882971059531	2	0	NaN	3372247.7533255	NaN	3372248.7368473	3372249.25339153
62	18	0	0	90	36.1581920903955	36.241610738255	12	0.400030799880624	2	2	6	NaN	1	3	0.059286764476989	1	1	NaN	163	3	37	1	121	221	321	NaN	521	0.905741323251277	2	0	NaN	3372250.8537319	NaN	3372251.8371537	3372252.35369328
62	18	0	0	90	36.1581920903955	36.241610738255	11	0.366694899890572	2	7	6	NaN	2	3	0.059286764476989	1	1	NaN	164	3	38	1	121	221	321	NaN	521	1.0325986710377	2	1	NaN	3372254.0707252	NaN	3372255.0541209	3372255.57067993
62	18	0	0	90	36.1581920903955	36.241610738255	24	0.800061599761248	2	1	2	NaN	1	4	0.059286764476989	1	1	NaN	165	3	39	1	121	221	321	NaN	521	0.850292323622853	2	0	NaN	3372257.4210534	NaN	3372258.4044448	3372258.92103238
62	18	0	0	90	36.1581920903955	36.241610738255	23	0.766725699771196	2	1	3	NaN	1	3	0.059286764476989	1	1	NaN	166	3	40	1	121	221	321	NaN	521	1.08342447085306	2	0	NaN	3372260.5880453	NaN	3372261.5714135	3372262.08798443
62	18	0	0	90	36.1581920903955	36.241610738255	16	0.533374399840832	2	4	6	NaN	1	3	0.059286764476989	1	1	NaN	167	3	41	1	121	221	321	NaN	521	0.507068423554301	2	0	NaN	3372263.9883669	NaN	3372264.9717727	3372265.48832458
62	18	0	0	90	36.1581920903955	36.241610738255	6	0.200015399940312	2	3	6	NaN	1	4	0.059286764476989	1	1	NaN	168	3	42	1	121	221	321	NaN	521	0.0104122706688941	1	1	NaN	3372266.8052494	NaN	3372267.7887222	3372268.30526043
62	18	0	0	90	36.1581920903955	36.241610738255	16	0.533374399840832	2	6	6	NaN	1	4	0.059286764476989	1	1	NaN	169	3	43	1	121	221	321	NaN	521	0.0525525235570967	1	1	NaN	3372269.1388852	NaN	3372270.1222723	3372270.63882508
62	18	0	0	90	36.1581920903955	36.241610738255	9	0.300023099910468	2	9	1	NaN	2	5	0.059286764476989	1	1	NaN	170	3	44	1	121	221	321	NaN	521	0.0104126711376011	2	1	NaN	3372271.50565	NaN	3372272.489164	3372273.00572433
62	18	0	0	90	36.1581920903955	36.241610738255	12	0.400030799880624	2	7	5	NaN	2	5	0.059286764476989	1	1	NaN	171	3	45	1	121	221	321	NaN	521	0.512811371125281	1	0	NaN	3372273.8225384	NaN	3372274.8060941	3372275.32261233
62	18	0	0	90	36.1581920903955	36.241610738255	10	0.33335899990052	2	4	3	NaN	1	3	0.059286764476989	1	1	NaN	172	3	46	1	121	221	321	NaN	521	0.247728223446757	1	1	NaN	3372276.6396266	NaN	3372277.6230185	3372278.13957128
62	18	0	0	90	36.1581920903955	36.241610738255	13	0.433366699870676	2	5	5	NaN	1	3	0.059286764476989	1	1	NaN	173	3	47	1	121	221	321	NaN	521	0.0896540232934058	2	0	NaN	3372279.1898546	NaN	3372280.173262	3372280.68981838
62	18	0	0	90	36.1581920903955	36.241610738255	9	0.300023099910468	2	2	3	NaN	1	4	0.059286764476989	1	1	NaN	174	3	48	1	121	221	321	NaN	521	0.0652335188351572	2	0	NaN	3372281.5899677	NaN	3372282.5735014	3372283.09005008
62	18	0	0	90	36.1581920903955	36.241610738255	19	0.633382099810988	2	3	6	NaN	1	3	0.059286764476989	1	1	NaN	175	3	49	1	121	221	321	NaN	521	0.0103502809070051	1	1	NaN	3372283.9736585	NaN	3372284.9570756	3372285.47361042
62	18	0	0	90	36.1581920903955	36.241610738255	15	0.50003849985078	2	4	2	NaN	1	4	0.059286764476989	1	1	NaN	176	3	50	1	121	221	321	NaN	521	3.14120047120377	2	0	NaN	3372286.2905746	NaN	3372287.2739505	3372287.79051393
62	18	0	0	90	36.1581920903955	36.241610738255	0	0	1	1	5	NaN	1	3	0.059286764476989	1	1	NaN	177	3	51	1	111	211	311	NaN	511	0.0103994235396385	1	1	NaN	3372291.7410989	NaN	3372292.7245011	3372293.24105198
62	18	0	0	90	36.1581920903955	36.241610738255	15	0.50003849985078	2	12	5	NaN	2	4	0.059286764476989	1	1	NaN	178	3	52	1	121	221	321	NaN	521	0.0104259187355638	2	1	NaN	3372294.0578698	NaN	3372295.041383	3372295.55793678
62	18	0	0	90	36.1581920903955	36.241610738255	9	0.300023099910468	2	11	5	NaN	2	3	0.059286764476989	1	1	NaN	179	3	53	1	121	221	321	NaN	521	0.0103944237343967	2	1	NaN	3372296.37476	NaN	3372297.3582873	3372297.87484108
62	18	0	0	90	36.1581920903955	36.241610738255	14	0.466702599860728	2	9	6	NaN	2	3	0.059286764476989	1	1	NaN	180	3	54	1	121	221	321	NaN	521	0.171780970878899	2	1	NaN	3372298.6917813	NaN	3372299.6751654	3372300.19172653
62	18	0	0	90	36.1581920903955	36.241610738255	22	0.733389799781144	2	6	5	NaN	1	5	0.059286764476989	1	1	NaN	181	3	55	1	121	221	321	NaN	521	0.544244275428355	2	0	NaN	3372301.1753549	NaN	3372302.1587587	3372302.67530712
62	18	0	0	90	36.1581920903955	36.241610738255	6	0.200015399940312	2	6	3	NaN	1	4	0.059286764476989	1	1	NaN	182	3	56	1	121	221	321	NaN	521	0.277913170866668	2	0	NaN	3372304.0256333	NaN	3372305.0090748	3372305.52558283
62	18	0	0	90	36.1581920903955	36.241610738255	20	0.66671799980104	2	2	1	NaN	1	5	0.059286764476989	1	1	NaN	183	3	57	1	121	221	321	NaN	521	0.0104097235016525	2	0	NaN	3372306.6092433	NaN	3372307.5926092	3372308.10917898
62	18	0	0	90	36.1581920903955	36.241610738255	19	0.633382099810988	2	7	5	NaN	2	5	0.059286764476989	1	1	NaN	184	3	58	1	121	221	321	NaN	521	0.45732677122578	1	0	NaN	3372308.9261227	NaN	3372309.9094952	3372310.42606643
62	18	0	0	90	36.1581920903955	36.241610738255	16	0.533374399840832	2	3	3	NaN	1	4	0.059286764476989	1	1	NaN	185	3	59	1	121	221	321	NaN	521	0.874319123569876	1	1	NaN	3372311.6930481	NaN	3372312.6764753	3372313.19301048
62	18	0	0	90	36.1581920903955	36.241610738255	10	0.33335899990052	2	3	6	NaN	1	3	0.059286764476989	1	1	NaN	186	3	60	1	121	221	321	NaN	521	0.0104243708774447	1	1	NaN	3372314.8766229	NaN	3372315.8600975	3372316.37664653
62	18	0	0	90	36.1581920903955	36.241610738255	12	0.400030799880624	2	3	6	NaN	1	5	0.059286764476989	1	1	NaN	187	3	61	1	121	221	321	NaN	521	0.0103970235213637	1	1	NaN	3372317.2102627	NaN	3372318.1936729	3372318.71021878
62	18	0	0	90	36.1581920903955	36.241610738255	14	0.466702599860728	2	9	1	NaN	2	3	0.059286764476989	1	1	NaN	188	3	62	1	121	221	321	NaN	521	0.0104003236629069	2	1	NaN	3372319.5270332	NaN	3372320.5105541	3372321.02711398
62	18	0	0	90	36.1581920903955	36.241610738255	14	0.466702599860728	2	1	2	NaN	1	4	0.059286764476989	1	1	NaN	189	3	63	1	121	221	321	NaN	521	0.867709371261299	2	0	NaN	3372321.8440465	NaN	3372322.8274595	3372323.34399443
62	18	0	0	90	36.1581920903955	36.241610738255	10	0.33335899990052	2	7	3	NaN	2	5	0.059286764476989	1	1	NaN	190	4	1	1	121	221	321	NaN	521	1.63419067068025	2	1	NaN	3372329.261322	NaN	3372330.2448326	3372330.76139103
62	18	0	0	90	36.1581920903955	36.241610738255	10	0.33335899990052	2	4	1	NaN	1	5	0.059286764476989	1	1	NaN	191	4	2	1	121	221	321	NaN	521	2.21190957073122	2	0	NaN	3372333.2118453	NaN	3372334.1952548	3372334.71179183
62	18	0	0	90	36.1581920903955	36.241610738255	11	0.366694899890572	2	9	1	NaN	2	4	0.059286764476989	1	1	NaN	192	4	3	1	121	221	321	NaN	521	1.38979912316427	2	1	NaN	3372337.7454809	NaN	3372338.7290041	3372339.24556018
62	18	0	0	90	36.1581920903955	36.241610738255	18	0.600046199820936	2	4	5	NaN	1	5	0.059286764476989	1	1	NaN	193	4	4	1	121	221	321	NaN	521	0.0173712712712586	2	0	NaN	3372341.4459732	NaN	3372342.4293837	3372342.94592453
62	18	0	0	90	36.1581920903955	36.241610738255	6	0.200015399940312	2	7	3	NaN	2	5	0.059286764476989	1	1	NaN	194	4	5	1	121	221	321	NaN	521	0.0104100233875215	1	0	NaN	3372343.7795407	NaN	3372344.7629398	3372345.27949658
62	18	0	0	90	36.1581920903955	36.241610738255	25	0.8333974997513	2	2	4	NaN	1	4	0.059286764476989	1	1	NaN	195	4	6	1	121	221	321	NaN	521	0.319175871089101	1	1	NaN	3372346.0964351	NaN	3372347.0798305	3372347.59638643
62	18	0	0	90	36.1581920903955	36.241610738255	22	0.733389799781144	2	2	1	NaN	1	3	0.059286764476989	1	1	NaN	196	4	7	1	121	221	321	NaN	521	0.389456023462117	1	1	NaN	3372348.7300282	NaN	3372349.713433	3372350.22998208
62	18	0	0	90	36.1581920903955	36.241610738255	17	0.566710299830884	2	2	4	NaN	1	3	0.059286764476989	1	1	NaN	197	4	8	1	121	221	321	NaN	521	0.377376770600677	1	1	NaN	3372351.4302856	NaN	3372352.4136894	3372352.93023943
62	18	0	0	90	36.1581920903955	36.241610738255	10	0.33335899990052	2	3	2	NaN	1	5	0.059286764476989	1	1	NaN	198	4	9	1	121	221	321	NaN	521	0.0776464333757758	2	0	NaN	3372354.1138869	NaN	3372355.0972906	3372355.61384797
62	18	0	0	90	36.1581920903955	36.241610738255	19	0.633382099810988	2	5	6	NaN	1	3	0.059286764476989	1	1	NaN	199	4	10	1	121	221	321	NaN	521	0.326101218815893	1	1	NaN	3372356.497408	NaN	3372357.4808447	3372357.99740318
62	18	0	0	90	36.1581920903955	36.241610738255	13	0.433366699870676	2	6	5	NaN	1	4	0.059286764476989	1	1	NaN	200	4	11	1	121	221	321	NaN	521	0.556460023391992	1	1	NaN	3372359.1309213	NaN	3372360.1144515	3372360.63100298
62	18	0	0	90	36.1581920903955	36.241610738255	12	0.400030799880624	2	1	6	NaN	1	4	0.059286764476989	1	1	NaN	201	4	12	1	121	221	321	NaN	521	0.633629571180791	1	1	NaN	3372361.9980402	NaN	3372362.9813869	3372363.49794083
62	18	0	0	90	36.1581920903955	36.241610738255	17	0.566710299830884	2	8	1	NaN	2	5	0.059286764476989	1	1	NaN	202	4	13	1	121	221	321	NaN	521	0.179216323886067	2	1	NaN	3372364.9482895	NaN	3372365.9316755	3372366.44824338
62	18	0	0	90	36.1581920903955	36.241610738255	7	0.233351299930364	2	4	1	NaN	1	4	0.059286764476989	1	1	NaN	203	4	14	1	121	221	321	NaN	521	0.688011470716447	2	0	NaN	3372367.8318746	NaN	3372368.8152968	3372369.33185523
62	18	0	0	90	36.1581920903955	36.241610738255	18	0.600046199820936	2	5	4	NaN	1	3	0.059286764476989	1	1	NaN	204	4	15	1	121	221	321	NaN	521	0.882672423496842	1	1	NaN	3372371.3488702	NaN	3372372.3323153	3372372.84886048
62	18	0	0	90	36.1581920903955	36.241610738255	13	0.433366699870676	2	2	3	NaN	1	3	0.059286764476989	1	1	NaN	205	4	16	1	121	221	321	NaN	521	2.45027717063203	2	0	NaN	3372374.5492302	NaN	3372375.5326277	3372376.04917713
62	18	0	0	90	36.1581920903955	36.241610738255	23	0.766725699771196	2	2	3	NaN	1	5	0.059286764476989	1	1	NaN	206	4	17	1	121	221	321	NaN	521	0.614728323183954	2	0	NaN	3372379.4330233	NaN	3372380.4164798	3372380.93299898
62	18	0	0	90	36.1581920903955	36.241610738255	11	0.366694899890572	2	8	3	NaN	2	3	0.059286764476989	1	1	NaN	207	4	18	1	121	221	321	NaN	521	1.06503101857379	2	1	NaN	3372382.3666645	NaN	3372383.3500539	3372383.86660648
62	18	0	0	90	36.1581920903955	36.241610738255	13	0.433366699870676	2	11	5	NaN	2	5	0.059286764476989	1	1	NaN	208	4	19	1	121	221	321	NaN	521	0.401655223686248	2	1	NaN	3372385.7503103	NaN	3372386.7337262	3372387.25027878
62	18	0	0	90	36.1581920903955	36.241610738255	15	0.50003849985078	2	1	6	NaN	1	3	0.059286764476989	1	1	NaN	209	4	20	1	121	221	321	NaN	521	0.380239371210337	1	1	NaN	3372388.4672619	NaN	3372389.4506622	3372389.96721013
62	18	0	0	90	36.1581920903955	36.241610738255	0	0	1	2	4	NaN	1	4	0.059286764476989	1	1	NaN	210	4	21	1	111	211	311	NaN	511	4.01609401870519	2	0	NaN	3372391.1675258	NaN	3372392.1509385	3372392.66747048
62	18	0	0	90	36.1581920903955	36.241610738255	16	0.533374399840832	2	7	3	NaN	2	4	0.059286764476989	1	1	NaN	211	4	22	1	121	221	321	NaN	521	0.306446071248502	2	1	NaN	3372397.501577	NaN	3372398.4848768	3372399.00142913
62	18	0	0	90	36.1581920903955	36.241610738255	15	0.50003849985078	2	6	6	NaN	1	5	0.059286764476989	1	1	NaN	212	4	23	1	121	221	321	NaN	521	0.569537023548037	1	1	NaN	3372400.1183988	NaN	3372401.1018042	3372401.61836108
62	18	0	0	90	36.1581920903955	36.241610738255	15	0.50003849985078	2	2	4	NaN	1	5	0.059286764476989	1	1	NaN	213	4	24	1	121	221	321	NaN	521	2.70997057063505	2	0	NaN	3372403.0020265	NaN	3372403.9854898	3372404.50197223
62	18	0	0	90	36.1581920903955	36.241610738255	0	0	1	8	3	NaN	2	4	0.059286764476989	1	1	NaN	214	4	25	1	111	211	311	NaN	511	0.828860423527658	2	1	NaN	3372408.0190536	NaN	3372409.0025806	3372409.51914028
62	18	0	0	90	36.1581920903955	36.241610738255	18	0.600046199820936	2	10	5	NaN	2	5	0.059286764476989	1	1	NaN	215	4	26	1	121	221	321	NaN	521	0.919255970977247	2	1	NaN	3372411.1528273	NaN	3372412.1362235	3372412.65277133
62	18	0	0	90	36.1581920903955	36.241610738255	16	0.533374399840832	2	2	3	NaN	1	3	0.059286764476989	1	1	NaN	216	4	27	1	121	221	321	NaN	521	1.92546567087993	2	0	NaN	3372414.3864817	NaN	3372415.3698809	3372415.88642103
62	18	0	0	90	36.1581920903955	36.241610738255	9	0.300023099910468	2	6	3	NaN	1	3	0.059286764476989	1	1	NaN	217	4	28	1	121	221	321	NaN	521	2.48382917093113	2	0	NaN	3372418.6202369	NaN	3372419.6036195	3372420.12017063
62	18	0	0	90	36.1581920903955	36.241610738255	21	0.700053899791092	2	4	6	NaN	1	5	0.059286764476989	1	1	NaN	218	4	29	1	121	221	321	NaN	521	1.6989424712956	1	1	NaN	3372423.6206466	NaN	3372424.604114	3372425.12066523
62	18	0	0	90	36.1581920903955	36.241610738255	16	0.533374399840832	2	12	4	NaN	2	4	0.059286764476989	1	1	NaN	219	4	30	1	121	221	321	NaN	521	0.27360887080431	2	1	NaN	3372427.63778	NaN	3372428.6211679	3372429.13772543
62	18	0	0	90	36.1581920903955	36.241610738255	22	0.733389799781144	2	2	1	NaN	1	3	0.059286764476989	1	1	NaN	220	4	31	1	121	221	321	NaN	521	0.0103900237008929	1	1	NaN	3372430.3046736	NaN	3372431.2881036	3372431.80465868
62	18	0	0	90	36.1581920903955	36.241610738255	18	0.600046199820936	2	12	6	NaN	2	3	0.059286764476989	1	1	NaN	221	4	32	1	121	221	321	NaN	521	2.15395917091519	2	1	NaN	3372432.62146	NaN	3372433.6050245	3372434.12154423
62	18	0	0	90	36.1581920903955	36.241610738255	6	0.200015399940312	2	10	3	NaN	2	3	0.059286764476989	1	1	NaN	222	4	33	1	121	221	321	NaN	521	0.271527323871851	2	1	NaN	3372437.2720314	NaN	3372438.2554512	3372438.77201248
62	18	0	0	90	36.1581920903955	36.241610738255	24	0.800061599761248	2	7	4	NaN	2	4	0.059286764476989	1	1	NaN	223	4	34	1	121	221	321	NaN	521	0.111955371219665	2	1	NaN	3372439.8556424	NaN	3372440.8390478	3372441.35558703
62	18	0	0	90	36.1581920903955	36.241610738255	14	0.466702599860728	2	2	6	NaN	1	5	0.059286764476989	1	1	NaN	224	4	35	1	121	221	321	NaN	521	0.0104120709002018	1	1	NaN	3372442.272541	NaN	3372443.2559475	3372443.77249723
62	18	0	0	90	36.1581920903955	36.241610738255	21	0.700053899791092	2	1	3	NaN	1	5	0.059286764476989	1	1	NaN	225	4	36	1	121	221	321	NaN	521	0.0104074710980058	2	0	NaN	3372444.5894194	NaN	3372445.5728422	3372446.08939273
62	18	0	0	90	36.1581920903955	36.241610738255	6	0.200015399940312	2	8	6	NaN	2	4	0.059286764476989	1	1	NaN	226	4	37	1	121	221	321	NaN	521	0.0104061234742403	2	1	NaN	3372446.9229909	NaN	3372447.9063959	3372448.42295428
62	18	0	0	90	36.1581920903955	36.241610738255	10	0.33335899990052	2	5	3	NaN	1	5	0.059286764476989	1	1	NaN	227	4	38	1	121	221	321	NaN	521	0.0103954235091805	1	1	NaN	3372449.2398968	NaN	3372450.2232796	3372450.73984998
62	18	0	0	90	36.1581920903955	36.241610738255	6	0.200015399940312	2	4	4	NaN	1	4	0.059286764476989	1	1	NaN	228	4	39	1	121	221	321	NaN	521	0.010880570858717	2	0	NaN	3372451.5568122	NaN	3372452.540187	3372453.05674293
62	18	0	0	90	36.1581920903955	36.241610738255	25	0.8333974997513	2	10	5	NaN	2	3	0.059286764476989	1	1	NaN	229	4	40	1	121	221	321	NaN	521	2.66234192345291	2	1	NaN	3372453.8735856	NaN	3372454.8570863	3372455.37363718
62	18	0	0	90	36.1581920903955	36.241610738255	20	0.66671799980104	2	4	1	NaN	1	5	0.059286764476989	1	1	NaN	230	4	41	1	121	221	321	NaN	521	1.70212087128311	1	1	NaN	3372458.8575107	NaN	3372459.8409149	3372460.35745243
62	18	0	0	90	36.1581920903955	36.241610738255	15	0.50003849985078	2	7	2	NaN	2	5	0.059286764476989	1	1	NaN	231	4	42	1	121	221	321	NaN	521	0.485499770846218	2	1	NaN	3372462.8745659	NaN	3372463.8579762	3372464.37451783
62	18	0	0	90	36.1581920903955	36.241610738255	17	0.566710299830884	2	10	6	NaN	2	4	0.059286764476989	1	1	NaN	232	4	43	1	121	221	321	NaN	521	0.996850770898163	2	1	NaN	3372465.6748398	NaN	3372466.6582449	3372467.17479273
62	18	0	0	90	36.1581920903955	36.241610738255	16	0.533374399840832	2	9	5	NaN	2	4	0.059286764476989	1	1	NaN	233	4	44	1	121	221	321	NaN	521	0.50382067123428	2	1	NaN	3372468.9918441	NaN	3372469.9752327	3372470.49178973
62	18	0	0	90	36.1581920903955	36.241610738255	7	0.233351299930364	2	5	3	NaN	1	5	0.059286764476989	1	1	NaN	234	4	45	1	121	221	321	NaN	521	0.0103950235061347	1	1	NaN	3372471.9921075	NaN	3372472.9755399	3372473.49208958
62	18	0	0	90	36.1581920903955	36.241610738255	16	0.533374399840832	2	10	3	NaN	2	5	0.059286764476989	1	1	NaN	235	4	46	1	121	221	321	NaN	521	6.88265577051789	2	1	NaN	3372474.3090304	NaN	3372475.2924215	3372475.80897503
62	18	0	0	90	36.1581920903955	36.241610738255	17	0.566710299830884	2	5	5	NaN	1	4	0.059286764476989	1	1	NaN	236	4	47	1	121	221	321	NaN	521	0.184841870795935	2	0	NaN	3372483.7432756	NaN	3372484.7266879	3372485.24323043
62	18	0	0	90	36.1581920903955	36.241610738255	21	0.700053899791092	2	7	6	NaN	2	5	0.059286764476989	1	1	NaN	237	4	48	1	121	221	321	NaN	521	0.0104274707846344	2	1	NaN	3372486.2435415	NaN	3372487.2269461	3372487.74348023
62	18	0	0	90	36.1581920903955	36.241610738255	21	0.700053899791092	2	7	1	NaN	2	4	0.059286764476989	1	1	NaN	238	4	49	1	121	221	321	NaN	521	0.010395523160696	2	1	NaN	3372488.5771062	NaN	3372489.5605174	3372490.07704878
62	18	0	0	90	36.1581920903955	36.241610738255	16	0.533374399840832	2	8	2	NaN	2	5	0.059286764476989	1	1	NaN	239	4	50	1	121	221	321	NaN	521	1.88987561874092	2	1	NaN	3372490.8938752	NaN	3372491.8773772	3372492.39394348
62	18	0	0	90	36.1581920903955	36.241610738255	22	0.733389799781144	2	6	6	NaN	1	5	0.059286764476989	1	1	NaN	240	4	51	1	121	221	321	NaN	521	0.0411863713525236	1	1	NaN	3372495.0944013	NaN	3372496.0778105	3372496.59434573
62	18	0	0	90	36.1581920903955	36.241610738255	18	0.600046199820936	2	3	4	NaN	1	4	0.059286764476989	1	1	NaN	241	4	52	1	121	221	321	NaN	521	0.203441170975566	1	1	NaN	3372497.4447284	NaN	3372498.4280271	3372498.94458433
62	18	0	0	90	36.1581920903955	36.241610738255	0	0	1	9	3	NaN	2	4	0.059286764476989	1	1	NaN	242	4	53	1	111	211	311	NaN	511	0.0104044713079929	1	0	NaN	3372499.9615311	NaN	3372500.9449495	3372501.46149033
62	18	0	0	90	36.1581920903955	36.241610738255	21	0.700053899791092	2	6	1	NaN	1	3	0.059286764476989	1	1	NaN	243	4	54	1	121	221	321	NaN	521	0.0492116711102426	2	0	NaN	3372502.2784376	NaN	3372503.2618308	3372503.77839363
62	18	0	0	90	36.1581920903955	36.241610738255	0	0	1	4	2	NaN	1	3	0.059286764476989	1	1	NaN	244	4	55	1	111	211	311	NaN	511	1.1515397191979	1	1	NaN	3372504.7119647	NaN	3372505.6953169	3372506.21196048
62	18	0	0	90	36.1581920903955	36.241610738255	23	0.766725699771196	2	4	6	NaN	1	4	0.059286764476989	1	1	NaN	245	4	56	1	121	221	321	NaN	521	2.38443523785099	1	1	NaN	3372508.2956494	NaN	3372509.2791004	3372509.79565746
62	18	0	0	90	36.1581920903955	36.241610738255	6	0.200015399940312	2	9	4	NaN	2	3	0.059286764476989	1	1	NaN	246	4	57	1	121	221	321	NaN	521	0.561337623279542	2	1	NaN	3372513.0460533	NaN	3372514.0295653	3372514.54611978
62	18	0	0	90	36.1581920903955	36.241610738255	9	0.300023099910468	2	12	2	NaN	2	4	0.059286764476989	1	1	NaN	247	4	58	1	121	221	321	NaN	521	6.86233742814511	2	1	NaN	3372515.9297814	NaN	3372516.9131735	3372517.42972697
62	18	0	0	90	36.1581920903955	36.241610738255	22	0.733389799781144	2	7	1	NaN	2	5	0.059286764476989	1	1	NaN	248	4	59	1	121	221	321	NaN	521	3.09378172364086	2	1	NaN	3372525.31403	NaN	3372526.2974455	3372526.81398928
62	18	0	0	90	36.1581920903955	36.241610738255	6	0.200015399940312	2	7	4	NaN	2	5	0.059286764476989	1	1	NaN	249	4	60	1	121	221	321	NaN	521	0.364083671011031	2	1	NaN	3372530.747893	NaN	3372531.7312949	3372532.24785143
62	18	0	0	90	36.1581920903955	36.241610738255	18	0.600046199820936	2	11	3	NaN	2	5	0.059286764476989	1	1	NaN	250	4	61	1	121	221	321	NaN	521	0.216904923319817	1	0	NaN	3372533.4148324	NaN	3372534.3982372	3372534.91478488
62	18	0	0	90	36.1581920903955	36.241610738255	8	0.266687199920416	2	5	5	NaN	1	5	0.059286764476989	1	1	NaN	251	4	62	1	121	221	321	NaN	521	4.01184258563444	2	0	NaN	3372535.9484226	NaN	3372536.9317949	3372537.44836821
62	18	0	0	90	36.1581920903955	36.241610738255	18	0.600046199820936	2	10	3	NaN	2	4	0.059286764476989	1	1	NaN	252	4	63	1	121	221	321	NaN	521	1.14206772390753	2	1	NaN	3372542.2656799	NaN	3372543.249107	3372543.76565798
62	18	0	0	90	36.1581920903955	36.241610738255	13	0.433366699870676	2	3	4	NaN	1	4	0.059286764476989	1	1	NaN	253	5	1	1	121	221	321	NaN	521	0.010405923705548	1	1	NaN	3372550.0165146	NaN	3372550.9998484	3372551.51641868
62	18	0	0	90	36.1581920903955	36.241610738255	13	0.433366699870676	2	4	2	NaN	1	3	0.059286764476989	1	1	NaN	254	5	2	1	121	221	321	NaN	521	0.642648170702159	1	1	NaN	3372552.333353	NaN	3372553.3168097	3372553.83330743
62	18	0	0	90	36.1581920903955	36.241610738255	9	0.300023099910468	2	10	1	NaN	2	5	0.059286764476989	1	1	NaN	255	5	3	1	121	221	321	NaN	521	1.63668667105958	2	1	NaN	3372555.2836493	NaN	3372556.267054	3372556.78359153
62	18	0	0	90	36.1581920903955	36.241610738255	9	0.300023099910468	2	3	4	NaN	1	5	0.059286764476989	1	1	NaN	256	5	4	1	121	221	321	NaN	521	0.0104261706583202	1	1	NaN	3372559.2340356	NaN	3372560.2174254	3372560.73398593
62	18	0	0	90	36.1581920903955	36.241610738255	20	0.66671799980104	2	6	5	NaN	1	3	0.059286764476989	1	1	NaN	257	5	5	1	121	221	321	NaN	521	0.0104100708849728	2	0	NaN	3372561.5509337	NaN	3372562.5343386	3372563.05087323
62	18	0	0	90	36.1581920903955	36.241610738255	19	0.633382099810988	2	10	5	NaN	2	3	0.059286764476989	1	1	NaN	258	5	6	1	121	221	321	NaN	521	0.0104897092096508	1	0	NaN	3372563.867816	NaN	3372564.8512638	3372565.36777809
62	18	0	0	90	36.1581920903955	36.241610738255	10	0.33335899990052	2	9	1	NaN	2	3	0.059286764476989	1	1	NaN	259	5	7	1	121	221	321	NaN	521	0.0104175237938762	2	1	NaN	3372566.184588	NaN	3372567.1681237	3372567.68466418
62	18	0	0	90	36.1581920903955	36.241610738255	23	0.766725699771196	2	3	1	NaN	1	4	0.059286764476989	1	1	NaN	260	5	8	1	121	221	321	NaN	521	2.40253797080368	2	0	NaN	3372568.5016268	NaN	3372569.4850034	3372570.00156363
62	18	0	0	90	36.1581920903955	36.241610738255	8	0.266687199920416	2	2	6	NaN	1	3	0.059286764476989	1	1	NaN	261	5	9	1	121	221	321	NaN	521	1.06919447053224	2	0	NaN	3372573.218738	NaN	3372574.2021202	3372574.71869393
62	18	0	0	90	36.1581920903955	36.241610738255	18	0.600046199820936	2	5	2	NaN	1	4	0.059286764476989	1	1	NaN	262	5	10	1	121	221	321	NaN	521	2.25448607094586	2	0	NaN	3372576.5856994	NaN	3372577.5691659	3372578.08569253
62	18	0	0	90	36.1581920903955	36.241610738255	0	0	1	11	3	NaN	2	5	0.059286764476989	1	1	NaN	263	5	11	1	111	211	311	NaN	511	4.98759682383388	1	0	NaN	3372581.2360912	NaN	3372582.2196007	3372582.73615458
62	18	0	0	90	36.1581920903955	36.241610738255	7	0.233351299930364	2	3	1	NaN	1	5	0.059286764476989	1	1	NaN	264	5	12	1	121	221	321	NaN	521	1.10367267066613	1	1	NaN	3372588.7202375	NaN	3372589.7036577	3372590.22023573
62	18	0	0	90	36.1581920903955	36.241610738255	24	0.800061599761248	2	2	2	NaN	1	5	0.059286764476989	1	1	NaN	265	5	13	1	121	221	321	NaN	521	1.51869262335822	1	1	NaN	3372592.3371535	NaN	3372593.3206946	3372593.83724308
62	18	0	0	90	36.1581920903955	36.241610738255	8	0.266687199920416	2	7	5	NaN	2	3	0.059286764476989	1	1	NaN	266	5	14	1	121	221	321	NaN	521	4.7650326709263	1	0	NaN	3372596.1709946	NaN	3372597.1544011	3372597.67094933
62	18	0	0	90	36.1581920903955	36.241610738255	19	0.633382099810988	2	9	2	NaN	2	4	0.059286764476989	1	1	NaN	267	5	15	1	121	221	321	NaN	521	1.1608709236607	1	0	NaN	3372603.2550244	NaN	3372604.2384235	3372604.75499178
62	18	0	0	90	36.1581920903955	36.241610738255	24	0.800061599761248	2	11	5	NaN	2	5	0.059286764476989	1	1	NaN	268	5	16	1	121	221	321	NaN	521	1.68454877100885	1	0	NaN	3372607.1554338	NaN	3372608.1388	3372608.65536713
62	18	0	0	90	36.1581920903955	36.241610738255	17	0.566710299830884	2	9	4	NaN	2	4	0.059286764476989	1	1	NaN	269	5	17	1	121	221	321	NaN	521	1.20132972346619	2	1	NaN	3372611.4224616	NaN	3372612.4059029	3372612.92244678
62	18	0	0	90	36.1581920903955	36.241610738255	22	0.733389799781144	2	3	1	NaN	1	5	0.059286764476989	1	1	NaN	270	5	18	1	121	221	321	NaN	521	1.50890617072582	1	1	NaN	3372615.1228594	NaN	3372616.1062491	3372616.62281153
62	18	0	0	90	36.1581920903955	36.241610738255	16	0.533374399840832	2	12	4	NaN	2	4	0.059286764476989	1	1	NaN	271	5	19	1	121	221	321	NaN	521	1.87919697072357	2	1	NaN	3372619.0565906	NaN	3372620.0399738	3372620.55652423
62	18	0	0	90	36.1581920903955	36.241610738255	15	0.50003849985078	2	2	5	NaN	1	5	0.059286764476989	1	1	NaN	272	5	20	1	121	221	321	NaN	521	8.48733001854271	2	0	NaN	3372623.2570026	NaN	3372624.2403894	3372624.75693938
62	18	0	0	90	36.1581920903955	36.241610738255	6	0.200015399940312	2	12	6	NaN	2	3	0.059286764476989	1	1	NaN	273	5	21	1	121	221	321	NaN	521	0.662355032749474	2	1	NaN	3372634.2580328	NaN	3372635.2414739	3372635.75802247
62	18	0	0	90	36.1581920903955	36.241610738255	13	0.433366699870676	2	8	5	NaN	2	5	0.059286764476989	1	1	NaN	274	5	22	1	121	221	321	NaN	521	6.32726787077263	2	1	NaN	3372637.6250651	NaN	3372638.6084664	3372639.12502533
62	18	0	0	90	36.1581920903955	36.241610738255	13	0.433366699870676	2	9	2	NaN	2	3	0.059286764476989	1	1	NaN	275	5	23	1	121	221	321	NaN	521	0.0104086236096919	1	0	NaN	3372646.4426084	NaN	3372647.4260059	3372647.94255358
62	18	0	0	90	36.1581920903955	36.241610738255	14	0.466702599860728	2	3	1	NaN	1	5	0.059286764476989	1	1	NaN	276	5	24	1	121	221	321	NaN	521	0.43172972323373	1	1	NaN	3372648.7761616	NaN	3372649.7595495	3372650.27611548
62	18	0	0	90	36.1581920903955	36.241610738255	23	0.766725699771196	2	2	1	NaN	1	5	0.059286764476989	1	1	NaN	277	5	25	1	121	221	321	NaN	521	1.73763827094808	1	1	NaN	3372651.5264414	NaN	3372652.5098425	3372653.02638193
62	18	0	0	90	36.1581920903955	36.241610738255	10	0.33335899990052	2	12	3	NaN	2	3	0.059286764476989	1	1	NaN	278	5	26	1	121	221	321	NaN	521	0.479032170958817	2	1	NaN	3372655.5767008	NaN	3372656.56026	3372657.07677843
62	18	0	0	90	36.1581920903955	36.241610738255	16	0.533374399840832	2	5	6	NaN	1	3	0.059286764476989	1	1	NaN	279	5	27	1	121	221	321	NaN	521	0.430603823624551	1	1	NaN	3372658.3771659	NaN	3372659.3605133	3372659.87706468
62	18	0	0	90	36.1581920903955	36.241610738255	11	0.366694899890572	2	11	2	NaN	2	4	0.059286764476989	1	1	NaN	280	5	28	1	121	221	321	NaN	521	1.08050087094307	1	0	NaN	3372661.127377	NaN	3372662.1107805	3372662.62733443
62	18	0	0	90	36.1581920903955	36.241610738255	19	0.633382099810988	2	9	4	NaN	2	3	0.059286764476989	1	1	NaN	281	5	29	1	121	221	321	NaN	521	0.0104087237268686	1	0	NaN	3372664.7276044	NaN	3372665.7111213	3372666.22768718
62	18	0	0	90	36.1581920903955	36.241610738255	9	0.300023099910468	2	1	5	NaN	1	5	0.059286764476989	1	1	NaN	282	5	30	1	121	221	321	NaN	521	0.0104254186153412	1	1	NaN	3372667.0446106	NaN	3372668.0280274	3372668.54457028
62	18	0	0	90	36.1581920903955	36.241610738255	0	0	1	10	2	NaN	2	5	0.059286764476989	1	1	NaN	283	5	31	1	111	211	311	NaN	511	3.24571842327714	1	0	NaN	3372669.3781992	NaN	3372670.361579	3372670.87814808
62	18	0	0	90	36.1581920903955	36.241610738255	22	0.733389799781144	2	8	3	NaN	2	4	0.059286764476989	1	1	NaN	284	5	32	1	121	221	321	NaN	521	0.534624565858394	2	1	NaN	3372674.9454284	NaN	3372675.928833	3372676.44534713
62	18	0	0	90	36.1581920903955	36.241610738255	14	0.466702599860728	2	10	5	NaN	2	4	0.059286764476989	1	1	NaN	285	5	33	1	121	221	321	NaN	521	0.0103797754272819	2	1	NaN	3372677.9790037	NaN	3372678.9624395	3372679.47898762
62	18	0	0	90	36.1581920903955	36.241610738255	22	0.733389799781144	2	3	3	NaN	1	4	0.059286764476989	1	1	NaN	286	5	34	1	121	221	321	NaN	521	0.0104131707921624	1	1	NaN	3372680.512607	NaN	3372681.4960218	3372682.01256973
62	18	0	0	90	36.1581920903955	36.241610738255	12	0.400030799880624	2	5	1	NaN	1	4	0.059286764476989	1	1	NaN	287	5	35	1	121	221	321	NaN	521	0.0103816757909954	2	0	NaN	3372682.9961896	NaN	3372683.9795871	3372684.49614052
62	18	0	0	90	36.1581920903955	36.241610738255	8	0.266687199920416	2	4	1	NaN	1	3	0.059286764476989	1	1	NaN	288	5	36	1	121	221	321	NaN	521	0.0104198707267642	1	1	NaN	3372685.5130799	NaN	3372686.4965072	3372687.01305813
62	18	0	0	90	36.1581920903955	36.241610738255	25	0.8333974997513	2	6	5	NaN	1	3	0.059286764476989	1	1	NaN	289	5	37	1	121	221	321	NaN	521	2.96244312357157	2	0	NaN	3372687.8299973	NaN	3372688.8134434	3372689.32995208
62	18	0	0	90	36.1581920903955	36.241610738255	8	0.266687199920416	2	2	2	NaN	1	3	0.059286764476989	1	1	NaN	290	5	38	1	121	221	321	NaN	521	0.0102731427177787	1	1	NaN	3372693.2638521	NaN	3372694.2472524	3372694.76382216
62	18	0	0	90	36.1581920903955	36.241610738255	12	0.400030799880624	2	8	5	NaN	2	5	0.059286764476989	1	1	NaN	291	5	39	1	121	221	321	NaN	521	0.715282870922238	2	1	NaN	3372695.5807632	NaN	3372696.5641626	3372697.08070533
62	18	0	0	90	36.1581920903955	36.241610738255	16	0.533374399840832	2	3	2	NaN	1	3	0.059286764476989	1	1	NaN	292	5	40	1	121	221	321	NaN	521	0.0104117710143328	2	0	NaN	3372698.614417	NaN	3372699.5977873	3372700.11433963
62	18	0	0	90	36.1581920903955	36.241610738255	12	0.400030799880624	2	9	2	NaN	2	4	0.059286764476989	1	1	NaN	293	5	41	1	121	221	321	NaN	521	1.42111822357401	2	1	NaN	3372700.9311699	NaN	3372701.9146848	3372702.43124358
62	18	0	0	90	36.1581920903955	36.241610738255	22	0.733389799781144	2	11	3	NaN	2	5	0.059286764476989	1	1	NaN	294	5	42	1	121	221	321	NaN	521	2.07886277092621	2	1	NaN	3372704.6649733	NaN	3372705.6483895	3372706.16493963
62	18	0	0	90	36.1581920903955	36.241610738255	10	0.33335899990052	2	2	6	NaN	1	5	0.059286764476989	1	1	NaN	295	5	43	1	121	221	321	NaN	521	2.71902542375028	2	0	NaN	3372709.0654258	NaN	3372710.0488261	3372710.56537648
62	18	0	0	90	36.1581920903955	36.241610738255	7	0.233351299930364	2	11	5	NaN	2	5	0.059286764476989	1	1	NaN	296	5	44	1	121	221	321	NaN	521	0.0103044379502535	2	1	NaN	3372714.7491811	NaN	3372715.7326903	3372716.24925906
62	18	0	0	90	36.1581920903955	36.241610738255	12	0.400030799880624	2	11	1	NaN	2	4	0.059286764476989	1	1	NaN	297	5	45	1	121	221	321	NaN	521	0.0139308706857264	2	1	NaN	3372717.0662171	NaN	3372718.0496086	3372718.56615563
62	18	0	0	90	36.1581920903955	36.241610738255	22	0.733389799781144	2	10	4	NaN	2	5	0.059286764476989	1	1	NaN	298	5	46	1	121	221	321	NaN	521	0.676242570858449	2	1	NaN	3372719.5164256	NaN	3372720.4998311	3372721.01639503
62	18	0	0	90	36.1581920903955	36.241610738255	6	0.200015399940312	2	11	2	NaN	2	3	0.059286764476989	1	1	NaN	299	5	47	1	121	221	321	NaN	521	0.444290123414248	2	1	NaN	3372722.5000692	NaN	3372723.4834735	3372724.00002728
62	18	0	0	90	36.1581920903955	36.241610738255	8	0.266687199920416	2	1	4	NaN	1	5	0.059286764476989	1	1	NaN	300	5	48	1	121	221	321	NaN	521	1.68547086138278	1	1	NaN	3372725.2670133	NaN	3372726.2504479	3372726.76696294
62	18	0	0	90	36.1581920903955	36.241610738255	11	0.366694899890572	2	8	1	NaN	2	5	0.059286764476989	1	1	NaN	301	5	49	1	121	221	321	NaN	521	2.09308342356235	2	1	NaN	3372729.2672896	NaN	3372730.250811	3372730.76736128
62	18	0	0	90	36.1581920903955	36.241610738255	9	0.300023099910468	2	6	4	NaN	1	5	0.059286764476989	1	1	NaN	302	5	50	1	121	221	321	NaN	521	0.851506323553622	1	1	NaN	3372733.8844959	NaN	3372734.8679291	3372735.38447758
62	18	0	0	90	36.1581920903955	36.241610738255	21	0.700053899791092	2	4	2	NaN	1	3	0.059286764476989	1	1	NaN	303	5	51	1	121	221	321	NaN	521	4.66064507560804	1	1	NaN	3372737.0514926	NaN	3372738.0349059	3372738.55145242
62	18	0	0	90	36.1581920903955	36.241610738255	20	0.66671799980104	2	3	3	NaN	1	4	0.059286764476989	1	1	NaN	304	5	52	1	121	221	321	NaN	521	3.47009477112442	1	1	NaN	3372744.2021981	NaN	3372745.1855112	3372745.70215153
62	18	0	0	90	36.1581920903955	36.241610738255	22	0.733389799781144	2	12	5	NaN	2	3	0.059286764476989	1	1	NaN	305	5	53	1	121	221	321	NaN	521	0.877850042656064	2	1	NaN	3372749.986108	NaN	3372750.9695024	3372751.48606756
62	18	0	0	90	36.1581920903955	36.241610738255	22	0.733389799781144	2	1	1	NaN	1	3	0.059286764476989	1	1	NaN	306	5	54	1	121	221	321	NaN	521	0.876971223857254	1	1	NaN	3372764.1874922	NaN	3372765.170912	3372765.68745828
62	18	0	0	90	36.1581920903955	36.241610738255	13	0.433366699870676	2	4	1	NaN	1	5	0.059286764476989	1	1	NaN	307	5	55	1	121	221	321	NaN	521	0.404923123773187	2	0	NaN	3372767.3711514	NaN	3372768.3545516	3372768.87110428
62	18	0	0	90	36.1581920903955	36.241610738255	10	0.33335899990052	2	9	5	NaN	2	3	0.059286764476989	1	1	NaN	308	5	56	1	121	221	321	NaN	521	1.4680949235335	2	1	NaN	3372770.1880622	NaN	3372771.1714981	3372771.68804108
62	18	0	0	90	36.1581920903955	36.241610738255	24	0.800061599761248	2	11	2	NaN	2	5	0.059286764476989	1	1	NaN	309	5	57	1	121	221	321	NaN	521	0.0104908091016114	2	1	NaN	3372773.9718102	NaN	3372774.9551929	3372775.47174489
62	18	0	0	90	36.1581920903955	36.241610738255	11	0.366694899890572	2	5	3	NaN	1	3	0.059286764476989	1	1	NaN	310	5	58	1	121	221	321	NaN	521	0.390790770761669	1	1	NaN	3372776.3052293	NaN	3372777.288761	3372777.80530743
62	18	0	0	90	36.1581920903955	36.241610738255	12	0.400030799880624	2	7	2	NaN	2	3	0.059286764476989	1	1	NaN	311	5	59	1	121	221	321	NaN	521	1.03513107076287	2	1	NaN	3372779.0056209	NaN	3372779.9890241	3372780.50557023
62	18	0	0	90	36.1581920903955	36.241610738255	17	0.566710299830884	2	11	5	NaN	2	3	0.059286764476989	1	1	NaN	312	5	60	1	121	221	321	NaN	521	0.628074075561017	1	0	NaN	3372782.3559404	NaN	3372783.3393568	3372783.85589882
62	18	0	0	90	36.1581920903955	36.241610738255	20	0.66671799980104	2	7	5	NaN	2	4	0.059286764476989	1	1	NaN	313	5	61	1	121	221	321	NaN	521	0.365901471115649	1	0	NaN	3372785.3062247	NaN	3372786.289642	3372786.80618973
62	18	0	0	90	36.1581920903955	36.241610738255	6	0.200015399940312	2	10	1	NaN	2	4	0.059286764476989	1	1	NaN	314	5	62	1	121	221	321	NaN	521	0.266700723674148	2	1	NaN	3372787.9898943	NaN	3372788.9732442	3372789.48979578
62	18	0	0	90	36.1581920903955	36.241610738255	9	0.300023099910468	2	4	5	NaN	1	5	0.059286764476989	1	1	NaN	315	5	63	1	121	221	321	NaN	521	0.306794923730195	1	1	NaN	3372790.5733334	NaN	3372791.5568258	3372792.07337458
62	18	0	0	90	36.1581920903955	36.241610738255	10	0.33335899990052	2	1	4	NaN	1	5	0.059286764476989	1	1	NaN	316	6	1	1	121	221	321	NaN	521	0.675377670675516	2	0	NaN	3372797.3406315	NaN	3372798.3241623	3372798.84070823
62	18	0	0	90	36.1581920903955	36.241610738255	10	0.33335899990052	2	5	1	NaN	1	5	0.059286764476989	1	1	NaN	317	6	2	1	121	221	321	NaN	521	0.337897423654795	1	1	NaN	3372800.374262	NaN	3372801.3577764	3372801.87434328
62	18	0	0	90	36.1581920903955	36.241610738255	17	0.566710299830884	2	12	3	NaN	2	4	0.059286764476989	1	1	NaN	318	6	3	1	121	221	321	NaN	521	0.359885518904775	2	1	NaN	3372803.0245506	NaN	3372804.0080465	3372804.52459728
62	18	0	0	90	36.1581920903955	36.241610738255	11	0.366694899890572	2	12	5	NaN	2	4	0.059286764476989	1	1	NaN	319	6	4	1	121	221	321	NaN	521	0.0103969755582511	2	1	NaN	3372805.6915907	NaN	3372806.6749009	3372807.19153352
62	18	0	0	90	36.1581920903955	36.241610738255	7	0.233351299930364	2	9	2	NaN	2	3	0.059286764476989	1	1	NaN	320	6	5	1	121	221	321	NaN	521	0.583069071173668	2	1	NaN	3372808.0250117	NaN	3372809.0085375	3372809.52509033
62	18	0	0	90	36.1581920903955	36.241610738255	24	0.800061599761248	2	2	3	NaN	1	5	0.059286764476989	1	1	NaN	321	6	6	1	121	221	321	NaN	521	0.595157323405147	1	1	NaN	3372810.925343	NaN	3372811.908829	3372812.42538078
62	18	0	0	90	36.1581920903955	36.241610738255	22	0.733389799781144	2	7	1	NaN	2	5	0.059286764476989	1	1	NaN	322	6	7	1	121	221	321	NaN	521	0.141994170844555	2	1	NaN	3372813.8423718	NaN	3372814.8257782	3372815.34232873
62	18	0	0	90	36.1581920903955	36.241610738255	8	0.266687199920416	2	10	1	NaN	2	3	0.059286764476989	1	1	NaN	323	6	8	1	121	221	321	NaN	521	0.715440823230892	2	1	NaN	3372816.2925475	NaN	3372817.2760218	3372817.79257338
62	18	0	0	90	36.1581920903955	36.241610738255	13	0.433366699870676	2	1	3	NaN	1	3	0.059286764476989	1	1	NaN	324	6	9	1	121	221	321	NaN	521	2.16990797081962	2	0	NaN	3372819.3261118	NaN	3372820.3096456	3372820.82620263
62	18	0	0	90	36.1581920903955	36.241610738255	25	0.8333974997513	2	4	3	NaN	1	5	0.059286764476989	1	1	NaN	325	6	10	1	121	221	321	NaN	521	0.0103654903359711	1	1	NaN	3372824.04336	NaN	3372825.0267881	3372825.54334761
62	18	0	0	90	36.1581920903955	36.241610738255	14	0.466702599860728	2	11	3	NaN	2	5	0.059286764476989	1	1	NaN	326	6	11	1	121	221	321	NaN	521	0.713659671135247	1	0	NaN	3372826.726979	NaN	3372827.7103689	3372828.22692263
62	18	0	0	90	36.1581920903955	36.241610738255	21	0.700053899791092	2	6	4	NaN	1	4	0.059286764476989	1	1	NaN	327	6	12	1	121	221	321	NaN	521	1.52797222323716	1	1	NaN	3372829.7605893	NaN	3372830.7440314	3372831.26057908
62	18	0	0	90	36.1581920903955	36.241610738255	6	0.200015399940312	2	3	2	NaN	1	5	0.059286764476989	1	1	NaN	328	6	13	1	121	221	321	NaN	521	0.0104079707525671	1	1	NaN	3372833.6110322	NaN	3372834.5944026	3372835.11093343
62	18	0	0	90	36.1581920903955	36.241610738255	24	0.800061599761248	2	5	4	NaN	1	5	0.059286764476989	1	1	NaN	329	6	14	1	121	221	321	NaN	521	1.04826662363485	2	0	NaN	3372835.9279768	NaN	3372836.9111796	3372837.42783688
62	18	0	0	90	36.1581920903955	36.241610738255	8	0.266687199920416	2	12	5	NaN	2	5	0.059286764476989	1	1	NaN	330	6	15	1	121	221	321	NaN	521	0.737824170850217	1	0	NaN	3372839.2948769	NaN	3372840.2782703	3372840.79483273
62	18	0	0	90	36.1581920903955	36.241610738255	12	0.400030799880624	2	11	1	NaN	2	3	0.059286764476989	1	1	NaN	331	6	16	1	121	221	321	NaN	521	0.0103940237313509	2	1	NaN	3372842.3451882	NaN	3372843.3285871	3372843.84513028
62	18	0	0	90	36.1581920903955	36.241610738255	0	0	1	7	4	NaN	2	4	0.059286764476989	1	1	NaN	332	6	17	1	111	211	311	NaN	511	0.330588270910084	2	1	NaN	3372844.6620686	NaN	3372845.6454763	3372846.16202043
62	18	0	0	90	36.1581920903955	36.241610738255	8	0.266687199920416	2	3	4	NaN	1	4	0.059286764476989	1	1	NaN	333	6	18	1	121	221	321	NaN	521	0.824749171268195	2	0	NaN	3372847.2955609	NaN	3372848.2790704	3372848.79560773
62	18	0	0	90	36.1581920903955	36.241610738255	17	0.566710299830884	2	6	2	NaN	1	3	0.059286764476989	1	1	NaN	334	6	19	1	121	221	321	NaN	521	0.37083179038018	2	0	NaN	3372850.4291525	NaN	3372851.4127135	3372851.92926301
62	18	0	0	90	36.1581920903955	36.241610738255	23	0.766725699771196	2	12	4	NaN	2	4	0.059286764476989	1	1	NaN	335	6	20	1	121	221	321	NaN	521	0.599619923625141	2	1	NaN	3372853.1127795	NaN	3372854.0963071	3372854.61285438
62	18	0	0	90	36.1581920903955	36.241610738255	16	0.533374399840832	2	4	3	NaN	1	3	0.059286764476989	1	1	NaN	336	6	21	1	121	221	321	NaN	521	2.07437921874225	1	1	NaN	3372856.0298605	NaN	3372857.0132522	3372857.52979728
62	18	0	0	90	36.1581920903955	36.241610738255	12	0.400030799880624	2	6	2	NaN	1	5	0.059286764476989	1	1	NaN	337	6	22	1	121	221	321	NaN	521	0.842628023587167	1	1	NaN	3372860.4134917	NaN	3372861.3970279	3372861.91357278
62	18	0	0	90	36.1581920903955	36.241610738255	24	0.800061599761248	2	8	6	NaN	2	5	0.059286764476989	1	1	NaN	338	6	23	1	121	221	321	NaN	521	0.0103627284988761	1	0	NaN	3372863.5639077	NaN	3372864.5473278	3372865.06387707
62	18	0	0	90	36.1581920903955	36.241610738255	14	0.466702599860728	2	10	1	NaN	2	5	0.059286764476989	1	1	NaN	339	6	24	1	121	221	321	NaN	521	0.0103996233083308	2	1	NaN	3372865.8973944	NaN	3372866.8808901	3372867.39744188
62	18	0	0	90	36.1581920903955	36.241610738255	16	0.533374399840832	2	11	3	NaN	2	4	0.059286764476989	1	1	NaN	340	6	25	1	121	221	321	NaN	521	4.31425117095932	1	0	NaN	3372868.214385	NaN	3372869.1978146	3372869.71433133
62	18	0	0	90	36.1581920903955	36.241610738255	24	0.800061599761248	2	9	5	NaN	2	5	0.059286764476989	1	1	NaN	341	6	26	1	121	221	321	NaN	521	0.0104023236781359	2	1	NaN	3372875.0983146	NaN	3372876.0817945	3372876.59835078
62	18	0	0	90	36.1581920903955	36.241610738255	25	0.8333974997513	2	1	6	NaN	1	3	0.059286764476989	1	1	NaN	342	6	27	1	121	221	321	NaN	521	0.313011771067977	2	0	NaN	3372877.415294	NaN	3372878.3986813	3372878.91523663
62	18	0	0	90	36.1581920903955	36.241610738255	23	0.766725699771196	2	5	5	NaN	1	3	0.059286764476989	1	1	NaN	343	6	28	1	121	221	321	NaN	521	2.11206232383847	1	1	NaN	3372880.0322102	NaN	3372881.0156209	3372881.53216918
62	18	0	0	90	36.1581920903955	36.241610738255	15	0.50003849985078	2	1	2	NaN	1	3	0.059286764476989	1	1	NaN	344	6	29	1	121	221	321	NaN	521	2.11830701865256	2	0	NaN	3372884.4659915	NaN	3372885.4493757	3372885.96592768
62	18	0	0	90	36.1581920903955	36.241610738255	11	0.366694899890572	2	2	4	NaN	1	5	0.059286764476989	1	1	NaN	345	6	30	1	121	221	321	NaN	521	0.571514023467898	2	0	NaN	3372888.9329791	NaN	3372889.916489	3372890.43304288
62	18	0	0	90	36.1581920903955	36.241610738255	16	0.533374399840832	2	6	2	NaN	1	4	0.059286764476989	1	1	NaN	346	6	31	1	121	221	321	NaN	521	0.855415370780975	2	0	NaN	3372891.8167013	NaN	3372892.8000983	3372893.31665123
62	18	0	0	90	36.1581920903955	36.241610738255	8	0.266687199920416	2	4	3	NaN	1	5	0.059286764476989	1	1	NaN	347	6	32	1	121	221	321	NaN	521	1.25306192366406	2	0	NaN	3372895.0836683	NaN	3372896.0670941	3372896.58364618
62	18	0	0	90	36.1581920903955	36.241610738255	13	0.433366699870676	2	10	3	NaN	2	5	0.059286764476989	1	1	NaN	348	6	33	1	121	221	321	NaN	521	2.39764737058431	1	0	NaN	3372898.6508	NaN	3372899.6341025	3372900.15065493
62	18	0	0	90	36.1581920903955	36.241610738255	15	0.50003849985078	2	9	4	NaN	2	3	0.059286764476989	1	1	NaN	349	6	34	1	121	221	321	NaN	521	1.21778317075223	2	1	NaN	3372903.3510356	NaN	3372904.3345739	3372904.85111163
62	18	0	0	90	36.1581920903955	36.241610738255	19	0.633382099810988	2	2	2	NaN	1	5	0.059286764476989	1	1	NaN	350	6	35	1	121	221	321	NaN	521	1.17164567112923	2	0	NaN	3372906.8848697	NaN	3372907.8682721	3372908.38479733
62	18	0	0	90	36.1581920903955	36.241610738255	6	0.200015399940312	2	9	6	NaN	2	3	0.059286764476989	1	1	NaN	351	6	36	1	121	221	321	NaN	521	1.34827722376212	2	1	NaN	3372910.4685442	NaN	3372911.4519259	3372911.96848818
62	18	0	0	90	36.1581920903955	36.241610738255	10	0.33335899990052	2	7	6	NaN	2	4	0.059286764476989	1	1	NaN	352	6	37	1	121	221	321	NaN	521	2.41025607101619	2	1	NaN	3372914.3022203	NaN	3372915.2856415	3372915.80218993
62	18	0	0	90	36.1581920903955	36.241610738255	14	0.466702599860728	2	7	4	NaN	2	4	0.059286764476989	1	1	NaN	353	6	38	1	121	221	321	NaN	521	2.57293797563761	2	1	NaN	3372919.2193094	NaN	3372920.2027997	3372920.71935172
62	18	0	0	90	36.1581920903955	36.241610738255	15	0.50003849985078	2	4	4	NaN	1	3	0.059286764476989	1	1	NaN	354	6	39	1	121	221	321	NaN	521	0.497639570850879	2	0	NaN	3372924.2864284	NaN	3372925.2699586	3372925.78650643
62	18	0	0	90	36.1581920903955	36.241610738255	0	0	1	9	6	NaN	2	5	0.059286764476989	1	1	NaN	355	6	40	1	111	211	311	NaN	511	1.62481232313439	2	1	NaN	3372927.1034957	NaN	3372928.0868997	3372928.60345448
62	18	0	0	90	36.1581920903955	36.241610738255	19	0.633382099810988	2	6	2	NaN	1	4	0.059286764476989	1	1	NaN	356	6	41	1	121	221	321	NaN	521	0.747157723642886	1	1	NaN	3372931.0372249	NaN	3372932.0206177	3372932.53716848
62	18	0	0	90	36.1581920903955	36.241610738255	25	0.8333974997513	2	12	1	NaN	2	4	0.059286764476989	1	1	NaN	357	6	42	1	121	221	321	NaN	521	2.6445326237008	1	0	NaN	3372934.2041672	NaN	3372935.187599	3372935.70415388
62	18	0	0	90	36.1581920903955	36.241610738255	15	0.50003849985078	2	8	5	NaN	2	3	0.059286764476989	1	1	NaN	358	6	43	1	121	221	321	NaN	521	2.71696336613968	2	1	NaN	3372939.1713448	NaN	3372940.1547399	3372940.67130203
62	18	0	0	90	36.1581920903955	36.241610738255	24	0.800061599761248	2	10	6	NaN	2	4	0.059286764476989	1	1	NaN	359	6	44	1	121	221	321	NaN	521	2.67657452309504	2	1	NaN	3372944.3718783	NaN	3372945.3552737	3372945.87181718
62	18	0	0	90	36.1581920903955	36.241610738255	25	0.8333974997513	2	9	1	NaN	2	3	0.059286764476989	1	1	NaN	360	6	45	1	121	221	321	NaN	521	0.997414137702435	2	1	NaN	3372949.5390851	NaN	3372950.5224368	3372951.03899456
62	18	0	0	90	36.1581920903955	36.241610738255	19	0.633382099810988	2	12	5	NaN	2	4	0.059286764476989	1	1	NaN	361	6	46	1	121	221	321	NaN	521	0.840655100066215	2	1	NaN	3372952.8560246	NaN	3372953.8394374	3372954.3559966
62	18	0	0	90	36.1581920903955	36.241610738255	24	0.800061599761248	2	1	2	NaN	1	5	0.059286764476989	1	1	NaN	362	6	47	1	121	221	321	NaN	521	0.959242570679635	2	0	NaN	3372956.0729892	NaN	3372957.0564101	3372957.57296033
62	18	0	0	90	36.1581920903955	36.241610738255	10	0.33335899990052	2	2	6	NaN	1	4	0.059286764476989	1	1	NaN	363	6	48	1	121	221	321	NaN	521	3.2842910233885	2	0	NaN	3372959.539889	NaN	3372960.5234236	3372961.03997008
62	18	0	0	90	36.1581920903955	36.241610738255	11	0.366694899890572	2	3	2	NaN	1	4	0.059286764476989	1	1	NaN	364	6	49	1	121	221	321	NaN	521	0.677765023894608	2	0	NaN	3372965.6905975	NaN	3372966.674028	3372967.19057828
62	18	0	0	90	36.1581920903955	36.241610738255	23	0.766725699771196	2	8	6	NaN	2	3	0.059286764476989	1	1	NaN	365	6	50	1	121	221	321	NaN	521	0.0103929238393903	2	1	NaN	3372968.774271	NaN	3372969.7576463	3372970.27421718
62	18	0	0	90	36.1581920903955	36.241610738255	16	0.533374399840832	2	11	2	NaN	2	5	0.059286764476989	1	1	NaN	366	6	51	1	121	221	321	NaN	521	6.38049513753504	2	1	NaN	3372971.1078336	NaN	3372972.0912199	3372972.60778136
62	18	0	0	90	36.1581920903955	36.241610738255	20	0.66671799980104	2	6	2	NaN	1	4	0.059286764476989	1	1	NaN	367	6	52	1	121	221	321	NaN	521	0.279627023730427	1	1	NaN	3372980.0086971	NaN	3372980.9920857	3372981.50865338
62	18	0	0	90	36.1581920903955	36.241610738255	13	0.433366699870676	2	6	1	NaN	1	5	0.059286764476989	1	1	NaN	368	6	53	1	121	221	321	NaN	521	0.253861223347485	1	1	NaN	3372982.658969	NaN	3372983.642346	3372984.15891158
62	18	0	0	90	36.1581920903955	36.241610738255	10	0.33335899990052	2	11	6	NaN	2	4	0.059286764476989	1	1	NaN	369	6	54	1	121	221	321	NaN	521	1.43097331840545	1	0	NaN	3372985.2258827	NaN	3372986.2092798	3372986.72582418
62	18	0	0	90	36.1581920903955	36.241610738255	20	0.66671799980104	2	3	4	NaN	1	3	0.059286764476989	1	1	NaN	370	6	55	1	121	221	321	NaN	521	0.206167418975383	2	0	NaN	3372989.0262316	NaN	3372990.0096463	3372990.52619558
62	18	0	0	90	36.1581920903955	36.241610738255	6	0.200015399940312	2	11	4	NaN	2	4	0.059286764476989	1	1	NaN	371	6	56	1	121	221	321	NaN	521	3.09779342357069	1	0	NaN	3372991.5431652	NaN	3372992.5266502	3372993.04312138
62	18	0	0	90	36.1581920903955	36.241610738255	9	0.300023099910468	2	4	5	NaN	1	3	0.059286764476989	1	1	NaN	372	6	57	1	121	221	321	NaN	521	0.0947294710204005	2	0	NaN	3372997.1936041	NaN	3372998.1771219	3372998.69366433
62	18	0	0	90	36.1581920903955	36.241610738255	18	0.600046199820936	2	9	4	NaN	2	5	0.059286764476989	1	1	NaN	373	6	58	1	121	221	321	NaN	521	0.325826870743185	2	1	NaN	3372999.6106289	NaN	3373000.5940224	3373001.11057373
62	18	0	0	90	36.1581920903955	36.241610738255	6	0.200015399940312	2	8	3	NaN	2	3	0.059286764476989	1	1	NaN	374	6	59	1	121	221	321	NaN	521	3.8123829709366	2	1	NaN	3373002.2442406	NaN	3373003.2276021	3373003.74415933
62	18	0	0	90	36.1581920903955	36.241610738255	14	0.466702599860728	2	4	6	NaN	1	4	0.059286764476989	1	1	NaN	375	6	60	1	121	221	321	NaN	521	1.12636037077755	1	1	NaN	3373008.3781537	NaN	3373009.3616311	3373009.87810053
62	18	0	0	90	36.1581920903955	36.241610738255	7	0.233351299930364	2	7	3	NaN	2	4	0.059286764476989	1	1	NaN	376	6	61	1	121	221	321	NaN	521	3.29321057070047	1	0	NaN	3373011.9950565	NaN	3373012.9785123	3373013.49511813
62	18	0	0	90	36.1581920903955	36.241610738255	12	0.400030799880624	2	6	1	NaN	1	4	0.059286764476989	1	1	NaN	377	6	62	1	121	221	321	NaN	521	1.66086322348565	2	0	NaN	3373017.5957133	NaN	3373018.5791352	3373019.09566778
62	18	0	0	90	36.1581920903955	36.241610738255	7	0.233351299930364	2	4	4	NaN	1	5	0.059286764476989	1	1	NaN	378	6	63	1	121	221	321	NaN	521	0.086081123445183	2	0	NaN	3373021.746137	NaN	3373022.7295303	3373023.24608708
62	18	0	0	90	36.1581920903955	36.241610738255	8	0.266687199920416	2	7	1	NaN	2	3	0.059286764476989	1	1	NaN	379	7	1	1	121	221	321	NaN	521	0.010409370996058	2	1	NaN	3373028.1634151	NaN	3373029.1468184	3373029.66337383
62	18	0	0	90	36.1581920903955	36.241610738255	22	0.733389799781144	2	5	3	NaN	1	3	0.059286764476989	1	1	NaN	380	7	2	1	121	221	321	NaN	521	0.27851992379874	1	1	NaN	3373030.7303196	NaN	3373031.7137411	3373032.23030128
62	18	0	0	90	36.1581920903955	36.241610738255	18	0.600046199820936	2	2	1	NaN	1	4	0.059286764476989	1	1	NaN	381	7	3	1	121	221	321	NaN	521	0.0305462712422013	2	0	NaN	3373033.3139301	NaN	3373034.2973392	3373034.81388183
62	18	0	0	90	36.1581920903955	36.241610738255	18	0.600046199820936	2	8	4	NaN	2	3	0.059286764476989	1	1	NaN	382	7	4	1	121	221	321	NaN	521	0.82411282369867	1	0	NaN	3373035.6641793	NaN	3373036.647571	3373037.16411478
62	18	0	0	90	36.1581920903955	36.241610738255	24	0.800061599761248	2	10	5	NaN	2	4	0.059286764476989	1	1	NaN	383	7	5	1	121	221	321	NaN	521	0.154621370602399	2	1	NaN	3373038.7978613	NaN	3373039.7812227	3373040.29775403
62	18	0	0	90	36.1581920903955	36.241610738255	14	0.466702599860728	2	5	4	NaN	1	4	0.059286764476989	1	1	NaN	384	7	6	1	121	221	321	NaN	521	3.66387742385268	1	1	NaN	3373041.2647002	NaN	3373042.2481224	3373042.76466288
62	18	0	0	90	36.1581920903955	36.241610738255	7	0.233351299930364	2	9	1	NaN	2	5	0.059286764476989	1	1	NaN	385	7	7	1	121	221	321	NaN	521	0.0104124709032476	2	1	NaN	3373047.4486333	NaN	3373048.4320717	3373048.94860113
62	18	0	0	90	36.1581920903955	36.241610738255	16	0.533374399840832	2	1	1	NaN	1	5	0.059286764476989	1	1	NaN	386	7	8	1	121	221	321	NaN	521	4.19491832330823	2	0	NaN	3373049.7655458	NaN	3373050.7489498	3373051.26550488
62	18	0	0	90	36.1581920903955	36.241610738255	21	0.700053899791092	2	12	4	NaN	2	3	0.059286764476989	1	1	NaN	387	7	9	1	121	221	321	NaN	521	3.17441677581519	1	0	NaN	3373056.2661878	NaN	3373057.2495869	3373057.76614062
62	18	0	0	90	36.1581920903955	36.241610738255	25	0.8333974997513	2	5	6	NaN	1	5	0.059286764476989	1	1	NaN	388	7	10	1	121	221	321	NaN	521	0.962843732908368	1	1	NaN	3373061.7500687	NaN	3373062.7334672	3373063.25001357
62	18	0	0	90	36.1581920903955	36.241610738255	23	0.766725699771196	2	6	5	NaN	1	4	0.059286764476989	1	1	NaN	389	7	11	1	121	221	321	NaN	521	2.2277199709788	1	1	NaN	3373068.5007384	NaN	3373069.4841671	3373070.00067643
62	18	0	0	90	36.1581920903955	36.241610738255	15	0.50003849985078	2	7	6	NaN	2	5	0.059286764476989	1	1	NaN	390	7	12	1	121	221	321	NaN	521	0.285409623291343	1	0	NaN	3373073.0512108	NaN	3373074.0345679	3373074.55112188
62	18	0	0	90	36.1581920903955	36.241610738255	17	0.566710299830884	2	2	5	NaN	1	4	0.059286764476989	1	1	NaN	391	7	13	1	121	221	321	NaN	521	0.781491970643401	1	1	NaN	3373075.65142	NaN	3373076.6348272	3373077.15136903
62	18	0	0	90	36.1581920903955	36.241610738255	7	0.233351299930364	2	10	4	NaN	2	4	0.059286764476989	1	1	NaN	392	7	14	1	121	221	321	NaN	521	0.0545076234266162	1	0	NaN	3373082.6019875	NaN	3373083.5855234	3373084.10206278
62	18	0	0	90	36.1581920903955	36.241610738255	21	0.700053899791092	2	10	3	NaN	2	3	0.059286764476989	1	1	NaN	393	7	15	1	121	221	321	NaN	521	0.0103607284836471	2	1	NaN	3373085.4350497	NaN	3373086.4191443	3373086.93566637
62	18	0	0	90	36.1581920903955	36.241610738255	9	0.300023099910468	2	9	3	NaN	2	5	0.059286764476989	1	1	NaN	394	7	16	1	121	221	321	NaN	521	4.01499652350321	2	1	NaN	3373087.7692831	NaN	3373088.7526816	3373089.26923538
62	18	0	0	90	36.1581920903955	36.241610738255	15	0.50003849985078	2	5	4	NaN	1	5	0.059286764476989	1	1	NaN	395	7	17	1	121	221	321	NaN	521	7.1210949709639	2	0	NaN	3373094.1032289	NaN	3373095.0866305	3373095.60318403
62	18	0	0	90	36.1581920903955	36.241610738255	8	0.266687199920416	2	8	6	NaN	2	5	0.059286764476989	1	1	NaN	396	7	18	1	121	221	321	NaN	521	0.871367823798209	1	0	NaN	3373103.7374862	NaN	3373104.7209174	3373105.23748038
62	18	0	0	90	36.1581920903955	36.241610738255	23	0.766725699771196	2	9	6	NaN	2	4	0.059286764476989	1	1	NaN	397	7	19	1	121	221	321	NaN	521	5.14332392346114	2	1	NaN	3373106.9211504	NaN	3373107.9045935	3373108.42110628
62	18	0	0	90	36.1581920903955	36.241610738255	7	0.233351299930364	2	7	4	NaN	2	5	0.059286764476989	1	1	NaN	398	7	20	1	121	221	321	NaN	521	0.641434523742646	2	1	NaN	3373114.4552513	NaN	3373115.4386419	3373115.95519188
62	18	0	0	90	36.1581920903955	36.241610738255	16	0.533374399840832	2	1	5	NaN	1	3	0.059286764476989	1	1	NaN	399	7	21	1	121	221	321	NaN	521	17.8202657708898	2	0	NaN	3373117.5721841	NaN	3373118.5556048	3373119.07215573
62	18	0	0	90	36.1581920903955	36.241610738255	17	0.566710299830884	2	10	4	NaN	2	5	0.059286764476989	1	1	NaN	400	7	22	1	121	221	321	NaN	521	0.382552423514426	1	0	NaN	3373138.0741063	NaN	3373139.0576251	3373139.57417668
62	18	0	0	90	36.1581920903955	36.241610738255	11	0.366694899890572	2	6	2	NaN	1	5	0.059286764476989	1	1	NaN	401	7	23	1	121	221	321	NaN	521	0.378100495319813	1	1	NaN	3373140.7744792	NaN	3373141.7578815	3373142.2744446
62	18	0	0	90	36.1581920903955	36.241610738255	25	0.8333974997513	2	8	5	NaN	2	3	0.059286764476989	1	1	NaN	402	7	24	1	121	221	321	NaN	521	0.0103935236111283	1	0	NaN	3373143.4747383	NaN	3373144.4581409	3373144.97470548
62	18	0	0	90	36.1581920903955	36.241610738255	20	0.66671799980104	2	12	2	NaN	2	5	0.059286764476989	1	1	NaN	403	7	25	1	121	221	321	NaN	521	1.44892867095768	2	1	NaN	3373145.7916427	NaN	3373146.7750651	3373147.29160153
62	18	0	0	90	36.1581920903955	36.241610738255	24	0.800061599761248	2	4	5	NaN	1	4	0.059286764476989	1	1	NaN	404	7	26	1	121	221	321	NaN	521	1.24198512313887	1	1	NaN	3373149.5586796	NaN	3373150.542082	3373151.05863918
62	18	0	0	90	36.1581920903955	36.241610738255	0	0	1	12	1	NaN	2	4	0.059286764476989	1	1	NaN	405	7	27	1	111	211	311	NaN	511	1.13164017070085	2	1	NaN	3373153.1090319	NaN	3373154.092419	3373154.60898063
62	18	0	0	90	36.1581920903955	36.241610738255	13	0.433366699870676	2	1	4	NaN	1	5	0.059286764476989	1	1	NaN	406	7	28	1	121	221	321	NaN	521	2.26551992353052	2	0	NaN	3373156.5593752	NaN	3373157.5427663	3373158.05932738
62	18	0	0	90	36.1581920903955	36.241610738255	10	0.33335899990052	2	1	2	NaN	1	5	0.059286764476989	1	1	NaN	407	7	29	1	121	221	321	NaN	521	7.01149662351236	2	0	NaN	3373161.2931804	NaN	3373162.2765634	3373162.79311468
62	18	0	0	90	36.1581920903955	36.241610738255	24	0.800061599761248	2	12	3	NaN	2	4	0.059286764476989	1	1	NaN	408	7	30	1	121	221	321	NaN	521	0.652295623905957	1	0	NaN	3373170.6607341	NaN	3373171.644157	3373172.16070888
62	18	0	0	90	36.1581920903955	36.241610738255	13	0.433366699870676	2	7	2	NaN	2	5	0.059286764476989	1	1	NaN	409	7	31	1	121	221	321	NaN	521	0.0104269706644118	1	0	NaN	3373173.6276004	NaN	3373174.6111049	3373175.12766483
62	18	0	0	90	36.1581920903955	36.241610738255	21	0.700053899791092	2	11	4	NaN	2	5	0.059286764476989	1	1	NaN	410	7	32	1	121	221	321	NaN	521	0.447959823533893	1	0	NaN	3373175.9444811	NaN	3373176.9280038	3373177.44455938
62	18	0	0	90	36.1581920903955	36.241610738255	9	0.300023099910468	2	8	4	NaN	2	3	0.059286764476989	1	1	NaN	411	7	33	1	121	221	321	NaN	521	0.439752670936286	1	0	NaN	3373178.7447648	NaN	3373179.7282778	3373180.24482793
62	18	0	0	90	36.1581920903955	36.241610738255	9	0.300023099910468	2	7	5	NaN	2	4	0.059286764476989	1	1	NaN	412	7	34	1	121	221	321	NaN	521	0.425693723373115	2	1	NaN	3373181.4951562	NaN	3373182.4785583	3373182.99510828
62	18	0	0	90	36.1581920903955	36.241610738255	20	0.66671799980104	2	10	2	NaN	2	5	0.059286764476989	1	1	NaN	413	7	35	1	121	221	321	NaN	521	0.524273423478007	2	1	NaN	3373184.2288284	NaN	3373185.2121532	3373185.72871078
62	18	0	0	90	36.1581920903955	36.241610738255	10	0.33335899990052	2	8	4	NaN	2	5	0.059286764476989	1	1	NaN	414	7	36	1	121	221	321	NaN	521	0.442228523548692	2	1	NaN	3373187.0623668	NaN	3373188.045764	3373188.56232278
62	18	0	0	90	36.1581920903955	36.241610738255	19	0.633382099810988	2	12	2	NaN	2	4	0.059286764476989	1	1	NaN	415	7	37	1	121	221	321	NaN	521	0.532507970929146	2	1	NaN	3373189.8126271	NaN	3373190.7960415	3373191.31258913
62	18	0	0	90	36.1581920903955	36.241610738255	12	0.400030799880624	2	5	3	NaN	1	5	0.059286764476989	1	1	NaN	416	7	38	1	121	221	321	NaN	521	0.586270871106535	2	0	NaN	3373192.6629075	NaN	3373193.6463381	3373194.16286003
62	18	0	0	90	36.1581920903955	36.241610738255	17	0.566710299830884	2	1	1	NaN	1	4	0.059286764476989	1	1	NaN	417	7	39	1	121	221	321	NaN	521	0.445644670631737	2	0	NaN	3373195.5632044	NaN	3373196.5466054	3373197.06315083
62	18	0	0	90	36.1581920903955	36.241610738255	11	0.366694899890572	2	2	2	NaN	1	4	0.059286764476989	1	1	NaN	418	7	40	1	121	221	321	NaN	521	0.535259323194623	2	0	NaN	3373198.3134718	NaN	3373199.2968639	3373199.81341948
62	18	0	0	90	36.1581920903955	36.241610738255	23	0.766725699771196	2	11	4	NaN	2	5	0.059286764476989	1	1	NaN	419	7	41	1	121	221	321	NaN	521	0.596997018437833	1	0	NaN	3373201.1637607	NaN	3373202.1472023	3373202.66369728
62	18	0	0	90	36.1581920903955	36.241610738255	8	0.266687199920416	2	10	3	NaN	2	5	0.059286764476989	1	1	NaN	420	7	42	1	121	221	321	NaN	521	1.04834842355922	2	1	NaN	3373204.0806957	NaN	3373205.0640911	3373205.58066108
62	18	0	0	90	36.1581920903955	36.241610738255	0	0	1	8	2	NaN	2	5	0.059286764476989	1	1	NaN	421	7	43	1	111	211	311	NaN	511	0.64130247104913	2	1	NaN	3373207.8477273	NaN	3373208.831157	3373209.34769033
62	18	0	0	90	36.1581920903955	36.241610738255	9	0.300023099910468	2	8	4	NaN	2	3	0.059286764476989	1	1	NaN	422	7	44	1	121	221	321	NaN	521	0.458685770630836	2	1	NaN	3373210.7978852	NaN	3373211.7814333	3373212.29798123
62	18	0	0	90	36.1581920903955	36.241610738255	6	0.200015399940312	2	4	1	NaN	1	5	0.059286764476989	1	1	NaN	423	7	45	1	121	221	321	NaN	521	4.02013847092167	1	1	NaN	3373213.5649601	NaN	3373214.548358	3373215.06492553
62	18	0	0	90	36.1581920903955	36.241610738255	7	0.233351299930364	2	1	5	NaN	1	5	0.059286764476989	1	1	NaN	424	7	46	1	121	221	321	NaN	521	0.0104334186762571	1	1	NaN	3373220.0655784	NaN	3373221.049014	3373221.56555168
62	18	0	0	90	36.1581920903955	36.241610738255	23	0.766725699771196	2	10	3	NaN	2	3	0.059286764476989	1	1	NaN	425	7	47	1	121	221	321	NaN	521	0.0104081709869206	2	1	NaN	3373222.3991674	NaN	3373223.3825647	3373223.89911453
62	18	0	0	90	36.1581920903955	36.241610738255	25	0.8333974997513	2	12	3	NaN	2	3	0.059286764476989	1	1	NaN	426	7	48	1	121	221	321	NaN	521	6.40507122362033	2	1	NaN	3373224.7159437	NaN	3373225.6994644	3373226.21601918
62	18	0	0	90	36.1581920903955	36.241610738255	7	0.233351299930364	2	12	6	NaN	2	4	0.059286764476989	1	1	NaN	427	7	49	1	121	221	321	NaN	521	0.15092087071389	2	1	NaN	3373233.6336116	NaN	3373234.6170005	3373235.13355203
62	18	0	0	90	36.1581920903955	36.241610738255	22	0.733389799781144	2	8	2	NaN	2	3	0.059286764476989	1	1	NaN	428	7	50	1	121	221	321	NaN	521	0.676215071231127	2	1	NaN	3373236.1005281	NaN	3373237.083922	3373237.60046573
62	18	0	0	90	36.1581920903955	36.241610738255	13	0.433366699870676	2	9	6	NaN	2	4	0.059286764476989	1	1	NaN	429	7	51	1	121	221	321	NaN	521	2.11657457053661	2	1	NaN	3373239.0840332	NaN	3373240.0675484	3373240.58410543
62	18	0	0	90	36.1581920903955	36.241610738255	19	0.633382099810988	2	10	6	NaN	2	3	0.059286764476989	1	1	NaN	430	7	52	1	121	221	321	NaN	521	0.447973823640496	2	1	NaN	3373243.6012243	NaN	3373244.5846604	3373245.10120538
62	18	0	0	90	36.1581920903955	36.241610738255	18	0.600046199820936	2	7	5	NaN	2	4	0.059286764476989	1	1	NaN	431	7	53	1	121	221	321	NaN	521	0.0104086711071432	2	1	NaN	3373246.368199	NaN	3373247.3516025	3373247.86814213
62	18	0	0	90	36.1581920903955	36.241610738255	21	0.700053899791092	2	12	4	NaN	2	5	0.059286764476989	1	1	NaN	432	7	54	1	121	221	321	NaN	521	0.0103971231728792	1	0	NaN	3373248.6850786	NaN	3373249.6684899	3373250.18504158
62	18	0	0	90	36.1581920903955	36.241610738255	15	0.50003849985078	2	3	6	NaN	1	3	0.059286764476989	1	1	NaN	433	7	55	1	121	221	321	NaN	521	0.0103958235122263	1	1	NaN	3373251.0019081	NaN	3373251.9853706	3373252.50192928
62	18	0	0	90	36.1581920903955	36.241610738255	11	0.366694899890572	2	4	5	NaN	1	4	0.059286764476989	1	1	NaN	434	7	56	1	121	221	321	NaN	521	0.0104019236750901	2	0	NaN	3373253.3189555	NaN	3373254.302261	3373254.81882598
62	18	0	0	90	36.1581920903955	36.241610738255	12	0.400030799880624	2	10	6	NaN	2	4	0.059286764476989	1	1	NaN	435	7	57	1	121	221	321	NaN	521	0.260428670793772	2	1	NaN	3373255.6524324	NaN	3373256.6358428	3373257.15239083
62	18	0	0	90	36.1581920903955	36.241610738255	0	0	1	5	1	NaN	1	4	0.059286764476989	1	1	NaN	436	7	58	1	111	211	311	NaN	511	6.68591777095571	1	1	NaN	3373258.2192228	NaN	3373259.2027625	3373259.71929833
62	18	0	0	90	36.1581920903955	36.241610738255	25	0.8333974997513	2	4	3	NaN	1	4	0.059286764476989	1	1	NaN	437	7	59	1	121	221	321	NaN	521	0.11627297103405	2	0	NaN	3373267.2367738	NaN	3373268.2203035	3373268.73685343
62	18	0	0	90	36.1581920903955	36.241610738255	17	0.566710299830884	2	4	4	NaN	1	3	0.059286764476989	1	1	NaN	438	7	60	1	121	221	321	NaN	521	0.75692182360217	1	1	NaN	3373269.8038192	NaN	3373270.7872292	3373271.30378208
62	18	0	0	90	36.1581920903955	36.241610738255	23	0.766725699771196	2	6	6	NaN	1	5	0.059286764476989	1	1	NaN	439	7	61	1	121	221	321	NaN	521	0.0103854760527611	1	1	NaN	3373273.1207968	NaN	3373274.1042135	3373274.62077442
62	18	0	0	90	36.1581920903955	36.241610738255	0	0	1	7	6	NaN	2	3	0.059286764476989	1	1	NaN	440	7	62	1	111	211	311	NaN	511	0.547499123495072	1	0	NaN	3373275.4378028	NaN	3373276.4211113	3373276.93766668
62	18	0	0	90	36.1581920903955	36.241610738255	11	0.366694899890572	2	7	2	NaN	2	4	0.059286764476989	1	1	NaN	441	7	63	1	121	221	321	NaN	521	0.424506075680256	1	0	NaN	3373278.3046508	NaN	3373279.2880633	3373279.80461242
62	18	0	0	90	36.1581920903955	36.241610738255	10	0.33335899990052	2	12	1	NaN	2	3	0.059286764476989	1	1	NaN	442	8	1	1	121	221	321	NaN	521	0.956167618744075	1	0	NaN	3373288.1889573	NaN	3373289.1723517	3373289.68890628
62	18	0	0	90	36.1581920903955	36.241610738255	25	0.8333974997513	2	9	5	NaN	2	4	0.059286764476989	1	1	NaN	443	8	2	1	121	221	321	NaN	521	0.5629364233464	1	0	NaN	3373291.6059669	NaN	3373292.5893606	3373293.10592378
62	18	0	0	90	36.1581920903955	36.241610738255	7	0.233351299930364	2	10	1	NaN	2	5	0.059286764476989	1	1	NaN	444	8	3	1	121	221	321	NaN	521	0.0104122711345553	2	1	NaN	3373294.4894692	NaN	3373295.4729868	3373295.98952593
62	18	0	0	90	36.1581920903955	36.241610738255	7	0.233351299930364	2	8	2	NaN	2	4	0.059286764476989	1	1	NaN	445	8	4	1	121	221	321	NaN	521	0.106487523764372	1	0	NaN	3373296.8063756	NaN	3373297.7898862	3373298.30643138
62	18	0	0	90	36.1581920903955	36.241610738255	14	0.466702599860728	2	6	1	NaN	1	3	0.059286764476989	1	1	NaN	446	8	5	1	121	221	321	NaN	521	0.337879670783877	1	1	NaN	3373299.223385	NaN	3373300.2067716	3373300.72332943
62	18	0	0	90	36.1581920903955	36.241610738255	25	0.8333974997513	2	11	4	NaN	2	4	0.059286764476989	1	1	NaN	447	8	6	1	121	221	321	NaN	521	0.335127623286098	1	0	NaN	3373301.8736381	NaN	3373302.8570453	3373303.37359748
62	18	0	0	90	36.1581920903955	36.241610738255	14	0.466702599860728	2	11	1	NaN	2	3	0.059286764476989	1	1	NaN	448	8	7	1	121	221	321	NaN	521	0.533055371139199	1	0	NaN	3373304.5239166	NaN	3373305.5072907	3373306.02384853
62	18	0	0	90	36.1581920903955	36.241610738255	13	0.433366699870676	2	8	5	NaN	2	3	0.059286764476989	1	1	NaN	449	8	8	1	121	221	321	NaN	521	0.314692285843194	2	1	NaN	3373307.3741917	NaN	3373308.3575723	3373308.87413511
62	18	0	0	90	36.1581920903955	36.241610738255	22	0.733389799781144	2	12	2	NaN	2	3	0.059286764476989	1	1	NaN	450	8	9	1	121	221	321	NaN	521	0.625603170599788	2	1	NaN	3373310.0076696	NaN	3373310.9910571	3373311.50772263
62	18	0	0	90	36.1581920903955	36.241610738255	14	0.466702599860728	2	5	3	NaN	1	4	0.059286764476989	1	1	NaN	451	8	10	1	121	221	321	NaN	521	0.699886871036142	1	1	NaN	3373312.9413997	NaN	3373313.924803	3373314.44134613
62	18	0	0	90	36.1581920903955	36.241610738255	7	0.233351299930364	2	11	4	NaN	2	4	0.059286764476989	1	1	NaN	452	8	11	1	121	221	321	NaN	521	0.81056919042021	2	1	NaN	3373315.9583481	NaN	3373316.9417508	3373317.45831531
62	18	0	0	90	36.1581920903955	36.241610738255	0	0	1	5	2	NaN	1	3	0.059286764476989	1	1	NaN	453	8	12	1	111	211	311	NaN	511	1.06752132344991	2	0	NaN	3373319.1253585	NaN	3373320.1087246	3373320.62528008
62	18	0	0	90	36.1581920903955	36.241610738255	9	0.300023099910468	2	7	3	NaN	2	5	0.059286764476989	1	1	NaN	454	8	13	1	121	221	321	NaN	521	0.15569827100262	2	1	NaN	3373322.5091047	NaN	3373323.4924009	3373324.00894533
62	18	0	0	90	36.1581920903955	36.241610738255	7	0.233351299930364	2	3	1	NaN	1	5	0.059286764476989	1	1	NaN	455	8	14	1	121	221	321	NaN	521	0.608902723528445	1	1	NaN	3373324.9759117	NaN	3373325.9593144	3373326.47586578
62	18	0	0	90	36.1581920903955	36.241610738255	25	0.8333974997513	2	5	6	NaN	1	4	0.059286764476989	1	1	NaN	456	8	15	1	121	221	321	NaN	521	0.468018871266395	2	0	NaN	3373327.8927393	NaN	3373328.8762589	3373329.39281073
62	18	0	0	90	36.1581920903955	36.241610738255	0	0	1	2	6	NaN	1	4	0.059286764476989	1	1	NaN	457	8	16	1	111	211	311	NaN	511	2.4448008663021	1	1	NaN	3373330.6764703	NaN	3373331.6598861	3373332.17641473
62	18	0	0	90	36.1581920903955	36.241610738255	8	0.266687199920416	2	12	6	NaN	2	3	0.059286764476989	1	1	NaN	458	8	17	1	121	221	321	NaN	521	0.0737831708975136	2	1	NaN	3373335.7269339	NaN	3373336.7103645	3373337.22691313
62	18	0	0	90	36.1581920903955	36.241610738255	20	0.66671799980104	2	5	6	NaN	1	4	0.059286764476989	1	1	NaN	459	8	18	1	121	221	321	NaN	521	0.938496770802885	2	0	NaN	3373338.1104086	NaN	3373339.0938961	3373339.61047613
62	18	0	0	90	36.1581920903955	36.241610738255	8	0.266687199920416	2	3	3	NaN	1	4	0.059286764476989	1	1	NaN	460	8	19	1	121	221	321	NaN	521	1.19238187093288	1	1	NaN	3373341.3608814	NaN	3373342.3442815	3373342.86080123
