subjno	age	gender	isPractice	viewdist	CmToPixX	CmToPixY	SOA_frm	SOA_time	targNum	targID	targExample	targRace	targGender	firstTargPos	contrast	familiarity	curr_staircase	iStair	TrialNum	BlockNum	blktrl	sessionNum	TC_FIXATION	TC_RSVP_START	TC_RSVP_END	TC_BLANK	TC_RESPONSE_ONSET	RT2afc	resp_2afc	acc	RSVPOnsetVBL	RSVPOnsetTime	RSVPOffsetVBL	RSVPOffsetTime	startrt_2afc
90	20	0	0	90	36.1581920903955	36.241610738255	7	0.233349956050515	2	6	3	NaN	1	5	0.325689784324022	1	1	NaN	1	1	1	1	121	221	321	NaN	521	0.159524775110185	1	1	NaN	3010259.4112764	NaN	3010260.3945579	3010260.92766142
90	20	0	0	90	36.1581920903955	36.241610738255	9	0.300021372064948	2	9	2	NaN	2	4	0.325689784324022	1	1	NaN	2	1	2	1	121	221	321	NaN	521	1.65767692262307	2	1	NaN	3010261.9448516	NaN	3010262.9281213	3010263.46124238
90	20	0	0	90	36.1581920903955	36.241610738255	0	0	1	2	4	NaN	1	5	0.325689784324022	1	1	NaN	3	1	3	1	111	211	311	NaN	511	0.681837690062821	1	1	NaN	3010265.9450364	NaN	3010266.9284256	3010267.44497631
90	20	0	0	90	36.1581920903955	36.241610738255	0	0	1	8	3	NaN	2	3	0.325689784324022	1	1	NaN	4	1	4	1	111	211	311	NaN	511	0.465730722527951	2	1	NaN	3010268.9453271	NaN	3010269.928714	3010270.44526008
90	20	0	0	90	36.1581920903955	36.241610738255	8	0.266685664057732	2	7	5	NaN	2	4	0.325689784324022	1	1	NaN	5	1	5	1	121	221	321	NaN	521	0.257975117303431	2	1	NaN	3010271.7289215	NaN	3010272.7123208	3010273.22886798
90	20	0	0	90	36.1581920903955	36.241610738255	10	0.333357080072165	2	10	6	NaN	2	4	0.325689784324022	1	1	NaN	6	1	6	1	121	221	321	NaN	521	0.594302822370082	2	1	NaN	3010274.3123613	NaN	3010275.2959337	3010275.81245928
90	20	0	0	90	36.1581920903955	36.241610738255	13	0.433364204093814	2	11	4	NaN	2	5	0.325689784324022	1	1	NaN	7	1	7	1	121	221	321	NaN	521	0.453371317125857	2	1	NaN	3010277.2294063	NaN	3010278.212849	3010278.72940988
90	20	0	0	90	36.1581920903955	36.241610738255	25	0.833392700180411	2	9	1	NaN	2	3	0.325689784324022	1	1	NaN	8	1	8	1	121	221	321	NaN	521	0.40622116997838	2	1	NaN	3010280.0130655	NaN	3010280.9964708	3010281.51301303
90	20	0	0	90	36.1581920903955	36.241610738255	10	0.333357080072165	2	9	5	NaN	2	4	0.325689784324022	1	1	NaN	9	1	9	1	121	221	321	NaN	521	0.352019642479718	2	1	NaN	3010282.7466822	NaN	3010283.7300654	3010284.24662536
90	20	0	0	90	36.1581920903955	36.241610738255	8	0.266685664057732	2	9	5	NaN	2	3	0.325689784324022	1	1	NaN	10	1	10	1	121	221	321	NaN	521	0.341570342425257	2	1	NaN	3010285.4135918	NaN	3010286.3970081	3010286.91354726
90	20	0	0	90	36.1581920903955	36.241610738255	21	0.700049868151546	2	2	6	NaN	1	5	0.325689784324022	1	1	NaN	11	1	11	1	121	221	321	NaN	521	0.106418932322413	1	1	NaN	3010288.0804744	NaN	3010289.0639292	3010289.58047487
90	20	0	0	90	36.1581920903955	36.241610738255	19	0.633378452137113	2	3	1	NaN	1	4	0.325689784324022	1	1	NaN	12	1	12	1	121	221	321	NaN	521	0.296952217351645	1	1	NaN	3010290.514091	NaN	3010291.4974932	3010292.01405228
90	20	0	0	90	36.1581920903955	36.241610738255	21	0.700049868151546	2	5	4	NaN	1	4	0.325689784324022	1	1	NaN	13	1	13	1	121	221	321	NaN	521	1.05577926989645	1	1	NaN	3010293.1310305	NaN	3010294.1144355	3010294.63097373
90	20	0	0	90	36.1581920903955	36.241610738255	17	0.56670703612268	2	4	4	NaN	1	5	0.325689784324022	1	1	NaN	14	1	14	1	121	221	321	NaN	521	0.496843769680709	1	1	NaN	3010296.6980463	NaN	3010297.6814352	3010298.19799883
90	20	0	0	90	36.1581920903955	36.241610738255	17	0.56670703612268	2	11	4	NaN	2	5	0.325689784324022	1	1	NaN	15	1	15	1	121	221	321	NaN	521	0.479909617453814	2	1	NaN	3010299.5149953	NaN	3010300.4984008	3010301.01492808
90	20	0	0	90	36.1581920903955	36.241610738255	14	0.46669991210103	2	7	1	NaN	2	5	0.325689784324022	1	1	NaN	16	1	16	1	121	221	321	NaN	521	0.61554001737386	2	1	NaN	3010302.3152675	NaN	3010303.2987237	3010303.81520128
90	20	0	0	90	36.1581920903955	36.241610738255	6	0.200014248043299	2	4	2	NaN	1	4	0.325689784324022	1	1	NaN	17	1	17	1	121	221	321	NaN	521	0.378029617480934	2	0	NaN	3010305.2488858	NaN	3010306.2322778	3010306.74882758
90	20	0	0	90	36.1581920903955	36.241610738255	17	0.56670703612268	2	8	5	NaN	2	5	0.325689784324022	1	1	NaN	18	1	18	1	121	221	321	NaN	521	0.517830317374319	2	1	NaN	3010307.949015	NaN	3010308.932529	3010309.44909798
90	20	0	0	90	36.1581920903955	36.241610738255	23	0.766721284165979	2	10	2	NaN	2	3	0.325689784324022	1	1	NaN	19	1	19	1	121	221	321	NaN	521	0.300300017464906	2	1	NaN	3010310.7826538	NaN	3010311.7661595	3010312.28270298
90	20	0	0	90	36.1581920903955	36.241610738255	11	0.366692788079381	2	7	1	NaN	2	5	0.325689784324022	1	1	NaN	20	1	20	1	121	221	321	NaN	521	1.44323727022856	2	1	NaN	3010313.3996714	NaN	3010314.3830861	3010314.89962663
90	20	0	0	90	36.1581920903955	36.241610738255	6	0.200014248043299	2	6	1	NaN	1	4	0.325689784324022	1	1	NaN	21	1	21	1	121	221	321	NaN	521	0.468445870094001	1	1	NaN	3010317.1667281	NaN	3010318.1501194	3010318.66666563
90	20	0	0	90	36.1581920903955	36.241610738255	22	0.733385576158762	2	3	5	NaN	1	4	0.325689784324022	1	1	NaN	22	1	22	1	121	221	321	NaN	521	0.596503269858658	1	1	NaN	3010319.9503549	NaN	3010320.933732	3010321.45026803
90	20	0	0	90	36.1581920903955	36.241610738255	14	0.46669991210103	2	2	3	NaN	1	3	0.325689784324022	1	1	NaN	23	1	23	1	121	221	321	NaN	521	0.311970017384738	1	1	NaN	3010322.8672742	NaN	3010323.8506807	3010324.36722868
90	20	0	0	90	36.1581920903955	36.241610738255	15	0.500035620108247	2	9	1	NaN	2	5	0.325689784324022	1	1	NaN	24	1	24	1	121	221	321	NaN	521	0.277862027287483	2	1	NaN	3010325.5008722	NaN	3010326.4842514	3010327.00082347
90	20	0	0	90	36.1581920903955	36.241610738255	20	0.666714160144329	2	8	5	NaN	2	4	0.325689784324022	1	1	NaN	25	1	25	1	121	221	321	NaN	521	0.501758370082825	2	1	NaN	3010328.1011437	NaN	3010329.0845178	3010329.60107393
90	20	0	0	90	36.1581920903955	36.241610738255	9	0.300021372064948	2	10	2	NaN	2	4	0.325689784324022	1	1	NaN	26	1	26	1	121	221	321	NaN	521	0.284939917270094	2	1	NaN	3010330.9180741	NaN	3010331.901539	3010332.41801188
90	20	0	0	90	36.1581920903955	36.241610738255	0	0	1	10	2	NaN	2	4	0.325689784324022	1	1	NaN	27	1	27	1	111	211	311	NaN	511	0.460710070095956	2	1	NaN	3010333.5183283	NaN	3010334.5017526	3010335.01827553
90	20	0	0	90	36.1581920903955	36.241610738255	19	0.633378452137113	2	12	3	NaN	2	4	0.325689784324022	1	1	NaN	28	1	28	1	121	221	321	NaN	521	0.285273617133498	2	1	NaN	3010336.3019375	NaN	3010337.2853158	3010337.80187898
90	20	0	0	90	36.1581920903955	36.241610738255	10	0.333357080072165	2	10	4	NaN	2	5	0.325689784324022	1	1	NaN	29	1	29	1	121	221	321	NaN	521	0.61307922238484	2	1	NaN	3010338.9022012	NaN	3010339.8855983	3010340.40213548
90	20	0	0	90	36.1581920903955	36.241610738255	16	0.533371328115463	2	6	4	NaN	1	5	0.325689784324022	1	1	NaN	30	1	30	1	121	221	321	NaN	521	0.303323517087847	1	1	NaN	3010341.8358095	NaN	3010342.8192431	3010343.33575858
90	20	0	0	90	36.1581920903955	36.241610738255	0	0	1	7	1	NaN	2	3	0.325689784324022	1	1	NaN	31	1	31	1	111	211	311	NaN	511	0.862648969981819	2	1	NaN	3010344.4527005	NaN	3010345.4361433	3010345.95267983
90	20	0	0	90	36.1581920903955	36.241610738255	18	0.600042744129896	2	11	2	NaN	2	4	0.325689784324022	1	1	NaN	32	1	32	1	121	221	321	NaN	521	0.262015137355775	2	1	NaN	3010347.8529476	NaN	3010348.8364869	3010349.35301516
90	20	0	0	90	36.1581920903955	36.241610738255	14	0.46669991210103	2	4	1	NaN	1	3	0.325689784324022	1	1	NaN	33	1	33	1	121	221	321	NaN	521	0.270299070049077	1	1	NaN	3010350.4365362	NaN	3010351.420061	3010351.93660453
90	20	0	0	90	36.1581920903955	36.241610738255	16	0.533371328115463	2	4	6	NaN	1	3	0.325689784324022	1	1	NaN	34	1	34	1	121	221	321	NaN	521	0.22277161758393	1	1	NaN	3010353.0202438	NaN	3010354.0036372	3010354.52018898
90	20	0	0	90	36.1581920903955	36.241610738255	12	0.400028496086597	2	4	4	NaN	1	3	0.325689784324022	1	1	NaN	35	1	35	1	121	221	321	NaN	521	0.256864817347378	1	1	NaN	3010355.5704888	NaN	3010356.5538944	3010357.07043858
90	20	0	0	90	36.1581920903955	36.241610738255	25	0.833392700180411	2	5	3	NaN	1	4	0.325689784324022	1	1	NaN	36	1	36	1	121	221	321	NaN	521	0.369856470264494	1	1	NaN	3010358.1374008	NaN	3010359.1207869	3010359.63735613
90	20	0	0	90	36.1581920903955	36.241610738255	15	0.500035620108247	2	12	6	NaN	2	5	0.325689784324022	1	1	NaN	37	1	37	1	121	221	321	NaN	521	0.286008417140692	2	1	NaN	3010360.821014	NaN	3010361.804403	3010362.32096108
90	20	0	0	90	36.1581920903955	36.241610738255	22	0.733385576158762	2	9	3	NaN	2	3	0.325689784324022	1	1	NaN	38	1	38	1	121	221	321	NaN	521	0.63769367011264	2	1	NaN	3010363.4212468	NaN	3010364.404668	3010364.92120723
90	20	0	0	90	36.1581920903955	36.241610738255	8	0.266685664057732	2	4	6	NaN	1	5	0.325689784324022	1	1	NaN	39	1	39	1	121	221	321	NaN	521	0.263781517278403	2	0	NaN	3010366.3715729	NaN	3010367.3549598	3010367.87149998
90	20	0	0	90	36.1581920903955	36.241610738255	8	0.266685664057732	2	2	6	NaN	1	3	0.325689784324022	1	1	NaN	40	1	40	1	121	221	321	NaN	521	0.272095370106399	1	1	NaN	3010368.9551799	NaN	3010369.9385174	3010370.45508703
90	20	0	0	90	36.1581920903955	36.241610738255	16	0.533371328115463	2	9	1	NaN	2	3	0.325689784324022	1	1	NaN	41	1	41	1	121	221	321	NaN	521	0.248672922607511	2	1	NaN	3010371.5385946	NaN	3010372.522044	3010373.03868318
90	20	0	0	90	36.1581920903955	36.241610738255	23	0.766721284165979	2	3	2	NaN	1	5	0.325689784324022	1	1	NaN	42	1	42	1	121	221	321	NaN	521	0.401276716962457	1	1	NaN	3010374.1056875	NaN	3010375.0890353	3010375.60559298
90	20	0	0	90	36.1581920903955	36.241610738255	14	0.46669991210103	2	2	3	NaN	1	4	0.325689784324022	1	1	NaN	43	1	43	1	121	221	321	NaN	521	0.692536769900471	1	1	NaN	3010376.8226809	NaN	3010377.8059833	3010378.32252933
90	20	0	0	90	36.1581920903955	36.241610738255	9	0.300021372064948	2	10	5	NaN	2	5	0.325689784324022	1	1	NaN	44	1	44	1	121	221	321	NaN	521	0.284514217171818	2	1	NaN	3010379.8228971	NaN	3010380.8062753	3010381.32281998
90	20	0	0	90	36.1581920903955	36.241610738255	23	0.766721284165979	2	2	3	NaN	1	5	0.325689784324022	1	1	NaN	45	1	45	1	121	221	321	NaN	521	0.31623871717602	1	1	NaN	3010382.4231208	NaN	3010383.4064231	3010383.92307268
90	20	0	0	90	36.1581920903955	36.241610738255	17	0.56670703612268	2	6	4	NaN	1	5	0.325689784324022	1	1	NaN	46	1	46	1	121	221	321	NaN	521	0.274215970188379	1	1	NaN	3010385.0567304	NaN	3010386.040123	3010386.55666473
90	20	0	0	90	36.1581920903955	36.241610738255	16	0.533371328115463	2	3	5	NaN	1	3	0.325689784324022	1	1	NaN	47	1	47	1	121	221	321	NaN	521	0.219034442678094	1	1	NaN	3010387.6403125	NaN	3010388.6237151	3010389.14026406
90	20	0	0	90	36.1581920903955	36.241610738255	7	0.233349956050515	2	3	3	NaN	1	3	0.325689784324022	1	1	NaN	48	1	48	1	121	221	321	NaN	521	0.317343265283853	1	1	NaN	3010390.1738936	NaN	3010391.1573081	3010391.67383593
90	20	0	0	90	36.1581920903955	36.241610738255	25	0.833392700180411	2	11	1	NaN	2	3	0.325689784324022	1	1	NaN	49	1	49	1	121	221	321	NaN	521	0.619554817676544	2	1	NaN	3010392.8074766	NaN	3010393.7908692	3010394.30742768
90	20	0	0	90	36.1581920903955	36.241610738255	9	0.300021372064948	2	5	6	NaN	1	5	0.325689784324022	1	1	NaN	50	1	50	1	121	221	321	NaN	521	0.685801370069385	1	1	NaN	3010395.7410207	NaN	3010396.7245171	3010397.24105553
90	20	0	0	90	36.1581920903955	36.241610738255	21	0.700049868151546	2	6	3	NaN	1	4	0.325689784324022	1	1	NaN	51	1	51	1	121	221	321	NaN	521	0.11788797006011	1	1	NaN	3010398.7412565	NaN	3010399.7248367	3010400.24134783
90	20	0	0	90	36.1581920903955	36.241610738255	21	0.700049868151546	2	10	3	NaN	2	5	0.325689784324022	1	1	NaN	52	1	52	1	121	221	321	NaN	521	0.268394617363811	2	1	NaN	3010401.174971	NaN	3010402.1583668	3010402.67492058
90	20	0	0	90	36.1581920903955	36.241610738255	17	0.56670703612268	2	3	5	NaN	1	3	0.325689784324022	1	1	NaN	53	1	53	1	121	221	321	NaN	521	0.436571269761771	1	1	NaN	3010403.7585576	NaN	3010404.7419928	3010405.25850353
90	20	0	0	90	36.1581920903955	36.241610738255	16	0.533371328115463	2	12	6	NaN	2	4	0.325689784324022	1	1	NaN	54	1	54	1	121	221	321	NaN	521	0.926432117354125	2	1	NaN	3010406.5088221	NaN	3010407.49226	3010408.00877458
90	20	0	0	90	36.1581920903955	36.241610738255	19	0.633378452137113	2	5	5	NaN	1	3	0.325689784324022	1	1	NaN	55	1	55	1	121	221	321	NaN	521	0.412870917469263	1	1	NaN	3010409.7425079	NaN	3010410.7258864	3010411.24242458
90	20	0	0	90	36.1581920903955	36.241610738255	8	0.266685664057732	2	10	2	NaN	2	5	0.325689784324022	1	1	NaN	56	1	56	1	121	221	321	NaN	521	0.335532370023429	2	1	NaN	3010412.8594319	NaN	3010413.8428851	3010414.35941023
90	20	0	0	90	36.1581920903955	36.241610738255	17	0.56670703612268	2	1	6	NaN	1	3	0.325689784324022	1	1	NaN	57	1	57	1	121	221	321	NaN	521	0.09344541747123	1	1	NaN	3010415.5097184	NaN	3010416.4931183	3010417.00966498
90	20	0	0	90	36.1581920903955	36.241610738255	22	0.733385576158762	2	4	3	NaN	1	3	0.325689784324022	1	1	NaN	58	1	58	1	121	221	321	NaN	521	0.341175617650151	1	1	NaN	3010417.9099542	NaN	3010418.8933393	3010419.40990348
90	20	0	0	90	36.1581920903955	36.241610738255	21	0.700049868151546	2	7	2	NaN	2	3	0.325689784324022	1	1	NaN	59	1	59	1	121	221	321	NaN	521	0.258928469847888	2	1	NaN	3010420.5600681	NaN	3010421.5436158	3010422.06016163
90	20	0	0	90	36.1581920903955	36.241610738255	6	0.200014248043299	2	9	6	NaN	2	3	0.325689784324022	1	1	NaN	60	1	60	1	121	221	321	NaN	521	0.339934717398137	1	0	NaN	3010423.1270025	NaN	3010424.1105278	3010424.62708088
90	20	0	0	90	36.1581920903955	36.241610738255	25	0.833392700180411	2	12	5	NaN	2	4	0.325689784324022	1	1	NaN	61	1	61	1	121	221	321	NaN	521	0.609796017408371	2	1	NaN	3010425.7774017	NaN	3010426.7607819	3010427.27733278
90	20	0	0	90	36.1581920903955	36.241610738255	19	0.633378452137113	2	6	6	NaN	1	3	0.325689784324022	1	1	NaN	62	1	62	1	121	221	321	NaN	521	0.516599770169705	1	1	NaN	3010428.6942142	NaN	3010429.6777496	3010430.19429243
90	20	0	0	90	36.1581920903955	36.241610738255	9	0.300021372064948	2	5	3	NaN	1	4	0.325689784324022	1	1	NaN	63	1	63	1	121	221	321	NaN	521	0.987036317586899	1	1	NaN	3010431.5279578	NaN	3010432.5113559	3010433.02789778
90	20	0	0	90	36.1581920903955	36.241610738255	19	0.633378452137113	2	8	1	NaN	2	3	0.325689784324022	1	1	NaN	64	2	1	1	121	221	321	NaN	521	0.905865899752825	2	1	NaN	3010457.2971634	NaN	3010458.2805563	3010458.797133
90	20	0	0	90	36.1581920903955	36.241610738255	7	0.233349956050515	2	4	3	NaN	1	4	0.325689784324022	1	1	NaN	65	2	2	1	121	221	321	NaN	521	0.504845517221838	1	1	NaN	3010460.5140126	NaN	3010461.4975335	3010462.01407718
90	20	0	0	90	36.1581920903955	36.241610738255	13	0.433364204093814	2	12	5	NaN	2	3	0.325689784324022	1	1	NaN	66	2	3	1	121	221	321	NaN	521	0.288419917225838	2	1	NaN	3010463.3309596	NaN	3010464.3144871	3010464.83102448
90	20	0	0	90	36.1581920903955	36.241610738255	13	0.433364204093814	2	6	2	NaN	1	4	0.325689784324022	1	1	NaN	67	2	4	1	121	221	321	NaN	521	0.271870917174965	1	1	NaN	3010465.9312041	NaN	3010466.914738	3010467.43127588
90	20	0	0	90	36.1581920903955	36.241610738255	20	0.666714160144329	2	1	4	NaN	1	4	0.325689784324022	1	1	NaN	68	2	5	1	121	221	321	NaN	521	0.416472222656012	1	1	NaN	3010468.5149331	NaN	3010469.4983299	3010470.01487328
90	20	0	0	90	36.1581920903955	36.241610738255	18	0.600042744129896	2	2	5	NaN	1	5	0.325689784324022	1	1	NaN	69	2	6	1	121	221	321	NaN	521	0.267626217100769	1	1	NaN	3010471.2318562	NaN	3010472.2152312	3010472.73180818
90	20	0	0	90	36.1581920903955	36.241610738255	22	0.733385576158762	2	11	1	NaN	2	4	0.325689784324022	1	1	NaN	70	2	7	1	121	221	321	NaN	521	0.283984669949859	2	1	NaN	3010473.8154362	NaN	3010474.7988565	3010475.31539303
90	20	0	0	90	36.1581920903955	36.241610738255	9	0.300021372064948	2	6	2	NaN	1	4	0.325689784324022	1	1	NaN	71	2	8	1	121	221	321	NaN	521	0.507419217377901	1	1	NaN	3010476.4155646	NaN	3010477.3990875	3010477.91564918
90	20	0	0	90	36.1581920903955	36.241610738255	16	0.533371328115463	2	12	3	NaN	2	4	0.325689784324022	1	1	NaN	72	2	9	1	121	221	321	NaN	521	0.266702970024198	2	1	NaN	3010479.2326318	NaN	3010480.2160486	3010480.73258503
90	20	0	0	90	36.1581920903955	36.241610738255	8	0.266685664057732	2	6	5	NaN	1	4	0.325689784324022	1	1	NaN	73	2	10	1	121	221	321	NaN	521	0.387444464955479	1	1	NaN	3010481.8162337	NaN	3010482.7996209	3010483.31618044
90	20	0	0	90	36.1581920903955	36.241610738255	23	0.766721284165979	2	2	4	NaN	1	4	0.325689784324022	1	1	NaN	74	2	11	1	121	221	321	NaN	521	0.390980142634362	1	1	NaN	3010484.5165148	NaN	3010485.4998966	3010486.01644816
90	20	0	0	90	36.1581920903955	36.241610738255	6	0.200014248043299	2	1	1	NaN	1	4	0.325689784324022	1	1	NaN	75	2	12	1	121	221	321	NaN	521	2.01863186992705	1	1	NaN	3010487.2167648	NaN	3010488.2001595	3010488.71671063
90	20	0	0	90	36.1581920903955	36.241610738255	23	0.766721284165979	2	7	3	NaN	2	3	0.325689784324022	1	1	NaN	76	2	13	1	121	221	321	NaN	521	0.820987537037581	2	1	NaN	3010491.5505275	NaN	3010492.5339258	3010493.05046866
90	20	0	0	90	36.1581920903955	36.241610738255	15	0.500035620108247	2	1	2	NaN	1	5	0.325689784324022	1	1	NaN	77	2	14	1	121	221	321	NaN	521	0.486864570062608	1	1	NaN	3010494.6841501	NaN	3010495.6675788	3010496.18410683
90	20	0	0	90	36.1581920903955	36.241610738255	18	0.600042744129896	2	1	1	NaN	1	4	0.325689784324022	1	1	NaN	78	2	15	1	121	221	321	NaN	521	0.294624869711697	1	1	NaN	3010497.4844361	NaN	3010498.4678535	3010498.98438173
90	20	0	0	90	36.1581920903955	36.241610738255	7	0.233349956050515	2	12	4	NaN	2	4	0.325689784324022	1	1	NaN	79	2	16	1	121	221	321	NaN	521	0.766797970049083	2	1	NaN	3010500.0847076	NaN	3010501.068096	3010501.58463433
90	20	0	0	90	36.1581920903955	36.241610738255	24	0.800056992173195	2	2	1	NaN	1	5	0.325689784324022	1	1	NaN	80	2	17	1	121	221	321	NaN	521	0.338853369932622	1	1	NaN	3010503.1683506	NaN	3010504.1517221	3010504.66827993
90	20	0	0	90	36.1581920903955	36.241610738255	24	0.800056992173195	2	1	3	NaN	1	3	0.325689784324022	1	1	NaN	81	2	18	1	121	221	321	NaN	521	0.320996222551912	1	1	NaN	3010505.8185907	NaN	3010506.8019742	3010507.31854298
90	20	0	0	90	36.1581920903955	36.241610738255	23	0.766721284165979	2	11	6	NaN	2	3	0.325689784324022	1	1	NaN	82	2	19	1	121	221	321	NaN	521	0.255087942816317	2	1	NaN	3010508.4521855	NaN	3010509.4355858	3010509.95212916
90	20	0	0	90	36.1581920903955	36.241610738255	10	0.333357080072165	2	2	6	NaN	1	4	0.325689784324022	1	1	NaN	83	2	20	1	121	221	321	NaN	521	0.32819391740486	1	1	NaN	3010511.0190686	NaN	3010512.0024025	3010512.51904278
90	20	0	0	90	36.1581920903955	36.241610738255	15	0.500035620108247	2	2	2	NaN	1	5	0.325689784324022	1	1	NaN	84	2	21	1	121	221	321	NaN	521	0.34247601730749	1	1	NaN	3010513.6527276	NaN	3010514.6360927	3010515.15263168
90	20	0	0	90	36.1581920903955	36.241610738255	24	0.800056992173195	2	3	6	NaN	1	3	0.325689784324022	1	1	NaN	85	2	22	1	121	221	321	NaN	521	0.356060517486185	1	1	NaN	3010516.3029563	NaN	3010517.2863514	3010517.80289358
90	20	0	0	90	36.1581920903955	36.241610738255	24	0.800056992173195	2	8	3	NaN	2	3	0.325689784324022	1	1	NaN	86	2	23	1	121	221	321	NaN	521	0.577500722371042	2	1	NaN	3010518.9698812	NaN	3010519.9532873	3010520.46982368
90	20	0	0	90	36.1581920903955	36.241610738255	24	0.800056992173195	2	3	5	NaN	1	4	0.325689784324022	1	1	NaN	87	2	24	1	121	221	321	NaN	521	0.572295969817787	1	1	NaN	3010521.8868395	NaN	3010522.8702378	3010523.38678433
90	20	0	0	90	36.1581920903955	36.241610738255	18	0.600042744129896	2	5	2	NaN	1	4	0.325689784324022	1	1	NaN	88	2	25	1	121	221	321	NaN	521	0.408861769828945	1	1	NaN	3010524.7704468	NaN	3010525.7538489	3010526.27039163
90	20	0	0	90	36.1581920903955	36.241610738255	9	0.300021372064948	2	7	5	NaN	2	5	0.325689784324022	1	1	NaN	89	2	26	1	121	221	321	NaN	521	0.292009090073407	2	1	NaN	3010527.4873805	NaN	3010528.4707935	3010528.98733611
90	20	0	0	90	36.1581920903955	36.241610738255	6	0.200014248043299	2	5	1	NaN	1	4	0.325689784324022	1	1	NaN	90	2	27	1	121	221	321	NaN	521	0.595585317350924	1	1	NaN	3010530.0876232	NaN	3010531.0710702	3010531.58758598
90	20	0	0	90	36.1581920903955	36.241610738255	9	0.300021372064948	2	4	1	NaN	1	3	0.325689784324022	1	1	NaN	91	2	28	1	121	221	321	NaN	521	0.391071817371994	1	1	NaN	3010532.9879416	NaN	3010533.9713255	3010534.48787648
90	20	0	0	90	36.1581920903955	36.241610738255	10	0.333357080072165	2	6	2	NaN	1	4	0.325689784324022	1	1	NaN	92	2	29	1	121	221	321	NaN	521	0.243144617415965	1	1	NaN	3010535.6881984	NaN	3010536.6716033	3010537.18813978
90	20	0	0	90	36.1581920903955	36.241610738255	21	0.700049868151546	2	3	6	NaN	1	3	0.325689784324022	1	1	NaN	93	2	30	1	121	221	321	NaN	521	0.196887217462063	1	1	NaN	3010538.2384433	NaN	3010539.221852	3010539.73838948
90	20	0	0	90	36.1581920903955	36.241610738255	19	0.633378452137113	2	10	3	NaN	2	5	0.325689784324022	1	1	NaN	94	2	31	1	121	221	321	NaN	521	0.296454422641546	2	1	NaN	3010540.738559	NaN	3010541.7220938	3010542.23864048
90	20	0	0	90	36.1581920903955	36.241610738255	10	0.333357080072165	2	11	4	NaN	2	3	0.325689784324022	1	1	NaN	95	2	32	1	121	221	321	NaN	521	0.24771622242406	2	1	NaN	3010543.3556043	NaN	3010544.3390116	3010544.85555108
90	20	0	0	90	36.1581920903955	36.241610738255	7	0.233349956050515	2	8	6	NaN	2	3	0.325689784324022	1	1	NaN	96	2	33	1	121	221	321	NaN	521	0.457060169894248	2	1	NaN	3010545.9225706	NaN	3010546.9059622	3010547.42247043
90	20	0	0	90	36.1581920903955	36.241610738255	18	0.600042744129896	2	6	3	NaN	1	3	0.325689784324022	1	1	NaN	97	2	34	1	121	221	321	NaN	521	0.273972965311259	1	1	NaN	3010548.6894512	NaN	3010549.6728442	3010550.18940623
90	20	0	0	90	36.1581920903955	36.241610738255	8	0.266685664057732	2	8	6	NaN	2	5	0.325689784324022	1	1	NaN	98	2	35	1	121	221	321	NaN	521	3.22647392237559	2	1	NaN	3010551.2729347	NaN	3010552.2565098	3010552.77300258
90	20	0	0	90	36.1581920903955	36.241610738255	24	0.800056992173195	2	11	5	NaN	2	3	0.325689784324022	1	1	NaN	99	2	36	1	121	221	321	NaN	521	0.371967727318406	2	1	NaN	3010556.8236086	NaN	3010557.8070029	3010558.32354827
90	20	0	0	90	36.1581920903955	36.241610738255	20	0.666714160144329	2	4	2	NaN	1	3	0.325689784324022	1	1	NaN	100	2	37	1	121	221	321	NaN	521	1.01601252285764	1	1	NaN	3010559.5072806	NaN	3010560.4906041	3010561.00714538
90	20	0	0	90	36.1581920903955	36.241610738255	15	0.500035620108247	2	12	5	NaN	2	3	0.325689784324022	1	1	NaN	101	2	38	1	121	221	321	NaN	521	2.73747362243012	2	1	NaN	3010562.8742075	NaN	3010563.8575901	3010564.37414028
90	20	0	0	90	36.1581920903955	36.241610738255	12	0.400028496086597	2	8	1	NaN	2	3	0.325689784324022	1	1	NaN	102	2	39	1	121	221	321	NaN	521	0.614628769923002	2	1	NaN	3010567.9247042	NaN	3010568.9080726	3010569.42463963
90	20	0	0	90	36.1581920903955	36.241610738255	20	0.666714160144329	2	7	1	NaN	2	3	0.325689784324022	1	1	NaN	103	2	40	1	121	221	321	NaN	521	0.272897870279849	2	1	NaN	3010570.8583081	NaN	3010571.841705	3010572.35825243
90	20	0	0	90	36.1581920903955	36.241610738255	16	0.533371328115463	2	1	1	NaN	1	5	0.325689784324022	1	1	NaN	104	2	41	1	121	221	321	NaN	521	0.265415569767356	1	1	NaN	3010573.4419015	NaN	3010574.4253076	3010574.94183883
90	20	0	0	90	36.1581920903955	36.241610738255	21	0.700049868151546	2	4	3	NaN	1	4	0.325689784324022	1	1	NaN	105	2	42	1	121	221	321	NaN	521	0.241807717364281	1	1	NaN	3010576.0254881	NaN	3010577.0088879	3010577.52542828
90	20	0	0	90	36.1581920903955	36.241610738255	15	0.500035620108247	2	8	3	NaN	2	3	0.325689784324022	1	1	NaN	106	2	43	1	121	221	321	NaN	521	0.267840022686869	2	1	NaN	3010578.5757312	NaN	3010579.5591567	3010580.07568188
90	20	0	0	90	36.1581920903955	36.241610738255	23	0.766721284165979	2	4	1	NaN	1	3	0.325689784324022	1	1	NaN	107	2	44	1	121	221	321	NaN	521	0.435800869949162	1	1	NaN	3010581.1593249	NaN	3010582.1427268	3010582.65927233
90	20	0	0	90	36.1581920903955	36.241610738255	18	0.600042744129896	2	5	1	NaN	1	5	0.325689784324022	1	1	NaN	108	2	45	1	121	221	321	NaN	521	0.477684217039496	1	1	NaN	3010583.9096078	NaN	3010584.8929976	3010585.40954408
90	20	0	0	90	36.1581920903955	36.241610738255	10	0.333357080072165	2	5	3	NaN	1	3	0.325689784324022	1	1	NaN	109	2	46	1	121	221	321	NaN	521	0.222232770174742	1	1	NaN	3010586.6931913	NaN	3010587.6766158	3010588.19314093
90	20	0	0	90	36.1581920903955	36.241610738255	18	0.600042744129896	2	7	5	NaN	2	5	0.325689784324022	1	1	NaN	110	2	47	1	121	221	321	NaN	521	0.392539522610605	2	1	NaN	3010589.2267582	NaN	3010590.2101802	3010590.72672898
90	20	0	0	90	36.1581920903955	36.241610738255	16	0.533371328115463	2	10	6	NaN	2	3	0.325689784324022	1	1	NaN	111	2	48	1	121	221	321	NaN	521	0.263223070185632	2	1	NaN	3010592.2602884	NaN	3010593.2438126	3010593.76036463
90	20	0	0	90	36.1581920903955	36.241610738255	21	0.700049868151546	2	6	4	NaN	1	5	0.325689784324022	1	1	NaN	112	2	49	1	121	221	321	NaN	521	0.351633917540312	1	1	NaN	3010594.8439998	NaN	3010595.827396	3010596.34394218
90	20	0	0	90	36.1581920903955	36.241610738255	6	0.200014248043299	2	9	4	NaN	2	4	0.325689784324022	1	1	NaN	113	2	50	1	121	221	321	NaN	521	0.572384122759104	1	0	NaN	3010597.5109247	NaN	3010598.4943683	3010599.01088168
90	20	0	0	90	36.1581920903955	36.241610738255	12	0.400028496086597	2	2	3	NaN	1	4	0.325689784324022	1	1	NaN	114	2	51	1	121	221	321	NaN	521	0.209060417488217	1	1	NaN	3010600.394558	NaN	3010601.3779427	3010601.89449538
90	20	0	0	90	36.1581920903955	36.241610738255	14	0.46669991210103	2	3	1	NaN	1	5	0.325689784324022	1	1	NaN	115	2	52	1	121	221	321	NaN	521	0.227546469774097	1	1	NaN	3010602.9281671	NaN	3010603.911543	3010604.42807083
90	20	0	0	90	36.1581920903955	36.241610738255	13	0.433364204093814	2	3	5	NaN	1	3	0.325689784324022	1	1	NaN	116	2	53	1	121	221	321	NaN	521	0.0104272174648941	1	1	NaN	3010605.4783908	NaN	3010606.4618458	3010606.97831868
90	20	0	0	90	36.1581920903955	36.241610738255	7	0.233349956050515	2	2	4	NaN	1	4	0.325689784324022	1	1	NaN	117	2	54	1	121	221	321	NaN	521	0.0103926225565374	1	1	NaN	3010607.7952651	NaN	3010608.7786654	3010609.29522358
90	20	0	0	90	36.1581920903955	36.241610738255	25	0.833392700180411	2	6	1	NaN	1	4	0.325689784324022	1	1	NaN	118	2	55	1	121	221	321	NaN	521	0.0104219173081219	1	1	NaN	3010610.1121743	NaN	3010611.0955668	3010611.61210708
90	20	0	0	90	36.1581920903955	36.241610738255	19	0.633378452137113	2	2	4	NaN	1	3	0.325689784324022	1	1	NaN	119	2	56	1	121	221	321	NaN	521	0.326403017621487	1	1	NaN	3010612.429075	NaN	3010613.4124674	3010613.92900368
90	20	0	0	90	36.1581920903955	36.241610738255	23	0.766721284165979	2	3	5	NaN	1	4	0.325689784324022	1	1	NaN	120	2	57	1	121	221	321	NaN	521	0.45268176542595	1	1	NaN	3010615.0626918	NaN	3010616.0460357	3010616.56260403
90	20	0	0	90	36.1581920903955	36.241610738255	10	0.333357080072165	2	8	2	NaN	2	3	0.325689784324022	1	1	NaN	121	2	58	1	121	221	321	NaN	521	0.589817670173943	2	1	NaN	3010617.8295843	NaN	3010618.8129863	3010619.32953943
90	20	0	0	90	36.1581920903955	36.241610738255	24	0.800056992173195	2	10	1	NaN	2	3	0.325689784324022	1	1	NaN	122	2	59	1	121	221	321	NaN	521	0.761459522414953	2	1	NaN	3010620.7298916	NaN	3010621.7132808	3010622.22982458
90	20	0	0	90	36.1581920903955	36.241610738255	25	0.833392700180411	2	7	1	NaN	2	3	0.325689784324022	1	1	NaN	123	2	60	1	121	221	321	NaN	521	0.342391170095652	2	1	NaN	3010623.7968403	NaN	3010624.7802385	3010625.29679043
90	20	0	0	90	36.1581920903955	36.241610738255	8	0.266685664057732	2	2	6	NaN	1	3	0.325689784324022	1	1	NaN	124	2	61	1	121	221	321	NaN	521	0.532738669775426	1	1	NaN	3010626.4471078	NaN	3010627.4305153	3010627.94705453
90	20	0	0	90	36.1581920903955	36.241610738255	6	0.200014248043299	2	12	1	NaN	2	5	0.325689784324022	1	1	NaN	125	2	62	1	121	221	321	NaN	521	0.562677480280399	1	0	NaN	3010629.2807351	NaN	3010630.2641082	3010630.78067242
90	20	0	0	90	36.1581920903955	36.241610738255	22	0.733385576158762	2	2	1	NaN	1	4	0.325689784324022	1	1	NaN	126	2	63	1	121	221	321	NaN	521	0.32737091742456	1	1	NaN	3010632.1643517	NaN	3010633.1477313	3010633.66427698
90	20	0	0	90	36.1581920903955	36.241610738255	19	0.633378452137113	2	2	2	NaN	1	5	0.325689784324022	1	1	NaN	127	3	1	1	121	221	321	NaN	521	0.321166369598359	1	1	NaN	3010650.266085	NaN	3010651.2495632	3010651.76605893
90	20	0	0	90	36.1581920903955	36.241610738255	14	0.46669991210103	2	12	2	NaN	2	4	0.325689784324022	1	1	NaN	128	3	2	1	121	221	321	NaN	521	0.254239522852004	2	1	NaN	3010653.5329875	NaN	3010654.5165012	3010655.03305338
90	20	0	0	90	36.1581920903955	36.241610738255	24	0.800056992173195	2	11	2	NaN	2	5	0.325689784324022	1	1	NaN	129	3	3	1	121	221	321	NaN	521	0.927692747209221	2	1	NaN	3010656.1000366	NaN	3010657.0834051	3010657.59996935
90	20	0	0	90	36.1581920903955	36.241610738255	17	0.56670703612268	2	6	2	NaN	1	4	0.325689784324022	1	1	NaN	130	3	4	1	121	221	321	NaN	521	0.45359297003597	1	1	NaN	3010659.3336793	NaN	3010660.3170648	3010660.83360923
90	20	0	0	90	36.1581920903955	36.241610738255	11	0.366692788079381	2	8	5	NaN	2	3	0.325689784324022	1	1	NaN	131	3	5	1	121	221	321	NaN	521	0.287144422531128	1	0	NaN	3010662.1006192	NaN	3010663.0840192	3010663.60055598
90	20	0	0	90	36.1581920903955	36.241610738255	7	0.233349956050515	2	6	5	NaN	1	4	0.325689784324022	1	1	NaN	132	3	6	1	121	221	321	NaN	521	0.255032669752836	1	1	NaN	3010664.7007287	NaN	3010665.684263	3010666.20081433
90	20	0	0	90	36.1581920903955	36.241610738255	11	0.366692788079381	2	6	6	NaN	1	5	0.325689784324022	1	1	NaN	133	3	7	1	121	221	321	NaN	521	0.295695570297539	1	1	NaN	3010667.2677908	NaN	3010668.2511835	3010668.76772253
90	20	0	0	90	36.1581920903955	36.241610738255	25	0.833392700180411	2	2	5	NaN	1	4	0.325689784324022	1	1	NaN	134	3	8	1	121	221	321	NaN	521	0.35906946985051	1	1	NaN	3010669.8847261	NaN	3010670.8681079	3010671.38465113
90	20	0	0	90	36.1581920903955	36.241610738255	0	0	1	3	1	NaN	1	4	0.325689784324022	1	1	NaN	135	3	9	1	111	211	311	NaN	511	0.210889770183712	1	1	NaN	3010672.7849937	NaN	3010673.7683878	3010674.28494123
90	20	0	0	90	36.1581920903955	36.241610738255	14	0.46669991210103	2	4	3	NaN	1	3	0.325689784324022	1	1	NaN	136	3	10	1	121	221	321	NaN	521	0.300785469822586	1	1	NaN	3010675.3185702	NaN	3010676.3019726	3010676.81851703
90	20	0	0	90	36.1581920903955	36.241610738255	12	0.400028496086597	2	5	4	NaN	1	4	0.325689784324022	1	1	NaN	137	3	11	1	121	221	321	NaN	521	0.324017870239913	1	1	NaN	3010677.9353829	NaN	3010678.918905	3010679.43544073
90	20	0	0	90	36.1581920903955	36.241610738255	21	0.700049868151546	2	12	2	NaN	2	4	0.325689784324022	1	1	NaN	138	3	12	1	121	221	321	NaN	521	0.490568965207785	2	1	NaN	3010680.5691694	NaN	3010681.552536	3010682.06904003
90	20	0	0	90	36.1581920903955	36.241610738255	10	0.333357080072165	2	4	5	NaN	1	5	0.325689784324022	1	1	NaN	139	3	13	1	121	221	321	NaN	521	0.650208269711584	1	1	NaN	3010683.3693515	NaN	3010684.3527895	3010684.86930923
90	20	0	0	90	36.1581920903955	36.241610738255	6	0.200014248043299	2	11	1	NaN	2	4	0.325689784324022	1	1	NaN	140	3	14	1	121	221	321	NaN	521	0.315337317530066	2	1	NaN	3010686.336323	NaN	3010687.3197629	3010687.83627158
90	20	0	0	90	36.1581920903955	36.241610738255	13	0.433364204093814	2	1	6	NaN	1	3	0.325689784324022	1	1	NaN	141	3	15	1	121	221	321	NaN	521	0.370325217023492	1	1	NaN	3010688.9532376	NaN	3010689.9367515	3010690.45319218
90	20	0	0	90	36.1581920903955	36.241610738255	12	0.400028496086597	2	6	6	NaN	1	5	0.325689784324022	1	1	NaN	142	3	16	1	121	221	321	NaN	521	0.766724170185626	1	1	NaN	3010691.6368572	NaN	3010692.6202939	3010693.13678973
90	20	0	0	90	36.1581920903955	36.241610738255	12	0.400028496086597	2	11	3	NaN	2	5	0.325689784324022	1	1	NaN	143	3	17	1	121	221	321	NaN	521	0.36318551748991	2	1	NaN	3010694.7205018	NaN	3010695.7038733	3010696.22042338
90	20	0	0	90	36.1581920903955	36.241610738255	16	0.533371328115463	2	8	5	NaN	2	3	0.325689784324022	1	1	NaN	144	3	18	1	121	221	321	NaN	521	0.544033369980752	2	1	NaN	3010697.3873483	NaN	3010698.3707975	3010698.88736143
90	20	0	0	90	36.1581920903955	36.241610738255	19	0.633378452137113	2	5	6	NaN	1	4	0.325689784324022	1	1	NaN	145	3	19	1	121	221	321	NaN	521	0.613939569797367	1	1	NaN	3010700.2377032	NaN	3010701.221078	3010701.73762713
90	20	0	0	90	36.1581920903955	36.241610738255	22	0.733385576158762	2	8	1	NaN	2	4	0.325689784324022	1	1	NaN	146	3	20	1	121	221	321	NaN	521	0.47280102269724	2	1	NaN	3010703.1546375	NaN	3010704.1380411	3010704.65459468
90	20	0	0	90	36.1581920903955	36.241610738255	21	0.700049868151546	2	9	3	NaN	2	5	0.325689784324022	1	1	NaN	147	3	21	1	121	221	321	NaN	521	0.257429769728333	2	1	NaN	3010705.938247	NaN	3010706.9216454	3010707.43820093
90	20	0	0	90	36.1581920903955	36.241610738255	7	0.233349956050515	2	9	1	NaN	2	3	0.325689784324022	1	1	NaN	148	3	22	1	121	221	321	NaN	521	0.242416622582823	2	1	NaN	3010708.5051734	NaN	3010709.4885672	3010710.00511998
90	20	0	0	90	36.1581920903955	36.241610738255	14	0.46669991210103	2	9	5	NaN	2	4	0.325689784324022	1	1	NaN	149	3	23	1	121	221	321	NaN	521	0.292190670035779	2	1	NaN	3010711.0554131	NaN	3010712.0388495	3010712.55536513
90	20	0	0	90	36.1581920903955	36.241610738255	19	0.633378452137113	2	10	5	NaN	2	3	0.325689784324022	1	1	NaN	150	3	24	1	121	221	321	NaN	521	0.44392757024616	2	1	NaN	3010713.6555245	NaN	3010714.6390535	3010715.15561783
90	20	0	0	90	36.1581920903955	36.241610738255	8	0.266685664057732	2	9	3	NaN	2	5	0.325689784324022	1	1	NaN	151	3	25	1	121	221	321	NaN	521	0.205052022822201	2	1	NaN	3010716.422614	NaN	3010717.4060356	3010717.92256458
90	20	0	0	90	36.1581920903955	36.241610738255	11	0.366692788079381	2	12	4	NaN	2	4	0.325689784324022	1	1	NaN	152	3	26	1	121	221	321	NaN	521	0.0104097700677812	2	1	NaN	3010718.9395158	NaN	3010719.9229234	3010720.43946533
90	20	0	0	90	36.1581920903955	36.241610738255	24	0.800056992173195	2	10	5	NaN	2	5	0.325689784324022	1	1	NaN	153	3	27	1	121	221	321	NaN	521	0.0104091698303819	2	1	NaN	3010721.2564279	NaN	3010722.2398216	3010722.75636783
90	20	0	0	90	36.1581920903955	36.241610738255	18	0.600042744129896	2	9	2	NaN	2	3	0.325689784324022	1	1	NaN	154	3	28	1	121	221	321	NaN	521	0.494230265263468	2	1	NaN	3010723.573326	NaN	3010724.5567066	3010725.07325953
90	20	0	0	90	36.1581920903955	36.241610738255	21	0.700049868151546	2	12	1	NaN	2	3	0.325689784324022	1	1	NaN	155	3	29	1	121	221	321	NaN	521	0.315983070060611	2	1	NaN	3010726.6234779	NaN	3010727.6070191	3010728.12356503
90	20	0	0	90	36.1581920903955	36.241610738255	10	0.333357080072165	2	7	3	NaN	2	5	0.325689784324022	1	1	NaN	156	3	30	1	121	221	321	NaN	521	0.338410417549312	2	1	NaN	3010729.2571008	NaN	3010730.2406212	3010730.75715528
90	20	0	0	90	36.1581920903955	36.241610738255	18	0.600042744129896	2	1	2	NaN	1	4	0.325689784324022	1	1	NaN	157	3	31	1	121	221	321	NaN	521	0.247933180071414	1	1	NaN	3010731.9073338	NaN	3010732.8908631	3010733.40741272
90	20	0	0	90	36.1581920903955	36.241610738255	11	0.366692788079381	2	4	4	NaN	1	4	0.325689784324022	1	1	NaN	158	3	32	1	121	221	321	NaN	521	0.569090117234737	2	0	NaN	3010734.474379	NaN	3010735.4577789	3010735.97432788
90	20	0	0	90	36.1581920903955	36.241610738255	16	0.533371328115463	2	5	2	NaN	1	3	0.325689784324022	1	1	NaN	159	3	33	1	121	221	321	NaN	521	0.205761970020831	1	1	NaN	3010737.3579922	NaN	3010738.3414075	3010738.85794173
90	20	0	0	90	36.1581920903955	36.241610738255	18	0.600042744129896	2	4	5	NaN	1	3	0.325689784324022	1	1	NaN	160	3	34	1	121	221	321	NaN	521	1.65653009014204	1	1	NaN	3010739.874777	NaN	3010740.8583094	3010741.37486181
90	20	0	0	90	36.1581920903955	36.241610738255	24	0.800056992173195	2	1	3	NaN	1	3	0.325689784324022	1	1	NaN	161	3	35	1	121	221	321	NaN	521	0.412194122560322	1	1	NaN	3010743.9752122	NaN	3010744.9587228	3010745.47527118
90	20	0	0	90	36.1581920903955	36.241610738255	24	0.800056992173195	2	6	1	NaN	1	3	0.325689784324022	1	1	NaN	162	3	36	1	121	221	321	NaN	521	0.575062270276248	1	1	NaN	3010746.6922836	NaN	3010747.6756477	3010748.19219223
90	20	0	0	90	36.1581920903955	36.241610738255	10	0.333357080072165	2	6	1	NaN	1	5	0.325689784324022	1	1	NaN	163	3	37	1	121	221	321	NaN	521	1.05974816996604	1	1	NaN	3010749.5758673	NaN	3010750.5592752	3010751.07580763
90	20	0	0	90	36.1581920903955	36.241610738255	17	0.56670703612268	2	9	2	NaN	2	5	0.325689784324022	1	1	NaN	164	3	38	1	121	221	321	NaN	521	0.396622770000249	2	1	NaN	3010752.9428553	NaN	3010753.9262737	3010754.44280573
90	20	0	0	90	36.1581920903955	36.241610738255	12	0.400028496086597	2	10	6	NaN	2	4	0.325689784324022	1	1	NaN	165	3	39	1	121	221	321	NaN	521	0.344742916990072	2	1	NaN	3010755.6431302	NaN	3010756.62652	3010757.14308808
90	20	0	0	90	36.1581920903955	36.241610738255	6	0.200014248043299	2	10	5	NaN	2	5	0.325689784324022	1	1	NaN	166	3	40	1	121	221	321	NaN	521	0.390297569800168	2	1	NaN	3010758.2933993	NaN	3010759.2767713	3010759.79334033
90	20	0	0	90	36.1581920903955	36.241610738255	8	0.266685664057732	2	5	5	NaN	1	3	0.325689784324022	1	1	NaN	167	3	41	1	121	221	321	NaN	521	0.306328117381781	1	1	NaN	3010760.9936576	NaN	3010761.9770509	3010762.49359558
90	20	0	0	90	36.1581920903955	36.241610738255	6	0.200014248043299	2	4	6	NaN	1	3	0.325689784324022	1	1	NaN	168	3	42	1	121	221	321	NaN	521	0.289327070116997	2	0	NaN	3010763.6104486	NaN	3010764.5939739	3010765.11052443
90	20	0	0	90	36.1581920903955	36.241610738255	19	0.633378452137113	2	11	2	NaN	2	4	0.325689784324022	1	1	NaN	169	3	43	1	121	221	321	NaN	521	0.241034722421318	2	1	NaN	3010766.2108472	NaN	3010767.1942263	3010767.71078468
90	20	0	0	90	36.1581920903955	36.241610738255	24	0.800056992173195	2	12	1	NaN	2	3	0.325689784324022	1	1	NaN	170	3	44	1	121	221	321	NaN	521	0.418318369891495	2	1	NaN	3010768.7611119	NaN	3010769.7444808	3010770.26102683
90	20	0	0	90	36.1581920903955	36.241610738255	16	0.533371328115463	2	7	2	NaN	2	5	0.325689784324022	1	1	NaN	171	3	45	1	121	221	321	NaN	521	0.236881370190531	2	1	NaN	3010771.4946902	NaN	3010772.478088	3010772.99463393
90	20	0	0	90	36.1581920903955	36.241610738255	22	0.733385576158762	2	3	2	NaN	1	5	0.325689784324022	1	1	NaN	172	3	46	1	121	221	321	NaN	521	0.487061469815671	1	1	NaN	3010774.0449529	NaN	3010775.0283751	3010775.54487943
90	20	0	0	90	36.1581920903955	36.241610738255	12	0.400028496086597	2	11	6	NaN	2	4	0.325689784324022	1	1	NaN	173	3	47	1	121	221	321	NaN	521	0.366377070080489	2	1	NaN	3010776.8452198	NaN	3010777.8285566	3010778.34516083
90	20	0	0	90	36.1581920903955	36.241610738255	23	0.766721284165979	2	4	3	NaN	1	5	0.325689784324022	1	1	NaN	174	3	48	1	121	221	321	NaN	521	0.533050769940019	1	1	NaN	3010779.878837	NaN	3010780.8622532	3010781.37879723
90	20	0	0	90	36.1581920903955	36.241610738255	20	0.666714160144329	2	9	6	NaN	2	3	0.325689784324022	1	1	NaN	175	3	49	1	121	221	321	NaN	521	0.362763255368918	2	1	NaN	3010782.7291482	NaN	3010783.7125322	3010784.22906784
90	20	0	0	90	36.1581920903955	36.241610738255	16	0.533371328115463	2	2	4	NaN	1	5	0.325689784324022	1	1	NaN	176	3	50	1	121	221	321	NaN	521	0.495409107301384	1	1	NaN	3010785.3960382	NaN	3010786.3794591	3010786.89599039
90	20	0	0	90	36.1581920903955	36.241610738255	16	0.533371328115463	2	1	1	NaN	1	3	0.325689784324022	1	1	NaN	177	3	51	1	121	221	321	NaN	521	0.398646669927984	1	1	NaN	3010788.213011	NaN	3010789.1964107	3010789.71293803
90	20	0	0	90	36.1581920903955	36.241610738255	20	0.666714160144329	2	10	2	NaN	2	3	0.325689784324022	1	1	NaN	178	3	52	1	121	221	321	NaN	521	0.241604037117213	2	1	NaN	3010790.9299234	NaN	3010791.913331	3010792.42988186
90	20	0	0	90	36.1581920903955	36.241610738255	8	0.266685664057732	2	1	6	NaN	1	3	0.325689784324022	1	1	NaN	179	3	53	1	121	221	321	NaN	521	0.395440417807549	1	1	NaN	3010793.4801881	NaN	3010794.4636068	3010794.98012448
90	20	0	0	90	36.1581920903955	36.241610738255	17	0.56670703612268	2	10	2	NaN	2	3	0.325689784324022	1	1	NaN	180	3	54	1	121	221	321	NaN	521	0.302667170297354	2	1	NaN	3010796.1971199	NaN	3010797.1805115	3010797.69705523
90	20	0	0	90	36.1581920903955	36.241610738255	11	0.366692788079381	2	4	5	NaN	1	4	0.325689784324022	1	1	NaN	181	3	55	1	121	221	321	NaN	521	2.34192286990583	1	1	NaN	3010798.8140259	NaN	3010799.7974322	3010800.31398693
90	20	0	0	90	36.1581920903955	36.241610738255	11	0.366692788079381	2	3	6	NaN	1	5	0.325689784324022	1	1	NaN	182	3	56	1	121	221	321	NaN	521	0.827078565489501	1	1	NaN	3010803.4645037	NaN	3010804.4478881	3010804.96445473
90	20	0	0	90	36.1581920903955	36.241610738255	19	0.633378452137113	2	11	6	NaN	2	4	0.325689784324022	1	1	NaN	183	3	57	1	121	221	321	NaN	521	0.205403922591358	2	1	NaN	3010806.5982471	NaN	3010807.5815654	3010808.09808838
90	20	0	0	90	36.1581920903955	36.241610738255	12	0.400028496086597	2	6	5	NaN	1	5	0.325689784324022	1	1	NaN	184	3	58	1	121	221	321	NaN	521	0.360651765018702	1	1	NaN	3010809.1150711	NaN	3010810.0984423	3010810.61499823
90	20	0	0	90	36.1581920903955	36.241610738255	8	0.266685664057732	2	8	2	NaN	2	3	0.325689784324022	1	1	NaN	185	3	59	1	121	221	321	NaN	521	0.229935817420483	2	1	NaN	3010811.7819569	NaN	3010812.7653847	3010813.28192638
90	20	0	0	90	36.1581920903955	36.241610738255	9	0.300021372064948	2	3	6	NaN	1	5	0.325689784324022	1	1	NaN	186	3	60	1	121	221	321	NaN	521	0.295307169668376	2	0	NaN	3010814.3322237	NaN	3010815.3156113	3010815.83216853
90	20	0	0	90	36.1581920903955	36.241610738255	14	0.46669991210103	2	1	6	NaN	1	3	0.325689784324022	1	1	NaN	187	3	61	1	121	221	321	NaN	521	0.254574669990689	1	1	NaN	3010816.9491634	NaN	3010817.9325496	3010818.44909793
90	20	0	0	90	36.1581920903955	36.241610738255	7	0.233349956050515	2	11	3	NaN	2	4	0.325689784324022	1	1	NaN	188	3	62	1	121	221	321	NaN	521	0.23976997518912	2	1	NaN	3010819.5160954	NaN	3010820.4994712	3010821.01602422
90	20	0	0	90	36.1581920903955	36.241610738255	14	0.46669991210103	2	7	5	NaN	2	3	0.325689784324022	1	1	NaN	189	3	63	1	121	221	321	NaN	521	0.449672370217741	1	0	NaN	3010822.0663114	NaN	3010823.0497447	3010823.56626943
90	20	0	0	90	36.1581920903955	36.241610738255	21	0.700049868151546	2	8	1	NaN	2	4	0.325689784324022	1	1	NaN	190	4	1	1	121	221	321	NaN	521	0.0878795702010393	2	1	NaN	3010836.0676678	NaN	3010837.0511091	3010837.56763733
90	20	0	0	90	36.1581920903955	36.241610738255	23	0.766721284165979	2	5	5	NaN	1	3	0.325689784324022	1	1	NaN	191	4	2	1	121	221	321	NaN	521	0.0959116173908114	2	0	NaN	3010838.4679274	NaN	3010839.4513231	3010839.96788228
90	20	0	0	90	36.1581920903955	36.241610738255	23	0.766721284165979	2	12	3	NaN	2	4	0.325689784324022	1	1	NaN	192	4	3	1	121	221	321	NaN	521	0.287554469890893	2	1	NaN	3010840.8680248	NaN	3010841.8515767	3010842.36810853
90	20	0	0	90	36.1581920903955	36.241610738255	10	0.333357080072165	2	7	3	NaN	2	4	0.325689784324022	1	1	NaN	193	4	4	1	121	221	321	NaN	521	0.0104279173538089	2	1	NaN	3010843.4683434	NaN	3010844.4518803	3010844.96836308
90	20	0	0	90	36.1581920903955	36.241610738255	24	0.800056992173195	2	4	4	NaN	1	3	0.325689784324022	1	1	NaN	194	4	5	1	121	221	321	NaN	521	0.410097470041364	1	1	NaN	3010845.8019783	NaN	3010846.7853738	3010847.30192733
90	20	0	0	90	36.1581920903955	36.241610738255	21	0.700049868151546	2	11	3	NaN	2	3	0.325689784324022	1	1	NaN	195	4	6	1	121	221	321	NaN	521	0.284804865252227	2	1	NaN	3010848.5189962	NaN	3010849.5023789	3010850.01886673
90	20	0	0	90	36.1581920903955	36.241610738255	0	0	1	10	3	NaN	2	5	0.325689784324022	1	1	NaN	196	4	7	1	111	211	311	NaN	511	4.16445832233876	2	1	NaN	3010851.1191636	NaN	3010852.1025892	3010852.61912718
90	20	0	0	90	36.1581920903955	36.241610738255	0	0	1	2	1	NaN	1	5	0.325689784324022	1	1	NaN	197	4	8	1	111	211	311	NaN	511	0.35307421721518	2	0	NaN	3010857.6030101	NaN	3010858.5865334	3010859.10309728
90	20	0	0	90	36.1581920903955	36.241610738255	14	0.46669991210103	2	11	6	NaN	2	3	0.325689784324022	1	1	NaN	198	4	9	1	121	221	321	NaN	521	0.21369746979326	2	1	NaN	3010860.2700704	NaN	3010861.2534672	3010861.77001503
90	20	0	0	90	36.1581920903955	36.241610738255	16	0.533371328115463	2	9	2	NaN	2	4	0.325689784324022	1	1	NaN	199	4	10	1	121	221	321	NaN	521	0.296349669806659	2	1	NaN	3010862.8036669	NaN	3010863.7870496	3010864.30359483
90	20	0	0	90	36.1581920903955	36.241610738255	17	0.56670703612268	2	8	3	NaN	2	5	0.325689784324022	1	1	NaN	200	4	11	1	121	221	321	NaN	521	0.263469470199198	2	1	NaN	3010865.4205669	NaN	3010866.4039832	3010866.92052643
90	20	0	0	90	36.1581920903955	36.241610738255	24	0.800056992173195	2	9	1	NaN	2	4	0.325689784324022	1	1	NaN	201	4	12	1	121	221	321	NaN	521	0.327489865012467	2	1	NaN	3010868.0041607	NaN	3010868.9875695	3010869.50410764
90	20	0	0	90	36.1581920903955	36.241610738255	18	0.600042744129896	2	3	4	NaN	1	5	0.325689784324022	1	1	NaN	202	4	13	1	121	221	321	NaN	521	0.174225416965783	1	1	NaN	3010870.6376228	NaN	3010871.621155	3010872.13769978
90	20	0	0	90	36.1581920903955	36.241610738255	7	0.233349956050515	2	4	5	NaN	1	3	0.325689784324022	1	1	NaN	203	4	14	1	121	221	321	NaN	521	0.49062781734392	1	1	NaN	3010873.1213776	NaN	3010874.1047591	3010874.62128578
90	20	0	0	90	36.1581920903955	36.241610738255	17	0.56670703612268	2	3	3	NaN	1	3	0.325689784324022	1	1	NaN	204	4	15	1	121	221	321	NaN	521	0.817991517484188	1	1	NaN	3010875.9216118	NaN	3010876.9050097	3010877.42157608
90	20	0	0	90	36.1581920903955	36.241610738255	9	0.300021372064948	2	11	3	NaN	2	5	0.325689784324022	1	1	NaN	205	4	16	1	121	221	321	NaN	521	0.0104246172122657	1	0	NaN	3010879.0552607	NaN	3010880.0386484	3010880.55519618
90	20	0	0	90	36.1581920903955	36.241610738255	18	0.600042744129896	2	6	4	NaN	1	4	0.325689784324022	1	1	NaN	206	4	17	1	121	221	321	NaN	521	0.24788407003507	2	0	NaN	3010881.3720513	NaN	3010882.3555345	3010882.87209423
90	20	0	0	90	36.1581920903955	36.241610738255	12	0.400028496086597	2	8	6	NaN	2	3	0.325689784324022	1	1	NaN	207	4	18	1	121	221	321	NaN	521	0.232861970085651	2	1	NaN	3010883.9390554	NaN	3010884.9224618	3010885.43901873
90	20	0	0	90	36.1581920903955	36.241610738255	25	0.833392700180411	2	7	6	NaN	2	3	0.325689784324022	1	1	NaN	208	4	19	1	121	221	321	NaN	521	0.770422907080501	1	0	NaN	3010886.4893247	NaN	3010887.4727244	3010887.98926369
90	20	0	0	90	36.1581920903955	36.241610738255	13	0.433364204093814	2	2	6	NaN	1	3	0.325689784324022	1	1	NaN	209	4	20	1	121	221	321	NaN	521	0.358629675582051	2	0	NaN	3010889.5729479	NaN	3010890.5563605	3010891.07292102
90	20	0	0	90	36.1581920903955	36.241610738255	23	0.766721284165979	2	11	3	NaN	2	5	0.325689784324022	1	1	NaN	210	4	21	1	121	221	321	NaN	521	0.132023842539638	2	1	NaN	3010892.239882	NaN	3010893.2232581	3010893.73983136
90	20	0	0	90	36.1581920903955	36.241610738255	11	0.366692788079381	2	2	1	NaN	1	4	0.325689784324022	1	1	NaN	211	4	22	1	121	221	321	NaN	521	0.305506769567728	1	1	NaN	3010894.6901215	NaN	3010895.673523	3010896.19006643
90	20	0	0	90	36.1581920903955	36.241610738255	14	0.46669991210103	2	12	5	NaN	2	4	0.325689784324022	1	1	NaN	212	4	23	1	121	221	321	NaN	521	0.321015370078385	2	1	NaN	3010897.307035	NaN	3010898.2904587	3010898.80698533
90	20	0	0	90	36.1581920903955	36.241610738255	20	0.666714160144329	2	11	1	NaN	2	5	0.325689784324022	1	1	NaN	213	4	24	1	121	221	321	NaN	521	0.286959170363843	2	1	NaN	3010899.940669	NaN	3010900.9240404	3010901.44057953
90	20	0	0	90	36.1581920903955	36.241610738255	17	0.56670703612268	2	7	6	NaN	2	5	0.325689784324022	1	1	NaN	214	4	25	1	121	221	321	NaN	521	0.415057870093733	2	1	NaN	3010902.5409312	NaN	3010903.5242835	3010904.04083533
90	20	0	0	90	36.1581920903955	36.241610738255	15	0.500035620108247	2	5	5	NaN	1	4	0.325689784324022	1	1	NaN	215	4	26	1	121	221	321	NaN	521	0.305275717750192	1	1	NaN	3010905.2744774	NaN	3010906.2578883	3010906.77444618
90	20	0	0	90	36.1581920903955	36.241610738255	21	0.700049868151546	2	3	4	NaN	1	4	0.325689784324022	1	1	NaN	216	4	27	1	121	221	321	NaN	521	0.824357155244797	1	1	NaN	3010907.891414	NaN	3010908.8748117	3010909.39136394
90	20	0	0	90	36.1581920903955	36.241610738255	22	0.733385576158762	2	11	2	NaN	2	5	0.325689784324022	1	1	NaN	217	4	28	1	121	221	321	NaN	521	0.361678117420524	2	1	NaN	3010911.0417244	NaN	3010912.0251423	3010912.54167788
90	20	0	0	90	36.1581920903955	36.241610738255	13	0.433364204093814	2	12	1	NaN	2	3	0.325689784324022	1	1	NaN	218	4	29	1	121	221	321	NaN	521	0.478293342515826	1	0	NaN	3010913.7253345	NaN	3010914.7087286	3010915.22528026
90	20	0	0	90	36.1581920903955	36.241610738255	11	0.366692788079381	2	10	1	NaN	2	3	0.325689784324022	1	1	NaN	219	4	30	1	121	221	321	NaN	521	1.20694461744279	2	1	NaN	3010916.5089385	NaN	3010917.4923393	3010918.00886938
90	20	0	0	90	36.1581920903955	36.241610738255	25	0.833392700180411	2	10	1	NaN	2	5	0.325689784324022	1	1	NaN	220	4	31	1	121	221	321	NaN	521	0.441730047110468	2	1	NaN	3010920.0258117	NaN	3010921.0093409	3010921.52589045
90	20	0	0	90	36.1581920903955	36.241610738255	22	0.733385576158762	2	7	4	NaN	2	4	0.325689784324022	1	1	NaN	221	4	32	1	121	221	321	NaN	521	0.307633465155959	2	1	NaN	3010922.7761939	NaN	3010923.7596138	3010924.27615133
90	20	0	0	90	36.1581920903955	36.241610738255	10	0.333357080072165	2	5	4	NaN	1	3	0.325689784324022	1	1	NaN	222	4	33	1	121	221	321	NaN	521	0.330955317709595	1	1	NaN	3010925.393093	NaN	3010926.3765158	3010926.89307948
90	20	0	0	90	36.1581920903955	36.241610738255	20	0.666714160144329	2	12	4	NaN	2	3	0.325689784324022	1	1	NaN	223	4	34	1	121	221	321	NaN	521	0.304318069946021	2	1	NaN	3010928.043387	NaN	3010929.0267956	3010929.54333663
90	20	0	0	90	36.1581920903955	36.241610738255	14	0.46669991210103	2	10	3	NaN	2	5	0.325689784324022	1	1	NaN	224	4	35	1	121	221	321	NaN	521	2.67941656988114	2	1	NaN	3010930.6603147	NaN	3010931.6437107	3010932.16026963
90	20	0	0	90	36.1581920903955	36.241610738255	21	0.700049868151546	2	11	2	NaN	2	3	0.325689784324022	1	1	NaN	225	4	36	1	121	221	321	NaN	521	1.13423216994852	2	1	NaN	3010939.477856	NaN	3010940.4612479	3010940.97779223
90	20	0	0	90	36.1581920903955	36.241610738255	20	0.666714160144329	2	5	6	NaN	1	5	0.325689784324022	1	1	NaN	226	4	37	1	121	221	321	NaN	521	0.595459622330964	1	1	NaN	3010942.9281773	NaN	3010943.9116	3010944.42814028
90	20	0	0	90	36.1581920903955	36.241610738255	25	0.833392700180411	2	3	3	NaN	1	3	0.325689784324022	1	1	NaN	227	4	38	1	121	221	321	NaN	521	1.02272447012365	1	1	NaN	3010945.8450584	NaN	3010946.8285375	3010947.34509053
90	20	0	0	90	36.1581920903955	36.241610738255	17	0.56670703612268	2	10	1	NaN	2	3	0.325689784324022	1	1	NaN	228	4	39	1	121	221	321	NaN	521	0.345047917682678	2	1	NaN	3010949.1788052	NaN	3010950.1622012	3010950.67874778
90	20	0	0	90	36.1581920903955	36.241610738255	22	0.733385576158762	2	12	3	NaN	2	3	0.325689784324022	1	1	NaN	229	4	40	1	121	221	321	NaN	521	0.310767769813538	2	1	NaN	3010951.8289442	NaN	3010952.8124658	3010953.32901473
90	20	0	0	90	36.1581920903955	36.241610738255	21	0.700049868151546	2	10	6	NaN	2	3	0.325689784324022	1	1	NaN	230	4	41	1	121	221	321	NaN	521	0.35744812246412	2	1	NaN	3010954.4626897	NaN	3010955.4460625	3010955.96261118
90	20	0	0	90	36.1581920903955	36.241610738255	0	0	1	9	6	NaN	2	3	0.325689784324022	1	1	NaN	231	4	42	1	111	211	311	NaN	511	0.298670717515051	2	1	NaN	3010957.1295577	NaN	3010958.1130344	3010958.62952688
90	20	0	0	90	36.1581920903955	36.241610738255	20	0.666714160144329	2	4	2	NaN	1	3	0.325689784324022	1	1	NaN	232	4	43	1	121	221	321	NaN	521	0.289605069905519	1	1	NaN	3010959.7465141	NaN	3010960.7299157	3010961.24647693
90	20	0	0	90	36.1581920903955	36.241610738255	11	0.366692788079381	2	8	3	NaN	2	5	0.325689784324022	1	1	NaN	233	4	44	1	121	221	321	NaN	521	0.305422727484256	2	1	NaN	3010962.3467623	NaN	3010963.3301674	3010963.84670707
90	20	0	0	90	36.1581920903955	36.241610738255	7	0.233349956050515	2	8	4	NaN	2	5	0.325689784324022	1	1	NaN	234	4	45	1	121	221	321	NaN	521	0.272606569807976	2	1	NaN	3010964.9636885	NaN	3010965.9470925	3010966.46363263
90	20	0	0	90	36.1581920903955	36.241610738255	19	0.633378452137113	2	9	6	NaN	2	4	0.325689784324022	1	1	NaN	235	4	46	1	121	221	321	NaN	521	0.2725366698578	2	1	NaN	3010967.5471744	NaN	3010968.5307322	3010969.04721703
90	20	0	0	90	36.1581920903955	36.241610738255	13	0.433364204093814	2	7	3	NaN	2	4	0.325689784324022	1	1	NaN	236	4	47	1	121	221	321	NaN	521	0.305360469967127	2	1	NaN	3010970.1308694	NaN	3010971.1142733	3010971.63081043
90	20	0	0	90	36.1581920903955	36.241610738255	21	0.700049868151546	2	1	3	NaN	1	3	0.325689784324022	1	1	NaN	237	4	48	1	121	221	321	NaN	521	0.368455070070922	1	1	NaN	3010972.7477843	NaN	3010973.7311847	3010974.24772833
90	20	0	0	90	36.1581920903955	36.241610738255	9	0.300021372064948	2	12	1	NaN	2	3	0.325689784324022	1	1	NaN	238	4	49	1	121	221	321	NaN	521	0.220585169736296	2	1	NaN	3010975.4312904	NaN	3010976.4147732	3010976.93132663
90	20	0	0	90	36.1581920903955	36.241610738255	9	0.300021372064948	2	1	6	NaN	1	3	0.325689784324022	1	1	NaN	239	4	50	1	121	221	321	NaN	521	0.446954275481403	1	1	NaN	3010977.9649619	NaN	3010978.9483711	3010979.46491742
90	20	0	0	90	36.1581920903955	36.241610738255	23	0.766721284165979	2	8	2	NaN	2	4	0.325689784324022	1	1	NaN	240	4	51	1	121	221	321	NaN	521	0.431739922612906	2	1	NaN	3010981.3318842	NaN	3010982.3153858	3010982.83191708
90	20	0	0	90	36.1581920903955	36.241610738255	10	0.333357080072165	2	12	3	NaN	2	4	0.325689784324022	1	1	NaN	241	4	52	1	121	221	321	NaN	521	0.969568169675767	2	1	NaN	3010984.0822318	NaN	3010985.0656394	3010985.58217453
90	20	0	0	90	36.1581920903955	36.241610738255	7	0.233349956050515	2	9	3	NaN	2	4	0.325689784324022	1	1	NaN	242	4	53	1	121	221	321	NaN	521	0.542598622385412	2	1	NaN	3010988.1493564	NaN	3010989.1326853	3010989.64924378
90	20	0	0	90	36.1581920903955	36.241610738255	7	0.233349956050515	2	1	6	NaN	1	5	0.325689784324022	1	1	NaN	243	4	54	1	121	221	321	NaN	521	0.69241921743378	1	1	NaN	3010990.9995695	NaN	3010991.9829874	3010992.49952978
90	20	0	0	90	36.1581920903955	36.241610738255	20	0.666714160144329	2	6	2	NaN	1	3	0.325689784324022	1	1	NaN	244	4	55	1	121	221	321	NaN	521	1.63577671768144	2	0	NaN	3010994.0165376	NaN	3010994.999952	3010995.51648158
90	20	0	0	90	36.1581920903955	36.241610738255	20	0.666714160144329	2	5	5	NaN	1	5	0.325689784324022	1	1	NaN	245	4	56	1	121	221	321	NaN	521	0.464273317251354	2	0	NaN	3010998.4836284	NaN	3010999.4670453	3010999.98358778
90	20	0	0	90	36.1581920903955	36.241610738255	11	0.366692788079381	2	5	6	NaN	1	4	0.325689784324022	1	1	NaN	246	4	57	1	121	221	321	NaN	521	0.624511817470193	1	1	NaN	3011001.4665982	NaN	3011002.4506888	3011002.96722018
90	20	0	0	90	36.1581920903955	36.241610738255	0	0	1	1	3	NaN	1	3	0.325689784324022	1	1	NaN	247	4	58	1	111	211	311	NaN	511	0.810052117798477	2	0	NaN	3011006.2177409	NaN	3011007.2011375	3011007.71767988
90	20	0	0	90	36.1581920903955	36.241610738255	25	0.833392700180411	2	6	6	NaN	1	4	0.325689784324022	1	1	NaN	248	4	59	1	121	221	321	NaN	521	1.86272272281349	1	1	NaN	3011009.5014081	NaN	3011010.4848043	3011011.00135078
90	20	0	0	90	36.1581920903955	36.241610738255	15	0.500035620108247	2	1	2	NaN	1	4	0.325689784324022	1	1	NaN	249	4	60	1	121	221	321	NaN	521	0.0398983699269593	1	1	NaN	3011017.0521168	NaN	3011018.0355336	3011018.55208703
90	20	0	0	90	36.1581920903955	36.241610738255	13	0.433364204093814	2	5	2	NaN	1	4	0.325689784324022	1	1	NaN	250	4	61	1	121	221	321	NaN	521	0.545867222826928	2	0	NaN	3011019.402348	NaN	3011020.3857722	3011020.90232368
90	20	0	0	90	36.1581920903955	36.241610738255	22	0.733385576158762	2	5	1	NaN	1	4	0.325689784324022	1	1	NaN	251	4	62	1	121	221	321	NaN	521	0.359221922233701	1	1	NaN	3011022.2526333	NaN	3011023.2359379	3011023.75260288
90	20	0	0	90	36.1581920903955	36.241610738255	11	0.366692788079381	2	1	4	NaN	1	4	0.325689784324022	1	1	NaN	252	4	63	1	121	221	321	NaN	521	0.484381769783795	1	1	NaN	3011024.9194499	NaN	3011025.9029735	3011026.41952103
90	20	0	0	90	36.1581920903955	36.241610738255	11	0.366692788079381	2	1	4	NaN	1	5	0.325689784324022	1	1	NaN	253	5	1	1	121	221	321	NaN	521	0.394625179935247	1	1	NaN	3011071.6574318	NaN	3011072.6409071	3011073.15745212
90	20	0	0	90	36.1581920903955	36.241610738255	17	0.56670703612268	2	11	6	NaN	2	5	0.325689784324022	1	1	NaN	254	5	2	1	121	221	321	NaN	521	0.341897564940155	2	1	NaN	3011074.3744349	NaN	3011075.3578289	3011075.87437573
90	20	0	0	90	36.1581920903955	36.241610738255	22	0.733385576158762	2	6	5	NaN	1	3	0.325689784324022	1	1	NaN	255	5	3	1	121	221	321	NaN	521	0.475475469604135	1	1	NaN	3011077.0246897	NaN	3011078.0080953	3011078.52463563
90	20	0	0	90	36.1581920903955	36.241610738255	12	0.400028496086597	2	3	4	NaN	1	4	0.325689784324022	1	1	NaN	256	5	4	1	121	221	321	NaN	521	0.283658270258456	1	1	NaN	3011079.8082967	NaN	3011080.7916774	3011081.30824163
90	20	0	0	90	36.1581920903955	36.241610738255	19	0.633378452137113	2	7	4	NaN	2	5	0.325689784324022	1	1	NaN	257	5	5	1	121	221	321	NaN	521	0.659134269692004	2	1	NaN	3011082.4085618	NaN	3011083.3919558	3011083.90849963
90	20	0	0	90	36.1581920903955	36.241610738255	20	0.666714160144329	2	2	5	NaN	1	4	0.325689784324022	1	1	NaN	258	5	6	1	121	221	321	NaN	521	0.372575017157942	1	1	NaN	3011085.3755171	NaN	3011086.3589342	3011086.87545808
90	20	0	0	90	36.1581920903955	36.241610738255	15	0.500035620108247	2	2	5	NaN	1	4	0.325689784324022	1	1	NaN	259	5	7	1	121	221	321	NaN	521	0.256974217481911	1	1	NaN	3011088.0591214	NaN	3011089.0425059	3011089.55905348
90	20	0	0	90	36.1581920903955	36.241610738255	22	0.733385576158762	2	9	4	NaN	2	4	0.325689784324022	1	1	NaN	260	5	8	1	121	221	321	NaN	521	0.258301422931254	1	0	NaN	3011090.6260163	NaN	3011091.6094437	3011092.12598278
90	20	0	0	90	36.1581920903955	36.241610738255	6	0.200014248043299	2	7	6	NaN	2	4	0.325689784324022	1	1	NaN	261	5	9	1	121	221	321	NaN	521	0.249947870150208	2	1	NaN	3011093.4262707	NaN	3011094.4096999	3011094.92624943
90	20	0	0	90	36.1581920903955	36.241610738255	0	0	1	1	2	NaN	1	3	0.325689784324022	1	1	NaN	262	5	10	1	111	211	311	NaN	511	0.676669369917363	2	0	NaN	3011098.1433209	NaN	3011099.1268145	3011099.64338053
90	20	0	0	90	36.1581920903955	36.241610738255	18	0.600042744129896	2	3	6	NaN	1	3	0.325689784324022	1	1	NaN	263	5	11	1	121	221	321	NaN	521	0.389006369747221	1	1	NaN	3011101.1270775	NaN	3011102.1104716	3011102.62700833
90	20	0	0	90	36.1581920903955	36.241610738255	8	0.266685664057732	2	10	3	NaN	2	3	0.325689784324022	1	1	NaN	264	5	12	1	121	221	321	NaN	521	2.2923698425293	2	1	NaN	3011104.5274224	NaN	3011105.5107853	3011106.02734706
90	20	0	0	90	36.1581920903955	36.241610738255	14	0.46669991210103	2	11	4	NaN	2	5	0.325689784324022	1	1	NaN	265	5	13	1	121	221	321	NaN	521	1.28416797006503	2	1	NaN	3011109.127841	NaN	3011110.1112265	3011110.62779553
90	20	0	0	90	36.1581920903955	36.241610738255	9	0.300021372064948	2	7	2	NaN	2	3	0.325689784324022	1	1	NaN	266	5	14	1	121	221	321	NaN	521	1.04416017001495	2	1	NaN	3011112.7281896	NaN	3011113.7115786	3011114.22814983
90	20	0	0	90	36.1581920903955	36.241610738255	6	0.200014248043299	2	3	3	NaN	1	3	0.325689784324022	1	1	NaN	267	5	15	1	121	221	321	NaN	521	0.422040517441928	1	1	NaN	3011116.0784865	NaN	3011117.0619431	3011117.57846978
90	20	0	0	90	36.1581920903955	36.241610738255	14	0.46669991210103	2	8	4	NaN	2	4	0.325689784324022	1	1	NaN	268	5	16	1	121	221	321	NaN	521	0.39781806524843	2	1	NaN	3011120.0623299	NaN	3011121.0456991	3011121.56219673
90	20	0	0	90	36.1581920903955	36.241610738255	25	0.833392700180411	2	8	2	NaN	2	4	0.325689784324022	1	1	NaN	269	5	17	1	121	221	321	NaN	521	0.380796217359602	2	1	NaN	3011124.4793209	NaN	3011125.4627578	3011125.97929538
90	20	0	0	90	36.1581920903955	36.241610738255	25	0.833392700180411	2	9	6	NaN	2	4	0.325689784324022	1	1	NaN	270	5	18	1	121	221	321	NaN	521	0.71394996996969	2	1	NaN	3011163.4665209	NaN	3011164.4499662	3011164.96646923
90	20	0	0	90	36.1581920903955	36.241610738255	0	0	1	5	4	NaN	1	3	0.325689784324022	1	1	NaN	271	5	19	1	111	211	311	NaN	511	0.439877069555223	1	1	NaN	3011166.5001524	NaN	3011167.4835399	3011168.00009973
90	20	0	0	90	36.1581920903955	36.241610738255	24	0.800056992173195	2	5	1	NaN	1	3	0.325689784324022	1	1	NaN	272	5	20	1	121	221	321	NaN	521	0.385998175479472	1	1	NaN	3011169.2504147	NaN	3011170.2338146	3011170.75036642
90	20	0	0	90	36.1581920903955	36.241610738255	18	0.600042744129896	2	4	5	NaN	1	4	0.325689784324022	1	1	NaN	273	5	21	1	121	221	321	NaN	521	0.237834370229393	2	0	NaN	3011171.9507631	NaN	3011172.9340884	3011173.45062433
90	20	0	0	90	36.1581920903955	36.241610738255	0	0	1	12	4	NaN	2	3	0.325689784324022	1	1	NaN	274	5	22	1	111	211	311	NaN	511	0.231160217430443	1	0	NaN	3011174.5009561	NaN	3011175.4843383	3011176.00088848
90	20	0	0	90	36.1581920903955	36.241610738255	6	0.200014248043299	2	8	3	NaN	2	3	0.325689784324022	1	1	NaN	275	5	23	1	121	221	321	NaN	521	0.249243417289108	1	0	NaN	3011177.0510889	NaN	3011178.0345911	3011178.55112628
90	20	0	0	90	36.1581920903955	36.241610738255	15	0.500035620108247	2	9	4	NaN	2	3	0.325689784324022	1	1	NaN	276	5	24	1	121	221	321	NaN	521	0.234176222700626	2	1	NaN	3011179.6180339	NaN	3011180.6014966	3011181.11805558
90	20	0	0	90	36.1581920903955	36.241610738255	15	0.500035620108247	2	6	1	NaN	1	5	0.325689784324022	1	1	NaN	277	5	25	1	121	221	321	NaN	521	0.259947322774678	2	0	NaN	3011182.168355	NaN	3011183.1517513	3011183.66832398
90	20	0	0	90	36.1581920903955	36.241610738255	15	0.500035620108247	2	6	5	NaN	1	4	0.325689784324022	1	1	NaN	278	5	26	1	121	221	321	NaN	521	0.245293269865215	2	0	NaN	3011184.7352782	NaN	3011185.7187025	3011186.23521663
90	20	0	0	90	36.1581920903955	36.241610738255	13	0.433364204093814	2	6	2	NaN	1	4	0.325689784324022	1	1	NaN	279	5	27	1	121	221	321	NaN	521	0.174922070000321	1	1	NaN	3011187.2855389	NaN	3011188.268924	3011188.78547313
90	20	0	0	90	36.1581920903955	36.241610738255	15	0.500035620108247	2	4	4	NaN	1	5	0.325689784324022	1	1	NaN	280	5	28	1	121	221	321	NaN	521	0.29108757013455	1	1	NaN	3011189.7690997	NaN	3011190.752495	3011191.26904253
90	20	0	0	90	36.1581920903955	36.241610738255	16	0.533371328115463	2	8	2	NaN	2	5	0.325689784324022	1	1	NaN	281	5	29	1	121	221	321	NaN	521	0.250763270072639	2	1	NaN	3011192.3692845	NaN	3011193.352768	3011193.86929833
90	20	0	0	90	36.1581920903955	36.241610738255	9	0.300021372064948	2	3	3	NaN	1	4	0.325689784324022	1	1	NaN	282	5	30	1	121	221	321	NaN	521	0.356211017351598	1	1	NaN	3011194.9361305	NaN	3011195.9196939	3011196.43622108
90	20	0	0	90	36.1581920903955	36.241610738255	10	0.333357080072165	2	1	4	NaN	1	3	0.325689784324022	1	1	NaN	283	5	31	1	121	221	321	NaN	521	0.889316322281957	1	1	NaN	3011197.6032086	NaN	3011198.5865992	3011199.10315878
90	20	0	0	90	36.1581920903955	36.241610738255	20	0.666714160144329	2	3	1	NaN	1	5	0.325689784324022	1	1	NaN	284	5	32	1	121	221	321	NaN	521	0.721181369852275	1	1	NaN	3011200.8035025	NaN	3011201.7869195	3011202.30345993
90	20	0	0	90	36.1581920903955	36.241610738255	24	0.800056992173195	2	6	3	NaN	1	3	0.325689784324022	1	1	NaN	285	5	33	1	121	221	321	NaN	521	0.263055469840765	1	1	NaN	3011203.8370525	NaN	3011204.8205941	3011205.33709433
90	20	0	0	90	36.1581920903955	36.241610738255	8	0.266685664057732	2	11	1	NaN	2	4	0.325689784324022	1	1	NaN	286	5	34	1	121	221	321	NaN	521	0.311407969798893	2	1	NaN	3011206.4208279	NaN	3011207.4041361	3011207.92069143
90	20	0	0	90	36.1581920903955	36.241610738255	8	0.266685664057732	2	3	5	NaN	1	3	0.325689784324022	1	1	NaN	287	5	35	1	121	221	321	NaN	521	0.27875577006489	1	1	NaN	3011209.0376546	NaN	3011210.0210634	3011210.53761023
90	20	0	0	90	36.1581920903955	36.241610738255	10	0.333357080072165	2	3	1	NaN	1	4	0.325689784324022	1	1	NaN	288	5	36	1	121	221	321	NaN	521	0.415207770187408	1	1	NaN	3011211.6210997	NaN	3011212.6046748	3011213.12118943
90	20	0	0	90	36.1581920903955	36.241610738255	18	0.600042744129896	2	10	3	NaN	2	4	0.325689784324022	1	1	NaN	289	5	37	1	121	221	321	NaN	521	0.265258470084518	2	1	NaN	3011214.354848	NaN	3011215.3383136	3011215.85479823
90	20	0	0	90	36.1581920903955	36.241610738255	18	0.600042744129896	2	10	4	NaN	2	4	0.325689784324022	1	1	NaN	290	5	38	1	121	221	321	NaN	521	1.93782216962427	2	1	NaN	3011216.9384379	NaN	3011217.9218199	3011218.43838613
90	20	0	0	90	36.1581920903955	36.241610738255	13	0.433364204093814	2	11	1	NaN	2	4	0.325689784324022	1	1	NaN	291	5	39	1	121	221	321	NaN	521	0.207356569822878	2	1	NaN	3011221.1888643	NaN	3011222.1722358	3011222.68879813
90	20	0	0	90	36.1581920903955	36.241610738255	23	0.766721284165979	2	7	6	NaN	2	5	0.325689784324022	1	1	NaN	292	5	40	1	121	221	321	NaN	521	0.234552817419171	2	1	NaN	3011223.7057791	NaN	3011224.6891489	3011225.20571718
90	20	0	0	90	36.1581920903955	36.241610738255	22	0.733385576158762	2	2	6	NaN	1	5	0.325689784324022	1	1	NaN	293	5	41	1	121	221	321	NaN	521	0.444150470197201	1	1	NaN	3011226.2561207	NaN	3011227.2394202	3011227.75596353
90	20	0	0	90	36.1581920903955	36.241610738255	25	0.833392700180411	2	4	2	NaN	1	5	0.325689784324022	1	1	NaN	294	5	42	1	121	221	321	NaN	521	0.421270370017737	1	1	NaN	3011229.0229627	NaN	3011230.0063671	3011230.52289923
90	20	0	0	90	36.1581920903955	36.241610738255	8	0.266685664057732	2	5	1	NaN	1	4	0.325689784324022	1	1	NaN	295	5	43	1	121	221	321	NaN	521	0.303542070090771	1	1	NaN	3011231.7564218	NaN	3011232.7399656	3011233.25650693
90	20	0	0	90	36.1581920903955	36.241610738255	17	0.56670703612268	2	2	4	NaN	1	5	0.325689784324022	1	1	NaN	296	5	44	1	121	221	321	NaN	521	0.294600069988519	1	1	NaN	3011234.3735573	NaN	3011235.3568748	3011235.87342923
90	20	0	0	90	36.1581920903955	36.241610738255	17	0.56670703612268	2	5	4	NaN	1	5	0.325689784324022	1	1	NaN	297	5	45	1	121	221	321	NaN	521	0.251980970147997	1	1	NaN	3011237.0403756	NaN	3011238.0238238	3011238.54035853
90	20	0	0	90	36.1581920903955	36.241610738255	20	0.666714160144329	2	12	4	NaN	2	3	0.325689784324022	1	1	NaN	298	5	46	1	121	221	321	NaN	521	0.252865365240723	1	0	NaN	3011239.6073421	NaN	3011240.5907279	3011241.10727253
90	20	0	0	90	36.1581920903955	36.241610738255	8	0.266685664057732	2	12	6	NaN	2	4	0.325689784324022	1	1	NaN	299	5	47	1	121	221	321	NaN	521	0.669972565490752	2	1	NaN	3011242.1742608	NaN	3011243.1576933	3011243.67421393
90	20	0	0	90	36.1581920903955	36.241610738255	12	0.400028496086597	2	5	1	NaN	1	3	0.325689784324022	1	1	NaN	300	5	48	1	121	221	321	NaN	521	0.30227486975491	1	1	NaN	3011245.1578664	NaN	3011246.1412828	3011246.65782163
90	20	0	0	90	36.1581920903955	36.241610738255	17	0.56670703612268	2	12	1	NaN	2	3	0.325689784324022	1	1	NaN	301	5	49	1	121	221	321	NaN	521	0.669821469578892	1	0	NaN	3011247.7746818	NaN	3011248.7581993	3011249.27474933
90	20	0	0	90	36.1581920903955	36.241610738255	21	0.700049868151546	2	5	2	NaN	1	5	0.325689784324022	1	1	NaN	302	5	50	1	121	221	321	NaN	521	1.8143144370988	1	1	NaN	3011250.7584166	NaN	3011251.7418367	3011252.25837516
90	20	0	0	90	36.1581920903955	36.241610738255	24	0.800056992173195	2	12	2	NaN	2	4	0.325689784324022	1	1	NaN	303	5	51	1	121	221	321	NaN	521	0.256137870252132	2	1	NaN	3011254.8921606	NaN	3011255.875456	3011256.39210743
90	20	0	0	90	36.1581920903955	36.241610738255	19	0.633378452137113	2	12	2	NaN	2	4	0.325689784324022	1	1	NaN	304	5	52	1	121	221	321	NaN	521	0.433359669987112	2	1	NaN	3011257.4590898	NaN	3011258.4424665	3011258.95905383
90	20	0	0	90	36.1581920903955	36.241610738255	13	0.433364204093814	2	8	5	NaN	2	4	0.325689784324022	1	1	NaN	305	5	53	1	121	221	321	NaN	521	0.410835622809827	1	0	NaN	3011260.2093785	NaN	3011261.1927422	3011261.70930858
90	20	0	0	90	36.1581920903955	36.241610738255	21	0.700049868151546	2	2	2	NaN	1	4	0.325689784324022	1	1	NaN	306	5	54	1	121	221	321	NaN	521	0.254099722951651	1	1	NaN	3011262.926276	NaN	3011263.9096844	3011264.42624328
90	20	0	0	90	36.1581920903955	36.241610738255	13	0.433364204093814	2	9	1	NaN	2	4	0.325689784324022	1	1	NaN	307	5	55	1	121	221	321	NaN	521	0.151352117303759	2	1	NaN	3011265.4932048	NaN	3011266.4766059	3011266.99314718
90	20	0	0	90	36.1581920903955	36.241610738255	16	0.533371328115463	2	11	4	NaN	2	5	0.325689784324022	1	1	NaN	308	5	56	1	121	221	321	NaN	521	0.188432489987463	2	1	NaN	3011267.9601315	NaN	3011268.9435244	3011269.46006271
90	20	0	0	90	36.1581920903955	36.241610738255	25	0.833392700180411	2	5	3	NaN	1	4	0.325689784324022	1	1	NaN	309	5	57	1	121	221	321	NaN	521	0.335923322476447	1	1	NaN	3011270.4603604	NaN	3011271.4437732	3011271.96030588
90	20	0	0	90	36.1581920903955	36.241610738255	0	0	1	11	2	NaN	2	3	0.325689784324022	1	1	NaN	310	5	58	1	111	211	311	NaN	511	0.197158517315984	2	1	NaN	3011273.1272858	NaN	3011274.1108097	3011274.62724148
90	20	0	0	90	36.1581920903955	36.241610738255	17	0.56670703612268	2	1	1	NaN	1	4	0.325689784324022	1	1	NaN	311	5	59	1	121	221	321	NaN	521	0.383874517399818	1	1	NaN	3011275.6441906	NaN	3011276.6275962	3011277.14415658
90	20	0	0	90	36.1581920903955	36.241610738255	11	0.366692788079381	2	11	5	NaN	2	3	0.325689784324022	1	1	NaN	312	5	60	1	121	221	321	NaN	521	0.61987937008962	2	1	NaN	3011278.3444819	NaN	3011279.3278687	3011279.84441233
90	20	0	0	90	36.1581920903955	36.241610738255	7	0.233349956050515	2	7	5	NaN	2	3	0.325689784324022	1	1	NaN	313	5	61	1	121	221	321	NaN	521	0.550305617041886	2	1	NaN	3011281.2781063	NaN	3011282.2614988	3011282.77803348
90	20	0	0	90	36.1581920903955	36.241610738255	19	0.633378452137113	2	4	4	NaN	1	4	0.325689784324022	1	1	NaN	314	5	62	1	121	221	321	NaN	521	0.250973070040345	2	0	NaN	3011284.1450341	NaN	3011285.1284423	3011285.64498763
90	20	0	0	90	36.1581920903955	36.241610738255	9	0.300021372064948	2	2	4	NaN	1	4	0.325689784324022	1	1	NaN	315	5	63	1	121	221	321	NaN	521	0.180657317396253	1	1	NaN	3011286.7119577	NaN	3011287.6953928	3011288.21190148
90	20	0	0	90	36.1581920903955	36.241610738255	10	0.333357080072165	2	1	3	NaN	1	4	0.325689784324022	1	1	NaN	316	6	1	1	121	221	321	NaN	521	0.280087070073932	2	0	NaN	3011326.7325355	NaN	3011327.7159573	3011328.23250113
90	20	0	0	90	36.1581920903955	36.241610738255	8	0.266685664057732	2	11	3	NaN	2	3	0.325689784324022	1	1	NaN	317	6	2	1	121	221	321	NaN	521	0.319560670293868	2	1	NaN	3011329.3328019	NaN	3011330.3162009	3011330.83275323
90	20	0	0	90	36.1581920903955	36.241610738255	12	0.400028496086597	2	12	5	NaN	2	5	0.325689784324022	1	1	NaN	318	6	3	1	121	221	321	NaN	521	0.262082669883966	2	1	NaN	3011331.9663927	NaN	3011332.9498088	3011333.46635023
90	20	0	0	90	36.1581920903955	36.241610738255	16	0.533371328115463	2	6	4	NaN	1	4	0.325689784324022	1	1	NaN	319	6	4	1	121	221	321	NaN	521	0.263450169935822	1	1	NaN	3011334.5333324	NaN	3011335.516782	3011336.03326383
90	20	0	0	90	36.1581920903955	36.241610738255	23	0.766721284165979	2	9	4	NaN	2	3	0.325689784324022	1	1	NaN	320	6	5	1	121	221	321	NaN	521	1.03131617000327	2	1	NaN	3011337.1169242	NaN	3011338.1002956	3011338.61685003
90	20	0	0	90	36.1581920903955	36.241610738255	13	0.433364204093814	2	10	4	NaN	2	5	0.325689784324022	1	1	NaN	321	6	6	1	121	221	321	NaN	521	0.240756469778717	2	1	NaN	3011340.6839231	NaN	3011341.667325	3011342.18387453
90	20	0	0	90	36.1581920903955	36.241610738255	22	0.733385576158762	2	6	1	NaN	1	3	0.325689784324022	1	1	NaN	322	6	7	1	121	221	321	NaN	521	0.322448070161045	1	1	NaN	3011343.2341784	NaN	3011344.2175728	3011344.73412433
90	20	0	0	90	36.1581920903955	36.241610738255	12	0.400028496086597	2	7	4	NaN	2	4	0.325689784324022	1	1	NaN	323	6	8	1	121	221	321	NaN	521	0.216608222573996	2	1	NaN	3011345.8677748	NaN	3011346.8510586	3011347.36772088
90	20	0	0	90	36.1581920903955	36.241610738255	9	0.300021372064948	2	2	2	NaN	1	5	0.325689784324022	1	1	NaN	324	6	9	1	121	221	321	NaN	521	0.211123069748282	1	1	NaN	3011348.401349	NaN	3011349.3847459	3011349.90129793
90	20	0	0	90	36.1581920903955	36.241610738255	23	0.766721284165979	2	10	4	NaN	2	4	0.325689784324022	1	1	NaN	325	6	10	1	121	221	321	NaN	521	0.277020422276109	2	1	NaN	3011350.9516088	NaN	3011351.9349933	3011352.45155518
90	20	0	0	90	36.1581920903955	36.241610738255	15	0.500035620108247	2	5	5	NaN	1	5	0.325689784324022	1	1	NaN	326	6	11	1	121	221	321	NaN	521	0.2371393176727	1	1	NaN	3011353.5350604	NaN	3011354.5185982	3011355.03513268
90	20	0	0	90	36.1581920903955	36.241610738255	11	0.366692788079381	2	2	1	NaN	1	5	0.325689784324022	1	1	NaN	327	6	12	1	121	221	321	NaN	521	0.142881569918245	1	1	NaN	3011356.485453	NaN	3011357.4688815	3011357.98542003
90	20	0	0	90	36.1581920903955	36.241610738255	6	0.200014248043299	2	2	2	NaN	1	5	0.325689784324022	1	1	NaN	328	6	13	1	121	221	321	NaN	521	0.213111517485231	2	0	NaN	3011358.9357931	NaN	3011359.9191259	3011360.43565858
90	20	0	0	90	36.1581920903955	36.241610738255	22	0.733385576158762	2	7	4	NaN	2	3	0.325689784324022	1	1	NaN	329	6	14	1	121	221	321	NaN	521	0.294440042693168	2	1	NaN	3011361.8859908	NaN	3011362.8694401	3011363.38595716
90	20	0	0	90	36.1581920903955	36.241610738255	20	0.666714160144329	2	6	3	NaN	1	5	0.325689784324022	1	1	NaN	330	6	15	1	121	221	321	NaN	521	0.269764869939536	1	1	NaN	3011364.5029489	NaN	3011365.4863301	3011366.00288163
90	20	0	0	90	36.1581920903955	36.241610738255	14	0.46669991210103	2	10	3	NaN	2	5	0.325689784324022	1	1	NaN	331	6	16	1	121	221	321	NaN	521	0.318186617456377	2	1	NaN	3011367.0865149	NaN	3011368.0699163	3011368.58645908
90	20	0	0	90	36.1581920903955	36.241610738255	23	0.766721284165979	2	5	2	NaN	1	4	0.325689784324022	1	1	NaN	332	6	17	1	121	221	321	NaN	521	0.340392322279513	1	1	NaN	3011369.7200953	NaN	3011370.7035094	3011371.22005818
90	20	0	0	90	36.1581920903955	36.241610738255	15	0.500035620108247	2	7	1	NaN	2	5	0.325689784324022	1	1	NaN	333	6	18	1	121	221	321	NaN	521	0.336352770216763	2	1	NaN	3011372.620381	NaN	3011373.6037675	3011374.12034383
90	20	0	0	90	36.1581920903955	36.241610738255	10	0.333357080072165	2	2	5	NaN	1	3	0.325689784324022	1	1	NaN	334	6	19	1	121	221	321	NaN	521	0.254098169971257	1	1	NaN	3011375.2707111	NaN	3011376.2540584	3011376.77059803
90	20	0	0	90	36.1581920903955	36.241610738255	17	0.56670703612268	2	4	1	NaN	1	4	0.325689784324022	1	1	NaN	335	6	20	1	121	221	321	NaN	521	0.314506617374718	1	1	NaN	3011378.3539382	NaN	3011379.3376856	3011379.85424448
90	20	0	0	90	36.1581920903955	36.241610738255	24	0.800056992173195	2	9	5	NaN	2	4	0.325689784324022	1	1	NaN	336	6	21	1	121	221	321	NaN	521	0.505531069822609	2	1	NaN	3011380.9712007	NaN	3011381.9546275	3011382.47115563
90	20	0	0	90	36.1581920903955	36.241610738255	11	0.366692788079381	2	9	5	NaN	2	5	0.325689784324022	1	1	NaN	337	6	22	1	121	221	321	NaN	521	0.43454901734367	2	1	NaN	3011385.1382749	NaN	3011386.1216872	3011386.63823718
90	20	0	0	90	36.1581920903955	36.241610738255	19	0.633378452137113	2	6	5	NaN	1	3	0.325689784324022	1	1	NaN	338	6	23	1	121	221	321	NaN	521	0.567768769804388	2	0	NaN	3011390.1886624	NaN	3011391.1722112	3011391.68873393
90	20	0	0	90	36.1581920903955	36.241610738255	14	0.46669991210103	2	1	5	NaN	1	3	0.325689784324022	1	1	NaN	339	6	24	1	121	221	321	NaN	521	0.25187817029655	1	1	NaN	3011393.0723986	NaN	3011394.0557979	3011394.57234563
90	20	0	0	90	36.1581920903955	36.241610738255	0	0	1	3	2	NaN	1	5	0.325689784324022	1	1	NaN	340	6	25	1	111	211	311	NaN	511	0.363133122678846	1	1	NaN	3011396.2893649	NaN	3011397.2727983	3011397.78933488
90	20	0	0	90	36.1581920903955	36.241610738255	18	0.600042744129896	2	7	5	NaN	2	4	0.325689784324022	1	1	NaN	341	6	26	1	121	221	321	NaN	521	0.279776170384139	1	0	NaN	3011398.9728542	NaN	3011399.9563743	3011400.47292473
90	20	0	0	90	36.1581920903955	36.241610738255	0	0	1	4	2	NaN	1	5	0.325689784324022	1	1	NaN	342	6	27	1	111	211	311	NaN	511	0.279292969964445	1	1	NaN	3011401.5732037	NaN	3011402.5566462	3011403.07320903
90	20	0	0	90	36.1581920903955	36.241610738255	15	0.500035620108247	2	4	6	NaN	1	4	0.325689784324022	1	1	NaN	343	6	28	1	121	221	321	NaN	521	0.215714270249009	1	1	NaN	3011404.1568372	NaN	3011405.1402456	3011405.65677863
90	20	0	0	90	36.1581920903955	36.241610738255	6	0.200014248043299	2	7	4	NaN	2	4	0.325689784324022	1	1	NaN	344	6	29	1	121	221	321	NaN	521	0.19406066974625	2	1	NaN	3011406.6904158	NaN	3011407.6738048	3011408.19035763
90	20	0	0	90	36.1581920903955	36.241610738255	6	0.200014248043299	2	2	6	NaN	1	4	0.325689784324022	1	1	NaN	345	6	30	1	121	221	321	NaN	521	0.261896117590368	1	1	NaN	3011409.1907441	NaN	3011410.1740566	3011410.69059908
90	20	0	0	90	36.1581920903955	36.241610738255	16	0.533371328115463	2	11	5	NaN	2	5	0.325689784324022	1	1	NaN	346	6	31	1	121	221	321	NaN	521	0.310211269650608	1	0	NaN	3011411.774245	NaN	3011412.7577115	3011413.27418973
90	20	0	0	90	36.1581920903955	36.241610738255	20	0.666714160144329	2	8	6	NaN	2	5	0.325689784324022	1	1	NaN	347	6	32	1	121	221	321	NaN	521	0.253575617447495	2	1	NaN	3011414.3910352	NaN	3011415.3746086	3011415.89110448
90	20	0	0	90	36.1581920903955	36.241610738255	24	0.800056992173195	2	2	3	NaN	1	3	0.325689784324022	1	1	NaN	348	6	33	1	121	221	321	NaN	521	0.83037251746282	2	0	NaN	3011416.9580806	NaN	3011417.9414878	3011418.45802448
90	20	0	0	90	36.1581920903955	36.241610738255	7	0.233349956050515	2	10	5	NaN	2	5	0.325689784324022	1	1	NaN	349	6	34	1	121	221	321	NaN	521	0.175662417430431	2	1	NaN	3011420.3250803	NaN	3011421.3084951	3011421.82502158
90	20	0	0	90	36.1581920903955	36.241610738255	9	0.300021372064948	2	4	1	NaN	1	4	0.325689784324022	1	1	NaN	350	6	35	1	121	221	321	NaN	521	0.244199470151216	1	1	NaN	3011422.8086932	NaN	3011423.7920422	3011424.30861623
90	20	0	0	90	36.1581920903955	36.241610738255	20	0.666714160144329	2	2	5	NaN	1	5	0.325689784324022	1	1	NaN	351	6	36	1	121	221	321	NaN	521	0.229753317311406	1	1	NaN	3011425.3589171	NaN	3011426.3423233	3011426.85885168
90	20	0	0	90	36.1581920903955	36.241610738255	19	0.633378452137113	2	3	3	NaN	1	4	0.325689784324022	1	1	NaN	352	6	37	1	121	221	321	NaN	521	0.26337544247508	1	1	NaN	3011427.90903	NaN	3011428.8925892	3011429.40911516
90	20	0	0	90	36.1581920903955	36.241610738255	0	0	1	9	6	NaN	2	4	0.325689784324022	1	1	NaN	353	6	38	1	111	211	311	NaN	511	0.295867170207202	2	1	NaN	3011430.4927493	NaN	3011431.4761201	3011431.99269463
90	20	0	0	90	36.1581920903955	36.241610738255	22	0.733385576158762	2	5	6	NaN	1	3	0.325689784324022	1	1	NaN	354	6	39	1	121	221	321	NaN	521	0.838864670135081	1	1	NaN	3011433.1095344	NaN	3011434.0930718	3011434.60961073
90	20	0	0	90	36.1581920903955	36.241610738255	6	0.200014248043299	2	1	4	NaN	1	5	0.325689784324022	1	1	NaN	355	6	40	1	121	221	321	NaN	521	0.320823469664901	1	1	NaN	3011436.2600019	NaN	3011437.2433694	3011437.75992463
90	20	0	0	90	36.1581920903955	36.241610738255	11	0.366692788079381	2	5	6	NaN	1	3	0.325689784324022	1	1	NaN	356	6	41	1	121	221	321	NaN	521	0.311066117137671	1	1	NaN	3011438.8935684	NaN	3011439.8769767	3011440.39352918
90	20	0	0	90	36.1581920903955	36.241610738255	22	0.733385576158762	2	12	4	NaN	2	4	0.325689784324022	1	1	NaN	357	6	42	1	121	221	321	NaN	521	0.34133316995576	1	0	NaN	3011441.5271582	NaN	3011442.5105729	3011443.02710333
90	20	0	0	90	36.1581920903955	36.241610738255	0	0	1	6	5	NaN	1	4	0.325689784324022	1	1	NaN	358	6	43	1	111	211	311	NaN	511	0.203223574906588	1	1	NaN	3011444.1774261	NaN	3011445.1608247	3011445.67737412
90	20	0	0	90	36.1581920903955	36.241610738255	6	0.200014248043299	2	5	3	NaN	1	5	0.325689784324022	1	1	NaN	359	6	44	1	121	221	321	NaN	521	0.150437469594181	1	1	NaN	3011446.6943513	NaN	3011447.6777597	3011448.19428283
90	20	0	0	90	36.1581920903955	36.241610738255	21	0.700049868151546	2	1	2	NaN	1	3	0.325689784324022	1	1	NaN	360	6	45	1	121	221	321	NaN	521	0.115492569748312	1	1	NaN	3011449.1612674	NaN	3011450.1446522	3011450.66118763
90	20	0	0	90	36.1581920903955	36.241610738255	0	0	1	6	4	NaN	1	5	0.325689784324022	1	1	NaN	361	6	46	1	111	211	311	NaN	511	0.194317765533924	1	1	NaN	3011451.5781661	NaN	3011452.5615419	3011453.07808863
90	20	0	0	90	36.1581920903955	36.241610738255	22	0.733385576158762	2	8	2	NaN	2	3	0.325689784324022	1	1	NaN	362	6	47	1	121	221	321	NaN	521	0.245475469622761	1	0	NaN	3011454.0951041	NaN	3011455.0785393	3011455.59501453
90	20	0	0	90	36.1581920903955	36.241610738255	10	0.333357080072165	2	11	5	NaN	2	3	0.325689784324022	1	1	NaN	363	6	48	1	121	221	321	NaN	521	0.25517799006775	2	1	NaN	3011456.6453384	NaN	3011457.6287433	3011458.14526651
90	20	0	0	90	36.1581920903955	36.241610738255	22	0.733385576158762	2	10	5	NaN	2	3	0.325689784324022	1	1	NaN	364	6	49	1	121	221	321	NaN	521	0.424236022867262	2	1	NaN	3011459.2121116	NaN	3011460.1956757	3011460.71218618
90	20	0	0	90	36.1581920903955	36.241610738255	9	0.300021372064948	2	6	1	NaN	1	5	0.325689784324022	1	1	NaN	365	6	50	1	121	221	321	NaN	521	0.162867370061576	2	0	NaN	3011461.9458233	NaN	3011462.9292171	3011463.44577513
90	20	0	0	90	36.1581920903955	36.241610738255	12	0.400028496086597	2	2	5	NaN	1	5	0.325689784324022	1	1	NaN	366	6	51	1	121	221	321	NaN	521	0.207208417356014	1	1	NaN	3011464.4294172	NaN	3011465.4128	3011465.92935178
90	20	0	0	90	36.1581920903955	36.241610738255	25	0.833392700180411	2	8	4	NaN	2	5	0.325689784324022	1	1	NaN	367	6	52	1	121	221	321	NaN	521	0.346100269816816	2	1	NaN	3011466.94633	NaN	3011467.9297297	3011468.44627523
90	20	0	0	90	36.1581920903955	36.241610738255	22	0.733385576158762	2	4	5	NaN	1	5	0.325689784324022	1	1	NaN	368	6	53	1	121	221	321	NaN	521	0.320311069954187	1	1	NaN	3011469.5965799	NaN	3011470.5799899	3011471.09652983
90	20	0	0	90	36.1581920903955	36.241610738255	15	0.500035620108247	2	11	5	NaN	2	3	0.325689784324022	1	1	NaN	369	6	54	1	121	221	321	NaN	521	0.406633317470551	2	1	NaN	3011472.2301794	NaN	3011473.2135555	3011473.73011878
90	20	0	0	90	36.1581920903955	36.241610738255	8	0.266685664057732	2	7	2	NaN	2	3	0.325689784324022	1	1	NaN	370	6	55	1	121	221	321	NaN	521	0.233316575177014	2	1	NaN	3011474.946987	NaN	3011475.9305198	3011476.44706582
90	20	0	0	90	36.1581920903955	36.241610738255	23	0.766721284165979	2	8	5	NaN	2	3	0.325689784324022	1	1	NaN	371	6	56	1	121	221	321	NaN	521	0.163330917712301	2	1	NaN	3011477.4972615	NaN	3011478.4808019	3011478.99731488
90	20	0	0	90	36.1581920903955	36.241610738255	12	0.400028496086597	2	10	6	NaN	2	5	0.325689784324022	1	1	NaN	372	6	57	1	121	221	321	NaN	521	0.223878969904035	2	1	NaN	3011479.980934	NaN	3011480.9643433	3011481.48087933
90	20	0	0	90	36.1581920903955	36.241610738255	11	0.366692788079381	2	11	6	NaN	2	5	0.325689784324022	1	1	NaN	373	6	58	1	121	221	321	NaN	521	0.273976869881153	2	1	NaN	3011482.5145224	NaN	3011483.4979103	3011484.01446433
90	20	0	0	90	36.1581920903955	36.241610738255	10	0.333357080072165	2	3	6	NaN	1	5	0.325689784324022	1	1	NaN	374	6	59	1	121	221	321	NaN	521	0.114708922803402	1	1	NaN	3011485.0981069	NaN	3011486.0815172	3011486.59805978
90	20	0	0	90	36.1581920903955	36.241610738255	9	0.300021372064948	2	12	6	NaN	2	4	0.325689784324022	1	1	NaN	375	6	60	1	121	221	321	NaN	521	0.193017169833183	2	1	NaN	3011487.5316782	NaN	3011488.5150799	3011489.03163053
90	20	0	0	90	36.1581920903955	36.241610738255	6	0.200014248043299	2	12	6	NaN	2	5	0.325689784324022	1	1	NaN	376	6	61	1	121	221	321	NaN	521	0.0103933229111135	2	1	NaN	3011490.0319243	NaN	3011491.0153363	3011491.53187548
90	20	0	0	90	36.1581920903955	36.241610738255	12	0.400028496086597	2	1	3	NaN	1	5	0.325689784324022	1	1	NaN	377	6	62	1	121	221	321	NaN	521	3.05566766997799	1	1	NaN	3011492.3488215	NaN	3011493.3322175	3011493.84876963
90	20	0	0	90	36.1581920903955	36.241610738255	7	0.233349956050515	2	5	5	NaN	1	3	0.325689784324022	1	1	NaN	378	6	63	1	121	221	321	NaN	521	0.304705717600882	1	1	NaN	3011497.7160164	NaN	3011498.6994149	3011499.21595398
90	20	0	0	90	36.1581920903955	36.241610738255	14	0.46669991210103	2	8	4	NaN	2	3	0.325689784324022	1	1	NaN	379	7	1	1	121	221	321	NaN	521	2.13504526996985	2	1	NaN	3011521.3016419	NaN	3011522.2850657	3011522.80162663
90	20	0	0	90	36.1581920903955	36.241610738255	18	0.600042744129896	2	12	5	NaN	2	4	0.325689784324022	1	1	NaN	380	7	2	1	121	221	321	NaN	521	0.444526517298073	2	1	NaN	3011525.7519652	NaN	3011526.735514	3011527.25204898
90	20	0	0	90	36.1581920903955	36.241610738255	21	0.700049868151546	2	9	1	NaN	2	3	0.325689784324022	1	1	NaN	381	7	3	1	121	221	321	NaN	521	0.365546769928187	1	0	NaN	3011528.5189967	NaN	3011529.5024466	3011530.01898713
90	20	0	0	90	36.1581920903955	36.241610738255	7	0.233349956050515	2	1	3	NaN	1	3	0.325689784324022	1	1	NaN	382	7	4	1	121	221	321	NaN	521	0.394018965307623	1	1	NaN	3011531.2026393	NaN	3011532.1861009	3011532.70257683
90	20	0	0	90	36.1581920903955	36.241610738255	20	0.666714160144329	2	10	1	NaN	2	3	0.325689784324022	1	1	NaN	383	7	5	1	121	221	321	NaN	521	0.621334169991314	2	1	NaN	3011533.9195883	NaN	3011534.9029776	3011535.41951693
90	20	0	0	90	36.1581920903955	36.241610738255	16	0.533371328115463	2	3	4	NaN	1	3	0.325689784324022	1	1	NaN	384	7	6	1	121	221	321	NaN	521	0.967737169936299	1	1	NaN	3011536.8532595	NaN	3011537.8366004	3011538.35313243
90	20	0	0	90	36.1581920903955	36.241610738255	12	0.400028496086597	2	4	6	NaN	1	5	0.325689784324022	1	1	NaN	385	7	7	1	121	221	321	NaN	521	1.50775186996907	1	1	NaN	3011540.1368596	NaN	3011541.1202485	3011541.63679513
90	20	0	0	90	36.1581920903955	36.241610738255	12	0.400028496086597	2	12	2	NaN	2	4	0.325689784324022	1	1	NaN	386	7	8	1	121	221	321	NaN	521	0.419084365013987	2	1	NaN	3011543.9538909	NaN	3011544.9372797	3011545.45382753
90	20	0	0	90	36.1581920903955	36.241610738255	20	0.666714160144329	2	9	2	NaN	2	3	0.325689784324022	1	1	NaN	387	7	9	1	121	221	321	NaN	521	0.317021022550762	2	1	NaN	3011546.687362	NaN	3011547.6708899	3011548.18744368
90	20	0	0	90	36.1581920903955	36.241610738255	22	0.733385576158762	2	1	5	NaN	1	5	0.325689784324022	1	1	NaN	388	7	10	1	121	221	321	NaN	521	0.355880590155721	1	1	NaN	3011549.3210902	NaN	3011550.3044632	3011550.82103261
90	20	0	0	90	36.1581920903955	36.241610738255	15	0.500035620108247	2	8	3	NaN	2	5	0.325689784324022	1	1	NaN	389	7	11	1	121	221	321	NaN	521	0.416951217222959	2	1	NaN	3011551.9880718	NaN	3011552.9714196	3011553.48796198
90	20	0	0	90	36.1581920903955	36.241610738255	13	0.433364204093814	2	3	4	NaN	1	3	0.325689784324022	1	1	NaN	390	7	12	1	121	221	321	NaN	521	0.290957417339087	1	1	NaN	3011554.7216195	NaN	3011555.7050224	3011556.22156198
90	20	0	0	90	36.1581920903955	36.241610738255	18	0.600042744129896	2	11	6	NaN	2	3	0.325689784324022	1	1	NaN	391	7	13	1	121	221	321	NaN	521	0.22690266976133	2	1	NaN	3011557.3218546	NaN	3011558.3052733	3011558.82181453
90	20	0	0	90	36.1581920903955	36.241610738255	10	0.333357080072165	2	8	2	NaN	2	3	0.325689784324022	1	1	NaN	392	7	14	1	121	221	321	NaN	521	0.228205469902605	2	1	NaN	3011559.8721077	NaN	3011560.8555165	3011561.37206853
90	20	0	0	90	36.1581920903955	36.241610738255	13	0.433364204093814	2	4	1	NaN	1	5	0.325689784324022	1	1	NaN	393	7	15	1	121	221	321	NaN	521	0.502138869836926	1	1	NaN	3011562.4223629	NaN	3011563.4057749	3011563.92232023
90	20	0	0	90	36.1581920903955	36.241610738255	13	0.433364204093814	2	4	2	NaN	1	4	0.325689784324022	1	1	NaN	394	7	16	1	121	221	321	NaN	521	0.237730470020324	1	1	NaN	3011565.2393904	NaN	3011566.2227073	3011566.73925473
90	20	0	0	90	36.1581920903955	36.241610738255	11	0.366692788079381	2	6	3	NaN	1	5	0.325689784324022	1	1	NaN	395	7	17	1	121	221	321	NaN	521	0.207206822931767	1	1	NaN	3011567.7895588	NaN	3011568.7729674	3011569.28950488
90	20	0	0	90	36.1581920903955	36.241610738255	7	0.233349956050515	2	11	4	NaN	2	5	0.325689784324022	1	1	NaN	396	7	18	1	121	221	321	NaN	521	0.194268170278519	2	1	NaN	3011570.3063438	NaN	3011571.2898923	3011571.80641713
90	20	0	0	90	36.1581920903955	36.241610738255	0	0	1	4	4	NaN	1	3	0.325689784324022	1	1	NaN	397	7	19	1	111	211	311	NaN	511	0.51832302287221	1	1	NaN	3011572.8067304	NaN	3011573.7901205	3011574.30667528
90	20	0	0	90	36.1581920903955	36.241610738255	14	0.46669991210103	2	6	6	NaN	1	4	0.325689784324022	1	1	NaN	398	7	20	1	121	221	321	NaN	521	0.284368069842458	1	1	NaN	3011575.6402318	NaN	3011576.62374	3011577.14027273
90	20	0	0	90	36.1581920903955	36.241610738255	8	0.266685664057732	2	4	5	NaN	1	5	0.325689784324022	1	1	NaN	399	7	21	1	121	221	321	NaN	521	0.516277169808745	1	1	NaN	3011578.2405949	NaN	3011579.2240147	3011579.74053413
90	20	0	0	90	36.1581920903955	36.241610738255	7	0.233349956050515	2	7	6	NaN	2	4	0.325689784324022	1	1	NaN	400	7	22	1	121	221	321	NaN	521	0.187517470214516	2	1	NaN	3011581.0575177	NaN	3011582.04094	3011582.55748973
90	20	0	0	90	36.1581920903955	36.241610738255	7	0.233349956050515	2	10	2	NaN	2	3	0.325689784324022	1	1	NaN	401	7	23	1	121	221	321	NaN	521	0.0102387475781143	2	1	NaN	3011583.5577898	NaN	3011584.5411764	3011585.05774635
90	20	0	0	90	36.1581920903955	36.241610738255	23	0.766721284165979	2	1	2	NaN	1	4	0.325689784324022	1	1	NaN	402	7	24	1	121	221	321	NaN	521	0.266415670048445	1	1	NaN	3011585.8746608	NaN	3011586.8580698	3011587.37462013
90	20	0	0	90	36.1581920903955	36.241610738255	19	0.633378452137113	2	9	4	NaN	2	3	0.325689784324022	1	1	NaN	403	7	25	1	121	221	321	NaN	521	0.555074342526495	2	1	NaN	3011588.4582667	NaN	3011589.4416935	3011589.95821116
90	20	0	0	90	36.1581920903955	36.241610738255	22	0.733385576158762	2	1	6	NaN	1	4	0.325689784324022	1	1	NaN	404	7	26	1	121	221	321	NaN	521	1.13538631703705	1	1	NaN	3011591.3250888	NaN	3011592.3086079	3011592.82515008
90	20	0	0	90	36.1581920903955	36.241610738255	0	0	1	11	5	NaN	2	4	0.325689784324022	1	1	NaN	405	7	27	1	111	211	311	NaN	511	0.725193517282605	2	1	NaN	3011594.7754288	NaN	3011595.7589357	3011596.27548508
90	20	0	0	90	36.1581920903955	36.241610738255	19	0.633378452137113	2	7	2	NaN	2	5	0.325689784324022	1	1	NaN	406	7	28	1	121	221	321	NaN	521	0.955579369794577	2	1	NaN	3011597.8091846	NaN	3011598.7925801	3011599.30912363
90	20	0	0	90	36.1581920903955	36.241610738255	15	0.500035620108247	2	11	1	NaN	2	4	0.325689784324022	1	1	NaN	407	7	29	1	121	221	321	NaN	521	0.336514917202294	2	1	NaN	3011601.0761665	NaN	3011602.0595987	3011602.57610728
90	20	0	0	90	36.1581920903955	36.241610738255	25	0.833392700180411	2	1	5	NaN	1	3	0.325689784324022	1	1	NaN	408	7	30	1	121	221	321	NaN	521	0.302708769682795	1	1	NaN	3011603.726434	NaN	3011604.7098297	3011605.22636413
90	20	0	0	90	36.1581920903955	36.241610738255	0	0	1	7	4	NaN	2	4	0.325689784324022	1	1	NaN	409	7	31	1	111	211	311	NaN	511	0.389657570049167	2	1	NaN	3011606.3432284	NaN	3011607.3267459	3011607.84329313
90	20	0	0	90	36.1581920903955	36.241610738255	16	0.533371328115463	2	7	6	NaN	2	3	0.325689784324022	1	1	NaN	410	7	32	1	121	221	321	NaN	521	0.257436370011419	2	1	NaN	3011609.0434888	NaN	3011610.0270658	3011610.54355483
90	20	0	0	90	36.1581920903955	36.241610738255	19	0.633378452137113	2	1	5	NaN	1	4	0.325689784324022	1	1	NaN	411	7	33	1	121	221	321	NaN	521	0.617408322636038	1	1	NaN	3011611.6272369	NaN	3011612.6105993	3011613.12715008
90	20	0	0	90	36.1581920903955	36.241610738255	24	0.800056992173195	2	4	2	NaN	1	3	0.325689784324022	1	1	NaN	412	7	34	1	121	221	321	NaN	521	0.387939217500389	1	1	NaN	3011614.5608228	NaN	3011615.5442352	3011616.06076368
90	20	0	0	90	36.1581920903955	36.241610738255	13	0.433364204093814	2	10	1	NaN	2	5	0.325689784324022	1	1	NaN	413	7	35	1	121	221	321	NaN	521	0.405051069799811	2	1	NaN	3011617.3277714	NaN	3011618.3111604	3011618.82770653
90	20	0	0	90	36.1581920903955	36.241610738255	17	0.56670703612268	2	7	2	NaN	2	3	0.325689784324022	1	1	NaN	414	7	36	1	121	221	321	NaN	521	0.520028669852763	2	1	NaN	3011620.0446895	NaN	3011621.0280773	3011621.54463523
90	20	0	0	90	36.1581920903955	36.241610738255	22	0.733385576158762	2	10	5	NaN	2	3	0.325689784324022	1	1	NaN	415	7	37	1	121	221	321	NaN	521	0.750516917090863	2	1	NaN	3011622.8783054	NaN	3011623.8617147	3011624.37825068
90	20	0	0	90	36.1581920903955	36.241610738255	9	0.300021372064948	2	11	3	NaN	2	3	0.325689784324022	1	1	NaN	416	7	38	1	121	221	321	NaN	521	3.30749701708555	2	1	NaN	3011625.9452711	NaN	3011626.9286558	3011627.44521148
90	20	0	0	90	36.1581920903955	36.241610738255	12	0.400028496086597	2	9	2	NaN	2	5	0.325689784324022	1	1	NaN	417	7	39	1	121	221	321	NaN	521	0.234348722733557	2	1	NaN	3011631.5624909	NaN	3011632.5458894	3011633.06243878
90	20	0	0	90	36.1581920903955	36.241610738255	15	0.500035620108247	2	10	1	NaN	2	3	0.325689784324022	1	1	NaN	418	7	40	1	121	221	321	NaN	521	0.212217370048165	2	1	NaN	3011634.1127413	NaN	3011635.0961153	3011635.61268603
90	20	0	0	90	36.1581920903955	36.241610738255	25	0.833392700180411	2	3	2	NaN	1	5	0.325689784324022	1	1	NaN	419	7	41	1	121	221	321	NaN	521	0.246520917396992	1	1	NaN	3011636.6463313	NaN	3011637.6297405	3011638.14626548
90	20	0	0	90	36.1581920903955	36.241610738255	23	0.766721284165979	2	6	6	NaN	1	5	0.325689784324022	1	1	NaN	420	7	42	1	121	221	321	NaN	521	0.263659169897437	1	1	NaN	3011639.2132638	NaN	3011640.1966356	3011640.71318693
90	20	0	0	90	36.1581920903955	36.241610738255	15	0.500035620108247	2	7	1	NaN	2	4	0.325689784324022	1	1	NaN	421	7	43	1	121	221	321	NaN	521	0.232162575237453	2	1	NaN	3011641.7968288	NaN	3011642.7802068	3011643.29677372
90	20	0	0	90	36.1581920903955	36.241610738255	10	0.333357080072165	2	9	3	NaN	2	5	0.325689784324022	1	1	NaN	422	7	44	1	121	221	321	NaN	521	0.361810469999909	2	1	NaN	3011644.3470689	NaN	3011645.3304622	3011645.84702083
90	20	0	0	90	36.1581920903955	36.241610738255	19	0.633378452137113	2	4	6	NaN	1	5	0.325689784324022	1	1	NaN	423	7	45	1	121	221	321	NaN	521	0.350357069633901	1	1	NaN	3011647.0306802	NaN	3011648.0141049	3011648.53062443
90	20	0	0	90	36.1581920903955	36.241610738255	14	0.46669991210103	2	3	2	NaN	1	4	0.325689784324022	1	1	NaN	424	7	46	1	121	221	321	NaN	521	0.747482417151332	1	1	NaN	3011649.6976012	NaN	3011650.6810114	3011651.19754738
90	20	0	0	90	36.1581920903955	36.241610738255	24	0.800056992173195	2	5	3	NaN	1	3	0.325689784324022	1	1	NaN	425	7	47	1	121	221	321	NaN	521	0.296182769816369	1	1	NaN	3011652.7645626	NaN	3011653.7479545	3011654.26451563
90	20	0	0	90	36.1581920903955	36.241610738255	9	0.300021372064948	2	8	6	NaN	2	4	0.325689784324022	1	1	NaN	426	7	48	1	121	221	321	NaN	521	1.00788307003677	2	1	NaN	3011655.3647371	NaN	3011656.348265	3011656.86477633
90	20	0	0	90	36.1581920903955	36.241610738255	16	0.533371328115463	2	5	4	NaN	1	5	0.325689784324022	1	1	NaN	427	7	49	1	121	221	321	NaN	521	0.315040522255003	1	1	NaN	3011658.6818171	NaN	3011659.6652198	3011660.18176698
90	20	0	0	90	36.1581920903955	36.241610738255	8	0.266685664057732	2	6	2	NaN	1	3	0.325689784324022	1	1	NaN	428	7	50	1	121	221	321	NaN	521	0.194168717134744	1	1	NaN	3011661.2986164	NaN	3011662.2821396	3011662.79868308
90	20	0	0	90	36.1581920903955	36.241610738255	8	0.266685664057732	2	12	6	NaN	2	3	0.325689784324022	1	1	NaN	429	7	51	1	121	221	321	NaN	521	0.310356779955328	2	1	NaN	3011664.1823402	NaN	3011665.1657696	3011665.68231392
90	20	0	0	90	36.1581920903955	36.241610738255	13	0.433364204093814	2	2	3	NaN	1	5	0.325689784324022	1	1	NaN	430	7	52	1	121	221	321	NaN	521	0.333903870079666	1	1	NaN	3011666.7991648	NaN	3011667.7827322	3011668.29923643
90	20	0	0	90	36.1581920903955	36.241610738255	11	0.366692788079381	2	9	6	NaN	2	4	0.325689784324022	1	1	NaN	431	7	53	1	121	221	321	NaN	521	0.203281722497195	2	1	NaN	3011669.4494159	NaN	3011670.4329548	3011670.94949788
90	20	0	0	90	36.1581920903955	36.241610738255	15	0.500035620108247	2	3	2	NaN	1	4	0.325689784324022	1	1	NaN	432	7	54	1	121	221	321	NaN	521	0.19848767016083	1	1	NaN	3011671.9664515	NaN	3011672.9498986	3011673.46639863
90	20	0	0	90	36.1581920903955	36.241610738255	17	0.56670703612268	2	12	1	NaN	2	4	0.325689784324022	1	1	NaN	433	7	55	1	121	221	321	NaN	521	0.169838369823992	2	1	NaN	3011674.4833849	NaN	3011675.4667697	3011675.98332103
90	20	0	0	90	36.1581920903955	36.241610738255	0	0	1	12	4	NaN	2	3	0.325689784324022	1	1	NaN	434	7	56	1	111	211	311	NaN	511	0.237909469753504	2	1	NaN	3011676.9669796	NaN	3011677.9503743	3011678.46689493
90	20	0	0	90	36.1581920903955	36.241610738255	12	0.400028496086597	2	3	1	NaN	1	3	0.325689784324022	1	1	NaN	435	7	57	1	121	221	321	NaN	521	0.191967217251658	1	1	NaN	3011679.5172369	NaN	3011680.5006027	3011681.01714028
90	20	0	0	90	36.1581920903955	36.241610738255	12	0.400028496086597	2	7	2	NaN	2	3	0.325689784324022	1	1	NaN	436	7	58	1	121	221	321	NaN	521	0.210604669991881	2	1	NaN	3011682.0339788	NaN	3011683.0174523	3011683.53405573
90	20	0	0	90	36.1581920903955	36.241610738255	6	0.200014248043299	2	8	4	NaN	2	5	0.325689784324022	1	1	NaN	437	7	59	1	121	221	321	NaN	521	0.165217817761004	2	1	NaN	3011684.567688	NaN	3011685.5511026	3011686.06763768
90	20	0	0	90	36.1581920903955	36.241610738255	25	0.833392700180411	2	2	3	NaN	1	4	0.325689784324022	1	1	NaN	438	7	60	1	121	221	321	NaN	521	0.249494417570531	2	0	NaN	3011687.0512734	NaN	3011688.034667	3011688.55123378
90	20	0	0	90	36.1581920903955	36.241610738255	14	0.46669991210103	2	5	2	NaN	1	3	0.325689784324022	1	1	NaN	439	7	61	1	121	221	321	NaN	521	0.130766170099378	1	1	NaN	3011689.6181873	NaN	3011690.6015939	3011691.11814023
90	20	0	0	90	36.1581920903955	36.241610738255	16	0.533371328115463	2	4	1	NaN	1	3	0.325689784324022	1	1	NaN	440	7	62	1	121	221	321	NaN	521	0.104613422416151	1	1	NaN	3011692.0684262	NaN	3011693.0518295	3011693.56838168
90	20	0	0	90	36.1581920903955	36.241610738255	23	0.766721284165979	2	12	2	NaN	2	5	0.325689784324022	1	1	NaN	441	7	63	1	121	221	321	NaN	521	0.215019816998392	2	1	NaN	3011694.5020208	NaN	3011695.4854034	3011696.00195128
90	20	0	0	90	36.1581920903955	36.241610738255	18	0.600042744129896	2	8	6	NaN	2	5	0.325689784324022	1	1	NaN	442	8	1	1	121	221	321	NaN	521	0.177256169728935	2	1	NaN	3011728.3553097	NaN	3011729.338721	3011729.85526853
90	20	0	0	90	36.1581920903955	36.241610738255	17	0.56670703612268	2	9	4	NaN	2	5	0.325689784324022	1	1	NaN	443	8	2	1	121	221	321	NaN	521	0.502092017326504	2	1	NaN	3011730.8389201	NaN	3011731.8222981	3011732.33885058
90	20	0	0	90	36.1581920903955	36.241610738255	21	0.700049868151546	2	8	1	NaN	2	5	0.325689784324022	1	1	NaN	444	8	3	1	121	221	321	NaN	521	0.21324521722272	2	1	NaN	3011733.655867	NaN	3011734.6392364	3011735.15579238
90	20	0	0	90	36.1581920903955	36.241610738255	14	0.46669991210103	2	5	6	NaN	1	5	0.325689784324022	1	1	NaN	445	8	4	1	121	221	321	NaN	521	0.271464769728482	2	0	NaN	3011736.1894263	NaN	3011737.1729184	3011737.68937813
90	20	0	0	90	36.1581920903955	36.241610738255	20	0.666714160144329	2	1	4	NaN	1	5	0.325689784324022	1	1	NaN	446	8	5	1	121	221	321	NaN	521	0.04008221719414	2	0	NaN	3011738.7730224	NaN	3011739.7564227	3011740.27295858
90	20	0	0	90	36.1581920903955	36.241610738255	6	0.200014248043299	2	3	2	NaN	1	3	0.325689784324022	1	1	NaN	447	8	6	1	121	221	321	NaN	521	0.257824569940567	2	0	NaN	3011741.1232566	NaN	3011742.1066358	3011742.62318893
90	20	0	0	90	36.1581920903955	36.241610738255	7	0.233349956050515	2	12	2	NaN	2	4	0.325689784324022	1	1	NaN	448	8	7	1	121	221	321	NaN	521	0.322747969999909	2	1	NaN	3011743.6901651	NaN	3011744.6735989	3011745.19011463
90	20	0	0	90	36.1581920903955	36.241610738255	11	0.366692788079381	2	3	6	NaN	1	3	0.325689784324022	1	1	NaN	449	8	8	1	121	221	321	NaN	521	0.201345969922841	1	1	NaN	3011746.3237615	NaN	3011747.3071689	3011747.82370043
90	20	0	0	90	36.1581920903955	36.241610738255	13	0.433364204093814	2	7	5	NaN	2	3	0.325689784324022	1	1	NaN	450	8	9	1	121	221	321	NaN	521	0.19609179534018	2	1	NaN	3011748.8406633	NaN	3011749.8240694	3011750.3406294
90	20	0	0	90	36.1581920903955	36.241610738255	19	0.633378452137113	2	8	4	NaN	2	4	0.325689784324022	1	1	NaN	451	8	10	1	121	221	321	NaN	521	0.223681822419167	2	1	NaN	3011751.3575751	NaN	3011752.340974	3011752.85754078
90	20	0	0	90	36.1581920903955	36.241610738255	24	0.800056992173195	2	8	1	NaN	2	4	0.325689784324022	1	1	NaN	452	8	11	1	121	221	321	NaN	521	0.217751222662628	2	1	NaN	3011753.8911652	NaN	3011754.8745807	3011755.39112238
90	20	0	0	90	36.1581920903955	36.241610738255	18	0.600042744129896	2	9	2	NaN	2	5	0.325689784324022	1	1	NaN	453	8	12	1	121	221	321	NaN	521	0.204345969948918	2	1	NaN	3011756.4246334	NaN	3011757.4081497	3011757.92469223
90	20	0	0	90	36.1581920903955	36.241610738255	20	0.666714160144329	2	3	4	NaN	1	4	0.325689784324022	1	1	NaN	454	8	13	1	121	221	321	NaN	521	0.303533770143986	1	1	NaN	3011758.9417098	NaN	3011759.9250707	3011760.44160883
90	20	0	0	90	36.1581920903955	36.241610738255	6	0.200014248043299	2	11	2	NaN	2	5	0.325689784324022	1	1	NaN	455	8	14	1	121	221	321	NaN	521	0.214460922405124	2	1	NaN	3011761.558581	NaN	3011762.5419797	3011763.05852938
90	20	0	0	90	36.1581920903955	36.241610738255	6	0.200014248043299	2	6	4	NaN	1	5	0.325689784324022	1	1	NaN	456	8	15	1	121	221	321	NaN	521	0.273126470390707	1	1	NaN	3011764.0921655	NaN	3011765.0755794	3011765.59211793
90	20	0	0	90	36.1581920903955	36.241610738255	23	0.766721284165979	2	9	4	NaN	2	4	0.325689784324022	1	1	NaN	457	8	16	1	121	221	321	NaN	521	0.649146965239197	2	1	NaN	3011766.6757725	NaN	3011767.6591612	3011768.17570833
90	20	0	0	90	36.1581920903955	36.241610738255	9	0.300021372064948	2	8	5	NaN	2	4	0.325689784324022	1	1	NaN	458	8	17	1	121	221	321	NaN	521	0.194319722708315	2	1	NaN	3011769.6427035	NaN	3011770.6260047	3011771.14266818
90	20	0	0	90	36.1581920903955	36.241610738255	15	0.500035620108247	2	10	6	NaN	2	3	0.325689784324022	1	1	NaN	459	8	18	1	121	221	321	NaN	521	0.16594763752073	2	1	NaN	3011772.1428346	NaN	3011773.1263924	3011773.64291266
90	20	0	0	90	36.1581920903955	36.241610738255	17	0.56670703612268	2	2	1	NaN	1	3	0.325689784324022	1	1	NaN	460	8	19	1	121	221	321	NaN	521	0.258790280204266	2	0	NaN	3011774.6265539	NaN	3011775.609917	3011776.12648222
