subjno	age	gender	isPractice	viewdist	CmToPixX	CmToPixY	SOA_frm	SOA_time	targNum	targID	targExample	targRace	targGender	firstTargPos	contrast	familiarity	curr_staircase	iStair	TrialNum	BlockNum	blktrl	sessionNum	TC_FIXATION	TC_RSVP_START	TC_RSVP_END	TC_BLANK	TC_RESPONSE_ONSET	RT2afc	resp_2afc	acc	RSVPOnsetVBL	RSVPOnsetTime	RSVPOffsetVBL	RSVPOffsetTime	startrt_2afc
54	18	0	0	90	36.1581920903955	36.241610738255	10	0.333356760069728	2	10	1	NaN	2	4	0.231494007595073	1	1	NaN	1	1	1	1	121	221	321	NaN	521	0.0115438271313906	2	1	NaN	3266921.1110459	NaN	3266922.0943185	3266922.62744847
54	18	0	0	90	36.1581920903955	36.241610738255	8	0.266685408055782	2	4	2	NaN	1	5	0.231494007595073	1	1	NaN	2	1	2	1	121	221	321	NaN	521	0.483306274749339	2	0	NaN	3266923.4946675	NaN	3266924.4779209	3266925.01103203
54	18	0	0	90	36.1581920903955	36.241610738255	10	0.333356760069728	2	1	1	NaN	1	4	0.231494007595073	1	1	NaN	3	1	3	1	121	221	321	NaN	521	7.74631711747497	1	1	NaN	3266926.3280015	NaN	3266927.3114327	3266927.82795758
54	18	0	0	90	36.1581920903955	36.241610738255	15	0.500035140104592	2	6	1	NaN	1	3	0.231494007595073	1	1	NaN	4	1	4	1	121	221	321	NaN	521	0.450710821896791	1	1	NaN	3266938.0958131	NaN	3266939.0792173	3266939.59578688
54	18	0	0	90	36.1581920903955	36.241610738255	15	0.500035140104592	2	5	1	NaN	1	4	0.231494007595073	1	1	NaN	5	1	5	1	121	221	321	NaN	521	0.0102582946419716	1	1	NaN	3266940.8794315	NaN	3266941.8628425	3266942.37939531
54	18	0	0	90	36.1581920903955	36.241610738255	17	0.566706492118537	2	12	1	NaN	2	5	0.231494007595073	1	1	NaN	6	1	6	1	121	221	321	NaN	521	0.0102529944851995	2	1	NaN	3266943.2128842	NaN	3266944.1964148	3266944.71295931
54	18	0	0	90	36.1581920903955	36.241610738255	18	0.60004216812551	2	3	1	NaN	1	5	0.231494007595073	1	1	NaN	7	1	7	1	121	221	321	NaN	521	0.0103943222202361	1	1	NaN	3266946.4466257	NaN	3266947.4300352	3266947.94660608
54	18	0	0	90	36.1581920903955	36.241610738255	21	0.700049196146429	2	3	5	NaN	1	3	0.231494007595073	1	1	NaN	8	1	8	1	121	221	321	NaN	521	0.0103782746009529	1	1	NaN	3266948.7802195	NaN	3266949.7636558	3266950.28016813
54	18	0	0	90	36.1581920903955	36.241610738255	14	0.466699464097619	2	9	6	NaN	2	5	0.231494007595073	1	1	NaN	9	1	9	1	121	221	321	NaN	521	1.93668392207474	2	1	NaN	3266951.1137857	NaN	3266952.0971774	3266952.61372998
54	18	0	0	90	36.1581920903955	36.241610738255	8	0.266685408055782	2	11	1	NaN	2	5	0.231494007595073	1	1	NaN	10	1	10	1	121	221	321	NaN	521	2.4376170700416	2	1	NaN	3266955.3808742	NaN	3266956.364297	3266956.88081763
54	18	0	0	90	36.1581920903955	36.241610738255	23	0.766720548160374	2	12	4	NaN	2	5	0.231494007595073	1	1	NaN	11	1	11	1	121	221	321	NaN	521	0.670992917381227	2	1	NaN	3266960.13134	NaN	3266961.1147397	3266961.63127538
54	18	0	0	90	36.1581920903955	36.241610738255	6	0.200014056041837	2	11	1	NaN	2	3	0.231494007595073	1	1	NaN	12	1	12	1	121	221	321	NaN	521	0.861338422168046	2	1	NaN	3266963.3650206	NaN	3266964.3483771	3266964.86493398
54	18	0	0	90	36.1581920903955	36.241610738255	10	0.333356760069728	2	7	6	NaN	2	3	0.231494007595073	1	1	NaN	13	1	13	1	121	221	321	NaN	521	0.0104071698151529	2	1	NaN	3266966.8986393	NaN	3266967.882033	3266968.39860993
54	18	0	0	90	36.1581920903955	36.241610738255	12	0.400028112083674	2	2	5	NaN	1	4	0.231494007595073	1	1	NaN	14	1	14	1	121	221	321	NaN	521	0.0103785749524832	1	1	NaN	3266969.2322433	NaN	3266970.215692	3266970.73218463
54	18	0	0	90	36.1581920903955	36.241610738255	10	0.333356760069728	2	6	1	NaN	1	3	0.231494007595073	1	1	NaN	15	1	15	1	121	221	321	NaN	521	0.980937422253191	1	1	NaN	3266971.5658992	NaN	3266972.5491861	3266973.06574098
54	18	0	0	90	36.1581920903955	36.241610738255	24	0.800056224167347	2	5	5	NaN	1	3	0.231494007595073	1	1	NaN	16	1	16	1	121	221	321	NaN	521	1.27214402193204	1	1	NaN	3266974.8661167	NaN	3266975.8495553	3266976.36606468
54	18	0	0	90	36.1581920903955	36.241610738255	9	0.300021084062755	2	9	3	NaN	2	4	0.231494007595073	1	1	NaN	17	1	17	1	121	221	321	NaN	521	0.38391082175076	2	1	NaN	3266978.4664775	NaN	3266979.4498783	3266979.96641638
54	18	0	0	90	36.1581920903955	36.241610738255	24	0.800056224167347	2	11	1	NaN	2	4	0.231494007595073	1	1	NaN	18	1	18	1	121	221	321	NaN	521	0.010412469971925	2	1	NaN	3266981.16674	NaN	3266982.1501657	3266982.66668033
54	18	0	0	90	36.1581920903955	36.241610738255	23	0.766720548160374	2	8	2	NaN	2	5	0.231494007595073	1	1	NaN	19	1	19	1	121	221	321	NaN	521	0.0103922220878303	2	1	NaN	3266983.8336368	NaN	3266984.8170815	3266985.33361458
54	18	0	0	90	36.1581920903955	36.241610738255	7	0.23334973204881	2	4	3	NaN	1	4	0.231494007595073	1	1	NaN	20	1	20	1	121	221	321	NaN	521	0.0104011222720146	1	1	NaN	3266986.1672419	NaN	3266987.1506013	3266987.66717748
54	18	0	0	90	36.1581920903955	36.241610738255	7	0.23334973204881	2	1	2	NaN	1	4	0.231494007595073	1	1	NaN	21	1	21	1	121	221	321	NaN	521	0.0104089700616896	1	1	NaN	3266988.500794	NaN	3266989.4841808	3266990.00073243
54	18	0	0	90	36.1581920903955	36.241610738255	6	0.200014056041837	2	11	2	NaN	2	5	0.231494007595073	1	1	NaN	22	1	22	1	121	221	321	NaN	521	0.0104064699262381	2	1	NaN	3266990.8342322	NaN	3266991.8177559	3266992.33429963
54	18	0	0	90	36.1581920903955	36.241610738255	7	0.23334973204881	2	7	3	NaN	2	5	0.231494007595073	1	1	NaN	23	1	23	1	121	221	321	NaN	521	0.68695259001106	2	1	NaN	3266993.8513562	NaN	3266994.8346972	3266995.35126491
54	18	0	0	90	36.1581920903955	36.241610738255	24	0.800056224167347	2	4	3	NaN	1	3	0.231494007595073	1	1	NaN	24	1	24	1	121	221	321	NaN	521	0.0103914220817387	1	1	NaN	3266996.8516165	NaN	3266997.834984	3266998.35156068
54	18	0	0	90	36.1581920903955	36.241610738255	7	0.23334973204881	2	6	5	NaN	1	5	0.231494007595073	1	1	NaN	25	1	25	1	121	221	321	NaN	521	0.129569179844111	1	1	NaN	3266999.1851607	NaN	3267000.1685727	3267000.68512212
54	18	0	0	90	36.1581920903955	36.241610738255	14	0.466699464097619	2	12	3	NaN	2	5	0.231494007595073	1	1	NaN	26	1	26	1	121	221	321	NaN	521	1.75096682179719	1	0	NaN	3267001.6353941	NaN	3267002.6188168	3267003.13536298
54	18	0	0	90	36.1581920903955	36.241610738255	6	0.200014056041837	2	12	2	NaN	2	5	0.231494007595073	1	1	NaN	27	1	27	1	121	221	321	NaN	521	0.0104053700342774	2	1	NaN	3267005.7024936	NaN	3267006.6858791	3267007.20242623
54	18	0	0	90	36.1581920903955	36.241610738255	16	0.533370816111565	2	9	5	NaN	2	4	0.231494007595073	1	1	NaN	28	1	28	1	121	221	321	NaN	521	0.0103788748383522	2	1	NaN	3267008.0360407	NaN	3267009.019453	3267009.53598913
54	18	0	0	90	36.1581920903955	36.241610738255	20	0.666713520139456	2	12	3	NaN	2	5	0.231494007595073	1	1	NaN	29	1	29	1	121	221	321	NaN	521	0.0103949219919741	2	1	NaN	3267010.369582	NaN	3267011.352994	3267011.86955738
54	18	0	0	90	36.1581920903955	36.241610738255	9	0.300021084062755	2	12	3	NaN	2	4	0.231494007595073	1	1	NaN	30	1	30	1	121	221	321	NaN	521	1.90715687023476	2	1	NaN	3267012.7032053	NaN	3267013.6865629	3267014.20312193
54	18	0	0	90	36.1581920903955	36.241610738255	11	0.366692436076701	2	3	3	NaN	1	4	0.231494007595073	1	1	NaN	31	1	31	1	121	221	321	NaN	521	0.0103951217606664	1	1	NaN	3267017.4369312	NaN	3267018.4203701	3267018.93692088
54	18	0	0	90	36.1581920903955	36.241610738255	19	0.633377844132483	2	7	3	NaN	2	4	0.231494007595073	1	1	NaN	32	1	32	1	121	221	321	NaN	521	0.0103015378117561	2	1	NaN	3267019.7705925	NaN	3267020.7539044	3267021.27048606
54	18	0	0	90	36.1581920903955	36.241610738255	6	0.200014056041837	2	8	5	NaN	2	5	0.231494007595073	1	1	NaN	33	1	33	1	121	221	321	NaN	521	0.199844969902188	2	1	NaN	3267022.9708239	NaN	3267023.9542344	3267024.47079193
54	18	0	0	90	36.1581920903955	36.241610738255	16	0.533370816111565	2	11	2	NaN	2	4	0.231494007595073	1	1	NaN	34	1	34	1	121	221	321	NaN	521	0.0104107698425651	2	1	NaN	3267025.8876733	NaN	3267026.8711912	3267027.38774293
54	18	0	0	90	36.1581920903955	36.241610738255	22	0.733384872153401	2	3	4	NaN	1	4	0.231494007595073	1	1	NaN	35	1	35	1	121	221	321	NaN	521	0.15719352196902	1	1	NaN	3267028.2213868	NaN	3267029.2047446	3267029.72131258
54	18	0	0	90	36.1581920903955	36.241610738255	6	0.200014056041837	2	10	5	NaN	2	4	0.231494007595073	1	1	NaN	36	1	36	1	121	221	321	NaN	521	7.01067837001756	2	1	NaN	3267031.6716783	NaN	3267032.6551126	3267033.17164503
54	18	0	0	90	36.1581920903955	36.241610738255	23	0.766720548160374	2	5	6	NaN	1	3	0.231494007595073	1	1	NaN	37	1	37	1	121	221	321	NaN	521	0.101183670107275	1	1	NaN	3267041.5893177	NaN	3267042.5727424	3267043.08928213
54	18	0	0	90	36.1581920903955	36.241610738255	16	0.533370816111565	2	12	5	NaN	2	4	0.231494007595073	1	1	NaN	38	1	38	1	121	221	321	NaN	521	0.567066322080791	2	1	NaN	3267047.5232209	NaN	3267048.5066682	3267049.02320148
54	18	0	0	90	36.1581920903955	36.241610738255	20	0.666713520139456	2	11	3	NaN	2	3	0.231494007595073	1	1	NaN	39	1	39	1	121	221	321	NaN	521	0.107632821891457	2	1	NaN	3267050.4068752	NaN	3267051.390276	3267051.90682688
54	18	0	0	90	36.1581920903955	36.241610738255	16	0.533370816111565	2	1	5	NaN	1	3	0.231494007595073	1	1	NaN	40	1	40	1	121	221	321	NaN	521	0.0103912223130465	1	1	NaN	3267052.8237683	NaN	3267053.8071872	3267054.32372598
54	18	0	0	90	36.1581920903955	36.241610738255	24	0.800056224167347	2	7	4	NaN	2	4	0.231494007595073	1	1	NaN	41	1	41	1	121	221	321	NaN	521	0.0104021700099111	2	1	NaN	3267055.1573493	NaN	3267056.1407373	3267056.65729003
54	18	0	0	90	36.1581920903955	36.241610738255	18	0.60004216812551	2	7	6	NaN	2	3	0.231494007595073	1	1	NaN	42	1	42	1	121	221	321	NaN	521	0.908519322052598	2	1	NaN	3267057.9742861	NaN	3267058.9577168	3267059.47423508
54	18	0	0	90	36.1581920903955	36.241610738255	11	0.366692436076701	2	12	4	NaN	2	5	0.231494007595073	1	1	NaN	43	1	43	1	121	221	321	NaN	521	0.0104224174283445	2	1	NaN	3267061.1912689	NaN	3267062.1746617	3267062.69120788
54	18	0	0	90	36.1581920903955	36.241610738255	14	0.466699464097619	2	3	2	NaN	1	4	0.231494007595073	1	1	NaN	44	1	44	1	121	221	321	NaN	521	0.0696876798756421	1	1	NaN	3267063.5248264	NaN	3267064.5082181	3267065.02478302
54	18	0	0	90	36.1581920903955	36.241610738255	0	0	1	1	3	NaN	1	3	0.231494007595073	1	1	NaN	45	1	45	1	111	211	311	NaN	511	0.0104277171194553	1	1	NaN	3267066.3417411	NaN	3267067.3251728	3267067.84171598
54	18	0	0	90	36.1581920903955	36.241610738255	17	0.566706492118537	2	8	2	NaN	2	3	0.231494007595073	1	1	NaN	46	1	46	1	121	221	321	NaN	521	0.0104163698852062	2	1	NaN	3267068.6753398	NaN	3267069.658728	3267070.17528663
54	18	0	0	90	36.1581920903955	36.241610738255	8	0.266685408055782	2	2	1	NaN	1	4	0.231494007595073	1	1	NaN	47	1	47	1	121	221	321	NaN	521	2.70560697000474	1	1	NaN	3267071.0088886	NaN	3267071.9922918	3267072.50884123
54	18	0	0	90	36.1581920903955	36.241610738255	12	0.400028112083674	2	6	5	NaN	1	4	0.231494007595073	1	1	NaN	48	1	48	1	121	221	321	NaN	521	0.0245113698765635	1	1	NaN	3267076.0260728	NaN	3267077.0094491	3267077.52600503
54	18	0	0	90	36.1581920903955	36.241610738255	16	0.533370816111565	2	12	5	NaN	2	3	0.231494007595073	1	1	NaN	49	1	49	1	121	221	321	NaN	521	0.0349179697223008	2	1	NaN	3267078.3596085	NaN	3267079.3430636	3267079.85956603
54	18	0	0	90	36.1581920903955	36.241610738255	7	0.23334973204881	2	5	1	NaN	1	4	0.231494007595073	1	1	NaN	50	1	50	1	121	221	321	NaN	521	0.0102688423357904	1	1	NaN	3267080.7098558	NaN	3267081.6932469	3267082.20981266
54	18	0	0	90	36.1581920903955	36.241610738255	16	0.533370816111565	2	6	5	NaN	1	5	0.231494007595073	1	1	NaN	51	1	51	1	121	221	321	NaN	521	0.0237182700075209	1	1	NaN	3267083.0266125	NaN	3267084.0101377	3267084.52670023
54	18	0	0	90	36.1581920903955	36.241610738255	11	0.366692436076701	2	4	3	NaN	1	4	0.231494007595073	1	1	NaN	52	1	52	1	121	221	321	NaN	521	0.0620124223642051	1	1	NaN	3267087.4605599	NaN	3267088.4439074	3267088.96046618
54	18	0	0	90	36.1581920903955	36.241610738255	21	0.700049196146429	2	8	5	NaN	2	3	0.231494007595073	1	1	NaN	53	1	53	1	121	221	321	NaN	521	0.302510370034724	2	1	NaN	3267089.8440778	NaN	3267090.8274774	3267091.34402983
54	18	0	0	90	36.1581920903955	36.241610738255	25	0.83339190017432	2	5	3	NaN	1	4	0.231494007595073	1	1	NaN	54	1	54	1	121	221	321	NaN	521	1.81050308980048	1	1	NaN	3267092.9442622	NaN	3267093.9278162	3267094.44434041
54	18	0	0	90	36.1581920903955	36.241610738255	6	0.200014056041837	2	6	1	NaN	1	4	0.231494007595073	1	1	NaN	55	1	55	1	121	221	321	NaN	521	0.104986122343689	1	1	NaN	3267097.5614689	NaN	3267098.5449064	3267099.06146358
54	18	0	0	90	36.1581920903955	36.241610738255	0	0	1	7	4	NaN	2	4	0.231494007595073	1	1	NaN	56	1	56	1	111	211	311	NaN	511	3.91201982181519	2	1	NaN	3267099.9783981	NaN	3267100.9617782	3267101.47836138
54	18	0	0	90	36.1581920903955	36.241610738255	0	0	1	8	6	NaN	2	3	0.231494007595073	1	1	NaN	57	1	57	1	111	211	311	NaN	511	0.191040474921465	1	0	NaN	3267107.3958305	NaN	3267108.3791986	3267108.89575513
54	18	0	0	90	36.1581920903955	36.241610738255	12	0.400028112083674	2	7	2	NaN	2	3	0.231494007595073	1	1	NaN	58	1	58	1	121	221	321	NaN	521	2.62060676980764	2	1	NaN	3267110.4461444	NaN	3267111.4294876	3267111.94605823
54	18	0	0	90	36.1581920903955	36.241610738255	20	0.666713520139456	2	2	1	NaN	1	4	0.231494007595073	1	1	NaN	59	1	59	1	121	221	321	NaN	521	0.118678574915975	1	1	NaN	3267115.3798534	NaN	3267116.3634204	3267116.87988063
54	18	0	0	90	36.1581920903955	36.241610738255	18	0.60004216812551	2	8	3	NaN	2	3	0.231494007595073	1	1	NaN	60	1	60	1	121	221	321	NaN	521	1.21317349001765	1	0	NaN	3267117.8134907	NaN	3267118.7968838	3267119.31345051
54	18	0	0	90	36.1581920903955	36.241610738255	17	0.566706492118537	2	11	5	NaN	2	5	0.231494007595073	1	1	NaN	61	1	61	1	121	221	321	NaN	521	0.0104016219265759	2	1	NaN	3267121.3470301	NaN	3267122.3306078	3267122.84713368
54	18	0	0	90	36.1581920903955	36.241610738255	20	0.666713520139456	2	9	1	NaN	2	5	0.231494007595073	1	1	NaN	62	1	62	1	121	221	321	NaN	521	1.09086102200672	2	1	NaN	3267123.6639479	NaN	3267124.6474888	3267125.16402368
54	18	0	0	90	36.1581920903955	36.241610738255	25	0.83339190017432	2	2	1	NaN	1	5	0.231494007595073	1	1	NaN	63	1	63	1	121	221	321	NaN	521	0.618454070296139	1	1	NaN	3267127.0644006	NaN	3267128.0478002	3267128.56435433
54	18	0	0	90	36.1581920903955	36.241610738255	22	0.733384872153401	2	8	4	NaN	2	5	0.231494007595073	1	1	NaN	64	2	1	1	121	221	321	NaN	521	0.452718969900161	2	1	NaN	3267135.9819215	NaN	3267136.9653459	3267137.48189233
54	18	0	0	90	36.1581920903955	36.241610738255	6	0.200014056041837	2	5	6	NaN	1	5	0.231494007595073	1	1	NaN	65	2	2	1	121	221	321	NaN	521	0.933552674949169	1	1	NaN	3267138.7488951	NaN	3267139.7322781	3267140.24883923
54	18	0	0	90	36.1581920903955	36.241610738255	0	0	1	3	6	NaN	1	5	0.231494007595073	1	1	NaN	66	2	3	1	111	211	311	NaN	511	0.0102678425610065	1	1	NaN	3267141.9824151	NaN	3267142.9659337	3267143.48248696
54	18	0	0	90	36.1581920903955	36.241610738255	7	0.23334973204881	2	8	2	NaN	2	4	0.231494007595073	1	1	NaN	67	2	4	1	121	221	321	NaN	521	1.51906337030232	2	1	NaN	3267144.2993177	NaN	3267145.282829	3267145.79938063
54	18	0	0	90	36.1581920903955	36.241610738255	17	0.566706492118537	2	1	6	NaN	1	3	0.231494007595073	1	1	NaN	68	2	5	1	121	221	321	NaN	521	0.0103884222917259	1	1	NaN	3267148.5998559	NaN	3267149.5832521	3267150.09980798
54	18	0	0	90	36.1581920903955	36.241610738255	13	0.433363788090646	2	3	5	NaN	1	5	0.231494007595073	1	1	NaN	69	2	6	1	121	221	321	NaN	521	0.0104068699292839	1	1	NaN	3267151.5167897	NaN	3267152.500213	3267153.01676183
54	18	0	0	90	36.1581920903955	36.241610738255	18	0.60004216812551	2	5	5	NaN	1	3	0.231494007595073	1	1	NaN	70	2	7	1	121	221	321	NaN	521	0.880891021806747	2	0	NaN	3267153.8336099	NaN	3267154.8171194	3267155.33365468
54	18	0	0	90	36.1581920903955	36.241610738255	14	0.466699464097619	2	1	5	NaN	1	5	0.231494007595073	1	1	NaN	71	2	8	1	121	221	321	NaN	521	0.0103953219950199	1	1	NaN	3267157.0173521	NaN	3267158.0007438	3267158.51729988
54	18	0	0	90	36.1581920903955	36.241610738255	16	0.533370816111565	2	6	2	NaN	1	4	0.231494007595073	1	1	NaN	72	2	9	1	121	221	321	NaN	521	0.0103725749067962	1	1	NaN	3267159.3509128	NaN	3267160.3342095	3267160.85086163
54	18	0	0	90	36.1581920903955	36.241610738255	14	0.466699464097619	2	11	1	NaN	2	5	0.231494007595073	1	1	NaN	73	2	10	1	121	221	321	NaN	521	0.0788411744870245	2	1	NaN	3267161.6677172	NaN	3267162.6512493	3267163.16776173
54	18	0	0	90	36.1581920903955	36.241610738255	13	0.433363788090646	2	8	4	NaN	2	4	0.231494007595073	1	1	NaN	74	2	11	1	121	221	321	NaN	521	1.05437702219933	2	1	NaN	3267164.0679253	NaN	3267165.0514805	3267165.56799458
54	18	0	0	90	36.1581920903955	36.241610738255	21	0.700049196146429	2	9	2	NaN	2	4	0.231494007595073	1	1	NaN	75	2	12	1	121	221	321	NaN	521	0.519911442417651	1	0	NaN	3267167.4350384	NaN	3267168.4184689	3267168.93500056
54	18	0	0	90	36.1581920903955	36.241610738255	10	0.333356760069728	2	8	6	NaN	2	5	0.231494007595073	1	1	NaN	76	2	13	1	121	221	321	NaN	521	0.406006622128189	2	1	NaN	3267170.2686698	NaN	3267171.2520484	3267171.76862418
54	18	0	0	90	36.1581920903955	36.241610738255	22	0.733384872153401	2	12	2	NaN	2	4	0.231494007595073	1	1	NaN	77	2	14	1	121	221	321	NaN	521	0.417011570185423	1	0	NaN	3267172.9855822	NaN	3267173.9689669	3267174.48553033
54	18	0	0	90	36.1581920903955	36.241610738255	0	0	1	6	6	NaN	1	3	0.231494007595073	1	1	NaN	78	2	15	1	111	211	311	NaN	511	0.475825222209096	1	1	NaN	3267175.719186	NaN	3267176.7025923	3267177.21914268
54	18	0	0	90	36.1581920903955	36.241610738255	13	0.433363788090646	2	11	2	NaN	2	5	0.231494007595073	1	1	NaN	79	2	16	1	121	221	321	NaN	521	1.2829500217922	2	1	NaN	3267178.5361412	NaN	3267179.519515	3267180.03608348
54	18	0	0	90	36.1581920903955	36.241610738255	18	0.60004216812551	2	4	6	NaN	1	4	0.231494007595073	1	1	NaN	80	2	17	1	121	221	321	NaN	521	0.0104106697253883	1	1	NaN	3267204.6887092	NaN	3267205.6720982	3267206.18865393
54	18	0	0	90	36.1581920903955	36.241610738255	0	0	1	12	5	NaN	2	4	0.231494007595073	1	1	NaN	81	2	18	1	111	211	311	NaN	511	0.777800317388028	2	1	NaN	3267207.4890647	NaN	3267208.4723677	3267208.98892438
54	18	0	0	90	36.1581920903955	36.241610738255	17	0.566706492118537	2	11	3	NaN	2	3	0.231494007595073	1	1	NaN	82	2	19	1	121	221	321	NaN	521	0.0102834943681955	2	1	NaN	3267210.5726245	NaN	3267211.5560179	3267212.07256801
54	18	0	0	90	36.1581920903955	36.241610738255	14	0.466699464097619	2	3	4	NaN	1	4	0.231494007595073	1	1	NaN	83	2	20	1	121	221	321	NaN	521	0.0104106701910496	1	1	NaN	3267212.8895224	NaN	3267213.8729045	3267214.38944923
54	18	0	0	90	36.1581920903955	36.241610738255	8	0.266685408055782	2	1	6	NaN	1	4	0.231494007595073	1	1	NaN	84	2	21	1	121	221	321	NaN	521	0.0103751746937633	1	1	NaN	3267215.2064045	NaN	3267216.1897992	3267216.70635863
54	18	0	0	90	36.1581920903955	36.241610738255	0	0	1	2	2	NaN	1	4	0.231494007595073	1	1	NaN	85	2	22	1	111	211	311	NaN	511	0.0103918220847845	1	1	NaN	3267217.5231722	NaN	3267218.5067002	3267219.02324868
54	18	0	0	90	36.1581920903955	36.241610738255	15	0.500035140104592	2	7	2	NaN	2	5	0.231494007595073	1	1	NaN	86	2	23	1	121	221	321	NaN	521	0.61033682199195	2	1	NaN	3267219.8401975	NaN	3267220.8235612	3267221.34015488
54	18	0	0	90	36.1581920903955	36.241610738255	18	0.60004216812551	2	10	6	NaN	2	3	0.231494007595073	1	1	NaN	87	2	24	1	121	221	321	NaN	521	0.0103724747896194	2	1	NaN	3267222.7738336	NaN	3267223.757216	3267224.27376643
54	18	0	0	90	36.1581920903955	36.241610738255	21	0.700049196146429	2	12	3	NaN	2	3	0.231494007595073	1	1	NaN	88	2	25	1	121	221	321	NaN	521	0.647570522036403	1	0	NaN	3267225.1074528	NaN	3267226.0907841	3267226.60732578
54	18	0	0	90	36.1581920903955	36.241610738255	20	0.666713520139456	2	8	1	NaN	2	3	0.231494007595073	1	1	NaN	89	2	26	1	121	221	321	NaN	521	0.2542988746427	2	1	NaN	3267228.9243845	NaN	3267229.9077994	3267230.42437313
54	18	0	0	90	36.1581920903955	36.241610738255	7	0.23334973204881	2	9	1	NaN	2	4	0.231494007595073	1	1	NaN	90	2	27	1	121	221	321	NaN	521	0.0102208000607789	2	1	NaN	3267231.4913234	NaN	3267232.4747414	3267232.9913127
54	18	0	0	90	36.1581920903955	36.241610738255	15	0.500035140104592	2	5	4	NaN	1	4	0.231494007595073	1	1	NaN	91	2	28	1	121	221	321	NaN	521	0.0105054546147585	1	1	NaN	3267234.4082615	NaN	3267235.3916886	3267235.90823915
54	18	0	0	90	36.1581920903955	36.241610738255	11	0.366692436076701	2	6	6	NaN	1	5	0.231494007595073	1	1	NaN	92	2	29	1	121	221	321	NaN	521	0.609533722046763	1	1	NaN	3267237.4252314	NaN	3267238.4086534	3267238.92520148
54	18	0	0	90	36.1581920903955	36.241610738255	7	0.23334973204881	2	10	2	NaN	2	5	0.231494007595073	1	1	NaN	93	2	30	1	121	221	321	NaN	521	0.0104363649152219	2	1	NaN	3267240.3422187	NaN	3267241.3255874	3267241.84215074
54	18	0	0	90	36.1581920903955	36.241610738255	8	0.266685408055782	2	5	2	NaN	1	4	0.231494007595073	1	1	NaN	94	2	31	1	121	221	321	NaN	521	0.347634032834321	2	0	NaN	3267243.3591377	NaN	3267244.3425805	3267244.85912127
54	18	0	0	90	36.1581920903955	36.241610738255	16	0.533370816111565	2	8	5	NaN	2	3	0.231494007595073	1	1	NaN	95	2	32	1	121	221	321	NaN	521	0.432494174689054	2	1	NaN	3267246.0261219	NaN	3267247.0094972	3267247.52605243
54	18	0	0	90	36.1581920903955	36.241610738255	23	0.766720548160374	2	6	4	NaN	1	3	0.231494007595073	1	1	NaN	96	2	33	1	121	221	321	NaN	521	0.0103903221897781	1	1	NaN	3267248.7764623	NaN	3267249.7598161	3267250.27631648
54	18	0	0	90	36.1581920903955	36.241610738255	16	0.533370816111565	2	7	1	NaN	2	3	0.231494007595073	1	1	NaN	97	2	34	1	121	221	321	NaN	521	0.0894453222863376	2	1	NaN	3267252.3932457	NaN	3267253.3767908	3267253.89333928
54	18	0	0	90	36.1581920903955	36.241610738255	6	0.200014056041837	2	9	2	NaN	2	3	0.231494007595073	1	1	NaN	98	2	35	1	121	221	321	NaN	521	2.35803812230006	2	1	NaN	3267255.2769944	NaN	3267256.2604574	3267256.77695068
54	18	0	0	90	36.1581920903955	36.241610738255	17	0.566706492118537	2	2	4	NaN	1	5	0.231494007595073	1	1	NaN	99	2	36	1	121	221	321	NaN	521	0.0103807747364044	1	1	NaN	3267259.9441694	NaN	3267260.9275198	3267261.44408663
54	18	0	0	90	36.1581920903955	36.241610738255	20	0.666713520139456	2	6	1	NaN	1	5	0.231494007595073	1	1	NaN	100	2	37	1	121	221	321	NaN	521	0.0104673220776021	1	1	NaN	3267262.2775533	NaN	3267263.2610748	3267263.77765118
54	18	0	0	90	36.1581920903955	36.241610738255	14	0.466699464097619	2	2	3	NaN	1	3	0.231494007595073	1	1	NaN	101	2	38	1	121	221	321	NaN	521	0.0103951222263277	1	1	NaN	3267264.5945987	NaN	3267265.5779782	3267266.09453588
54	18	0	0	90	36.1581920903955	36.241610738255	22	0.733384872153401	2	9	2	NaN	2	5	0.231494007595073	1	1	NaN	102	2	39	1	121	221	321	NaN	521	0.491648375056684	2	1	NaN	3267266.9115133	NaN	3267267.8949331	3267268.41143333
54	18	0	0	90	36.1581920903955	36.241610738255	22	0.733384872153401	2	12	6	NaN	2	3	0.231494007595073	1	1	NaN	103	2	40	1	121	221	321	NaN	521	2.04299467476085	2	1	NaN	3267269.7118304	NaN	3267270.695147	3267271.21170933
54	18	0	0	90	36.1581920903955	36.241610738255	15	0.500035140104592	2	4	1	NaN	1	4	0.231494007595073	1	1	NaN	104	2	41	1	121	221	321	NaN	521	0.0103944223374128	1	1	NaN	3267274.0621856	NaN	3267275.0455636	3267275.56212768
54	18	0	0	90	36.1581920903955	36.241610738255	0	0	1	10	2	NaN	2	3	0.231494007595073	1	1	NaN	105	2	42	1	111	211	311	NaN	511	0.010389621835202	2	1	NaN	3267276.3790697	NaN	3267277.3624742	3267277.87903468
54	18	0	0	90	36.1581920903955	36.241610738255	22	0.733384872153401	2	4	4	NaN	1	4	0.231494007595073	1	1	NaN	106	2	43	1	121	221	321	NaN	521	0.0103915221989155	1	1	NaN	3267279.1793233	NaN	3267280.1627636	3267280.67930618
54	18	0	0	90	36.1581920903955	36.241610738255	13	0.433363788090646	2	12	4	NaN	2	4	0.231494007595073	1	1	NaN	107	2	44	1	121	221	321	NaN	521	0.43441992206499	2	1	NaN	3267281.4962373	NaN	3267282.4796404	3267282.99619958
54	18	0	0	90	36.1581920903955	36.241610738255	15	0.500035140104592	2	10	4	NaN	2	5	0.231494007595073	1	1	NaN	108	2	45	1	121	221	321	NaN	521	1.52427014289424	2	1	NaN	3267284.2465463	NaN	3267285.2299341	3267285.74647626
54	18	0	0	90	36.1581920903955	36.241610738255	11	0.366692436076701	2	7	2	NaN	2	3	0.231494007595073	1	1	NaN	109	2	46	1	121	221	321	NaN	521	1.21856096992269	2	1	NaN	3267288.0802336	NaN	3267289.0636729	3267289.58017983
54	18	0	0	90	36.1581920903955	36.241610738255	13	0.433363788090646	2	2	4	NaN	1	4	0.231494007595073	1	1	NaN	110	2	47	1	121	221	321	NaN	521	0.0103731746785343	1	1	NaN	3267291.6139149	NaN	3267292.5972992	3267293.11386593
54	18	0	0	90	36.1581920903955	36.241610738255	18	0.60004216812551	2	11	6	NaN	2	5	0.231494007595073	1	1	NaN	111	2	48	1	121	221	321	NaN	521	0.0479159699752927	2	1	NaN	3267293.9307961	NaN	3267294.9142101	3267295.43077643
54	18	0	0	90	36.1581920903955	36.241610738255	17	0.566706492118537	2	10	2	NaN	2	4	0.231494007595073	1	1	NaN	112	2	49	1	121	221	321	NaN	521	0.04199632210657	2	1	NaN	3267296.2810431	NaN	3267297.264445	3267297.78099418
54	18	0	0	90	36.1581920903955	36.241610738255	16	0.533370816111565	2	4	5	NaN	1	4	0.231494007595073	1	1	NaN	113	2	50	1	121	221	321	NaN	521	0.0515307220630348	1	1	NaN	3267298.6313158	NaN	3267299.6146576	3267300.13121598
54	18	0	0	90	36.1581920903955	36.241610738255	0	0	1	8	1	NaN	2	3	0.231494007595073	1	1	NaN	114	2	51	1	111	211	311	NaN	511	0.0104103703051805	2	1	NaN	3267300.9981735	NaN	3267301.9815591	3267302.49811043
54	18	0	0	90	36.1581920903955	36.241610738255	0	0	1	4	4	NaN	1	4	0.231494007595073	1	1	NaN	115	2	52	1	111	211	311	NaN	511	0.0103782746009529	1	1	NaN	3267303.3150518	NaN	3267304.2984544	3267304.81501463
54	18	0	0	90	36.1581920903955	36.241610738255	18	0.60004216812551	2	12	1	NaN	2	4	0.231494007595073	1	1	NaN	116	2	53	1	121	221	321	NaN	521	0.531273270025849	2	1	NaN	3267305.6318757	NaN	3267306.615401	3267307.13190173
54	18	0	0	90	36.1581920903955	36.241610738255	19	0.633377844132483	2	1	6	NaN	1	4	0.231494007595073	1	1	NaN	117	2	54	1	121	221	321	NaN	521	0.920635869726539	1	1	NaN	3267308.4822418	NaN	3267309.4656346	3267309.98218603
54	18	0	0	90	36.1581920903955	36.241610738255	17	0.566706492118537	2	6	4	NaN	1	5	0.231494007595073	1	1	NaN	118	2	55	1	121	221	321	NaN	521	0.0103844748809934	1	1	NaN	3267311.7158908	NaN	3267312.6992814	3267313.21583623
54	18	0	0	90	36.1581920903955	36.241610738255	19	0.633377844132483	2	12	5	NaN	2	3	0.231494007595073	1	1	NaN	119	2	56	1	121	221	321	NaN	521	0.0104062696918845	2	1	NaN	3267314.0327794	NaN	3267315.0161684	3267315.53272993
54	18	0	0	90	36.1581920903955	36.241610738255	23	0.766720548160374	2	5	5	NaN	1	5	0.231494007595073	1	1	NaN	120	2	57	1	121	221	321	NaN	521	0.0104059702716768	1	1	NaN	3267316.3495342	NaN	3267317.3330946	3267317.84961533
54	18	0	0	90	36.1581920903955	36.241610738255	7	0.23334973204881	2	3	2	NaN	1	4	0.231494007595073	1	1	NaN	121	2	58	1	121	221	321	NaN	521	0.991987269837409	1	1	NaN	3267318.6832273	NaN	3267319.6666352	3267320.18317843
54	18	0	0	90	36.1581920903955	36.241610738255	24	0.800056224167347	2	4	4	NaN	1	5	0.231494007595073	1	1	NaN	122	2	59	1	121	221	321	NaN	521	0.0103907221928239	1	1	NaN	3267321.9836181	NaN	3267322.9669531	3267323.48350948
54	18	0	0	90	36.1581920903955	36.241610738255	8	0.266685408055782	2	7	4	NaN	2	4	0.231494007595073	1	1	NaN	123	2	60	1	121	221	321	NaN	521	0.0103903221897781	2	1	NaN	3267324.3004676	NaN	3267325.2838521	3267325.80040398
54	18	0	0	90	36.1581920903955	36.241610738255	6	0.200014056041837	2	7	5	NaN	2	5	0.231494007595073	1	1	NaN	124	2	61	1	121	221	321	NaN	521	0.0103932223282754	2	1	NaN	3267326.6340161	NaN	3267327.6174131	3267328.13397368
54	18	0	0	90	36.1581920903955	36.241610738255	14	0.466699464097619	2	2	3	NaN	1	4	0.231494007595073	1	1	NaN	125	2	62	1	121	221	321	NaN	521	0.035237374715507	1	1	NaN	3267328.9675681	NaN	3267329.9509544	3267330.46753453
54	18	0	0	90	36.1581920903955	36.241610738255	9	0.300021084062755	2	4	3	NaN	1	3	0.231494007595073	1	1	NaN	126	2	63	1	121	221	321	NaN	521	0.0103787747211754	1	1	NaN	3267332.6678941	NaN	3267333.6513142	3267334.16788893
54	18	0	0	90	36.1581920903955	36.241610738255	12	0.400028112083674	2	4	5	NaN	1	4	0.231494007595073	1	1	NaN	127	3	1	1	121	221	321	NaN	521	0.0104077700525522	1	1	NaN	3267355.4700629	NaN	3267356.4535839	3267356.97013103
54	18	0	0	90	36.1581920903955	36.241610738255	8	0.266685408055782	2	8	5	NaN	2	5	0.231494007595073	1	1	NaN	128	3	2	1	121	221	321	NaN	521	0.0103770750574768	2	1	NaN	3267357.7870794	NaN	3267358.7704915	3267359.28703173
54	18	0	0	90	36.1581920903955	36.241610738255	21	0.700049196146429	2	4	2	NaN	1	3	0.231494007595073	1	1	NaN	129	3	3	1	121	221	321	NaN	521	0.475337522104383	2	0	NaN	3267360.1039703	NaN	3267361.0873668	3267361.60392368
54	18	0	0	90	36.1581920903955	36.241610738255	18	0.60004216812551	2	12	4	NaN	2	5	0.231494007595073	1	1	NaN	130	3	4	1	121	221	321	NaN	521	0.0426996219903231	2	1	NaN	3267362.9042386	NaN	3267363.8876435	3267364.40419278
54	18	0	0	90	36.1581920903955	36.241610738255	18	0.60004216812551	2	1	2	NaN	1	3	0.231494007595073	1	1	NaN	131	3	5	1	121	221	321	NaN	521	0.0103820748627186	1	1	NaN	3267365.2711544	NaN	3267366.254513	3267366.77110163
54	18	0	0	90	36.1581920903955	36.241610738255	9	0.300021084062755	2	7	2	NaN	2	4	0.231494007595073	1	1	NaN	132	3	6	1	121	221	321	NaN	521	1.35020647011697	2	1	NaN	3267367.6047168	NaN	3267368.5881066	3267369.10465363
54	18	0	0	90	36.1581920903955	36.241610738255	22	0.733384872153401	2	5	6	NaN	1	3	0.231494007595073	1	1	NaN	133	3	7	1	121	221	321	NaN	521	0.0104083698242903	1	1	NaN	3267371.271739	NaN	3267372.2551596	3267372.77168713
54	18	0	0	90	36.1581920903955	36.241610738255	11	0.366692436076701	2	1	1	NaN	1	3	0.231494007595073	1	1	NaN	134	3	8	1	121	221	321	NaN	521	0.949743274599314	1	1	NaN	3267373.6053038	NaN	3267374.5887355	3267375.10524773
54	18	0	0	90	36.1581920903955	36.241610738255	20	0.666713520139456	2	4	6	NaN	1	3	0.231494007595073	1	1	NaN	135	3	9	1	121	221	321	NaN	521	0.0347088221460581	1	1	NaN	3267376.8721665	NaN	3267377.8556942	3267378.37223578
54	18	0	0	90	36.1581920903955	36.241610738255	25	0.83339190017432	2	9	5	NaN	2	3	0.231494007595073	1	1	NaN	136	3	10	1	121	221	321	NaN	521	0.0104060703888535	2	1	NaN	3267379.2225334	NaN	3267380.2059144	3267380.72246533
54	18	0	0	90	36.1581920903955	36.241610738255	10	0.333356760069728	2	2	5	NaN	1	3	0.231494007595073	1	1	NaN	137	3	11	1	121	221	321	NaN	521	0.190968674607575	1	1	NaN	3267381.5560909	NaN	3267382.5394657	3267383.05602973
54	18	0	0	90	36.1581920903955	36.241610738255	6	0.200014056041837	2	1	6	NaN	1	5	0.231494007595073	1	1	NaN	138	3	12	1	121	221	321	NaN	521	0.0103901224210858	1	1	NaN	3267384.6230346	NaN	3267385.6064414	3267386.12299598
54	18	0	0	90	36.1581920903955	36.241610738255	16	0.533370816111565	2	10	4	NaN	2	4	0.231494007595073	1	1	NaN	139	3	13	1	121	221	321	NaN	521	0.188401227351278	2	1	NaN	3267387.0066267	NaN	3267387.9900097	3267388.50656917
54	18	0	0	90	36.1581920903955	36.241610738255	11	0.366692436076701	2	6	4	NaN	1	5	0.231494007595073	1	1	NaN	140	3	14	1	121	221	321	NaN	521	0.0103986221365631	1	1	NaN	3267389.5068642	NaN	3267390.4902608	3267391.00680778
54	18	0	0	90	36.1581920903955	36.241610738255	6	0.200014056041837	2	8	6	NaN	2	4	0.231494007595073	1	1	NaN	141	3	15	1	121	221	321	NaN	521	0.0104072699323297	2	1	NaN	3267392.0238056	NaN	3267393.0071749	3267393.52371743
54	18	0	0	90	36.1581920903955	36.241610738255	25	0.83339190017432	2	6	3	NaN	1	5	0.231494007595073	1	1	NaN	142	3	16	1	121	221	321	NaN	521	0.0103887221775949	1	1	NaN	3267394.3406416	NaN	3267395.324047	3267395.84061488
54	18	0	0	90	36.1581920903955	36.241610738255	16	0.533370816111565	2	7	6	NaN	2	3	0.231494007595073	1	1	NaN	143	3	17	1	121	221	321	NaN	521	0.0103908223100007	2	1	NaN	3267396.6575686	NaN	3267397.6409639	3267398.15751458
54	18	0	0	90	36.1581920903955	36.241610738255	0	0	1	9	6	NaN	2	5	0.231494007595073	1	1	NaN	144	3	18	1	111	211	311	NaN	511	0.0103908218443394	2	1	NaN	3267399.4245913	NaN	3267400.4078841	3267400.92445198
54	18	0	0	90	36.1581920903955	36.241610738255	25	0.83339190017432	2	12	4	NaN	2	4	0.231494007595073	1	1	NaN	145	3	19	1	121	221	321	NaN	521	0.981516222469509	2	1	NaN	3267401.7414029	NaN	3267402.7248135	3267403.24135258
54	18	0	0	90	36.1581920903955	36.241610738255	12	0.400028112083674	2	9	4	NaN	2	4	0.231494007595073	1	1	NaN	146	3	20	1	121	221	321	NaN	521	1.70085432240739	2	1	NaN	3267405.558408	NaN	3267406.5418685	3267407.05838338
54	18	0	0	90	36.1581920903955	36.241610738255	25	0.83339190017432	2	3	3	NaN	1	5	0.231494007595073	1	1	NaN	147	3	21	1	121	221	321	NaN	521	0.0103883221745491	1	1	NaN	3267409.5755008	NaN	3267410.5589414	3267411.07544198
54	18	0	0	90	36.1581920903955	36.241610738255	14	0.466699464097619	2	11	5	NaN	2	3	0.231494007595073	1	1	NaN	148	3	22	1	121	221	321	NaN	521	0.038727022241801	2	1	NaN	3267411.8923767	NaN	3267412.875834	3267413.39234588
54	18	0	0	90	36.1581920903955	36.241610738255	9	0.300021084062755	2	2	4	NaN	1	4	0.231494007595073	1	1	NaN	149	3	23	1	121	221	321	NaN	521	0.0104072699323297	1	1	NaN	3267414.2424913	NaN	3267415.2260236	3267415.74257193
54	18	0	0	90	36.1581920903955	36.241610738255	21	0.700049196146429	2	12	1	NaN	2	4	0.231494007595073	1	1	NaN	150	3	24	1	121	221	321	NaN	521	0.0103922220878303	2	1	NaN	3267416.576173	NaN	3267417.5596202	3267418.07613268
54	18	0	0	90	36.1581920903955	36.241610738255	22	0.733384872153401	2	8	6	NaN	2	4	0.231494007595073	1	1	NaN	151	3	25	1	121	221	321	NaN	521	0.485968822147697	1	0	NaN	3267418.893084	NaN	3267419.8764658	3267420.39303198
54	18	0	0	90	36.1581920903955	36.241610738255	10	0.333356760069728	2	12	6	NaN	2	3	0.231494007595073	1	1	NaN	152	3	26	1	121	221	321	NaN	521	0.355034922249615	2	1	NaN	3267421.7599996	NaN	3267422.7434534	3267423.25997378
54	18	0	0	90	36.1581920903955	36.241610738255	8	0.266685408055782	2	11	6	NaN	2	5	0.231494007595073	1	1	NaN	153	3	27	1	121	221	321	NaN	521	2.06413242174312	2	1	NaN	3267424.4269648	NaN	3267425.4103685	3267425.92690918
54	18	0	0	90	36.1581920903955	36.241610738255	25	0.83339190017432	2	8	2	NaN	2	4	0.231494007595073	1	1	NaN	154	3	28	1	121	221	321	NaN	521	0.446096874773502	2	1	NaN	3267429.2607246	NaN	3267430.2441994	3267430.76072103
54	18	0	0	90	36.1581920903955	36.241610738255	15	0.500035140104592	2	1	4	NaN	1	5	0.231494007595073	1	1	NaN	155	3	29	1	121	221	321	NaN	521	0.399846732616425	1	1	NaN	3267432.0110298	NaN	3267432.9943961	3267433.51099637
54	18	0	0	90	36.1581920903955	36.241610738255	0	0	1	7	2	NaN	2	3	0.231494007595073	1	1	NaN	156	3	30	1	111	211	311	NaN	511	0.01042251707986	2	1	NaN	3267434.7278656	NaN	3267435.7113588	3267436.22792078
54	18	0	0	90	36.1581920903955	36.241610738255	14	0.466699464097619	2	6	2	NaN	1	3	0.231494007595073	1	1	NaN	157	3	31	1	121	221	321	NaN	521	0.403769521974027	1	1	NaN	3267437.5115885	NaN	3267438.4949762	3267439.01152848
54	18	0	0	90	36.1581920903955	36.241610738255	25	0.83339190017432	2	3	3	NaN	1	3	0.231494007595073	1	1	NaN	158	3	32	1	121	221	321	NaN	521	0.110378322191536	1	1	NaN	3267440.2285236	NaN	3267441.2118906	3267441.72846198
54	18	0	0	90	36.1581920903955	36.241610738255	6	0.200014056041837	2	12	2	NaN	2	3	0.231494007595073	1	1	NaN	159	3	33	1	121	221	321	NaN	521	0.173426022287458	2	1	NaN	3267442.6454086	NaN	3267443.6288016	3267444.14536008
54	18	0	0	90	36.1581920903955	36.241610738255	24	0.800056224167347	2	1	5	NaN	1	3	0.231494007595073	1	1	NaN	160	3	34	1	121	221	321	NaN	521	0.0103931222110987	1	1	NaN	3267445.1289946	NaN	3267446.1124216	3267446.62894288
54	18	0	0	90	36.1581920903955	36.241610738255	21	0.700049196146429	2	6	2	NaN	1	3	0.231494007595073	1	1	NaN	161	3	35	1	121	221	321	NaN	521	1.94110067468137	2	0	NaN	3267447.445882	NaN	3267448.4293153	3267448.94584263
54	18	0	0	90	36.1581920903955	36.241610738255	10	0.333356760069728	2	4	5	NaN	1	3	0.231494007595073	1	1	NaN	162	3	36	1	121	221	321	NaN	521	1.57074685487896	1	1	NaN	3267451.6962896	NaN	3267452.6797115	3267453.19624605
54	18	0	0	90	36.1581920903955	36.241610738255	17	0.566706492118537	2	8	3	NaN	2	5	0.231494007595073	1	1	NaN	163	3	37	1	121	221	321	NaN	521	0.53508142195642	2	1	NaN	3267455.5800229	NaN	3267456.5633974	3267457.07996868
54	18	0	0	90	36.1581920903955	36.241610738255	0	0	1	6	1	NaN	1	4	0.231494007595073	1	1	NaN	164	3	38	1	111	211	311	NaN	511	0.357191760092974	1	1	NaN	3267458.4301887	NaN	3267459.4137091	3267459.93025144
54	18	0	0	90	36.1581920903955	36.241610738255	16	0.533370816111565	2	4	1	NaN	1	4	0.231494007595073	1	1	NaN	165	3	39	1	121	221	321	NaN	521	0.0102966371923685	1	1	NaN	3267461.0971015	NaN	3267462.0806253	3267462.59717826
54	18	0	0	90	36.1581920903955	36.241610738255	9	0.300021084062755	2	6	2	NaN	1	3	0.231494007595073	1	1	NaN	166	3	40	1	121	221	321	NaN	521	2.04515887005255	1	1	NaN	3267463.414125	NaN	3267464.3975239	3267464.91407253
54	18	0	0	90	36.1581920903955	36.241610738255	6	0.200014056041837	2	10	6	NaN	2	5	0.231494007595073	1	1	NaN	167	3	41	1	121	221	321	NaN	521	0.430857774801552	1	0	NaN	3267467.7644314	NaN	3267468.7479421	3267469.26449423
54	18	0	0	90	36.1581920903955	36.241610738255	19	0.633377844132483	2	11	5	NaN	2	4	0.231494007595073	1	1	NaN	168	3	42	1	121	221	321	NaN	521	0.184341722168028	2	1	NaN	3267470.5148197	NaN	3267471.4982131	3267472.01476518
54	18	0	0	90	36.1581920903955	36.241610738255	24	0.800056224167347	2	6	6	NaN	1	5	0.231494007595073	1	1	NaN	169	3	43	1	121	221	321	NaN	521	0.0748045220971107	1	1	NaN	3267473.2484234	NaN	3267474.2318403	3267474.74836988
54	18	0	0	90	36.1581920903955	36.241610738255	15	0.500035140104592	2	2	1	NaN	1	4	0.231494007595073	1	1	NaN	170	3	44	1	121	221	321	NaN	521	0.0103913224302232	1	1	NaN	3267475.6319933	NaN	3267476.615317	3267477.13193978
54	18	0	0	90	36.1581920903955	36.241610738255	19	0.633377844132483	2	5	4	NaN	1	4	0.231494007595073	1	1	NaN	171	3	45	1	121	221	321	NaN	521	0.0104107698425651	1	1	NaN	3267477.9488322	NaN	3267478.9321707	3267479.44883703
54	18	0	0	90	36.1581920903955	36.241610738255	8	0.266685408055782	2	9	4	NaN	2	4	0.231494007595073	1	1	NaN	172	3	46	1	121	221	321	NaN	521	0.857649322133511	2	1	NaN	3267480.2657747	NaN	3267481.249171	3267481.76572658
54	18	0	0	90	36.1581920903955	36.241610738255	10	0.333356760069728	2	11	1	NaN	2	4	0.231494007595073	1	1	NaN	173	3	47	1	121	221	321	NaN	521	0.221688070334494	2	1	NaN	3267483.9494759	NaN	3267484.9328434	3267485.44942563
54	18	0	0	90	36.1581920903955	36.241610738255	23	0.766720548160374	2	6	5	NaN	1	3	0.231494007595073	1	1	NaN	174	3	48	1	121	221	321	NaN	521	0.0104096699506044	2	0	NaN	3267486.4830801	NaN	3267487.4664565	3267487.98300373
54	18	0	0	90	36.1581920903955	36.241610738255	10	0.333356760069728	2	9	4	NaN	2	4	0.231494007595073	1	1	NaN	175	3	49	1	121	221	321	NaN	521	0.0105030545964837	2	1	NaN	3267488.7997815	NaN	3267489.7833886	3267490.29989465
54	18	0	0	90	36.1581920903955	36.241610738255	18	0.60004216812551	2	6	4	NaN	1	4	0.231494007595073	1	1	NaN	176	3	50	1	121	221	321	NaN	521	0.149588469881564	1	1	NaN	3267491.1335162	NaN	3267492.1169184	3267492.63346013
54	18	0	0	90	36.1581920903955	36.241610738255	17	0.566706492118537	2	4	3	NaN	1	4	0.231494007595073	1	1	NaN	177	3	51	1	121	221	321	NaN	521	1.17084327014163	1	1	NaN	3267493.6005205	NaN	3267494.5838239	3267495.10036883
54	18	0	0	90	36.1581920903955	36.241610738255	8	0.266685408055782	2	4	6	NaN	1	5	0.231494007595073	1	1	NaN	178	3	52	1	121	221	321	NaN	521	0.52696958463639	1	1	NaN	3267497.0841064	NaN	3267498.0674997	3267498.58404142
54	18	0	0	90	36.1581920903955	36.241610738255	21	0.700049196146429	2	2	2	NaN	1	3	0.231494007595073	1	1	NaN	179	3	53	1	121	221	321	NaN	521	0.480992422439158	1	1	NaN	3267500.0344952	NaN	3267501.0177682	3267501.53433588
54	18	0	0	90	36.1581920903955	36.241610738255	12	0.400028112083674	2	5	3	NaN	1	3	0.231494007595073	1	1	NaN	180	3	54	1	121	221	321	NaN	521	0.473513621836901	1	1	NaN	3267502.8179872	NaN	3267503.8013898	3267504.31794148
54	18	0	0	90	36.1581920903955	36.241610738255	20	0.666713520139456	2	10	1	NaN	2	5	0.231494007595073	1	1	NaN	181	3	55	1	121	221	321	NaN	521	0.753327622078359	2	1	NaN	3267505.6015982	NaN	3267506.5850449	3267507.10155458
54	18	0	0	90	36.1581920903955	36.241610738255	7	0.23334973204881	2	6	3	NaN	1	5	0.231494007595073	1	1	NaN	182	3	56	1	121	221	321	NaN	521	0.214448969811201	1	1	NaN	3267508.6684698	NaN	3267509.6519618	3267510.16851533
54	18	0	0	90	36.1581920903955	36.241610738255	6	0.200014056041837	2	9	6	NaN	2	3	0.231494007595073	1	1	NaN	183	3	57	1	121	221	321	NaN	521	0.425373522099108	2	1	NaN	3267511.2021551	NaN	3267512.1855462	3267512.70209608
54	18	0	0	90	36.1581920903955	36.241610738255	11	0.366692436076701	2	11	2	NaN	2	5	0.231494007595073	1	1	NaN	184	3	58	1	121	221	321	NaN	521	0.0104058696888387	2	1	NaN	3267514.4524515	NaN	3267515.4358487	3267515.95241993
54	18	0	0	90	36.1581920903955	36.241610738255	21	0.700049196146429	2	1	3	NaN	1	4	0.231494007595073	1	1	NaN	185	3	59	1	121	221	321	NaN	521	0.441816070117056	1	1	NaN	3267516.7692381	NaN	3267517.7527771	3267518.26931153
54	18	0	0	90	36.1581920903955	36.241610738255	10	0.333356760069728	2	5	2	NaN	1	3	0.231494007595073	1	1	NaN	186	3	60	1	121	221	321	NaN	521	1.63788796961308	1	1	NaN	3267519.8696902	NaN	3267520.8530619	3267521.36961043
54	18	0	0	90	36.1581920903955	36.241610738255	9	0.300021084062755	2	11	5	NaN	2	5	0.231494007595073	1	1	NaN	187	3	61	1	121	221	321	NaN	521	0.0151264225132763	1	0	NaN	3267523.8200523	NaN	3267524.8034581	3267525.31999778
54	18	0	0	90	36.1581920903955	36.241610738255	14	0.466699464097619	2	1	3	NaN	1	5	0.231494007595073	1	1	NaN	188	3	62	1	121	221	321	NaN	521	0.609908974729478	1	1	NaN	3267526.1536122	NaN	3267527.137014	3267527.65357053
54	18	0	0	90	36.1581920903955	36.241610738255	19	0.633377844132483	2	11	5	NaN	2	4	0.231494007595073	1	1	NaN	189	3	63	1	121	221	321	NaN	521	0.452641469892114	1	0	NaN	3267529.0704448	NaN	3267530.0539697	3267530.57051793
54	18	0	0	90	36.1581920903955	36.241610738255	17	0.566706492118537	2	7	3	NaN	2	3	0.231494007595073	1	1	NaN	190	4	1	1	121	221	321	NaN	521	1.0777176222764	2	1	NaN	3267564.9574269	NaN	3267565.9408488	3267566.45737928
54	18	0	0	90	36.1581920903955	36.241610738255	25	0.83339190017432	2	11	5	NaN	2	3	0.231494007595073	1	1	NaN	191	4	2	1	121	221	321	NaN	521	0.0941664222627878	2	1	NaN	3267568.3411113	NaN	3267569.324496	3267569.84104618
54	18	0	0	90	36.1581920903955	36.241610738255	8	0.266685408055782	2	10	5	NaN	2	4	0.231494007595073	1	1	NaN	192	4	3	1	121	221	321	NaN	521	0.0103915221989155	2	1	NaN	3267571.1746903	NaN	3267572.158102	3267572.67465758
54	18	0	0	90	36.1581920903955	36.241610738255	9	0.300021084062755	2	3	2	NaN	1	4	0.231494007595073	1	1	NaN	193	4	4	1	121	221	321	NaN	521	0.0103927222080529	1	1	NaN	3267573.4914684	NaN	3267574.474998	3267574.99155168
54	18	0	0	90	36.1581920903955	36.241610738255	19	0.633377844132483	2	9	4	NaN	2	4	0.231494007595073	1	1	NaN	194	4	5	1	121	221	321	NaN	521	0.234192422125489	2	1	NaN	3267575.8251727	NaN	3267576.8085413	3267577.32511378
54	18	0	0	90	36.1581920903955	36.241610738255	24	0.800056224167347	2	11	4	NaN	2	3	0.231494007595073	1	1	NaN	195	4	6	1	121	221	321	NaN	521	0.0103913219645619	1	0	NaN	3267579.5922037	NaN	3267580.5756556	3267581.09214828
54	18	0	0	90	36.1581920903955	36.241610738255	22	0.733384872153401	2	2	1	NaN	1	3	0.231494007595073	1	1	NaN	196	4	7	1	121	221	321	NaN	521	0.0138773219659925	1	1	NaN	3267581.9090939	NaN	3267582.8923971	3267583.40904208
54	18	0	0	90	36.1581920903955	36.241610738255	12	0.400028112083674	2	11	4	NaN	2	5	0.231494007595073	1	1	NaN	197	4	8	1	121	221	321	NaN	521	0.504955222364515	2	1	NaN	3267584.2426544	NaN	3267585.2260542	3267585.74260998
54	18	0	0	90	36.1581920903955	36.241610738255	11	0.366692436076701	2	4	6	NaN	1	4	0.231494007595073	1	1	NaN	198	4	9	1	121	221	321	NaN	521	0.896028774790466	1	1	NaN	3267587.0594757	NaN	3267588.0430142	3267588.55954813
54	18	0	0	90	36.1581920903955	36.241610738255	6	0.200014056041837	2	5	2	NaN	1	3	0.231494007595073	1	1	NaN	199	4	10	1	121	221	321	NaN	521	0.174756621941924	1	1	NaN	3267590.276614	NaN	3267591.2599842	3267591.77653028
54	18	0	0	90	36.1581920903955	36.241610738255	10	0.333356760069728	2	7	4	NaN	2	3	0.231494007595073	1	1	NaN	200	4	11	1	121	221	321	NaN	521	3.57139959000051	2	1	NaN	3267592.760169	NaN	3267593.7435787	3267594.26010981
54	18	0	0	90	36.1581920903955	36.241610738255	16	0.533370816111565	2	1	1	NaN	1	3	0.231494007595073	1	1	NaN	201	4	12	1	121	221	321	NaN	521	2.03708262229338	1	1	NaN	3267599.0940964	NaN	3267600.0775414	3267600.59407228
54	18	0	0	90	36.1581920903955	36.241610738255	19	0.633377844132483	2	7	5	NaN	2	3	0.231494007595073	1	1	NaN	202	4	13	1	121	221	321	NaN	521	0.742994194850326	2	1	NaN	3267603.4444838	NaN	3267604.4279659	3267604.94449441
54	18	0	0	90	36.1581920903955	36.241610738255	16	0.533370816111565	2	9	3	NaN	2	5	0.231494007595073	1	1	NaN	203	4	14	1	121	221	321	NaN	521	0.010405570268631	2	1	NaN	3267606.4948687	NaN	3267607.4782363	3267607.99478663
54	18	0	0	90	36.1581920903955	36.241610738255	10	0.333356760069728	2	3	3	NaN	1	3	0.231494007595073	1	1	NaN	204	4	15	1	121	221	321	NaN	521	0.010389621835202	1	1	NaN	3267609.4284353	NaN	3267610.4118568	3267610.92841768
54	18	0	0	90	36.1581920903955	36.241610738255	21	0.700049196146429	2	11	3	NaN	2	4	0.231494007595073	1	1	NaN	205	4	16	1	121	221	321	NaN	521	0.0899315746501088	2	1	NaN	3267611.745362	NaN	3267612.7287645	3267613.24530933
54	18	0	0	90	36.1581920903955	36.241610738255	11	0.366692436076701	2	2	2	NaN	1	3	0.231494007595073	1	1	NaN	206	4	17	1	121	221	321	NaN	521	0.0103896223008633	1	1	NaN	3267614.1455845	NaN	3267615.1290083	3267615.64554098
54	18	0	0	90	36.1581920903955	36.241610738255	20	0.666713520139456	2	10	4	NaN	2	5	0.231494007595073	1	1	NaN	207	4	18	1	121	221	321	NaN	521	1.83591972198337	2	1	NaN	3267616.4791406	NaN	3267617.4625583	3267617.97911018
54	18	0	0	90	36.1581920903955	36.241610738255	7	0.23334973204881	2	7	6	NaN	2	4	0.231494007595073	1	1	NaN	208	4	19	1	121	221	321	NaN	521	1.525569322519	2	1	NaN	3267620.6295639	NaN	3267621.6129618	3267622.12951008
54	18	0	0	90	36.1581920903955	36.241610738255	8	0.266685408055782	2	6	6	NaN	1	5	0.231494007595073	1	1	NaN	209	4	20	1	121	221	321	NaN	521	0.587952064815909	1	1	NaN	3267624.463283	NaN	3267625.4466773	3267625.96321714
54	18	0	0	90	36.1581920903955	36.241610738255	19	0.633377844132483	2	12	6	NaN	2	5	0.231494007595073	1	1	NaN	210	4	21	1	121	221	321	NaN	521	0.0879249223507941	2	1	NaN	3267627.3635583	NaN	3267628.3469752	3267628.86351008
54	18	0	0	90	36.1581920903955	36.241610738255	14	0.466699464097619	2	4	4	NaN	1	3	0.231494007595073	1	1	NaN	211	4	22	1	121	221	321	NaN	521	0.391460021957755	1	1	NaN	3267629.7637969	NaN	3267630.7472066	3267631.26374428
54	18	0	0	90	36.1581920903955	36.241610738255	10	0.333356760069728	2	12	2	NaN	2	5	0.231494007595073	1	1	NaN	212	4	23	1	121	221	321	NaN	521	2.13820922188461	1	0	NaN	3267633.0973196	NaN	3267634.0809287	3267634.59740678
54	18	0	0	90	36.1581920903955	36.241610738255	15	0.500035140104592	2	1	2	NaN	1	5	0.231494007595073	1	1	NaN	213	4	24	1	121	221	321	NaN	521	0.0104232700541615	1	1	NaN	3267637.5478532	NaN	3267638.5313379	3267639.04784443
54	18	0	0	90	36.1581920903955	36.241610738255	20	0.666713520139456	2	3	2	NaN	1	4	0.231494007595073	1	1	NaN	214	4	25	1	121	221	321	NaN	521	0.386208122130483	2	0	NaN	3267639.8814585	NaN	3267640.8648485	3267641.38140658
54	18	0	0	90	36.1581920903955	36.241610738255	7	0.23334973204881	2	11	3	NaN	2	4	0.231494007595073	1	1	NaN	215	4	26	1	121	221	321	NaN	521	0.754241169895977	2	1	NaN	3267642.865086	NaN	3267643.8484819	3267644.36502883
54	18	0	0	90	36.1581920903955	36.241610738255	15	0.500035140104592	2	12	6	NaN	2	5	0.231494007595073	1	1	NaN	216	4	27	1	121	221	321	NaN	521	0.111340222414583	2	1	NaN	3267645.932047	NaN	3267646.9154363	3267647.43200038
54	18	0	0	90	36.1581920903955	36.241610738255	25	0.83339190017432	2	9	1	NaN	2	3	0.231494007595073	1	1	NaN	217	4	28	1	121	221	321	NaN	521	0.646712174639106	2	1	NaN	3267648.3489713	NaN	3267649.3323544	3267649.84890283
54	18	0	0	90	36.1581920903955	36.241610738255	6	0.200014056041837	2	2	6	NaN	1	3	0.231494007595073	1	1	NaN	218	4	29	1	121	221	321	NaN	521	0.274825579952449	1	1	NaN	3267779.5285322	NaN	3267780.5119332	3267781.02846362
54	18	0	0	90	36.1581920903955	36.241610738255	14	0.466699464097619	2	9	2	NaN	2	5	0.231494007595073	1	1	NaN	219	4	30	1	121	221	321	NaN	521	0.0104705221019685	2	1	NaN	3267782.128773	NaN	3267783.1121897	3267783.62872818
54	18	0	0	90	36.1581920903955	36.241610738255	9	0.300021084062755	2	5	1	NaN	1	4	0.231494007595073	1	1	NaN	220	4	31	1	121	221	321	NaN	521	2.0456212698482	1	1	NaN	3267784.4623158	NaN	3267785.4457547	3267785.96228573
54	18	0	0	90	36.1581920903955	36.241610738255	8	0.266685408055782	2	12	6	NaN	2	5	0.231494007595073	1	1	NaN	221	4	32	1	121	221	321	NaN	521	0.0104589750990272	2	1	NaN	3267788.8126287	NaN	3267789.7961756	3267790.31271573
54	18	0	0	90	36.1581920903955	36.241610738255	11	0.366692436076701	2	9	1	NaN	2	5	0.231494007595073	1	1	NaN	222	4	33	1	121	221	321	NaN	521	0.777326765004545	2	1	NaN	3267791.1463661	NaN	3267792.1297749	3267792.64627234
54	18	0	0	90	36.1581920903955	36.241610738255	13	0.433363788090646	2	10	1	NaN	2	4	0.231494007595073	1	1	NaN	223	4	34	1	121	221	321	NaN	521	0.0208975374698639	2	1	NaN	3267794.2464611	NaN	3267795.2301445	3267795.74657416
54	18	0	0	90	36.1581920903955	36.241610738255	11	0.366692436076701	2	5	5	NaN	1	3	0.231494007595073	1	1	NaN	224	4	35	1	121	221	321	NaN	521	0.270690870005637	1	1	NaN	3267796.5968786	NaN	3267797.5802608	3267798.09683263
54	18	0	0	90	36.1581920903955	36.241610738255	8	0.266685408055782	2	7	5	NaN	2	5	0.231494007595073	1	1	NaN	225	4	36	1	121	221	321	NaN	521	0.0104819699190557	2	1	NaN	3267799.1969261	NaN	3267800.1804393	3267800.69706403
54	18	0	0	90	36.1581920903955	36.241610738255	18	0.60004216812551	2	3	5	NaN	1	3	0.231494007595073	1	1	NaN	226	4	37	1	121	221	321	NaN	521	0.0103997327387333	1	1	NaN	3267801.5306892	NaN	3267802.514099	3267803.03063037
54	18	0	0	90	36.1581920903955	36.241610738255	25	0.83339190017432	2	12	2	NaN	2	3	0.231494007595073	1	1	NaN	227	4	38	1	121	221	321	NaN	521	1.25921527016908	2	1	NaN	3267803.8641454	NaN	3267804.8476466	3267805.36419213
54	18	0	0	90	36.1581920903955	36.241610738255	22	0.733384872153401	2	7	3	NaN	2	4	0.231494007595073	1	1	NaN	228	4	39	1	121	221	321	NaN	521	0.0104611222632229	1	0	NaN	3267807.4479375	NaN	3267808.431332	3267808.94787198
54	18	0	0	90	36.1581920903955	36.241610738255	10	0.333356760069728	2	8	1	NaN	2	4	0.231494007595073	1	1	NaN	229	4	40	1	121	221	321	NaN	521	0.0104866698384285	2	1	NaN	3267809.7814917	NaN	3267810.7648928	3267811.28143633
54	18	0	0	90	36.1581920903955	36.241610738255	11	0.366692436076701	2	12	5	NaN	2	4	0.231494007595073	1	1	NaN	230	4	41	1	121	221	321	NaN	521	0.0565813747234643	2	1	NaN	3267812.1150612	NaN	3267813.09851	3267813.61499853
54	18	0	0	90	36.1581920903955	36.241610738255	7	0.23334973204881	2	2	5	NaN	1	5	0.231494007595073	1	1	NaN	231	4	42	1	121	221	321	NaN	521	0.0249131848104298	1	1	NaN	3267814.498616	NaN	3267815.4819973	3267815.99857192
54	18	0	0	90	36.1581920903955	36.241610738255	12	0.400028112083674	2	7	6	NaN	2	4	0.231494007595073	1	1	NaN	232	4	43	1	121	221	321	NaN	521	1.05907577462494	1	0	NaN	3267816.8488518	NaN	3267817.832283	3267818.34880113
54	18	0	0	90	36.1581920903955	36.241610738255	13	0.433363788090646	2	7	5	NaN	2	3	0.231494007595073	1	1	NaN	233	4	44	1	121	221	321	NaN	521	1.23313876008615	2	1	NaN	3267820.6825662	NaN	3267821.6659708	3267822.18250874
54	18	0	0	90	36.1581920903955	36.241610738255	6	0.200014056041837	2	1	6	NaN	1	5	0.231494007595073	1	1	NaN	234	4	45	1	121	221	321	NaN	521	0.0103286947123706	1	1	NaN	3267824.2328481	NaN	3267825.2162824	3267825.73286141
54	18	0	0	90	36.1581920903955	36.241610738255	23	0.766720548160374	2	3	6	NaN	1	3	0.231494007595073	1	1	NaN	235	4	46	1	121	221	321	NaN	521	0.581469322089106	1	1	NaN	3267826.5664746	NaN	3267827.5498702	3267828.06641708
54	18	0	0	90	36.1581920903955	36.241610738255	15	0.500035140104592	2	12	3	NaN	2	4	0.231494007595073	1	1	NaN	236	4	47	1	121	221	321	NaN	521	1.05661682225764	2	1	NaN	3267829.4666231	NaN	3267830.4502006	3267830.96670758
54	18	0	0	90	36.1581920903955	36.241610738255	12	0.400028112083674	2	10	4	NaN	2	3	0.231494007595073	1	1	NaN	237	4	48	1	121	221	321	NaN	521	1.29737247014418	2	1	NaN	3267832.8504402	NaN	3267833.8338559	3267834.35036913
54	18	0	0	90	36.1581920903955	36.241610738255	23	0.766720548160374	2	1	2	NaN	1	4	0.231494007595073	1	1	NaN	238	4	49	1	121	221	321	NaN	521	0.743891370017081	2	0	NaN	3267836.4673223	NaN	3267837.4508724	3267837.96739283
54	18	0	0	90	36.1581920903955	36.241610738255	9	0.300021084062755	2	4	6	NaN	1	4	0.231494007595073	1	1	NaN	239	4	50	1	121	221	321	NaN	521	0.0104650221765041	1	1	NaN	3267839.5344637	NaN	3267840.5178227	3267841.03436288
54	18	0	0	90	36.1581920903955	36.241610738255	21	0.700049196146429	2	9	3	NaN	2	5	0.231494007595073	1	1	NaN	240	4	51	1	121	221	321	NaN	521	0.0104823699221015	2	1	NaN	3267841.867966	NaN	3267842.8513708	3267843.36791603
54	18	0	0	90	36.1581920903955	36.241610738255	12	0.400028112083674	2	12	4	NaN	2	3	0.231494007595073	1	1	NaN	241	4	52	1	121	221	321	NaN	521	0.0104658221825957	2	1	NaN	3267844.2014227	NaN	3267845.1849868	3267845.70149898
54	18	0	0	90	36.1581920903955	36.241610738255	19	0.633377844132483	2	10	5	NaN	2	5	0.231494007595073	1	1	NaN	242	4	53	1	121	221	321	NaN	521	0.139113170094788	2	1	NaN	3267846.5684654	NaN	3267847.5518871	3267848.06837453
54	18	0	0	90	36.1581920903955	36.241610738255	8	0.266685408055782	2	3	5	NaN	1	5	0.231494007595073	1	1	NaN	243	4	54	1	121	221	321	NaN	521	0.0103801474906504	1	1	NaN	3267849.0353554	NaN	3267850.0188315	3267850.53531265
54	18	0	0	90	36.1581920903955	36.241610738255	24	0.800056224167347	2	6	1	NaN	1	4	0.231494007595073	1	1	NaN	244	4	55	1	121	221	321	NaN	521	0.0104478746652603	1	1	NaN	3267851.368798	NaN	3267852.3522945	3267852.86886183
54	18	0	0	90	36.1581920903955	36.241610738255	0	0	1	1	4	NaN	1	4	0.231494007595073	1	1	NaN	245	4	56	1	111	211	311	NaN	511	0.981014142744243	1	1	NaN	3267853.7023966	NaN	3267854.6858933	3267855.20242496
54	18	0	0	90	36.1581920903955	36.241610738255	7	0.23334973204881	2	2	4	NaN	1	3	0.231494007595073	1	1	NaN	246	4	57	1	121	221	321	NaN	521	0.0970024699345231	1	1	NaN	3267857.0027987	NaN	3267857.9862264	3267858.50274713
54	18	0	0	90	36.1581920903955	36.241610738255	0	0	1	5	5	NaN	1	4	0.231494007595073	1	1	NaN	247	4	58	1	111	211	311	NaN	511	0.0104653220623732	1	1	NaN	3267859.4195633	NaN	3267860.4031093	3267860.91963758
54	18	0	0	90	36.1581920903955	36.241610738255	17	0.566706492118537	2	6	2	NaN	1	3	0.231494007595073	1	1	NaN	248	4	59	1	121	221	321	NaN	521	0.978424421977252	1	1	NaN	3267861.7533087	NaN	3267862.7366621	3267863.25321118
54	18	0	0	90	36.1581920903955	36.241610738255	15	0.500035140104592	2	9	1	NaN	2	5	0.231494007595073	1	1	NaN	249	4	60	1	121	221	321	NaN	521	0.010351890232414	2	1	NaN	3267865.0537077	NaN	3267866.0370159	3267866.55361381
54	18	0	0	90	36.1581920903955	36.241610738255	18	0.60004216812551	2	11	1	NaN	2	4	0.231494007595073	1	1	NaN	250	4	61	1	121	221	321	NaN	521	0.232981917448342	2	1	NaN	3267867.3871653	NaN	3267868.3705167	3267868.88709008
54	18	0	0	90	36.1581920903955	36.241610738255	20	0.666713520139456	2	6	2	NaN	1	4	0.231494007595073	1	1	NaN	251	4	62	1	121	221	321	NaN	521	0.329472727142274	1	1	NaN	3267869.9540795	NaN	3267870.9374784	3267871.45402137
54	18	0	0	90	36.1581920903955	36.241610738255	12	0.400028112083674	2	2	6	NaN	1	4	0.231494007595073	1	1	NaN	252	4	63	1	121	221	321	NaN	521	0.503258617129177	1	1	NaN	3267872.6043157	NaN	3267873.587737	3267874.10426668
54	18	0	0	90	36.1581920903955	36.241610738255	23	0.766720548160374	2	3	1	NaN	1	3	0.231494007595073	1	1	NaN	253	5	1	1	121	221	321	NaN	521	0.0689003327861428	1	1	NaN	3268007.9510095	NaN	3268008.9343777	3268009.45090617
54	18	0	0	90	36.1581920903955	36.241610738255	20	0.666713520139456	2	12	1	NaN	2	5	0.231494007595073	1	1	NaN	254	5	2	1	121	221	321	NaN	521	0.0524563700892031	2	1	NaN	3268010.3512135	NaN	3268011.3345914	3268011.85113943
54	18	0	0	90	36.1581920903955	36.241610738255	19	0.633377844132483	2	2	6	NaN	1	5	0.231494007595073	1	1	NaN	255	5	3	1	121	221	321	NaN	521	0.0104658221825957	1	1	NaN	3268012.7347568	NaN	3268013.7181526	3268014.23470338
54	18	0	0	90	36.1581920903955	36.241610738255	10	0.333356760069728	2	10	3	NaN	2	4	0.231494007595073	1	1	NaN	256	5	4	1	121	221	321	NaN	521	1.23985682195053	2	1	NaN	3268015.0683176	NaN	3268016.0517195	3268016.56827128
54	18	0	0	90	36.1581920903955	36.241610738255	12	0.400028112083674	2	9	3	NaN	2	3	0.231494007595073	1	1	NaN	257	5	5	1	121	221	321	NaN	521	0.0104852700605989	2	1	NaN	3268018.6353464	NaN	3268019.6187646	3268020.13528463
54	18	0	0	90	36.1581920903955	36.241610738255	8	0.266685408055782	2	2	1	NaN	1	4	0.231494007595073	1	1	NaN	258	5	6	1	121	221	321	NaN	521	0.835005374625325	1	1	NaN	3268020.9689911	NaN	3268021.9523123	3268022.46885023
54	18	0	0	90	36.1581920903955	36.241610738255	12	0.400028112083674	2	6	4	NaN	1	5	0.231494007595073	1	1	NaN	259	5	7	1	121	221	321	NaN	521	0.43612683750689	1	1	NaN	3268024.1357455	NaN	3268025.1192656	3268025.63582766
54	18	0	0	90	36.1581920903955	36.241610738255	9	0.300021084062755	2	8	3	NaN	2	3	0.231494007595073	1	1	NaN	260	5	8	1	121	221	321	NaN	521	0.0104922223836184	2	1	NaN	3268026.9029256	NaN	3268027.8862645	3268028.40277908
54	18	0	0	90	36.1581920903955	36.241610738255	19	0.633377844132483	2	5	6	NaN	1	4	0.231494007595073	1	1	NaN	261	5	9	1	121	221	321	NaN	521	0.295773969963193	1	1	NaN	3268029.2362719	NaN	3268030.2197477	3268030.73633013
54	18	0	0	90	36.1581920903955	36.241610738255	15	0.500035140104592	2	4	1	NaN	1	5	0.231494007595073	1	1	NaN	262	5	10	1	121	221	321	NaN	521	0.502637990284711	1	1	NaN	3268031.8531695	NaN	3268032.8367192	3268033.35326431
54	18	0	0	90	36.1581920903955	36.241610738255	25	0.83339190017432	2	4	3	NaN	1	4	0.231494007595073	1	1	NaN	263	5	11	1	121	221	321	NaN	521	0.0610420699231327	1	1	NaN	3268034.6868078	NaN	3268035.6703424	3268036.18685113
54	18	0	0	90	36.1581920903955	36.241610738255	22	0.733384872153401	2	4	1	NaN	1	3	0.231494007595073	1	1	NaN	264	5	12	1	121	221	321	NaN	521	0.877447374630719	1	1	NaN	3268037.070478	NaN	3268038.0538936	3268038.57042963
54	18	0	0	90	36.1581920903955	36.241610738255	0	0	1	3	3	NaN	1	5	0.231494007595073	1	1	NaN	265	5	13	1	111	211	311	NaN	511	1.70148426992819	1	1	NaN	3268040.2708104	NaN	3268041.2541098	3268041.77075593
54	18	0	0	90	36.1581920903955	36.241610738255	17	0.566706492118537	2	3	2	NaN	1	3	0.231494007595073	1	1	NaN	266	5	14	1	121	221	321	NaN	521	0.0280909221619368	1	1	NaN	3268044.2878521	NaN	3268045.2712594	3268045.78780568
54	18	0	0	90	36.1581920903955	36.241610738255	12	0.400028112083674	2	3	1	NaN	1	4	0.231494007595073	1	1	NaN	267	5	15	1	121	221	321	NaN	521	0.0104484749026597	1	1	NaN	3268046.6380885	NaN	3268047.6214946	3268048.13803213
54	18	0	0	90	36.1581920903955	36.241610738255	23	0.766720548160374	2	2	5	NaN	1	4	0.231494007595073	1	1	NaN	268	5	16	1	121	221	321	NaN	521	0.32859172206372	1	1	NaN	3268048.9716643	NaN	3268049.9550454	3268050.47159558
54	18	0	0	90	36.1581920903955	36.241610738255	19	0.633377844132483	2	4	4	NaN	1	3	0.231494007595073	1	1	NaN	269	5	17	1	121	221	321	NaN	521	0.0104382275603712	1	1	NaN	3268051.6218016	NaN	3268052.6052946	3268053.12185847
54	18	0	0	90	36.1581920903955	36.241610738255	17	0.566706492118537	2	7	4	NaN	2	5	0.231494007595073	1	1	NaN	270	5	18	1	121	221	321	NaN	521	0.0104097323492169	1	0	NaN	3268053.955472	NaN	3268054.9388773	3268055.45541767
54	18	0	0	90	36.1581920903955	36.241610738255	9	0.300021084062755	2	1	2	NaN	1	5	0.231494007595073	1	1	NaN	271	5	19	1	121	221	321	NaN	521	0.0105366217903793	1	1	NaN	3268056.2890682	NaN	3268057.2724502	3268057.78898408
54	18	0	0	90	36.1581920903955	36.241610738255	8	0.266685408055782	2	8	6	NaN	2	4	0.231494007595073	1	1	NaN	272	5	20	1	121	221	321	NaN	521	0.101312870159745	2	1	NaN	3268058.622544	NaN	3268059.6060035	3268060.12254503
54	18	0	0	90	36.1581920903955	36.241610738255	23	0.766720548160374	2	4	6	NaN	1	3	0.231494007595073	1	1	NaN	273	5	21	1	121	221	321	NaN	521	0.0104800700210035	1	1	NaN	3268061.0393858	NaN	3268062.0228942	3268062.53943713
54	18	0	0	90	36.1581920903955	36.241610738255	9	0.300021084062755	2	2	2	NaN	1	4	0.231494007595073	1	1	NaN	274	5	22	1	121	221	321	NaN	521	0.230937021784484	1	1	NaN	3268063.3730676	NaN	3268064.3564757	3268064.87301058
54	18	0	0	90	36.1581920903955	36.241610738255	8	0.266685408055782	2	9	5	NaN	2	5	0.231494007595073	1	1	NaN	275	5	23	1	121	221	321	NaN	521	0.304787721950561	2	1	NaN	3268065.9234146	NaN	3268066.9067498	3268067.42326338
54	18	0	0	90	36.1581920903955	36.241610738255	24	0.800056224167347	2	2	5	NaN	1	5	0.231494007595073	1	1	NaN	276	5	24	1	121	221	321	NaN	521	1.42356622219086	1	1	NaN	3268068.5401214	NaN	3268069.5236426	3268070.04017768
54	18	0	0	90	36.1581920903955	36.241610738255	7	0.23334973204881	2	8	3	NaN	2	5	0.231494007595073	1	1	NaN	277	5	25	1	121	221	321	NaN	521	0.0104965176433325	2	1	NaN	3268072.2739686	NaN	3268073.2572981	3268073.77388278
54	18	0	0	90	36.1581920903955	36.241610738255	25	0.83339190017432	2	8	3	NaN	2	3	0.231494007595073	1	1	NaN	278	5	26	1	121	221	321	NaN	521	1.4125061747618	2	1	NaN	3268074.6074957	NaN	3268075.5909087	3268076.10745123
54	18	0	0	90	36.1581920903955	36.241610738255	11	0.366692436076701	2	9	6	NaN	2	5	0.231494007595073	1	1	NaN	279	5	27	1	121	221	321	NaN	521	0.830707579851151	2	1	NaN	3268078.3412247	NaN	3268079.3246297	3268079.84113962
54	18	0	0	90	36.1581920903955	36.241610738255	25	0.83339190017432	2	10	2	NaN	2	3	0.231494007595073	1	1	NaN	280	5	28	1	121	221	321	NaN	521	0.0105240121483803	2	1	NaN	3268081.4915379	NaN	3268082.474923	3268082.99144409
54	18	0	0	90	36.1581920903955	36.241610738255	18	0.60004216812551	2	9	1	NaN	2	3	0.231494007595073	1	1	NaN	281	5	29	1	121	221	321	NaN	521	0.722744837403297	2	1	NaN	3268083.8250884	NaN	3268084.8085129	3268085.32502296
54	18	0	0	90	36.1581920903955	36.241610738255	21	0.700049196146429	2	6	3	NaN	1	4	0.231494007595073	1	1	NaN	282	5	30	1	121	221	321	NaN	521	0.0105072176083922	1	1	NaN	3268090.4757268	NaN	3268091.4591412	3268091.97566338
54	18	0	0	90	36.1581920903955	36.241610738255	19	0.633377844132483	2	9	2	NaN	2	3	0.231494007595073	1	1	NaN	283	5	31	1	121	221	321	NaN	521	1.10653646988794	2	1	NaN	3268092.809291	NaN	3268093.79267	3268094.30924593
54	18	0	0	90	36.1581920903955	36.241610738255	19	0.633377844132483	2	6	2	NaN	1	4	0.231494007595073	1	1	NaN	284	5	32	1	121	221	321	NaN	521	0.11402582237497	1	1	NaN	3268096.2263029	NaN	3268097.2096979	3268097.72624978
54	18	0	0	90	36.1581920903955	36.241610738255	24	0.800056224167347	2	10	1	NaN	2	5	0.231494007595073	1	1	NaN	285	5	33	1	121	221	321	NaN	521	0.384057322051376	2	1	NaN	3268098.659753	NaN	3268099.6433616	3268100.15981158
54	18	0	0	90	36.1581920903955	36.241610738255	13	0.433363788090646	2	5	2	NaN	1	5	0.231494007595073	1	1	NaN	286	5	34	1	121	221	321	NaN	521	0.010417880024761	1	1	NaN	3268101.3767899	NaN	3268102.3602165	3268102.87673792
54	18	0	0	90	36.1581920903955	36.241610738255	9	0.300021084062755	2	8	5	NaN	2	5	0.231494007595073	1	1	NaN	287	5	35	1	121	221	321	NaN	521	0.117546869907528	2	1	NaN	3268103.7103472	NaN	3268104.6937776	3268105.21029273
54	18	0	0	90	36.1581920903955	36.241610738255	24	0.800056224167347	2	3	5	NaN	1	3	0.231494007595073	1	1	NaN	288	5	36	1	121	221	321	NaN	521	0.012044969946146	1	1	NaN	3268106.1439396	NaN	3268107.1273264	3268107.64386433
54	18	0	0	90	36.1581920903955	36.241610738255	15	0.500035140104592	2	6	3	NaN	1	3	0.231494007595073	1	1	NaN	289	5	37	1	121	221	321	NaN	521	0.0104898703284562	1	1	NaN	3268108.4773646	NaN	3268109.4609154	3268109.97743723
54	18	0	0	90	36.1581920903955	36.241610738255	19	0.633377844132483	2	6	6	NaN	1	5	0.231494007595073	1	1	NaN	290	5	38	1	121	221	321	NaN	521	0.0103427427820861	1	1	NaN	3268110.8110727	NaN	3268111.7944294	3268112.31100816
54	18	0	0	90	36.1581920903955	36.241610738255	23	0.766720548160374	2	4	1	NaN	1	4	0.231494007595073	1	1	NaN	291	5	39	1	121	221	321	NaN	521	0.0104483747854829	1	1	NaN	3268113.5779955	NaN	3268114.5613978	3268115.07793983
54	18	0	0	90	36.1581920903955	36.241610738255	21	0.700049196146429	2	5	2	NaN	1	3	0.231494007595073	1	1	NaN	292	5	40	1	121	221	321	NaN	521	0.572286674752831	1	1	NaN	3268115.9115297	NaN	3268116.8949394	3268117.41150693
54	18	0	0	90	36.1581920903955	36.241610738255	20	0.666713520139456	2	8	1	NaN	2	4	0.231494007595073	1	1	NaN	293	5	41	1	121	221	321	NaN	521	0.748102622106671	1	0	NaN	3268119.1118895	NaN	3268120.0953057	3268120.61181678
54	18	0	0	90	36.1581920903955	36.241610738255	8	0.266685408055782	2	12	1	NaN	2	4	0.231494007595073	1	1	NaN	294	5	42	1	121	221	321	NaN	521	0.0104839699342847	2	1	NaN	3268122.795439	NaN	3268123.7789736	3268124.29550833
54	18	0	0	90	36.1581920903955	36.241610738255	24	0.800056224167347	2	7	5	NaN	2	5	0.231494007595073	1	1	NaN	295	5	43	1	121	221	321	NaN	521	0.091650421731174	2	1	NaN	3268125.1123403	NaN	3268126.0958759	3268126.61240868
54	18	0	0	90	36.1581920903955	36.241610738255	12	0.400028112083674	2	10	2	NaN	2	5	0.231494007595073	1	1	NaN	296	5	44	1	121	221	321	NaN	521	1.17182294232771	2	1	NaN	3268127.6960604	NaN	3268128.6794568	3268129.19599716
54	18	0	0	90	36.1581920903955	36.241610738255	18	0.60004216812551	2	6	1	NaN	1	4	0.231494007595073	1	1	NaN	297	5	45	1	121	221	321	NaN	521	0.0103874374181032	1	1	NaN	3268131.1964183	NaN	3268132.1798149	3268132.69633276
54	18	0	0	90	36.1581920903955	36.241610738255	0	0	1	10	3	NaN	2	4	0.231494007595073	1	1	NaN	298	5	46	1	111	211	311	NaN	511	0.394000517204404	2	1	NaN	3268133.5299874	NaN	3268134.5133663	3268135.02988878
54	18	0	0	90	36.1581920903955	36.241610738255	13	0.433363788090646	2	6	6	NaN	1	4	0.231494007595073	1	1	NaN	299	5	47	1	121	221	321	NaN	521	0.141353647224605	2	0	NaN	3268136.2467422	NaN	3268137.2302967	3268137.74684445
54	18	0	0	90	36.1581920903955	36.241610738255	18	0.60004216812551	2	2	5	NaN	1	3	0.231494007595073	1	1	NaN	300	5	48	1	121	221	321	NaN	521	0.810121121816337	2	0	NaN	3268138.7137768	NaN	3268139.6972022	3268140.21373668
54	18	0	0	90	36.1581920903955	36.241610738255	9	0.300021084062755	2	12	5	NaN	2	5	0.231494007595073	1	1	NaN	301	5	49	1	121	221	321	NaN	521	0.0104934172704816	2	1	NaN	3268141.8472949	NaN	3268142.8308019	3268143.34737858
54	18	0	0	90	36.1581920903955	36.241610738255	0	0	1	5	2	NaN	1	5	0.231494007595073	1	1	NaN	302	5	50	1	111	211	311	NaN	511	0.0104816700331867	1	1	NaN	3268144.1809903	NaN	3268145.1644068	3268145.68095633
54	18	0	0	90	36.1581920903955	36.241610738255	12	0.400028112083674	2	8	3	NaN	2	4	0.231494007595073	1	1	NaN	303	5	51	1	121	221	321	NaN	521	2.36150046996772	2	1	NaN	3268146.5145663	NaN	3268147.4979729	3268148.01452213
54	18	0	0	90	36.1581920903955	36.241610738255	15	0.500035140104592	2	11	2	NaN	2	5	0.231494007595073	1	1	NaN	304	5	52	1	121	221	321	NaN	521	0.0105537697672844	2	1	NaN	3268151.2316908	NaN	3268152.2150797	3268152.73163203
54	18	0	0	90	36.1581920903955	36.241610738255	23	0.766720548160374	2	9	5	NaN	2	5	0.231494007595073	1	1	NaN	305	5	53	1	121	221	321	NaN	521	0.0104741221293807	2	1	NaN	3268153.5652792	NaN	3268154.5486814	3268155.06519978
54	18	0	0	90	36.1581920903955	36.241610738255	16	0.533370816111565	2	5	6	NaN	1	4	0.231494007595073	1	1	NaN	306	5	54	1	121	221	321	NaN	521	3.1371914902702	1	1	NaN	3268155.8988076	NaN	3268156.8822281	3268157.39876181
54	18	0	0	90	36.1581920903955	36.241610738255	17	0.566706492118537	2	1	5	NaN	1	5	0.231494007595073	1	1	NaN	307	5	55	1	121	221	321	NaN	521	0.159650169778615	1	1	NaN	3268161.5326921	NaN	3268162.5161246	3268163.03264443
54	18	0	0	90	36.1581920903955	36.241610738255	12	0.400028112083674	2	5	3	NaN	1	3	0.231494007595073	1	1	NaN	308	5	56	1	121	221	321	NaN	521	0.0104109803214669	1	1	NaN	3268165.5824266	NaN	3268166.5665206	3268167.08303632
54	18	0	0	90	36.1581920903955	36.241610738255	21	0.700049196146429	2	5	4	NaN	1	5	0.231494007595073	1	1	NaN	309	5	57	1	121	221	321	NaN	521	0.0104788700118661	1	1	NaN	3268168.5000232	NaN	3268169.4835169	3268169.99999143
54	18	0	0	90	36.1581920903955	36.241610738255	14	0.466699464097619	2	8	4	NaN	2	5	0.231494007595073	1	1	NaN	310	5	58	1	121	221	321	NaN	521	13.6343460171483	2	1	NaN	3268170.8334892	NaN	3268171.8170269	3268172.33355548
54	18	0	0	90	36.1581920903955	36.241610738255	9	0.300021084062755	2	9	4	NaN	2	5	0.231494007595073	1	1	NaN	311	5	59	1	121	221	321	NaN	521	1.43398147495463	2	1	NaN	3268187.0185577	NaN	3268188.0018623	3268188.51848343
54	18	0	0	90	36.1581920903955	36.241610738255	14	0.466699464097619	2	5	3	NaN	1	5	0.231494007595073	1	1	NaN	312	5	60	1	121	221	321	NaN	521	0.643137069884688	2	0	NaN	3268190.7689099	NaN	3268191.752295	3268192.26884093
54	18	0	0	90	36.1581920903955	36.241610738255	16	0.533370816111565	2	3	6	NaN	1	4	0.231494007595073	1	1	NaN	313	5	61	1	121	221	321	NaN	521	0.108416769653559	1	1	NaN	3268193.7358721	NaN	3268194.7192833	3268195.23580043
54	18	0	0	90	36.1581920903955	36.241610738255	25	0.83339190017432	2	5	4	NaN	1	4	0.231494007595073	1	1	NaN	314	5	62	1	121	221	321	NaN	521	0.290636422112584	1	1	NaN	3268196.169448	NaN	3268197.1528924	3268197.66937948
54	18	0	0	90	36.1581920903955	36.241610738255	8	0.266685408055782	2	10	5	NaN	2	3	0.231494007595073	1	1	NaN	315	5	63	1	121	221	321	NaN	521	0.0104697220958769	2	1	NaN	3268199.3196875	NaN	3268200.3031851	3268200.81970228
54	18	0	0	90	36.1581920903955	36.241610738255	0	0	1	2	5	NaN	1	3	0.231494007595073	1	1	NaN	316	6	1	1	111	211	311	NaN	511	0.838104827329516	1	1	NaN	3268212.6544031	NaN	3268213.637795	3268214.15433787
54	18	0	0	90	36.1581920903955	36.241610738255	11	0.366692436076701	2	10	3	NaN	2	4	0.231494007595073	1	1	NaN	317	6	2	1	121	221	321	NaN	521	0.0104827699251473	2	1	NaN	3268215.9045807	NaN	3268216.8881076	3268217.40464743
54	18	0	0	90	36.1581920903955	36.241610738255	25	0.83339190017432	2	7	3	NaN	2	3	0.231494007595073	1	1	NaN	318	6	3	1	121	221	321	NaN	521	0.190575717482716	1	0	NaN	3268218.421763	NaN	3268219.4050724	3268219.92155358
54	18	0	0	90	36.1581920903955	36.241610738255	24	0.800056224167347	2	8	1	NaN	2	3	0.231494007595073	1	1	NaN	319	6	4	1	121	221	321	NaN	521	0.0105205220170319	2	1	NaN	3268220.9385357	NaN	3268221.921949	3268222.43847908
54	18	0	0	90	36.1581920903955	36.241610738255	18	0.60004216812551	2	1	5	NaN	1	5	0.231494007595073	1	1	NaN	320	6	5	1	121	221	321	NaN	521	0.899944869801402	1	1	NaN	3268223.2719054	NaN	3268224.255513	3268224.77203493
54	18	0	0	90	36.1581920903955	36.241610738255	25	0.83339190017432	2	1	6	NaN	1	3	0.231494007595073	1	1	NaN	321	6	6	1	121	221	321	NaN	521	0.543008370324969	1	1	NaN	3268226.9891176	NaN	3268227.9725305	3268228.48907153
54	18	0	0	90	36.1581920903955	36.241610738255	7	0.23334973204881	2	12	6	NaN	2	3	0.231494007595073	1	1	NaN	322	6	7	1	121	221	321	NaN	521	0.324119070079178	2	1	NaN	3268229.8560904	NaN	3268230.8395189	3268231.35602273
54	18	0	0	90	36.1581920903955	36.241610738255	13	0.433363788090646	2	7	1	NaN	2	4	0.231494007595073	1	1	NaN	323	6	8	1	121	221	321	NaN	521	0.329882817342877	2	1	NaN	3268232.506335	NaN	3268233.4897372	3268234.00627668
54	18	0	0	90	36.1581920903955	36.241610738255	13	0.433363788090646	2	11	5	NaN	2	5	0.231494007595073	1	1	NaN	324	6	9	1	121	221	321	NaN	521	0.855558222159743	2	1	NaN	3268235.156601	NaN	3268236.140025	3268236.65654488
54	18	0	0	90	36.1581920903955	36.241610738255	24	0.800056224167347	2	5	4	NaN	1	4	0.231494007595073	1	1	NaN	325	6	10	1	121	221	321	NaN	521	0.0726997223682702	1	1	NaN	3268238.3235856	NaN	3268239.3068827	3268239.82351288
54	18	0	0	90	36.1581920903955	36.241610738255	20	0.666713520139456	2	5	1	NaN	1	3	0.231494007595073	1	1	NaN	326	6	11	1	121	221	321	NaN	521	0.0104806697927415	1	1	NaN	3268242.2738391	NaN	3268243.257397	3268243.77389643
54	18	0	0	90	36.1581920903955	36.241610738255	21	0.700049196146429	2	2	6	NaN	1	5	0.231494007595073	1	1	NaN	327	6	12	1	121	221	321	NaN	521	0.64464222220704	1	1	NaN	3268244.6075299	NaN	3268245.5909428	3268246.10747068
54	18	0	0	90	36.1581920903955	36.241610738255	16	0.533370816111565	2	5	3	NaN	1	5	0.231494007595073	1	1	NaN	328	6	13	1	121	221	321	NaN	521	1.21369337011129	1	1	NaN	3268247.5744761	NaN	3268248.5579261	3268249.07443973
54	18	0	0	90	36.1581920903955	36.241610738255	14	0.466699464097619	2	10	5	NaN	2	5	0.231494007595073	1	1	NaN	329	6	14	1	121	221	321	NaN	521	0.0480809221044183	2	1	NaN	3268251.1081909	NaN	3268252.0915565	3268252.60810428
54	18	0	0	90	36.1581920903955	36.241610738255	17	0.566706492118537	2	10	1	NaN	2	4	0.231494007595073	1	1	NaN	330	6	15	1	121	221	321	NaN	521	0.0104454751126468	1	0	NaN	3268253.4750561	NaN	3268254.4584562	3268254.97500663
54	18	0	0	90	36.1581920903955	36.241610738255	6	0.200014056041837	2	3	6	NaN	1	5	0.231494007595073	1	1	NaN	331	6	16	1	121	221	321	NaN	521	0.0104530747048557	2	0	NaN	3268255.8086362	NaN	3268256.7920435	3268257.30857413
54	18	0	0	90	36.1581920903955	36.241610738255	8	0.266685408055782	2	5	3	NaN	1	4	0.231494007595073	1	1	NaN	332	6	17	1	121	221	321	NaN	521	0.182164521887898	1	1	NaN	3268258.142206	NaN	3268259.1256485	3268259.64214568
54	18	0	0	90	36.1581920903955	36.241610738255	7	0.23334973204881	2	9	5	NaN	2	5	0.231494007595073	1	1	NaN	333	6	18	1	121	221	321	NaN	521	0.66580217005685	2	1	NaN	3268260.6423467	NaN	3268261.6258465	3268262.14238053
54	18	0	0	90	36.1581920903955	36.241610738255	11	0.366692436076701	2	1	3	NaN	1	3	0.231494007595073	1	1	NaN	334	6	19	1	121	221	321	NaN	521	0.0261679273098707	1	1	NaN	3268263.6260397	NaN	3268264.609482	3268265.12600907
54	18	0	0	90	36.1581920903955	36.241610738255	9	0.300021084062755	2	7	4	NaN	2	3	0.231494007595073	1	1	NaN	335	6	20	1	121	221	321	NaN	521	0.0999763701111078	1	0	NaN	3268265.9763013	NaN	3268266.9596881	3268267.47623553
54	18	0	0	90	36.1581920903955	36.241610738255	14	0.466699464097619	2	5	1	NaN	1	5	0.231494007595073	1	1	NaN	336	6	21	1	121	221	321	NaN	521	0.0877592223696411	1	1	NaN	3268268.8765537	NaN	3268269.8599954	3268270.37652408
54	18	0	0	90	36.1581920903955	36.241610738255	6	0.200014056041837	2	6	5	NaN	1	3	0.231494007595073	1	1	NaN	337	6	22	1	121	221	321	NaN	521	0.719504070002586	2	0	NaN	3268271.2768205	NaN	3268272.2602264	3268272.77674633
54	18	0	0	90	36.1581920903955	36.241610738255	7	0.23334973204881	2	12	1	NaN	2	3	0.231494007595073	1	1	NaN	338	6	23	1	121	221	321	NaN	521	0.0103469900786877	2	1	NaN	3268377.6373406	NaN	3268378.6206963	3268379.13720901
54	18	0	0	90	36.1581920903955	36.241610738255	16	0.533370816111565	2	3	2	NaN	1	5	0.231494007595073	1	1	NaN	339	6	24	1	121	221	321	NaN	521	0.145510622300208	1	1	NaN	3268379.9708213	NaN	3268380.9542148	3268381.47075578
54	18	0	0	90	36.1581920903955	36.241610738255	0	0	1	9	3	NaN	2	5	0.231494007595073	1	1	NaN	340	6	25	1	111	211	311	NaN	511	0.774719122331589	2	1	NaN	3268382.4377293	NaN	3268383.4211486	3268383.93766908
54	18	0	0	90	36.1581920903955	36.241610738255	20	0.666713520139456	2	7	2	NaN	2	4	0.231494007595073	1	1	NaN	341	6	26	1	121	221	321	NaN	521	0.3462163801305	2	1	NaN	3268385.5380453	NaN	3268386.5214174	3268387.03797012
54	18	0	0	90	36.1581920903955	36.241610738255	23	0.766720548160374	2	10	6	NaN	2	3	0.231494007595073	1	1	NaN	342	6	27	1	121	221	321	NaN	521	0.0104807699099183	2	1	NaN	3268388.2049723	NaN	3268389.1883618	3268389.70492003
54	18	0	0	90	36.1581920903955	36.241610738255	10	0.333356760069728	2	1	4	NaN	1	4	0.231494007595073	1	1	NaN	343	6	28	1	121	221	321	NaN	521	0.0104331276379526	1	1	NaN	3268390.5385297	NaN	3268391.5219357	3268392.03846827
54	18	0	0	90	36.1581920903955	36.241610738255	9	0.300021084062755	2	6	3	NaN	1	4	0.231494007595073	1	1	NaN	344	6	29	1	121	221	321	NaN	521	0.0105049177072942	1	1	NaN	3268392.872069	NaN	3268393.8553886	3268394.37202838
54	18	0	0	90	36.1581920903955	36.241610738255	20	0.666713520139456	2	7	5	NaN	2	3	0.231494007595073	1	1	NaN	345	6	30	1	121	221	321	NaN	521	0.39100047480315	2	1	NaN	3268395.2056463	NaN	3268396.1890512	3268396.70558763
54	18	0	0	90	36.1581920903955	36.241610738255	18	0.60004216812551	2	4	2	NaN	1	4	0.231494007595073	1	1	NaN	346	6	31	1	121	221	321	NaN	521	0.175133522134274	1	1	NaN	3268398.1892463	NaN	3268399.1726972	3268399.68921538
54	18	0	0	90	36.1581920903955	36.241610738255	22	0.733384872153401	2	11	6	NaN	2	3	0.231494007595073	1	1	NaN	347	6	32	1	121	221	321	NaN	521	0.106777784414589	2	1	NaN	3268400.68953	NaN	3268401.6729236	3268402.18946402
54	18	0	0	90	36.1581920903955	36.241610738255	10	0.333356760069728	2	9	2	NaN	2	4	0.231494007595073	1	1	NaN	348	6	33	1	121	221	321	NaN	521	0.0103986221365631	2	1	NaN	3268403.1230582	NaN	3268404.1065003	3268404.62302488
54	18	0	0	90	36.1581920903955	36.241610738255	17	0.566706492118537	2	12	2	NaN	2	5	0.231494007595073	1	1	NaN	349	6	34	1	121	221	321	NaN	521	0.0103984219022095	2	1	NaN	3268405.4399856	NaN	3268406.4233933	3268406.93992328
54	18	0	0	90	36.1581920903955	36.241610738255	19	0.633377844132483	2	8	6	NaN	2	3	0.231494007595073	1	1	NaN	350	6	35	1	121	221	321	NaN	521	0.0103783747181296	2	1	NaN	3268407.7735271	NaN	3268408.7569398	3268409.27348883
54	18	0	0	90	36.1581920903955	36.241610738255	23	0.766720548160374	2	7	1	NaN	2	3	0.231494007595073	1	1	NaN	351	6	36	1	121	221	321	NaN	521	0.0104665220715106	2	1	NaN	3268410.0904203	NaN	3268411.0738506	3268411.59038298
54	18	0	0	90	36.1581920903955	36.241610738255	17	0.566706492118537	2	2	3	NaN	1	3	0.231494007595073	1	1	NaN	352	6	37	1	121	221	321	NaN	521	0.0104949697852135	1	1	NaN	3268412.4240111	NaN	3268413.4074543	3268413.92393703
54	18	0	0	90	36.1581920903955	36.241610738255	22	0.733384872153401	2	7	1	NaN	2	4	0.231494007595073	1	1	NaN	353	6	38	1	121	221	321	NaN	521	0.0790115846320987	2	1	NaN	3268414.7575538	NaN	3268415.7409644	3268416.25751312
54	18	0	0	90	36.1581920903955	36.241610738255	11	0.366692436076701	2	7	1	NaN	2	4	0.231494007595073	1	1	NaN	354	6	39	1	121	221	321	NaN	521	0.230775122065097	1	0	NaN	3268417.1578252	NaN	3268418.1412235	3268418.65775868
54	18	0	0	90	36.1581920903955	36.241610738255	11	0.366692436076701	2	8	3	NaN	2	3	0.231494007595073	1	1	NaN	355	6	40	1	121	221	321	NaN	521	0.0103926220908761	2	1	NaN	3268419.7080938	NaN	3268420.6914466	3268421.20798868
54	18	0	0	90	36.1581920903955	36.241610738255	16	0.533370816111565	2	11	4	NaN	2	3	0.231494007595073	1	1	NaN	356	6	41	1	121	221	321	NaN	521	4.67145442217588	2	1	NaN	3268422.3249915	NaN	3268423.3083662	3268423.82491658
54	18	0	0	90	36.1581920903955	36.241610738255	6	0.200014056041837	2	4	2	NaN	1	5	0.231494007595073	1	1	NaN	357	6	42	1	121	221	321	NaN	521	0.0104961176402867	2	0	NaN	3268429.3089979	NaN	3268430.2923903	3268430.80893508
54	18	0	0	90	36.1581920903955	36.241610738255	20	0.666713520139456	2	9	1	NaN	2	4	0.231494007595073	1	1	NaN	358	6	43	1	121	221	321	NaN	521	0.0103901219554245	2	1	NaN	3268431.6425741	NaN	3268432.6259811	3268433.14248678
54	18	0	0	90	36.1581920903955	36.241610738255	10	0.333356760069728	2	2	3	NaN	1	4	0.231494007595073	1	1	NaN	359	6	44	1	121	221	321	NaN	521	0.0104677220806479	1	1	NaN	3268433.9760969	NaN	3268434.959527	3268435.47606928
54	18	0	0	90	36.1581920903955	36.241610738255	23	0.766720548160374	2	12	5	NaN	2	3	0.231494007595073	1	1	NaN	360	6	45	1	121	221	321	NaN	521	3.93469172203913	2	1	NaN	3268436.309692	NaN	3268437.2931016	3268437.80963708
54	18	0	0	90	36.1581920903955	36.241610738255	9	0.300021084062755	2	11	6	NaN	2	3	0.231494007595073	1	1	NaN	361	6	46	1	121	221	321	NaN	521	0.0105051174759865	2	1	NaN	3268442.5603008	NaN	3268443.5436965	3268444.06024288
54	18	0	0	90	36.1581920903955	36.241610738255	7	0.23334973204881	2	3	4	NaN	1	5	0.231494007595073	1	1	NaN	362	6	47	1	121	221	321	NaN	521	0.0104132327251136	1	1	NaN	3268444.8938436	NaN	3268445.8772809	3268446.39380337
54	18	0	0	90	36.1581920903955	36.241610738255	16	0.533370816111565	2	10	5	NaN	2	3	0.231494007595073	1	1	NaN	363	6	48	1	121	221	321	NaN	521	0.137067064642906	2	1	NaN	3268447.22743	NaN	3268448.2108933	3268448.72735254
54	18	0	0	90	36.1581920903955	36.241610738255	24	0.800056224167347	2	12	3	NaN	2	3	0.231494007595073	1	1	NaN	364	6	49	1	121	221	321	NaN	521	0.222190075088292	1	0	NaN	3268449.6943255	NaN	3268450.6777493	3268451.19427283
54	18	0	0	90	36.1581920903955	36.241610738255	11	0.366692436076701	2	5	5	NaN	1	5	0.231494007595073	1	1	NaN	365	6	50	1	121	221	321	NaN	521	0.600874070078135	1	1	NaN	3268452.227805	NaN	3268453.2112796	3268453.72785053
54	18	0	0	90	36.1581920903955	36.241610738255	15	0.500035140104592	2	8	1	NaN	2	4	0.231494007595073	1	1	NaN	366	6	51	1	121	221	321	NaN	521	0.0104831703938544	2	1	NaN	3268455.1447291	NaN	3268456.1282665	3268456.64479973
54	18	0	0	90	36.1581920903955	36.241610738255	14	0.466699464097619	2	6	4	NaN	1	4	0.231494007595073	1	1	NaN	367	6	52	1	121	221	321	NaN	521	0.0104622221551836	1	1	NaN	3268457.4784069	NaN	3268458.4618298	3268458.97836408
54	18	0	0	90	36.1581920903955	36.241610738255	13	0.433363788090646	2	12	3	NaN	2	3	0.231494007595073	1	1	NaN	368	6	53	1	121	221	321	NaN	521	0.0104528749361634	2	1	NaN	3268459.8119738	NaN	3268460.795495	3268461.31193423
54	18	0	0	90	36.1581920903955	36.241610738255	10	0.333356760069728	2	11	2	NaN	2	5	0.231494007595073	1	1	NaN	369	6	54	1	121	221	321	NaN	521	0.0104972217231989	2	1	NaN	3268462.7955018	NaN	3268463.7790278	3268464.29555518
54	18	0	0	90	36.1581920903955	36.241610738255	22	0.733384872153401	2	10	2	NaN	2	5	0.231494007595073	1	1	NaN	370	6	55	1	121	221	321	NaN	521	0.139308869838715	2	1	NaN	3268465.129201	NaN	3268466.1125993	3268466.62911143
54	18	0	0	90	36.1581920903955	36.241610738255	18	0.60004216812551	2	9	6	NaN	2	4	0.231494007595073	1	1	NaN	371	6	56	1	121	221	321	NaN	521	0.376755784731358	2	1	NaN	3268467.596092	NaN	3268468.5795028	3268469.09602552
54	18	0	0	90	36.1581920903955	36.241610738255	22	0.733384872153401	2	6	5	NaN	1	3	0.231494007595073	1	1	NaN	372	6	57	1	121	221	321	NaN	521	0.053297427482903	1	1	NaN	3268471.4631099	NaN	3268472.4465541	3268472.96307867
54	18	0	0	90	36.1581920903955	36.241610738255	20	0.666713520139456	2	2	3	NaN	1	5	0.231494007595073	1	1	NaN	373	6	58	1	121	221	321	NaN	521	0.0104834698140621	1	1	NaN	3268473.830043	NaN	3268474.8134379	3268475.32997443
54	18	0	0	90	36.1581920903955	36.241610738255	14	0.466699464097619	2	10	5	NaN	2	3	0.231494007595073	1	1	NaN	374	6	59	1	121	221	321	NaN	521	1.3160840747878	2	1	NaN	3268476.2969346	NaN	3268477.2803712	3268477.79687883
54	18	0	0	90	36.1581920903955	36.241610738255	15	0.500035140104592	2	11	3	NaN	2	4	0.231494007595073	1	1	NaN	375	6	60	1	121	221	321	NaN	521	0.0104659218341112	2	1	NaN	3268479.9306517	NaN	3268480.914044	3268481.43058468
54	18	0	0	90	36.1581920903955	36.241610738255	11	0.366692436076701	2	11	1	NaN	2	3	0.231494007595073	1	1	NaN	376	6	61	1	121	221	321	NaN	521	0.868659275118262	2	1	NaN	3268482.2642998	NaN	3268483.2476063	3268483.76412833
54	18	0	0	90	36.1581920903955	36.241610738255	0	0	1	12	2	NaN	2	4	0.231494007595073	1	1	NaN	377	6	62	1	111	211	311	NaN	511	0.0199680747464299	2	1	NaN	3268485.4645191	NaN	3268486.4479045	3268486.96444713
54	18	0	0	90	36.1581920903955	36.241610738255	12	0.400028112083674	2	8	4	NaN	2	4	0.231494007595073	1	1	NaN	378	6	63	1	121	221	321	NaN	521	0.117859579622746	2	1	NaN	3268487.8147214	NaN	3268488.7981537	3268489.31468272
54	18	0	0	90	36.1581920903955	36.241610738255	16	0.533370816111565	2	2	4	NaN	1	4	0.231494007595073	1	1	NaN	379	7	1	1	121	221	321	NaN	521	0.748141074553132	2	0	NaN	3268494.4487382	NaN	3268495.432105	3268495.94866363
54	18	0	0	90	36.1581920903955	36.241610738255	24	0.800056224167347	2	9	6	NaN	2	4	0.231494007595073	1	1	NaN	380	7	2	1	121	221	321	NaN	521	0.0104527221992612	2	1	NaN	3268497.5157335	NaN	3268498.4991087	3268499.01562488
54	18	0	0	90	36.1581920903955	36.241610738255	15	0.500035140104592	2	10	4	NaN	2	3	0.231494007595073	1	1	NaN	381	7	3	1	121	221	321	NaN	521	5.45926286978647	1	0	NaN	3268499.8492603	NaN	3268500.8326463	3268501.34919143
54	18	0	0	90	36.1581920903955	36.241610738255	15	0.500035140104592	2	7	1	NaN	2	4	0.231494007595073	1	1	NaN	382	7	4	1	121	221	321	NaN	521	0.0105023174546659	2	1	NaN	3268507.6333582	NaN	3268508.6167809	3268509.13328448
54	18	0	0	90	36.1581920903955	36.241610738255	6	0.200014056041837	2	7	5	NaN	2	4	0.231494007595073	1	1	NaN	383	7	5	1	121	221	321	NaN	521	0.893716321792454	2	1	NaN	3268509.9668612	NaN	3268510.9503214	3268511.46685908
54	18	0	0	90	36.1581920903955	36.241610738255	25	0.83339190017432	2	7	2	NaN	2	5	0.231494007595073	1	1	NaN	384	7	6	1	121	221	321	NaN	521	0.668792821932584	2	1	NaN	3268513.183874	NaN	3268514.1672983	3268514.68383348
54	18	0	0	90	36.1581920903955	36.241610738255	21	0.700049196146429	2	10	6	NaN	2	5	0.231494007595073	1	1	NaN	385	7	7	1	121	221	321	NaN	521	0.0103767747059464	2	1	NaN	3268516.6341536	NaN	3268517.6176532	3268518.13416803
54	18	0	0	90	36.1581920903955	36.241610738255	19	0.633377844132483	2	4	2	NaN	1	4	0.231494007595073	1	1	NaN	386	7	8	1	121	221	321	NaN	521	2.63151227030903	2	0	NaN	3268519.7011447	NaN	3268520.684606	3268521.20114483
54	18	0	0	90	36.1581920903955	36.241610738255	10	0.333356760069728	2	4	6	NaN	1	4	0.231494007595073	1	1	NaN	387	7	9	1	121	221	321	NaN	521	0.0104700224474072	1	1	NaN	3268524.651699	NaN	3268525.6350842	3268526.15163548
54	18	0	0	90	36.1581920903955	36.241610738255	14	0.466699464097619	2	7	3	NaN	2	3	0.231494007595073	1	1	NaN	388	7	10	1	121	221	321	NaN	521	1.5233892747201	1	0	NaN	3268526.985239	NaN	3268527.9686707	3268528.48519643
54	18	0	0	90	36.1581920903955	36.241610738255	13	0.433363788090646	2	5	1	NaN	1	4	0.231494007595073	1	1	NaN	389	7	11	1	121	221	321	NaN	521	0.0896940119564533	1	1	NaN	3268530.8189682	NaN	3268531.8023518	3268532.31889389
54	18	0	0	90	36.1581920903955	36.241610738255	16	0.533370816111565	2	2	4	NaN	1	3	0.231494007595073	1	1	NaN	390	7	12	1	121	221	321	NaN	521	0.0104102701880038	1	1	NaN	3268533.219212	NaN	3268534.2026121	3268534.71912923
54	18	0	0	90	36.1581920903955	36.241610738255	13	0.433363788090646	2	1	1	NaN	1	5	0.231494007595073	1	1	NaN	391	7	13	1	121	221	321	NaN	521	0.148914322257042	1	1	NaN	3268535.5360685	NaN	3268536.5194878	3268537.03603168
54	18	0	0	90	36.1581920903955	36.241610738255	24	0.800056224167347	2	9	3	NaN	2	5	0.231494007595073	1	1	NaN	392	7	14	1	121	221	321	NaN	521	0.113875870127231	1	0	NaN	3268538.0028934	NaN	3268538.9863786	3268539.50292933
54	18	0	0	90	36.1581920903955	36.241610738255	8	0.266685408055782	2	1	4	NaN	1	4	0.231494007595073	1	1	NaN	393	7	15	1	121	221	321	NaN	521	0.0104654221795499	1	1	NaN	3268540.4365709	NaN	3268541.4199568	3268541.93653368
54	18	0	0	90	36.1581920903955	36.241610738255	17	0.566706492118537	2	5	5	NaN	1	4	0.231494007595073	1	1	NaN	394	7	16	1	121	221	321	NaN	521	0.0104448748752475	1	1	NaN	3268542.769959	NaN	3268543.7535629	3268544.27006683
54	18	0	0	90	36.1581920903955	36.241610738255	19	0.633377844132483	2	2	6	NaN	1	3	0.231494007595073	1	1	NaN	395	7	17	1	121	221	321	NaN	521	0.0104629220440984	1	1	NaN	3268545.3703838	NaN	3268546.3538503	3268546.87033168
54	18	0	0	90	36.1581920903955	36.241610738255	19	0.633377844132483	2	3	1	NaN	1	3	0.231494007595073	1	1	NaN	396	7	18	1	121	221	321	NaN	521	0.286727117374539	1	1	NaN	3268547.8539376	NaN	3268548.8373808	3268549.35390568
54	18	0	0	90	36.1581920903955	36.241610738255	13	0.433363788090646	2	2	3	NaN	1	4	0.231494007595073	1	1	NaN	397	7	19	1	121	221	321	NaN	521	0.0104116699658334	1	1	NaN	3268551.08758	NaN	3268552.0710157	3268552.58757053
54	18	0	0	90	36.1581920903955	36.241610738255	20	0.666713520139456	2	5	6	NaN	1	4	0.231494007595073	1	1	NaN	398	7	20	1	121	221	321	NaN	521	0.689682370051742	1	1	NaN	3268554.1712156	NaN	3268555.1546369	3268555.67118603
54	18	0	0	90	36.1581920903955	36.241610738255	21	0.700049196146429	2	8	2	NaN	2	4	0.231494007595073	1	1	NaN	399	7	21	1	121	221	321	NaN	521	0.968772927299142	2	1	NaN	3268557.1882252	NaN	3268558.1716447	3268558.68815267
54	18	0	0	90	36.1581920903955	36.241610738255	12	0.400028112083674	2	11	3	NaN	2	5	0.231494007595073	1	1	NaN	400	7	22	1	121	221	321	NaN	521	0.292056422214955	1	0	NaN	3268560.4885524	NaN	3268561.4719383	3268561.98848798
54	18	0	0	90	36.1581920903955	36.241610738255	9	0.300021084062755	2	3	1	NaN	1	5	0.231494007595073	1	1	NaN	401	7	23	1	121	221	321	NaN	521	0.195225575007498	1	1	NaN	3268563.1054579	NaN	3268564.0888945	3268564.60540143
54	18	0	0	90	36.1581920903955	36.241610738255	8	0.266685408055782	2	3	1	NaN	1	4	0.231494007595073	1	1	NaN	402	7	24	1	121	221	321	NaN	521	0.0104933176189661	1	1	NaN	3268566.5391295	NaN	3268567.5225283	3268568.03907418
54	18	0	0	90	36.1581920903955	36.241610738255	6	0.200014056041837	2	3	5	NaN	1	3	0.231494007595073	1	1	NaN	403	7	25	1	121	221	321	NaN	521	0.0104424697346985	1	1	NaN	3268569.2894668	NaN	3268570.272832	3268570.78939393
54	18	0	0	90	36.1581920903955	36.241610738255	17	0.566706492118537	2	3	4	NaN	1	4	0.231494007595073	1	1	NaN	404	7	26	1	121	221	321	NaN	521	0.0297237699851394	1	1	NaN	3268571.6229199	NaN	3268572.6064174	3268573.12289973
54	18	0	0	90	36.1581920903955	36.241610738255	25	0.83339190017432	2	6	5	NaN	1	5	0.231494007595073	1	1	NaN	405	7	27	1	121	221	321	NaN	521	0.0105123175308108	1	1	NaN	3268573.9730406	NaN	3268574.9566173	3268575.47313148
54	18	0	0	90	36.1581920903955	36.241610738255	24	0.800056224167347	2	8	6	NaN	2	4	0.231494007595073	1	1	NaN	406	7	28	1	121	221	321	NaN	521	0.338223021943122	1	0	NaN	3268576.3066662	NaN	3268577.2901959	3268577.80670288
54	18	0	0	90	36.1581920903955	36.241610738255	10	0.333356760069728	2	5	6	NaN	1	4	0.231494007595073	1	1	NaN	407	7	29	1	121	221	321	NaN	521	0.0104142702184618	1	1	NaN	3268579.5404226	NaN	3268580.523819	3268581.04034983
54	18	0	0	90	36.1581920903955	36.241610738255	14	0.466699464097619	2	12	4	NaN	2	4	0.231494007595073	1	1	NaN	408	7	30	1	121	221	321	NaN	521	0.0104919173754752	2	1	NaN	3268581.8739583	NaN	3268582.8573779	3268583.37390548
54	18	0	0	90	36.1581920903955	36.241610738255	23	0.766720548160374	2	11	6	NaN	2	5	0.231494007595073	1	1	NaN	409	7	31	1	121	221	321	NaN	521	0.205138769932091	1	0	NaN	3268584.2075491	NaN	3268585.1909111	3268585.70747253
54	18	0	0	90	36.1581920903955	36.241610738255	10	0.333356760069728	2	6	6	NaN	1	5	0.231494007595073	1	1	NaN	410	7	32	1	121	221	321	NaN	521	0.0955310221761465	1	1	NaN	3268586.7411231	NaN	3268587.7243943	3268588.24107618
54	18	0	0	90	36.1581920903955	36.241610738255	15	0.500035140104592	2	3	3	NaN	1	3	0.231494007595073	1	1	NaN	411	7	33	1	121	221	321	NaN	521	0.0104465750046074	1	1	NaN	3268589.1580327	NaN	3268590.1414321	3268590.65797353
54	18	0	0	90	36.1581920903955	36.241610738255	24	0.800056224167347	2	2	3	NaN	1	5	0.231494007595073	1	1	NaN	412	7	34	1	121	221	321	NaN	521	0.129047069698572	1	1	NaN	3268591.4916061	NaN	3268592.4749886	3268592.99152183
54	18	0	0	90	36.1581920903955	36.241610738255	12	0.400028112083674	2	1	3	NaN	1	5	0.231494007595073	1	1	NaN	413	7	35	1	121	221	321	NaN	521	0.0103821745142341	1	1	NaN	3268593.9418203	NaN	3268594.9252329	3268595.44177913
54	18	0	0	90	36.1581920903955	36.241610738255	7	0.23334973204881	2	5	1	NaN	1	4	0.231494007595073	1	1	NaN	414	7	36	1	121	221	321	NaN	521	0.0973050901666284	1	1	NaN	3268596.2753636	NaN	3268597.2587778	3268597.77532361
54	18	0	0	90	36.1581920903955	36.241610738255	15	0.500035140104592	2	9	5	NaN	2	5	0.231494007595073	1	1	NaN	415	7	37	1	121	221	321	NaN	521	1.24042437458411	2	1	NaN	3268598.6922892	NaN	3268599.6757171	3268600.19222923
54	18	0	0	90	36.1581920903955	36.241610738255	23	0.766720548160374	2	2	6	NaN	1	5	0.231494007595073	1	1	NaN	416	7	38	1	121	221	321	NaN	521	0.0104491747915745	1	1	NaN	3268605.8430122	NaN	3268606.8264113	3268607.34292903
54	18	0	0	90	36.1581920903955	36.241610738255	7	0.23334973204881	2	1	1	NaN	1	3	0.231494007595073	1	1	NaN	417	7	39	1	121	221	321	NaN	521	0.01022810023278	1	1	NaN	3268609.0766603	NaN	3268610.0600385	3268610.576598
54	18	0	0	90	36.1581920903955	36.241610738255	22	0.733384872153401	2	1	4	NaN	1	3	0.231494007595073	1	1	NaN	418	7	40	1	121	221	321	NaN	521	0.010398022364825	1	1	NaN	3268611.4102164	NaN	3268612.3936429	3268612.91014308
54	18	0	0	90	36.1581920903955	36.241610738255	22	0.733384872153401	2	2	1	NaN	1	4	0.231494007595073	1	1	NaN	419	7	41	1	121	221	321	NaN	521	0.0874759000726044	1	1	NaN	3268615.0772157	NaN	3268616.060623	3268616.5771914
54	18	0	0	90	36.1581920903955	36.241610738255	17	0.566706492118537	2	5	2	NaN	1	3	0.231494007595073	1	1	NaN	420	7	42	1	121	221	321	NaN	521	1.72722941776738	1	1	NaN	3268617.4774794	NaN	3268618.4608709	3268618.97740468
54	18	0	0	90	36.1581920903955	36.241610738255	13	0.433363788090646	2	9	3	NaN	2	4	0.231494007595073	1	1	NaN	421	7	43	1	121	221	321	NaN	521	1.99689751723781	2	1	NaN	3268621.5278813	NaN	3268622.5112801	3268623.02780908
54	18	0	0	90	36.1581920903955	36.241610738255	22	0.733384872153401	2	9	2	NaN	2	5	0.231494007595073	1	1	NaN	422	7	44	1	121	221	321	NaN	521	0.17584742186591	2	1	NaN	3268625.8449614	NaN	3268626.828371	3268627.34489918
54	18	0	0	90	36.1581920903955	36.241610738255	13	0.433363788090646	2	10	6	NaN	2	4	0.231494007595073	1	1	NaN	423	7	45	1	121	221	321	NaN	521	1.12357872212306	2	1	NaN	3268628.3452141	NaN	3268629.3285964	3268629.84513958
54	18	0	0	90	36.1581920903955	36.241610738255	23	0.766720548160374	2	8	4	NaN	2	5	0.231494007595073	1	1	NaN	424	7	46	1	121	221	321	NaN	521	0.233245921786875	2	1	NaN	3268631.7954628	NaN	3268632.7789638	3268633.29548238
54	18	0	0	90	36.1581920903955	36.241610738255	14	0.466699464097619	2	7	4	NaN	2	5	0.231494007595073	1	1	NaN	425	7	47	1	121	221	321	NaN	521	0.0540852220728993	2	1	NaN	3268635.6625145	NaN	3268636.6459753	3268637.16252398
54	18	0	0	90	36.1581920903955	36.241610738255	21	0.700049196146429	2	7	6	NaN	2	5	0.231494007595073	1	1	NaN	426	7	48	1	121	221	321	NaN	521	0.0105509697459638	2	1	NaN	3268638.0461828	NaN	3268639.0295753	3268639.54609723
54	18	0	0	90	36.1581920903955	36.241610738255	24	0.800056224167347	2	1	4	NaN	1	4	0.231494007595073	1	1	NaN	427	7	49	1	121	221	321	NaN	521	0.0836781174875796	2	0	NaN	3268641.3131354	NaN	3268642.2965273	3268642.81307948
54	18	0	0	90	36.1581920903955	36.241610738255	11	0.366692436076701	2	3	3	NaN	1	3	0.231494007595073	1	1	NaN	428	7	50	1	121	221	321	NaN	521	0.915358290076256	1	1	NaN	3268643.7133405	NaN	3268644.6967921	3268645.21332231
54	18	0	0	90	36.1581920903955	36.241610738255	0	0	1	11	4	NaN	2	4	0.231494007595073	1	1	NaN	429	7	51	1	111	211	311	NaN	511	2.54775513708591	1	0	NaN	3268647.8971237	NaN	3268648.88054	3268649.39705816
54	18	0	0	90	36.1581920903955	36.241610738255	17	0.566706492118537	2	4	2	NaN	1	5	0.231494007595073	1	1	NaN	430	7	52	1	121	221	321	NaN	521	3.68844699021429	2	0	NaN	3268652.7642717	NaN	3268653.7476455	3268654.26420551
54	18	0	0	90	36.1581920903955	36.241610738255	7	0.23334973204881	2	11	4	NaN	2	3	0.231494007595073	1	1	NaN	431	7	53	1	121	221	321	NaN	521	0.0104952175170183	2	1	NaN	3268658.7815187	NaN	3268659.7649103	3268660.28146428
54	18	0	0	90	36.1581920903955	36.241610738255	23	0.766720548160374	2	1	6	NaN	1	5	0.231494007595073	1	1	NaN	432	7	54	1	121	221	321	NaN	521	0.010442222468555	1	1	NaN	3268661.1150278	NaN	3268662.0984959	3268662.61502208
54	18	0	0	90	36.1581920903955	36.241610738255	9	0.300021084062755	2	1	3	NaN	1	4	0.231494007595073	1	1	NaN	433	7	55	1	121	221	321	NaN	521	0.492129517253488	1	1	NaN	3268663.4486566	NaN	3268664.4320692	3268664.94858578
54	18	0	0	90	36.1581920903955	36.241610738255	18	0.60004216812551	2	10	1	NaN	2	4	0.231494007595073	1	1	NaN	434	7	56	1	121	221	321	NaN	521	0.595243270043284	2	1	NaN	3268666.2656686	NaN	3268667.2489779	3268667.76553323
54	18	0	0	90	36.1581920903955	36.241610738255	19	0.633377844132483	2	10	4	NaN	2	3	0.231494007595073	1	1	NaN	435	7	57	1	121	221	321	NaN	521	0.726206622086465	2	1	NaN	3268669.182574	NaN	3268670.1659785	3268670.68248278
54	18	0	0	90	36.1581920903955	36.241610738255	11	0.366692436076701	2	2	6	NaN	1	5	0.231494007595073	1	1	NaN	436	7	58	1	121	221	321	NaN	521	0.0103287473320961	1	1	NaN	3268673.9494973	NaN	3268674.9330776	3268675.44963935
54	18	0	0	90	36.1581920903955	36.241610738255	12	0.400028112083674	2	1	1	NaN	1	3	0.231494007595073	1	1	NaN	437	7	59	1	121	221	321	NaN	521	0.351144321728498	1	1	NaN	3268676.5499206	NaN	3268677.5333167	3268678.04988368
54	18	0	0	90	36.1581920903955	36.241610738255	19	0.633377844132483	2	3	4	NaN	1	5	0.231494007595073	1	1	NaN	438	7	60	1	121	221	321	NaN	521	0.271626800298691	1	1	NaN	3268682.7171779	NaN	3268683.7006168	3268684.2171638
54	18	0	0	90	36.1581920903955	36.241610738255	17	0.566706492118537	2	9	4	NaN	2	3	0.231494007595073	1	1	NaN	439	7	61	1	121	221	321	NaN	521	0.0426889699883759	2	1	NaN	3268685.4341309	NaN	3268686.4175832	3268686.93408943
54	18	0	0	90	36.1581920903955	36.241610738255	6	0.200014056041837	2	4	2	NaN	1	3	0.231494007595073	1	1	NaN	440	7	62	1	121	221	321	NaN	521	0.0104745700955391	1	1	NaN	3268687.8010538	NaN	3268688.7844715	3268689.30096913
54	18	0	0	90	36.1581920903955	36.241610738255	17	0.566706492118537	2	9	5	NaN	2	5	0.231494007595073	1	1	NaN	441	7	63	1	121	221	321	NaN	521	2.39822293724865	2	1	NaN	3268690.1346104	NaN	3268691.1180417	3268691.63455066
54	18	0	0	90	36.1581920903955	36.241610738255	21	0.700049196146429	2	7	6	NaN	2	5	0.231494007595073	1	1	NaN	442	8	1	1	121	221	321	NaN	521	0.0629231221973896	2	1	NaN	3268709.6697657	NaN	3268710.6532424	3268711.16979088
54	18	0	0	90	36.1581920903955	36.241610738255	22	0.733384872153401	2	1	2	NaN	1	5	0.231494007595073	1	1	NaN	443	8	2	1	121	221	321	NaN	521	0.0104837217368186	1	1	NaN	3268714.987049	NaN	3268715.9704652	3268716.48698748
54	18	0	0	90	36.1581920903955	36.241610738255	13	0.433363788090646	2	9	6	NaN	2	3	0.231494007595073	1	1	NaN	444	8	3	1	121	221	321	NaN	521	0.0104849701747298	2	1	NaN	3268717.3204636	NaN	3268718.3040546	3268718.82053923
54	18	0	0	90	36.1581920903955	36.241610738255	18	0.60004216812551	2	8	1	NaN	2	3	0.231494007595073	1	1	NaN	445	8	4	1	121	221	321	NaN	521	1.59074178012088	2	1	NaN	3268719.6541681	NaN	3268720.6375855	3268721.15410432
54	18	0	0	90	36.1581920903955	36.241610738255	13	0.433363788090646	2	8	2	NaN	2	4	0.231494007595073	1	1	NaN	446	8	5	1	121	221	321	NaN	521	0.0104131698608398	2	1	NaN	3268723.5711164	NaN	3268724.5546122	3268725.07115443
54	18	0	0	90	36.1581920903955	36.241610738255	9	0.300021084062755	2	10	6	NaN	2	5	0.231494007595073	1	1	NaN	447	8	6	1	121	221	321	NaN	521	0.0514758173376322	2	1	NaN	3268726.321362	NaN	3268727.3048908	3268727.82141888
54	18	0	0	90	36.1581920903955	36.241610738255	12	0.400028112083674	2	12	6	NaN	2	4	0.231494007595073	1	1	NaN	448	8	7	1	121	221	321	NaN	521	0.0104557224549353	2	1	NaN	3268728.6883964	NaN	3268729.671769	3268730.18832538
54	18	0	0	90	36.1581920903955	36.241610738255	23	0.766720548160374	2	9	4	NaN	2	4	0.231494007595073	1	1	NaN	449	8	8	1	121	221	321	NaN	521	0.0104644219391048	2	1	NaN	3268731.0053234	NaN	3268731.988679	3268732.50521488
54	18	0	0	90	36.1581920903955	36.241610738255	6	0.200014056041837	2	2	4	NaN	1	5	0.231494007595073	1	1	NaN	450	8	9	1	121	221	321	NaN	521	0.41045647021383	1	1	NaN	3268733.3388329	NaN	3268734.3221095	3268734.83877673
54	18	0	0	90	36.1581920903955	36.241610738255	22	0.733384872153401	2	5	4	NaN	1	5	0.231494007595073	1	1	NaN	451	8	10	1	121	221	321	NaN	521	0.444433122407645	1	1	NaN	3268736.0724271	NaN	3268737.0558475	3268737.57239888
54	18	0	0	90	36.1581920903955	36.241610738255	14	0.466699464097619	2	8	4	NaN	2	3	0.231494007595073	1	1	NaN	452	8	11	1	121	221	321	NaN	521	0.0105230598710477	2	1	NaN	3268738.8393875	NaN	3268739.8228285	3268740.33931294
54	18	0	0	90	36.1581920903955	36.241610738255	19	0.633377844132483	2	1	2	NaN	1	5	0.231494007595073	1	1	NaN	453	8	12	1	121	221	321	NaN	521	0.0480308220721781	1	1	NaN	3268741.1729513	NaN	3268742.1563415	3268742.67287928
54	18	0	0	90	36.1581920903955	36.241610738255	19	0.633377844132483	2	8	4	NaN	2	3	0.231494007595073	1	1	NaN	454	8	13	1	121	221	321	NaN	521	2.67340332223102	1	0	NaN	3268743.5398473	NaN	3268744.5232506	3268745.03978188
54	18	0	0	90	36.1581920903955	36.241610738255	8	0.266685408055782	2	6	3	NaN	1	4	0.231494007595073	1	1	NaN	455	8	14	1	121	221	321	NaN	521	2.2892418699339	1	1	NaN	3268748.5236731	NaN	3268749.507073	3268750.02359903
54	18	0	0	90	36.1581920903955	36.241610738255	23	0.766720548160374	2	7	3	NaN	2	5	0.231494007595073	1	1	NaN	456	8	15	1	121	221	321	NaN	521	0.168322822079062	1	0	NaN	3268753.1406557	NaN	3268754.1241664	3268754.64072668
54	18	0	0	90	36.1581920903955	36.241610738255	25	0.83339190017432	2	1	5	NaN	1	3	0.231494007595073	1	1	NaN	457	8	16	1	121	221	321	NaN	521	0.140030722133815	1	1	NaN	3268755.6410504	NaN	3268756.6244358	3268757.14096698
54	18	0	0	90	36.1581920903955	36.241610738255	12	0.400028112083674	2	4	3	NaN	1	4	0.231494007595073	1	1	NaN	458	8	17	1	121	221	321	NaN	521	0.0104279173538089	1	1	NaN	3268758.1079379	NaN	3268759.0913639	3268759.60787628
54	18	0	0	90	36.1581920903955	36.241610738255	16	0.533370816111565	2	8	5	NaN	2	3	0.231494007595073	1	1	NaN	459	8	18	1	121	221	321	NaN	521	0.0103909224271774	2	1	NaN	3268760.4246942	NaN	3268761.4082392	3268761.92477528
