subjno	age	gender	isPractice	viewdist	CmToPixX	CmToPixY	SOA_frm	SOA_time	targNum	targID	targExample	targRace	targGender	firstTargPos	contrast	familiarity	curr_staircase	iStair	TrialNum	BlockNum	blktrl	sessionNum	TC_FIXATION	TC_RSVP_START	TC_RSVP_END	TC_BLANK	TC_RESPONSE_ONSET	RT2afc	resp_2afc	acc	RSVPOnsetVBL	RSVPOnsetTime	RSVPOffsetVBL	RSVPOffsetTime	startrt_2afc
29	19	0	0	90	36.1581920903955	36.241610738255	13	0.433378660082817	2	10	4	NaN	2	3	0.466906167261505	1	1	NaN	1	1	1	2	121	221	321	NaN	521	0.537948680575937	2	1	NaN	3979668.3062158	NaN	3979669.2895167	3979669.82261302
29	19	0	0	90	36.1581920903955	36.241610738255	16	0.533389120101929	2	1	5	NaN	1	5	0.466906167261505	1	1	NaN	2	1	2	2	121	221	321	NaN	521	1.09291524393484	1	1	NaN	3979671.2231481	NaN	3979672.2064804	3979672.73956796
29	19	0	0	90	36.1581920903955	36.241610738255	10	0.333368200063705	2	4	5	NaN	1	3	0.466906167261505	1	1	NaN	3	1	3	2	121	221	321	NaN	521	0.859317828435451	1	1	NaN	3979674.656626	NaN	3979675.6400219	3979676.17322857
29	19	0	0	90	36.1581920903955	36.241610738255	13	0.433378660082817	2	6	1	NaN	1	4	0.466906167261505	1	1	NaN	4	1	4	2	121	221	321	NaN	521	0.700054576154798	2	0	NaN	3979677.8569324	NaN	3979678.8403094	3979679.35688192
29	19	0	0	90	36.1581920903955	36.241610738255	18	0.60006276011467	2	9	4	NaN	2	4	0.466906167261505	1	1	NaN	5	1	5	2	121	221	321	NaN	521	0.274563376326114	2	1	NaN	3979680.8739699	NaN	3979681.8572808	3979682.37383802
29	19	0	0	90	36.1581920903955	36.241610738255	12	0.400041840076447	2	9	6	NaN	2	5	0.466906167261505	1	1	NaN	6	1	6	2	121	221	321	NaN	521	0.0342771760188043	2	1	NaN	3979683.4741588	NaN	3979684.457549	3979684.97409242
29	19	0	0	90	36.1581920903955	36.241610738255	20	0.666736400127411	2	4	6	NaN	1	3	0.466906167261505	1	1	NaN	7	1	7	2	121	221	321	NaN	521	0.500536828301847	2	0	NaN	3979685.8243475	NaN	3979686.8077793	3979687.32433127
29	19	0	0	90	36.1581920903955	36.241610738255	10	0.333368200063705	2	7	3	NaN	2	4	0.466906167261505	1	1	NaN	8	1	8	2	121	221	321	NaN	521	0.687959176022559	2	1	NaN	3979688.7246602	NaN	3979689.708084	3979690.22460852
29	19	0	0	90	36.1581920903955	36.241610738255	8	0.266694560050964	2	1	3	NaN	1	3	0.466906167261505	1	1	NaN	9	1	9	2	121	221	321	NaN	521	0.0709906760603189	1	1	NaN	3979691.7416416	NaN	3979692.7250317	3979693.24156962
29	19	0	0	90	36.1581920903955	36.241610738255	12	0.400041840076447	2	3	6	NaN	1	3	0.466906167261505	1	1	NaN	10	1	10	2	121	221	321	NaN	521	0.247372628189623	1	1	NaN	3979694.1252067	NaN	3979695.1086028	3979695.62514867
29	19	0	0	90	36.1581920903955	36.241610738255	22	0.733410040140152	2	8	1	NaN	2	3	0.466906167261505	1	1	NaN	11	1	11	2	121	221	321	NaN	521	0.256489876192063	2	1	NaN	3979696.6921247	NaN	3979697.6755449	3979698.19205682
29	19	0	0	90	36.1581920903955	36.241610738255	22	0.733410040140152	2	6	5	NaN	1	5	0.466906167261505	1	1	NaN	12	1	12	2	121	221	321	NaN	521	0.0815785760059953	1	1	NaN	3979699.2590337	NaN	3979700.2424447	3979700.75899272
29	19	0	0	90	36.1581920903955	36.241610738255	14	0.466715480089188	2	2	1	NaN	1	4	0.466906167261505	1	1	NaN	13	1	13	2	121	221	321	NaN	521	0.0575101762078702	1	1	NaN	3979701.6592747	NaN	3979702.6426727	3979703.15920922
29	19	0	0	90	36.1581920903955	36.241610738255	12	0.400041840076447	2	6	2	NaN	1	4	0.466906167261505	1	1	NaN	14	1	14	2	121	221	321	NaN	521	0.130786824040115	1	1	NaN	3979704.026184	NaN	3979705.0095647	3979705.52611008
29	19	0	0	90	36.1581920903955	36.241610738255	11	0.366705020070076	2	1	4	NaN	1	3	0.466906167261505	1	1	NaN	15	1	15	2	121	221	321	NaN	521	0.12872167583555	1	1	NaN	3979706.4763539	NaN	3979707.4598109	3979707.97635012
29	19	0	0	90	36.1581920903955	36.241610738255	13	0.433378660082817	2	12	6	NaN	2	4	0.466906167261505	1	1	NaN	16	1	16	2	121	221	321	NaN	521	0.0459871278144419	2	1	NaN	3979708.9266581	NaN	3979709.9100941	3979710.42660157
29	19	0	0	90	36.1581920903955	36.241610738255	20	0.666736400127411	2	8	2	NaN	2	4	0.466906167261505	1	1	NaN	17	1	17	2	121	221	321	NaN	521	0.0550791760906577	2	1	NaN	3979711.2935468	NaN	3979712.276948	3979712.79349022
29	19	0	0	90	36.1581920903955	36.241610738255	7	0.233357740044594	2	2	6	NaN	1	5	0.466906167261505	1	1	NaN	18	1	18	2	121	221	321	NaN	521	0.0642002280801535	1	1	NaN	3979713.6603701	NaN	3979714.6438405	3979715.16040227
29	19	0	0	90	36.1581920903955	36.241610738255	15	0.500052300095558	2	2	1	NaN	1	5	0.466906167261505	1	1	NaN	19	1	19	2	121	221	321	NaN	521	0.120712872128934	1	1	NaN	3979716.0440406	NaN	3979717.0274146	3979717.54395683
29	19	0	0	90	36.1581920903955	36.241610738255	9	0.300031380057335	2	4	3	NaN	1	5	0.466906167261505	1	1	NaN	20	1	20	2	121	221	321	NaN	521	0.111054375767708	1	1	NaN	3979718.4774602	NaN	3979719.4609809	3979719.97753362
29	19	0	0	90	36.1581920903955	36.241610738255	9	0.300031380057335	2	6	3	NaN	1	4	0.466906167261505	1	1	NaN	21	1	21	2	121	221	321	NaN	521	0.141447476111352	1	1	NaN	3979720.9111818	NaN	3979721.8945636	3979722.41109882
29	19	0	0	90	36.1581920903955	36.241610738255	10	0.333368200063705	2	12	4	NaN	2	5	0.466906167261505	1	1	NaN	22	1	22	2	121	221	321	NaN	521	0.123639476019889	2	1	NaN	3979723.361269	NaN	3979724.344856	3979724.86135232
29	19	0	0	90	36.1581920903955	36.241610738255	20	0.666736400127411	2	9	2	NaN	2	4	0.466906167261505	1	1	NaN	23	1	23	2	121	221	321	NaN	521	0.129388976376504	2	1	NaN	3979725.8116567	NaN	3979726.7950411	3979727.31158202
29	19	0	0	90	36.1581920903955	36.241610738255	0	0	1	5	5	NaN	1	5	0.466906167261505	1	1	NaN	24	1	24	2	111	211	311	NaN	511	0.0788164283148944	1	1	NaN	3979728.261886	NaN	3979729.2452893	3979729.76183397
29	19	0	0	90	36.1581920903955	36.241610738255	25	0.833420500159264	2	4	4	NaN	1	5	0.466906167261505	1	1	NaN	25	1	25	2	121	221	321	NaN	521	0.278723528143018	2	0	NaN	3979730.6621323	NaN	3979731.6455353	3979732.16206917
29	19	0	0	90	36.1581920903955	36.241610738255	10	0.333368200063705	2	9	1	NaN	2	5	0.466906167261505	1	1	NaN	26	1	26	2	121	221	321	NaN	521	0.0102875917218626	2	1	NaN	3979733.2623737	NaN	3979734.2457665	3979734.76231621
29	19	0	0	90	36.1581920903955	36.241610738255	17	0.566725940108299	2	4	2	NaN	1	5	0.466906167261505	1	1	NaN	27	1	27	2	121	221	321	NaN	521	0.272700075991452	1	1	NaN	3979735.5959367	NaN	3979736.579337	3979737.09588732
29	19	0	0	90	36.1581920903955	36.241610738255	21	0.700073220133781	2	5	1	NaN	1	4	0.466906167261505	1	1	NaN	28	1	28	2	121	221	321	NaN	521	0.105224227998406	1	1	NaN	3979738.1795641	NaN	3979739.1629134	3979739.67946557
29	19	0	0	90	36.1581920903955	36.241610738255	22	0.733410040140152	2	7	6	NaN	2	5	0.466906167261505	1	1	NaN	29	1	29	2	121	221	321	NaN	521	0.1926298760809	2	1	NaN	3979740.5964073	NaN	3979741.5798305	3979742.09636582
29	19	0	0	90	36.1581920903955	36.241610738255	15	0.500052300095558	2	7	6	NaN	2	5	0.466906167261505	1	1	NaN	30	1	30	2	121	221	321	NaN	521	0.13996912445873	1	0	NaN	3979743.0966652	NaN	3979744.0800949	3979744.59661898
29	19	0	0	90	36.1581920903955	36.241610738255	21	0.700073220133781	2	2	6	NaN	1	5	0.466906167261505	1	1	NaN	31	1	31	2	121	221	321	NaN	521	0.129791875835508	1	1	NaN	3979745.5468886	NaN	3979746.5303305	3979747.04687602
29	19	0	0	90	36.1581920903955	36.241610738255	25	0.833420500159264	2	3	2	NaN	1	3	0.466906167261505	1	1	NaN	32	1	32	2	121	221	321	NaN	521	0.08749467600137	1	1	NaN	3979747.9971838	NaN	3979748.9805369	3979749.49709552
29	19	0	0	90	36.1581920903955	36.241610738255	20	0.666736400127411	2	6	4	NaN	1	5	0.466906167261505	1	1	NaN	33	1	33	2	121	221	321	NaN	521	0.422986524645239	1	1	NaN	3979750.4140594	NaN	3979751.397456	3979751.91399828
29	19	0	0	90	36.1581920903955	36.241610738255	10	0.333368200063705	2	1	5	NaN	1	3	0.466906167261505	1	1	NaN	34	1	34	2	121	221	321	NaN	521	0.176701612770557	1	1	NaN	3979753.1643091	NaN	3979754.1477341	3979754.66426079
29	19	0	0	90	36.1581920903955	36.241610738255	17	0.566725940108299	2	10	4	NaN	2	5	0.466906167261505	1	1	NaN	35	1	35	2	121	221	321	NaN	521	0.0681222244165838	1	0	NaN	3979755.6645822	NaN	3979756.6479701	3979757.16452348
29	19	0	0	90	36.1581920903955	36.241610738255	6	0.200020920038223	2	5	6	NaN	1	3	0.466906167261505	1	1	NaN	36	1	36	2	121	221	321	NaN	521	0.0525637762621045	1	1	NaN	3979758.0481331	NaN	3979759.0315361	3979759.54808402
29	19	0	0	90	36.1581920903955	36.241610738255	6	0.200020920038223	2	8	4	NaN	2	3	0.466906167261505	1	1	NaN	37	1	37	2	121	221	321	NaN	521	0.285368792247027	2	1	NaN	3979760.414987	NaN	3979761.3984406	3979761.91498411
29	19	0	0	90	36.1581920903955	36.241610738255	14	0.466715480089188	2	7	2	NaN	2	3	0.466906167261505	1	1	NaN	38	1	38	2	121	221	321	NaN	521	0.133859724272043	2	1	NaN	3979763.0153408	NaN	3979763.9986861	3979764.51523678
29	19	0	0	90	36.1581920903955	36.241610738255	20	0.666736400127411	2	11	5	NaN	2	4	0.466906167261505	1	1	NaN	39	1	39	2	121	221	321	NaN	521	0.171219676267356	1	0	NaN	3979765.4655442	NaN	3979766.4489581	3979766.96547562
29	19	0	0	90	36.1581920903955	36.241610738255	12	0.400041840076447	2	7	5	NaN	2	3	0.466906167261505	1	1	NaN	40	1	40	2	121	221	321	NaN	521	0.07145787589252	1	0	NaN	3979767.948971	NaN	3979768.9325124	3979769.44905792
29	19	0	0	90	36.1581920903955	36.241610738255	8	0.266694560050964	2	10	2	NaN	2	4	0.466906167261505	1	1	NaN	41	1	41	2	121	221	321	NaN	521	0.0879957722499967	2	1	NaN	3979770.3326974	NaN	3979771.3160606	3979771.83262003
29	19	0	0	90	36.1581920903955	36.241610738255	14	0.466715480089188	2	6	4	NaN	1	5	0.466906167261505	1	1	NaN	42	1	42	2	121	221	321	NaN	521	0.0397101761773229	1	1	NaN	3979772.7329094	NaN	3979773.716367	3979774.23285662
29	19	0	0	90	36.1581920903955	36.241610738255	17	0.566725940108299	2	2	1	NaN	1	5	0.466906167261505	1	1	NaN	43	1	43	2	121	221	321	NaN	521	0.161624828353524	1	1	NaN	3979775.0831384	NaN	3979776.0665361	3979776.58309337
29	19	0	0	90	36.1581920903955	36.241610738255	18	0.60006276011467	2	3	1	NaN	1	4	0.466906167261505	1	1	NaN	44	1	44	2	121	221	321	NaN	521	0.0786476759240031	1	1	NaN	3979777.5500576	NaN	3979778.533436	3979779.04999952
29	19	0	0	90	36.1581920903955	36.241610738255	14	0.466715480089188	2	1	5	NaN	1	4	0.466906167261505	1	1	NaN	45	1	45	2	121	221	321	NaN	521	0.110506375785917	1	1	NaN	3979779.9502351	NaN	3979780.9336919	3979781.45022622
29	19	0	0	90	36.1581920903955	36.241610738255	19	0.63339958012104	2	8	2	NaN	2	4	0.466906167261505	1	1	NaN	46	1	46	2	121	221	321	NaN	521	0.0448719444684684	2	1	NaN	3979782.3837487	NaN	3979783.3672432	3979783.88380596
29	19	0	0	90	36.1581920903955	36.241610738255	8	0.266694560050964	2	6	2	NaN	1	4	0.466906167261505	1	1	NaN	47	1	47	2	121	221	321	NaN	521	0.0627403757534921	1	1	NaN	3979784.7340941	NaN	3979785.7174898	3979786.23403072
29	19	0	0	90	36.1581920903955	36.241610738255	9	0.300031380057335	2	1	1	NaN	1	3	0.466906167261505	1	1	NaN	48	1	48	2	121	221	321	NaN	521	0.215098524000496	1	1	NaN	3979787.1176659	NaN	3979788.10104	3979788.61760078
29	19	0	0	90	36.1581920903955	36.241610738255	22	0.733410040140152	2	1	6	NaN	1	3	0.466906167261505	1	1	NaN	49	1	49	2	121	221	321	NaN	521	0.0902271764352918	1	1	NaN	3979789.6345773	NaN	3979790.6179728	3979791.13451582
29	19	0	0	90	36.1581920903955	36.241610738255	23	0.766746860146523	2	9	6	NaN	2	3	0.466906167261505	1	1	NaN	50	1	50	2	121	221	321	NaN	521	0.0819497960619628	2	1	NaN	3979792.0348186	NaN	3979793.0182087	3979793.5347611
29	19	0	0	90	36.1581920903955	36.241610738255	21	0.700073220133781	2	8	2	NaN	2	5	0.466906167261505	1	1	NaN	51	1	51	2	121	221	321	NaN	521	0.105769280344248	2	1	NaN	3979794.4350388	NaN	3979795.4184445	3979795.93499452
29	19	0	0	90	36.1581920903955	36.241610738255	14	0.466715480089188	2	5	5	NaN	1	5	0.466906167261505	1	1	NaN	52	1	52	2	121	221	321	NaN	521	0.137156975921243	1	1	NaN	3979796.8519482	NaN	3979797.835341	3979798.35189732
29	19	0	0	90	36.1581920903955	36.241610738255	17	0.566725940108299	2	9	2	NaN	2	5	0.466906167261505	1	1	NaN	53	1	53	2	121	221	321	NaN	521	0.0945686246268451	2	1	NaN	3979799.3021935	NaN	3979800.2855901	3979800.80212878
29	19	0	0	90	36.1581920903955	36.241610738255	9	0.300031380057335	2	6	1	NaN	1	5	0.466906167261505	1	1	NaN	54	1	54	2	121	221	321	NaN	521	0.150711724534631	1	1	NaN	3979801.7024586	NaN	3979802.685792	3979803.20236298
29	19	0	0	90	36.1581920903955	36.241610738255	0	0	1	11	5	NaN	2	3	0.466906167261505	1	1	NaN	55	1	55	2	111	211	311	NaN	511	0.0994816282764077	1	0	NaN	3979804.1693198	NaN	3979805.1527364	3979805.66928257
29	19	0	0	90	36.1581920903955	36.241610738255	22	0.733410040140152	2	4	4	NaN	1	4	0.466906167261505	1	1	NaN	56	1	56	2	121	221	321	NaN	521	0.106579727958888	1	1	NaN	3979806.5862704	NaN	3979807.5696254	3979808.08617627
29	19	0	0	90	36.1581920903955	36.241610738255	12	0.400041840076447	2	10	4	NaN	2	5	0.466906167261505	1	1	NaN	57	1	57	2	121	221	321	NaN	521	0.105631575919688	2	1	NaN	3979809.0031573	NaN	3979809.9865025	3979810.50307802
29	19	0	0	90	36.1581920903955	36.241610738255	13	0.433378660082817	2	3	1	NaN	1	4	0.466906167261505	1	1	NaN	58	1	58	2	121	221	321	NaN	521	0.128820227924734	1	1	NaN	3979811.4200576	NaN	3979812.4034229	3979812.91998717
29	19	0	0	90	36.1581920903955	36.241610738255	0	0	1	9	6	NaN	2	4	0.466906167261505	1	1	NaN	59	1	59	2	111	211	311	NaN	511	0.222469872329384	1	0	NaN	3979813.8702931	NaN	3979814.8536837	3979815.37023033
29	19	0	0	90	36.1581920903955	36.241610738255	23	0.766746860146523	2	3	4	NaN	1	4	0.466906167261505	1	1	NaN	60	1	60	2	121	221	321	NaN	521	0.112998676020652	1	1	NaN	3979816.4038196	NaN	3979817.3872534	3979817.90381182
29	19	0	0	90	36.1581920903955	36.241610738255	7	0.233357740044594	2	3	3	NaN	1	5	0.466906167261505	1	1	NaN	61	1	61	2	121	221	321	NaN	521	0.303335176315159	1	1	NaN	3979818.8373058	NaN	3979819.8208368	3979820.33738852
29	19	0	0	90	36.1581920903955	36.241610738255	24	0.800083680152893	2	11	6	NaN	2	4	0.466906167261505	1	1	NaN	62	1	62	2	121	221	321	NaN	521	0.414307524450123	1	0	NaN	3979821.4543631	NaN	3979822.4377636	3979822.95429948
29	19	0	0	90	36.1581920903955	36.241610738255	10	0.333368200063705	2	2	5	NaN	1	4	0.466906167261505	1	1	NaN	63	1	63	2	121	221	321	NaN	521	0.144730275962502	1	1	NaN	3979824.1879615	NaN	3979825.1713649	3979825.68790252
29	19	0	0	90	36.1581920903955	36.241610738255	6	0.200020920038223	2	12	5	NaN	2	5	0.466906167261505	1	1	NaN	64	2	1	2	121	221	321	NaN	521	0.503539872355759	2	1	NaN	3979829.4051098	NaN	3979830.388543	3979830.90508613
29	19	0	0	90	36.1581920903955	36.241610738255	21	0.700073220133781	2	12	1	NaN	2	4	0.466906167261505	1	1	NaN	65	2	2	2	121	221	321	NaN	521	0.0948313763365149	2	1	NaN	3979832.2220813	NaN	3979833.2054924	3979833.72203502
29	19	0	0	90	36.1581920903955	36.241610738255	20	0.666736400127411	2	3	2	NaN	1	4	0.466906167261505	1	1	NaN	66	2	3	2	121	221	321	NaN	521	0.829649528022856	1	1	NaN	3979834.6390083	NaN	3979835.6223907	3979836.13893497
29	19	0	0	90	36.1581920903955	36.241610738255	7	0.233357740044594	2	1	6	NaN	1	4	0.466906167261505	1	1	NaN	67	2	4	2	121	221	321	NaN	521	0.119725824333727	1	1	NaN	3979837.7892918	NaN	3979838.7726812	3979839.28923528
29	19	0	0	90	36.1581920903955	36.241610738255	18	0.60006276011467	2	2	4	NaN	1	5	0.466906167261505	1	1	NaN	68	2	5	2	121	221	321	NaN	521	0.0539050279185176	1	1	NaN	3979840.2228762	NaN	3979841.2062634	3979841.72281957
29	19	0	0	90	36.1581920903955	36.241610738255	8	0.266694560050964	2	2	4	NaN	1	4	0.466906167261505	1	1	NaN	69	2	6	2	121	221	321	NaN	521	0.190994772128761	1	1	NaN	3979842.58977	NaN	3979843.5731597	3979844.08971163
29	19	0	0	90	36.1581920903955	36.241610738255	19	0.63339958012104	2	4	5	NaN	1	3	0.466906167261505	1	1	NaN	70	2	7	2	121	221	321	NaN	521	0.218869276344776	1	1	NaN	3979845.09	NaN	3979846.0734087	3979846.58995722
29	19	0	0	90	36.1581920903955	36.241610738255	23	0.766746860146523	2	3	3	NaN	1	3	0.466906167261505	1	1	NaN	71	2	8	2	121	221	321	NaN	521	0.19717057608068	1	1	NaN	3979847.623484	NaN	3979848.6069948	3979849.12355182
29	19	0	0	90	36.1581920903955	36.241610738255	19	0.63339958012104	2	12	1	NaN	2	5	0.466906167261505	1	1	NaN	72	2	9	2	121	221	321	NaN	521	0.120975476223975	2	1	NaN	3979850.1238592	NaN	3979851.1072651	3979851.62378132
29	19	0	0	90	36.1581920903955	36.241610738255	14	0.466715480089188	2	3	6	NaN	1	3	0.466906167261505	1	1	NaN	73	2	10	2	121	221	321	NaN	521	0.135346123948693	1	1	NaN	3979852.5574062	NaN	3979853.5408191	3979854.05735328
29	19	0	0	90	36.1581920903955	36.241610738255	23	0.766746860146523	2	5	6	NaN	1	4	0.466906167261505	1	1	NaN	74	2	11	2	121	221	321	NaN	521	0.141455728095025	1	1	NaN	3979855.0076479	NaN	3979855.9910501	3979856.50760477
29	19	0	0	90	36.1581920903955	36.241610738255	14	0.466715480089188	2	3	3	NaN	1	3	0.466906167261505	1	1	NaN	75	2	12	2	121	221	321	NaN	521	0.194930124562234	1	1	NaN	3979857.4578897	NaN	3979858.4413022	3979858.95783318
29	19	0	0	90	36.1581920903955	36.241610738255	20	0.666736400127411	2	7	1	NaN	2	4	0.466906167261505	1	1	NaN	76	2	13	2	121	221	321	NaN	521	0.0104420725256205	2	1	NaN	3979859.95812	NaN	3979860.9415372	3979861.45808633
29	19	0	0	90	36.1581920903955	36.241610738255	0	0	1	11	4	NaN	2	5	0.466906167261505	1	1	NaN	77	2	14	2	111	211	311	NaN	511	0.881812876090407	1	0	NaN	3979862.275028	NaN	3979863.2584263	3979863.77498342
29	19	0	0	90	36.1581920903955	36.241610738255	21	0.700073220133781	2	10	6	NaN	2	3	0.466906167261505	1	1	NaN	78	2	15	2	121	221	321	NaN	521	0.177505976054817	2	1	NaN	3979865.4753636	NaN	3979866.4587417	3979866.97529032
29	19	0	0	90	36.1581920903955	36.241610738255	12	0.400041840076447	2	12	4	NaN	2	5	0.466906167261505	1	1	NaN	79	2	16	2	121	221	321	NaN	521	0.637785875704139	2	1	NaN	3979867.9589184	NaN	3979868.9423227	3979869.45887572
29	19	0	0	90	36.1581920903955	36.241610738255	24	0.800083680152893	2	2	2	NaN	1	3	0.466906167261505	1	1	NaN	80	2	17	2	121	221	321	NaN	521	0.327492475975305	1	1	NaN	3979870.9092105	NaN	3979871.8926134	3979872.40915292
29	19	0	0	90	36.1581920903955	36.241610738255	21	0.700073220133781	2	10	5	NaN	2	5	0.466906167261505	1	1	NaN	81	2	18	2	121	221	321	NaN	521	0.0454528764821589	1	0	NaN	3979873.5594699	NaN	3979874.5428651	3979875.05942692
29	19	0	0	90	36.1581920903955	36.241610738255	21	0.700073220133781	2	12	3	NaN	2	5	0.466906167261505	1	1	NaN	82	2	19	2	121	221	321	NaN	521	0.126476276200265	1	0	NaN	3979875.9263881	NaN	3979876.9097578	3979877.42631402
29	19	0	0	90	36.1581920903955	36.241610738255	10	0.333368200063705	2	2	4	NaN	1	4	0.466906167261505	1	1	NaN	83	2	20	2	121	221	321	NaN	521	0.125249224714935	1	1	NaN	3979878.3599486	NaN	3979879.343342	3979879.85988858
29	19	0	0	90	36.1581920903955	36.241610738255	9	0.300031380057335	2	10	3	NaN	2	4	0.466906167261505	1	1	NaN	84	2	21	2	121	221	321	NaN	521	0.235386576037854	1	0	NaN	3979880.7935505	NaN	3979881.7769289	3979882.29345972
29	19	0	0	90	36.1581920903955	36.241610738255	11	0.366705020070076	2	12	2	NaN	2	3	0.466906167261505	1	1	NaN	85	2	22	2	121	221	321	NaN	521	0.0104605760425329	2	1	NaN	3979883.343855	NaN	3979884.3271651	3979884.84370752
29	19	0	0	90	36.1581920903955	36.241610738255	19	0.63339958012104	2	7	1	NaN	2	3	0.466906167261505	1	1	NaN	86	2	23	2	121	221	321	NaN	521	0.0722337760962546	2	1	NaN	3979885.6606591	NaN	3979886.6440207	3979887.16060382
29	19	0	0	90	36.1581920903955	36.241610738255	14	0.466715480089188	2	11	1	NaN	2	5	0.466906167261505	1	1	NaN	87	2	24	2	121	221	321	NaN	521	0.11252727592364	2	1	NaN	3979888.0442566	NaN	3979889.0276218	3979889.54417982
29	19	0	0	90	36.1581920903955	36.241610738255	14	0.466715480089188	2	7	6	NaN	2	5	0.466906167261505	1	1	NaN	88	2	25	2	121	221	321	NaN	521	0.168159576132894	1	0	NaN	3979890.4610556	NaN	3979891.4445385	3979891.96107402
29	19	0	0	90	36.1581920903955	36.241610738255	8	0.266694560050964	2	12	5	NaN	2	4	0.466906167261505	1	1	NaN	89	2	26	2	121	221	321	NaN	521	0.0104111758992076	2	1	NaN	3979892.9447122	NaN	3979893.9281013	3979894.44465992
29	19	0	0	90	36.1581920903955	36.241610738255	23	0.766746860146523	2	11	6	NaN	2	4	0.466906167261505	1	1	NaN	90	2	27	2	121	221	321	NaN	521	0.261612575966865	1	0	NaN	3979895.5116589	NaN	3979896.4950626	3979897.01156782
29	19	0	0	90	36.1581920903955	36.241610738255	25	0.833420500159264	2	5	1	NaN	1	5	0.466906167261505	1	1	NaN	91	2	28	2	121	221	321	NaN	521	0.238373728469014	1	1	NaN	3979898.0785874	NaN	3979899.0619559	3979899.57849417
29	19	0	0	90	36.1581920903955	36.241610738255	0	0	1	10	1	NaN	2	5	0.466906167261505	1	1	NaN	92	2	29	2	111	211	311	NaN	511	0.0481929760426283	2	1	NaN	3979900.6286685	NaN	3979901.6120805	3979902.12873852
29	19	0	0	90	36.1581920903955	36.241610738255	21	0.700073220133781	2	3	4	NaN	1	4	0.466906167261505	1	1	NaN	93	2	30	2	121	221	321	NaN	521	0.817578224465251	2	0	NaN	3979902.9957161	NaN	3979903.9790698	3979904.49563918
29	19	0	0	90	36.1581920903955	36.241610738255	16	0.533389120101929	2	5	1	NaN	1	3	0.466906167261505	1	1	NaN	94	2	31	2	121	221	321	NaN	521	0.14764607604593	1	1	NaN	3979906.1293463	NaN	3979907.1127397	3979907.62927622
29	19	0	0	90	36.1581920903955	36.241610738255	15	0.500052300095558	2	1	1	NaN	1	5	0.466906167261505	1	1	NaN	95	2	32	2	121	221	321	NaN	521	0.112747576087713	1	1	NaN	3979908.5962429	NaN	3979909.5796486	3979910.09618772
29	19	0	0	90	36.1581920903955	36.241610738255	15	0.500052300095558	2	3	6	NaN	1	3	0.466906167261505	1	1	NaN	96	2	33	2	121	221	321	NaN	521	0.0880002761259675	1	1	NaN	3979911.0131657	NaN	3979911.9965532	3979912.51309342
29	19	0	0	90	36.1581920903955	36.241610738255	10	0.333368200063705	2	3	1	NaN	1	4	0.466906167261505	1	1	NaN	97	2	34	2	121	221	321	NaN	521	0.191521471831948	1	1	NaN	3979913.413381	NaN	3979914.3967661	3979914.91333213
29	19	0	0	90	36.1581920903955	36.241610738255	9	0.300031380057335	2	8	5	NaN	2	5	0.466906167261505	1	1	NaN	98	2	35	2	121	221	321	NaN	521	0.788270728196949	2	1	NaN	3979916.0968579	NaN	3979917.0803226	3979917.59692817
29	19	0	0	90	36.1581920903955	36.241610738255	18	0.60006276011467	2	3	6	NaN	1	5	0.466906167261505	1	1	NaN	99	2	36	2	121	221	321	NaN	521	0.167965276166797	1	1	NaN	3979919.1971529	NaN	3979920.1806622	3979920.69723212
29	19	0	0	90	36.1581920903955	36.241610738255	7	0.233357740044594	2	12	2	NaN	2	3	0.466906167261505	1	1	NaN	100	2	37	2	121	221	321	NaN	521	0.356120476033539	1	0	NaN	3979921.6808675	NaN	3979922.6642608	3979923.18080502
29	19	0	0	90	36.1581920903955	36.241610738255	12	0.400041840076447	2	5	5	NaN	1	3	0.466906167261505	1	1	NaN	101	2	38	2	121	221	321	NaN	521	0.0170655762776732	1	1	NaN	3979924.3477969	NaN	3979925.3311805	3979925.84774352
29	19	0	0	90	36.1581920903955	36.241610738255	24	0.800083680152893	2	9	6	NaN	2	4	0.466906167261505	1	1	NaN	102	2	39	2	121	221	321	NaN	521	0.0762383439578116	1	0	NaN	3979926.6647043	NaN	3979927.6480839	3979928.16463046
29	19	0	0	90	36.1581920903955	36.241610738255	11	0.366705020070076	2	11	1	NaN	2	3	0.466906167261505	1	1	NaN	103	2	40	2	121	221	321	NaN	521	0.292756276205182	1	0	NaN	3979929.0482578	NaN	3979930.0316349	3979930.54819692
29	19	0	0	90	36.1581920903955	36.241610738255	22	0.733410040140152	2	1	4	NaN	1	5	0.466906167261505	1	1	NaN	104	2	41	2	121	221	321	NaN	521	0.340261175762862	1	1	NaN	3979931.6485028	NaN	3979932.6318995	3979933.14845062
29	19	0	0	90	36.1581920903955	36.241610738255	24	0.800083680152893	2	8	4	NaN	2	4	0.466906167261505	1	1	NaN	105	2	42	2	121	221	321	NaN	521	0.313979975879192	2	1	NaN	3979934.2987951	NaN	3979935.2821634	3979935.79871042
29	19	0	0	90	36.1581920903955	36.241610738255	21	0.700073220133781	2	7	1	NaN	2	5	0.466906167261505	1	1	NaN	106	2	43	2	121	221	321	NaN	521	0.184567728079855	2	1	NaN	3979936.932364	NaN	3979937.9157526	3979938.43230807
29	19	0	0	90	36.1581920903955	36.241610738255	22	0.733410040140152	2	6	2	NaN	1	4	0.466906167261505	1	1	NaN	107	2	44	2	121	221	321	NaN	521	0.0363847240805626	1	1	NaN	3979939.4326018	NaN	3979940.4160029	3979940.93255708
29	19	0	0	90	36.1581920903955	36.241610738255	19	0.63339958012104	2	11	6	NaN	2	5	0.466906167261505	1	1	NaN	108	2	45	2	121	221	321	NaN	521	0.21414297260344	1	0	NaN	3979941.7828416	NaN	3979942.766243	3979943.28278213
29	19	0	0	90	36.1581920903955	36.241610738255	7	0.233357740044594	2	6	2	NaN	1	4	0.466906167261505	1	1	NaN	109	2	46	2	121	221	321	NaN	521	0.353121940046549	1	1	NaN	3979944.2997459	NaN	3979945.2831395	3979945.79970216
29	19	0	0	90	36.1581920903955	36.241610738255	7	0.233357740044594	2	7	5	NaN	2	3	0.466906167261505	1	1	NaN	110	2	47	2	121	221	321	NaN	521	0.422943224199116	1	0	NaN	3979947.1500118	NaN	3979948.1334172	3979948.64997458
29	19	0	0	90	36.1581920903955	36.241610738255	15	0.500052300095558	2	4	3	NaN	1	3	0.466906167261505	1	1	NaN	111	2	48	2	121	221	321	NaN	521	0.161178575828671	1	1	NaN	3979949.8835499	NaN	3979950.8670289	3979951.38358262
29	19	0	0	90	36.1581920903955	36.241610738255	23	0.766746860146523	2	9	1	NaN	2	4	0.466906167261505	1	1	NaN	112	2	49	2	121	221	321	NaN	521	0.0103355362080038	2	1	NaN	3979952.3505149	NaN	3979953.3339359	3979953.85048746
29	19	0	0	90	36.1581920903955	36.241610738255	9	0.300031380057335	2	4	6	NaN	1	5	0.466906167261505	1	1	NaN	113	2	50	2	121	221	321	NaN	521	0.097498276270926	2	0	NaN	3979954.6673675	NaN	3979955.6508435	3979956.16738452
29	19	0	0	90	36.1581920903955	36.241610738255	11	0.366705020070076	2	10	2	NaN	2	5	0.466906167261505	1	1	NaN	114	2	51	2	121	221	321	NaN	521	0.312638076022267	2	1	NaN	3979957.0844314	NaN	3979958.0677311	3979958.58428402
29	19	0	0	90	36.1581920903955	36.241610738255	11	0.366705020070076	2	4	2	NaN	1	4	0.466906167261505	1	1	NaN	115	2	52	2	121	221	321	NaN	521	0.335136976093054	1	1	NaN	3979959.7179236	NaN	3979960.7012173	3979961.21786912
29	19	0	0	90	36.1581920903955	36.241610738255	24	0.800083680152893	2	10	3	NaN	2	4	0.466906167261505	1	1	NaN	116	2	53	2	121	221	321	NaN	521	0.492771876044571	1	0	NaN	3979962.3681964	NaN	3979963.3515875	3979963.86813242
29	19	0	0	90	36.1581920903955	36.241610738255	16	0.533389120101929	2	5	3	NaN	1	3	0.466906167261505	1	1	NaN	117	2	54	2	121	221	321	NaN	521	0.010440924204886	1	1	NaN	3979965.1684575	NaN	3979966.1518756	3979966.66840358
29	19	0	0	90	36.1581920903955	36.241610738255	21	0.700073220133781	2	9	4	NaN	2	3	0.466906167261505	1	1	NaN	118	2	55	2	121	221	321	NaN	521	0.831836475990713	2	1	NaN	3979967.4853407	NaN	3979968.4687503	3979968.98529692
29	19	0	0	90	36.1581920903955	36.241610738255	7	0.233357740044594	2	3	3	NaN	1	5	0.466906167261505	1	1	NaN	119	2	56	2	121	221	321	NaN	521	0.198188976384699	1	1	NaN	3979970.7188725	NaN	3979971.7024157	3979972.21895712
29	19	0	0	90	36.1581920903955	36.241610738255	24	0.800083680152893	2	7	6	NaN	2	3	0.466906167261505	1	1	NaN	120	2	57	2	121	221	321	NaN	521	0.201000875793397	2	1	NaN	3979973.2359376	NaN	3979974.2192349	3979974.73586472
29	19	0	0	90	36.1581920903955	36.241610738255	6	0.200020920038223	2	3	5	NaN	1	3	0.466906167261505	1	1	NaN	121	2	58	2	121	221	321	NaN	521	0.0904745762236416	1	1	NaN	3979978.5864307	NaN	3979979.5698232	3979980.08639232
29	19	0	0	90	36.1581920903955	36.241610738255	24	0.800083680152893	2	1	3	NaN	1	5	0.466906167261505	1	1	NaN	122	2	59	2	121	221	321	NaN	521	0.138385375961661	1	1	NaN	3979980.9866859	NaN	3979981.9700828	3979982.48662802
29	19	0	0	90	36.1581920903955	36.241610738255	22	0.733410040140152	2	2	5	NaN	1	5	0.466906167261505	1	1	NaN	123	2	60	2	121	221	321	NaN	521	0.357007424347103	1	1	NaN	3979983.9202865	NaN	3979984.9037519	3979985.42024688
29	19	0	0	90	36.1581920903955	36.241610738255	12	0.400041840076447	2	5	2	NaN	1	5	0.466906167261505	1	1	NaN	124	2	61	2	121	221	321	NaN	521	0.105795043986291	1	1	NaN	3979986.5872665	NaN	3979987.5706325	3979988.08718416
29	19	0	0	90	36.1581920903955	36.241610738255	17	0.566725940108299	2	11	3	NaN	2	5	0.466906167261505	1	1	NaN	125	2	62	2	121	221	321	NaN	521	0.352173724211752	1	0	NaN	3979989.020844	NaN	3979990.0042032	3979990.52075258
29	19	0	0	90	36.1581920903955	36.241610738255	25	0.833420500159264	2	10	5	NaN	2	5	0.466906167261505	1	1	NaN	126	2	63	2	121	221	321	NaN	521	0.461313728243113	2	1	NaN	3979991.6877383	NaN	3979992.6711424	3979993.18767897
29	19	0	0	90	36.1581920903955	36.241610738255	12	0.400041840076447	2	4	4	NaN	1	5	0.466906167261505	1	1	NaN	127	3	1	2	121	221	321	NaN	521	0.261220828164369	1	1	NaN	3980025.4077206	NaN	3980026.391086	3980026.90766207
29	19	0	0	90	36.1581920903955	36.241610738255	15	0.500052300095558	2	12	1	NaN	2	3	0.466906167261505	1	1	NaN	128	3	2	2	121	221	321	NaN	521	0.102414831984788	2	1	NaN	3980027.9746214	NaN	3980028.9580217	3980029.47456977
29	19	0	0	90	36.1581920903955	36.241610738255	11	0.366705020070076	2	8	5	NaN	2	3	0.466906167261505	1	1	NaN	129	3	3	2	121	221	321	NaN	521	0.069715476129204	2	1	NaN	3980030.3915591	NaN	3980031.3749243	3980031.89147072
29	19	0	0	90	36.1581920903955	36.241610738255	8	0.266694560050964	2	4	4	NaN	1	3	0.466906167261505	1	1	NaN	130	3	4	2	121	221	321	NaN	521	0.166034576483071	1	1	NaN	3980032.7751012	NaN	3980033.7584956	3980034.27504142
29	19	0	0	90	36.1581920903955	36.241610738255	25	0.833420500159264	2	11	5	NaN	2	5	0.466906167261505	1	1	NaN	131	3	5	2	121	221	321	NaN	521	0.29041416477412	2	1	NaN	3980035.2585678	NaN	3980036.2420849	3980036.75861444
29	19	0	0	90	36.1581920903955	36.241610738255	15	0.500052300095558	2	4	2	NaN	1	3	0.466906167261505	1	1	NaN	132	3	6	2	121	221	321	NaN	521	0.154351928271353	2	0	NaN	3980037.8589367	NaN	3980038.8423313	3980039.35888287
29	19	0	0	90	36.1581920903955	36.241610738255	18	0.60006276011467	2	8	6	NaN	2	4	0.466906167261505	1	1	NaN	133	3	7	2	121	221	321	NaN	521	0.151322071906179	2	1	NaN	3980040.3258557	NaN	3980041.3092449	3980041.82578233
29	19	0	0	90	36.1581920903955	36.241610738255	13	0.433378660082817	2	4	4	NaN	1	5	0.466906167261505	1	1	NaN	134	3	8	2	121	221	321	NaN	521	0.20421592425555	2	0	NaN	3980042.7927396	NaN	3980043.776121	3980044.29269388
29	19	0	0	90	36.1581920903955	36.241610738255	17	0.566725940108299	2	3	5	NaN	1	4	0.466906167261505	1	1	NaN	135	3	9	2	121	221	321	NaN	521	0.247516628354788	1	1	NaN	3980045.3096738	NaN	3980046.2930789	3980046.80961537
29	19	0	0	90	36.1581920903955	36.241610738255	21	0.700073220133781	2	3	1	NaN	1	3	0.466906167261505	1	1	NaN	136	3	10	2	121	221	321	NaN	521	0.224520575720817	1	1	NaN	3980047.8765817	NaN	3980048.8599838	3980049.37652672
29	19	0	0	90	36.1581920903955	36.241610738255	7	0.233357740044594	2	6	2	NaN	1	5	0.466906167261505	1	1	NaN	137	3	11	2	121	221	321	NaN	521	0.130899576004595	1	1	NaN	3980050.410066	NaN	3980051.3935643	3980051.91010192
29	19	0	0	90	36.1581920903955	36.241610738255	23	0.766746860146523	2	7	4	NaN	2	3	0.466906167261505	1	1	NaN	138	3	12	2	121	221	321	NaN	521	0.232532380148768	1	0	NaN	3980052.860392	NaN	3980053.8437948	3980054.36035552
29	19	0	0	90	36.1581920903955	36.241610738255	23	0.766746860146523	2	10	1	NaN	2	3	0.466906167261505	1	1	NaN	139	3	13	2	121	221	321	NaN	521	0.194306128192693	2	1	NaN	3980055.4106831	NaN	3980056.3940608	3980056.91060587
29	19	0	0	90	36.1581920903955	36.241610738255	13	0.433378660082817	2	10	5	NaN	2	4	0.466906167261505	1	1	NaN	140	3	14	2	121	221	321	NaN	521	0.0855004363693297	2	1	NaN	3980057.9275625	NaN	3980058.9109608	3980059.42752006
29	19	0	0	90	36.1581920903955	36.241610738255	19	0.63339958012104	2	6	5	NaN	1	5	0.466906167261505	1	1	NaN	141	3	15	2	121	221	321	NaN	521	0.104614075738937	1	1	NaN	3980060.6443746	NaN	3980061.6279023	3980062.14443992
29	19	0	0	90	36.1581920903955	36.241610738255	20	0.666736400127411	2	1	5	NaN	1	4	0.466906167261505	1	1	NaN	142	3	16	2	121	221	321	NaN	521	0.111728976015002	1	1	NaN	3980063.061405	NaN	3980064.044776	3980064.56135512
29	19	0	0	90	36.1581920903955	36.241610738255	0	0	1	7	1	NaN	2	3	0.466906167261505	1	1	NaN	143	3	17	2	111	211	311	NaN	511	0.0627324758097529	2	1	NaN	3980065.4783308	NaN	3980066.4617215	3980066.97825372
29	19	0	0	90	36.1581920903955	36.241610738255	16	0.533389120101929	2	10	5	NaN	2	3	0.466906167261505	1	1	NaN	144	3	18	2	121	221	321	NaN	521	0.223625276237726	2	1	NaN	3980067.8618772	NaN	3980068.8452788	3980069.36181522
29	19	0	0	90	36.1581920903955	36.241610738255	0	0	1	7	3	NaN	2	5	0.466906167261505	1	1	NaN	145	3	19	2	111	211	311	NaN	511	0.202025843784213	2	1	NaN	3980070.3954581	NaN	3980071.378862	3980071.89541636
29	19	0	0	90	36.1581920903955	36.241610738255	13	0.433378660082817	2	11	1	NaN	2	4	0.466906167261505	1	1	NaN	146	3	20	2	121	221	321	NaN	521	0.140877675730735	1	0	NaN	3980072.912366	NaN	3980073.8957718	3980074.41231982
29	19	0	0	90	36.1581920903955	36.241610738255	18	0.60006276011467	2	9	3	NaN	2	5	0.466906167261505	1	1	NaN	147	3	21	2	121	221	321	NaN	521	0.082544376142323	2	1	NaN	3980075.3625116	NaN	3980076.3460131	3980076.86255092
29	19	0	0	90	36.1581920903955	36.241610738255	19	0.63339958012104	2	7	3	NaN	2	4	0.466906167261505	1	1	NaN	148	3	22	2	121	221	321	NaN	521	0.482313176151365	2	1	NaN	3980077.7628493	NaN	3980078.7462407	3980079.26278692
29	19	0	0	90	36.1581920903955	36.241610738255	19	0.63339958012104	2	6	5	NaN	1	3	0.466906167261505	1	1	NaN	149	3	23	2	121	221	321	NaN	521	0.24201927613467	2	0	NaN	3980080.5631362	NaN	3980081.5465231	3980082.06306252
29	19	0	0	90	36.1581920903955	36.241610738255	22	0.733410040140152	2	4	1	NaN	1	3	0.466906167261505	1	1	NaN	150	3	24	2	121	221	321	NaN	521	0.491704068612307	1	1	NaN	3980083.1133788	NaN	3980084.0967525	3980084.61331673
29	19	0	0	90	36.1581920903955	36.241610738255	11	0.366705020070076	2	2	2	NaN	1	3	0.466906167261505	1	1	NaN	151	3	25	2	121	221	321	NaN	521	0.187877675984055	1	1	NaN	3980085.9136722	NaN	3980086.89704	3980087.41358632
29	19	0	0	90	36.1581920903955	36.241610738255	16	0.533389120101929	2	8	4	NaN	2	5	0.466906167261505	1	1	NaN	152	3	26	2	121	221	321	NaN	521	0.119274876080453	2	1	NaN	3980088.4137927	NaN	3980089.3973772	3980089.91384252
29	19	0	0	90	36.1581920903955	36.241610738255	22	0.733410040140152	2	8	6	NaN	2	3	0.466906167261505	1	1	NaN	153	3	27	2	121	221	321	NaN	521	0.10172062786296	2	1	NaN	3980090.8474861	NaN	3980091.8308714	3980092.34741717
29	19	0	0	90	36.1581920903955	36.241610738255	16	0.533389120101929	2	2	1	NaN	1	4	0.466906167261505	1	1	NaN	154	3	28	2	121	221	321	NaN	521	0.116799775976688	1	1	NaN	3980093.2643591	NaN	3980094.2477641	3980094.76431892
29	19	0	0	90	36.1581920903955	36.241610738255	15	0.500052300095558	2	11	5	NaN	2	5	0.466906167261505	1	1	NaN	155	3	29	2	121	221	321	NaN	521	0.579559276346117	1	0	NaN	3980095.6980169	NaN	3980096.6813406	3980097.19788142
29	19	0	0	90	36.1581920903955	36.241610738255	13	0.433378660082817	2	2	4	NaN	1	3	0.466906167261505	1	1	NaN	156	3	30	2	121	221	321	NaN	521	0.0104158762842417	1	1	NaN	3980098.5982209	NaN	3980099.5816215	3980100.09816952
29	19	0	0	90	36.1581920903955	36.241610738255	20	0.666736400127411	2	4	2	NaN	1	5	0.466906167261505	1	1	NaN	157	3	31	2	121	221	321	NaN	521	0.201217396184802	1	1	NaN	3980100.9317977	NaN	3980101.9151955	3980102.4317378
29	19	0	0	90	36.1581920903955	36.241610738255	20	0.666736400127411	2	1	4	NaN	1	4	0.466906167261505	1	1	NaN	158	3	32	2	121	221	321	NaN	521	0.332317528314888	1	1	NaN	3980103.4487027	NaN	3980104.4320945	3980104.94865157
29	19	0	0	90	36.1581920903955	36.241610738255	14	0.466715480089188	2	9	5	NaN	2	3	0.466906167261505	1	1	NaN	159	3	33	2	121	221	321	NaN	521	0.0104082762263715	2	1	NaN	3980106.0989722	NaN	3980107.0823562	3980107.59890162
29	19	0	0	90	36.1581920903955	36.241610738255	24	0.800083680152893	2	11	2	NaN	2	5	0.466906167261505	1	1	NaN	160	3	34	2	121	221	321	NaN	521	0.212014775723219	2	1	NaN	3980108.8491076	NaN	3980109.8325225	3980110.34917802
29	19	0	0	90	36.1581920903955	36.241610738255	17	0.566725940108299	2	2	3	NaN	1	5	0.466906167261505	1	1	NaN	161	3	35	2	121	221	321	NaN	521	0.166674232110381	1	1	NaN	3980111.3828106	NaN	3980112.3662096	3980112.88276737
29	19	0	0	90	36.1581920903955	36.241610738255	12	0.400041840076447	2	2	2	NaN	1	4	0.466906167261505	1	1	NaN	162	3	36	2	121	221	321	NaN	521	0.28086557565257	1	1	NaN	3980114.3164033	NaN	3980115.2998413	3980115.81637662
29	19	0	0	90	36.1581920903955	36.241610738255	8	0.266694560050964	2	8	4	NaN	2	5	0.466906167261505	1	1	NaN	163	3	37	2	121	221	321	NaN	521	0.128546368330717	1	0	NaN	3980116.9167144	NaN	3980117.9000923	3980118.41662783
29	19	0	0	90	36.1581920903955	36.241610738255	17	0.566725940108299	2	1	2	NaN	1	5	0.466906167261505	1	1	NaN	164	3	38	2	121	221	321	NaN	521	0.0104210758581758	1	1	NaN	3980119.3501619	NaN	3980120.3336623	3980120.85021432
29	19	0	0	90	36.1581920903955	36.241610738255	7	0.233357740044594	2	12	3	NaN	2	5	0.466906167261505	1	1	NaN	165	3	39	2	121	221	321	NaN	521	1.09035167563707	2	1	NaN	3980121.6671807	NaN	3980122.6506175	3980123.16711332
29	19	0	0	90	36.1581920903955	36.241610738255	25	0.833420500159264	2	8	3	NaN	2	5	0.466906167261505	1	1	NaN	166	3	40	2	121	221	321	NaN	521	0.346079839859158	2	1	NaN	3980125.0674893	NaN	3980126.0508869	3980126.56743966
29	19	0	0	90	36.1581920903955	36.241610738255	18	0.60006276011467	2	11	1	NaN	2	5	0.466906167261505	1	1	NaN	167	3	41	2	121	221	321	NaN	521	0.174787527881563	2	1	NaN	3980127.734413	NaN	3980128.7178164	3980129.23436897
29	19	0	0	90	36.1581920903955	36.241610738255	15	0.500052300095558	2	11	6	NaN	2	4	0.466906167261505	1	1	NaN	168	3	42	2	121	221	321	NaN	521	0.350320276338607	2	1	NaN	3980130.5346415	NaN	3980131.5180793	3980132.03463792
29	19	0	0	90	36.1581920903955	36.241610738255	17	0.566725940108299	2	5	2	NaN	1	4	0.466906167261505	1	1	NaN	169	3	43	2	121	221	321	NaN	521	0.310309975873679	1	1	NaN	3980133.3349769	NaN	3980134.3183695	3980134.83490932
29	19	0	0	90	36.1581920903955	36.241610738255	25	0.833420500159264	2	11	2	NaN	2	4	0.466906167261505	1	1	NaN	170	3	44	2	121	221	321	NaN	521	0.221371627878398	1	0	NaN	3980135.9518887	NaN	3980136.9351766	3980137.45184487
29	19	0	0	90	36.1581920903955	36.241610738255	8	0.266694560050964	2	9	4	NaN	2	5	0.466906167261505	1	1	NaN	171	3	45	2	121	221	321	NaN	521	0.640145376324654	2	1	NaN	3980138.4854851	NaN	3980139.4688755	3980139.98541462
29	19	0	0	90	36.1581920903955	36.241610738255	20	0.666736400127411	2	8	3	NaN	2	4	0.466906167261505	1	1	NaN	172	3	46	2	121	221	321	NaN	521	0.137592476326972	2	1	NaN	3980141.435774	NaN	3980142.4191607	3980142.93571092
29	19	0	0	90	36.1581920903955	36.241610738255	24	0.800083680152893	2	10	2	NaN	2	5	0.466906167261505	1	1	NaN	173	3	47	2	121	221	321	NaN	521	0.319572375621647	2	1	NaN	3980143.8860125	NaN	3980144.8694015	3980145.38595472
29	19	0	0	90	36.1581920903955	36.241610738255	11	0.366705020070076	2	6	3	NaN	1	4	0.466906167261505	1	1	NaN	174	3	48	2	121	221	321	NaN	521	0.117915424518287	1	1	NaN	3980146.5195905	NaN	3980147.5029902	3980148.01954428
29	19	0	0	90	36.1581920903955	36.241610738255	19	0.63339958012104	2	9	6	NaN	2	3	0.466906167261505	1	1	NaN	175	3	49	2	121	221	321	NaN	521	0.107779920101166	1	0	NaN	3980148.9531881	NaN	3980149.936596	3980150.45311568
29	19	0	0	90	36.1581920903955	36.241610738255	19	0.63339958012104	2	4	1	NaN	1	3	0.466906167261505	1	1	NaN	176	3	50	2	121	221	321	NaN	521	0.379199276212603	1	1	NaN	3980151.3700721	NaN	3980152.3534774	3980152.87002022
29	19	0	0	90	36.1581920903955	36.241610738255	8	0.266694560050964	2	7	2	NaN	2	4	0.466906167261505	1	1	NaN	177	3	51	2	121	221	321	NaN	521	0.183582776226103	2	1	NaN	3980154.0537576	NaN	3980155.0370535	3980155.55360662
29	19	0	0	90	36.1581920903955	36.241610738255	11	0.366705020070076	2	11	2	NaN	2	4	0.466906167261505	1	1	NaN	178	3	52	2	121	221	321	NaN	521	0.467198624275625	2	1	NaN	3980156.5539073	NaN	3980157.5373021	3980158.05386398
29	19	0	0	90	36.1581920903955	36.241610738255	9	0.300031380057335	2	3	4	NaN	1	4	0.466906167261505	1	1	NaN	179	3	53	2	121	221	321	NaN	521	0.115860575810075	1	1	NaN	3980159.3375231	NaN	3980160.3209194	3980160.83745982
29	19	0	0	90	36.1581920903955	36.241610738255	15	0.500052300095558	2	3	5	NaN	1	3	0.466906167261505	1	1	NaN	180	3	54	2	121	221	321	NaN	521	0.130225324537605	1	1	NaN	3980161.7710907	NaN	3980162.7544766	3980163.27103378
29	19	0	0	90	36.1581920903955	36.241610738255	8	0.266694560050964	2	6	1	NaN	1	3	0.466906167261505	1	1	NaN	181	3	55	2	121	221	321	NaN	521	0.127914275974035	1	1	NaN	3980164.221362	NaN	3980165.2047335	3980165.72127382
29	19	0	0	90	36.1581920903955	36.241610738255	24	0.800083680152893	2	5	3	NaN	1	3	0.466906167261505	1	1	NaN	182	3	56	2	121	221	321	NaN	521	0.0104134758003056	1	1	NaN	3980166.6547954	NaN	3980167.6382979	3980168.15485352
29	19	0	0	90	36.1581920903955	36.241610738255	16	0.533389120101929	2	6	3	NaN	1	3	0.466906167261505	1	1	NaN	183	3	57	2	121	221	321	NaN	521	0.129095272161067	1	1	NaN	3980168.9884492	NaN	3980169.9718667	3980170.48840823
29	19	0	0	90	36.1581920903955	36.241610738255	19	0.63339958012104	2	3	2	NaN	1	4	0.466906167261505	1	1	NaN	184	3	58	2	121	221	321	NaN	521	0.222945628222078	1	1	NaN	3980171.4387046	NaN	3980172.4221051	3980172.93865857
29	19	0	0	90	36.1581920903955	36.241610738255	25	0.833420500159264	2	9	3	NaN	2	3	0.466906167261505	1	1	NaN	185	3	59	2	121	221	321	NaN	521	0.232921375893056	2	1	NaN	3980173.9722691	NaN	3980174.9556841	3980175.47222922
29	19	0	0	90	36.1581920903955	36.241610738255	10	0.333368200063705	2	5	5	NaN	1	4	0.466906167261505	1	1	NaN	186	3	60	2	121	221	321	NaN	521	0.106602727901191	1	1	NaN	3980176.5225467	NaN	3980177.5059223	3980178.02248127
29	19	0	0	90	36.1581920903955	36.241610738255	8	0.266694560050964	2	7	3	NaN	2	4	0.466906167261505	1	1	NaN	187	3	61	2	121	221	321	NaN	521	0.16991487564519	1	0	NaN	3980178.9394099	NaN	3980179.9228792	3980180.43938522
29	19	0	0	90	36.1581920903955	36.241610738255	24	0.800083680152893	2	12	6	NaN	2	4	0.466906167261505	1	1	NaN	188	3	62	2	121	221	321	NaN	521	0.150671375915408	2	1	NaN	3980181.4230191	NaN	3980182.4064114	3980182.92296212
29	19	0	0	90	36.1581920903955	36.241610738255	16	0.533389120101929	2	1	2	NaN	1	5	0.466906167261505	1	1	NaN	189	3	63	2	121	221	321	NaN	521	0.155455136206001	1	1	NaN	3980183.8899324	NaN	3980184.8733312	3980185.38987996
29	19	0	0	90	36.1581920903955	36.241610738255	22	0.733410040140152	2	3	4	NaN	1	4	0.466906167261505	1	1	NaN	190	4	1	2	121	221	321	NaN	521	0.214458724018186	1	1	NaN	3980195.791078	NaN	3980196.7744886	3980197.29103838
29	19	0	0	90	36.1581920903955	36.241610738255	9	0.300031380057335	2	5	1	NaN	1	4	0.466906167261505	1	1	NaN	191	4	2	2	121	221	321	NaN	521	0.202563076280057	1	1	NaN	3980198.8747132	NaN	3980199.8581178	3980200.37468012
29	19	0	0	90	36.1581920903955	36.241610738255	24	0.800083680152893	2	2	2	NaN	1	4	0.466906167261505	1	1	NaN	192	4	3	2	121	221	321	NaN	521	0.2502600280568	1	1	NaN	3980201.8749964	NaN	3980202.8584284	3980203.37497677
29	19	0	0	90	36.1581920903955	36.241610738255	0	0	1	9	3	NaN	2	3	0.466906167261505	1	1	NaN	193	4	4	2	111	211	311	NaN	511	0.0753748244605958	1	0	NaN	3980204.4419445	NaN	3980205.4253908	3980205.94189278
29	19	0	0	90	36.1581920903955	36.241610738255	10	0.333368200063705	2	3	2	NaN	1	3	0.466906167261505	1	1	NaN	194	4	5	2	121	221	321	NaN	521	0.6118398681283	1	1	NaN	3980206.8253593	NaN	3980207.8089147	3980208.32545493
29	19	0	0	90	36.1581920903955	36.241610738255	17	0.566725940108299	2	11	2	NaN	2	3	0.466906167261505	1	1	NaN	195	4	6	2	121	221	321	NaN	521	0.311153875663877	2	1	NaN	3980209.7423413	NaN	3980210.7259215	3980211.24241202
29	19	0	0	90	36.1581920903955	36.241610738255	20	0.666736400127411	2	10	2	NaN	2	3	0.466906167261505	1	1	NaN	196	4	7	2	121	221	321	NaN	521	0.0300044282339513	2	1	NaN	3980212.3593987	NaN	3980213.3427999	3980213.85934217
29	19	0	0	90	36.1581920903955	36.241610738255	16	0.533389120101929	2	8	2	NaN	2	4	0.466906167261505	1	1	NaN	197	4	8	2	121	221	321	NaN	521	0.247592575848103	2	1	NaN	3980214.7096215	NaN	3980215.6930684	3980216.20956592
29	19	0	0	90	36.1581920903955	36.241610738255	15	0.500052300095558	2	6	6	NaN	1	4	0.466906167261505	1	1	NaN	198	4	9	2	121	221	321	NaN	521	0.160763812251389	2	0	NaN	3980217.2765353	NaN	3980218.2599295	3980218.77647769
29	19	0	0	90	36.1581920903955	36.241610738255	17	0.566725940108299	2	8	2	NaN	2	4	0.466906167261505	1	1	NaN	199	4	10	2	121	221	321	NaN	521	0.0373422279953957	2	1	NaN	3980219.7601098	NaN	3980220.7435081	3980221.26006277
29	19	0	0	90	36.1581920903955	36.241610738255	10	0.333368200063705	2	5	6	NaN	1	4	0.466906167261505	1	1	NaN	200	4	11	2	121	221	321	NaN	521	0.0950388279743493	2	0	NaN	3980222.1103317	NaN	3980223.0937458	3980223.61029927
29	19	0	0	90	36.1581920903955	36.241610738255	19	0.63339958012104	2	10	1	NaN	2	5	0.466906167261505	1	1	NaN	201	4	12	2	121	221	321	NaN	521	0.126169024035335	2	1	NaN	3980224.5272459	NaN	3980225.5106487	3980226.02719098
29	19	0	0	90	36.1581920903955	36.241610738255	19	0.63339958012104	2	10	1	NaN	2	3	0.466906167261505	1	1	NaN	202	4	13	2	121	221	321	NaN	521	0.333291328512132	2	1	NaN	3980227.3440658	NaN	3980228.327594	3980228.84414667
29	19	0	0	90	36.1581920903955	36.241610738255	8	0.266694560050964	2	3	2	NaN	1	4	0.466906167261505	1	1	NaN	203	4	14	2	121	221	321	NaN	521	0.643398027867079	1	1	NaN	3980229.9777861	NaN	3980230.9611809	3980231.47773517
29	19	0	0	90	36.1581920903955	36.241610738255	10	0.333368200063705	2	11	2	NaN	2	5	0.466906167261505	1	1	NaN	204	4	15	2	121	221	321	NaN	521	0.277065676171333	1	0	NaN	3980232.9280803	NaN	3980233.9114737	3980234.42801472
29	19	0	0	90	36.1581920903955	36.241610738255	17	0.566725940108299	2	8	4	NaN	2	3	0.466906167261505	1	1	NaN	205	4	16	2	121	221	321	NaN	521	0.101753476075828	2	1	NaN	3980235.5116715	NaN	3980236.4950571	3980237.01161072
29	19	0	0	90	36.1581920903955	36.241610738255	14	0.466715480089188	2	10	5	NaN	2	5	0.466906167261505	1	1	NaN	206	4	17	2	121	221	321	NaN	521	0.34870537603274	1	0	NaN	3980237.9285857	NaN	3980238.9119702	3980239.42850452
29	19	0	0	90	36.1581920903955	36.241610738255	15	0.500052300095558	2	8	3	NaN	2	5	0.466906167261505	1	1	NaN	207	4	18	2	121	221	321	NaN	521	0.338265764527023	2	1	NaN	3980240.595498	NaN	3980241.5788906	3980242.09543194
29	19	0	0	90	36.1581920903955	36.241610738255	11	0.366705020070076	2	8	5	NaN	2	3	0.466906167261505	1	1	NaN	208	4	19	2	121	221	321	NaN	521	0.0955721279606223	2	1	NaN	3980243.2457584	NaN	3980244.2291549	3980244.74570277
29	19	0	0	90	36.1581920903955	36.241610738255	19	0.63339958012104	2	3	4	NaN	1	5	0.466906167261505	1	1	NaN	209	4	20	2	121	221	321	NaN	521	0.175418976228684	1	1	NaN	3980245.6459913	NaN	3980246.6293853	3980247.14593952
29	19	0	0	90	36.1581920903955	36.241610738255	19	0.63339958012104	2	5	6	NaN	1	4	0.466906167261505	1	1	NaN	210	4	21	2	121	221	321	NaN	521	0.235672776121646	1	1	NaN	3980248.1295671	NaN	3980249.1129682	3980249.62950632
29	19	0	0	90	36.1581920903955	36.241610738255	11	0.366705020070076	2	12	1	NaN	2	3	0.466906167261505	1	1	NaN	211	4	22	2	121	221	321	NaN	521	0.0104130757972598	2	1	NaN	3980250.6798222	NaN	3980251.6631969	3980252.17976842
29	19	0	0	90	36.1581920903955	36.241610738255	7	0.233357740044594	2	8	1	NaN	2	4	0.466906167261505	1	1	NaN	212	4	23	2	121	221	321	NaN	521	0.0960366763174534	2	1	NaN	3980253.013396	NaN	3980253.9967826	3980254.51331942
29	19	0	0	90	36.1581920903955	36.241610738255	6	0.200020920038223	2	5	1	NaN	1	5	0.466906167261505	1	1	NaN	213	4	24	2	121	221	321	NaN	521	0.0792397763580084	1	1	NaN	3980255.4302806	NaN	3980256.4135835	3980256.93022282
29	19	0	0	90	36.1581920903955	36.241610738255	22	0.733410040140152	2	5	6	NaN	1	3	0.466906167261505	1	1	NaN	214	4	25	2	121	221	321	NaN	521	0.0548493918031454	1	1	NaN	3980257.8305245	NaN	3980258.813915	3980259.33047331
29	19	0	0	90	36.1581920903955	36.241610738255	19	0.63339958012104	2	1	5	NaN	1	3	0.466906167261505	1	1	NaN	215	4	26	2	121	221	321	NaN	521	0.0319655761122704	1	1	NaN	3980260.1972907	NaN	3980261.1808127	3980261.69735812
29	19	0	0	90	36.1581920903955	36.241610738255	0	0	1	12	6	NaN	2	3	0.466906167261505	1	1	NaN	216	4	27	2	111	211	311	NaN	511	0.113715875893831	1	0	NaN	3980262.5475088	NaN	3980263.5310501	3980264.04758942
29	19	0	0	90	36.1581920903955	36.241610738255	24	0.800083680152893	2	1	6	NaN	1	3	0.466906167261505	1	1	NaN	217	4	28	2	121	221	321	NaN	521	0.0722406762652099	1	1	NaN	3980264.981214	NaN	3980265.9646109	3980266.48116332
29	19	0	0	90	36.1581920903955	36.241610738255	7	0.233357740044594	2	11	3	NaN	2	4	0.466906167261505	1	1	NaN	218	4	29	2	121	221	321	NaN	521	0.040731624700129	1	0	NaN	3980267.3647001	NaN	3980268.3481874	3980268.86473688
29	19	0	0	90	36.1581920903955	36.241610738255	23	0.766746860146523	2	8	6	NaN	2	4	0.466906167261505	1	1	NaN	219	4	30	2	121	221	321	NaN	521	0.274659875780344	1	0	NaN	3980269.7150195	NaN	3980270.6984058	3980271.21496712
29	19	0	0	90	36.1581920903955	36.241610738255	16	0.533389120101929	2	7	1	NaN	2	5	0.466906167261505	1	1	NaN	220	4	31	2	121	221	321	NaN	521	0.114880576264113	2	1	NaN	3980272.2986229	NaN	3980273.2820054	3980273.79854532
29	19	0	0	90	36.1581920903955	36.241610738255	11	0.366705020070076	2	5	4	NaN	1	5	0.466906167261505	1	1	NaN	221	4	32	2	121	221	321	NaN	521	0.16122367605567	1	1	NaN	3980274.7321707	NaN	3980275.7155764	3980276.23212872
29	19	0	0	90	36.1581920903955	36.241610738255	24	0.800083680152893	2	8	5	NaN	2	4	0.466906167261505	1	1	NaN	222	4	33	2	121	221	321	NaN	521	0.0376942758448422	1	0	NaN	3980277.215771	NaN	3980278.1991585	3980278.71569592
29	19	0	0	90	36.1581920903955	36.241610738255	23	0.766746860146523	2	4	4	NaN	1	4	0.466906167261505	1	1	NaN	223	4	34	2	121	221	321	NaN	521	0.175763075705618	1	1	NaN	3980279.5659867	NaN	3980280.5493592	3980281.06593232
29	19	0	0	90	36.1581920903955	36.241610738255	17	0.566725940108299	2	10	4	NaN	2	5	0.466906167261505	1	1	NaN	224	4	35	2	121	221	321	NaN	521	0.276271628215909	1	0	NaN	3980282.0495823	NaN	3980283.0329669	3980283.54951387
29	19	0	0	90	36.1581920903955	36.241610738255	21	0.700073220133781	2	8	1	NaN	2	5	0.466906167261505	1	1	NaN	225	4	36	2	121	221	321	NaN	521	6.59636887628585	2	1	NaN	3980284.6331344	NaN	3980285.6165395	3980286.13310182
29	19	0	0	90	36.1581920903955	36.241610738255	25	0.833420500159264	2	8	6	NaN	2	4	0.466906167261505	1	1	NaN	226	4	37	2	121	221	321	NaN	521	0.0795768280513585	2	1	NaN	3980293.5338965	NaN	3980294.5174183	3980295.03397627
29	19	0	0	90	36.1581920903955	36.241610738255	6	0.200020920038223	2	10	1	NaN	2	4	0.466906167261505	1	1	NaN	227	4	38	2	121	221	321	NaN	521	0.519272124394774	1	0	NaN	3980295.9342605	NaN	3980296.9176491	3980297.43419678
29	19	0	0	90	36.1581920903955	36.241610738255	25	0.833420500159264	2	3	6	NaN	1	3	0.466906167261505	1	1	NaN	228	4	39	2	121	221	321	NaN	521	0.173653727862984	1	1	NaN	3980298.7678695	NaN	3980299.7512891	3980300.26781577
29	19	0	0	90	36.1581920903955	36.241610738255	6	0.200020920038223	2	4	1	NaN	1	3	0.466906167261505	1	1	NaN	229	4	40	2	121	221	321	NaN	521	0.0421629245392978	1	1	NaN	3980301.2515429	NaN	3980302.234851	3980302.75138558
29	19	0	0	90	36.1581920903955	36.241610738255	7	0.233357740044594	2	9	5	NaN	2	4	0.466906167261505	1	1	NaN	230	4	41	2	121	221	321	NaN	521	0.0998211759142578	2	1	NaN	3980303.6016627	NaN	3980304.5850818	3980305.10161712
29	19	0	0	90	36.1581920903955	36.241610738255	24	0.800083680152893	2	3	1	NaN	1	5	0.466906167261505	1	1	NaN	231	4	42	2	121	221	321	NaN	521	0.27486592810601	1	1	NaN	3980306.0185766	NaN	3980307.0019716	3980307.51853167
29	19	0	0	90	36.1581920903955	36.241610738255	22	0.733410040140152	2	12	5	NaN	2	4	0.466906167261505	1	1	NaN	232	4	43	2	121	221	321	NaN	521	0.0993731277994812	1	0	NaN	3980308.6022651	NaN	3980309.5855496	3980310.10211997
29	19	0	0	90	36.1581920903955	36.241610738255	7	0.233357740044594	2	7	5	NaN	2	4	0.466906167261505	1	1	NaN	233	4	44	2	121	221	321	NaN	521	0.0751485759392381	1	0	NaN	3980311.002401	NaN	3980311.9858061	3980312.50234612
29	19	0	0	90	36.1581920903955	36.241610738255	13	0.433378660082817	2	9	4	NaN	2	5	0.466906167261505	1	1	NaN	234	4	45	2	121	221	321	NaN	521	0.051485360134393	2	1	NaN	3980313.3859818	NaN	3980314.3694453	3980314.88591234
29	19	0	0	90	36.1581920903955	36.241610738255	7	0.233357740044594	2	8	5	NaN	2	4	0.466906167261505	1	1	NaN	235	4	46	2	121	221	321	NaN	521	0.0606016246601939	2	1	NaN	3980315.7528652	NaN	3980316.7362655	3980317.25280818
29	19	0	0	90	36.1581920903955	36.241610738255	14	0.466715480089188	2	1	6	NaN	1	3	0.466906167261505	1	1	NaN	236	4	47	2	121	221	321	NaN	521	0.0931006278842688	1	1	NaN	3980318.1364409	NaN	3980319.1198499	3980319.63638777
29	19	0	0	90	36.1581920903955	36.241610738255	10	0.333368200063705	2	1	1	NaN	1	4	0.466906167261505	1	1	NaN	237	4	48	2	121	221	321	NaN	521	0.0928137758746743	1	1	NaN	3980320.5366975	NaN	3980321.5200833	3980322.03661282
29	19	0	0	90	36.1581920903955	36.241610738255	25	0.833420500159264	2	1	4	NaN	1	5	0.466906167261505	1	1	NaN	238	4	49	2	121	221	321	NaN	521	0.26872687600553	1	1	NaN	3980322.9369126	NaN	3980323.9203159	3980324.43684742
29	19	0	0	90	36.1581920903955	36.241610738255	21	0.700073220133781	2	4	6	NaN	1	4	0.466906167261505	1	1	NaN	239	4	50	2	121	221	321	NaN	521	0.14105082815513	1	1	NaN	3980325.5204977	NaN	3980326.5038786	3980327.02044127
29	19	0	0	90	36.1581920903955	36.241610738255	6	0.200020920038223	2	1	2	NaN	1	4	0.466906167261505	1	1	NaN	240	4	51	2	121	221	321	NaN	521	0.0103603317402303	1	1	NaN	3980327.9707396	NaN	3980328.9541358	3980329.47068677
29	19	0	0	90	36.1581920903955	36.241610738255	25	0.833420500159264	2	7	4	NaN	2	3	0.466906167261505	1	1	NaN	241	4	52	2	121	221	321	NaN	521	0.0584712722338736	1	0	NaN	3980330.3709829	NaN	3980331.3543545	3980331.87090903
29	19	0	0	90	36.1581920903955	36.241610738255	23	0.766746860146523	2	6	1	NaN	1	4	0.466906167261505	1	1	NaN	242	4	53	2	121	221	321	NaN	521	0.0276109757833183	1	1	NaN	3980332.7379079	NaN	3980333.721275	3980334.23780922
29	19	0	0	90	36.1581920903955	36.241610738255	9	0.300031380057335	2	7	5	NaN	2	4	0.466906167261505	1	1	NaN	243	4	54	2	121	221	321	NaN	521	0.0453570280224085	2	1	NaN	3980335.0880909	NaN	3980336.0714882	3980336.58804557
29	19	0	0	90	36.1581920903955	36.241610738255	24	0.800083680152893	2	9	5	NaN	2	5	0.466906167261505	1	1	NaN	244	4	55	2	121	221	321	NaN	521	0.175611728336662	2	1	NaN	3980337.4383383	NaN	3980338.4217263	3980338.93828407
29	19	0	0	90	36.1581920903955	36.241610738255	14	0.466715480089188	2	4	1	NaN	1	5	0.466906167261505	1	1	NaN	245	4	56	2	121	221	321	NaN	521	0.0104106762446463	2	0	NaN	3980339.9385735	NaN	3980340.9220251	3980341.43852542
29	19	0	0	90	36.1581920903955	36.241610738255	12	0.400041840076447	2	8	6	NaN	2	4	0.466906167261505	1	1	NaN	246	4	57	2	121	221	321	NaN	521	0.0102638443931937	2	1	NaN	3980342.2554715	NaN	3980343.2388682	3980343.75542926
29	19	0	0	90	36.1581920903955	36.241610738255	6	0.200020920038223	2	9	4	NaN	2	3	0.466906167261505	1	1	NaN	247	4	58	2	121	221	321	NaN	521	0.200517372228205	2	1	NaN	3980344.5890773	NaN	3980345.5724264	3980346.08898673
29	19	0	0	90	36.1581920903955	36.241610738255	10	0.333368200063705	2	4	1	NaN	1	4	0.466906167261505	1	1	NaN	248	4	59	2	121	221	321	NaN	521	0.0594574199058115	2	0	NaN	3980347.1059539	NaN	3980348.0893581	3980348.60589168
29	19	0	0	90	36.1581920903955	36.241610738255	0	0	1	3	5	NaN	1	4	0.466906167261505	1	1	NaN	249	4	60	2	111	211	311	NaN	511	0.39690962433815	2	0	NaN	3980349.4728389	NaN	3980350.4562325	3980350.97278558
29	19	0	0	90	36.1581920903955	36.241610738255	6	0.200020920038223	2	8	5	NaN	2	5	0.466906167261505	1	1	NaN	250	4	61	2	121	221	321	NaN	521	0.0104128760285676	2	1	NaN	3980352.1731276	NaN	3980353.156495	3980353.67305622
29	19	0	0	90	36.1581920903955	36.241610738255	24	0.800083680152893	2	6	1	NaN	1	4	0.466906167261505	1	1	NaN	251	4	62	2	121	221	321	NaN	521	0.651754376012832	2	0	NaN	3980354.4900323	NaN	3980355.4733983	3980355.98995342
29	19	0	0	90	36.1581920903955	36.241610738255	18	0.60006276011467	2	10	6	NaN	2	5	0.466906167261505	1	1	NaN	252	4	63	2	121	221	321	NaN	521	0.100680692121387	2	1	NaN	3980357.4568262	NaN	3980358.4404039	3980358.95690871
29	19	0	0	90	36.1581920903955	36.241610738255	25	0.833420500159264	2	12	1	NaN	2	4	0.466906167261505	1	1	NaN	253	5	1	2	121	221	321	NaN	521	0.29656827589497	2	1	NaN	3980412.6290664	NaN	3980413.6124447	3980414.12898222
29	19	0	0	90	36.1581920903955	36.241610738255	19	0.63339958012104	2	2	2	NaN	1	4	0.466906167261505	1	1	NaN	254	5	2	2	121	221	321	NaN	521	0.216299875639379	1	1	NaN	3980415.2291764	NaN	3980416.2127305	3980416.72924892
29	19	0	0	90	36.1581920903955	36.241610738255	25	0.833420500159264	2	1	2	NaN	1	4	0.466906167261505	1	1	NaN	255	5	3	2	121	221	321	NaN	521	0.0104277757927775	1	1	NaN	3980417.7628748	NaN	3980418.7462822	3980419.26282012
29	19	0	0	90	36.1581920903955	36.241610738255	14	0.466715480089188	2	9	2	NaN	2	5	0.466906167261505	1	1	NaN	256	5	4	2	121	221	321	NaN	521	0.173953076358885	1	0	NaN	3980420.0797845	NaN	3980421.0631908	3980421.57971552
29	19	0	0	90	36.1581920903955	36.241610738255	20	0.666736400127411	2	7	3	NaN	2	5	0.466906167261505	1	1	NaN	257	5	5	2	121	221	321	NaN	521	0.090312528423965	1	0	NaN	3980422.5632295	NaN	3980423.5467572	3980424.06330477
29	19	0	0	90	36.1581920903955	36.241610738255	9	0.300031380057335	2	12	3	NaN	2	3	0.466906167261505	1	1	NaN	258	5	6	2	121	221	321	NaN	521	0.138101036660373	1	0	NaN	3980424.9635977	NaN	3980425.946999	3980426.46354106
29	19	0	0	90	36.1581920903955	36.241610738255	23	0.766746860146523	2	6	5	NaN	1	3	0.466906167261505	1	1	NaN	259	5	7	2	121	221	321	NaN	521	0.383528776001185	1	1	NaN	3980427.4138489	NaN	3980428.3972232	3980428.91376632
29	19	0	0	90	36.1581920903955	36.241610738255	22	0.733410040140152	2	5	5	NaN	1	5	0.466906167261505	1	1	NaN	260	5	8	2	121	221	321	NaN	521	0.0103941280394793	1	1	NaN	3980430.4640116	NaN	3980431.4475357	3980431.96408037
29	19	0	0	90	36.1581920903955	36.241610738255	17	0.566725940108299	2	3	2	NaN	1	5	0.466906167261505	1	1	NaN	261	5	9	2	121	221	321	NaN	521	0.0324764759279788	1	1	NaN	3980432.78105	NaN	3980433.764422	3980434.28096102
29	19	0	0	90	36.1581920903955	36.241610738255	12	0.400041840076447	2	8	4	NaN	2	4	0.466906167261505	1	1	NaN	262	5	10	2	121	221	321	NaN	521	0.754263728391379	2	1	NaN	3980435.1312563	NaN	3980436.1146475	3980436.63120437
29	19	0	0	90	36.1581920903955	36.241610738255	9	0.300031380057335	2	12	5	NaN	2	4	0.466906167261505	1	1	NaN	263	5	11	2	121	221	321	NaN	521	0.207486276049167	1	0	NaN	3980438.1982249	NaN	3980439.1816099	3980439.69815742
29	19	0	0	90	36.1581920903955	36.241610738255	19	0.63339958012104	2	1	1	NaN	1	3	0.466906167261505	1	1	NaN	264	5	12	2	121	221	321	NaN	521	0.0984748243354261	1	1	NaN	3980440.7151498	NaN	3980441.6985599	3980442.21507898
29	19	0	0	90	36.1581920903955	36.241610738255	15	0.500052300095558	2	10	5	NaN	2	3	0.466906167261505	1	1	NaN	265	5	13	2	121	221	321	NaN	521	0.0104073761031032	1	0	NaN	3980443.1320493	NaN	3980444.1154365	3980444.63197562
29	19	0	0	90	36.1581920903955	36.241610738255	0	0	1	8	6	NaN	2	3	0.466906167261505	1	1	NaN	266	5	14	2	111	211	311	NaN	511	0.0920473281294107	1	0	NaN	3980445.4656186	NaN	3980446.4489972	3980446.96553867
29	19	0	0	90	36.1581920903955	36.241610738255	11	0.366705020070076	2	10	6	NaN	2	4	0.466906167261505	1	1	NaN	267	5	15	2	121	221	321	NaN	521	0.739756776019931	2	1	NaN	3980447.865832	NaN	3980448.8492322	3980449.36577562
29	19	0	0	90	36.1581920903955	36.241610738255	20	0.666736400127411	2	11	6	NaN	2	5	0.466906167261505	1	1	NaN	268	5	16	2	121	221	321	NaN	521	0.0895860241726041	2	1	NaN	3980450.9161376	NaN	3980451.8995298	3980452.41608088
29	19	0	0	90	36.1581920903955	36.241610738255	13	0.433378660082817	2	2	6	NaN	1	3	0.466906167261505	1	1	NaN	269	5	17	2	121	221	321	NaN	521	0.145264128223062	1	1	NaN	3980453.3163832	NaN	3980454.2997903	3980454.81632307
29	19	0	0	90	36.1581920903955	36.241610738255	14	0.466715480089188	2	2	4	NaN	1	4	0.466906167261505	1	1	NaN	270	5	18	2	121	221	321	NaN	521	0.310443724505603	1	1	NaN	3980455.7832818	NaN	3980456.7666642	3980457.28322098
29	19	0	0	90	36.1581920903955	36.241610738255	25	0.833420500159264	2	10	6	NaN	2	4	0.466906167261505	1	1	NaN	271	5	19	2	121	221	321	NaN	521	0.0292887440882623	2	1	NaN	3980458.4002023	NaN	3980459.3835958	3980459.90015626
29	19	0	0	90	36.1581920903955	36.241610738255	11	0.366705020070076	2	9	5	NaN	2	4	0.466906167261505	1	1	NaN	272	5	20	2	121	221	321	NaN	521	0.15130282426253	2	1	NaN	3980460.7504305	NaN	3980461.733817	3980462.25037218
29	19	0	0	90	36.1581920903955	36.241610738255	11	0.366705020070076	2	4	3	NaN	1	5	0.466906167261505	1	1	NaN	273	5	21	2	121	221	321	NaN	521	0.116642028558999	1	1	NaN	3980463.2173564	NaN	3980464.2007928	3980464.71728877
29	19	0	0	90	36.1581920903955	36.241610738255	10	0.333368200063705	2	8	1	NaN	2	4	0.466906167261505	1	1	NaN	274	5	22	2	121	221	321	NaN	521	0.0104305758140981	2	1	NaN	3980465.650814	NaN	3980466.6343135	3980467.15086002
29	19	0	0	90	36.1581920903955	36.241610738255	8	0.266694560050964	2	3	3	NaN	1	5	0.466906167261505	1	1	NaN	275	5	23	2	121	221	321	NaN	521	0.141995828133076	1	1	NaN	3980467.9678034	NaN	3980468.9511968	3980469.46775987
29	19	0	0	90	36.1581920903955	36.241610738255	16	0.533389120101929	2	10	2	NaN	2	4	0.466906167261505	1	1	NaN	276	5	24	2	121	221	321	NaN	521	0.0596658284775913	2	1	NaN	3980470.4180859	NaN	3980471.4014475	3980471.91799087
29	19	0	0	90	36.1581920903955	36.241610738255	15	0.500052300095558	2	5	2	NaN	1	4	0.466906167261505	1	1	NaN	277	5	25	2	121	221	321	NaN	521	0.0520537761040032	1	1	NaN	3980472.8014803	NaN	3980473.7850267	3980474.30155422
29	19	0	0	90	36.1581920903955	36.241610738255	18	0.60006276011467	2	5	4	NaN	1	4	0.466906167261505	1	1	NaN	278	5	26	2	121	221	321	NaN	521	0.0453273244202137	1	1	NaN	3980475.1685124	NaN	3980476.1519079	3980476.66845708
29	19	0	0	90	36.1581920903955	36.241610738255	13	0.433378660082817	2	8	1	NaN	2	5	0.466906167261505	1	1	NaN	279	5	27	2	121	221	321	NaN	521	0.0471088285557926	2	1	NaN	3980477.5187451	NaN	3980478.5021499	3980479.01869847
29	19	0	0	90	36.1581920903955	36.241610738255	15	0.500052300095558	2	5	4	NaN	1	3	0.466906167261505	1	1	NaN	280	5	28	2	121	221	321	NaN	521	0.128794680349529	2	0	NaN	3980479.8689438	NaN	3980480.8523726	3980481.36892652
29	19	0	0	90	36.1581920903955	36.241610738255	25	0.833420500159264	2	4	6	NaN	1	3	0.466906167261505	1	1	NaN	281	5	29	2	121	221	321	NaN	521	0.17461898829788	1	1	NaN	3980482.3192299	NaN	3980483.3026355	3980483.81917411
29	19	0	0	90	36.1581920903955	36.241610738255	8	0.266694560050964	2	10	4	NaN	2	3	0.466906167261505	1	1	NaN	282	5	30	2	121	221	321	NaN	521	0.114964172244072	1	0	NaN	3980484.8028168	NaN	3980485.7861861	3980486.30273033
29	19	0	0	90	36.1581920903955	36.241610738255	21	0.700073220133781	2	5	5	NaN	1	5	0.466906167261505	1	1	NaN	283	5	31	2	121	221	321	NaN	521	0.161451275926083	1	1	NaN	3980487.2363731	NaN	3980488.2197719	3980488.73630542
29	19	0	0	90	36.1581920903955	36.241610738255	0	0	1	2	3	NaN	1	3	0.466906167261505	1	1	NaN	284	5	32	2	111	211	311	NaN	511	0.0104133756831288	1	1	NaN	3980489.7032782	NaN	3980490.6866632	3980491.20321672
29	19	0	0	90	36.1581920903955	36.241610738255	21	0.700073220133781	2	9	2	NaN	2	3	0.466906167261505	1	1	NaN	285	5	33	2	121	221	321	NaN	521	0.0249457759782672	2	1	NaN	3980492.0368418	NaN	3980493.020232	3980493.53677442
29	19	0	0	90	36.1581920903955	36.241610738255	18	0.60006276011467	2	1	2	NaN	1	3	0.466906167261505	1	1	NaN	286	5	34	2	121	221	321	NaN	521	0.259785524569452	1	1	NaN	3980494.3703905	NaN	3980495.3538686	3980495.87034748
29	19	0	0	90	36.1581920903955	36.241610738255	24	0.800083680152893	2	3	3	NaN	1	4	0.466906167261505	1	1	NaN	287	5	35	2	121	221	321	NaN	521	0.132747844327241	1	1	NaN	3980496.9372132	NaN	3980497.920714	3980498.43727426
29	19	0	0	90	36.1581920903955	36.241610738255	6	0.200020920038223	2	2	1	NaN	1	3	0.466906167261505	1	1	NaN	288	5	36	2	121	221	321	NaN	521	0.0822164760902524	1	1	NaN	3980499.3874346	NaN	3980500.3709511	3980500.88751042
29	19	0	0	90	36.1581920903955	36.241610738255	25	0.833420500159264	2	2	5	NaN	1	5	0.466906167261505	1	1	NaN	289	5	37	2	121	221	321	NaN	521	0.537943728268147	1	1	NaN	3980501.7876598	NaN	3980502.7712564	3980503.28773187
29	19	0	0	90	36.1581920903955	36.241610738255	21	0.700073220133781	2	7	1	NaN	2	3	0.466906167261505	1	1	NaN	290	5	38	2	121	221	321	NaN	521	0.0103835803456604	1	0	NaN	3980504.6380661	NaN	3980505.621453	3980506.13802012
29	19	0	0	90	36.1581920903955	36.241610738255	13	0.433378660082817	2	3	6	NaN	1	4	0.466906167261505	1	1	NaN	291	5	39	2	121	221	321	NaN	521	0.0188256758265197	1	1	NaN	3980506.954896	NaN	3980507.9383898	3980508.45490892
29	19	0	0	90	36.1581920903955	36.241610738255	22	0.733410040140152	2	3	2	NaN	1	4	0.466906167261505	1	1	NaN	292	5	40	2	121	221	321	NaN	521	0.393362076021731	1	1	NaN	3980510.3886108	NaN	3980511.3720273	3980511.88858132
29	19	0	0	90	36.1581920903955	36.241610738255	9	0.300031380057335	2	10	3	NaN	2	5	0.466906167261505	1	1	NaN	293	5	41	2	121	221	321	NaN	521	0.0241708760149777	2	1	NaN	3980513.4055768	NaN	3980514.3889982	3980514.90554222
29	19	0	0	90	36.1581920903955	36.241610738255	18	0.60006276011467	2	4	6	NaN	1	4	0.466906167261505	1	1	NaN	294	5	42	2	121	221	321	NaN	521	0.370601424016058	1	1	NaN	3980515.7391591	NaN	3980516.7225527	3980517.23910208
29	19	0	0	90	36.1581920903955	36.241610738255	11	0.366705020070076	2	7	2	NaN	2	5	0.466906167261505	1	1	NaN	295	5	43	2	121	221	321	NaN	521	0.151057728100568	2	1	NaN	3980518.4227712	NaN	3980519.4061632	3980519.92271197
29	19	0	0	90	36.1581920903955	36.241610738255	10	0.333368200063705	2	6	6	NaN	1	4	0.466906167261505	1	1	NaN	296	5	44	2	121	221	321	NaN	521	0.0102899479679763	1	1	NaN	3980520.8896802	NaN	3980521.8730603	3980522.38962275
29	19	0	0	90	36.1581920903955	36.241610738255	24	0.800083680152893	2	4	6	NaN	1	3	0.466906167261505	1	1	NaN	297	5	45	2	121	221	321	NaN	521	0.0229150280356407	1	1	NaN	3980523.2064429	NaN	3980524.1899621	3980524.70651437
29	19	0	0	90	36.1581920903955	36.241610738255	15	0.500052300095558	2	9	5	NaN	2	5	0.466906167261505	1	1	NaN	298	5	46	2	121	221	321	NaN	521	0.13797009177506	2	1	NaN	3980525.5401815	NaN	3980526.5235254	3980527.04006751
29	19	0	0	90	36.1581920903955	36.241610738255	6	0.200020920038223	2	4	5	NaN	1	5	0.466906167261505	1	1	NaN	299	5	47	2	121	221	321	NaN	521	0.207325776107609	1	1	NaN	3980527.9903821	NaN	3980528.9737892	3980529.49030552
29	19	0	0	90	36.1581920903955	36.241610738255	8	0.266694560050964	2	2	6	NaN	1	4	0.466906167261505	1	1	NaN	300	5	48	2	121	221	321	NaN	521	0.0104072759859264	1	1	NaN	3980530.5072791	NaN	3980531.4906592	3980532.00722852
29	19	0	0	90	36.1581920903955	36.241610738255	24	0.800083680152893	2	7	1	NaN	2	5	0.466906167261505	1	1	NaN	301	5	49	2	121	221	321	NaN	521	0.0103909284807742	2	1	NaN	3980532.8408551	NaN	3980533.8242393	3980534.34078577
29	19	0	0	90	36.1581920903955	36.241610738255	9	0.300031380057335	2	11	3	NaN	2	3	0.466906167261505	1	1	NaN	302	5	50	2	121	221	321	NaN	521	0.197377088014036	1	0	NaN	3980535.4244649	NaN	3980536.4078222	3980536.92437591
29	19	0	0	90	36.1581920903955	36.241610738255	25	0.833420500159264	2	6	5	NaN	1	4	0.466906167261505	1	1	NaN	303	5	51	2	121	221	321	NaN	521	0.0412010760046542	1	1	NaN	3980537.9247118	NaN	3980538.9081237	3980539.42461452
29	19	0	0	90	36.1581920903955	36.241610738255	6	0.200020920038223	2	7	6	NaN	2	4	0.466906167261505	1	1	NaN	304	5	52	2	121	221	321	NaN	521	0.0830077803693712	1	0	NaN	3980540.2747745	NaN	3980541.2582913	3980541.77485682
29	19	0	0	90	36.1581920903955	36.241610738255	18	0.60006276011467	2	11	1	NaN	2	4	0.466906167261505	1	1	NaN	305	5	53	2	121	221	321	NaN	521	0.458536576479673	1	0	NaN	3980542.6751571	NaN	3980543.6585373	3980544.17508522
29	19	0	0	90	36.1581920903955	36.241610738255	15	0.500052300095558	2	12	2	NaN	2	3	0.466906167261505	1	1	NaN	306	5	54	2	121	221	321	NaN	521	0.0411102245561779	2	1	NaN	3980545.9087798	NaN	3980546.8921848	3980547.40873358
29	19	0	0	90	36.1581920903955	36.241610738255	23	0.766746860146523	2	4	5	NaN	1	5	0.466906167261505	1	1	NaN	307	5	55	2	121	221	321	NaN	521	0.114906776230782	1	1	NaN	3980548.2588876	NaN	3980549.2424183	3980549.75896592
29	19	0	0	90	36.1581920903955	36.241610738255	9	0.300031380057335	2	8	3	NaN	2	3	0.466906167261505	1	1	NaN	308	5	56	2	121	221	321	NaN	521	0.121983375865966	1	0	NaN	3980550.6759978	NaN	3980551.6593509	3980552.17587402
29	19	0	0	90	36.1581920903955	36.241610738255	16	0.533389120101929	2	6	1	NaN	1	4	0.466906167261505	1	1	NaN	309	5	57	2	121	221	321	NaN	521	0.0803579762578011	1	1	NaN	3980553.1094954	NaN	3980554.0929018	3980554.60944112
29	19	0	0	90	36.1581920903955	36.241610738255	6	0.200020920038223	2	11	1	NaN	2	4	0.466906167261505	1	1	NaN	310	5	58	2	121	221	321	NaN	521	0.0104225245304406	2	1	NaN	3980555.5097326	NaN	3980556.4931343	3980557.00967298
29	19	0	0	90	36.1581920903955	36.241610738255	14	0.466715480089188	2	5	3	NaN	1	4	0.466906167261505	1	1	NaN	311	5	59	2	121	221	321	NaN	521	0.522407775744796	1	1	NaN	3980557.8431636	NaN	3980558.8266913	3980559.34323562
29	19	0	0	90	36.1581920903955	36.241610738255	21	0.700073220133781	2	6	3	NaN	1	5	0.466906167261505	1	1	NaN	312	5	60	2	121	221	321	NaN	521	0.368969524279237	1	1	NaN	3980560.6768948	NaN	3980561.6602964	3980562.17685478
29	19	0	0	90	36.1581920903955	36.241610738255	0	0	1	1	3	NaN	1	5	0.466906167261505	1	1	NaN	313	5	61	2	111	211	311	NaN	511	0.849830476101488	2	0	NaN	3980563.6437368	NaN	3980564.6272629	3980565.14380282
29	19	0	0	90	36.1581920903955	36.241610738255	11	0.366705020070076	2	9	2	NaN	2	3	0.466906167261505	1	1	NaN	314	5	62	2	121	221	321	NaN	521	0.282977975904942	2	1	NaN	3980566.8107144	NaN	3980567.7942242	3980568.31078072
29	19	0	0	90	36.1581920903955	36.241610738255	6	0.200020920038223	2	1	3	NaN	1	4	0.466906167261505	1	1	NaN	315	5	63	2	121	221	321	NaN	521	0.0427043442614377	1	1	NaN	3980569.411095	NaN	3980570.3944881	3980570.91105106
29	19	0	0	90	36.1581920903955	36.241610738255	0	0	1	4	5	NaN	1	5	0.466906167261505	1	1	NaN	316	6	1	2	111	211	311	NaN	511	0.209498928394169	1	1	NaN	3980574.0281822	NaN	3980575.01158	3980575.52816427
29	19	0	0	90	36.1581920903955	36.241610738255	18	0.60006276011467	2	6	6	NaN	1	5	0.466906167261505	1	1	NaN	317	6	2	2	121	221	321	NaN	521	0.0353736239485443	1	1	NaN	3980576.7784916	NaN	3980577.7618826	3980578.27842728
29	19	0	0	90	36.1581920903955	36.241610738255	8	0.266694560050964	2	8	2	NaN	2	3	0.466906167261505	1	1	NaN	318	6	3	2	121	221	321	NaN	521	1.03694287594408	2	1	NaN	3980579.1287052	NaN	3980580.1121178	3980580.62865622
29	19	0	0	90	36.1581920903955	36.241610738255	10	0.333368200063705	2	11	3	NaN	2	4	0.466906167261505	1	1	NaN	319	6	4	2	121	221	321	NaN	521	0.0550359440967441	2	1	NaN	3980582.4790425	NaN	3980583.4624474	3980583.97899506
29	19	0	0	90	36.1581920903955	36.241610738255	17	0.566725940108299	2	12	2	NaN	2	5	0.466906167261505	1	1	NaN	320	6	5	2	121	221	321	NaN	521	0.010410375893116	2	1	NaN	3980584.8459675	NaN	3980585.8293721	3980586.34588382
29	19	0	0	90	36.1581920903955	36.241610738255	19	0.63339958012104	2	12	4	NaN	2	5	0.466906167261505	1	1	NaN	321	6	6	2	121	221	321	NaN	521	0.139657176099718	2	1	NaN	3980587.3460645	NaN	3980588.3296052	3980588.84613472
29	19	0	0	90	36.1581920903955	36.241610738255	20	0.666736400127411	2	3	5	NaN	1	4	0.466906167261505	1	1	NaN	322	6	7	2	121	221	321	NaN	521	0.0733322761952877	1	1	NaN	3980589.7964357	NaN	3980590.7798318	3980591.29637212
29	19	0	0	90	36.1581920903955	36.241610738255	21	0.700073220133781	2	11	2	NaN	2	5	0.466906167261505	1	1	NaN	323	6	8	2	121	221	321	NaN	521	0.0178939281031489	2	1	NaN	3980592.1800208	NaN	3980593.1633894	3980593.67994687
29	19	0	0	90	36.1581920903955	36.241610738255	18	0.60006276011467	2	4	5	NaN	1	4	0.466906167261505	1	1	NaN	324	6	9	2	121	221	321	NaN	521	0.740216528065503	1	1	NaN	3980594.5135524	NaN	3980595.4969698	3980596.01351337
29	19	0	0	90	36.1581920903955	36.241610738255	12	0.400041840076447	2	6	2	NaN	1	3	0.466906167261505	1	1	NaN	325	6	10	2	121	221	321	NaN	521	0.409931524656713	1	1	NaN	3980597.563858	NaN	3980598.5472312	3980599.06379998
29	19	0	0	90	36.1581920903955	36.241610738255	20	0.666736400127411	2	5	3	NaN	1	4	0.466906167261505	1	1	NaN	326	6	11	2	121	221	321	NaN	521	0.0104157757014036	1	1	NaN	3980600.2974967	NaN	3980601.2808512	3980601.79739992
29	19	0	0	90	36.1581920903955	36.241610738255	13	0.433378660082817	2	11	4	NaN	2	4	0.466906167261505	1	1	NaN	327	6	12	2	121	221	321	NaN	521	0.743506175931543	1	0	NaN	3980602.6143532	NaN	3980603.5977537	3980604.11432522
29	19	0	0	90	36.1581920903955	36.241610738255	6	0.200020920038223	2	2	3	NaN	1	3	0.466906167261505	1	1	NaN	328	6	13	2	121	221	321	NaN	521	1.98119997605681	1	1	NaN	3980605.6646612	NaN	3980606.6480473	3980607.16461462
29	19	0	0	90	36.1581920903955	36.241610738255	24	0.800083680152893	2	12	6	NaN	2	4	0.466906167261505	1	1	NaN	329	6	14	2	121	221	321	NaN	521	0.112733184359968	2	1	NaN	3980609.9650724	NaN	3980610.9484502	3980611.46501992
29	19	0	0	90	36.1581920903955	36.241610738255	23	0.766746860146523	2	5	3	NaN	1	5	0.466906167261505	1	1	NaN	330	6	15	2	121	221	321	NaN	521	0.127158524468541	1	1	NaN	3980612.3986521	NaN	3980613.3820695	3980613.89859238
29	19	0	0	90	36.1581920903955	36.241610738255	8	0.266694560050964	2	5	2	NaN	1	3	0.466906167261505	1	1	NaN	331	6	16	2	121	221	321	NaN	521	0.0937733724713326	1	1	NaN	3980614.8320708	NaN	3980615.8156162	3980616.33216513
29	19	0	0	90	36.1581920903955	36.241610738255	17	0.566725940108299	2	6	2	NaN	1	4	0.466906167261505	1	1	NaN	332	6	17	2	121	221	321	NaN	521	0.0614682757295668	1	1	NaN	3980617.2324817	NaN	3980618.21586	3980618.73239582
29	19	0	0	90	36.1581920903955	36.241610738255	0	0	1	2	1	NaN	1	4	0.466906167261505	1	1	NaN	333	6	18	2	111	211	311	NaN	511	0.0865262760780752	1	1	NaN	3980619.5993561	NaN	3980620.5827786	3980621.09930262
29	19	0	0	90	36.1581920903955	36.241610738255	23	0.766746860146523	2	2	6	NaN	1	4	0.466906167261505	1	1	NaN	334	6	19	2	121	221	321	NaN	521	0.1983093759045	1	1	NaN	3980621.999465	NaN	3980622.9829997	3980623.49953062
29	19	0	0	90	36.1581920903955	36.241610738255	14	0.466715480089188	2	11	1	NaN	2	3	0.466906167261505	1	1	NaN	335	6	20	2	121	221	321	NaN	521	0.54549727588892	2	1	NaN	3980624.5165067	NaN	3980625.4999471	3980626.01645552
29	19	0	0	90	36.1581920903955	36.241610738255	0	0	1	6	5	NaN	1	3	0.466906167261505	1	1	NaN	336	6	21	2	111	211	311	NaN	511	0.198521476238966	1	1	NaN	3980627.3834723	NaN	3980628.3668426	3980628.88339312
29	19	0	0	90	36.1581920903955	36.241610738255	16	0.533389120101929	2	9	3	NaN	2	5	0.466906167261505	1	1	NaN	337	6	22	2	121	221	321	NaN	521	0.185637719929218	2	1	NaN	3980629.9004191	NaN	3980630.8837618	3980631.40030458
29	19	0	0	90	36.1581920903955	36.241610738255	16	0.533389120101929	2	2	3	NaN	1	4	0.466906167261505	1	1	NaN	338	6	23	2	121	221	321	NaN	521	0.109312376007438	1	1	NaN	3980632.4006061	NaN	3980633.384083	3980633.90054922
29	19	0	0	90	36.1581920903955	36.241610738255	8	0.266694560050964	2	9	1	NaN	2	3	0.466906167261505	1	1	NaN	339	6	24	2	121	221	321	NaN	521	0.0197073756717145	2	1	NaN	3980634.8341743	NaN	3980635.817609	3980636.33413322
29	19	0	0	90	36.1581920903955	36.241610738255	7	0.233357740044594	2	5	4	NaN	1	4	0.466906167261505	1	1	NaN	340	6	25	2	121	221	321	NaN	521	0.0104540758766234	1	1	NaN	3980637.1677401	NaN	3980638.1511486	3980638.66768752
29	19	0	0	90	36.1581920903955	36.241610738255	20	0.666736400127411	2	9	3	NaN	2	5	0.466906167261505	1	1	NaN	341	6	26	2	121	221	321	NaN	521	0.185296776238829	2	1	NaN	3980639.4846118	NaN	3980640.468033	3980640.98458852
29	19	0	0	90	36.1581920903955	36.241610738255	21	0.700073220133781	2	6	3	NaN	1	3	0.466906167261505	1	1	NaN	342	6	27	2	121	221	321	NaN	521	0.0370301762595773	1	1	NaN	3980641.9848764	NaN	3980642.9682824	3980643.48482372
29	19	0	0	90	36.1581920903955	36.241610738255	11	0.366705020070076	2	3	1	NaN	1	5	0.466906167261505	1	1	NaN	343	6	28	2	121	221	321	NaN	521	0.151170224417001	1	1	NaN	3980644.3351157	NaN	3980645.3185091	3980645.83505378
29	19	0	0	90	36.1581920903955	36.241610738255	16	0.533389120101929	2	11	6	NaN	2	4	0.466906167261505	1	1	NaN	344	6	29	2	121	221	321	NaN	521	0.124170275870711	1	0	NaN	3980646.8020141	NaN	3980647.7854297	3980648.30196832
29	19	0	0	90	36.1581920903955	36.241610738255	12	0.400041840076447	2	4	4	NaN	1	4	0.466906167261505	1	1	NaN	345	6	30	2	121	221	321	NaN	521	0.0663839243352413	1	1	NaN	3980649.2356987	NaN	3980650.2189878	3980650.73554618
29	19	0	0	90	36.1581920903955	36.241610738255	11	0.366705020070076	2	2	5	NaN	1	3	0.466906167261505	1	1	NaN	346	6	31	2	121	221	321	NaN	521	0.0748173757456243	1	1	NaN	3980651.619151	NaN	3980652.6025484	3980653.11910212
29	19	0	0	90	36.1581920903955	36.241610738255	20	0.666736400127411	2	12	3	NaN	2	5	0.466906167261505	1	1	NaN	347	6	32	2	121	221	321	NaN	521	0.611618028022349	1	0	NaN	3980654.0027309	NaN	3980654.9861304	3980655.50267907
29	19	0	0	90	36.1581920903955	36.241610738255	11	0.366705020070076	2	6	6	NaN	1	3	0.466906167261505	1	1	NaN	348	6	33	2	121	221	321	NaN	521	0.133920376189053	1	1	NaN	3980656.9363842	NaN	3980657.9197663	3980658.43629292
29	19	0	0	90	36.1581920903955	36.241610738255	13	0.433378660082817	2	12	5	NaN	2	3	0.466906167261505	1	1	NaN	349	6	34	2	121	221	321	NaN	521	0.104616875760257	1	0	NaN	3980659.453142	NaN	3980660.4366567	3980660.95321552
29	19	0	0	90	36.1581920903955	36.241610738255	13	0.433378660082817	2	5	3	NaN	1	3	0.466906167261505	1	1	NaN	350	6	35	2	121	221	321	NaN	521	0.0104287760332227	1	1	NaN	3980661.8700608	NaN	3980662.8535686	3980663.37010952
29	19	0	0	90	36.1581920903955	36.241610738255	22	0.733410040140152	2	10	1	NaN	2	4	0.466906167261505	1	1	NaN	351	6	36	2	121	221	321	NaN	521	0.106917475815862	2	1	NaN	3980664.1870823	NaN	3980665.1704574	3980665.68700902
29	19	0	0	90	36.1581920903955	36.241610738255	18	0.60006276011467	2	12	1	NaN	2	3	0.466906167261505	1	1	NaN	352	6	37	2	121	221	321	NaN	521	0.0501085761934519	2	1	NaN	3980666.6038392	NaN	3980667.5873624	3980668.10390892
29	19	0	0	90	36.1581920903955	36.241610738255	17	0.566725940108299	2	12	5	NaN	2	3	0.466906167261505	1	1	NaN	353	6	38	2	121	221	321	NaN	521	0.0917869759723544	2	1	NaN	3980669.3541016	NaN	3980670.3376702	3980670.85418902
29	19	0	0	90	36.1581920903955	36.241610738255	9	0.300031380057335	2	7	4	NaN	2	4	0.466906167261505	1	1	NaN	354	6	39	2	121	221	321	NaN	521	0.187403075862676	2	1	NaN	3980671.7544321	NaN	3980672.7378721	3980673.25441472
29	19	0	0	90	36.1581920903955	36.241610738255	10	0.333368200063705	2	9	2	NaN	2	5	0.466906167261505	1	1	NaN	355	6	40	2	121	221	321	NaN	521	0.359088475815952	2	1	NaN	3980674.2547146	NaN	3980675.2381075	3980675.75465912
29	19	0	0	90	36.1581920903955	36.241610738255	20	0.666736400127411	2	10	6	NaN	2	3	0.466906167261505	1	1	NaN	356	6	41	2	121	221	321	NaN	521	0.028311176225543	2	1	NaN	3980676.9216388	NaN	3980677.9050648	3980678.42158622
29	19	0	0	90	36.1581920903955	36.241610738255	15	0.500052300095558	2	6	4	NaN	1	3	0.466906167261505	1	1	NaN	357	6	42	2	121	221	321	NaN	521	0.022766375914216	1	1	NaN	3980679.2551977	NaN	3980680.2386387	3980680.75515962
29	19	0	0	90	36.1581920903955	36.241610738255	23	0.766746860146523	2	7	4	NaN	2	3	0.466906167261505	1	1	NaN	358	6	43	2	121	221	321	NaN	521	0.881161328405142	2	1	NaN	3980681.58877	NaN	3980682.5721636	3980683.08873797
29	19	0	0	90	36.1581920903955	36.241610738255	10	0.333368200063705	2	7	5	NaN	2	5	0.466906167261505	1	1	NaN	359	6	44	2	121	221	321	NaN	521	0.208904872182757	2	1	NaN	3980684.7890812	NaN	3980685.7724982	3980686.28902783
29	19	0	0	90	36.1581920903955	36.241610738255	12	0.400041840076447	2	1	2	NaN	1	3	0.466906167261505	1	1	NaN	360	6	45	2	121	221	321	NaN	521	0.196366276126355	2	0	NaN	3980687.3060029	NaN	3980688.2893933	3980688.80594792
29	19	0	0	90	36.1581920903955	36.241610738255	18	0.60006276011467	2	10	3	NaN	2	5	0.466906167261505	1	1	NaN	361	6	46	2	121	221	321	NaN	521	0.711640575900674	1	0	NaN	3980689.80624	NaN	3980690.7896957	3980691.30619362
29	19	0	0	90	36.1581920903955	36.241610738255	6	0.200020920038223	2	10	4	NaN	2	4	0.466906167261505	1	1	NaN	362	6	47	2	121	221	321	NaN	521	0.174186775926501	2	1	NaN	3980692.8398684	NaN	3980693.8232793	3980694.33982712
29	19	0	0	90	36.1581920903955	36.241610738255	17	0.566725940108299	2	5	4	NaN	1	4	0.466906167261505	1	1	NaN	363	6	48	2	121	221	321	NaN	521	0.185814023949206	1	1	NaN	3980695.3401181	NaN	3980696.3235159	3980696.84006298
29	19	0	0	90	36.1581920903955	36.241610738255	8	0.266694560050964	2	4	5	NaN	1	4	0.466906167261505	1	1	NaN	364	6	49	2	121	221	321	NaN	521	0.701552480459213	1	1	NaN	3980697.8403602	NaN	3980698.8237817	3980699.34031212
29	19	0	0	90	36.1581920903955	36.241610738255	10	0.333368200063705	2	6	6	NaN	1	4	0.466906167261505	1	1	NaN	365	6	50	2	121	221	321	NaN	521	0.07209317618981	1	1	NaN	3980700.9740013	NaN	3980701.9574019	3980702.47394932
29	19	0	0	90	36.1581920903955	36.241610738255	24	0.800083680152893	2	6	6	NaN	1	3	0.466906167261505	1	1	NaN	366	6	51	2	121	221	321	NaN	521	0.128448128234595	1	1	NaN	3980703.3575708	NaN	3980704.3409778	3980704.85752737
29	19	0	0	90	36.1581920903955	36.241610738255	12	0.400041840076447	2	10	3	NaN	2	4	0.466906167261505	1	1	NaN	367	6	52	2	121	221	321	NaN	521	0.174483675975353	2	1	NaN	3980705.8078193	NaN	3980706.7912116	3980707.30776392
29	19	0	0	90	36.1581920903955	36.241610738255	19	0.63339958012104	2	8	1	NaN	2	3	0.466906167261505	1	1	NaN	368	6	53	2	121	221	321	NaN	521	0.0103958281688392	2	1	NaN	3980708.2913992	NaN	3980709.2747872	3980709.79133277
29	19	0	0	90	36.1581920903955	36.241610738255	11	0.366705020070076	2	5	1	NaN	1	4	0.466906167261505	1	1	NaN	369	6	54	2	121	221	321	NaN	521	0.637733276002109	1	1	NaN	3980710.608281	NaN	3980711.5916849	3980712.10823842
29	19	0	0	90	36.1581920903955	36.241610738255	12	0.400041840076447	2	7	5	NaN	2	4	0.466906167261505	1	1	NaN	370	6	55	2	121	221	321	NaN	521	0.607745428103954	2	1	NaN	3980713.5585781	NaN	3980714.5419647	3980715.05852327
29	19	0	0	90	36.1581920903955	36.241610738255	9	0.300031380057335	2	2	2	NaN	1	4	0.466906167261505	1	1	NaN	371	6	56	2	121	221	321	NaN	521	0.210826540365815	1	1	NaN	3980716.4755272	NaN	3980717.458932	3980717.97547346
29	19	0	0	90	36.1581920903955	36.241610738255	18	0.60006276011467	2	2	1	NaN	1	3	0.466906167261505	1	1	NaN	372	6	57	2	121	221	321	NaN	521	0.149472475983202	1	1	NaN	3980718.9924577	NaN	3980719.9758801	3980720.49238042
29	19	0	0	90	36.1581920903955	36.241610738255	12	0.400041840076447	2	3	6	NaN	1	4	0.466906167261505	1	1	NaN	373	6	58	2	121	221	321	NaN	521	0.116765824146569	1	1	NaN	3980721.8092725	NaN	3980722.792778	3980723.30932318
29	19	0	0	90	36.1581920903955	36.241610738255	13	0.433378660082817	2	5	2	NaN	1	4	0.466906167261505	1	1	NaN	374	6	59	2	121	221	321	NaN	521	0.771142676007003	1	1	NaN	3980724.2429499	NaN	3980725.226368	3980725.74289802
29	19	0	0	90	36.1581920903955	36.241610738255	20	0.666736400127411	2	2	4	NaN	1	5	0.466906167261505	1	1	NaN	375	6	60	2	121	221	321	NaN	521	1.12502907635644	1	1	NaN	3980727.5932774	NaN	3980728.5766834	3980729.09323622
29	19	0	0	90	36.1581920903955	36.241610738255	17	0.566725940108299	2	6	4	NaN	1	3	0.466906167261505	1	1	NaN	376	6	61	2	121	221	321	NaN	521	0.226520976051688	1	1	NaN	3980731.0437112	NaN	3980732.0270112	3980732.54356382
29	19	0	0	90	36.1581920903955	36.241610738255	0	0	1	1	2	NaN	1	3	0.466906167261505	1	1	NaN	377	6	62	2	111	211	311	NaN	511	0.149186976253986	1	1	NaN	3980733.5770689	NaN	3980734.5606316	3980735.07717212
29	19	0	0	90	36.1581920903955	36.241610738255	21	0.700073220133781	2	11	4	NaN	2	4	0.466906167261505	1	1	NaN	378	6	63	2	121	221	321	NaN	521	1.12290717614815	2	1	NaN	3980736.0274564	NaN	3980737.010885	3980737.52738512
29	19	0	0	90	36.1581920903955	36.241610738255	25	0.833420500159264	2	12	2	NaN	2	5	0.466906167261505	1	1	NaN	379	7	1	2	121	221	321	NaN	521	0.210027527995408	2	1	NaN	3980776.5481025	NaN	3980777.5315383	3980778.04803807
29	19	0	0	90	36.1581920903955	36.241610738255	15	0.500052300095558	2	1	5	NaN	1	5	0.466906167261505	1	1	NaN	380	7	2	2	121	221	321	NaN	521	0.133219776209444	1	1	NaN	3980779.0649975	NaN	3980780.0483988	3980780.56494482
29	19	0	0	90	36.1581920903955	36.241610738255	10	0.333368200063705	2	8	6	NaN	2	5	0.466906167261505	1	1	NaN	381	7	3	2	121	221	321	NaN	521	0.0830499762669206	2	1	NaN	3980781.5152515	NaN	3980782.4987373	3980783.01518272
29	19	0	0	90	36.1581920903955	36.241610738255	6	0.200020920038223	2	12	4	NaN	2	5	0.466906167261505	1	1	NaN	382	7	4	2	121	221	321	NaN	521	0.170916076283902	2	1	NaN	3980783.9154837	NaN	3980784.8988888	3980785.41542402
29	19	0	0	90	36.1581920903955	36.241610738255	7	0.233357740044594	2	5	5	NaN	1	4	0.466906167261505	1	1	NaN	383	7	5	2	121	221	321	NaN	521	0.119040736462921	1	1	NaN	3980786.3990642	NaN	3980787.3824526	3980787.89899776
29	19	0	0	90	36.1581920903955	36.241610738255	0	0	1	5	1	NaN	1	4	0.466906167261505	1	1	NaN	384	7	6	2	111	211	311	NaN	511	0.0534965763799846	1	1	NaN	3980788.8326507	NaN	3980789.8160236	3980790.33256962
29	19	0	0	90	36.1581920903955	36.241610738255	14	0.466715480089188	2	8	4	NaN	2	3	0.466906167261505	1	1	NaN	385	7	7	2	121	221	321	NaN	521	0.118766676168889	2	1	NaN	3980791.1995296	NaN	3980792.1829188	3980792.69947532
29	19	0	0	90	36.1581920903955	36.241610738255	7	0.233357740044594	2	1	3	NaN	1	5	0.466906167261505	1	1	NaN	386	7	8	2	121	221	321	NaN	521	0.0291573759168386	1	1	NaN	3980793.6329677	NaN	3980794.616493	3980795.13303972
29	19	0	0	90	36.1581920903955	36.241610738255	0	0	1	3	3	NaN	1	3	0.466906167261505	1	1	NaN	387	7	9	2	111	211	311	NaN	511	0.151019228156656	1	1	NaN	3980795.9833355	NaN	3980796.9667551	3980797.48328257
29	19	0	0	90	36.1581920903955	36.241610738255	16	0.533389120101929	2	9	2	NaN	2	5	0.466906167261505	1	1	NaN	388	7	10	2	121	221	321	NaN	521	0.0520755760371685	2	1	NaN	3980798.4502253	NaN	3980799.433635	3980799.95017852
29	19	0	0	90	36.1581920903955	36.241610738255	14	0.466715480089188	2	4	3	NaN	1	4	0.466906167261505	1	1	NaN	389	7	11	2	121	221	321	NaN	521	0.010266796220094	1	1	NaN	3980800.817164	NaN	3980801.8005342	3980802.3170934
29	19	0	0	90	36.1581920903955	36.241610738255	15	0.500052300095558	2	10	4	NaN	2	4	0.466906167261505	1	1	NaN	390	7	12	2	121	221	321	NaN	521	0.136469728313386	2	1	NaN	3980803.1340274	NaN	3980804.1174241	3980804.63398307
29	19	0	0	90	36.1581920903955	36.241610738255	12	0.400041840076447	2	11	4	NaN	2	4	0.466906167261505	1	1	NaN	391	7	13	2	121	221	321	NaN	521	0.0859440281055868	2	1	NaN	3980805.5842812	NaN	3980806.5676715	3980807.08422567
29	19	0	0	90	36.1581920903955	36.241610738255	19	0.63339958012104	2	2	3	NaN	1	5	0.466906167261505	1	1	NaN	392	7	14	2	121	221	321	NaN	521	0.173480576369911	1	1	NaN	3980807.9846078	NaN	3980808.9679115	3980809.48445652
29	19	0	0	90	36.1581920903955	36.241610738255	9	0.300031380057335	2	1	4	NaN	1	4	0.466906167261505	1	1	NaN	393	7	15	2	121	221	321	NaN	521	0.122728428337723	1	1	NaN	3980810.8514249	NaN	3980811.8348886	3980812.35140877
29	19	0	0	90	36.1581920903955	36.241610738255	0	0	1	8	3	NaN	2	5	0.466906167261505	1	1	NaN	394	7	16	2	111	211	311	NaN	511	0.0971722244285047	2	1	NaN	3980813.2850224	NaN	3980814.2684007	3980814.78496828
29	19	0	0	90	36.1581920903955	36.241610738255	23	0.766746860146523	2	8	3	NaN	2	4	0.466906167261505	1	1	NaN	395	7	17	2	121	221	321	NaN	521	0.120243380311877	2	1	NaN	3980815.7019368	NaN	3980816.6853343	3980817.20188492
29	19	0	0	90	36.1581920903955	36.241610738255	22	0.733410040140152	2	9	6	NaN	2	5	0.466906167261505	1	1	NaN	396	7	18	2	121	221	321	NaN	521	0.0790312760509551	2	1	NaN	3980818.1355034	NaN	3980819.118896	3980819.63544692
29	19	0	0	90	36.1581920903955	36.241610738255	13	0.433378660082817	2	8	3	NaN	2	5	0.466906167261505	1	1	NaN	397	7	19	2	121	221	321	NaN	521	0.0951274763792753	2	1	NaN	3980820.5190611	NaN	3980821.5024632	3980822.01900932
29	19	0	0	90	36.1581920903955	36.241610738255	25	0.833420500159264	2	2	3	NaN	1	5	0.466906167261505	1	1	NaN	398	7	20	2	121	221	321	NaN	521	0.126316076144576	1	1	NaN	3980822.9359689	NaN	3980823.919372	3980824.43592182
29	19	0	0	90	36.1581920903955	36.241610738255	22	0.733410040140152	2	11	5	NaN	2	4	0.466906167261505	1	1	NaN	399	7	21	2	121	221	321	NaN	521	0.0104073281399906	2	1	NaN	3980825.3696326	NaN	3980826.3529565	3980826.86949727
29	19	0	0	90	36.1581920903955	36.241610738255	18	0.60006276011467	2	6	3	NaN	1	3	0.466906167261505	1	1	NaN	400	7	22	2	121	221	321	NaN	521	0.0957302283495665	1	1	NaN	3980827.6864365	NaN	3980828.669828	3980829.18639367
29	19	0	0	90	36.1581920903955	36.241610738255	23	0.766746860146523	2	10	6	NaN	2	5	0.466906167261505	1	1	NaN	401	7	23	2	121	221	321	NaN	521	0.175914276391268	2	1	NaN	3980830.0866949	NaN	3980831.0701375	3980831.58664452
29	19	0	0	90	36.1581920903955	36.241610738255	14	0.466715480089188	2	10	2	NaN	2	5	0.466906167261505	1	1	NaN	402	7	24	2	121	221	321	NaN	521	0.107978724408895	2	1	NaN	3980832.5702337	NaN	3980833.553643	3980834.07019178
29	19	0	0	90	36.1581920903955	36.241610738255	11	0.366705020070076	2	1	1	NaN	1	5	0.466906167261505	1	1	NaN	403	7	25	2	121	221	321	NaN	521	0.147115976084024	1	1	NaN	3980834.9871503	NaN	3980835.9705558	3980836.48709642
29	19	0	0	90	36.1581920903955	36.241610738255	18	0.60006276011467	2	7	2	NaN	2	4	0.466906167261505	1	1	NaN	404	7	26	2	121	221	321	NaN	521	0.20799352414906	2	1	NaN	3980837.4540581	NaN	3980838.4374603	3980838.95401028
29	19	0	0	90	36.1581920903955	36.241610738255	12	0.400041840076447	2	1	6	NaN	1	5	0.466906167261505	1	1	NaN	405	7	27	2	121	221	321	NaN	521	0.115301824640483	1	1	NaN	3980839.9708515	NaN	3980840.9543752	3980841.47092428
29	19	0	0	90	36.1581920903955	36.241610738255	13	0.433378660082817	2	1	6	NaN	1	3	0.466906167261505	1	1	NaN	406	7	28	2	121	221	321	NaN	521	0.138467436190695	1	1	NaN	3980842.3879792	NaN	3980843.3712953	3980843.88783086
29	19	0	0	90	36.1581920903955	36.241610738255	23	0.766746860146523	2	11	3	NaN	2	5	0.466906167261505	1	1	NaN	407	7	29	2	121	221	321	NaN	521	0.319623680319637	2	1	NaN	3980845.0548121	NaN	3980846.0382151	3980846.55475242
29	19	0	0	90	36.1581920903955	36.241610738255	16	0.533389120101929	2	12	2	NaN	2	4	0.466906167261505	1	1	NaN	408	7	30	2	121	221	321	NaN	521	0.0102575961500406	2	1	NaN	3980847.6884276	NaN	3980848.6718607	3980849.1883596
29	19	0	0	90	36.1581920903955	36.241610738255	13	0.433378660082817	2	7	3	NaN	2	3	0.466906167261505	1	1	NaN	409	7	31	2	121	221	321	NaN	521	0.0887069725431502	2	1	NaN	3980850.0053011	NaN	3980850.9886801	3980851.50524543
29	19	0	0	90	36.1581920903955	36.241610738255	24	0.800083680152893	2	5	3	NaN	1	3	0.466906167261505	1	1	NaN	410	7	32	2	121	221	321	NaN	521	0.0408340757712722	1	1	NaN	3980852.4055488	NaN	3980853.3889097	3980853.90547622
29	19	0	0	90	36.1581920903955	36.241610738255	8	0.266694560050964	2	5	6	NaN	1	5	0.466906167261505	1	1	NaN	411	7	33	2	121	221	321	NaN	521	0.122658728156239	1	1	NaN	3980854.7556878	NaN	3980855.7390614	3980856.25571457
29	19	0	0	90	36.1581920903955	36.241610738255	12	0.400041840076447	2	11	4	NaN	2	3	0.466906167261505	1	1	NaN	412	7	34	2	121	221	321	NaN	521	0.0104072759859264	1	0	NaN	3980857.1893284	NaN	3980858.172732	3980858.68928402
29	19	0	0	90	36.1581920903955	36.241610738255	7	0.233357740044594	2	2	2	NaN	1	5	0.466906167261505	1	1	NaN	413	7	35	2	121	221	321	NaN	521	0.0914897760376334	1	1	NaN	3980859.522904	NaN	3980860.5063096	3980861.02284022
29	19	0	0	90	36.1581920903955	36.241610738255	18	0.60006276011467	2	7	4	NaN	2	3	0.466906167261505	1	1	NaN	414	7	36	2	121	221	321	NaN	521	0.0424086758866906	1	0	NaN	3980861.9398003	NaN	3980862.9231985	3980863.43974162
29	19	0	0	90	36.1581920903955	36.241610738255	6	0.200020920038223	2	6	4	NaN	1	3	0.466906167261505	1	1	NaN	415	7	37	2	121	221	321	NaN	521	0.0922477804124355	1	1	NaN	3980864.2900531	NaN	3980865.2733992	3980865.78998402
29	19	0	0	90	36.1581920903955	36.241610738255	9	0.300031380057335	2	9	3	NaN	2	3	0.466906167261505	1	1	NaN	416	7	38	2	121	221	321	NaN	521	0.0599349243566394	2	1	NaN	3980866.6901985	NaN	3980867.673645	3980868.19020868
29	19	0	0	90	36.1581920903955	36.241610738255	23	0.766746860146523	2	12	4	NaN	2	3	0.466906167261505	1	1	NaN	417	7	39	2	121	221	321	NaN	521	0.269461076240987	1	0	NaN	3980869.0571759	NaN	3980870.0405629	3980870.55710582
29	19	0	0	90	36.1581920903955	36.241610738255	7	0.233357740044594	2	10	3	NaN	2	5	0.466906167261505	1	1	NaN	418	7	40	2	121	221	321	NaN	521	0.101545576006174	2	1	NaN	3980871.6407477	NaN	3980872.6241332	3980873.14069552
29	19	0	0	90	36.1581920903955	36.241610738255	20	0.666736400127411	2	5	2	NaN	1	5	0.466906167261505	1	1	NaN	419	7	41	2	121	221	321	NaN	521	0.100753276143223	1	1	NaN	3980874.0576605	NaN	3980875.0410531	3980875.55759702
29	19	0	0	90	36.1581920903955	36.241610738255	13	0.433378660082817	2	4	3	NaN	1	5	0.466906167261505	1	1	NaN	420	7	42	2	121	221	321	NaN	521	0.47582192812115	1	1	NaN	3980876.4745634	NaN	3980877.4579754	3980877.97451457
29	19	0	0	90	36.1581920903955	36.241610738255	9	0.300031380057335	2	2	6	NaN	1	3	0.466906167261505	1	1	NaN	421	7	43	2	121	221	321	NaN	521	0.0917886877432466	1	1	NaN	3980879.2582015	NaN	3980880.2415681	3980880.75813201
29	19	0	0	90	36.1581920903955	36.241610738255	22	0.733410040140152	2	7	5	NaN	2	4	0.466906167261505	1	1	NaN	422	7	44	2	121	221	321	NaN	521	0.676197891589254	1	0	NaN	3980881.6583963	NaN	3980882.6417945	3980883.15835341
29	19	0	0	90	36.1581920903955	36.241610738255	6	0.200020920038223	2	9	5	NaN	2	5	0.466906167261505	1	1	NaN	423	7	45	2	121	221	321	NaN	521	0.0842585759237409	2	1	NaN	3980884.6419247	NaN	3980885.625428	3980886.14197312
29	19	0	0	90	36.1581920903955	36.241610738255	12	0.400041840076447	2	2	5	NaN	1	3	0.466906167261505	1	1	NaN	424	7	46	2	121	221	321	NaN	521	0.300309676211327	1	1	NaN	3980887.0422575	NaN	3980888.0256699	3980888.54220722
29	19	0	0	90	36.1581920903955	36.241610738255	9	0.300031380057335	2	9	1	NaN	2	4	0.466906167261505	1	1	NaN	425	7	47	2	121	221	321	NaN	521	0.155772475991398	2	1	NaN	3980889.6425376	NaN	3980890.6259146	3980891.14246392
29	19	0	0	90	36.1581920903955	36.241610738255	22	0.733410040140152	2	9	1	NaN	2	5	0.466906167261505	1	1	NaN	426	7	48	2	121	221	321	NaN	521	0.0968603645451367	2	1	NaN	3980892.1094318	NaN	3980893.0928125	3980893.60937854
29	19	0	0	90	36.1581920903955	36.241610738255	15	0.500052300095558	2	7	2	NaN	2	3	0.466906167261505	1	1	NaN	427	7	49	2	121	221	321	NaN	521	0.362160040065646	2	1	NaN	3980895.0763434	NaN	3980896.059691	3980896.57633626
29	19	0	0	90	36.1581920903955	36.241610738255	10	0.333368200063705	2	10	2	NaN	2	5	0.466906167261505	1	1	NaN	428	7	50	2	121	221	321	NaN	521	0.0103976279497147	2	1	NaN	3980897.7599861	NaN	3980898.743362	3980899.25993687
29	19	0	0	90	36.1581920903955	36.241610738255	21	0.700073220133781	2	4	2	NaN	1	5	0.466906167261505	1	1	NaN	429	7	51	2	121	221	321	NaN	521	1.34541077585891	1	1	NaN	3980900.0768683	NaN	3980901.0603311	3980901.57681742
29	19	0	0	90	36.1581920903955	36.241610738255	14	0.466715480089188	2	12	4	NaN	2	4	0.466906167261505	1	1	NaN	430	7	52	2	121	221	321	NaN	521	0.390480096451938	1	0	NaN	3980903.7437798	NaN	3980904.7272859	3980905.2438609
29	19	0	0	90	36.1581920903955	36.241610738255	16	0.533389120101929	2	11	3	NaN	2	4	0.466906167261505	1	1	NaN	431	7	53	2	121	221	321	NaN	521	0.618135224096477	1	0	NaN	3980906.4440407	NaN	3980907.4275418	3980907.94411788
29	19	0	0	90	36.1581920903955	36.241610738255	23	0.766746860146523	2	2	5	NaN	1	5	0.466906167261505	1	1	NaN	432	7	54	2	121	221	321	NaN	521	0.116790324449539	1	1	NaN	3980909.3778078	NaN	3980910.3611958	3980910.87773158
29	19	0	0	90	36.1581920903955	36.241610738255	6	0.200020920038223	2	11	3	NaN	2	3	0.466906167261505	1	1	NaN	433	7	55	2	121	221	321	NaN	521	0.0510155758820474	1	0	NaN	3980911.8113082	NaN	3980912.7947551	3980913.31130502
29	19	0	0	90	36.1581920903955	36.241610738255	13	0.433378660082817	2	1	3	NaN	1	4	0.466906167261505	1	1	NaN	434	7	56	2	121	221	321	NaN	521	0.0104047758504748	1	1	NaN	3980914.1781256	NaN	3980915.1616508	3980915.67821272
29	19	0	0	90	36.1581920903955	36.241610738255	14	0.466715480089188	2	8	1	NaN	2	4	0.466906167261505	1	1	NaN	435	7	57	2	121	221	321	NaN	521	0.135463275946677	2	1	NaN	3980916.4951541	NaN	3980917.4785555	3980917.99509712
29	19	0	0	90	36.1581920903955	36.241610738255	22	0.733410040140152	2	10	6	NaN	2	3	0.466906167261505	1	1	NaN	436	7	58	2	121	221	321	NaN	521	0.677244424354285	1	0	NaN	3980918.9453933	NaN	3980919.9287418	3980920.44534518
29	19	0	0	90	36.1581920903955	36.241610738255	13	0.433378660082817	2	7	6	NaN	2	5	0.466906167261505	1	1	NaN	437	7	59	2	121	221	321	NaN	521	0.212680243887007	1	0	NaN	3980921.9455655	NaN	3980922.9290779	3980923.44564486
29	19	0	0	90	36.1581920903955	36.241610738255	8	0.266694560050964	2	11	4	NaN	2	4	0.466906167261505	1	1	NaN	438	7	60	2	121	221	321	NaN	521	0.480057328473777	1	0	NaN	3980924.4625986	NaN	3980925.4460055	3980925.96255727
29	19	0	0	90	36.1581920903955	36.241610738255	15	0.500052300095558	2	8	5	NaN	2	5	0.466906167261505	1	1	NaN	439	7	61	2	121	221	321	NaN	521	0.127605876419693	2	1	NaN	3980927.2629706	NaN	3980928.2462994	3980928.76281902
29	19	0	0	90	36.1581920903955	36.241610738255	20	0.666736400127411	2	12	6	NaN	2	5	0.466906167261505	1	1	NaN	440	7	62	2	121	221	321	NaN	521	0.0133494762703776	2	1	NaN	3980929.7131189	NaN	3980930.696545	3980931.21307132
29	19	0	0	90	36.1581920903955	36.241610738255	17	0.566725940108299	2	7	3	NaN	2	4	0.466906167261505	1	1	NaN	441	7	63	2	121	221	321	NaN	521	0.0556614915840328	2	1	NaN	3980932.0466838	NaN	3980933.0300645	3980933.54662771
29	19	0	0	90	36.1581920903955	36.241610738255	11	0.366705020070076	2	7	2	NaN	2	3	0.466906167261505	1	1	NaN	442	8	1	2	121	221	321	NaN	521	0.206917276140302	2	1	NaN	3980936.4637348	NaN	3980937.447179	3980937.96372972
29	19	0	0	90	36.1581920903955	36.241610738255	19	0.63339958012104	2	11	5	NaN	2	5	0.466906167261505	1	1	NaN	443	8	2	2	121	221	321	NaN	521	0.0416021244600415	2	1	NaN	3980938.9807272	NaN	3980939.9640738	3980940.48063398
29	19	0	0	90	36.1581920903955	36.241610738255	23	0.766746860146523	2	1	3	NaN	1	4	0.466906167261505	1	1	NaN	444	8	3	2	121	221	321	NaN	521	0.139503776095808	1	1	NaN	3980941.3309302	NaN	3980942.314328	3980942.83086732
29	19	0	0	90	36.1581920903955	36.241610738255	10	0.333368200063705	2	12	6	NaN	2	5	0.466906167261505	1	1	NaN	445	8	4	2	121	221	321	NaN	521	0.145169924478978	1	0	NaN	3980943.7811372	NaN	3980944.7645601	3980945.28110748
29	19	0	0	90	36.1581920903955	36.241610738255	16	0.533389120101929	2	3	4	NaN	1	3	0.466906167261505	1	1	NaN	446	8	5	2	121	221	321	NaN	521	0.294939792249352	1	1	NaN	3980946.2314203	NaN	3980947.2148084	3980947.73135121
29	19	0	0	90	36.1581920903955	36.241610738255	25	0.833420500159264	2	6	5	NaN	1	3	0.466906167261505	1	1	NaN	447	8	6	2	121	221	321	NaN	521	0.59871887601912	1	1	NaN	3980948.8315391	NaN	3980949.8150682	3980950.33161512
29	19	0	0	90	36.1581920903955	36.241610738255	15	0.500052300095558	2	2	4	NaN	1	3	0.466906167261505	1	1	NaN	448	8	7	2	121	221	321	NaN	521	0.146429975982755	1	1	NaN	3980951.7319586	NaN	3980952.71536	3980953.23188582
29	19	0	0	90	36.1581920903955	36.241610738255	21	0.700073220133781	2	1	1	NaN	1	3	0.466906167261505	1	1	NaN	449	8	8	2	121	221	321	NaN	521	0.215538343880326	1	1	NaN	3980954.1988535	NaN	3980955.1822373	3980955.69880116
29	19	0	0	90	36.1581920903955	36.241610738255	6	0.200020920038223	2	6	6	NaN	1	5	0.466906167261505	1	1	NaN	450	8	9	2	121	221	321	NaN	521	0.113850328139961	1	1	NaN	3980956.7324635	NaN	3980957.7158646	3980958.23239017
29	19	0	0	90	36.1581920903955	36.241610738255	8	0.266694560050964	2	1	4	NaN	1	4	0.466906167261505	1	1	NaN	451	8	10	2	121	221	321	NaN	521	0.0730696762911975	1	1	NaN	3980959.1493538	NaN	3980960.1327357	3980960.64928442
29	19	0	0	90	36.1581920903955	36.241610738255	16	0.533389120101929	2	12	1	NaN	2	5	0.466906167261505	1	1	NaN	452	8	11	2	121	221	321	NaN	521	0.449352527968585	2	1	NaN	3980961.5328997	NaN	3980962.5163318	3980963.03286287
29	19	0	0	90	36.1581920903955	36.241610738255	22	0.733410040140152	2	11	5	NaN	2	5	0.466906167261505	1	1	NaN	453	8	12	2	121	221	321	NaN	521	1.09884472424164	2	1	NaN	3980964.2998419	NaN	3980965.2832407	3980965.79979138
29	19	0	0	90	36.1581920903955	36.241610738255	17	0.566725940108299	2	4	6	NaN	1	3	0.466906167261505	1	1	NaN	454	8	13	2	121	221	321	NaN	521	0.129902775865048	1	1	NaN	3980967.7169358	NaN	3980968.700253	3980969.21678912
29	19	0	0	90	36.1581920903955	36.241610738255	16	0.533389120101929	2	3	5	NaN	1	4	0.466906167261505	1	1	NaN	455	8	14	2	121	221	321	NaN	521	0.504157376009971	1	1	NaN	3980970.1503807	NaN	3980971.1337199	3980971.65037392
29	19	0	0	90	36.1581920903955	36.241610738255	18	0.60006276011467	2	12	2	NaN	2	5	0.466906167261505	1	1	NaN	456	8	15	2	121	221	321	NaN	521	0.0548730758018792	2	1	NaN	3980972.9675143	NaN	3980973.9508432	3980974.46730502
29	19	0	0	90	36.1581920903955	36.241610738255	16	0.533389120101929	2	7	2	NaN	2	4	0.466906167261505	1	1	NaN	457	8	16	2	121	221	321	NaN	521	0.0103489840403199	2	1	NaN	3980975.3342556	NaN	3980976.3176574	3980976.83420532
29	19	0	0	90	36.1581920903955	36.241610738255	14	0.466715480089188	2	6	3	NaN	1	4	0.466906167261505	1	1	NaN	458	8	17	2	121	221	321	NaN	521	0.010402528103441	1	1	NaN	3980977.6510346	NaN	3980978.6345662	3980979.15111037
29	19	0	0	90	36.1581920903955	36.241610738255	0	0	1	10	3	NaN	2	5	0.466906167261505	1	1	NaN	459	8	18	2	111	211	311	NaN	511	0.318447968456894	1	0	NaN	3980979.9679221	NaN	3980980.9514495	3980981.46799523
