subjno	age	gender	isPractice	viewdist	CmToPixX	CmToPixY	SOA_frm	SOA_time	targNum	targID	targExample	targRace	targGender	firstTargPos	contrast	familiarity	curr_staircase	iStair	TrialNum	BlockNum	blktrl	sessionNum	TC_FIXATION	TC_RSVP_START	TC_RSVP_END	TC_BLANK	TC_RESPONSE_ONSET	RT2afc	resp_2afc	acc	RSVPOnsetVBL	RSVPOnsetTime	RSVPOffsetVBL	RSVPOffsetTime	startrt_2afc
112	25	1	0	90	36.1581920903955	36.241610738255	17	0.566703567858785	2	7	1	NaN	2	4	0.671391698905087	1	1	NaN	1	1	1	1	121	221	321	NaN	521	0.686933774035424	2	1	NaN	3893543.6434078	NaN	3893544.6267004	3893545.15982213
112	25	1	0	90	36.1581920903955	36.241610738255	6	0.20001302395016	2	10	5	NaN	2	3	0.671391698905087	1	1	NaN	2	1	2	1	121	221	321	NaN	521	0.396493626292795	2	1	NaN	3893546.693692	NaN	3893547.6769774	3893548.21012187
112	25	1	0	90	36.1581920903955	36.241610738255	15	0.500032559875399	2	10	3	NaN	2	4	0.671391698905087	1	1	NaN	3	1	3	1	121	221	321	NaN	521	3.09545767866075	2	1	NaN	3893549.4270958	NaN	3893550.4105045	3893550.92705212
112	25	1	0	90	36.1581920903955	36.241610738255	11	0.366690543908626	2	11	2	NaN	2	3	0.671391698905087	1	1	NaN	4	1	4	1	121	221	321	NaN	521	1.13494784245268	1	0	NaN	3893554.8443006	NaN	3893555.8276919	3893556.34424716
112	25	1	0	90	36.1581920903955	36.241610738255	20	0.666710079833865	2	7	4	NaN	2	4	0.671391698905087	1	1	NaN	5	1	5	1	121	221	321	NaN	521	0.867750821635127	2	1	NaN	3893558.3113011	NaN	3893559.294743	3893559.81125388
112	25	1	0	90	36.1581920903955	36.241610738255	20	0.666710079833865	2	10	5	NaN	2	4	0.671391698905087	1	1	NaN	6	1	6	1	121	221	321	NaN	521	0.355080768931657	2	1	NaN	3893561.5116156	NaN	3893562.4950206	3893563.01156833
112	25	1	0	90	36.1581920903955	36.241610738255	13	0.433361551892012	2	12	4	NaN	2	5	0.671391698905087	1	1	NaN	7	1	7	1	121	221	321	NaN	521	4.50329522183165	1	0	NaN	3893564.1952168	NaN	3893565.1786224	3893565.69516868
112	25	1	0	90	36.1581920903955	36.241610738255	16	0.533368063867092	2	7	3	NaN	2	5	0.671391698905087	1	1	NaN	8	1	8	1	121	221	321	NaN	521	0.446105569135398	2	1	NaN	3893571.0125674	NaN	3893571.9959416	3893572.51250283
112	25	1	0	90	36.1581920903955	36.241610738255	6	0.20001302395016	2	1	3	NaN	1	4	0.671391698905087	1	1	NaN	9	1	9	1	121	221	321	NaN	521	0.287225768901408	1	1	NaN	3893573.7794989	NaN	3893574.7629049	3893575.27943903
112	25	1	0	90	36.1581920903955	36.241610738255	14	0.466697055883706	2	2	2	NaN	1	5	0.671391698905087	1	1	NaN	10	1	10	1	121	221	321	NaN	521	0.546868969220668	1	1	NaN	3893576.8797047	NaN	3893577.8631912	3893578.37974713
112	25	1	0	90	36.1581920903955	36.241610738255	15	0.500032559875399	2	12	3	NaN	2	5	0.671391698905087	1	1	NaN	11	1	11	1	121	221	321	NaN	521	2.30390956904739	2	1	NaN	3893579.7466833	NaN	3893580.7301505	3893581.24668563
112	25	1	0	90	36.1581920903955	36.241610738255	13	0.433361551892012	2	10	3	NaN	2	3	0.671391698905087	1	1	NaN	12	1	12	1	121	221	321	NaN	521	0.399283516220748	2	1	NaN	3893584.3638725	NaN	3893585.3472575	3893585.86380388
112	25	1	0	90	36.1581920903955	36.241610738255	25	0.833387599792331	2	3	3	NaN	1	3	0.671391698905087	1	1	NaN	13	1	13	1	121	221	321	NaN	521	0.337046721484512	1	1	NaN	3893587.4973742	NaN	3893588.4809065	3893588.99744888
112	25	1	0	90	36.1581920903955	36.241610738255	23	0.766716591808945	2	12	4	NaN	2	3	0.671391698905087	1	1	NaN	14	1	14	1	121	221	321	NaN	521	2.97489579487592	1	0	NaN	3893590.1476475	NaN	3893591.1311537	3893591.64772501
112	25	1	0	90	36.1581920903955	36.241610738255	18	0.600039071850479	2	2	3	NaN	1	3	0.671391698905087	1	1	NaN	15	1	15	1	121	221	321	NaN	521	0.314292868599296	1	1	NaN	3893595.4482851	NaN	3893596.4316886	3893596.94822983
112	25	1	0	90	36.1581920903955	36.241610738255	15	0.500032559875399	2	6	2	NaN	1	3	0.671391698905087	1	1	NaN	16	1	16	1	121	221	321	NaN	521	0.433025768958032	1	1	NaN	3893598.0818703	NaN	3893599.065283	3893599.58183183
112	25	1	0	90	36.1581920903955	36.241610738255	20	0.666710079833865	2	8	6	NaN	2	3	0.671391698905087	1	1	NaN	17	1	17	1	121	221	321	NaN	521	2.48056992189959	1	0	NaN	3893601.4821783	NaN	3893602.4656158	3893602.98216358
112	25	1	0	90	36.1581920903955	36.241610738255	0	0	1	3	5	NaN	1	3	0.671391698905087	1	1	NaN	18	1	18	1	111	211	311	NaN	511	0.463932469021529	1	1	NaN	3893606.2826853	NaN	3893607.2660996	3893607.78263393
112	25	1	0	90	36.1581920903955	36.241610738255	18	0.600039071850479	2	5	3	NaN	1	5	0.671391698905087	1	1	NaN	19	1	19	1	121	221	321	NaN	521	0.344325768761337	1	1	NaN	3893609.0661529	NaN	3893610.0496961	3893610.56623743
112	25	1	0	90	36.1581920903955	36.241610738255	6	0.20001302395016	2	6	5	NaN	1	4	0.671391698905087	1	1	NaN	20	1	20	1	121	221	321	NaN	521	0.349530069157481	1	1	NaN	3893611.7332235	NaN	3893612.7166927	3893613.23316573
112	25	1	0	90	36.1581920903955	36.241610738255	11	0.366690543908626	2	6	6	NaN	1	5	0.671391698905087	1	1	NaN	21	1	21	1	121	221	321	NaN	521	0.402668221853673	1	1	NaN	3893614.4001519	NaN	3893615.3835324	3893615.90010028
112	25	1	0	90	36.1581920903955	36.241610738255	15	0.500032559875399	2	1	5	NaN	1	3	0.671391698905087	1	1	NaN	22	1	22	1	121	221	321	NaN	521	1.3421132741496	1	1	NaN	3893617.1169529	NaN	3893618.1004691	3893618.61702553
112	25	1	0	90	36.1581920903955	36.241610738255	24	0.800052095800638	2	11	5	NaN	2	4	0.671391698905087	1	1	NaN	23	1	23	1	121	221	321	NaN	521	0.45970832137391	2	1	NaN	3893620.767314	NaN	3893621.7508501	3893622.26739138
112	25	1	0	90	36.1581920903955	36.241610738255	10	0.333355039916933	2	9	6	NaN	2	3	0.671391698905087	1	1	NaN	24	1	24	1	121	221	321	NaN	521	0.283639416564256	2	1	NaN	3893623.5510524	NaN	3893624.5344314	3893625.05098878
112	25	1	0	90	36.1581920903955	36.241610738255	22	0.733381087817252	2	3	1	NaN	1	4	0.671391698905087	1	1	NaN	25	1	25	1	121	221	321	NaN	521	0.755360747221857	1	1	NaN	3893626.1511755	NaN	3893627.1346997	3893627.65127735
112	25	1	0	90	36.1581920903955	36.241610738255	7	0.233348527941853	2	7	1	NaN	2	5	0.671391698905087	1	1	NaN	26	1	26	1	121	221	321	NaN	521	5.89650176931173	2	1	NaN	3893629.2182735	NaN	3893630.2016599	3893630.71821753
112	25	1	0	90	36.1581920903955	36.241610738255	14	0.466697055883706	2	7	3	NaN	2	4	0.671391698905087	1	1	NaN	27	1	27	1	121	221	321	NaN	521	0.485677221789956	2	1	NaN	3893637.6690718	NaN	3893638.6524941	3893639.16904628
112	25	1	0	90	36.1581920903955	36.241610738255	14	0.466697055883706	2	2	1	NaN	1	3	0.671391698905087	1	1	NaN	28	1	28	1	121	221	321	NaN	521	0.182099368888885	1	1	NaN	3893640.4693876	NaN	3893641.4527597	3893641.96932243
112	25	1	0	90	36.1581920903955	36.241610738255	10	0.333355039916933	2	10	3	NaN	2	5	0.671391698905087	1	1	NaN	29	1	29	1	121	221	321	NaN	521	0.153090668842196	2	1	NaN	3893642.9696188	NaN	3893643.9530381	3893644.46956343
112	25	1	0	90	36.1581920903955	36.241610738255	15	0.500032559875399	2	5	3	NaN	1	4	0.671391698905087	1	1	NaN	30	1	30	1	121	221	321	NaN	521	1.6143444692716	1	1	NaN	3893645.4363989	NaN	3893646.4199127	3893646.93647713
112	25	1	0	90	36.1581920903955	36.241610738255	12	0.400026047900319	2	3	1	NaN	1	4	0.671391698905087	1	1	NaN	31	1	31	1	121	221	321	NaN	521	4.46789406891912	1	1	NaN	3893649.8869181	NaN	3893650.8703625	3893651.38691113
112	25	1	0	90	36.1581920903955	36.241610738255	22	0.733381087817252	2	8	2	NaN	2	3	0.671391698905087	1	1	NaN	32	1	32	1	121	221	321	NaN	521	3.70778776379302	2	1	NaN	3893656.6709596	NaN	3893657.6543574	3893658.17091514
112	25	1	0	90	36.1581920903955	36.241610738255	16	0.533368063867092	2	4	6	NaN	1	3	0.671391698905087	1	1	NaN	33	1	33	1	121	221	321	NaN	521	0.643855421803892	1	1	NaN	3893663.0549233	NaN	3893664.0383387	3893664.55487688
112	25	1	0	90	36.1581920903955	36.241610738255	18	0.600039071850479	2	10	6	NaN	2	4	0.671391698905087	1	1	NaN	34	1	34	1	121	221	321	NaN	521	0.668756169266999	2	1	NaN	3893666.421923	NaN	3893667.4052997	3893667.92187113
112	25	1	0	90	36.1581920903955	36.241610738255	13	0.433361551892012	2	3	6	NaN	1	5	0.671391698905087	1	1	NaN	35	1	35	1	121	221	321	NaN	521	7.11037242645398	2	0	NaN	3893669.9889489	NaN	3893670.9723338	3893671.48888557
112	25	1	0	90	36.1581920903955	36.241610738255	14	0.466697055883706	2	6	4	NaN	1	5	0.671391698905087	1	1	NaN	36	1	36	1	121	221	321	NaN	521	0.738088684156537	1	1	NaN	3893681.4567052	NaN	3893682.4401324	3893682.95668682
112	25	1	0	90	36.1581920903955	36.241610738255	9	0.300019535925239	2	6	2	NaN	1	3	0.671391698905087	1	1	NaN	37	1	37	1	121	221	321	NaN	521	1.29673086898401	1	1	NaN	3893686.4904368	NaN	3893687.4739576	3893687.99050543
112	25	1	0	90	36.1581920903955	36.241610738255	6	0.20001302395016	2	8	2	NaN	2	4	0.671391698905087	1	1	NaN	38	1	38	1	121	221	321	NaN	521	0.206624869257212	2	1	NaN	3893693.524584	NaN	3893694.5079842	3893695.02455473
112	25	1	0	90	36.1581920903955	36.241610738255	24	0.800052095800638	2	2	2	NaN	1	5	0.671391698905087	1	1	NaN	39	1	39	1	121	221	321	NaN	521	11.1528375213966	1	1	NaN	3893700.2418756	NaN	3893701.225306	3893701.74185948
112	25	1	0	90	36.1581920903955	36.241610738255	20	0.666710079833865	2	7	6	NaN	2	3	0.671391698905087	1	1	NaN	40	1	40	1	121	221	321	NaN	521	1.10719762183726	2	1	NaN	3893730.3281687	NaN	3893731.3116403	3893731.82814858
112	25	1	0	90	36.1581920903955	36.241610738255	18	0.600039071850479	2	4	4	NaN	1	5	0.671391698905087	1	1	NaN	41	1	41	1	121	221	321	NaN	521	18.8736247895285	2	0	NaN	3893733.7452485	NaN	3893734.7286011	3893735.24515441
112	25	1	0	90	36.1581920903955	36.241610738255	20	0.666710079833865	2	5	4	NaN	1	4	0.671391698905087	1	1	NaN	42	1	42	1	121	221	321	NaN	521	0.59699622169137	1	1	NaN	3893755.2139778	NaN	3893756.1973779	3893756.71392958
112	25	1	0	90	36.1581920903955	36.241610738255	24	0.800052095800638	2	8	6	NaN	2	3	0.671391698905087	1	1	NaN	43	1	43	1	121	221	321	NaN	521	0.328017763793468	2	1	NaN	3893758.130925	NaN	3893759.1143165	3893759.63087154
112	25	1	0	90	36.1581920903955	36.241610738255	24	0.800052095800638	2	7	6	NaN	2	5	0.671391698905087	1	1	NaN	44	1	44	1	121	221	321	NaN	521	0.342477868776768	2	1	NaN	3893760.7645104	NaN	3893761.7479274	3893762.26446853
112	25	1	0	90	36.1581920903955	36.241610738255	21	0.700045583825558	2	1	4	NaN	1	5	0.671391698905087	1	1	NaN	45	1	45	1	121	221	321	NaN	521	0.556243269238621	1	1	NaN	3893763.4147034	NaN	3893764.3981712	3893764.91473343
112	25	1	0	90	36.1581920903955	36.241610738255	11	0.366690543908626	2	2	1	NaN	1	4	0.671391698905087	1	1	NaN	46	1	46	1	121	221	321	NaN	521	0.545558621641248	1	1	NaN	3893766.2817146	NaN	3893767.2651237	3893767.78167858
112	25	1	0	90	36.1581920903955	36.241610738255	6	0.20001302395016	2	6	4	NaN	1	5	0.671391698905087	1	1	NaN	47	1	47	1	121	221	321	NaN	521	0.326792269013822	1	1	NaN	3893769.1486921	NaN	3893770.1321079	3893770.64862843
112	25	1	0	90	36.1581920903955	36.241610738255	16	0.533368063867092	2	12	5	NaN	2	3	0.671391698905087	1	1	NaN	48	1	48	1	121	221	321	NaN	521	0.765236416365951	2	1	NaN	3893771.7822572	NaN	3893772.765658	3893773.28221088
112	25	1	0	90	36.1581920903955	36.241610738255	0	0	1	6	1	NaN	1	5	0.671391698905087	1	1	NaN	49	1	49	1	111	211	311	NaN	511	2.84217962156981	2	0	NaN	3893774.8492321	NaN	3893775.832536	3893776.34918318
112	25	1	0	90	36.1581920903955	36.241610738255	12	0.400026047900319	2	9	2	NaN	2	4	0.671391698905087	1	1	NaN	50	1	50	1	121	221	321	NaN	521	0.339616246987134	2	1	NaN	3893779.9997383	NaN	3893780.9831478	3893781.49970575
112	25	1	0	90	36.1581920903955	36.241610738255	15	0.500032559875399	2	6	3	NaN	1	4	0.671391698905087	1	1	NaN	51	1	51	1	121	221	321	NaN	521	0.313009569421411	1	1	NaN	3893782.6500958	NaN	3893783.6333983	3893784.14995363
112	25	1	0	90	36.1581920903955	36.241610738255	13	0.433361551892012	2	7	3	NaN	2	5	0.671391698905087	1	1	NaN	52	1	52	1	121	221	321	NaN	521	0.303487016353756	2	1	NaN	3893785.2835825	NaN	3893786.267038	3893786.78354488
112	25	1	0	90	36.1581920903955	36.241610738255	17	0.566703567858785	2	5	5	NaN	1	5	0.671391698905087	1	1	NaN	53	1	53	1	121	221	321	NaN	521	1.16693896939978	1	1	NaN	3893787.9003991	NaN	3893788.8839073	3893789.40046833
112	25	1	0	90	36.1581920903955	36.241610738255	13	0.433361551892012	2	11	3	NaN	2	4	0.671391698905087	1	1	NaN	54	1	54	1	121	221	321	NaN	521	0.430519968736917	2	1	NaN	3893791.500835	NaN	3893792.4842759	3893793.00081783
112	25	1	0	90	36.1581920903955	36.241610738255	19	0.633374575842172	2	7	6	NaN	2	3	0.671391698905087	1	1	NaN	55	1	55	1	121	221	321	NaN	521	0.319760721642524	2	1	NaN	3893795.6512605	NaN	3893796.6346589	3893797.15123088
112	25	1	0	90	36.1581920903955	36.241610738255	9	0.300019535925239	2	8	1	NaN	2	3	0.671391698905087	1	1	NaN	56	1	56	1	121	221	321	NaN	521	0.318252969067544	2	1	NaN	3893798.2848664	NaN	3893799.2682698	3893799.78481323
112	25	1	0	90	36.1581920903955	36.241610738255	12	0.400026047900319	2	10	3	NaN	2	5	0.671391698905087	1	1	NaN	57	1	57	1	121	221	321	NaN	521	0.607924316544086	2	1	NaN	3893801.0350411	NaN	3893802.0185433	3893802.53509378
112	25	1	0	90	36.1581920903955	36.241610738255	10	0.333355039916933	2	2	6	NaN	1	4	0.671391698905087	1	1	NaN	58	1	58	1	121	221	321	NaN	521	0.555602421518415	1	1	NaN	3893804.13532	NaN	3893805.1188437	3893805.63540148
112	25	1	0	90	36.1581920903955	36.241610738255	6	0.20001302395016	2	12	5	NaN	2	5	0.671391698905087	1	1	NaN	59	1	59	1	121	221	321	NaN	521	0.480626368895173	2	1	NaN	3893807.0023928	NaN	3893807.9857932	3893808.50234383
112	25	1	0	90	36.1581920903955	36.241610738255	17	0.566703567858785	2	7	3	NaN	2	5	0.671391698905087	1	1	NaN	60	1	60	1	121	221	321	NaN	521	1.22441472159699	2	1	NaN	3893809.8026446	NaN	3893810.7860727	3893811.30261368
112	25	1	0	90	36.1581920903955	36.241610738255	13	0.433361551892012	2	8	3	NaN	2	4	0.671391698905087	1	1	NaN	61	1	61	1	121	221	321	NaN	521	0.554618521593511	2	1	NaN	3893813.3362093	NaN	3893814.3197932	3893814.83629608
112	25	1	0	90	36.1581920903955	36.241610738255	6	0.20001302395016	2	12	5	NaN	2	4	0.671391698905087	1	1	NaN	62	1	62	1	121	221	321	NaN	521	0.35561232175678	2	1	NaN	3893816.3032725	NaN	3893817.2867153	3893817.80326208
112	25	1	0	90	36.1581920903955	36.241610738255	7	0.233348527941853	2	12	3	NaN	2	3	0.671391698905087	1	1	NaN	63	1	63	1	121	221	321	NaN	521	0.40876726899296	2	1	NaN	3893818.9702465	NaN	3893819.9536499	3893820.47018503
112	25	1	0	90	36.1581920903955	36.241610738255	6	0.20001302395016	2	9	6	NaN	2	4	0.671391698905087	1	1	NaN	64	2	1	1	121	221	321	NaN	521	3.34268746897578	2	1	NaN	3893931.9645532	NaN	3893932.9480643	3893933.46461723
112	25	1	0	90	36.1581920903955	36.241610738255	25	0.833387599792331	2	5	4	NaN	1	5	0.671391698905087	1	1	NaN	65	2	2	1	121	221	321	NaN	521	0.0104262162931263	1	1	NaN	3893939.7821157	NaN	3893940.7655013	3893941.28204238
112	25	1	0	90	36.1581920903955	36.241610738255	7	0.233348527941853	2	1	3	NaN	1	5	0.671391698905087	1	1	NaN	66	2	3	1	121	221	321	NaN	521	0.52256042137742	1	1	NaN	3893942.6490081	NaN	3893943.6324374	3893944.14899928
112	25	1	0	90	36.1581920903955	36.241610738255	16	0.533368063867092	2	4	2	NaN	1	4	0.671391698905087	1	1	NaN	67	2	4	1	121	221	321	NaN	521	1.68701112177223	2	0	NaN	3893945.915632	NaN	3893946.8994408	3893947.41598948
112	25	1	0	90	36.1581920903955	36.241610738255	0	0	1	8	3	NaN	2	4	0.671391698905087	1	1	NaN	68	2	5	1	111	211	311	NaN	511	0.356537374202162	2	1	NaN	3893950.3827629	NaN	3893951.3665349	3893951.88309353
112	25	1	0	90	36.1581920903955	36.241610738255	6	0.20001302395016	2	1	6	NaN	1	5	0.671391698905087	1	1	NaN	69	2	6	1	121	221	321	NaN	521	4.96404496906325	1	1	NaN	3893954.1834777	NaN	3893955.1669142	3893955.68346173
112	25	1	0	90	36.1581920903955	36.241610738255	25	0.833387599792331	2	7	4	NaN	2	5	0.671391698905087	1	1	NaN	70	2	7	1	121	221	321	NaN	521	0.39136011665687	2	1	NaN	3893961.4842389	NaN	3893962.4676778	3893962.98418238
112	25	1	0	90	36.1581920903955	36.241610738255	23	0.766716591808945	2	5	5	NaN	1	5	0.671391698905087	1	1	NaN	71	2	8	1	121	221	321	NaN	521	0.387061521876603	1	1	NaN	3893964.1843675	NaN	3893965.1678801	3893965.68444888
112	25	1	0	90	36.1581920903955	36.241610738255	8	0.266684031933546	2	4	1	NaN	1	5	0.671391698905087	1	1	NaN	72	2	9	1	121	221	321	NaN	521	1.31863546883687	2	0	NaN	3893966.8847567	NaN	3893967.8681571	3893968.38471563
112	25	1	0	90	36.1581920903955	36.241610738255	18	0.600039071850479	2	12	5	NaN	2	5	0.671391698905087	1	1	NaN	73	2	10	1	121	221	321	NaN	521	0.33355776919052	2	1	NaN	3893970.5017814	NaN	3893971.485179	3893972.00172933
112	25	1	0	90	36.1581920903955	36.241610738255	20	0.666710079833865	2	1	3	NaN	1	3	0.671391698905087	1	1	NaN	74	2	11	1	121	221	321	NaN	521	0.387104969006032	1	1	NaN	3893973.1520498	NaN	3893974.1354249	3893974.65199493
112	25	1	0	90	36.1581920903955	36.241610738255	16	0.533368063867092	2	8	2	NaN	2	4	0.671391698905087	1	1	NaN	75	2	12	1	121	221	321	NaN	521	0.367310221772641	2	1	NaN	3893975.8522902	NaN	3893976.8356961	3893977.35226158
112	25	1	0	90	36.1581920903955	36.241610738255	23	0.766716591808945	2	9	3	NaN	2	4	0.671391698905087	1	1	NaN	76	2	13	1	121	221	321	NaN	521	1.60325686912984	2	1	NaN	3893978.5357599	NaN	3893979.5192988	3893980.03585773
112	25	1	0	90	36.1581920903955	36.241610738255	25	0.833387599792331	2	11	2	NaN	2	5	0.671391698905087	1	1	NaN	77	2	14	1	121	221	321	NaN	521	0.638308241963387	2	1	NaN	3893982.4529569	NaN	3893983.4364005	3893983.95291216
112	25	1	0	90	36.1581920903955	36.241610738255	13	0.433361551892012	2	6	6	NaN	1	3	0.671391698905087	1	1	NaN	78	2	15	1	121	221	321	NaN	521	0.392344621475786	1	1	NaN	3893985.4032645	NaN	3893986.3866411	3893986.90319468
112	25	1	0	90	36.1581920903955	36.241610738255	23	0.766716591808945	2	12	3	NaN	2	4	0.671391698905087	1	1	NaN	79	2	16	1	121	221	321	NaN	521	0.700156521517783	2	1	NaN	3893988.103493	NaN	3893989.0869153	3893989.60346428
112	25	1	0	90	36.1581920903955	36.241610738255	20	0.666710079833865	2	6	1	NaN	1	4	0.671391698905087	1	1	NaN	80	2	17	1	121	221	321	NaN	521	0.314677968621254	1	1	NaN	3893991.1204676	NaN	3893992.1038565	3893992.62042273
112	25	1	0	90	36.1581920903955	36.241610738255	25	0.833387599792331	2	1	1	NaN	1	4	0.671391698905087	1	1	NaN	81	2	18	1	121	221	321	NaN	521	0.417637821752578	1	1	NaN	3893993.7540614	NaN	3893994.7374612	3893995.25402068
112	25	1	0	90	36.1581920903955	36.241610738255	0	0	1	6	3	NaN	1	3	0.671391698905087	1	1	NaN	82	2	19	1	111	211	311	NaN	511	0.355625769123435	1	1	NaN	3893996.4876584	NaN	3893997.4710411	3893997.98761903
112	25	1	0	90	36.1581920903955	36.241610738255	19	0.633374575842172	2	5	2	NaN	1	5	0.671391698905087	1	1	NaN	83	2	20	1	121	221	321	NaN	521	2.20865282183513	1	1	NaN	3893999.154603	NaN	3894000.1379992	3894000.65454918
112	25	1	0	90	36.1581920903955	36.241610738255	21	0.700045583825558	2	4	2	NaN	1	4	0.671391698905087	1	1	NaN	84	2	21	1	121	221	321	NaN	521	1.22762252157554	2	0	NaN	3894003.6716984	NaN	3894004.6551076	3894005.17165988
112	25	1	0	90	36.1581920903955	36.241610738255	14	0.466697055883706	2	8	1	NaN	2	5	0.671391698905087	1	1	NaN	85	2	22	1	121	221	321	NaN	521	0.357211421709508	2	1	NaN	3894007.2220448	NaN	3894008.2054664	3894008.72200198
112	25	1	0	90	36.1581920903955	36.241610738255	17	0.566703567858785	2	11	4	NaN	2	4	0.671391698905087	1	1	NaN	86	2	23	1	121	221	321	NaN	521	0.378158463630825	2	1	NaN	3894009.8889954	NaN	3894010.8723826	3894011.38892504
112	25	1	0	90	36.1581920903955	36.241610738255	24	0.800052095800638	2	10	2	NaN	2	4	0.671391698905087	1	1	NaN	87	2	24	1	121	221	321	NaN	521	0.637317721731961	2	1	NaN	3894013.005915	NaN	3894013.9893936	3894014.50591148
112	25	1	0	90	36.1581920903955	36.241610738255	15	0.500032559875399	2	7	2	NaN	2	4	0.671391698905087	1	1	NaN	88	2	25	1	121	221	321	NaN	521	0.390993816312402	2	1	NaN	3894015.956249	NaN	3894016.939636	3894017.45620118
112	25	1	0	90	36.1581920903955	36.241610738255	7	0.233348527941853	2	9	6	NaN	2	5	0.671391698905087	1	1	NaN	89	2	26	1	121	221	321	NaN	521	0.53882306907326	2	1	NaN	3894018.6565157	NaN	3894019.6399209	3894020.15646663
112	25	1	0	90	36.1581920903955	36.241610738255	7	0.233348527941853	2	5	4	NaN	1	4	0.671391698905087	1	1	NaN	90	2	27	1	121	221	321	NaN	521	2.84065821627155	1	1	NaN	3894021.5067774	NaN	3894022.4901922	3894023.00673628
112	25	1	0	90	36.1581920903955	36.241610738255	6	0.20001302395016	2	10	6	NaN	2	3	0.671391698905087	1	1	NaN	91	2	28	1	121	221	321	NaN	521	0.0104093691334128	2	1	NaN	3894027.3906741	NaN	3894028.3741108	3894028.89065613
112	25	1	0	90	36.1581920903955	36.241610738255	8	0.266684031933546	2	4	1	NaN	1	3	0.671391698905087	1	1	NaN	92	2	29	1	121	221	321	NaN	521	0.271413868758827	2	0	NaN	3894029.7242819	NaN	3894030.7076433	3894031.22421623
112	25	1	0	90	36.1581920903955	36.241610738255	22	0.733381087817252	2	8	4	NaN	2	5	0.671391698905087	1	1	NaN	93	2	30	1	121	221	321	NaN	521	0.327800668776035	2	1	NaN	3894032.3078523	NaN	3894033.2912568	3894033.80779713
112	25	1	0	90	36.1581920903955	36.241610738255	19	0.633374575842172	2	8	6	NaN	2	5	0.671391698905087	1	1	NaN	94	2	31	1	121	221	321	NaN	521	0.349907421972603	2	1	NaN	3894034.9414573	NaN	3894035.9248327	3894036.44139658
112	25	1	0	90	36.1581920903955	36.241610738255	8	0.266684031933546	2	6	2	NaN	1	5	0.671391698905087	1	1	NaN	95	2	32	1	121	221	321	NaN	521	0.347437769174576	1	1	NaN	3894037.6083937	NaN	3894038.5918146	3894039.10832173
112	25	1	0	90	36.1581920903955	36.241610738255	18	0.600039071850479	2	4	3	NaN	1	5	0.671391698905087	1	1	NaN	96	2	33	1	121	221	321	NaN	521	1.1600498217158	2	0	NaN	3894040.2753115	NaN	3894041.2586943	3894041.77525218
112	25	1	0	90	36.1581920903955	36.241610738255	6	0.20001302395016	2	2	4	NaN	1	5	0.671391698905087	1	1	NaN	97	2	34	1	121	221	321	NaN	521	0.414942668750882	2	0	NaN	3894043.8923195	NaN	3894044.8757269	3894045.39227053
112	25	1	0	90	36.1581920903955	36.241610738255	11	0.366690543908626	2	1	4	NaN	1	5	0.671391698905087	1	1	NaN	98	2	35	1	121	221	321	NaN	521	0.297382921911776	1	1	NaN	3894046.6259183	NaN	3894047.6093239	3894048.12587868
112	25	1	0	90	36.1581920903955	36.241610738255	15	0.500032559875399	2	11	6	NaN	2	3	0.671391698905087	1	1	NaN	99	2	36	1	121	221	321	NaN	521	0.548310063779354	2	1	NaN	3894049.3595236	NaN	3894050.3429319	3894050.85947734
112	25	1	0	90	36.1581920903955	36.241610738255	14	0.466697055883706	2	1	2	NaN	1	5	0.671391698905087	1	1	NaN	100	2	37	1	121	221	321	NaN	521	0.345071574207395	1	1	NaN	3894052.2264864	NaN	3894053.2099069	3894053.72642623
112	25	1	0	90	36.1581920903955	36.241610738255	17	0.566703567858785	2	9	5	NaN	2	3	0.671391698905087	1	1	NaN	101	2	38	1	121	221	321	NaN	521	0.301957694813609	2	1	NaN	3894054.893415	NaN	3894055.8767994	3894056.39336321
112	25	1	0	90	36.1581920903955	36.241610738255	20	0.666710079833865	2	3	3	NaN	1	3	0.671391698905087	1	1	NaN	102	2	39	1	121	221	321	NaN	521	0.620960569009185	1	1	NaN	3894057.5103144	NaN	3894058.4937218	3894059.01026853
112	25	1	0	90	36.1581920903955	36.241610738255	8	0.266684031933546	2	10	4	NaN	2	5	0.671391698905087	1	1	NaN	103	2	40	1	121	221	321	NaN	521	1.07944692159072	2	1	NaN	3894060.4439311	NaN	3894061.4273518	3894061.94389128
112	25	1	0	90	36.1581920903955	36.241610738255	8	0.266684031933546	2	12	1	NaN	2	5	0.671391698905087	1	1	NaN	104	2	41	1	121	221	321	NaN	521	0.551796121522784	2	1	NaN	3894063.8275271	NaN	3894064.811021	3894065.32755778
112	25	1	0	90	36.1581920903955	36.241610738255	19	0.633374575842172	2	12	4	NaN	2	3	0.671391698905087	1	1	NaN	105	2	42	1	121	221	321	NaN	521	0.421294369269162	2	1	NaN	3894066.6945702	NaN	3894067.6779646	3894068.19450663
112	25	1	0	90	36.1581920903955	36.241610738255	25	0.833387599792331	2	9	6	NaN	2	4	0.671391698905087	1	1	NaN	106	2	43	1	121	221	321	NaN	521	0.271563021466136	2	1	NaN	3894069.428141	NaN	3894070.4115685	3894070.92811718
112	25	1	0	90	36.1581920903955	36.241610738255	7	0.233348527941853	2	6	4	NaN	1	3	0.671391698905087	1	1	NaN	107	2	44	1	121	221	321	NaN	521	0.351578569039702	1	1	NaN	3894072.0117543	NaN	3894072.9951719	3894073.51169543
112	25	1	0	90	36.1581920903955	36.241610738255	11	0.366690543908626	2	12	6	NaN	2	4	0.671391698905087	1	1	NaN	108	2	45	1	121	221	321	NaN	521	0.318257374223322	2	1	NaN	3894074.8453628	NaN	3894075.8287532	3894076.34531873
112	25	1	0	90	36.1581920903955	36.241610738255	6	0.20001302395016	2	7	5	NaN	2	3	0.671391698905087	1	1	NaN	109	2	46	1	121	221	321	NaN	521	0.748427469283342	2	1	NaN	3894077.4789582	NaN	3894078.4623643	3894078.97889933
112	25	1	0	90	36.1581920903955	36.241610738255	8	0.266684031933546	2	6	6	NaN	1	5	0.671391698905087	1	1	NaN	110	2	47	1	121	221	321	NaN	521	0.401269599795341	1	1	NaN	3894080.5457922	NaN	3894081.5293211	3894082.0458928
112	25	1	0	90	36.1581920903955	36.241610738255	22	0.733381087817252	2	5	6	NaN	1	3	0.671391698905087	1	1	NaN	111	2	48	1	121	221	321	NaN	521	0.350582969374955	2	0	NaN	3894083.4128841	NaN	3894084.396279	3894084.91281713
112	25	1	0	90	36.1581920903955	36.241610738255	23	0.766716591808945	2	3	4	NaN	1	5	0.671391698905087	1	1	NaN	112	2	49	1	121	221	321	NaN	521	0.372067369055003	1	1	NaN	3894086.0797912	NaN	3894087.0631918	3894087.57974503
112	25	1	0	90	36.1581920903955	36.241610738255	23	0.766716591808945	2	9	2	NaN	2	4	0.671391698905087	1	1	NaN	113	2	50	1	121	221	321	NaN	521	0.321211421396583	2	1	NaN	3894088.9300609	NaN	3894089.9134795	3894090.43003158
112	25	1	0	90	36.1581920903955	36.241610738255	18	0.600039071850479	2	11	6	NaN	2	4	0.671391698905087	1	1	NaN	114	2	51	1	121	221	321	NaN	521	0.33572593703866	1	0	NaN	3894091.5636711	NaN	3894092.5470615	3894093.06362276
112	25	1	0	90	36.1581920903955	36.241610738255	9	0.300019535925239	2	10	4	NaN	2	3	0.671391698905087	1	1	NaN	115	2	52	1	121	221	321	NaN	521	0.495429369155318	2	1	NaN	3894094.3639515	NaN	3894095.3473163	3894095.86389233
112	25	1	0	90	36.1581920903955	36.241610738255	16	0.533368063867092	2	6	2	NaN	1	4	0.671391698905087	1	1	NaN	116	2	53	1	121	221	321	NaN	521	0.431014021858573	1	1	NaN	3894097.1808968	NaN	3894098.164302	3894098.68083998
112	25	1	0	90	36.1581920903955	36.241610738255	22	0.733381087817252	2	10	1	NaN	2	4	0.671391698905087	1	1	NaN	117	2	54	1	121	221	321	NaN	521	0.328252069186419	2	1	NaN	3894099.9311597	NaN	3894100.9145665	3894101.43110803
112	25	1	0	90	36.1581920903955	36.241610738255	17	0.566703567858785	2	12	2	NaN	2	4	0.671391698905087	1	1	NaN	118	2	55	1	121	221	321	NaN	521	0.270131321623921	2	1	NaN	3894102.5812998	NaN	3894103.56484	3894104.08137438
112	25	1	0	90	36.1581920903955	36.241610738255	25	0.833387599792331	2	12	2	NaN	2	5	0.671391698905087	1	1	NaN	119	2	56	1	121	221	321	NaN	521	0.326461242046207	2	1	NaN	3894105.1650006	NaN	3894106.1484342	3894106.66496566
112	25	1	0	90	36.1581920903955	36.241610738255	24	0.800052095800638	2	1	5	NaN	1	4	0.671391698905087	1	1	NaN	120	2	57	1	121	221	321	NaN	521	0.332078821957111	1	1	NaN	3894107.8152827	NaN	3894108.7986867	3894109.31521348
112	25	1	0	90	36.1581920903955	36.241610738255	13	0.433361551892012	2	12	4	NaN	2	4	0.671391698905087	1	1	NaN	121	2	58	1	121	221	321	NaN	521	0.419379621744156	2	1	NaN	3894110.6321846	NaN	3894111.6156119	3894112.13216248
112	25	1	0	90	36.1581920903955	36.241610738255	8	0.266684031933546	2	11	1	NaN	2	3	0.671391698905087	1	1	NaN	122	2	59	1	121	221	321	NaN	521	0.317347121890634	2	1	NaN	3894113.3823507	NaN	3894114.3658689	3894114.88242908
112	25	1	0	90	36.1581920903955	36.241610738255	22	0.733381087817252	2	4	1	NaN	1	4	0.671391698905087	1	1	NaN	123	2	60	1	121	221	321	NaN	521	0.291366621851921	1	1	NaN	3894116.0160758	NaN	3894116.9994751	3894117.51602518
112	25	1	0	90	36.1581920903955	36.241610738255	25	0.833387599792331	2	11	4	NaN	2	3	0.671391698905087	1	1	NaN	124	2	61	1	121	221	321	NaN	521	1.13957342179492	1	0	NaN	3894118.6162118	NaN	3894119.5997193	3894120.11627348
112	25	1	0	90	36.1581920903955	36.241610738255	0	0	1	7	4	NaN	2	3	0.671391698905087	1	1	NaN	125	2	62	1	111	211	311	NaN	511	0.273163821548223	2	1	NaN	3894122.0665716	NaN	3894123.050063	3894123.56662048
112	25	1	0	90	36.1581920903955	36.241610738255	10	0.333355039916933	2	11	1	NaN	2	3	0.671391698905087	1	1	NaN	126	2	63	1	121	221	321	NaN	521	0.617323521990329	2	1	NaN	3894124.6502469	NaN	3894125.63364	3894126.15020798
112	25	1	0	90	36.1581920903955	36.241610738255	0	0	1	7	1	NaN	2	5	0.671391698905087	1	1	NaN	127	3	1	1	111	211	311	NaN	511	0.0104093691334128	2	1	NaN	3894156.4700544	NaN	3894157.4534763	3894157.96999723
112	25	1	0	90	36.1581920903955	36.241610738255	19	0.633374575842172	2	12	1	NaN	2	4	0.671391698905087	1	1	NaN	128	3	2	1	121	221	321	NaN	521	0.295776869170368	2	1	NaN	3894158.8036444	NaN	3894159.7870097	3894160.30355043
112	25	1	0	90	36.1581920903955	36.241610738255	18	0.600039071850479	2	9	5	NaN	2	3	0.671391698905087	1	1	NaN	129	3	3	1	121	221	321	NaN	521	0.400067874230444	2	1	NaN	3894161.4038472	NaN	3894162.387257	3894162.90381653
112	25	1	0	90	36.1581920903955	36.241610738255	11	0.366690543908626	2	4	3	NaN	1	4	0.671391698905087	1	1	NaN	130	3	4	1	121	221	321	NaN	521	0.410845069214702	1	1	NaN	3894164.1207987	NaN	3894165.104082	3894165.62073953
112	25	1	0	90	36.1581920903955	36.241610738255	21	0.700045583825558	2	5	4	NaN	1	3	0.671391698905087	1	1	NaN	131	3	5	1	121	221	321	NaN	521	0.309048269409686	1	1	NaN	3894166.8543862	NaN	3894167.8377968	3894168.35434353
112	25	1	0	90	36.1581920903955	36.241610738255	22	0.733381087817252	2	11	3	NaN	2	3	0.671391698905087	1	1	NaN	132	3	6	1	121	221	321	NaN	521	0.316130321472883	2	1	NaN	3894169.4711957	NaN	3894170.4547137	3894170.97126858
112	25	1	0	90	36.1581920903955	36.241610738255	6	0.20001302395016	2	4	1	NaN	1	3	0.671391698905087	1	1	NaN	133	3	7	1	121	221	321	NaN	521	0.290691869333386	2	0	NaN	3894172.1049316	NaN	3894173.0883318	3894173.60486063
112	25	1	0	90	36.1581920903955	36.241610738255	22	0.733381087817252	2	3	3	NaN	1	4	0.671391698905087	1	1	NaN	134	3	8	1	121	221	321	NaN	521	0.438032568898052	1	1	NaN	3894176.0219377	NaN	3894177.0053709	3894177.52191243
112	25	1	0	90	36.1581920903955	36.241610738255	16	0.533368063867092	2	3	3	NaN	1	4	0.671391698905087	1	1	NaN	135	3	9	1	121	221	321	NaN	521	0.454252021852881	1	1	NaN	3894179.4055158	NaN	3894180.3890285	3894180.90557458
112	25	1	0	90	36.1581920903955	36.241610738255	17	0.566703567858785	2	2	4	NaN	1	4	0.671391698905087	1	1	NaN	136	3	10	1	121	221	321	NaN	521	2.23931222176179	1	1	NaN	3894182.1724264	NaN	3894183.1559702	3894183.67252218
112	25	1	0	90	36.1581920903955	36.241610738255	25	0.833387599792331	2	1	2	NaN	1	4	0.671391698905087	1	1	NaN	137	3	11	1	121	221	321	NaN	521	0.80062562180683	1	1	NaN	3894186.7230115	NaN	3894187.7063946	3894188.22295988
112	25	1	0	90	36.1581920903955	36.241610738255	10	0.333355039916933	2	5	1	NaN	1	4	0.671391698905087	1	1	NaN	138	3	12	1	121	221	321	NaN	521	1.17958252131939	1	1	NaN	3894189.8399877	NaN	3894190.8234233	3894191.33993648
112	25	1	0	90	36.1581920903955	36.241610738255	16	0.533368063867092	2	3	6	NaN	1	3	0.671391698905087	1	1	NaN	139	3	13	1	121	221	321	NaN	521	3.879204521887	1	1	NaN	3894193.3402005	NaN	3894194.3237509	3894194.84027888
112	25	1	0	90	36.1581920903955	36.241610738255	6	0.20001302395016	2	8	5	NaN	2	5	0.671391698905087	1	1	NaN	140	3	14	1	121	221	321	NaN	521	0.710639468859881	2	1	NaN	3894199.5409476	NaN	3894200.5243379	3894201.04088333
112	25	1	0	90	36.1581920903955	36.241610738255	14	0.466697055883706	2	5	2	NaN	1	4	0.671391698905087	1	1	NaN	141	3	15	1	121	221	321	NaN	521	0.597906721755862	1	1	NaN	3894202.5577677	NaN	3894203.5413367	3894204.05785088
112	25	1	0	90	36.1581920903955	36.241610738255	25	0.833387599792331	2	2	4	NaN	1	5	0.671391698905087	1	1	NaN	142	3	16	1	121	221	321	NaN	521	1.85977763682604	1	1	NaN	3894244.712047	NaN	3894245.6954662	3894246.21199176
112	25	1	0	90	36.1581920903955	36.241610738255	20	0.666710079833865	2	4	4	NaN	1	4	0.671391698905087	1	1	NaN	143	3	17	1	121	221	321	NaN	521	0.340632569044828	1	1	NaN	3894248.8791072	NaN	3894249.8625543	3894250.37906293
112	25	1	0	90	36.1581920903955	36.241610738255	19	0.633374575842172	2	4	4	NaN	1	4	0.671391698905087	1	1	NaN	144	3	18	1	121	221	321	NaN	521	0.274214021861553	1	1	NaN	3894251.5292481	NaN	3894252.5127779	3894253.02932468
112	25	1	0	90	36.1581920903955	36.241610738255	11	0.366690543908626	2	7	1	NaN	2	5	0.671391698905087	1	1	NaN	145	3	19	1	121	221	321	NaN	521	0.203034479171038	2	1	NaN	3894254.112844	NaN	3894255.0963575	3894255.61291612
112	25	1	0	90	36.1581920903955	36.241610738255	11	0.366690543908626	2	2	3	NaN	1	4	0.671391698905087	1	1	NaN	146	3	20	1	121	221	321	NaN	521	0.613885221537203	1	1	NaN	3894256.62989	NaN	3894257.6133005	3894258.12982618
112	25	1	0	90	36.1581920903955	36.241610738255	9	0.300019535925239	2	7	4	NaN	2	4	0.671391698905087	1	1	NaN	147	3	21	1	121	221	321	NaN	521	2.00191286904737	2	1	NaN	3894259.7300685	NaN	3894260.7135085	3894261.23013243
112	25	1	0	90	36.1581920903955	36.241610738255	15	0.500032559875399	2	4	2	NaN	1	4	0.671391698905087	1	1	NaN	148	3	22	1	121	221	321	NaN	521	0.380862721707672	2	0	NaN	3894264.0472704	NaN	3894265.0306541	3894265.54722058
112	25	1	0	90	36.1581920903955	36.241610738255	19	0.633374575842172	2	2	4	NaN	1	5	0.671391698905087	1	1	NaN	149	3	23	1	121	221	321	NaN	521	0.424771969206631	1	1	NaN	3894266.9308918	NaN	3894267.9142688	3894268.43083603
112	25	1	0	90	36.1581920903955	36.241610738255	23	0.766716591808945	2	11	4	NaN	2	3	0.671391698905087	1	1	NaN	150	3	24	1	121	221	321	NaN	521	0.387831021565944	2	1	NaN	3894269.847806	NaN	3894270.8312523	3894271.34780218
112	25	1	0	90	36.1581920903955	36.241610738255	19	0.633374575842172	2	5	3	NaN	1	5	0.671391698905087	1	1	NaN	151	3	25	1	121	221	321	NaN	521	0.335586369037628	1	1	NaN	3894272.5481056	NaN	3894273.5315027	3894274.04805593
112	25	1	0	90	36.1581920903955	36.241610738255	20	0.666710079833865	2	3	5	NaN	1	4	0.671391698905087	1	1	NaN	152	3	26	1	121	221	321	NaN	521	0.269177969079465	1	1	NaN	3894275.1983638	NaN	3894276.1817874	3894276.69831013
112	25	1	0	90	36.1581920903955	36.241610738255	10	0.333355039916933	2	8	5	NaN	2	3	0.671391698905087	1	1	NaN	153	3	27	1	121	221	321	NaN	521	0.069930269382894	2	1	NaN	3894277.7819443	NaN	3894278.7653516	3894279.28190693
112	25	1	0	90	36.1581920903955	36.241610738255	9	0.300019535925239	2	10	1	NaN	2	4	0.671391698905087	1	1	NaN	154	3	28	1	121	221	321	NaN	521	2.63808822166175	2	1	NaN	3894280.1656054	NaN	3894281.1489161	3894281.66547638
112	25	1	0	90	36.1581920903955	36.241610738255	20	0.666710079833865	2	2	6	NaN	1	4	0.671391698905087	1	1	NaN	155	3	29	1	121	221	321	NaN	521	0.359784221742302	1	1	NaN	3894285.116044	NaN	3894286.099427	3894286.61596248
112	25	1	0	90	36.1581920903955	36.241610738255	25	0.833387599792331	2	10	6	NaN	2	3	0.671391698905087	1	1	NaN	156	3	30	1	121	221	321	NaN	521	0.268672589212656	2	1	NaN	3894287.7829488	NaN	3894288.766321	3894289.28288481
112	25	1	0	90	36.1581920903955	36.241610738255	11	0.366690543908626	2	11	2	NaN	2	5	0.671391698905087	1	1	NaN	157	3	31	1	121	221	321	NaN	521	8.27764088939875	2	1	NaN	3894290.3665356	NaN	3894291.3499224	3894291.86647121
112	25	1	0	90	36.1581920903955	36.241610738255	24	0.800052095800638	2	5	5	NaN	1	3	0.671391698905087	1	1	NaN	158	3	32	1	121	221	321	NaN	521	1.79680686909705	1	1	NaN	3894300.9509432	NaN	3894301.9342984	3894302.45084043
112	25	1	0	90	36.1581920903955	36.241610738255	21	0.700045583825558	2	8	1	NaN	2	5	0.671391698905087	1	1	NaN	159	3	33	1	121	221	321	NaN	521	0.456829821690917	2	1	NaN	3894305.0512915	NaN	3894306.0346951	3894306.55125448
112	25	1	0	90	36.1581920903955	36.241610738255	7	0.233348527941853	2	10	2	NaN	2	5	0.671391698905087	1	1	NaN	160	3	34	1	121	221	321	NaN	521	0.333480769302696	2	1	NaN	3894308.5181842	NaN	3894309.5017012	3894310.01825633
112	25	1	0	90	36.1581920903955	36.241610738255	16	0.533368063867092	2	10	2	NaN	2	5	0.671391698905087	1	1	NaN	161	3	35	1	121	221	321	NaN	521	0.811156216543168	2	1	NaN	3894311.1685686	NaN	3894312.1520392	3894312.66853268
112	25	1	0	90	36.1581920903955	36.241610738255	10	0.333355039916933	2	4	4	NaN	1	4	0.671391698905087	1	1	NaN	162	3	36	1	121	221	321	NaN	521	0.710081769153476	2	0	NaN	3894314.2855245	NaN	3894315.2689337	3894315.78548793
112	25	1	0	90	36.1581920903955	36.241610738255	0	0	1	5	2	NaN	1	3	0.671391698905087	1	1	NaN	163	3	37	1	111	211	311	NaN	511	0.333158868830651	1	1	NaN	3894317.3025028	NaN	3894318.285885	3894318.80245163
112	25	1	0	90	36.1581920903955	36.241610738255	11	0.366690543908626	2	5	6	NaN	1	3	0.671391698905087	1	1	NaN	164	3	38	1	121	221	321	NaN	521	0.384035069029778	1	1	NaN	3894320.0359799	NaN	3894321.019496	3894321.53604563
112	25	1	0	90	36.1581920903955	36.241610738255	15	0.500032559875399	2	7	5	NaN	2	5	0.671391698905087	1	1	NaN	165	3	39	1	121	221	321	NaN	521	4.96358776884153	2	1	NaN	3894322.7363627	NaN	3894323.7197623	3894324.23631473
112	25	1	0	90	36.1581920903955	36.241610738255	25	0.833387599792331	2	8	1	NaN	2	3	0.671391698905087	1	1	NaN	166	3	40	1	121	221	321	NaN	521	0.44809202151373	2	1	NaN	3894330.0037648	NaN	3894330.9871352	3894331.50369808
112	25	1	0	90	36.1581920903955	36.241610738255	9	0.300019535925239	2	8	2	NaN	2	5	0.671391698905087	1	1	NaN	167	3	41	1	121	221	321	NaN	521	0.489379669073969	2	1	NaN	3894332.7706842	NaN	3894333.7540874	3894334.27063593
112	25	1	0	90	36.1581920903955	36.241610738255	16	0.533368063867092	2	9	3	NaN	2	3	0.671391698905087	1	1	NaN	168	3	42	1	121	221	321	NaN	521	0.337199668865651	1	0	NaN	3894335.5709598	NaN	3894336.5543711	3894337.07090663
112	25	1	0	90	36.1581920903955	36.241610738255	22	0.733381087817252	2	2	5	NaN	1	4	0.671391698905087	1	1	NaN	169	3	43	1	121	221	321	NaN	521	0.422653769142926	1	1	NaN	3894338.2212416	NaN	3894339.2046446	3894339.72117003
112	25	1	0	90	36.1581920903955	36.241610738255	6	0.20001302395016	2	2	1	NaN	1	5	0.671391698905087	1	1	NaN	170	3	44	1	121	221	321	NaN	521	12.6093936692923	1	1	NaN	3894340.9548162	NaN	3894341.9382395	3894342.45477003
112	25	1	0	90	36.1581920903955	36.241610738255	11	0.366690543908626	2	7	6	NaN	2	4	0.671391698905087	1	1	NaN	171	3	45	1	121	221	321	NaN	521	0.419217268936336	2	1	NaN	3894355.8729513	NaN	3894356.8563584	3894357.37290763
112	25	1	0	90	36.1581920903955	36.241610738255	11	0.366690543908626	2	12	2	NaN	2	3	0.671391698905087	1	1	NaN	172	3	46	1	121	221	321	NaN	521	0.319199016317725	2	1	NaN	3894358.9559166	NaN	3894359.939871	3894360.45653268
112	25	1	0	90	36.1581920903955	36.241610738255	19	0.633374575842172	2	4	1	NaN	1	5	0.671391698905087	1	1	NaN	173	3	47	1	121	221	321	NaN	521	0.477590069174767	1	1	NaN	3894361.590187	NaN	3894362.573574	3894363.09013103
112	25	1	0	90	36.1581920903955	36.241610738255	21	0.700045583825558	2	10	1	NaN	2	4	0.671391698905087	1	1	NaN	174	3	48	1	121	221	321	NaN	521	0.279377321712673	2	1	NaN	3894364.5403412	NaN	3894365.5238841	3894366.04042868
112	25	1	0	90	36.1581920903955	36.241610738255	8	0.266684031933546	2	2	5	NaN	1	4	0.671391698905087	1	1	NaN	175	3	49	1	121	221	321	NaN	521	3.28740736888722	1	1	NaN	3894367.1407044	NaN	3894368.124125	3894368.64067493
112	25	1	0	90	36.1581920903955	36.241610738255	25	0.833387599792331	2	12	6	NaN	2	3	0.671391698905087	1	1	NaN	176	3	50	1	121	221	321	NaN	521	0.883541021961719	2	1	NaN	3894373.2246374	NaN	3894374.2080591	3894374.72460968
112	25	1	0	90	36.1581920903955	36.241610738255	23	0.766716591808945	2	5	5	NaN	1	3	0.671391698905087	1	1	NaN	177	3	51	1	121	221	321	NaN	521	0.314853269141167	1	1	NaN	3894376.4249634	NaN	3894377.4083788	3894377.92492563
112	25	1	0	90	36.1581920903955	36.241610738255	21	0.700045583825558	2	2	2	NaN	1	4	0.671391698905087	1	1	NaN	178	3	52	1	121	221	321	NaN	521	5.16174266906455	1	1	NaN	3894379.0586647	NaN	3894380.0419761	3894380.55851413
112	25	1	0	90	36.1581920903955	36.241610738255	11	0.366690543908626	2	8	5	NaN	2	3	0.671391698905087	1	1	NaN	179	3	53	1	121	221	321	NaN	521	0.0104239690117538	2	1	NaN	3894386.5258102	NaN	3894387.5093672	3894388.02592173
112	25	1	0	90	36.1581920903955	36.241610738255	14	0.466697055883706	2	3	4	NaN	1	3	0.671391698905087	1	1	NaN	180	3	54	1	121	221	321	NaN	521	0.273025868926197	1	1	NaN	3894388.8429074	NaN	3894389.8262707	3894390.34280253
112	25	1	0	90	36.1581920903955	36.241610738255	20	0.666710079833865	2	9	1	NaN	2	4	0.671391698905087	1	1	NaN	181	3	55	1	121	221	321	NaN	521	5.50544251641259	2	1	NaN	3894391.426452	NaN	3894392.4098483	3894392.92640188
112	25	1	0	90	36.1581920903955	36.241610738255	21	0.700045583825558	2	7	2	NaN	2	5	0.671391698905087	1	1	NaN	182	3	56	1	121	221	321	NaN	521	0.352016569115222	2	1	NaN	3894399.2437545	NaN	3894400.2272765	3894400.74382703
112	25	1	0	90	36.1581920903955	36.241610738255	23	0.766716591808945	2	1	4	NaN	1	3	0.671391698905087	1	1	NaN	183	3	57	1	121	221	321	NaN	521	3.38272482156754	1	1	NaN	3894402.2774132	NaN	3894403.2609106	3894403.77746298
112	25	1	0	90	36.1581920903955	36.241610738255	0	0	1	11	6	NaN	2	4	0.671391698905087	1	1	NaN	184	3	58	1	111	211	311	NaN	511	0.331230121664703	2	1	NaN	3894408.1447145	NaN	3894409.1281592	3894409.64470758
112	25	1	0	90	36.1581920903955	36.241610738255	24	0.800052095800638	2	1	6	NaN	1	4	0.671391698905087	1	1	NaN	185	3	59	1	121	221	321	NaN	521	0.910180321894586	1	1	NaN	3894410.8616932	NaN	3894411.845081	3894412.36163548
112	25	1	0	90	36.1581920903955	36.241610738255	20	0.666710079833865	2	1	6	NaN	1	3	0.671391698905087	1	1	NaN	186	3	60	1	121	221	321	NaN	521	0.30855326866731	1	1	NaN	3894414.0953502	NaN	3894415.0787371	3894415.59528393
112	25	1	0	90	36.1581920903955	36.241610738255	13	0.433361551892012	2	7	2	NaN	2	3	0.671391698905087	1	1	NaN	187	3	61	1	121	221	321	NaN	521	1.58005002187565	2	1	NaN	3894416.7121334	NaN	3894417.695738	3894418.21220718
112	25	1	0	90	36.1581920903955	36.241610738255	14	0.466697055883706	2	5	1	NaN	1	4	0.671391698905087	1	1	NaN	188	3	62	1	121	221	321	NaN	521	0.887192821595818	1	1	NaN	3894420.6126424	NaN	3894421.5960538	3894422.11259728
112	25	1	0	90	36.1581920903955	36.241610738255	17	0.566703567858785	2	1	1	NaN	1	5	0.671391698905087	1	1	NaN	189	3	63	1	121	221	321	NaN	521	1.08204632159323	1	1	NaN	3894423.9462085	NaN	3894424.9297048	3894425.44626038
112	25	1	0	90	36.1581920903955	36.241610738255	10	0.333355039916933	2	6	2	NaN	1	4	0.671391698905087	1	1	NaN	190	4	1	1	121	221	321	NaN	521	0.896829469129443	1	1	NaN	3894769.1635745	NaN	3894770.1469669	3894770.66349633
112	25	1	0	90	36.1581920903955	36.241610738255	19	0.633374575842172	2	1	6	NaN	1	4	0.671391698905087	1	1	NaN	191	4	2	1	121	221	321	NaN	521	16.8717641690746	1	1	NaN	3894772.380539	NaN	3894773.363952	3894773.88047473
112	25	1	0	90	36.1581920903955	36.241610738255	21	0.700045583825558	2	6	3	NaN	1	4	0.671391698905087	1	1	NaN	192	4	3	1	121	221	321	NaN	521	0.751826416235417	1	1	NaN	3894856.5886929	NaN	3894857.5722463	3894858.08875468
112	25	1	0	90	36.1581920903955	36.241610738255	10	0.333355039916933	2	4	2	NaN	1	4	0.671391698905087	1	1	NaN	193	4	4	1	121	221	321	NaN	521	8.45409061666578	2	0	NaN	3894860.0224529	NaN	3894861.0058986	3894861.52242228
112	25	1	0	90	36.1581920903955	36.241610738255	15	0.500032559875399	2	3	5	NaN	1	3	0.671391698905087	1	1	NaN	194	4	5	1	121	221	321	NaN	521	0.478320069145411	1	1	NaN	3894870.7902244	NaN	3894871.7736358	3894872.29014243
112	25	1	0	90	36.1581920903955	36.241610738255	14	0.466697055883706	2	4	2	NaN	1	5	0.671391698905087	1	1	NaN	195	4	6	1	121	221	321	NaN	521	0.478301769122481	1	1	NaN	3894873.5904875	NaN	3894874.5738992	3894875.09044723
112	25	1	0	90	36.1581920903955	36.241610738255	19	0.633374575842172	2	9	3	NaN	2	4	0.671391698905087	1	1	NaN	196	4	7	1	121	221	321	NaN	521	0.358153521548957	2	1	NaN	3894876.3907693	NaN	3894877.3741572	3894877.89071688
112	25	1	0	90	36.1581920903955	36.241610738255	13	0.433361551892012	2	2	5	NaN	1	3	0.671391698905087	1	1	NaN	197	4	8	1	121	221	321	NaN	521	0.394774969201535	1	1	NaN	3894879.457758	NaN	3894880.4411635	3894880.95765703
112	25	1	0	90	36.1581920903955	36.241610738255	12	0.400026047900319	2	4	3	NaN	1	4	0.671391698905087	1	1	NaN	198	4	9	1	121	221	321	NaN	521	2.11792526906356	1	1	NaN	3894882.1745656	NaN	3894883.1581365	3894883.67462193
112	25	1	0	90	36.1581920903955	36.241610738255	18	0.600039071850479	2	7	4	NaN	2	4	0.671391698905087	1	1	NaN	199	4	10	1	121	221	321	NaN	521	0.299459116067737	2	1	NaN	3894886.625113	NaN	3894887.6084917	3894888.12503098
112	25	1	0	90	36.1581920903955	36.241610738255	0	0	1	5	4	NaN	1	4	0.671391698905087	1	1	NaN	200	4	11	1	111	211	311	NaN	511	0.355040526483208	1	1	NaN	3894889.2420058	NaN	3894890.2254378	3894890.74196467
112	25	1	0	90	36.1581920903955	36.241610738255	17	0.566703567858785	2	1	2	NaN	1	3	0.671391698905087	1	1	NaN	201	4	12	1	121	221	321	NaN	521	2.67141056898981	1	1	NaN	3894891.9255059	NaN	3894892.9089936	3894893.42555983
112	25	1	0	90	36.1581920903955	36.241610738255	21	0.700045583825558	2	4	5	NaN	1	3	0.671391698905087	1	1	NaN	202	4	13	1	121	221	321	NaN	521	0.334386269096285	1	1	NaN	3894896.92598	NaN	3894897.9094974	3894898.42604793
112	25	1	0	90	36.1581920903955	36.241610738255	17	0.566703567858785	2	3	6	NaN	1	5	0.671391698905087	1	1	NaN	203	4	14	1	121	221	321	NaN	521	0.24403012637049	1	1	NaN	3894899.5762645	NaN	3894900.5597856	3894901.07630347
112	25	1	0	90	36.1581920903955	36.241610738255	14	0.466697055883706	2	1	3	NaN	1	3	0.671391698905087	1	1	NaN	204	4	15	1	121	221	321	NaN	521	0.261708321515471	1	1	NaN	3894902.143311	NaN	3894903.1265709	3894903.64322138
112	25	1	0	90	36.1581920903955	36.241610738255	18	0.600039071850479	2	7	5	NaN	2	4	0.671391698905087	1	1	NaN	205	4	16	1	121	221	321	NaN	521	0.438139169011265	2	1	NaN	3894904.7267373	NaN	3894905.7102894	3894906.22680433
112	25	1	0	90	36.1581920903955	36.241610738255	8	0.266684031933546	2	11	2	NaN	2	4	0.671391698905087	1	1	NaN	206	4	17	1	121	221	321	NaN	521	0.246840716339648	2	1	NaN	3894907.4938172	NaN	3894908.4772165	3894908.99374558
112	25	1	0	90	36.1581920903955	36.241610738255	7	0.233348527941853	2	8	4	NaN	2	3	0.671391698905087	1	1	NaN	207	4	18	1	121	221	321	NaN	521	0.471874068956822	2	1	NaN	3894910.0606125	NaN	3894911.0441311	3894911.56066743
112	25	1	0	90	36.1581920903955	36.241610738255	10	0.333355039916933	2	11	4	NaN	2	5	0.671391698905087	1	1	NaN	208	4	19	1	121	221	321	NaN	521	0.271552316378802	2	1	NaN	3894912.8610115	NaN	3894913.8443974	3894914.36093738
112	25	1	0	90	36.1581920903955	36.241610738255	12	0.400026047900319	2	4	1	NaN	1	5	0.671391698905087	1	1	NaN	209	4	20	1	121	221	321	NaN	521	1.74264791607857	1	1	NaN	3894915.6779408	NaN	3894916.6613257	3894917.17788098
112	25	1	0	90	36.1581920903955	36.241610738255	18	0.600039071850479	2	2	6	NaN	1	5	0.671391698905087	1	1	NaN	210	4	21	1	121	221	321	NaN	521	0.363555121701211	1	1	NaN	3894919.7448864	NaN	3894920.7284397	3894921.24495908
112	25	1	0	90	36.1581920903955	36.241610738255	12	0.400026047900319	2	9	4	NaN	2	3	0.671391698905087	1	1	NaN	211	4	22	1	121	221	321	NaN	521	0.376420721877366	2	1	NaN	3894922.4286165	NaN	3894923.4120108	3894923.92855658
112	25	1	0	90	36.1581920903955	36.241610738255	19	0.633374575842172	2	10	3	NaN	2	3	0.671391698905087	1	1	NaN	212	4	23	1	121	221	321	NaN	521	0.243780869059265	2	1	NaN	3894925.1288918	NaN	3894926.1123037	3894926.62880333
112	25	1	0	90	36.1581920903955	36.241610738255	11	0.366690543908626	2	3	1	NaN	1	4	0.671391698905087	1	1	NaN	213	4	24	1	121	221	321	NaN	521	0.268810121808201	1	1	NaN	3894927.6957932	NaN	3894928.6792235	3894929.19574698
112	25	1	0	90	36.1581920903955	36.241610738255	11	0.366690543908626	2	9	4	NaN	2	5	0.671391698905087	1	1	NaN	214	4	25	1	121	221	321	NaN	521	0.9096001368016	2	1	NaN	3894930.2792558	NaN	3894931.2627915	3894931.77932716
112	25	1	0	90	36.1581920903955	36.241610738255	24	0.800052095800638	2	3	6	NaN	1	3	0.671391698905087	1	1	NaN	215	4	26	1	121	221	321	NaN	521	0.324018926359713	1	1	NaN	3894933.5130668	NaN	3894934.4964405	3894935.01297247
112	25	1	0	90	36.1581920903955	36.241610738255	0	0	1	4	5	NaN	1	3	0.671391698905087	1	1	NaN	216	4	27	1	111	211	311	NaN	511	0.481157547328621	1	1	NaN	3894936.1632979	NaN	3894937.1467154	3894937.66325165
112	25	1	0	90	36.1581920903955	36.241610738255	10	0.333355039916933	2	7	1	NaN	2	4	0.671391698905087	1	1	NaN	217	4	28	1	121	221	321	NaN	521	0.257115316111594	2	1	NaN	3894938.9635023	NaN	3894939.9469671	3894940.46351188
112	25	1	0	90	36.1581920903955	36.241610738255	22	0.733381087817252	2	6	2	NaN	1	5	0.671391698905087	1	1	NaN	218	4	29	1	121	221	321	NaN	521	0.298051122110337	1	1	NaN	3894941.5304741	NaN	3894942.5139085	3894943.03042418
112	25	1	0	90	36.1581920903955	36.241610738255	20	0.666710079833865	2	8	2	NaN	2	3	0.671391698905087	1	1	NaN	219	4	30	1	121	221	321	NaN	521	0.58540782192722	2	1	NaN	3894944.147308	NaN	3894945.130832	3894945.64734988
112	25	1	0	90	36.1581920903955	36.241610738255	7	0.233348527941853	2	12	6	NaN	2	4	0.671391698905087	1	1	NaN	220	4	31	1	121	221	321	NaN	521	0.220314121805131	2	1	NaN	3894947.0643687	NaN	3894948.0477753	3894948.56429708
112	25	1	0	90	36.1581920903955	36.241610738255	23	0.766716591808945	2	8	5	NaN	2	5	0.671391698905087	1	1	NaN	221	4	32	1	121	221	321	NaN	521	0.479121016338468	2	1	NaN	3894949.5978203	NaN	3894950.5813377	3894951.09787568
112	25	1	0	90	36.1581920903955	36.241610738255	10	0.333355039916933	2	7	3	NaN	2	4	0.671391698905087	1	1	NaN	222	4	33	1	121	221	321	NaN	521	1.48032699991018	2	1	NaN	3894952.54819	NaN	3894953.5316758	3894954.0481804
112	25	1	0	90	36.1581920903955	36.241610738255	7	0.233348527941853	2	1	6	NaN	1	4	0.671391698905087	1	1	NaN	223	4	34	1	121	221	321	NaN	521	0.288393574301153	1	1	NaN	3894956.3486582	NaN	3894957.3320155	3894957.84854053
112	25	1	0	90	36.1581920903955	36.241610738255	12	0.400026047900319	2	6	3	NaN	1	5	0.671391698905087	1	1	NaN	224	4	35	1	121	221	321	NaN	521	0.175241868942976	1	1	NaN	3894958.9655308	NaN	3894959.9489398	3894960.46547003
112	25	1	0	90	36.1581920903955	36.241610738255	23	0.766716591808945	2	2	5	NaN	1	4	0.671391698905087	1	1	NaN	225	4	36	1	121	221	321	NaN	521	1.53094132151455	1	1	NaN	3894961.4657825	NaN	3894962.449184	3894962.96571958
112	25	1	0	90	36.1581920903955	36.241610738255	17	0.566703567858785	2	12	5	NaN	2	4	0.671391698905087	1	1	NaN	226	4	37	1	121	221	321	NaN	521	0.728613769169897	2	1	NaN	3894965.3161077	NaN	3894966.2995835	3894966.81608503
112	25	1	0	90	36.1581920903955	36.241610738255	21	0.700045583825558	2	7	5	NaN	2	3	0.671391698905087	1	1	NaN	227	4	38	1	121	221	321	NaN	521	0.270377069246024	2	1	NaN	3894968.3664649	NaN	3894969.3498343	3894969.86639683
112	25	1	0	90	36.1581920903955	36.241610738255	20	0.666710079833865	2	11	5	NaN	2	4	0.671391698905087	1	1	NaN	228	4	39	1	121	221	321	NaN	521	0.293967168778181	2	1	NaN	3894970.9667239	NaN	3894971.9501127	3894972.46664173
112	25	1	0	90	36.1581920903955	36.241610738255	20	0.666710079833865	2	11	5	NaN	2	4	0.671391698905087	1	1	NaN	229	4	40	1	121	221	321	NaN	521	0.261063368991017	2	1	NaN	3894973.5836715	NaN	3894974.5670597	3894975.08357073
112	25	1	0	90	36.1581920903955	36.241610738255	15	0.500032559875399	2	12	6	NaN	2	3	0.671391698905087	1	1	NaN	230	4	41	1	121	221	321	NaN	521	0.285569116473198	2	1	NaN	3894976.167154	NaN	3894977.1506309	3894977.66715058
112	25	1	0	90	36.1581920903955	36.241610738255	0	0	1	2	5	NaN	1	3	0.671391698905087	1	1	NaN	231	4	42	1	111	211	311	NaN	511	1.00465246895328	1	1	NaN	3894978.7841557	NaN	3894979.7676105	3894980.28410053
112	25	1	0	90	36.1581920903955	36.241610738255	0	0	1	1	4	NaN	1	3	0.671391698905087	1	1	NaN	232	4	43	1	111	211	311	NaN	511	0.982960916124284	1	1	NaN	3894982.1177238	NaN	3894983.1011349	3894983.61773508
112	25	1	0	90	36.1581920903955	36.241610738255	7	0.233348527941853	2	10	4	NaN	2	5	0.671391698905087	1	1	NaN	233	4	44	1	121	221	321	NaN	521	3.05896072182804	2	1	NaN	3894985.418147	NaN	3894986.4015353	3894986.91806518
112	25	1	0	90	36.1581920903955	36.241610738255	19	0.633374575842172	2	2	6	NaN	1	5	0.671391698905087	1	1	NaN	234	4	45	1	121	221	321	NaN	521	1.62658536946401	1	1	NaN	3894990.8020057	NaN	3894991.7854082	3894992.30192083
112	25	1	0	90	36.1581920903955	36.241610738255	21	0.700045583825558	2	10	6	NaN	2	5	0.671391698905087	1	1	NaN	235	4	46	1	121	221	321	NaN	521	0.436200521886349	2	1	NaN	3894994.7523778	NaN	3894995.7357974	3894996.25231768
112	25	1	0	90	36.1581920903955	36.241610738255	7	0.233348527941853	2	3	5	NaN	1	5	0.671391698905087	1	1	NaN	236	4	47	1	121	221	321	NaN	521	0.39818876888603	1	1	NaN	3894997.5026772	NaN	3894998.4860766	3894999.00258823
112	25	1	0	90	36.1581920903955	36.241610738255	19	0.633374575842172	2	11	3	NaN	2	4	0.671391698905087	1	1	NaN	237	4	48	1	121	221	321	NaN	521	0.233043616171926	2	1	NaN	3895000.2194634	NaN	3895001.2029728	3895001.71951728
112	25	1	0	90	36.1581920903955	36.241610738255	8	0.266684031933546	2	5	1	NaN	1	4	0.671391698905087	1	1	NaN	238	4	49	1	121	221	321	NaN	521	4.37909986916929	1	1	NaN	3895002.7698435	NaN	3895003.7532114	3895004.26976763
112	25	1	0	90	36.1581920903955	36.241610738255	8	0.266684031933546	2	8	2	NaN	2	4	0.671391698905087	1	1	NaN	239	4	50	1	121	221	321	NaN	521	0.374527726322412	2	1	NaN	3895009.4705113	NaN	3895010.4538841	3895010.97042727
112	25	1	0	90	36.1581920903955	36.241610738255	20	0.666710079833865	2	12	2	NaN	2	3	0.671391698905087	1	1	NaN	240	4	51	1	121	221	321	NaN	521	0.37833081651479	2	1	NaN	3895012.1708551	NaN	3895013.1541434	3895013.67068068
112	25	1	0	90	36.1581920903955	36.241610738255	21	0.700045583825558	2	6	3	NaN	1	3	0.671391698905087	1	1	NaN	241	4	52	1	121	221	321	NaN	521	0.269941810984164	1	1	NaN	3895014.8710253	NaN	3895015.8544387	3895016.37094819
112	25	1	0	90	36.1581920903955	36.241610738255	18	0.600039071850479	2	1	5	NaN	1	4	0.671391698905087	1	1	NaN	242	4	53	1	121	221	321	NaN	521	0.245528469327837	1	1	NaN	3895017.471252	NaN	3895018.4546803	3895018.97121073
112	25	1	0	90	36.1581920903955	36.241610738255	22	0.733381087817252	2	1	1	NaN	1	4	0.671391698905087	1	1	NaN	243	4	54	1	121	221	321	NaN	521	0.270584189333022	1	1	NaN	3895020.0381852	NaN	3895021.0215866	3895021.53812891
112	25	1	0	90	36.1581920903955	36.241610738255	9	0.300019535925239	2	4	5	NaN	1	3	0.671391698905087	1	1	NaN	244	4	55	1	121	221	321	NaN	521	0.886854589916766	1	1	NaN	3895022.6217676	NaN	3895023.6051765	3895024.12171231
112	25	1	0	90	36.1581920903955	36.241610738255	9	0.300019535925239	2	6	1	NaN	1	3	0.671391698905087	1	1	NaN	245	4	56	1	121	221	321	NaN	521	0.230294168926775	1	1	NaN	3895025.8387763	NaN	3895026.8221695	3895027.33870513
112	25	1	0	90	36.1581920903955	36.241610738255	8	0.266684031933546	2	7	6	NaN	2	5	0.671391698905087	1	1	NaN	246	4	57	1	121	221	321	NaN	521	0.215906442143023	2	1	NaN	3895028.3890349	NaN	3895029.3724228	3895029.88895956
112	25	1	0	90	36.1581920903955	36.241610738255	12	0.400026047900319	2	6	3	NaN	1	3	0.671391698905087	1	1	NaN	247	4	58	1	121	221	321	NaN	521	0.290206189267337	1	1	NaN	3895030.9226016	NaN	3895031.9059957	3895032.42254661
112	25	1	0	90	36.1581920903955	36.241610738255	21	0.700045583825558	2	9	1	NaN	2	3	0.671391698905087	1	1	NaN	248	4	59	1	121	221	321	NaN	521	1.70249462174252	1	0	NaN	3895034.206226	NaN	3895035.189677	3895035.70619058
112	25	1	0	90	36.1581920903955	36.241610738255	0	0	1	12	1	NaN	2	3	0.671391698905087	1	1	NaN	249	4	60	1	111	211	311	NaN	511	0.349105321802199	1	0	NaN	3895038.2399972	NaN	3895039.2234004	3895039.73991648
112	25	1	0	90	36.1581920903955	36.241610738255	12	0.400026047900319	2	8	4	NaN	2	4	0.671391698905087	1	1	NaN	250	4	61	1	121	221	321	NaN	521	0.241750868968666	2	1	NaN	3895040.9069065	NaN	3895041.8903168	3895042.40684753
112	25	1	0	90	36.1581920903955	36.241610738255	16	0.533368063867092	2	10	6	NaN	2	3	0.671391698905087	1	1	NaN	251	4	62	1	121	221	321	NaN	521	0.163051216397434	2	1	NaN	3895043.4738253	NaN	3895044.4572566	3895044.97376168
112	25	1	0	90	36.1581920903955	36.241610738255	19	0.633374575842172	2	9	4	NaN	2	4	0.671391698905087	1	1	NaN	252	4	63	1	121	221	321	NaN	521	1.04731033695862	1	0	NaN	3895045.9574065	NaN	3895046.9407954	3895047.45736636
112	25	1	0	90	36.1581920903955	36.241610738255	20	0.666710079833865	2	5	5	NaN	1	3	0.671391698905087	1	1	NaN	253	5	1	1	121	221	321	NaN	521	0.571041263639927	1	1	NaN	3895101.7461449	NaN	3895102.7296217	3895103.24614954
112	25	1	0	90	36.1581920903955	36.241610738255	17	0.566703567858785	2	10	5	NaN	2	3	0.671391698905087	1	1	NaN	254	5	2	1	121	221	321	NaN	521	0.583594163879752	2	1	NaN	3895104.8131568	NaN	3895105.796561	3895106.31312384
112	25	1	0	90	36.1581920903955	36.241610738255	9	0.300019535925239	2	2	2	NaN	1	3	0.671391698905087	1	1	NaN	255	5	3	1	121	221	321	NaN	521	0.291243968997151	1	1	NaN	3895107.7133359	NaN	3895108.6968798	3895109.21340663
112	25	1	0	90	36.1581920903955	36.241610738255	24	0.800052095800638	2	5	5	NaN	1	3	0.671391698905087	1	1	NaN	256	5	4	1	121	221	321	NaN	521	0.338865342084318	1	1	NaN	3895110.3303883	NaN	3895111.3137859	3895111.83033846
112	25	1	0	90	36.1581920903955	36.241610738255	7	0.233348527941853	2	5	2	NaN	1	4	0.671391698905087	1	1	NaN	257	5	5	1	121	221	321	NaN	521	0.311581063549966	1	1	NaN	3895112.9973403	NaN	3895113.9807408	3895114.49725674
112	25	1	0	90	36.1581920903955	36.241610738255	13	0.433361551892012	2	9	1	NaN	2	4	0.671391698905087	1	1	NaN	258	5	6	1	121	221	321	NaN	521	0.317830174230039	2	1	NaN	3895115.6309155	NaN	3895116.6143207	3895117.13084523
112	25	1	0	90	36.1581920903955	36.241610738255	25	0.833387599792331	2	6	1	NaN	1	4	0.671391698905087	1	1	NaN	259	5	7	1	121	221	321	NaN	521	0.302375416271389	1	1	NaN	3895118.6145043	NaN	3895119.5979799	3895120.11446598
112	25	1	0	90	36.1581920903955	36.241610738255	18	0.600039071850479	2	5	6	NaN	1	5	0.671391698905087	1	1	NaN	260	5	8	1	121	221	321	NaN	521	0.301681216806173	1	1	NaN	3895121.2314845	NaN	3895122.2148734	3895122.73138508
112	25	1	0	90	36.1581920903955	36.241610738255	21	0.700045583825558	2	1	2	NaN	1	5	0.671391698905087	1	1	NaN	261	5	9	1	121	221	321	NaN	521	0.596491921693087	1	1	NaN	3895123.8483607	NaN	3895124.8318039	3895125.34833578
112	25	1	0	90	36.1581920903955	36.241610738255	8	0.266684031933546	2	5	2	NaN	1	4	0.671391698905087	1	1	NaN	262	5	10	1	121	221	321	NaN	521	0.301572469063103	1	1	NaN	3895126.8152342	NaN	3895127.7987451	3895128.31529863
112	25	1	0	90	36.1581920903955	36.241610738255	14	0.466697055883706	2	3	4	NaN	1	4	0.671391698905087	1	1	NaN	263	5	11	1	121	221	321	NaN	521	0.916897216346115	1	1	NaN	3895129.4322717	NaN	3895130.4156518	3895130.93222468
112	25	1	0	90	36.1581920903955	36.241610738255	12	0.400026047900319	2	7	2	NaN	2	3	0.671391698905087	1	1	NaN	264	5	12	1	121	221	321	NaN	521	0.458186668809503	2	1	NaN	3895132.6825647	NaN	3895133.6659803	3895134.18251143
112	25	1	0	90	36.1581920903955	36.241610738255	9	0.300019535925239	2	5	1	NaN	1	3	0.671391698905087	1	1	NaN	265	5	13	1	121	221	321	NaN	521	0.34680652199313	1	1	NaN	3895135.4661815	NaN	3895136.4496069	3895136.96612678
112	25	1	0	90	36.1581920903955	36.241610738255	13	0.433361551892012	2	4	4	NaN	1	3	0.671391698905087	1	1	NaN	266	5	14	1	121	221	321	NaN	521	1.04699916392565	2	0	NaN	3895138.1497703	NaN	3895139.1331858	3895139.64971964
112	25	1	0	90	36.1581920903955	36.241610738255	22	0.733381087817252	2	12	3	NaN	2	4	0.671391698905087	1	1	NaN	267	5	15	1	121	221	321	NaN	521	0.408225368708372	2	1	NaN	3895141.5167831	NaN	3895142.500165	3895143.01671263
112	25	1	0	90	36.1581920903955	36.241610738255	16	0.533368063867092	2	2	5	NaN	1	3	0.671391698905087	1	1	NaN	268	5	16	1	121	221	321	NaN	521	0.354659222066402	1	1	NaN	3895144.2504069	NaN	3895145.2337635	3895145.75032548
112	25	1	0	90	36.1581920903955	36.241610738255	25	0.833387599792331	2	6	5	NaN	1	4	0.671391698905087	1	1	NaN	269	5	17	1	121	221	321	NaN	521	1.04690292151645	1	1	NaN	3895146.933949	NaN	3895147.917348	3895148.43393998
112	25	1	0	90	36.1581920903955	36.241610738255	13	0.433361551892012	2	10	1	NaN	2	5	0.671391698905087	1	1	NaN	270	5	18	1	121	221	321	NaN	521	0.335972600150853	2	1	NaN	3895150.3010506	NaN	3895151.2843748	3895151.8009329
112	25	1	0	90	36.1581920903955	36.241610738255	16	0.533368063867092	2	5	1	NaN	1	5	0.671391698905087	1	1	NaN	271	5	19	1	121	221	321	NaN	521	0.357026521582156	1	1	NaN	3895152.967939	NaN	3895153.9513388	3895154.46784348
112	25	1	0	90	36.1581920903955	36.241610738255	7	0.233348527941853	2	4	5	NaN	1	3	0.671391698905087	1	1	NaN	272	5	20	1	121	221	321	NaN	521	0.521504274103791	1	1	NaN	3895155.6515139	NaN	3895156.6348894	3895157.15144233
112	25	1	0	90	36.1581920903955	36.241610738255	7	0.233348527941853	2	7	5	NaN	2	5	0.671391698905087	1	1	NaN	273	5	21	1	121	221	321	NaN	521	0.39908361621201	2	1	NaN	3895158.5017763	NaN	3895159.4851662	3895160.00171108
112	25	1	0	90	36.1581920903955	36.241610738255	25	0.833387599792331	2	8	3	NaN	2	5	0.671391698905087	1	1	NaN	274	5	22	1	121	221	321	NaN	521	0.474252174608409	2	1	NaN	3895161.2187173	NaN	3895162.2021293	3895162.71865773
112	25	1	0	90	36.1581920903955	36.241610738255	17	0.566703567858785	2	4	5	NaN	1	5	0.671391698905087	1	1	NaN	275	5	23	1	121	221	321	NaN	521	1.22590952180326	2	0	NaN	3895164.0189845	NaN	3895165.0023828	3895165.51892508
112	25	1	0	90	36.1581920903955	36.241610738255	14	0.466697055883706	2	9	3	NaN	2	5	0.671391698905087	1	1	NaN	276	5	24	1	121	221	321	NaN	521	0.451590899843723	2	1	NaN	3895167.5693307	NaN	3895168.5527422	3895169.069292
112	25	1	0	90	36.1581920903955	36.241610738255	24	0.800052095800638	2	4	1	NaN	1	3	0.671391698905087	1	1	NaN	277	5	25	1	121	221	321	NaN	521	0.796529569197446	2	0	NaN	3895170.3362829	NaN	3895171.3196848	3895171.83621223
112	25	1	0	90	36.1581920903955	36.241610738255	9	0.300019535925239	2	3	2	NaN	1	5	0.671391698905087	1	1	NaN	278	5	26	1	121	221	321	NaN	521	0.479798221960664	1	1	NaN	3895173.4532366	NaN	3895174.4367252	3895174.95318468
112	25	1	0	90	36.1581920903955	36.241610738255	10	0.333355039916933	2	3	3	NaN	1	4	0.671391698905087	1	1	NaN	279	5	27	1	121	221	321	NaN	521	0.303274489473552	1	1	NaN	3895176.2534985	NaN	3895177.2369269	3895177.75347301
112	25	1	0	90	36.1581920903955	36.241610738255	11	0.366690543908626	2	8	3	NaN	2	4	0.671391698905087	1	1	NaN	280	5	28	1	121	221	321	NaN	521	0.286076674237847	2	1	NaN	3895178.8871422	NaN	3895179.8704983	3895180.38704813
112	25	1	0	90	36.1581920903955	36.241610738255	24	0.800052095800638	2	3	2	NaN	1	4	0.671391698905087	1	1	NaN	281	5	29	1	121	221	321	NaN	521	0.293616974260658	1	1	NaN	3895181.4872247	NaN	3895182.4707892	3895182.98730603
112	25	1	0	90	36.1581920903955	36.241610738255	15	0.500032559875399	2	1	4	NaN	1	3	0.671391698905087	1	1	NaN	282	5	30	1	121	221	321	NaN	521	0.429133568890393	1	1	NaN	3895184.1042898	NaN	3895185.08769	3895185.60423773
112	25	1	0	90	36.1581920903955	36.241610738255	11	0.366690543908626	2	5	3	NaN	1	3	0.671391698905087	1	1	NaN	283	5	31	1	121	221	321	NaN	521	0.262502568773925	1	1	NaN	3895186.8545781	NaN	3895187.837946	3895188.35450363
112	25	1	0	90	36.1581920903955	36.241610738255	17	0.566703567858785	2	5	1	NaN	1	3	0.671391698905087	1	1	NaN	284	5	32	1	121	221	321	NaN	521	0.302678716368973	1	1	NaN	3895189.4381415	NaN	3895190.4215334	3895190.93808868
112	25	1	0	90	36.1581920903955	36.241610738255	12	0.400026047900319	2	2	2	NaN	1	3	0.671391698905087	1	1	NaN	285	5	33	1	121	221	321	NaN	521	0.320022737141699	1	1	NaN	3895192.2050545	NaN	3895193.1884974	3895193.70503576
112	25	1	0	90	36.1581920903955	36.241610738255	6	0.20001302395016	2	5	6	NaN	1	4	0.671391698905087	1	1	NaN	286	5	34	1	121	221	321	NaN	521	0.310619837138802	1	1	NaN	3895194.8386772	NaN	3895195.8220929	3895196.33863926
112	25	1	0	90	36.1581920903955	36.241610738255	15	0.500032559875399	2	2	6	NaN	1	4	0.671391698905087	1	1	NaN	287	5	35	1	121	221	321	NaN	521	0.388717768713832	1	1	NaN	3895197.4722846	NaN	3895198.4556729	3895198.97220293
112	25	1	0	90	36.1581920903955	36.241610738255	14	0.466697055883706	2	9	4	NaN	2	3	0.671391698905087	1	1	NaN	288	5	36	1	121	221	321	NaN	521	0.272363269235939	2	1	NaN	3895200.1725444	NaN	3895201.1559209	3895201.67248803
112	25	1	0	90	36.1581920903955	36.241610738255	6	0.20001302395016	2	11	1	NaN	2	5	0.671391698905087	1	1	NaN	289	5	37	1	121	221	321	NaN	521	0.240582863800228	2	1	NaN	3895202.7727721	NaN	3895203.7562053	3895204.27273234
112	25	1	0	90	36.1581920903955	36.241610738255	9	0.300019535925239	2	11	3	NaN	2	5	0.671391698905087	1	1	NaN	290	5	38	1	121	221	321	NaN	521	0.233754568733275	2	1	NaN	3895205.3397228	NaN	3895206.3231096	3895206.83965353
112	25	1	0	90	36.1581920903955	36.241610738255	7	0.233348527941853	2	8	3	NaN	2	5	0.671391698905087	1	1	NaN	291	5	39	1	121	221	321	NaN	521	0.379451521672308	2	1	NaN	3895207.8899423	NaN	3895208.8733767	3895209.38992038
112	25	1	0	90	36.1581920903955	36.241610738255	16	0.533368063867092	2	11	5	NaN	2	5	0.671391698905087	1	1	NaN	292	5	40	1	121	221	321	NaN	521	0.575248421635479	2	1	NaN	3895210.5900869	NaN	3895211.5736103	3895212.09016178
112	25	1	0	90	36.1581920903955	36.241610738255	11	0.366690543908626	2	10	5	NaN	2	5	0.671391698905087	1	1	NaN	293	5	41	1	121	221	321	NaN	521	1.94636496901512	1	0	NaN	3895213.4905405	NaN	3895214.473949	3895214.99044343
112	25	1	0	90	36.1581920903955	36.241610738255	22	0.733381087817252	2	6	3	NaN	1	5	0.671391698905087	1	1	NaN	294	5	42	1	121	221	321	NaN	521	1.38396531622857	1	1	NaN	3895217.7575932	NaN	3895218.7410069	3895219.25753038
112	25	1	0	90	36.1581920903955	36.241610738255	17	0.566703567858785	2	9	6	NaN	2	4	0.671391698905087	1	1	NaN	295	5	43	1	121	221	321	NaN	521	0.331093268934637	2	1	NaN	3895221.4579714	NaN	3895222.4413705	3895222.95791473
112	25	1	0	90	36.1581920903955	36.241610738255	24	0.800052095800638	2	9	1	NaN	2	5	0.671391698905087	1	1	NaN	296	5	44	1	121	221	321	NaN	521	0.409037169069052	2	1	NaN	3895224.1082309	NaN	3895225.0916523	3895225.60815913
112	25	1	0	90	36.1581920903955	36.241610738255	23	0.766716591808945	2	6	4	NaN	1	5	0.671391698905087	1	1	NaN	297	5	45	1	121	221	321	NaN	521	0.411169789265841	1	1	NaN	3895226.8418404	NaN	3895227.825226	3895228.34176641
112	25	1	0	90	36.1581920903955	36.241610738255	0	0	1	9	6	NaN	2	3	0.671391698905087	1	1	NaN	298	5	46	1	111	211	311	NaN	511	0.213830168824643	2	1	NaN	3895229.575459	NaN	3895230.5588035	3895231.07535573
112	25	1	0	90	36.1581920903955	36.241610738255	18	0.600039071850479	2	1	3	NaN	1	4	0.671391698905087	1	1	NaN	299	5	47	1	121	221	321	NaN	521	0.304147163871676	1	1	NaN	3895232.1090097	NaN	3895233.0924145	3895233.60893334
112	25	1	0	90	36.1581920903955	36.241610738255	24	0.800052095800638	2	12	4	NaN	2	4	0.671391698905087	1	1	NaN	300	5	48	1	121	221	321	NaN	521	0.334411568939686	2	1	NaN	3895234.7425651	NaN	3895235.7260202	3895236.24254183
112	25	1	0	90	36.1581920903955	36.241610738255	19	0.633374575842172	2	11	1	NaN	2	3	0.671391698905087	1	1	NaN	301	5	49	1	121	221	321	NaN	521	0.444247947540134	2	1	NaN	3895237.3928612	NaN	3895238.3762566	3895238.89282225
112	25	1	0	90	36.1581920903955	36.241610738255	24	0.800052095800638	2	6	4	NaN	1	3	0.671391698905087	1	1	NaN	302	5	50	1	121	221	321	NaN	521	0.316716174595058	1	1	NaN	3895240.1763652	NaN	3895241.1598543	3895241.67640653
112	25	1	0	90	36.1581920903955	36.241610738255	11	0.366690543908626	2	1	5	NaN	1	3	0.671391698905087	1	1	NaN	303	5	51	1	121	221	321	NaN	521	0.282923416700214	1	1	NaN	3895242.8100927	NaN	3895243.7934683	3895244.30999818
112	25	1	0	90	36.1581920903955	36.241610738255	0	0	1	10	4	NaN	2	5	0.671391698905087	1	1	NaN	304	5	52	1	111	211	311	NaN	511	0.52270161639899	2	1	NaN	3895245.410294	NaN	3895246.3937262	3895246.91024328
112	25	1	0	90	36.1581920903955	36.241610738255	16	0.533368063867092	2	1	2	NaN	1	4	0.671391698905087	1	1	NaN	305	5	53	1	121	221	321	NaN	521	0.313174184411764	1	1	NaN	3895248.2439114	NaN	3895249.2273297	3895249.74385452
112	25	1	0	90	36.1581920903955	36.241610738255	8	0.266684031933546	2	3	6	NaN	1	4	0.671391698905087	1	1	NaN	306	5	54	1	121	221	321	NaN	521	0.22353763692081	1	1	NaN	3895250.8775303	NaN	3895251.8609018	3895252.37745596
112	25	1	0	90	36.1581920903955	36.241610738255	13	0.433361551892012	2	9	5	NaN	2	4	0.671391698905087	1	1	NaN	307	5	55	1	121	221	321	NaN	521	0.249817289877683	2	1	NaN	3895253.4276278	NaN	3895254.4111649	3895254.92770851
112	25	1	0	90	36.1581920903955	36.241610738255	16	0.533368063867092	2	8	6	NaN	2	5	0.671391698905087	1	1	NaN	308	5	56	1	121	221	321	NaN	521	0.23486342607066	2	1	NaN	3895255.9946801	NaN	3895256.9780814	3895257.49463177
112	25	1	0	90	36.1581920903955	36.241610738255	23	0.766716591808945	2	8	5	NaN	2	5	0.671391698905087	1	1	NaN	309	5	57	1	121	221	321	NaN	521	0.284089126624167	2	1	NaN	3895258.544935	NaN	3895259.5283243	3895260.04486107
112	25	1	0	90	36.1581920903955	36.241610738255	0	0	1	1	6	NaN	1	5	0.671391698905087	1	1	NaN	310	5	58	1	111	211	311	NaN	511	0.378653263673186	1	1	NaN	3895261.1783958	NaN	3895262.1619152	3895262.67846304
112	25	1	0	90	36.1581920903955	36.241610738255	19	0.633374575842172	2	6	5	NaN	1	3	0.671391698905087	1	1	NaN	311	5	59	1	121	221	321	NaN	521	0.510317447129637	1	1	NaN	3895263.8787865	NaN	3895264.8622033	3895265.37874445
112	25	1	0	90	36.1581920903955	36.241610738255	24	0.800052095800638	2	8	6	NaN	2	4	0.671391698905087	1	1	NaN	312	5	60	1	121	221	321	NaN	521	0.32492727926001	2	1	NaN	3895266.7123958	NaN	3895267.6958138	3895268.21233742
112	25	1	0	90	36.1581920903955	36.241610738255	24	0.800052095800638	2	2	4	NaN	1	5	0.671391698905087	1	1	NaN	313	5	61	1	121	221	321	NaN	521	0.546939721796662	1	1	NaN	3895269.362668	NaN	3895270.346064	3895270.86259728
112	25	1	0	90	36.1581920903955	36.241610738255	12	0.400026047900319	2	12	6	NaN	2	4	0.671391698905087	1	1	NaN	314	5	62	1	121	221	321	NaN	521	0.279490679036826	2	1	NaN	3895272.2296254	NaN	3895273.2130186	3895273.72954902
112	25	1	0	90	36.1581920903955	36.241610738255	16	0.533368063867092	2	12	3	NaN	2	4	0.671391698905087	1	1	NaN	315	5	63	1	121	221	321	NaN	521	0.93538381671533	2	1	NaN	3895274.8298936	NaN	3895275.8132602	3895276.32979308
112	25	1	0	90	36.1581920903955	36.241610738255	7	0.233348527941853	2	2	1	NaN	1	4	0.671391698905087	1	1	NaN	316	6	1	1	121	221	321	NaN	521	0.442728037014604	1	1	NaN	3895331.6186591	NaN	3895332.6022029	3895333.11871566
112	25	1	0	90	36.1581920903955	36.241610738255	12	0.400026047900319	2	2	2	NaN	1	4	0.671391698905087	1	1	NaN	317	6	2	1	121	221	321	NaN	521	0.284205784555525	1	1	NaN	3895334.3689569	NaN	3895335.3524511	3895335.86897202
112	25	1	0	90	36.1581920903955	36.241610738255	7	0.233348527941853	2	4	5	NaN	1	5	0.671391698905087	1	1	NaN	318	6	3	1	121	221	321	NaN	521	0.284084269311279	1	1	NaN	3895336.969294	NaN	3895337.9526878	3895338.46922493
112	25	1	0	90	36.1581920903955	36.241610738255	23	0.766716591808945	2	2	4	NaN	1	5	0.671391698905087	1	1	NaN	319	6	4	1	121	221	321	NaN	521	0.331034974660724	1	1	NaN	3895339.5862258	NaN	3895340.5695928	3895341.08615083
112	25	1	0	90	36.1581920903955	36.241610738255	21	0.700045583825558	2	11	4	NaN	2	3	0.671391698905087	1	1	NaN	320	6	5	1	121	221	321	NaN	521	0.296581379137933	1	0	NaN	3895342.2363938	NaN	3895343.219881	3895343.73641882
112	25	1	0	90	36.1581920903955	36.241610738255	23	0.766716591808945	2	6	1	NaN	1	4	0.671391698905087	1	1	NaN	321	6	6	1	121	221	321	NaN	521	0.311807363759726	1	1	NaN	3895344.8533796	NaN	3895345.8368018	3895346.35333494
112	25	1	0	90	36.1581920903955	36.241610738255	17	0.566703567858785	2	11	6	NaN	2	3	0.671391698905087	1	1	NaN	322	6	7	1	121	221	321	NaN	521	0.270293768960983	2	1	NaN	3895347.4869906	NaN	3895348.4704157	3895348.98692583
112	25	1	0	90	36.1581920903955	36.241610738255	10	0.333355039916933	2	2	1	NaN	1	5	0.671391698905087	1	1	NaN	323	6	8	1	121	221	321	NaN	521	0.342594721354544	1	1	NaN	3895350.0705804	NaN	3895351.0539815	3895351.57050838
112	25	1	0	90	36.1581920903955	36.241610738255	13	0.433361551892012	2	8	3	NaN	2	5	0.671391698905087	1	1	NaN	324	6	9	1	121	221	321	NaN	521	0.45213927468285	2	1	NaN	3895352.7375064	NaN	3895353.7209203	3895354.23744803
112	25	1	0	90	36.1581920903955	36.241610738255	19	0.633374575842172	2	3	5	NaN	1	5	0.671391698905087	1	1	NaN	325	6	10	1	121	221	321	NaN	521	0.55726026929915	1	1	NaN	3895355.5044653	NaN	3895356.4878699	3895357.00438623
112	25	1	0	90	36.1581920903955	36.241610738255	13	0.433361551892012	2	1	3	NaN	1	5	0.671391698905087	1	1	NaN	326	6	11	1	121	221	321	NaN	521	2.96105382172391	1	1	NaN	3895358.388075	NaN	3895359.3714895	3895359.88799278
112	25	1	0	90	36.1581920903955	36.241610738255	15	0.500032559875399	2	8	1	NaN	2	4	0.671391698905087	1	1	NaN	327	6	12	1	121	221	321	NaN	521	0.485816831700504	2	1	NaN	3895363.6719234	NaN	3895364.6553063	3895365.17184637
112	25	1	0	90	36.1581920903955	36.241610738255	7	0.233348527941853	2	6	5	NaN	1	4	0.671391698905087	1	1	NaN	328	6	13	1	121	221	321	NaN	521	0.884891036897898	1	1	NaN	3895366.488886	NaN	3895367.472256	3895367.98879466
112	25	1	0	90	36.1581920903955	36.241610738255	10	0.333355039916933	2	12	1	NaN	2	3	0.671391698905087	1	1	NaN	329	6	14	1	121	221	321	NaN	521	0.475360521581024	2	1	NaN	3895369.705832	NaN	3895370.6892378	3895371.20578068
112	25	1	0	90	36.1581920903955	36.241610738255	22	0.733381087817252	2	11	2	NaN	2	3	0.671391698905087	1	1	NaN	330	6	15	1	121	221	321	NaN	521	0.907202142290771	2	1	NaN	3895372.5061456	NaN	3895373.4895174	3895374.00605416
112	25	1	0	90	36.1581920903955	36.241610738255	11	0.366690543908626	2	9	5	NaN	2	4	0.671391698905087	1	1	NaN	331	6	16	1	121	221	321	NaN	521	0.57738982187584	2	1	NaN	3895375.7397589	NaN	3895376.7231794	3895377.23971128
112	25	1	0	90	36.1581920903955	36.241610738255	7	0.233348527941853	2	11	4	NaN	2	3	0.671391698905087	1	1	NaN	332	6	17	1	121	221	321	NaN	521	0.341072236653417	2	1	NaN	3895378.6400477	NaN	3895379.6234734	3895380.14006706
112	25	1	0	90	36.1581920903955	36.241610738255	18	0.600039071850479	2	12	4	NaN	2	5	0.671391698905087	1	1	NaN	333	6	18	1	121	221	321	NaN	521	0.338349647354335	2	1	NaN	3895381.3069809	NaN	3895382.290371	3895382.80692435
112	25	1	0	90	36.1581920903955	36.241610738255	19	0.633374575842172	2	7	3	NaN	2	4	0.671391698905087	1	1	NaN	334	6	19	1	121	221	321	NaN	521	0.496437469031662	2	1	NaN	3895383.9572103	NaN	3895384.9406102	3895385.45716703
112	25	1	0	90	36.1581920903955	36.241610738255	18	0.600039071850479	2	9	2	NaN	2	3	0.671391698905087	1	1	NaN	335	6	20	1	121	221	321	NaN	521	0.295142569113523	2	1	NaN	3895386.7741482	NaN	3895387.7575732	3895388.27411813
112	25	1	0	90	36.1581920903955	36.241610738255	10	0.333355039916933	2	8	5	NaN	2	5	0.671391698905087	1	1	NaN	336	6	21	1	121	221	321	NaN	521	0.566138678696007	2	1	NaN	3895389.391095	NaN	3895390.3745305	3895390.89104882
112	25	1	0	90	36.1581920903955	36.241610738255	22	0.733381087817252	2	9	4	NaN	2	3	0.671391698905087	1	1	NaN	337	6	22	1	121	221	321	NaN	521	0.322615126613528	2	1	NaN	3895392.2745787	NaN	3895393.2581116	3895393.77465437
112	25	1	0	90	36.1581920903955	36.241610738255	21	0.700045583825558	2	12	1	NaN	2	5	0.671391698905087	1	1	NaN	338	6	23	1	121	221	321	NaN	521	0.32854476897046	2	1	NaN	3895394.9249612	NaN	3895395.9083618	3895396.42492893
112	25	1	0	90	36.1581920903955	36.241610738255	6	0.20001302395016	2	4	3	NaN	1	3	0.671391698905087	1	1	NaN	339	6	24	1	121	221	321	NaN	521	0.462069774512202	1	1	NaN	3895397.5752227	NaN	3895398.5586379	3895399.07520223
112	25	1	0	90	36.1581920903955	36.241610738255	13	0.433361551892012	2	11	6	NaN	2	4	0.671391698905087	1	1	NaN	340	6	25	1	121	221	321	NaN	521	1.79112166864797	2	1	NaN	3895400.342172	NaN	3895401.3255887	3895401.84210873
112	25	1	0	90	36.1581920903955	36.241610738255	6	0.20001302395016	2	5	3	NaN	1	3	0.671391698905087	1	1	NaN	341	6	26	1	121	221	321	NaN	521	0.37010406376794	1	1	NaN	3895404.459253	NaN	3895405.4426419	3895405.95918554
112	25	1	0	90	36.1581920903955	36.241610738255	10	0.333355039916933	2	3	6	NaN	1	5	0.671391698905087	1	1	NaN	342	6	27	1	121	221	321	NaN	521	1.08580742636696	1	1	NaN	3895407.1593371	NaN	3895408.1429421	3895408.65945327
112	25	1	0	90	36.1581920903955	36.241610738255	8	0.266684031933546	2	2	3	NaN	1	5	0.671391698905087	1	1	NaN	343	6	28	1	121	221	321	NaN	521	0.589819974265993	1	1	NaN	3895410.5598579	NaN	3895411.5433224	3895412.05978843
112	25	1	0	90	36.1581920903955	36.241610738255	0	0	1	12	2	NaN	2	5	0.671391698905087	1	1	NaN	344	6	29	1	111	211	311	NaN	511	0.281242621596903	2	1	NaN	3895413.460141	NaN	3895414.4435391	3895414.96006768
112	25	1	0	90	36.1581920903955	36.241610738255	25	0.833387599792331	2	3	2	NaN	1	4	0.671391698905087	1	1	NaN	345	6	30	1	121	221	321	NaN	521	0.472987663932145	1	1	NaN	3895416.0603924	NaN	3895417.0437829	3895417.56032694
112	25	1	0	90	36.1581920903955	36.241610738255	18	0.600039071850479	2	11	5	NaN	2	3	0.671391698905087	1	1	NaN	346	6	31	1	121	221	321	NaN	521	0.86469773715362	2	1	NaN	3895418.8606728	NaN	3895419.8440653	3895420.36060316
112	25	1	0	90	36.1581920903955	36.241610738255	22	0.733381087817252	2	4	3	NaN	1	5	0.671391698905087	1	1	NaN	347	6	32	1	121	221	321	NaN	521	0.849013374652714	1	1	NaN	3895422.044291	NaN	3895423.0277164	3895423.54425133
112	25	1	0	90	36.1581920903955	36.241610738255	18	0.600039071850479	2	8	4	NaN	2	3	0.671391698905087	1	1	NaN	348	6	33	1	121	221	321	NaN	521	0.330114311072975	2	1	NaN	3895425.2112921	NaN	3895426.1947072	3895426.71121369
112	25	1	0	90	36.1581920903955	36.241610738255	8	0.266684031933546	2	9	1	NaN	2	4	0.671391698905087	1	1	NaN	349	6	34	1	121	221	321	NaN	521	5.13568461686373	2	1	NaN	3895427.8615639	NaN	3895428.8449383	3895429.36148688
112	25	1	0	90	36.1581920903955	36.241610738255	15	0.500032559875399	2	8	6	NaN	2	3	0.671391698905087	1	1	NaN	350	6	35	1	121	221	321	NaN	521	0.290427168831229	2	1	NaN	3895435.3788174	NaN	3895436.3623714	3895436.87888053
112	25	1	0	90	36.1581920903955	36.241610738255	8	0.266684031933546	2	12	5	NaN	2	5	0.671391698905087	1	1	NaN	351	6	36	1	121	221	321	NaN	521	0.98544938955456	2	1	NaN	3895437.9957237	NaN	3895438.9792783	3895439.49582721
112	25	1	0	90	36.1581920903955	36.241610738255	9	0.300019535925239	2	7	3	NaN	2	4	0.671391698905087	1	1	NaN	352	6	37	1	121	221	321	NaN	521	0.269140900112689	2	1	NaN	3895441.2962024	NaN	3895442.2796169	3895442.7961659
112	25	1	0	90	36.1581920903955	36.241610738255	13	0.433361551892012	2	6	5	NaN	1	5	0.671391698905087	1	1	NaN	353	6	38	1	121	221	321	NaN	521	0.453550111036748	1	1	NaN	3895443.879668	NaN	3895444.8631807	3895445.37971599
112	25	1	0	90	36.1581920903955	36.241610738255	9	0.300019535925239	2	1	5	NaN	1	5	0.671391698905087	1	1	NaN	354	6	39	1	121	221	321	NaN	521	0.414566658437252	1	1	NaN	3895446.6633448	NaN	3895447.6468187	3895448.16331894
112	25	1	0	90	36.1581920903955	36.241610738255	18	0.600039071850479	2	6	1	NaN	1	3	0.671391698905087	1	1	NaN	355	6	40	1	121	221	321	NaN	521	0.536411326378584	1	1	NaN	3895449.3969961	NaN	3895450.3803968	3895450.89692577
112	25	1	0	90	36.1581920903955	36.241610738255	9	0.300019535925239	2	12	1	NaN	2	4	0.671391698905087	1	1	NaN	356	6	41	1	121	221	321	NaN	521	0.253491716459394	2	1	NaN	3895452.2638455	NaN	3895453.247377	3895453.76387358
112	25	1	0	90	36.1581920903955	36.241610738255	21	0.700045583825558	2	11	5	NaN	2	5	0.671391698905087	1	1	NaN	357	6	42	1	121	221	321	NaN	521	0.269996469374746	2	1	NaN	3895454.8474171	NaN	3895455.8309421	3895456.34746853
112	25	1	0	90	36.1581920903955	36.241610738255	14	0.466697055883706	2	4	6	NaN	1	4	0.671391698905087	1	1	NaN	358	6	43	1	121	221	321	NaN	521	0.277483589481562	1	1	NaN	3895457.4477742	NaN	3895458.4311975	3895458.94772821
112	25	1	0	90	36.1581920903955	36.241610738255	21	0.700045583825558	2	3	4	NaN	1	3	0.671391698905087	1	1	NaN	359	6	44	1	121	221	321	NaN	521	0.269483021460474	1	1	NaN	3895460.0480132	NaN	3895461.0314366	3895461.54797488
112	25	1	0	90	36.1581920903955	36.241610738255	11	0.366690543908626	2	4	6	NaN	1	4	0.671391698905087	1	1	NaN	360	6	45	1	121	221	321	NaN	521	1.80614161631092	1	1	NaN	3895462.6316434	NaN	3895463.615035	3895464.13155418
112	25	1	0	90	36.1581920903955	36.241610738255	8	0.266684031933546	2	9	6	NaN	2	4	0.671391698905087	1	1	NaN	361	6	46	1	121	221	321	NaN	521	0.392365021631122	2	1	NaN	3895466.7653581	NaN	3895467.7488209	3895468.26529908
112	25	1	0	90	36.1581920903955	36.241610738255	21	0.700045583825558	2	3	3	NaN	1	5	0.671391698905087	1	1	NaN	362	6	47	1	121	221	321	NaN	521	0.284369268920273	1	1	NaN	3895469.6489716	NaN	3895470.6323792	3895471.14891103
112	25	1	0	90	36.1581920903955	36.241610738255	6	0.20001302395016	2	9	1	NaN	2	5	0.671391698905087	1	1	NaN	363	6	48	1	121	221	321	NaN	521	0.299510963726789	2	1	NaN	3895472.2658302	NaN	3895473.2493314	3895473.76583674
112	25	1	0	90	36.1581920903955	36.241610738255	24	0.800052095800638	2	7	2	NaN	2	4	0.671391698905087	1	1	NaN	364	6	49	1	121	221	321	NaN	521	0.282347063999623	2	1	NaN	3895474.8827179	NaN	3895475.8662343	3895476.38275754
112	25	1	0	90	36.1581920903955	36.241610738255	16	0.533368063867092	2	9	2	NaN	2	3	0.671391698905087	1	1	NaN	365	6	50	1	121	221	321	NaN	521	0.802622516639531	2	1	NaN	3895477.4830789	NaN	3895478.466488	3895478.98301238
112	25	1	0	90	36.1581920903955	36.241610738255	19	0.633374575842172	2	1	3	NaN	1	4	0.671391698905087	1	1	NaN	366	6	51	1	121	221	321	NaN	521	0.265608069021255	1	1	NaN	3895480.6999388	NaN	3895481.6834771	3895482.19999813
112	25	1	0	90	36.1581920903955	36.241610738255	24	0.800052095800638	2	4	3	NaN	1	5	0.671391698905087	1	1	NaN	367	6	52	1	121	221	321	NaN	521	0.361688216216862	1	1	NaN	3895483.2836578	NaN	3895484.2670626	3895484.78358028
112	25	1	0	90	36.1581920903955	36.241610738255	22	0.733381087817252	2	12	3	NaN	2	3	0.671391698905087	1	1	NaN	368	6	53	1	121	221	321	NaN	521	0.270122269168496	2	1	NaN	3895485.9672505	NaN	3895486.9506533	3895487.46718033
112	25	1	0	90	36.1581920903955	36.241610738255	13	0.433361551892012	2	2	1	NaN	1	4	0.671391698905087	1	1	NaN	369	6	54	1	121	221	321	NaN	521	0.189968274440616	1	1	NaN	3895488.5674983	NaN	3895489.5509192	3895490.06744663
112	25	1	0	90	36.1581920903955	36.241610738255	0	0	1	2	3	NaN	1	4	0.671391698905087	1	1	NaN	370	6	55	1	111	211	311	NaN	511	0.224983821623027	1	1	NaN	3895491.0844218	NaN	3895492.0678233	3895492.58435598
112	25	1	0	90	36.1581920903955	36.241610738255	7	0.233348527941853	2	2	6	NaN	1	5	0.671391698905087	1	1	NaN	371	6	56	1	121	221	321	NaN	521	0.339115763548762	1	1	NaN	3895493.634654	NaN	3895494.6180594	3895495.13459764
112	25	1	0	90	36.1581920903955	36.241610738255	8	0.266684031933546	2	7	6	NaN	2	5	0.671391698905087	1	1	NaN	372	6	57	1	121	221	321	NaN	521	0.527733469381928	2	1	NaN	3895496.3016121	NaN	3895497.2850033	3895497.80154933
112	25	1	0	90	36.1581920903955	36.241610738255	12	0.400026047900319	2	12	4	NaN	2	3	0.671391698905087	1	1	NaN	373	6	58	1	121	221	321	NaN	521	0.277542821597308	2	1	NaN	3895499.3517507	NaN	3895500.3352937	3895500.85182458
112	25	1	0	90	36.1581920903955	36.241610738255	22	0.733381087817252	2	7	4	NaN	2	4	0.671391698905087	1	1	NaN	374	6	59	1	121	221	321	NaN	521	0.245167289394885	2	1	NaN	3895501.9520319	NaN	3895502.9355635	3895503.45208611
112	25	1	0	90	36.1581920903955	36.241610738255	9	0.300019535925239	2	5	2	NaN	1	4	0.671391698905087	1	1	NaN	375	6	60	1	121	221	321	NaN	521	0.234703021589667	1	1	NaN	3895504.6190824	NaN	3895505.6024897	3895506.11901668
112	25	1	0	90	36.1581920903955	36.241610738255	7	0.233348527941853	2	3	4	NaN	1	3	0.671391698905087	1	1	NaN	376	6	61	1	121	221	321	NaN	521	0.276166716124862	1	1	NaN	3895507.169234	NaN	3895508.1527149	3895508.66926128
112	25	1	0	90	36.1581920903955	36.241610738255	8	0.266684031933546	2	3	2	NaN	1	5	0.671391698905087	1	1	NaN	377	6	62	1	121	221	321	NaN	521	0.243932926561683	1	1	NaN	3895509.7695888	NaN	3895510.7529809	3895511.26951517
112	25	1	0	90	36.1581920903955	36.241610738255	8	0.266684031933546	2	1	5	NaN	1	4	0.671391698905087	1	1	NaN	378	6	63	1	121	221	321	NaN	521	0.244928116444498	1	1	NaN	3895512.3365047	NaN	3895513.3199109	3895513.83643578
112	25	1	0	90	36.1581920903955	36.241610738255	10	0.333355039916933	2	5	5	NaN	1	4	0.671391698905087	1	1	NaN	379	7	1	1	121	221	321	NaN	521	0.356683269143105	2	0	NaN	3895708.8891447	NaN	3895709.8725426	3895710.38905373
112	25	1	0	90	36.1581920903955	36.241610738255	12	0.400026047900319	2	1	2	NaN	1	4	0.671391698905087	1	1	NaN	380	7	2	1	121	221	321	NaN	521	0.297346731647849	1	1	NaN	3895711.5727169	NaN	3895712.5561346	3895713.07265937
112	25	1	0	90	36.1581920903955	36.241610738255	24	0.800052095800638	2	9	4	NaN	2	3	0.671391698905087	1	1	NaN	381	7	3	1	121	221	321	NaN	521	0.416067268699408	2	1	NaN	3895714.1896944	NaN	3895715.1730572	3895715.68957643
112	25	1	0	90	36.1581920903955	36.241610738255	20	0.666710079833865	2	12	5	NaN	2	3	0.671391698905087	1	1	NaN	382	7	4	1	121	221	321	NaN	521	0.722542279399931	2	1	NaN	3895716.9232399	NaN	3895717.9066372	3895718.42318912
112	25	1	0	90	36.1581920903955	36.241610738255	25	0.833387599792331	2	4	6	NaN	1	5	0.671391698905087	1	1	NaN	383	7	5	1	121	221	321	NaN	521	0.440681494772434	1	1	NaN	3895719.9735609	NaN	3895720.9569483	3895721.47350301
112	25	1	0	90	36.1581920903955	36.241610738255	20	0.666710079833865	2	2	2	NaN	1	5	0.671391698905087	1	1	NaN	384	7	6	1	121	221	321	NaN	521	0.313379674218595	1	1	NaN	3895722.7404601	NaN	3895723.7239011	3895724.24042003
112	25	1	0	90	36.1581920903955	36.241610738255	14	0.466697055883706	2	6	6	NaN	1	4	0.671391698905087	1	1	NaN	385	7	7	1	121	221	321	NaN	521	0.879675368778408	1	1	NaN	3895725.3739366	NaN	3895726.357489	3895726.87401313
112	25	1	0	90	36.1581920903955	36.241610738255	16	0.533368063867092	2	1	1	NaN	1	5	0.671391698905087	1	1	NaN	386	7	8	1	121	221	321	NaN	521	0.388050569221377	1	1	NaN	3895728.8576315	NaN	3895729.8411601	3895730.35767893
112	25	1	0	90	36.1581920903955	36.241610738255	18	0.600039071850479	2	3	1	NaN	1	4	0.671391698905087	1	1	NaN	387	7	9	1	121	221	321	NaN	521	0.33514806907624	1	1	NaN	3895731.5746796	NaN	3895732.5580861	3895733.07462133
112	25	1	0	90	36.1581920903955	36.241610738255	17	0.566703567858785	2	8	4	NaN	2	3	0.671391698905087	1	1	NaN	388	7	10	1	121	221	321	NaN	521	1.81262042606249	1	0	NaN	3895734.2416185	NaN	3895735.2250068	3895735.74155427
112	25	1	0	90	36.1581920903955	36.241610738255	19	0.633374575842172	2	8	4	NaN	2	5	0.671391698905087	1	1	NaN	389	7	11	1	121	221	321	NaN	521	0.246920626610518	2	1	NaN	3895738.375382	NaN	3895739.3587457	3895739.87529197
112	25	1	0	90	36.1581920903955	36.241610738255	9	0.300019535925239	2	1	1	NaN	1	3	0.671391698905087	1	1	NaN	390	7	12	1	121	221	321	NaN	521	0.311559016350657	1	1	NaN	3895740.9422658	NaN	3895741.9256711	3895742.44219958
112	25	1	0	90	36.1581920903955	36.241610738255	15	0.500032559875399	2	4	6	NaN	1	3	0.671391698905087	1	1	NaN	391	7	13	1	121	221	321	NaN	521	0.270154763944447	1	1	NaN	3895743.5758667	NaN	3895744.5592719	3895745.07579094
112	25	1	0	90	36.1581920903955	36.241610738255	16	0.533368063867092	2	6	4	NaN	1	3	0.671391698905087	1	1	NaN	392	7	14	1	121	221	321	NaN	521	0.41411537444219	1	1	NaN	3895746.1594659	NaN	3895747.1428306	3895747.65938123
112	25	1	0	90	36.1581920903955	36.241610738255	18	0.600039071850479	2	6	5	NaN	1	4	0.671391698905087	1	1	NaN	393	7	15	1	121	221	321	NaN	521	0.800698669161648	1	1	NaN	3895748.8930558	NaN	3895749.8764507	3895750.39298493
112	25	1	0	90	36.1581920903955	36.241610738255	24	0.800052095800638	2	11	3	NaN	2	3	0.671391698905087	1	1	NaN	394	7	16	1	121	221	321	NaN	521	0.451938021928072	2	1	NaN	3895752.0100148	NaN	3895752.9934249	3895753.50995808
112	25	1	0	90	36.1581920903955	36.241610738255	7	0.233348527941853	2	11	6	NaN	2	3	0.671391698905087	1	1	NaN	395	7	17	1	121	221	321	NaN	521	0.18290646886453	2	1	NaN	3895754.9270296	NaN	3895755.9103795	3895756.42691203
112	25	1	0	90	36.1581920903955	36.241610738255	15	0.500032559875399	2	11	5	NaN	2	3	0.671391698905087	1	1	NaN	396	7	18	1	121	221	321	NaN	521	0.259009979199618	2	1	NaN	3895757.4272272	NaN	3895758.4106309	3895758.92716702
112	25	1	0	90	36.1581920903955	36.241610738255	21	0.700045583825558	2	9	5	NaN	2	4	0.671391698905087	1	1	NaN	397	7	19	1	121	221	321	NaN	521	0.261801226530224	2	1	NaN	3895760.1440282	NaN	3895761.1275401	3895761.64409527
112	25	1	0	90	36.1581920903955	36.241610738255	25	0.833387599792331	2	7	1	NaN	2	3	0.671391698905087	1	1	NaN	398	7	20	1	121	221	321	NaN	521	0.294058479368687	2	1	NaN	3895762.7277579	NaN	3895763.7111597	3895764.22768422
112	25	1	0	90	36.1581920903955	36.241610738255	14	0.466697055883706	2	10	3	NaN	2	5	0.671391698905087	1	1	NaN	399	7	21	1	121	221	321	NaN	521	0.269004416652024	2	1	NaN	3895765.3446657	NaN	3895766.3280913	3895766.84459618
112	25	1	0	90	36.1581920903955	36.241610738255	17	0.566703567858785	2	6	1	NaN	1	3	0.671391698905087	1	1	NaN	400	7	22	1	121	221	321	NaN	521	0.445515769068152	1	1	NaN	3895767.9281275	NaN	3895768.9116429	3895769.42818433
112	25	1	0	90	36.1581920903955	36.241610738255	16	0.533368063867092	2	2	6	NaN	1	5	0.671391698905087	1	1	NaN	401	7	23	1	121	221	321	NaN	521	0.334543278906494	1	1	NaN	3895770.6951394	NaN	3895771.6786005	3895772.19512492
112	25	1	0	90	36.1581920903955	36.241610738255	24	0.800052095800638	2	6	5	NaN	1	4	0.671391698905087	1	1	NaN	402	7	24	1	121	221	321	NaN	521	1.60367822134867	1	1	NaN	3895773.3620919	NaN	3895774.3455386	3895774.86205578
112	25	1	0	90	36.1581920903955	36.241610738255	0	0	1	4	6	NaN	1	5	0.671391698905087	1	1	NaN	403	7	25	1	111	211	311	NaN	511	0.246660069096833	1	1	NaN	3895777.2790493	NaN	3895778.2625896	3895778.77913923
112	25	1	0	90	36.1581920903955	36.241610738255	9	0.300019535925239	2	11	2	NaN	2	3	0.671391698905087	1	1	NaN	404	7	26	1	121	221	321	NaN	521	0.360084074083716	2	1	NaN	3895779.8461025	NaN	3895780.8294883	3895781.34602813
112	25	1	0	90	36.1581920903955	36.241610738255	23	0.766716591808945	2	7	4	NaN	2	5	0.671391698905087	1	1	NaN	405	7	27	1	121	221	321	NaN	521	0.204448858741671	2	1	NaN	3895782.5296911	NaN	3895783.5130904	3895784.02962094
112	25	1	0	90	36.1581920903955	36.241610738255	9	0.300019535925239	2	2	3	NaN	1	5	0.671391698905087	1	1	NaN	406	7	28	1	121	221	321	NaN	521	0.24638411635533	1	1	NaN	3895785.0632783	NaN	3895786.0466836	3895786.56319498
112	25	1	0	90	36.1581920903955	36.241610738255	21	0.700045583825558	2	12	1	NaN	2	5	0.671391698905087	1	1	NaN	407	7	29	1	121	221	321	NaN	521	0.287840621545911	2	1	NaN	3895787.6302049	NaN	3895788.6136014	3895789.13013498
112	25	1	0	90	36.1581920903955	36.241610738255	17	0.566703567858785	2	4	4	NaN	1	5	0.671391698905087	1	1	NaN	408	7	30	1	121	221	321	NaN	521	0.439424241892993	1	1	NaN	3895790.2303316	NaN	3895791.213851	3895791.73039016
112	25	1	0	90	36.1581920903955	36.241610738255	22	0.733381087817252	2	2	1	NaN	1	4	0.671391698905087	1	1	NaN	409	7	31	1	121	221	321	NaN	521	0.273627821821719	1	1	NaN	3895792.980585	NaN	3895793.9641126	3895794.48066628
112	25	1	0	90	36.1581920903955	36.241610738255	20	0.666710079833865	2	6	4	NaN	1	3	0.671391698905087	1	1	NaN	410	7	32	1	121	221	321	NaN	521	0.273295869119465	1	1	NaN	3895795.581009	NaN	3895796.5643468	3895797.08090353
112	25	1	0	90	36.1581920903955	36.241610738255	10	0.333355039916933	2	9	3	NaN	2	5	0.671391698905087	1	1	NaN	411	7	33	1	121	221	321	NaN	521	0.256643969099969	2	1	NaN	3895798.1810965	NaN	3895799.1646249	3895799.68117643
112	25	1	0	90	36.1581920903955	36.241610738255	12	0.400026047900319	2	11	1	NaN	2	5	0.671391698905087	1	1	NaN	412	7	34	1	121	221	321	NaN	521	0.241075869183987	2	1	NaN	3895800.764811	NaN	3895801.7482048	3895802.26476293
112	25	1	0	90	36.1581920903955	36.241610738255	15	0.500032559875399	2	10	2	NaN	2	4	0.671391698905087	1	1	NaN	413	7	35	1	121	221	321	NaN	521	0.250090721528977	2	1	NaN	3895803.3317154	NaN	3895804.3151355	3895804.83168548
112	25	1	0	90	36.1581920903955	36.241610738255	14	0.466697055883706	2	8	1	NaN	2	4	0.671391698905087	1	1	NaN	414	7	36	1	121	221	321	NaN	521	0.243338289204985	2	1	NaN	3895805.8986303	NaN	3895806.8820306	3895807.39858721
112	25	1	0	90	36.1581920903955	36.241610738255	19	0.633374575842172	2	10	3	NaN	2	5	0.671391698905087	1	1	NaN	415	7	37	1	121	221	321	NaN	521	0.252113511320204	2	1	NaN	3895808.4655662	NaN	3895809.4489675	3895809.96548999
112	25	1	0	90	36.1581920903955	36.241610738255	0	0	1	9	3	NaN	2	3	0.671391698905087	1	1	NaN	416	7	38	1	111	211	311	NaN	511	0.477344142273068	2	1	NaN	3895811.0324873	NaN	3895812.0158827	3895812.53242636
112	25	1	0	90	36.1581920903955	36.241610738255	23	0.766716591808945	2	10	4	NaN	2	4	0.671391698905087	1	1	NaN	417	7	39	1	121	221	321	NaN	521	0.317018726374954	2	1	NaN	3895813.8327854	NaN	3895814.8161722	3895815.33269767
112	25	1	0	90	36.1581920903955	36.241610738255	15	0.500032559875399	2	2	5	NaN	1	4	0.671391698905087	1	1	NaN	418	7	40	1	121	221	321	NaN	521	0.323337774258107	1	1	NaN	3895816.4663664	NaN	3895817.4497624	3895817.96629123
112	25	1	0	90	36.1581920903955	36.241610738255	14	0.466697055883706	2	12	2	NaN	2	3	0.671391698905087	1	1	NaN	419	7	41	1	121	221	321	NaN	521	0.201240916270763	2	1	NaN	3895819.1166064	NaN	3895820.1000965	3895820.61653888
112	25	1	0	90	36.1581920903955	36.241610738255	23	0.766716591808945	2	3	6	NaN	1	3	0.671391698905087	1	1	NaN	420	7	42	1	121	221	321	NaN	521	0.0837796367704868	1	1	NaN	3895821.6502088	NaN	3895822.6335882	3895823.15014106
112	25	1	0	90	36.1581920903955	36.241610738255	25	0.833387599792331	2	4	3	NaN	1	4	0.671391698905087	1	1	NaN	421	7	43	1	121	221	321	NaN	521	0.323274789843708	1	1	NaN	3895824.0504061	NaN	3895825.0338399	3895825.55037621
112	25	1	0	90	36.1581920903955	36.241610738255	16	0.533368063867092	2	11	2	NaN	2	4	0.671391698905087	1	1	NaN	422	7	44	1	121	221	321	NaN	521	0.27904827427119	2	1	NaN	3895827.1507369	NaN	3895828.1341445	3895828.65068083
112	25	1	0	90	36.1581920903955	36.241610738255	9	0.300019535925239	2	3	1	NaN	1	5	0.671391698905087	1	1	NaN	423	7	45	1	121	221	321	NaN	521	0.278924821410328	1	1	NaN	3895829.7509016	NaN	3895830.7343952	3895831.25092498
112	25	1	0	90	36.1581920903955	36.241610738255	17	0.566703567858785	2	8	3	NaN	2	4	0.671391698905087	1	1	NaN	424	7	46	1	121	221	321	NaN	521	0.270791263785213	2	1	NaN	3895832.351137	NaN	3895833.3346444	3895833.85117964
112	25	1	0	90	36.1581920903955	36.241610738255	15	0.500032559875399	2	3	3	NaN	1	3	0.671391698905087	1	1	NaN	425	7	47	1	121	221	321	NaN	521	0.47833756916225	1	1	NaN	3895834.9514966	NaN	3895835.9349005	3895836.45143113
112	25	1	0	90	36.1581920903955	36.241610738255	22	0.733381087817252	2	10	2	NaN	2	4	0.671391698905087	1	1	NaN	426	7	48	1	121	221	321	NaN	521	0.238160389475524	2	1	NaN	3895837.7516619	NaN	3895838.7351809	3895839.25171831
112	25	1	0	90	36.1581920903955	36.241610738255	10	0.333355039916933	2	6	6	NaN	1	5	0.671391698905087	1	1	NaN	427	7	49	1	121	221	321	NaN	521	0.408230921719223	1	1	NaN	3895840.301916	NaN	3895841.2854637	3895841.80197188
112	25	1	0	90	36.1581920903955	36.241610738255	10	0.333355039916933	2	12	2	NaN	2	3	0.671391698905087	1	1	NaN	428	7	50	1	121	221	321	NaN	521	0.258936916477978	2	1	NaN	3895843.2189541	NaN	3895844.2023694	3895844.71890588
112	25	1	0	90	36.1581920903955	36.241610738255	24	0.800052095800638	2	10	5	NaN	2	4	0.671391698905087	1	1	NaN	429	7	51	1	121	221	321	NaN	521	0.219309568870813	2	1	NaN	3895845.8025477	NaN	3895846.7859818	3895847.30250573
112	25	1	0	90	36.1581920903955	36.241610738255	23	0.766716591808945	2	11	1	NaN	2	4	0.671391698905087	1	1	NaN	430	7	52	1	121	221	321	NaN	521	0.101799674332142	2	1	NaN	3895848.3360304	NaN	3895849.3195511	3895849.83607623
112	25	1	0	90	36.1581920903955	36.241610738255	14	0.466697055883706	2	7	1	NaN	2	4	0.671391698905087	1	1	NaN	431	7	53	1	121	221	321	NaN	521	0.156254421453923	2	1	NaN	3895850.7697239	NaN	3895851.7531279	3895852.26964858
112	25	1	0	90	36.1581920903955	36.241610738255	18	0.600039071850479	2	10	1	NaN	2	4	0.671391698905087	1	1	NaN	432	7	54	1	121	221	321	NaN	521	0.374918868765235	2	1	NaN	3895853.7032048	NaN	3895854.6866936	3895855.20326963
112	25	1	0	90	36.1581920903955	36.241610738255	11	0.366690543908626	2	3	5	NaN	1	5	0.671391698905087	1	1	NaN	433	7	55	1	121	221	321	NaN	521	0.258358669001609	1	1	NaN	3895856.4036338	NaN	3895857.3870222	3895857.90354713
112	25	1	0	90	36.1581920903955	36.241610738255	11	0.366690543908626	2	6	6	NaN	1	3	0.671391698905087	1	1	NaN	434	7	56	1	121	221	321	NaN	521	1.05935837421566	1	1	NaN	3895858.970526	NaN	3895859.9539043	3895860.47046163
112	25	1	0	90	36.1581920903955	36.241610738255	0	0	1	10	6	NaN	2	5	0.671391698905087	1	1	NaN	435	7	57	1	111	211	311	NaN	511	0.267891574651003	2	1	NaN	3895862.3542418	NaN	3895863.3375992	3895863.85413243
112	25	1	0	90	36.1581920903955	36.241610738255	17	0.566703567858785	2	6	2	NaN	1	4	0.671391698905087	1	1	NaN	436	7	58	1	121	221	321	NaN	521	0.284050021786243	1	1	NaN	3895864.9377747	NaN	3895865.9212511	3895866.43772928
112	25	1	0	90	36.1581920903955	36.241610738255	9	0.300019535925239	2	9	4	NaN	2	5	0.671391698905087	1	1	NaN	437	7	59	1	121	221	321	NaN	521	0.211255821399391	2	1	NaN	3895867.5545914	NaN	3895868.538089	3895869.05463818
112	25	1	0	90	36.1581920903955	36.241610738255	13	0.433361551892012	2	5	2	NaN	1	4	0.671391698905087	1	1	NaN	438	7	60	1	121	221	321	NaN	521	0.261653768830001	1	1	NaN	3895870.0882736	NaN	3895871.0716751	3895871.58822173
112	25	1	0	90	36.1581920903955	36.241610738255	10	0.333355039916933	2	10	5	NaN	2	3	0.671391698905087	1	1	NaN	439	7	61	1	121	221	321	NaN	521	0.253227626439184	2	1	NaN	3895873.0885667	NaN	3895874.0719919	3895874.58851577
112	25	1	0	90	36.1581920903955	36.241610738255	14	0.466697055883706	2	10	5	NaN	2	4	0.671391698905087	1	1	NaN	440	7	62	1	121	221	321	NaN	521	0.957895868923515	2	1	NaN	3895875.672178	NaN	3895876.6555509	3895877.17209823
112	25	1	0	90	36.1581920903955	36.241610738255	11	0.366690543908626	2	10	2	NaN	2	4	0.671391698905087	1	1	NaN	441	7	63	1	121	221	321	NaN	521	0.266006921418011	2	1	NaN	3895878.9559	NaN	3895879.939239	3895880.45575808
112	25	1	0	90	36.1581920903955	36.241610738255	25	0.833387599792331	2	2	4	NaN	1	5	0.671391698905087	1	1	NaN	442	8	1	1	121	221	321	NaN	521	0.302202778868377	1	1	NaN	3895932.3277462	NaN	3895933.3111429	3895933.82766122
112	25	1	0	90	36.1581920903955	36.241610738255	12	0.400026047900319	2	1	4	NaN	1	4	0.671391698905087	1	1	NaN	443	8	2	1	121	221	321	NaN	521	0.24872446898371	1	1	NaN	3895935.2612243	NaN	3895936.2447442	3895936.76127653
112	25	1	0	90	36.1581920903955	36.241610738255	16	0.533368063867092	2	7	2	NaN	2	5	0.671391698905087	1	1	NaN	444	8	3	1	121	221	321	NaN	521	2.21380591625348	2	1	NaN	3895938.1282745	NaN	3895939.1116987	3895939.62822338
112	25	1	0	90	36.1581920903955	36.241610738255	6	0.20001302395016	2	11	1	NaN	2	5	0.671391698905087	1	1	NaN	445	8	4	1	121	221	321	NaN	521	4.99197156913579	2	1	NaN	3895942.6620863	NaN	3895943.6454539	3895944.16201023
112	25	1	0	90	36.1581920903955	36.241610738255	8	0.266684031933546	2	10	1	NaN	2	4	0.671391698905087	1	1	NaN	446	8	5	1	121	221	321	NaN	521	0.994727926328778	2	1	NaN	3895949.9794525	NaN	3895950.9628213	3895951.47940397
112	25	1	0	90	36.1581920903955	36.241610738255	21	0.700045583825558	2	2	3	NaN	1	5	0.671391698905087	1	1	NaN	447	8	6	1	121	221	321	NaN	521	0.25361206382513	1	1	NaN	3895953.2964505	NaN	3895954.2798747	3895954.79637744
112	25	1	0	90	36.1581920903955	36.241610738255	18	0.600039071850479	2	3	4	NaN	1	5	0.671391698905087	1	1	NaN	448	8	7	1	121	221	321	NaN	521	1.3987019690685	1	1	NaN	3895956.0632683	NaN	3895957.046781	3895957.56332803
112	25	1	0	90	36.1581920903955	36.241610738255	16	0.533368063867092	2	5	6	NaN	1	5	0.671391698905087	1	1	NaN	449	8	8	1	121	221	321	NaN	521	1.10563861671835	1	1	NaN	3895959.7804177	NaN	3895960.7638199	3895961.28034888
112	25	1	0	90	36.1581920903955	36.241610738255	22	0.733381087817252	2	5	1	NaN	1	5	0.671391698905087	1	1	NaN	450	8	9	1	121	221	321	NaN	521	0.792649221606553	1	1	NaN	3895963.197403	NaN	3895964.1808261	3895964.69735288
112	25	1	0	90	36.1581920903955	36.241610738255	21	0.700045583825558	2	5	6	NaN	1	3	0.671391698905087	1	1	NaN	451	8	10	1	121	221	321	NaN	521	0.761004563886672	1	1	NaN	3895966.3810133	NaN	3895967.3644913	3895967.88099334
112	25	1	0	90	36.1581920903955	36.241610738255	20	0.666710079833865	2	10	4	NaN	2	5	0.671391698905087	1	1	NaN	452	8	11	1	121	221	321	NaN	521	1.77360731642693	2	1	NaN	3895969.4647071	NaN	3895970.4480932	3895970.96462868
112	25	1	0	90	36.1581920903955	36.241610738255	13	0.433361551892012	2	5	3	NaN	1	5	0.671391698905087	1	1	NaN	453	8	12	1	121	221	321	NaN	521	1.7050447165966	1	1	NaN	3895973.5651001	NaN	3895974.54851	3895975.06503748
112	25	1	0	90	36.1581920903955	36.241610738255	12	0.400026047900319	2	10	6	NaN	2	5	0.671391698905087	1	1	NaN	454	8	13	1	121	221	321	NaN	521	0.32729791617021	2	1	NaN	3895977.5988304	NaN	3895978.5822239	3895979.09877268
112	25	1	0	90	36.1581920903955	36.241610738255	9	0.300019535925239	2	12	6	NaN	2	4	0.671391698905087	1	1	NaN	455	8	14	1	121	221	321	NaN	521	0.245031311176717	2	1	NaN	3895980.2491008	NaN	3895981.2324898	3895981.74902419
112	25	1	0	90	36.1581920903955	36.241610738255	25	0.833387599792331	2	9	2	NaN	2	4	0.671391698905087	1	1	NaN	456	8	15	1	121	221	321	NaN	521	0.478082701098174	2	1	NaN	3895982.8160042	NaN	3895983.7994253	3895984.3159451
112	25	1	0	90	36.1581920903955	36.241610738255	25	0.833387599792331	2	5	4	NaN	1	5	0.671391698905087	1	1	NaN	457	8	16	1	121	221	321	NaN	521	3.54183911625296	1	1	NaN	3895985.6162847	NaN	3895986.5997154	3895987.11621748
112	25	1	0	90	36.1581920903955	36.241610738255	10	0.333355039916933	2	1	6	NaN	1	3	0.671391698905087	1	1	NaN	458	8	17	1	121	221	321	NaN	521	1.15499751642346	1	1	NaN	3895991.4835482	NaN	3895992.4669274	3895992.98345878
