subjno	age	gender	isPractice	viewdist	CmToPixX	CmToPixY	SOA_frm	SOA_time	targNum	targID	targExample	targRace	targGender	firstTargPos	contrast	familiarity	curr_staircase	iStair	TrialNum	BlockNum	blktrl	sessionNum	TC_FIXATION	TC_RSVP_START	TC_RSVP_END	TC_BLANK	TC_RESPONSE_ONSET	RT2afc	resp_2afc	acc	RSVPOnsetVBL	RSVPOnsetTime	RSVPOffsetVBL	RSVPOffsetTime	startrt_2afc
63	25	0	0	90	36.1581920903955	36.241610738255	16	0.533367807865143	2	6	3	NaN	1	3	0.0463390450497508	1	1	NaN	1	1	1	2	121	221	321	NaN	521	0.761132974177599	1	1	NaN	4311349.0190288	NaN	4311350.0023189	4311350.53543753
63	25	0	0	90	36.1581920903955	36.241610738255	11	0.366690367907286	2	8	6	NaN	2	4	0.0463390450497508	1	1	NaN	2	1	2	2	121	221	321	NaN	521	0.371655474416912	2	1	NaN	4311352.1526762	NaN	4311353.1359477	4311353.66908203
63	25	0	0	90	36.1581920903955	36.241610738255	9	0.300019391924143	2	11	4	NaN	2	5	0.0463390450497508	1	1	NaN	3	1	3	2	121	221	321	NaN	521	0.375211763195693	2	1	NaN	4311354.8694879	NaN	4311355.8528119	4311356.36933884
63	25	0	0	90	36.1581920903955	36.241610738255	10	0.333354879915714	2	9	1	NaN	2	4	0.0463390450497508	1	1	NaN	4	1	4	2	121	221	321	NaN	521	0.354985179379582	2	1	NaN	4311357.5696606	NaN	4311358.553055	4311359.06961252
63	25	0	0	90	36.1581920903955	36.241610738255	15	0.500032319873571	2	4	5	NaN	1	4	0.0463390450497508	1	1	NaN	5	1	5	2	121	221	321	NaN	521	0.423171068541706	1	1	NaN	4311360.2532247	NaN	4311361.2366556	4311361.75320283
63	25	0	0	90	36.1581920903955	36.241610738255	21	0.700045247823	2	2	4	NaN	1	5	0.0463390450497508	1	1	NaN	6	1	6	2	121	221	321	NaN	521	0.321104421280324	1	1	NaN	4311363.0035249	NaN	4311363.9869128	4311364.50347858
63	25	0	0	90	36.1581920903955	36.241610738255	18	0.600038783848286	2	10	2	NaN	2	5	0.0463390450497508	1	1	NaN	7	1	7	2	121	221	321	NaN	521	0.343720868229866	2	1	NaN	4311365.637139	NaN	4311366.6205162	4311367.13706053
63	25	0	0	90	36.1581920903955	36.241610738255	17	0.566703295856714	2	8	3	NaN	2	5	0.0463390450497508	1	1	NaN	8	1	8	2	121	221	321	NaN	521	0.324837473221123	2	1	NaN	4311368.3040456	NaN	4311369.2874516	4311369.80399523
63	25	0	0	90	36.1581920903955	36.241610738255	0	0	1	12	5	NaN	2	5	0.0463390450497508	1	1	NaN	9	1	9	2	111	211	311	NaN	511	0.458177569322288	1	0	NaN	4311370.9542241	NaN	4311371.9377092	4311372.45424683
63	25	0	0	90	36.1581920903955	36.241610738255	10	0.333354879915714	2	9	5	NaN	2	5	0.0463390450497508	1	1	NaN	10	1	10	2	121	221	321	NaN	521	0.330938369035721	1	0	NaN	4311373.7379222	NaN	4311374.7213074	4311375.23785073
63	25	0	0	90	36.1581920903955	36.241610738255	15	0.500032319873571	2	6	6	NaN	1	5	0.0463390450497508	1	1	NaN	11	1	11	2	121	221	321	NaN	521	0.408653321675956	1	1	NaN	4311376.3881	NaN	4311377.3715646	4311377.88811418
63	25	0	0	90	36.1581920903955	36.241610738255	13	0.433361343890429	2	3	1	NaN	1	4	0.0463390450497508	1	1	NaN	12	1	12	2	121	221	321	NaN	521	0.242790868505836	1	1	NaN	4311379.1216486	NaN	4311380.1051657	4311380.62171023
63	25	0	0	90	36.1581920903955	36.241610738255	17	0.566703295856714	2	11	3	NaN	2	3	0.0463390450497508	1	1	NaN	13	1	13	2	121	221	321	NaN	521	0.276707521639764	2	1	NaN	4311381.6720259	NaN	4311382.6555099	4311383.17196358
63	25	0	0	90	36.1581920903955	36.241610738255	20	0.666709759831429	2	10	2	NaN	2	5	0.0463390450497508	1	1	NaN	14	1	14	2	121	221	321	NaN	521	0.316597621887922	2	1	NaN	4311384.2722666	NaN	4311385.2556739	4311385.77222828
63	25	0	0	90	36.1581920903955	36.241610738255	14	0.466696831882	2	2	1	NaN	1	4	0.0463390450497508	1	1	NaN	15	1	15	2	121	221	321	NaN	521	0.306992932222784	1	1	NaN	4311386.9058551	NaN	4311387.889272	4311388.40580907
63	25	0	0	90	36.1581920903955	36.241610738255	18	0.600038783848286	2	3	2	NaN	1	5	0.0463390450497508	1	1	NaN	16	1	16	2	121	221	321	NaN	521	0.333772668614984	1	1	NaN	4311389.8227965	NaN	4311390.8062089	4311391.32276993
63	25	0	0	90	36.1581920903955	36.241610738255	6	0.200012927949429	2	12	2	NaN	2	3	0.0463390450497508	1	1	NaN	17	1	17	2	121	221	321	NaN	521	0.252256837673485	2	1	NaN	4311392.4730677	NaN	4311393.4564687	4311393.97303556
63	25	0	0	90	36.1581920903955	36.241610738255	12	0.400025855898857	2	1	4	NaN	1	4	0.0463390450497508	1	1	NaN	18	1	18	2	121	221	321	NaN	521	0.231540022417903	1	1	NaN	4311395.1733238	NaN	4311396.1567422	4311396.67329398
63	25	0	0	90	36.1581920903955	36.241610738255	0	0	1	8	5	NaN	2	4	0.0463390450497508	1	1	NaN	19	1	19	2	111	211	311	NaN	511	0.24755051638931	1	0	NaN	4311397.9569142	NaN	4311398.9403274	4311399.45688738
63	25	0	0	90	36.1581920903955	36.241610738255	11	0.366690367907286	2	3	1	NaN	1	3	0.0463390450497508	1	1	NaN	20	1	20	2	121	221	321	NaN	521	0.201032268814743	1	1	NaN	4311400.5238644	NaN	4311401.5072634	4311402.02380743
63	25	0	0	90	36.1581920903955	36.241610738255	21	0.700045247823	2	9	1	NaN	2	3	0.0463390450497508	1	1	NaN	21	1	21	2	121	221	321	NaN	521	1.53192816860974	2	1	NaN	4311403.0408274	NaN	4311404.0241781	4311404.54071913
63	25	0	0	90	36.1581920903955	36.241610738255	14	0.466696831882	2	6	1	NaN	1	3	0.0463390450497508	1	1	NaN	22	1	22	2	121	221	321	NaN	521	0.257447779178619	1	1	NaN	4311406.8911579	NaN	4311407.8745522	4311408.39110012
63	25	0	0	90	36.1581920903955	36.241610738255	24	0.800051711797714	2	9	6	NaN	2	4	0.0463390450497508	1	1	NaN	23	1	23	2	121	221	321	NaN	521	0.282113832421601	1	0	NaN	4311409.6747314	NaN	4311410.6581665	4311411.17471897
63	25	0	0	90	36.1581920903955	36.241610738255	11	0.366690367907286	2	7	3	NaN	2	3	0.0463390450497508	1	1	NaN	24	1	24	2	121	221	321	NaN	521	0.297616721130908	2	1	NaN	4311412.2750066	NaN	4311413.2584181	4311413.77496378
63	25	0	0	90	36.1581920903955	36.241610738255	10	0.333354879915714	2	4	1	NaN	1	5	0.0463390450497508	1	1	NaN	25	1	25	2	121	221	321	NaN	521	0.320685268379748	1	1	NaN	4311414.8919385	NaN	4311415.8753559	4311416.39188773
63	25	0	0	90	36.1581920903955	36.241610738255	10	0.333354879915714	2	2	4	NaN	1	3	0.0463390450497508	1	1	NaN	26	1	26	2	121	221	321	NaN	521	0.82265012152493	1	1	NaN	4311417.542196	NaN	4311418.5255952	4311419.04215478
63	25	0	0	90	36.1581920903955	36.241610738255	16	0.533367807865143	2	8	5	NaN	2	5	0.0463390450497508	1	1	NaN	27	1	27	2	121	221	321	NaN	521	1.24828096851707	1	0	NaN	4311420.6925061	NaN	4311421.6759105	4311422.19245153
63	25	0	0	90	36.1581920903955	36.241610738255	20	0.666709759831429	2	12	5	NaN	2	3	0.0463390450497508	1	1	NaN	28	1	28	2	121	221	321	NaN	521	0.153422063216567	2	1	NaN	4311424.2595172	NaN	4311425.2429654	4311425.75946594
63	25	0	0	90	36.1581920903955	36.241610738255	20	0.666709759831429	2	5	2	NaN	1	3	0.0463390450497508	1	1	NaN	29	1	29	2	121	221	321	NaN	521	0.230266122147441	1	1	NaN	4311426.7263187	NaN	4311427.7098295	4311428.22638308
63	25	0	0	90	36.1581920903955	36.241610738255	7	0.233348415941	2	11	4	NaN	2	5	0.0463390450497508	1	1	NaN	30	1	30	2	121	221	321	NaN	521	0.672226722352207	1	0	NaN	4311429.2765506	NaN	4311430.26009	4311430.77663528
63	25	0	0	90	36.1581920903955	36.241610738255	19	0.633374271839857	2	4	3	NaN	1	3	0.0463390450497508	1	1	NaN	31	1	31	2	121	221	321	NaN	521	0.375456468202174	1	1	NaN	4311432.2769782	NaN	4311433.2603799	4311433.77691813
63	25	0	0	90	36.1581920903955	36.241610738255	22	0.733380735814571	2	10	2	NaN	2	4	0.0463390450497508	1	1	NaN	32	1	32	2	121	221	321	NaN	521	0.243240321986377	2	1	NaN	4311434.9772343	NaN	4311435.9606365	4311436.47719308
63	25	0	0	90	36.1581920903955	36.241610738255	15	0.500032319873571	2	8	3	NaN	2	3	0.0463390450497508	1	1	NaN	33	1	33	2	121	221	321	NaN	521	0.268720068968832	2	1	NaN	4311437.5440241	NaN	4311438.5275622	4311439.04410063
63	25	0	0	90	36.1581920903955	36.241610738255	16	0.533367807865143	2	1	4	NaN	1	3	0.0463390450497508	1	1	NaN	34	1	34	2	121	221	321	NaN	521	0.250449568964541	1	1	NaN	4311440.3943161	NaN	4311441.3778321	4311441.89439023
63	25	0	0	90	36.1581920903955	36.241610738255	19	0.633374271839857	2	9	2	NaN	2	4	0.0463390450497508	1	1	NaN	35	1	35	2	121	221	321	NaN	521	0.2273472212255	2	1	NaN	4311442.9613814	NaN	4311443.9447926	4311444.46130608
63	25	0	0	90	36.1581920903955	36.241610738255	12	0.400025855898857	2	7	2	NaN	2	5	0.0463390450497508	1	1	NaN	36	1	36	2	121	221	321	NaN	521	0.285113121382892	1	0	NaN	4311445.5116014	NaN	4311446.495013	4311447.01156118
63	25	0	0	90	36.1581920903955	36.241610738255	18	0.600038783848286	2	8	1	NaN	2	3	0.0463390450497508	1	1	NaN	37	1	37	2	121	221	321	NaN	521	0.228584268130362	2	1	NaN	4311448.5118945	NaN	4311449.4953176	4311450.01184403
63	25	0	0	90	36.1581920903955	36.241610738255	14	0.466696831882	2	4	4	NaN	1	5	0.0463390450497508	1	1	NaN	38	1	38	2	121	221	321	NaN	521	0.883690621703863	2	0	NaN	4311451.3287139	NaN	4311452.3122345	4311452.82879738
63	25	0	0	90	36.1581920903955	36.241610738255	25	0.833387199789286	2	11	5	NaN	2	4	0.0463390450497508	1	1	NaN	39	1	39	2	121	221	321	NaN	521	0.299612316302955	2	1	NaN	4311454.5291478	NaN	4311455.5125519	4311456.02909828
63	25	0	0	90	36.1581920903955	36.241610738255	12	0.400025855898857	2	3	4	NaN	1	5	0.0463390450497508	1	1	NaN	40	1	40	2	121	221	321	NaN	521	0.295772568322718	1	1	NaN	4311457.4126715	NaN	4311458.3960624	4311458.91271223
63	25	0	0	90	36.1581920903955	36.241610738255	12	0.400025855898857	2	8	4	NaN	2	4	0.0463390450497508	1	1	NaN	41	1	41	2	121	221	321	NaN	521	0.230915522202849	2	1	NaN	4311460.0296875	NaN	4311461.0130967	4311461.52964988
63	25	0	0	90	36.1581920903955	36.241610738255	7	0.233348415941	2	11	2	NaN	2	5	0.0463390450497508	1	1	NaN	42	1	42	2	121	221	321	NaN	521	0.320666727609932	2	1	NaN	4311462.5799406	NaN	4311463.5633391	4311464.07988807
63	25	0	0	90	36.1581920903955	36.241610738255	20	0.666709759831429	2	2	5	NaN	1	5	0.0463390450497508	1	1	NaN	43	1	43	2	121	221	321	NaN	521	0.231446521356702	1	1	NaN	4311465.2135346	NaN	4311466.1969371	4311466.71348678
63	25	0	0	90	36.1581920903955	36.241610738255	6	0.200012927949429	2	2	5	NaN	1	5	0.0463390450497508	1	1	NaN	44	1	44	2	121	221	321	NaN	521	1.83348652161658	1	1	NaN	4311467.7469904	NaN	4311468.730523	4311469.24706668
63	25	0	0	90	36.1581920903955	36.241610738255	10	0.333354879915714	2	5	1	NaN	1	4	0.0463390450497508	1	1	NaN	45	1	45	2	121	221	321	NaN	521	0.467230767942965	1	1	NaN	4311471.8973949	NaN	4311472.8809652	4311473.39746683
63	25	0	0	90	36.1581920903955	36.241610738255	25	0.833387199789286	2	9	1	NaN	2	5	0.0463390450497508	1	1	NaN	46	1	46	2	121	221	321	NaN	521	0.235846221446991	2	1	NaN	4311474.6811422	NaN	4311475.6645247	4311476.18108228
63	25	0	0	90	36.1581920903955	36.241610738255	14	0.466696831882	2	5	6	NaN	1	4	0.0463390450497508	1	1	NaN	47	1	47	2	121	221	321	NaN	521	0.285110568627715	1	1	NaN	4311477.2313599	NaN	4311478.2147793	4311478.73132373
63	25	0	0	90	36.1581920903955	36.241610738255	12	0.400025855898857	2	12	4	NaN	2	3	0.0463390450497508	1	1	NaN	48	1	48	2	121	221	321	NaN	521	0.261266916058958	2	1	NaN	4311479.8316439	NaN	4311480.8150391	4311481.33158498
63	25	0	0	90	36.1581920903955	36.241610738255	23	0.766716223806143	2	8	6	NaN	2	5	0.0463390450497508	1	1	NaN	49	1	49	2	121	221	321	NaN	521	0.253339816816151	2	1	NaN	4311482.4152151	NaN	4311483.3986035	4311483.91516678
63	25	0	0	90	36.1581920903955	36.241610738255	11	0.366690367907286	2	4	3	NaN	1	4	0.0463390450497508	1	1	NaN	50	1	50	2	121	221	321	NaN	521	0.310205268673599	1	1	NaN	4311484.9820402	NaN	4311485.9655323	4311486.48209973
63	25	0	0	90	36.1581920903955	36.241610738255	21	0.700045247823	2	8	2	NaN	2	4	0.0463390450497508	1	1	NaN	51	1	51	2	121	221	321	NaN	521	0.116901468485594	2	1	NaN	4311487.8157236	NaN	4311488.7990424	4311489.31569933
63	25	0	0	90	36.1581920903955	36.241610738255	25	0.833387199789286	2	7	5	NaN	2	3	0.0463390450497508	1	1	NaN	52	1	52	2	121	221	321	NaN	521	0.310220036655664	2	1	NaN	4311490.3826798	NaN	4311491.3660626	4311491.88262476
63	25	0	0	90	36.1581920903955	36.241610738255	8	0.266683903932571	2	5	6	NaN	1	5	0.0463390450497508	1	1	NaN	53	1	53	2	121	221	321	NaN	521	0.253147168084979	1	1	NaN	4311492.9994583	NaN	4311493.9829923	4311494.49953533
63	25	0	0	90	36.1581920903955	36.241610738255	12	0.400025855898857	2	7	6	NaN	2	4	0.0463390450497508	1	1	NaN	54	1	54	2	121	221	321	NaN	521	0.396164700388908	2	1	NaN	4311496.0165502	NaN	4311496.9999501	4311497.5165013
63	25	0	0	90	36.1581920903955	36.241610738255	16	0.533367807865143	2	2	1	NaN	1	5	0.0463390450497508	1	1	NaN	55	1	55	2	121	221	321	NaN	521	0.279732273891568	1	1	NaN	4311498.7168174	NaN	4311499.7002256	4311500.21677333
63	25	0	0	90	36.1581920903955	36.241610738255	20	0.666709759831429	2	10	5	NaN	2	3	0.0463390450497508	1	1	NaN	56	1	56	2	121	221	321	NaN	521	0.231685820966959	2	1	NaN	4311501.3170706	NaN	4311502.300469	4311502.81702528
63	25	0	0	90	36.1581920903955	36.241610738255	21	0.700045247823	2	5	4	NaN	1	4	0.0463390450497508	1	1	NaN	57	1	57	2	121	221	321	NaN	521	0.217613868415356	1	1	NaN	4311504.0673478	NaN	4311505.050741	4311505.56728783
63	25	0	0	90	36.1581920903955	36.241610738255	16	0.533367807865143	2	6	2	NaN	1	5	0.0463390450497508	1	1	NaN	58	1	58	2	121	221	321	NaN	521	0.515969721600413	1	1	NaN	4311506.6008231	NaN	4311507.5843156	4311508.10087818
63	25	0	0	90	36.1581920903955	36.241610738255	13	0.433361343890429	2	12	4	NaN	2	3	0.0463390450497508	1	1	NaN	59	1	59	2	121	221	321	NaN	521	0.258059222251177	2	1	NaN	4311509.4345498	NaN	4311510.4179363	4311510.93448878
63	25	0	0	90	36.1581920903955	36.241610738255	0	0	1	11	1	NaN	2	5	0.0463390450497508	1	1	NaN	60	1	60	2	111	211	311	NaN	511	0.57938262168318	2	1	NaN	4311512.0014462	NaN	4311512.9848457	4311513.50140598
63	25	0	0	90	36.1581920903955	36.241610738255	15	0.500032319873571	2	2	3	NaN	1	4	0.0463390450497508	1	1	NaN	61	1	61	2	121	221	321	NaN	521	0.287717021070421	2	0	NaN	4311514.884941	NaN	4311515.8684693	4311516.38501938
63	25	0	0	90	36.1581920903955	36.241610738255	8	0.266683903932571	2	2	5	NaN	1	4	0.0463390450497508	1	1	NaN	62	1	62	2	121	221	321	NaN	521	0.279628821648657	1	1	NaN	4311517.4852	NaN	4311518.4687016	4311518.98527708
63	25	0	0	90	36.1581920903955	36.241610738255	23	0.766716223806143	2	1	3	NaN	1	5	0.0463390450497508	1	1	NaN	63	1	63	2	121	221	321	NaN	521	0.239421668462455	1	1	NaN	4311520.0855797	NaN	4311521.0689768	4311521.58551853
63	25	0	0	90	36.1581920903955	36.241610738255	8	0.266683903932571	2	1	6	NaN	1	3	0.0463390450497508	1	1	NaN	64	2	1	2	121	221	321	NaN	521	0.215791368857026	2	0	NaN	4311530.6531455	NaN	4311531.6366798	4311532.15322513
63	25	0	0	90	36.1581920903955	36.241610738255	15	0.500032319873571	2	9	6	NaN	2	4	0.0463390450497508	1	1	NaN	65	2	2	2	121	221	321	NaN	521	0.321956321597099	1	0	NaN	4311533.1868594	NaN	4311534.17025	4311534.68681428
63	25	0	0	90	36.1581920903955	36.241610738255	23	0.766716223806143	2	5	2	NaN	1	3	0.0463390450497508	1	1	NaN	66	2	3	2	121	221	321	NaN	521	0.240361368283629	1	1	NaN	4311535.8204369	NaN	4311536.8038532	4311537.32040363
63	25	0	0	90	36.1581920903955	36.241610738255	12	0.400025855898857	2	10	3	NaN	2	3	0.0463390450497508	1	1	NaN	67	2	4	2	121	221	321	NaN	521	0.256409021094441	2	1	NaN	4311538.6040675	NaN	4311539.5874619	4311540.10401018
63	25	0	0	90	36.1581920903955	36.241610738255	24	0.800051711797714	2	7	3	NaN	2	5	0.0463390450497508	1	1	NaN	68	2	5	2	121	221	321	NaN	521	0.218074369244277	2	1	NaN	4311541.1709726	NaN	4311542.1543762	4311542.67091793
63	25	0	0	90	36.1581920903955	36.241610738255	21	0.700045247823	2	4	6	NaN	1	5	0.0463390450497508	1	1	NaN	69	2	6	2	121	221	321	NaN	521	0.364366721361876	1	1	NaN	4311543.7045579	NaN	4311544.6879572	4311545.20450958
63	25	0	0	90	36.1581920903955	36.241610738255	14	0.466696831882	2	1	5	NaN	1	5	0.0463390450497508	1	1	NaN	70	2	7	2	121	221	321	NaN	521	0.90497481636703	2	0	NaN	4311546.3880414	NaN	4311547.3715534	4311547.88809698
63	25	0	0	90	36.1581920903955	36.241610738255	12	0.400025855898857	2	9	3	NaN	2	5	0.0463390450497508	1	1	NaN	71	2	8	2	121	221	321	NaN	521	0.354297721758485	2	1	NaN	4311549.938501	NaN	4311550.9218966	4311551.43845388
63	25	0	0	90	36.1581920903955	36.241610738255	22	0.733380735814571	2	5	6	NaN	1	4	0.0463390450497508	1	1	NaN	72	2	9	2	121	221	321	NaN	521	0.279525368474424	1	1	NaN	4311552.6054571	NaN	4311553.5888465	4311554.10537313
63	25	0	0	90	36.1581920903955	36.241610738255	13	0.433361343890429	2	6	1	NaN	1	4	0.0463390450497508	1	1	NaN	73	2	10	2	121	221	321	NaN	521	0.352026568725705	1	1	NaN	4311555.1890118	NaN	4311556.1724033	4311556.68896113
63	25	0	0	90	36.1581920903955	36.241610738255	21	0.700045247823	2	8	2	NaN	2	4	0.0463390450497508	1	1	NaN	74	2	11	2	121	221	321	NaN	521	0.309049568139017	2	1	NaN	4311557.8559513	NaN	4311558.8393459	4311559.35588523
63	25	0	0	90	36.1581920903955	36.241610738255	20	0.666709759831429	2	3	3	NaN	1	3	0.0463390450497508	1	1	NaN	75	2	12	2	121	221	321	NaN	521	0.253325121477246	1	1	NaN	4311560.8395407	NaN	4311561.8229654	4311562.33952378
63	25	0	0	90	36.1581920903955	36.241610738255	9	0.300019391924143	2	11	1	NaN	2	4	0.0463390450497508	1	1	NaN	76	2	13	2	121	221	321	NaN	521	0.246223968453705	2	1	NaN	4311563.4064826	NaN	4311564.3898992	4311564.90643103
63	25	0	0	90	36.1581920903955	36.241610738255	7	0.233348415941	2	5	4	NaN	1	3	0.0463390450497508	1	1	NaN	77	2	14	2	121	221	321	NaN	521	0.287227873690426	1	1	NaN	4311565.973391	NaN	4311566.9568009	4311567.47335933
63	25	0	0	90	36.1581920903955	36.241610738255	11	0.366690367907286	2	1	3	NaN	1	4	0.0463390450497508	1	1	NaN	78	2	15	2	121	221	321	NaN	521	0.25533162150532	1	1	NaN	4311568.5735754	NaN	4311569.5570608	4311570.07361268
63	25	0	0	90	36.1581920903955	36.241610738255	11	0.366690367907286	2	11	3	NaN	2	5	0.0463390450497508	1	1	NaN	79	2	16	2	121	221	321	NaN	521	0.320287121459842	2	1	NaN	4311571.1405939	NaN	4311572.1239762	4311572.64053408
63	25	0	0	90	36.1581920903955	36.241610738255	15	0.500032319873571	2	1	2	NaN	1	5	0.0463390450497508	1	1	NaN	80	2	17	2	121	221	321	NaN	521	0.2781299687922	1	1	NaN	4311573.7908189	NaN	4311574.7742485	4311575.29078533
63	25	0	0	90	36.1581920903955	36.241610738255	13	0.433361343890429	2	3	4	NaN	1	4	0.0463390450497508	1	1	NaN	81	2	18	2	121	221	321	NaN	521	0.374445968307555	1	1	NaN	4311576.3744254	NaN	4311577.357815	4311577.87437543
63	25	0	0	90	36.1581920903955	36.241610738255	7	0.233348415941	2	12	6	NaN	2	4	0.0463390450497508	1	1	NaN	82	2	19	2	121	221	321	NaN	521	0.23510916903615	2	1	NaN	4311579.0580044	NaN	4311580.0414195	4311580.55796093
63	25	0	0	90	36.1581920903955	36.241610738255	6	0.200012927949429	2	9	6	NaN	2	4	0.0463390450497508	1	1	NaN	83	2	20	2	121	221	321	NaN	521	1.38855922222137	1	0	NaN	4311581.6082554	NaN	4311582.5916791	4311583.10821528
63	25	0	0	90	36.1581920903955	36.241610738255	14	0.466696831882	2	6	2	NaN	1	3	0.0463390450497508	1	1	NaN	84	2	21	2	121	221	321	NaN	521	0.239739116281271	1	1	NaN	4311585.7251992	NaN	4311586.7087385	4311587.22528578
63	25	0	0	90	36.1581920903955	36.241610738255	24	0.800051711797714	2	12	4	NaN	2	3	0.0463390450497508	1	1	NaN	85	2	22	2	121	221	321	NaN	521	0.169161168858409	2	1	NaN	4311588.2754377	NaN	4311589.2590156	4311589.77553263
63	25	0	0	90	36.1581920903955	36.241610738255	21	0.700045247823	2	3	1	NaN	1	5	0.0463390450497508	1	1	NaN	86	2	23	2	121	221	321	NaN	521	0.245758821256459	2	0	NaN	4311590.7591551	NaN	4311591.7425696	4311592.25911938
63	25	0	0	90	36.1581920903955	36.241610738255	15	0.500032319873571	2	12	1	NaN	2	3	0.0463390450497508	1	1	NaN	87	2	24	2	121	221	321	NaN	521	0.231405921280384	2	1	NaN	4311593.3094414	NaN	4311594.2928145	4311594.80936998
63	25	0	0	90	36.1581920903955	36.241610738255	15	0.500032319873571	2	6	6	NaN	1	4	0.0463390450497508	1	1	NaN	88	2	25	2	121	221	321	NaN	521	0.253123021684587	1	1	NaN	4311596.159574	NaN	4311597.1430952	4311597.65965028
63	25	0	0	90	36.1581920903955	36.241610738255	0	0	1	7	3	NaN	2	4	0.0463390450497508	1	1	NaN	89	2	26	2	111	211	311	NaN	511	0.270552021451294	2	1	NaN	4311598.7264823	NaN	4311599.7100083	4311600.22656738
63	25	0	0	90	36.1581920903955	36.241610738255	19	0.633374271839857	2	7	3	NaN	2	4	0.0463390450497508	1	1	NaN	90	2	27	2	121	221	321	NaN	521	0.268717521801591	2	1	NaN	4311601.560236	NaN	4311602.5436313	4311603.06019128
63	25	0	0	90	36.1581920903955	36.241610738255	11	0.366690367907286	2	2	1	NaN	1	3	0.0463390450497508	1	1	NaN	91	2	28	2	121	221	321	NaN	521	0.237257468514144	1	1	NaN	4311604.143801	NaN	4311605.1272071	4311605.64375133
63	25	0	0	90	36.1581920903955	36.241610738255	16	0.533367807865143	2	3	6	NaN	1	4	0.0463390450497508	1	1	NaN	92	2	29	2	121	221	321	NaN	521	0.4326739218086	2	0	NaN	4311606.8439442	NaN	4311607.8274781	4311608.34402908
63	25	0	0	90	36.1581920903955	36.241610738255	12	0.400025855898857	2	6	5	NaN	1	3	0.0463390450497508	1	1	NaN	93	2	30	2	121	221	321	NaN	521	0.298188221640885	1	1	NaN	4311609.5943453	NaN	4311610.5777408	4311611.09429948
63	25	0	0	90	36.1581920903955	36.241610738255	15	0.500032319873571	2	7	6	NaN	2	3	0.0463390450497508	1	1	NaN	94	2	31	2	121	221	321	NaN	521	0.265905321575701	2	1	NaN	4311612.2112593	NaN	4311613.1947023	4311613.71122008
63	25	0	0	90	36.1581920903955	36.241610738255	9	0.300019391924143	2	8	3	NaN	2	3	0.0463390450497508	1	1	NaN	95	2	32	2	121	221	321	NaN	521	1.37065112683922	2	1	NaN	4311615.1782245	NaN	4311616.1615221	4311616.67817247
63	25	0	0	90	36.1581920903955	36.241610738255	7	0.233348415941	2	9	2	NaN	2	4	0.0463390450497508	1	1	NaN	96	2	33	2	121	221	321	NaN	521	0.247076421044767	2	1	NaN	4311618.8619218	NaN	4311619.8453209	4311620.36187078
63	25	0	0	90	36.1581920903955	36.241610738255	22	0.733380735814571	2	11	2	NaN	2	4	0.0463390450497508	1	1	NaN	97	2	34	2	121	221	321	NaN	521	0.32744132168591	1	0	NaN	4311621.6455224	NaN	4311622.6289198	4311623.14547778
63	25	0	0	90	36.1581920903955	36.241610738255	10	0.333354879915714	2	10	5	NaN	2	5	0.0463390450497508	1	1	NaN	98	2	35	2	121	221	321	NaN	521	0.261558067984879	2	1	NaN	4311624.2791167	NaN	4311625.2625044	4311625.77907513
63	25	0	0	90	36.1581920903955	36.241610738255	0	0	1	6	3	NaN	1	4	0.0463390450497508	1	1	NaN	99	2	36	2	111	211	311	NaN	511	0.220185115933418	1	1	NaN	4311626.9127175	NaN	4311627.8961097	4311628.41266588
63	25	0	0	90	36.1581920903955	36.241610738255	22	0.733380735814571	2	2	2	NaN	1	4	0.0463390450497508	1	1	NaN	100	2	37	2	121	221	321	NaN	521	0.268506068736315	2	0	NaN	4311629.4962869	NaN	4311630.4797213	4311630.99623773
63	25	0	0	90	36.1581920903955	36.241610738255	23	0.766716223806143	2	12	1	NaN	2	3	0.0463390450497508	1	1	NaN	101	2	38	2	121	221	321	NaN	521	0.237074168398976	2	1	NaN	4311632.0799016	NaN	4311633.0632685	4311633.57982243
63	25	0	0	90	36.1581920903955	36.241610738255	24	0.800051711797714	2	12	6	NaN	2	4	0.0463390450497508	1	1	NaN	102	2	39	2	121	221	321	NaN	521	0.367044021375477	2	1	NaN	4311634.6299888	NaN	4311635.6135274	4311636.13008408
63	25	0	0	90	36.1581920903955	36.241610738255	8	0.266683903932571	2	8	1	NaN	2	4	0.0463390450497508	1	1	NaN	103	2	40	2	121	221	321	NaN	521	0.315025868825614	2	1	NaN	4311637.3137175	NaN	4311638.2971224	4311638.81366943
63	25	0	0	90	36.1581920903955	36.241610738255	22	0.733380735814571	2	3	6	NaN	1	3	0.0463390450497508	1	1	NaN	104	2	41	2	121	221	321	NaN	521	0.281418369151652	2	0	NaN	4311639.9473072	NaN	4311640.930722	4311641.44726123
63	25	0	0	90	36.1581920903955	36.241610738255	9	0.300019391924143	2	12	5	NaN	2	5	0.0463390450497508	1	1	NaN	105	2	42	2	121	221	321	NaN	521	0.233348621986806	2	1	NaN	4311642.5475722	NaN	4311643.5309666	4311644.04752618
63	25	0	0	90	36.1581920903955	36.241610738255	19	0.633374271839857	2	8	4	NaN	2	3	0.0463390450497508	1	1	NaN	106	2	43	2	121	221	321	NaN	521	0.307729868218303	2	1	NaN	4311645.0811444	NaN	4311646.064559	4311646.58110273
63	25	0	0	90	36.1581920903955	36.241610738255	20	0.666709759831429	2	9	6	NaN	2	3	0.0463390450497508	1	1	NaN	107	2	44	2	121	221	321	NaN	521	0.267075167968869	1	0	NaN	4311647.6980945	NaN	4311648.6814815	4311649.19802563
63	25	0	0	90	36.1581920903955	36.241610738255	25	0.833387199789286	2	6	2	NaN	1	5	0.0463390450497508	1	1	NaN	108	2	45	2	121	221	321	NaN	521	0.229192421771586	1	1	NaN	4311650.8317205	NaN	4311651.8151162	4311652.33166968
63	25	0	0	90	36.1581920903955	36.241610738255	6	0.200012927949429	2	3	3	NaN	1	3	0.0463390450497508	1	1	NaN	109	2	46	2	121	221	321	NaN	521	0.243481921032071	1	1	NaN	4311653.4653309	NaN	4311654.4487101	4311654.96526208
63	25	0	0	90	36.1581920903955	36.241610738255	12	0.400025855898857	2	11	2	NaN	2	3	0.0463390450497508	1	1	NaN	110	2	47	2	121	221	321	NaN	521	0.685372789390385	2	1	NaN	4311656.0155797	NaN	4311656.9989537	4311657.51551721
63	25	0	0	90	36.1581920903955	36.241610738255	6	0.200012927949429	2	12	1	NaN	2	3	0.0463390450497508	1	1	NaN	111	2	48	2	121	221	321	NaN	521	0.421339868567884	2	1	NaN	4311659.0158438	NaN	4311659.9992426	4311660.51579703
63	25	0	0	90	36.1581920903955	36.241610738255	10	0.333354879915714	2	8	6	NaN	2	4	0.0463390450497508	1	1	NaN	112	2	49	2	121	221	321	NaN	521	0.351476368494332	2	1	NaN	4311661.749441	NaN	4311662.7328451	4311663.24940303
63	25	0	0	90	36.1581920903955	36.241610738255	8	0.266683903932571	2	3	5	NaN	1	3	0.0463390450497508	1	1	NaN	113	2	50	2	121	221	321	NaN	521	0.460599722340703	2	0	NaN	4311664.4163732	NaN	4311665.399773	4311665.91633478
63	25	0	0	90	36.1581920903955	36.241610738255	10	0.333354879915714	2	12	6	NaN	2	3	0.0463390450497508	1	1	NaN	114	2	51	2	121	221	321	NaN	521	0.405571168288589	2	1	NaN	4311667.1833174	NaN	4311668.1667189	4311668.68326253
63	25	0	0	90	36.1581920903955	36.241610738255	11	0.366690367907286	2	3	5	NaN	1	5	0.0463390450497508	1	1	NaN	115	2	52	2	121	221	321	NaN	521	0.456541721709073	1	1	NaN	4311669.9002485	NaN	4311670.8836448	4311671.40020668
63	25	0	0	90	36.1581920903955	36.241610738255	15	0.500032319873571	2	11	4	NaN	2	4	0.0463390450497508	1	1	NaN	116	2	53	2	121	221	321	NaN	521	0.369737322442234	2	1	NaN	4311672.6671733	NaN	4311673.6505696	4311674.16714378
63	25	0	0	90	36.1581920903955	36.241610738255	12	0.400025855898857	2	12	5	NaN	2	4	0.0463390450497508	1	1	NaN	117	2	54	2	121	221	321	NaN	521	0.326487622223794	2	1	NaN	4311675.3507842	NaN	4311676.3341889	4311676.85074008
63	25	0	0	90	36.1581920903955	36.241610738255	22	0.733380735814571	2	6	5	NaN	1	5	0.0463390450497508	1	1	NaN	118	2	55	2	121	221	321	NaN	521	0.292508468031883	1	1	NaN	4311677.9843772	NaN	4311678.9677716	4311679.48433943
63	25	0	0	90	36.1581920903955	36.241610738255	14	0.466696831882	2	1	3	NaN	1	5	0.0463390450497508	1	1	NaN	119	2	56	2	121	221	321	NaN	521	0.300474468618631	1	1	NaN	4311680.5846562	NaN	4311681.5681009	4311682.08457353
63	25	0	0	90	36.1581920903955	36.241610738255	22	0.733380735814571	2	7	1	NaN	2	5	0.0463390450497508	1	1	NaN	120	2	57	2	121	221	321	NaN	521	0.260683968663216	2	1	NaN	4311683.5682324	NaN	4311684.5516556	4311685.06820173
63	25	0	0	90	36.1581920903955	36.241610738255	20	0.666709759831429	2	6	4	NaN	1	5	0.0463390450497508	1	1	NaN	121	2	58	2	121	221	321	NaN	521	0.213408668525517	1	1	NaN	4311686.1517797	NaN	4311687.1352428	4311687.65178513
63	25	0	0	90	36.1581920903955	36.241610738255	25	0.833387199789286	2	12	2	NaN	2	4	0.0463390450497508	1	1	NaN	122	2	59	2	121	221	321	NaN	521	0.240367821417749	2	1	NaN	4311688.6687523	NaN	4311689.6521525	4311690.16871638
63	25	0	0	90	36.1581920903955	36.241610738255	0	0	1	3	4	NaN	1	5	0.0463390450497508	1	1	NaN	123	2	60	2	111	211	311	NaN	511	0.306274568662047	1	1	NaN	4311691.2190052	NaN	4311692.2024042	4311692.71895243
63	25	0	0	90	36.1581920903955	36.241610738255	19	0.633374271839857	2	12	4	NaN	2	3	0.0463390450497508	1	1	NaN	124	2	61	2	121	221	321	NaN	521	0.416909521445632	2	1	NaN	4311693.8359526	NaN	4311694.8193357	4311695.33588118
63	25	0	0	90	36.1581920903955	36.241610738255	24	0.800051711797714	2	5	6	NaN	1	4	0.0463390450497508	1	1	NaN	125	2	62	2	121	221	321	NaN	521	0.483393768779933	1	1	NaN	4311696.9695728	NaN	4311697.9529689	4311698.46951363
63	25	0	0	90	36.1581920903955	36.241610738255	17	0.566703295856714	2	11	5	NaN	2	4	0.0463390450497508	1	1	NaN	126	2	63	2	121	221	321	NaN	521	0.243357417173684	2	1	NaN	4311699.7698606	NaN	4311700.753245	4311701.26979248
63	25	0	0	90	36.1581920903955	36.241610738255	20	0.666709759831429	2	1	2	NaN	1	5	0.0463390450497508	1	1	NaN	127	3	1	2	121	221	321	NaN	521	0.281922821886837	2	0	NaN	4311712.1710599	NaN	4311713.154459	4311713.67101218
63	25	0	0	90	36.1581920903955	36.241610738255	8	0.266683903932571	2	12	1	NaN	2	3	0.0463390450497508	1	1	NaN	128	3	2	2	121	221	321	NaN	521	0.337976821698248	2	1	NaN	4311714.7714057	NaN	4311715.7547071	4311716.27126938
63	25	0	0	90	36.1581920903955	36.241610738255	12	0.400025855898857	2	2	1	NaN	1	5	0.0463390450497508	1	1	NaN	129	3	3	2	121	221	321	NaN	521	0.275521473959088	1	1	NaN	4311717.5215479	NaN	4311718.5049791	4311719.02153193
63	25	0	0	90	36.1581920903955	36.241610738255	10	0.333354879915714	2	3	4	NaN	1	5	0.0463390450497508	1	1	NaN	130	3	4	2	121	221	321	NaN	521	0.356273869052529	1	1	NaN	4311720.4885144	NaN	4311721.4719336	4311721.98849403
63	25	0	0	90	36.1581920903955	36.241610738255	7	0.233348415941	2	7	1	NaN	2	3	0.0463390450497508	1	1	NaN	131	3	5	2	121	221	321	NaN	521	0.233600268140435	2	1	NaN	4311723.1553193	NaN	4311724.1388905	4311724.65541563
63	25	0	0	90	36.1581920903955	36.241610738255	9	0.300019391924143	2	10	3	NaN	2	5	0.0463390450497508	1	1	NaN	132	3	6	2	121	221	321	NaN	521	0.25143832154572	2	1	NaN	4311725.7057206	NaN	4311726.6890998	4311727.20567458
63	25	0	0	90	36.1581920903955	36.241610738255	21	0.700045247823	2	2	2	NaN	1	4	0.0463390450497508	1	1	NaN	133	3	7	2	121	221	321	NaN	521	0.252337468788028	1	1	NaN	4311728.2726353	NaN	4311729.2560383	4311729.77258353
63	25	0	0	90	36.1581920903955	36.241610738255	16	0.533367807865143	2	9	3	NaN	2	3	0.0463390450497508	1	1	NaN	134	3	8	2	121	221	321	NaN	521	0.293579720892012	1	0	NaN	4311730.8396549	NaN	4311731.82295	4311732.33951138
63	25	0	0	90	36.1581920903955	36.241610738255	9	0.300019391924143	2	12	1	NaN	2	5	0.0463390450497508	1	1	NaN	135	3	9	2	121	221	321	NaN	521	0.277178178541362	2	1	NaN	4311733.4398013	NaN	4311734.4232336	4311734.93975352
63	25	0	0	90	36.1581920903955	36.241610738255	18	0.600038783848286	2	3	6	NaN	1	3	0.0463390450497508	1	1	NaN	136	3	10	2	121	221	321	NaN	521	0.277771721594036	2	0	NaN	4311736.0233944	NaN	4311737.0067974	4311737.52334348
63	25	0	0	90	36.1581920903955	36.241610738255	17	0.566703295856714	2	10	4	NaN	2	5	0.0463390450497508	1	1	NaN	137	3	11	2	121	221	321	NaN	521	0.278627567924559	2	1	NaN	4311738.9903213	NaN	4311739.9737521	4311740.49030633
63	25	0	0	90	36.1581920903955	36.241610738255	16	0.533367807865143	2	11	3	NaN	2	4	0.0463390450497508	1	1	NaN	138	3	12	2	121	221	321	NaN	521	0.631475768052042	1	0	NaN	4311741.7739932	NaN	4311742.7572563	4311743.27390973
63	25	0	0	90	36.1581920903955	36.241610738255	12	0.400025855898857	2	5	2	NaN	1	5	0.0463390450497508	1	1	NaN	139	3	13	2	121	221	321	NaN	521	0.288854368962348	1	1	NaN	4311744.7242499	NaN	4311745.7076493	4311746.22419723
63	25	0	0	90	36.1581920903955	36.241610738255	18	0.600038783848286	2	4	6	NaN	1	4	0.0463390450497508	1	1	NaN	140	3	14	2	121	221	321	NaN	521	0.285895663313568	1	1	NaN	4311747.5912032	NaN	4311748.5745824	4311749.09114764
63	25	0	0	90	36.1581920903955	36.241610738255	11	0.366690367907286	2	10	6	NaN	2	3	0.0463390450497508	1	1	NaN	141	3	15	2	121	221	321	NaN	521	0.22416677325964	2	1	NaN	4311750.3247828	NaN	4311751.3082011	4311751.82475413
63	25	0	0	90	36.1581920903955	36.241610738255	24	0.800051711797714	2	5	6	NaN	1	5	0.0463390450497508	1	1	NaN	142	3	16	2	121	221	321	NaN	521	0.264078121632338	1	1	NaN	4311752.9249317	NaN	4311753.9084419	4311754.42501048
63	25	0	0	90	36.1581920903955	36.241610738255	17	0.566703295856714	2	6	1	NaN	1	5	0.0463390450497508	1	1	NaN	143	3	17	2	121	221	321	NaN	521	0.307169768027961	1	1	NaN	4311755.6419945	NaN	4311756.6253875	4311757.14194873
63	25	0	0	90	36.1581920903955	36.241610738255	25	0.833387199789286	2	10	4	NaN	2	4	0.0463390450497508	1	1	NaN	144	3	18	2	121	221	321	NaN	521	0.337759089656174	2	1	NaN	4311758.2755519	NaN	4311759.258998	4311759.77552431
63	25	0	0	90	36.1581920903955	36.241610738255	7	0.233348415941	2	8	4	NaN	2	4	0.0463390450497508	1	1	NaN	145	3	19	2	121	221	321	NaN	521	0.255167367868125	2	1	NaN	4311760.9258424	NaN	4311761.909239	4311762.42577843
63	25	0	0	90	36.1581920903955	36.241610738255	24	0.800051711797714	2	3	1	NaN	1	5	0.0463390450497508	1	1	NaN	146	3	20	2	121	221	321	NaN	521	0.351955221965909	1	1	NaN	4311763.7093438	NaN	4311764.6927349	4311765.20939778
63	25	0	0	90	36.1581920903955	36.241610738255	25	0.833387199789286	2	3	5	NaN	1	4	0.0463390450497508	1	1	NaN	147	3	21	2	121	221	321	NaN	521	0.293706274591386	1	1	NaN	4311766.3597193	NaN	4311767.3431039	4311767.85964983
63	25	0	0	90	36.1581920903955	36.241610738255	0	0	1	5	4	NaN	1	4	0.0463390450497508	1	1	NaN	148	3	22	2	111	211	311	NaN	511	0.309287721291184	1	1	NaN	4311768.9599725	NaN	4311769.9432942	4311770.45990568
63	25	0	0	90	36.1581920903955	36.241610738255	17	0.566703295856714	2	2	1	NaN	1	5	0.0463390450497508	1	1	NaN	149	3	23	2	121	221	321	NaN	521	0.260625367984176	2	0	NaN	4311771.5768902	NaN	4311772.5602839	4311773.07682083
63	25	0	0	90	36.1581920903955	36.241610738255	19	0.633374271839857	2	1	1	NaN	1	5	0.0463390450497508	1	1	NaN	150	3	24	2	121	221	321	NaN	521	0.261140621267259	2	0	NaN	4311774.1436725	NaN	4311775.127188	4311775.64375308
63	25	0	0	90	36.1581920903955	36.241610738255	16	0.533367807865143	2	3	4	NaN	1	3	0.0463390450497508	1	1	NaN	151	3	25	2	121	221	321	NaN	521	0.30201322119683	1	1	NaN	4311776.7273838	NaN	4311777.7107899	4311778.22733568
63	25	0	0	90	36.1581920903955	36.241610738255	0	0	1	2	3	NaN	1	4	0.0463390450497508	1	1	NaN	152	3	26	2	111	211	311	NaN	511	0.261113268323243	1	1	NaN	4311779.3443025	NaN	4311780.3277104	4311780.84424763
63	25	0	0	90	36.1581920903955	36.241610738255	9	0.300019391924143	2	5	2	NaN	1	5	0.0463390450497508	1	1	NaN	153	3	27	2	121	221	321	NaN	521	0.325182768516243	1	1	NaN	4311781.9278906	NaN	4311782.9112928	4311783.42783683
63	25	0	0	90	36.1581920903955	36.241610738255	7	0.233348415941	2	12	4	NaN	2	3	0.0463390450497508	1	1	NaN	154	3	28	2	121	221	321	NaN	521	0.219552122056484	2	1	NaN	4311784.5615095	NaN	4311785.544875	4311786.06143718
63	25	0	0	90	36.1581920903955	36.241610738255	24	0.800051711797714	2	4	1	NaN	1	5	0.0463390450497508	1	1	NaN	155	3	29	2	121	221	321	NaN	521	0.26207232195884	1	1	NaN	4311787.0950659	NaN	4311788.0784681	4311788.59500888
63	25	0	0	90	36.1581920903955	36.241610738255	0	0	1	11	1	NaN	2	4	0.0463390450497508	1	1	NaN	156	3	30	2	111	211	311	NaN	511	0.238719669170678	2	1	NaN	4311789.6785082	NaN	4311790.6620496	4311791.17860483
63	25	0	0	90	36.1581920903955	36.241610738255	24	0.800051711797714	2	8	6	NaN	2	3	0.0463390450497508	1	1	NaN	157	3	31	2	121	221	321	NaN	521	0.168111773207784	2	1	NaN	4311792.2288965	NaN	4311793.2122997	4311793.72885833
63	25	0	0	90	36.1581920903955	36.241610738255	19	0.633374271839857	2	3	5	NaN	1	4	0.0463390450497508	1	1	NaN	158	3	32	2	121	221	321	NaN	521	0.268747463822365	2	0	NaN	4311794.7124715	NaN	4311795.6958745	4311796.21243014
63	25	0	0	90	36.1581920903955	36.241610738255	14	0.466696831882	2	5	5	NaN	1	3	0.0463390450497508	1	1	NaN	159	3	33	2	121	221	321	NaN	521	0.293363068252802	1	1	NaN	4311797.2960636	NaN	4311798.2794717	4311798.79601103
63	25	0	0	90	36.1581920903955	36.241610738255	14	0.466696831882	2	9	2	NaN	2	4	0.0463390450497508	1	1	NaN	160	3	34	2	121	221	321	NaN	521	1.292978416197	1	0	NaN	4311799.8963154	NaN	4311800.8797249	4311801.39627428
63	25	0	0	90	36.1581920903955	36.241610738255	14	0.466696831882	2	8	2	NaN	2	3	0.0463390450497508	1	1	NaN	161	3	35	2	121	221	321	NaN	521	0.260484368540347	2	1	NaN	4311803.4966705	NaN	4311804.4800736	4311804.99661463
63	25	0	0	90	36.1581920903955	36.241610738255	15	0.500032319873571	2	10	4	NaN	2	4	0.0463390450497508	1	1	NaN	162	3	36	2	121	221	321	NaN	521	0.181808290071785	2	1	NaN	4311806.0634918	NaN	4311807.0469902	4311807.56353961
63	25	0	0	90	36.1581920903955	36.241610738255	20	0.666709759831429	2	7	3	NaN	2	3	0.0463390450497508	1	1	NaN	163	3	37	2	121	221	321	NaN	521	0.433340769261122	2	1	NaN	4311808.5638262	NaN	4311809.5472262	4311810.06378913
63	25	0	0	90	36.1581920903955	36.241610738255	21	0.700045247823	2	10	1	NaN	2	5	0.0463390450497508	1	1	NaN	164	3	38	2	121	221	321	NaN	521	0.29138262104243	2	1	NaN	4311811.5140994	NaN	4311812.4975225	4311813.01407808
63	25	0	0	90	36.1581920903955	36.241610738255	17	0.566703295856714	2	12	5	NaN	2	5	0.0463390450497508	1	1	NaN	165	3	39	2	121	221	321	NaN	521	0.306652868166566	2	1	NaN	4311814.1143794	NaN	4311815.0977838	4311815.61435363
63	25	0	0	90	36.1581920903955	36.241610738255	17	0.566703295856714	2	1	2	NaN	1	5	0.0463390450497508	1	1	NaN	166	3	40	2	121	221	321	NaN	521	0.27404946833849	1	1	NaN	4311816.7313363	NaN	4311817.7146935	4311818.23124853
63	25	0	0	90	36.1581920903955	36.241610738255	18	0.600038783848286	2	11	1	NaN	2	3	0.0463390450497508	1	1	NaN	167	3	41	2	121	221	321	NaN	521	0.258580868132412	2	1	NaN	4311819.3148989	NaN	4311820.2982938	4311820.81483183
63	25	0	0	90	36.1581920903955	36.241610738255	14	0.466696831882	2	8	3	NaN	2	4	0.0463390450497508	1	1	NaN	168	3	42	2	121	221	321	NaN	521	0.235544021241367	2	1	NaN	4311821.881811	NaN	4311822.8652054	4311823.38176218
63	25	0	0	90	36.1581920903955	36.241610738255	20	0.666709759831429	2	7	6	NaN	2	3	0.0463390450497508	1	1	NaN	169	3	43	2	121	221	321	NaN	521	0.205225217156112	2	1	NaN	4311824.4320591	NaN	4311825.4154588	4311825.93201068
63	25	0	0	90	36.1581920903955	36.241610738255	7	0.233348415941	2	3	3	NaN	1	4	0.0463390450497508	1	1	NaN	170	3	44	2	121	221	321	NaN	521	0.248014774173498	1	1	NaN	4311826.9489702	NaN	4311827.9323626	4311828.44892333
63	25	0	0	90	36.1581920903955	36.241610738255	10	0.333354879915714	2	1	5	NaN	1	5	0.0463390450497508	1	1	NaN	171	3	45	2	121	221	321	NaN	521	0.401951421052217	2	0	NaN	4311829.4992451	NaN	4311830.4826204	4311830.99916398
63	25	0	0	90	36.1581920903955	36.241610738255	14	0.466696831882	2	10	5	NaN	2	3	0.0463390450497508	1	1	NaN	172	3	46	2	121	221	321	NaN	521	0.260944221168756	2	1	NaN	4311832.2161762	NaN	4311833.1995525	4311833.71610638
63	25	0	0	90	36.1581920903955	36.241610738255	19	0.633374271839857	2	2	6	NaN	1	3	0.0463390450497508	1	1	NaN	173	3	47	2	121	221	321	NaN	521	0.277980822138488	1	1	NaN	4311834.783091	NaN	4311835.7664711	4311836.28302498
63	25	0	0	90	36.1581920903955	36.241610738255	25	0.833387199789286	2	3	4	NaN	1	3	0.0463390450497508	1	1	NaN	174	3	48	2	121	221	321	NaN	521	0.294022873975337	1	1	NaN	4311837.3833111	NaN	4311838.3667596	4311838.88327823
63	25	0	0	90	36.1581920903955	36.241610738255	10	0.333354879915714	2	5	2	NaN	1	5	0.0463390450497508	1	1	NaN	175	3	49	2	121	221	321	NaN	521	0.475561216473579	1	1	NaN	4311840.0335993	NaN	4311841.0169878	4311841.53352838
63	25	0	0	90	36.1581920903955	36.241610738255	13	0.433361343890429	2	9	3	NaN	2	5	0.0463390450497508	1	1	NaN	176	3	50	2	121	221	321	NaN	521	0.316320837475359	2	1	NaN	4311842.8171767	NaN	4311843.8005801	4311844.31714436
63	25	0	0	90	36.1581920903955	36.241610738255	23	0.766716223806143	2	3	5	NaN	1	5	0.0463390450497508	1	1	NaN	177	3	51	2	121	221	321	NaN	521	0.418381921947002	1	1	NaN	4311845.4507764	NaN	4311846.4341913	4311846.95073838
63	25	0	0	90	36.1581920903955	36.241610738255	21	0.700045247823	2	11	6	NaN	2	3	0.0463390450497508	1	1	NaN	178	3	52	2	121	221	321	NaN	521	0.244921022094786	2	1	NaN	4311848.1843736	NaN	4311849.1677795	4311849.68433748
63	25	0	0	90	36.1581920903955	36.241610738255	22	0.733380735814571	2	9	4	NaN	2	4	0.0463390450497508	1	1	NaN	179	3	53	2	121	221	321	NaN	521	0.517421722412109	2	1	NaN	4311851.1679207	NaN	4311852.151363	4311852.66796158
63	25	0	0	90	36.1581920903955	36.241610738255	13	0.433361343890429	2	11	3	NaN	2	5	0.0463390450497508	1	1	NaN	180	3	54	2	121	221	321	NaN	521	0.26744442153722	2	1	NaN	4311854.0016148	NaN	4311854.9850127	4311855.50156908
63	25	0	0	90	36.1581920903955	36.241610738255	8	0.266683903932571	2	4	2	NaN	1	4	0.0463390450497508	1	1	NaN	181	3	55	2	121	221	321	NaN	521	0.244196168147027	1	1	NaN	4311856.585105	NaN	4311857.5686086	4311858.08515983
63	25	0	0	90	36.1581920903955	36.241610738255	7	0.233348415941	2	10	1	NaN	2	3	0.0463390450497508	1	1	NaN	182	3	56	2	121	221	321	NaN	521	0.245679621584713	2	1	NaN	4311859.1354544	NaN	4311860.1188541	4311860.63542768
63	25	0	0	90	36.1581920903955	36.241610738255	15	0.500032319873571	2	1	5	NaN	1	5	0.0463390450497508	1	1	NaN	183	3	57	2	121	221	321	NaN	521	0.27939202170819	1	1	NaN	4311861.6857187	NaN	4311862.6691335	4311863.18565838
63	25	0	0	90	36.1581920903955	36.241610738255	22	0.733380735814571	2	6	1	NaN	1	4	0.0463390450497508	1	1	NaN	184	3	58	2	121	221	321	NaN	521	0.311534453183413	1	1	NaN	4311864.2859609	NaN	4311865.2693805	4311865.78590725
63	25	0	0	90	36.1581920903955	36.241610738255	18	0.600038783848286	2	10	2	NaN	2	4	0.0463390450497508	1	1	NaN	185	3	59	2	121	221	321	NaN	521	0.333830268122256	2	1	NaN	4311866.9195507	NaN	4311867.902957	4311868.41949433
63	25	0	0	90	36.1581920903955	36.241610738255	11	0.366690367907286	2	9	5	NaN	2	4	0.0463390450497508	1	1	NaN	186	3	60	2	121	221	321	NaN	521	0.14774217363447	2	1	NaN	4311869.9697192	NaN	4311870.9532485	4311871.46980533
63	25	0	0	90	36.1581920903955	36.241610738255	14	0.466696831882	2	3	2	NaN	1	3	0.0463390450497508	1	1	NaN	187	3	61	2	121	221	321	NaN	521	0.472375942394137	1	1	NaN	4311872.4367694	NaN	4311873.4201625	4311873.93671826
63	25	0	0	90	36.1581920903955	36.241610738255	16	0.533367807865143	2	7	2	NaN	2	4	0.0463390450497508	1	1	NaN	188	3	62	2	121	221	321	NaN	521	0.297117421403527	2	1	NaN	4311875.2203687	NaN	4311876.2037579	4311876.72032008
63	25	0	0	90	36.1581920903955	36.241610738255	15	0.500032319873571	2	7	4	NaN	2	4	0.0463390450497508	1	1	NaN	189	3	63	2	121	221	321	NaN	521	0.480762421153486	2	1	NaN	4311877.8205045	NaN	4311878.8040148	4311879.32059198
63	25	0	0	90	36.1581920903955	36.241610738255	25	0.833387199789286	2	2	5	NaN	1	3	0.0463390450497508	1	1	NaN	190	4	1	2	121	221	321	NaN	521	0.785387179814279	2	0	NaN	4311907.5401959	NaN	4311908.5235986	4311909.04014752
63	25	0	0	90	36.1581920903955	36.241610738255	16	0.533367807865143	2	9	2	NaN	2	5	0.0463390450497508	1	1	NaN	191	4	2	2	121	221	321	NaN	521	0.779047721996903	1	0	NaN	4311910.8905029	NaN	4311911.8739053	4311912.39047968
63	25	0	0	90	36.1581920903955	36.241610738255	6	0.200012927949429	2	2	3	NaN	1	4	0.0463390450497508	1	1	NaN	192	4	3	2	121	221	321	NaN	521	0.286626668646932	1	1	NaN	4311913.9908512	NaN	4311914.9742343	4311915.49077263
63	25	0	0	90	36.1581920903955	36.241610738255	21	0.700045247823	2	12	6	NaN	2	3	0.0463390450497508	1	1	NaN	193	4	4	2	121	221	321	NaN	521	0.334298473782837	2	1	NaN	4311916.591073	NaN	4311917.574497	4311918.09104083
63	25	0	0	90	36.1581920903955	36.241610738255	6	0.200012927949429	2	5	4	NaN	1	5	0.0463390450497508	1	1	NaN	194	4	5	2	121	221	321	NaN	521	0.516405673697591	1	1	NaN	4311919.2246768	NaN	4311920.2080752	4311920.72462263
63	25	0	0	90	36.1581920903955	36.241610738255	19	0.633374271839857	2	11	2	NaN	2	3	0.0463390450497508	1	1	NaN	195	4	6	2	121	221	321	NaN	521	0.267344268970191	2	1	NaN	4311922.058312	NaN	4311923.0416835	4311923.55823613
63	25	0	0	90	36.1581920903955	36.241610738255	25	0.833387199789286	2	4	2	NaN	1	3	0.0463390450497508	1	1	NaN	196	4	7	2	121	221	321	NaN	521	0.435518363490701	1	1	NaN	4311924.6418666	NaN	4311925.6252855	4311926.14181814
63	25	0	0	90	36.1581920903955	36.241610738255	22	0.733380735814571	2	2	2	NaN	1	5	0.0463390450497508	1	1	NaN	197	4	8	2	121	221	321	NaN	521	0.238054821267724	1	1	NaN	4311927.5754748	NaN	4311928.5587878	4311929.07544228
63	25	0	0	90	36.1581920903955	36.241610738255	7	0.233348415941	2	10	6	NaN	2	5	0.0463390450497508	1	1	NaN	198	4	9	2	121	221	321	NaN	521	0.271779973991215	2	1	NaN	4311930.1257311	NaN	4311931.1091471	4311931.62569913
63	25	0	0	90	36.1581920903955	36.241610738255	11	0.366690367907286	2	2	4	NaN	1	4	0.0463390450497508	1	1	NaN	199	4	10	2	121	221	321	NaN	521	0.318031494505703	1	1	NaN	4311932.9592262	NaN	4311933.9427447	4311934.45931351
63	25	0	0	90	36.1581920903955	36.241610738255	21	0.700045247823	2	1	1	NaN	1	4	0.0463390450497508	1	1	NaN	200	4	11	2	121	221	321	NaN	521	0.340413821861148	1	1	NaN	4311935.792939	NaN	4311936.7763641	4311937.29292238
63	25	0	0	90	36.1581920903955	36.241610738255	13	0.433361343890429	2	5	3	NaN	1	5	0.0463390450497508	1	1	NaN	201	4	12	2	121	221	321	NaN	521	0.302547921426594	1	1	NaN	4311938.5265654	NaN	4311939.5099649	4311940.02651578
63	25	0	0	90	36.1581920903955	36.241610738255	11	0.366690367907286	2	9	2	NaN	2	5	0.0463390450497508	1	1	NaN	202	4	13	2	121	221	321	NaN	521	0.302217868156731	1	0	NaN	4311941.1435268	NaN	4311942.1268738	4311942.64344453
63	25	0	0	90	36.1581920903955	36.241610738255	20	0.666709759831429	2	8	4	NaN	2	3	0.0463390450497508	1	1	NaN	203	4	14	2	121	221	321	NaN	521	0.901175321079791	1	0	NaN	4311943.7604366	NaN	4311944.7438101	4311945.26036818
63	25	0	0	90	36.1581920903955	36.241610738255	0	0	1	5	5	NaN	1	5	0.0463390450497508	1	1	NaN	204	4	15	2	111	211	311	NaN	511	0.280998221598566	2	0	NaN	4311947.2440555	NaN	4311948.2274999	4311948.74403648
63	25	0	0	90	36.1581920903955	36.241610738255	6	0.200012927949429	2	11	4	NaN	2	5	0.0463390450497508	1	1	NaN	205	4	16	2	121	221	321	NaN	521	0.457656368613243	2	1	NaN	4311949.8276914	NaN	4311950.8110542	4311951.32762723
63	25	0	0	90	36.1581920903955	36.241610738255	7	0.233348415941	2	6	4	NaN	1	3	0.0463390450497508	1	1	NaN	206	4	17	2	121	221	321	NaN	521	0.266746016219258	1	1	NaN	4311952.5946455	NaN	4311953.5780184	4311954.09456438
63	25	0	0	90	36.1581920903955	36.241610738255	14	0.466696831882	2	7	2	NaN	2	4	0.0463390450497508	1	1	NaN	207	4	18	2	121	221	321	NaN	521	0.426457721740007	1	0	NaN	4311955.3948632	NaN	4311956.3783312	4311956.89484148
63	25	0	0	90	36.1581920903955	36.241610738255	25	0.833387199789286	2	6	4	NaN	1	4	0.0463390450497508	1	1	NaN	208	4	19	2	121	221	321	NaN	521	0.317122869193554	1	1	NaN	4311958.1284796	NaN	4311959.1118759	4311959.62845733
63	25	0	0	90	36.1581920903955	36.241610738255	19	0.633374271839857	2	2	5	NaN	1	4	0.0463390450497508	1	1	NaN	209	4	20	2	121	221	321	NaN	521	0.299294820986688	1	1	NaN	4311960.7620733	NaN	4311961.7454984	4311962.26203528
63	25	0	0	90	36.1581920903955	36.241610738255	17	0.566703295856714	2	7	5	NaN	2	5	0.0463390450497508	1	1	NaN	210	4	21	2	121	221	321	NaN	521	0.387875368818641	2	1	NaN	4311963.5456781	NaN	4311964.5290867	4311965.04563033
63	25	0	0	90	36.1581920903955	36.241610738255	25	0.833387199789286	2	5	3	NaN	1	4	0.0463390450497508	1	1	NaN	211	4	22	2	121	221	321	NaN	521	0.327655473724008	1	1	NaN	4311966.2459336	NaN	4311967.2293464	4311967.74590493
63	25	0	0	90	36.1581920903955	36.241610738255	17	0.566703295856714	2	1	6	NaN	1	5	0.0463390450497508	1	1	NaN	212	4	23	2	121	221	321	NaN	521	0.317680868320167	1	1	NaN	4311968.8795428	NaN	4311969.8629411	4311970.37948773
63	25	0	0	90	36.1581920903955	36.241610738255	17	0.566703295856714	2	2	6	NaN	1	4	0.0463390450497508	1	1	NaN	213	4	24	2	121	221	321	NaN	521	0.266538669355214	2	0	NaN	4311971.7465857	NaN	4311972.7298794	4311973.24644153
63	25	0	0	90	36.1581920903955	36.241610738255	23	0.766716223806143	2	8	3	NaN	2	5	0.0463390450497508	1	1	NaN	214	4	25	2	121	221	321	NaN	521	0.387236368842423	2	1	NaN	4311974.3300555	NaN	4311975.3134811	4311975.83002093
63	25	0	0	90	36.1581920903955	36.241610738255	24	0.800051711797714	2	6	6	NaN	1	5	0.0463390450497508	1	1	NaN	215	4	26	2	121	221	321	NaN	521	0.263100968673825	1	1	NaN	4311977.030336	NaN	4311978.0137437	4311978.53028583
63	25	0	0	90	36.1581920903955	36.241610738255	19	0.633374271839857	2	11	6	NaN	2	3	0.0463390450497508	1	1	NaN	216	4	27	2	121	221	321	NaN	521	0.287154716439545	2	1	NaN	4311979.6305846	NaN	4311980.6140063	4311981.13054558
63	25	0	0	90	36.1581920903955	36.241610738255	0	0	1	3	6	NaN	1	5	0.0463390450497508	1	1	NaN	217	4	28	2	111	211	311	NaN	511	0.310627020895481	2	0	NaN	4311982.2308473	NaN	4311983.214241	4311983.73080368
63	25	0	0	90	36.1581920903955	36.241610738255	21	0.700045247823	2	5	6	NaN	1	4	0.0463390450497508	1	1	NaN	218	4	29	2	121	221	321	NaN	521	0.277653373777866	1	1	NaN	4311984.847764	NaN	4311985.831174	4311986.34772103
63	25	0	0	90	36.1581920903955	36.241610738255	6	0.200012927949429	2	1	3	NaN	1	4	0.0463390450497508	1	1	NaN	219	4	30	2	121	221	321	NaN	521	0.27828982193023	1	1	NaN	4311987.4313575	NaN	4311988.4147596	4311988.93131198
63	25	0	0	90	36.1581920903955	36.241610738255	8	0.266683903932571	2	6	4	NaN	1	3	0.0463390450497508	1	1	NaN	220	4	31	2	121	221	321	NaN	521	0.34257152210921	1	1	NaN	4311990.0149441	NaN	4311990.9983619	4311991.51490058
63	25	0	0	90	36.1581920903955	36.241610738255	13	0.433361343890429	2	2	3	NaN	1	3	0.0463390450497508	1	1	NaN	221	4	32	2	121	221	321	NaN	521	0.355433821678162	1	1	NaN	4311992.6819014	NaN	4311993.6652689	4311994.18182688
63	25	0	0	90	36.1581920903955	36.241610738255	17	0.566703295856714	2	9	1	NaN	2	5	0.0463390450497508	1	1	NaN	222	4	33	2	121	221	321	NaN	521	0.400850268080831	1	0	NaN	4311995.3488086	NaN	4311996.3322034	4311996.84874863
63	25	0	0	90	36.1581920903955	36.241610738255	12	0.400025855898857	2	10	1	NaN	2	3	0.0463390450497508	1	1	NaN	223	4	34	2	121	221	321	NaN	521	0.251812241971493	2	1	NaN	4311998.0657284	NaN	4311999.049125	4311999.56569476
63	25	0	0	90	36.1581920903955	36.241610738255	9	0.300019391924143	2	9	2	NaN	2	4	0.0463390450497508	1	1	NaN	224	4	35	2	121	221	321	NaN	521	0.292639521881938	2	1	NaN	4312000.6326635	NaN	4312001.6162072	4312002.13260378
63	25	0	0	90	36.1581920903955	36.241610738255	12	0.400025855898857	2	2	4	NaN	1	3	0.0463390450497508	1	1	NaN	225	4	36	2	121	221	321	NaN	521	0.332498542964458	1	1	NaN	4312003.2328978	NaN	4312004.2163172	4312004.73285476
63	25	0	0	90	36.1581920903955	36.241610738255	10	0.333354879915714	2	8	4	NaN	2	3	0.0463390450497508	1	1	NaN	226	4	37	2	121	221	321	NaN	521	0.274237422272563	2	1	NaN	4312005.8831498	NaN	4312006.8665718	4312007.38311838
63	25	0	0	90	36.1581920903955	36.241610738255	24	0.800051711797714	2	4	5	NaN	1	3	0.0463390450497508	1	1	NaN	227	4	38	2	121	221	321	NaN	521	0.290643821470439	1	1	NaN	4312008.4667639	NaN	4312009.4501435	4312009.96672348
63	25	0	0	90	36.1581920903955	36.241610738255	20	0.666709759831429	2	1	2	NaN	1	4	0.0463390450497508	1	1	NaN	228	4	39	2	121	221	321	NaN	521	0.258750916458666	2	0	NaN	4312011.0669952	NaN	4312012.0503879	4312012.56695418
63	25	0	0	90	36.1581920903955	36.241610738255	19	0.633374271839857	2	12	4	NaN	2	5	0.0463390450497508	1	1	NaN	229	4	40	2	121	221	321	NaN	521	0.283325621858239	2	1	NaN	4312013.6339028	NaN	4312014.6173262	4312015.13387898
63	25	0	0	90	36.1581920903955	36.241610738255	23	0.766716223806143	2	2	4	NaN	1	5	0.0463390450497508	1	1	NaN	230	4	41	2	121	221	321	NaN	521	0.283376468345523	1	1	NaN	4312016.2341662	NaN	4312017.2175786	4312017.73413063
63	25	0	0	90	36.1581920903955	36.241610738255	0	0	1	2	3	NaN	1	4	0.0463390450497508	1	1	NaN	231	4	42	2	111	211	311	NaN	511	0.25901922211051	1	1	NaN	4312018.8344334	NaN	4312019.8178317	4312020.33439028
63	25	0	0	90	36.1581920903955	36.241610738255	15	0.500032319873571	2	3	5	NaN	1	5	0.0463390450497508	1	1	NaN	232	4	43	2	121	221	321	NaN	521	0.30809476878494	1	1	NaN	4312021.4012149	NaN	4312022.3847544	4312022.90129663
63	25	0	0	90	36.1581920903955	36.241610738255	8	0.266683903932571	2	11	6	NaN	2	4	0.0463390450497508	1	1	NaN	233	4	44	2	121	221	321	NaN	521	0.231832768768072	2	1	NaN	4312024.1016183	NaN	4312025.0850107	4312025.60156333
63	25	0	0	90	36.1581920903955	36.241610738255	9	0.300019391924143	2	10	3	NaN	2	5	0.0463390450497508	1	1	NaN	234	4	45	2	121	221	321	NaN	521	0.241802969016135	2	1	NaN	4312026.6518707	NaN	4312027.6352742	4312028.15181733
63	25	0	0	90	36.1581920903955	36.241610738255	6	0.200012927949429	2	10	4	NaN	2	3	0.0463390450497508	1	1	NaN	235	4	46	2	121	221	321	NaN	521	0.259200821630657	2	1	NaN	4312029.2019983	NaN	4312030.1855216	4312030.70206398
63	25	0	0	90	36.1581920903955	36.241610738255	8	0.266683903932571	2	5	4	NaN	1	4	0.0463390450497508	1	1	NaN	236	4	47	2	121	221	321	NaN	521	0.300730768591166	1	1	NaN	4312031.7691346	NaN	4312032.7524425	4312033.26898033
63	25	0	0	90	36.1581920903955	36.241610738255	0	0	1	10	4	NaN	2	5	0.0463390450497508	1	1	NaN	237	4	48	2	111	211	311	NaN	511	0.251472621224821	2	1	NaN	4312034.3859609	NaN	4312035.3693589	4312035.88591278
63	25	0	0	90	36.1581920903955	36.241610738255	0	0	1	8	5	NaN	2	3	0.0463390450497508	1	1	NaN	238	4	49	2	111	211	311	NaN	511	0.250778921879828	1	0	NaN	4312037.2028628	NaN	4312038.1862988	4312038.70285298
63	25	0	0	90	36.1581920903955	36.241610738255	24	0.800051711797714	2	6	3	NaN	1	5	0.0463390450497508	1	1	NaN	239	4	50	2	121	221	321	NaN	521	0.323985921218991	1	1	NaN	4312039.769677	NaN	4312040.7532202	4312041.26977458
63	25	0	0	90	36.1581920903955	36.241610738255	10	0.333354879915714	2	7	4	NaN	2	4	0.0463390450497508	1	1	NaN	240	4	51	2	121	221	321	NaN	521	0.236985821276903	2	1	NaN	4312042.9368324	NaN	4312043.9201839	4312044.43674848
63	25	0	0	90	36.1581920903955	36.241610738255	13	0.433361343890429	2	2	2	NaN	1	5	0.0463390450497508	1	1	NaN	241	4	52	2	121	221	321	NaN	521	0.306719474494457	2	0	NaN	4312045.5870362	NaN	4312046.5704528	4312047.08701193
63	25	0	0	90	36.1581920903955	36.241610738255	11	0.366690367907286	2	6	1	NaN	1	5	0.0463390450497508	1	1	NaN	242	4	53	2	121	221	321	NaN	521	0.332685068249702	1	1	NaN	4312048.3206282	NaN	4312049.3040466	4312049.82061153
63	25	0	0	90	36.1581920903955	36.241610738255	25	0.833387199789286	2	1	1	NaN	1	3	0.0463390450497508	1	1	NaN	243	4	54	2	121	221	321	NaN	521	0.466577522456646	2	0	NaN	4312050.9709127	NaN	4312051.9543089	4312052.47086118
63	25	0	0	90	36.1581920903955	36.241610738255	6	0.200012927949429	2	7	6	NaN	2	5	0.0463390450497508	1	1	NaN	244	4	55	2	121	221	321	NaN	521	0.319507116451859	2	1	NaN	4312053.8377434	NaN	4312054.8213131	4312055.33781948
63	25	0	0	90	36.1581920903955	36.241610738255	16	0.533367807865143	2	7	2	NaN	2	4	0.0463390450497508	1	1	NaN	245	4	56	2	121	221	321	NaN	521	0.326381121762097	2	1	NaN	4312056.4714538	NaN	4312057.4548546	4312057.97141178
63	25	0	0	90	36.1581920903955	36.241610738255	8	0.266683903932571	2	4	3	NaN	1	4	0.0463390450497508	1	1	NaN	246	4	57	2	121	221	321	NaN	521	1.03675322141498	1	1	NaN	4312059.1049379	NaN	4312060.0884515	4312060.60499848
63	25	0	0	90	36.1581920903955	36.241610738255	11	0.366690367907286	2	12	2	NaN	2	5	0.0463390450497508	1	1	NaN	247	4	58	2	121	221	321	NaN	521	0.654044868424535	2	1	NaN	4312062.4553718	NaN	4312063.4387995	4312063.95532583
63	25	0	0	90	36.1581920903955	36.241610738255	16	0.533367807865143	2	5	1	NaN	1	3	0.0463390450497508	1	1	NaN	248	4	59	2	121	221	321	NaN	521	0.263111969456077	1	1	NaN	4312065.4223294	NaN	4312066.4057359	4312066.92227743
63	25	0	0	90	36.1581920903955	36.241610738255	25	0.833387199789286	2	1	3	NaN	1	5	0.0463390450497508	1	1	NaN	249	4	60	2	121	221	321	NaN	521	0.280501822009683	1	1	NaN	4312067.9892506	NaN	4312068.9726446	4312069.48919818
63	25	0	0	90	36.1581920903955	36.241610738255	17	0.566703295856714	2	8	1	NaN	2	4	0.0463390450497508	1	1	NaN	250	4	61	2	121	221	321	NaN	521	0.352338468655944	2	1	NaN	4312070.5894997	NaN	4312071.5729033	4312072.08945293
63	25	0	0	90	36.1581920903955	36.241610738255	0	0	1	9	5	NaN	2	4	0.0463390450497508	1	1	NaN	251	4	62	2	111	211	311	NaN	511	1.97339309565723	1	0	NaN	4312073.256452	NaN	4312074.2398288	4312074.7563947
63	25	0	0	90	36.1581920903955	36.241610738255	23	0.766716223806143	2	10	6	NaN	2	5	0.0463390450497508	1	1	NaN	252	4	63	2	121	221	321	NaN	521	0.265463484451175	2	1	NaN	4312077.5401717	NaN	4312078.5235859	4312079.04013272
63	25	0	0	90	36.1581920903955	36.241610738255	18	0.600038783848286	2	12	3	NaN	2	5	0.0463390450497508	1	1	NaN	253	5	1	2	121	221	321	NaN	521	0.516250416636467	2	1	NaN	4312090.4414018	NaN	4312091.4248315	4312091.94139988
63	25	0	0	90	36.1581920903955	36.241610738255	6	0.200012927949429	2	5	3	NaN	1	5	0.0463390450497508	1	1	NaN	254	5	2	2	121	221	321	NaN	521	0.298542021773756	1	1	NaN	4312093.2750577	NaN	4312094.2584653	4312094.77501758
63	25	0	0	90	36.1581920903955	36.241610738255	25	0.833387199789286	2	7	1	NaN	2	4	0.0463390450497508	1	1	NaN	255	5	3	2	121	221	321	NaN	521	0.313608221709728	2	1	NaN	4312095.8919749	NaN	4312096.8753782	4312097.39193838
63	25	0	0	90	36.1581920903955	36.241610738255	20	0.666709759831429	2	5	5	NaN	1	5	0.0463390450497508	1	1	NaN	256	5	4	2	121	221	321	NaN	521	0.319537521339953	1	1	NaN	4312098.7423098	NaN	4312099.725653	4312100.24221188
63	25	0	0	90	36.1581920903955	36.241610738255	19	0.633374271839857	2	6	5	NaN	1	5	0.0463390450497508	1	1	NaN	257	5	5	2	121	221	321	NaN	521	0.317565068602562	1	1	NaN	4312101.3758455	NaN	4312102.3592594	4312102.87580273
63	25	0	0	90	36.1581920903955	36.241610738255	9	0.300019391924143	2	6	3	NaN	1	4	0.0463390450497508	1	1	NaN	258	5	6	2	121	221	321	NaN	521	0.276473421603441	1	1	NaN	4312104.0094557	NaN	4312104.9928557	4312105.50940298
63	25	0	0	90	36.1581920903955	36.241610738255	11	0.366690367907286	2	7	3	NaN	2	3	0.0463390450497508	1	1	NaN	259	5	7	2	121	221	321	NaN	521	0.332536268047988	2	1	NaN	4312106.5930243	NaN	4312107.5764214	4312108.09298253
63	25	0	0	90	36.1581920903955	36.241610738255	24	0.800051711797714	2	8	3	NaN	2	4	0.0463390450497508	1	1	NaN	260	5	8	2	121	221	321	NaN	521	0.29023562092334	2	1	NaN	4312109.2433235	NaN	4312110.2266924	4312110.74324738
63	25	0	0	90	36.1581920903955	36.241610738255	23	0.766716223806143	2	9	5	NaN	2	4	0.0463390450497508	1	1	NaN	261	5	9	2	121	221	321	NaN	521	0.373538168147206	2	1	NaN	4312111.9600935	NaN	4312112.9436231	4312113.46017103
63	25	0	0	90	36.1581920903955	36.241610738255	8	0.266683903932571	2	11	6	NaN	2	4	0.0463390450497508	1	1	NaN	262	5	10	2	121	221	321	NaN	521	0.313648820854723	1	0	NaN	4312114.64368	NaN	4312115.6272254	4312116.14377608
63	25	0	0	90	36.1581920903955	36.241610738255	6	0.200012927949429	2	1	5	NaN	1	4	0.0463390450497508	1	1	NaN	263	5	11	2	121	221	321	NaN	521	0.36885526869446	2	0	NaN	4312117.260749	NaN	4312118.2441224	4312118.76069633
63	25	0	0	90	36.1581920903955	36.241610738255	9	0.300019391924143	2	3	3	NaN	1	4	0.0463390450497508	1	1	NaN	264	5	12	2	121	221	321	NaN	521	0.277224521152675	1	1	NaN	4312119.9443368	NaN	4312120.9277401	4312121.44429828
63	25	0	0	90	36.1581920903955	36.241610738255	17	0.566703295856714	2	3	6	NaN	1	5	0.0463390450497508	1	1	NaN	265	5	13	2	121	221	321	NaN	521	0.340945068746805	1	1	NaN	4312122.5445951	NaN	4312123.5279932	4312124.04454173
63	25	0	0	90	36.1581920903955	36.241610738255	16	0.533367807865143	2	2	6	NaN	1	4	0.0463390450497508	1	1	NaN	266	5	14	2	121	221	321	NaN	521	0.299137621186674	1	1	NaN	4312125.1948591	NaN	4312126.1782558	4312126.69481058
63	25	0	0	90	36.1581920903955	36.241610738255	23	0.766716223806143	2	3	1	NaN	1	5	0.0463390450497508	1	1	NaN	267	5	15	2	121	221	321	NaN	521	0.25873776897788	1	1	NaN	4312127.7950139	NaN	4312128.778509	4312129.29505603
63	25	0	0	90	36.1581920903955	36.241610738255	14	0.466696831882	2	11	5	NaN	2	5	0.0463390450497508	1	1	NaN	268	5	16	2	121	221	321	NaN	521	0.266904221847653	2	1	NaN	4312130.3786952	NaN	4312131.3621017	4312131.87865118
63	25	0	0	90	36.1581920903955	36.241610738255	21	0.700045247823	2	6	5	NaN	1	4	0.0463390450497508	1	1	NaN	269	5	17	2	121	221	321	NaN	521	0.275250968523324	2	0	NaN	4312132.9622864	NaN	4312133.9456875	4312134.46223023
63	25	0	0	90	36.1581920903955	36.241610738255	17	0.566703295856714	2	3	2	NaN	1	3	0.0463390450497508	1	1	NaN	270	5	18	2	121	221	321	NaN	521	0.260041967965662	2	0	NaN	4312135.5458295	NaN	4312136.5292513	4312137.04581693
63	25	0	0	90	36.1581920903955	36.241610738255	6	0.200012927949429	2	7	1	NaN	2	4	0.0463390450497508	1	1	NaN	271	5	19	2	121	221	321	NaN	521	0.269190968945622	2	1	NaN	4312138.1126826	NaN	4312139.096201	4312139.61274083
63	25	0	0	90	36.1581920903955	36.241610738255	17	0.566703295856714	2	9	3	NaN	2	3	0.0463390450497508	1	1	NaN	272	5	20	2	121	221	321	NaN	521	0.397285321727395	2	1	NaN	4312140.6963817	NaN	4312141.6797878	4312142.19632988
63	25	0	0	90	36.1581920903955	36.241610738255	15	0.500032319873571	2	11	6	NaN	2	3	0.0463390450497508	1	1	NaN	273	5	21	2	121	221	321	NaN	521	0.384226468391716	2	1	NaN	4312143.4132368	NaN	4312144.3967037	4312144.91327773
63	25	0	0	90	36.1581920903955	36.241610738255	21	0.700045247823	2	11	3	NaN	2	4	0.0463390450497508	1	1	NaN	274	5	22	2	121	221	321	NaN	521	0.31591032166034	2	1	NaN	4312146.1135603	NaN	4312147.0969727	4312147.61351938
63	25	0	0	90	36.1581920903955	36.241610738255	23	0.766716223806143	2	1	5	NaN	1	5	0.0463390450497508	1	1	NaN	275	5	23	2	121	221	321	NaN	521	0.0103985220193863	1	1	NaN	4312148.7471548	NaN	4312149.7305661	4312150.24711678
63	25	0	0	90	36.1581920903955	36.241610738255	25	0.833387199789286	2	5	5	NaN	1	4	0.0463390450497508	1	1	NaN	276	5	24	2	121	221	321	NaN	521	0.281619968824089	1	1	NaN	4312151.164054	NaN	4312152.1474567	4312152.66401213
63	25	0	0	90	36.1581920903955	36.241610738255	22	0.733380735814571	2	1	6	NaN	1	4	0.0463390450497508	1	1	NaN	277	5	25	2	121	221	321	NaN	521	0.369575068354607	2	0	NaN	4312153.7643089	NaN	4312154.7477253	4312155.26427433
63	25	0	0	90	36.1581920903955	36.241610738255	0	0	1	4	3	NaN	1	5	0.0463390450497508	1	1	NaN	278	5	26	2	111	211	311	NaN	511	0.341008269228041	1	1	NaN	4312156.8645331	NaN	4312157.848018	4312158.36457023
63	25	0	0	90	36.1581920903955	36.241610738255	13	0.433361343890429	2	8	6	NaN	2	4	0.0463390450497508	1	1	NaN	279	5	27	2	121	221	321	NaN	521	0.266649268567562	2	1	NaN	4312159.5148885	NaN	4312160.4982723	4312161.01483373
63	25	0	0	90	36.1581920903955	36.241610738255	7	0.233348415941	2	4	6	NaN	1	4	0.0463390450497508	1	1	NaN	280	5	28	2	121	221	321	NaN	521	0.267295422032475	1	1	NaN	4312162.0984652	NaN	4312163.0818668	4312163.59842778
63	25	0	0	90	36.1581920903955	36.241610738255	0	0	1	9	4	NaN	2	4	0.0463390450497508	1	1	NaN	281	5	29	2	111	211	311	NaN	511	0.348220015875995	2	1	NaN	4312164.6654341	NaN	4312165.6487891	4312166.16534218
63	25	0	0	90	36.1581920903955	36.241610738255	13	0.433361343890429	2	8	2	NaN	2	3	0.0463390450497508	1	1	NaN	282	5	30	2	121	221	321	NaN	521	0.225346268154681	2	1	NaN	4312167.3324252	NaN	4312168.3157144	4312168.83226613
63	25	0	0	90	36.1581920903955	36.241610738255	7	0.233348415941	2	2	1	NaN	1	5	0.0463390450497508	1	1	NaN	283	5	31	2	121	221	321	NaN	521	0.318023168481886	2	0	NaN	4312170.2158098	NaN	4312171.1993332	4312171.71587983
63	25	0	0	90	36.1581920903955	36.241610738255	18	0.600038783848286	2	5	1	NaN	1	4	0.0463390450497508	1	1	NaN	284	5	32	2	121	221	321	NaN	521	0.396370521746576	1	1	NaN	4312172.8495233	NaN	4312173.8329248	4312174.34947978
63	25	0	0	90	36.1581920903955	36.241610738255	8	0.266683903932571	2	6	6	NaN	1	4	0.0463390450497508	1	1	NaN	285	5	33	2	121	221	321	NaN	521	0.23590762168169	1	1	NaN	4312175.6498277	NaN	4312176.633199	4312177.14974348
63	25	0	0	90	36.1581920903955	36.241610738255	9	0.300019391924143	2	7	1	NaN	2	5	0.0463390450497508	1	1	NaN	286	5	34	2	121	221	321	NaN	521	0.24593192152679	2	1	NaN	4312178.2000488	NaN	4312179.183457	4312179.70000388
63	25	0	0	90	36.1581920903955	36.241610738255	0	0	1	4	1	NaN	1	4	0.0463390450497508	1	1	NaN	287	5	35	2	111	211	311	NaN	511	0.334567731246352	1	1	NaN	4312180.7669573	NaN	4312181.7503955	4312182.26692007
63	25	0	0	90	36.1581920903955	36.241610738255	24	0.800051711797714	2	7	5	NaN	2	3	0.0463390450497508	1	1	NaN	288	5	36	2	121	221	321	NaN	521	0.42098752129823	1	0	NaN	4312183.4005696	NaN	4312184.3839587	4312184.90051328
63	25	0	0	90	36.1581920903955	36.241610738255	17	0.566703295856714	2	4	1	NaN	1	3	0.0463390450497508	1	1	NaN	289	5	37	2	121	221	321	NaN	521	0.303477821871638	2	0	NaN	4312186.1341611	NaN	4312187.1175866	4312187.63411738
63	25	0	0	90	36.1581920903955	36.241610738255	10	0.333354879915714	2	3	1	NaN	1	4	0.0463390450497508	1	1	NaN	290	5	38	2	121	221	321	NaN	521	0.246890721842647	1	1	NaN	4312188.7510805	NaN	4312189.7344762	4312190.25102798
63	25	0	0	90	36.1581920903955	36.241610738255	7	0.233348415941	2	9	4	NaN	2	4	0.0463390450497508	1	1	NaN	291	5	39	2	121	221	321	NaN	521	0.304054321721196	2	1	NaN	4312191.3180015	NaN	4312192.3014203	4312192.81795588
63	25	0	0	90	36.1581920903955	36.241610738255	9	0.300019391924143	2	7	2	NaN	2	3	0.0463390450497508	1	1	NaN	292	5	40	2	121	221	321	NaN	521	0.259054121561348	2	1	NaN	4312194.2348469	NaN	4312195.2183544	4312195.73490818
63	25	0	0	90	36.1581920903955	36.241610738255	21	0.700045247823	2	3	3	NaN	1	3	0.0463390450497508	1	1	NaN	293	5	41	2	121	221	321	NaN	521	0.268082622438669	1	1	NaN	4312196.8018715	NaN	4312197.7852787	4312198.30182918
63	25	0	0	90	36.1581920903955	36.241610738255	9	0.300019391924143	2	8	6	NaN	2	4	0.0463390450497508	1	1	NaN	294	5	42	2	121	221	321	NaN	521	0.252459321171045	2	1	NaN	4312199.3854785	NaN	4312200.3688598	4312200.88541388
63	25	0	0	90	36.1581920903955	36.241610738255	24	0.800051711797714	2	2	2	NaN	1	5	0.0463390450497508	1	1	NaN	295	5	43	2	121	221	321	NaN	521	0.269294221885502	1	1	NaN	4312201.9523614	NaN	4312202.9357774	4312203.45232578
63	25	0	0	90	36.1581920903955	36.241610738255	18	0.600038783848286	2	2	5	NaN	1	5	0.0463390450497508	1	1	NaN	296	5	44	2	121	221	321	NaN	521	0.29352352116257	1	1	NaN	4312204.5360503	NaN	4312205.5193629	4312206.03591798
63	25	0	0	90	36.1581920903955	36.241610738255	15	0.500032319873571	2	3	2	NaN	1	3	0.0463390450497508	1	1	NaN	297	5	45	2	121	221	321	NaN	521	0.269590669311583	1	1	NaN	4312207.1362146	NaN	4312208.1196275	4312208.63616003
63	25	0	0	90	36.1581920903955	36.241610738255	24	0.800051711797714	2	1	3	NaN	1	3	0.0463390450497508	1	1	NaN	298	5	46	2	121	221	321	NaN	521	0.27007642108947	1	1	NaN	4312209.719785	NaN	4312210.703263	4312211.21975968
63	25	0	0	90	36.1581920903955	36.241610738255	21	0.700045247823	2	1	4	NaN	1	3	0.0463390450497508	1	1	NaN	299	5	47	2	121	221	321	NaN	521	0.238587821833789	1	1	NaN	4312212.3033763	NaN	4312213.2867914	4312213.80334278
63	25	0	0	90	36.1581920903955	36.241610738255	13	0.433361343890429	2	10	3	NaN	2	5	0.0463390450497508	1	1	NaN	300	5	48	2	121	221	321	NaN	521	0.31216006912291	2	1	NaN	4312214.8536319	NaN	4312215.8370409	4312216.35358873
63	25	0	0	90	36.1581920903955	36.241610738255	19	0.633374271839857	2	3	3	NaN	1	5	0.0463390450497508	1	1	NaN	301	5	49	2	121	221	321	NaN	521	0.303220269270241	1	1	NaN	4312217.4705674	NaN	4312218.4539643	4312218.97051913
63	25	0	0	90	36.1581920903955	36.241610738255	14	0.466696831882	2	11	2	NaN	2	5	0.0463390450497508	1	1	NaN	302	5	50	2	121	221	321	NaN	521	0.366694568656385	2	1	NaN	4312220.0874807	NaN	4312221.0708935	4312221.58743403
63	25	0	0	90	36.1581920903955	36.241610738255	9	0.300019391924143	2	1	4	NaN	1	4	0.0463390450497508	1	1	NaN	303	5	51	2	121	221	321	NaN	521	0.302502368576825	1	1	NaN	4312223.0711002	NaN	4312224.0545125	4312224.57105503
63	25	0	0	90	36.1581920903955	36.241610738255	24	0.800051711797714	2	3	6	NaN	1	3	0.0463390450497508	1	1	NaN	304	5	52	2	121	221	321	NaN	521	0.277782121673226	1	1	NaN	4312225.6880528	NaN	4312226.671438	4312227.18799228
63	25	0	0	90	36.1581920903955	36.241610738255	24	0.800051711797714	2	1	1	NaN	1	5	0.0463390450497508	1	1	NaN	305	5	53	2	121	221	321	NaN	521	0.360559368506074	1	1	NaN	4312228.6049691	NaN	4312229.5883975	4312230.10494273
63	25	0	0	90	36.1581920903955	36.241610738255	15	0.500032319873571	2	12	4	NaN	2	5	0.0463390450497508	1	1	NaN	306	5	54	2	121	221	321	NaN	521	0.533792121335864	2	1	NaN	4312231.2719853	NaN	4312232.2553144	4312232.77187228
63	25	0	0	90	36.1581920903955	36.241610738255	8	0.266683903932571	2	10	4	NaN	2	3	0.0463390450497508	1	1	NaN	307	5	55	2	121	221	321	NaN	521	0.271127121523023	1	0	NaN	4312234.238872	NaN	4312235.22227	4312235.73882628
63	25	0	0	90	36.1581920903955	36.241610738255	7	0.233348415941	2	2	3	NaN	1	3	0.0463390450497508	1	1	NaN	308	5	56	2	121	221	321	NaN	521	0.223453069105744	1	1	NaN	4312236.8224573	NaN	4312237.8058813	4312238.32240683
63	25	0	0	90	36.1581920903955	36.241610738255	23	0.766716223806143	2	4	6	NaN	1	5	0.0463390450497508	1	1	NaN	309	5	57	2	121	221	321	NaN	521	0.424411721527576	2	0	NaN	4312239.389262	NaN	4312240.372778	4312240.88933428
63	25	0	0	90	36.1581920903955	36.241610738255	20	0.666709759831429	2	4	4	NaN	1	4	0.0463390450497508	1	1	NaN	310	5	58	2	121	221	321	NaN	521	0.282819022424519	2	0	NaN	4312242.1229731	NaN	4312243.1063901	4312243.62293488
63	25	0	0	90	36.1581920903955	36.241610738255	24	0.800051711797714	2	10	6	NaN	2	5	0.0463390450497508	1	1	NaN	311	5	59	2	121	221	321	NaN	521	0.272645321674645	2	1	NaN	4312244.9732338	NaN	4312245.9566749	4312246.47320728
63	25	0	0	90	36.1581920903955	36.241610738255	18	0.600038783848286	2	6	1	NaN	1	5	0.0463390450497508	1	1	NaN	312	5	60	2	121	221	321	NaN	521	6.40122626908123	2	0	NaN	4312247.7403274	NaN	4312248.7236282	4312249.24014323
63	25	0	0	90	36.1581920903955	36.241610738255	13	0.433361343890429	2	6	3	NaN	1	5	0.0463390450497508	1	1	NaN	313	5	61	2	121	221	321	NaN	521	0.289494122378528	1	1	NaN	4312256.524481	NaN	4312257.5077859	4312258.02434708
63	25	0	0	90	36.1581920903955	36.241610738255	9	0.300019391924143	2	4	5	NaN	1	5	0.0463390450497508	1	1	NaN	314	5	62	2	121	221	321	NaN	521	0.274461422115564	1	1	NaN	4312259.4913736	NaN	4312260.4747451	4312260.99130278
63	25	0	0	90	36.1581920903955	36.241610738255	22	0.733380735814571	2	7	2	NaN	2	3	0.0463390450497508	1	1	NaN	315	5	63	2	121	221	321	NaN	521	0.158241268247366	2	1	NaN	4312262.1914874	NaN	4312263.1750199	4312263.69156413
63	25	0	0	90	36.1581920903955	36.241610738255	18	0.600038783848286	2	5	1	NaN	1	5	0.0463390450497508	1	1	NaN	316	6	1	2	121	221	321	NaN	521	0.545599732547998	2	0	NaN	4312281.8602173	NaN	4312282.8436155	4312283.36016617
63	25	0	0	90	36.1581920903955	36.241610738255	19	0.633374271839857	2	5	3	NaN	1	4	0.0463390450497508	1	1	NaN	317	6	2	2	121	221	321	NaN	521	0.405347822234035	2	0	NaN	4312284.9605216	NaN	4312285.943907	4312286.46046618
63	25	0	0	90	36.1581920903955	36.241610738255	22	0.733380735814571	2	10	3	NaN	2	3	0.0463390450497508	1	1	NaN	318	6	3	2	121	221	321	NaN	521	0.472231168299913	2	1	NaN	4312287.6774292	NaN	4312288.6608269	4312289.17738713
63	25	0	0	90	36.1581920903955	36.241610738255	12	0.400025855898857	2	11	2	NaN	2	3	0.0463390450497508	1	1	NaN	319	6	4	2	121	221	321	NaN	521	0.296700868755579	2	1	NaN	4312290.4610417	NaN	4312291.4444675	4312291.96100053
63	25	0	0	90	36.1581920903955	36.241610738255	15	0.500032319873571	2	5	3	NaN	1	3	0.0463390450497508	1	1	NaN	320	6	5	2	121	221	321	NaN	521	0.31256396882236	1	1	NaN	4312293.0612998	NaN	4312294.0447041	4312294.56125243
63	25	0	0	90	36.1581920903955	36.241610738255	10	0.333354879915714	2	1	2	NaN	1	4	0.0463390450497508	1	1	NaN	321	6	6	2	121	221	321	NaN	521	0.513596868142486	1	1	NaN	4312295.8282198	NaN	4312296.8116393	4312297.32818993
63	25	0	0	90	36.1581920903955	36.241610738255	16	0.533367807865143	2	12	6	NaN	2	3	0.0463390450497508	1	1	NaN	322	6	7	2	121	221	321	NaN	521	0.304012321867049	2	1	NaN	4312298.6617046	NaN	4312299.6452671	4312300.16180838
63	25	0	0	90	36.1581920903955	36.241610738255	17	0.566703295856714	2	4	5	NaN	1	4	0.0463390450497508	1	1	NaN	323	6	8	2	121	221	321	NaN	521	0.239318021573126	2	0	NaN	4312301.2787775	NaN	4312302.2621854	4312302.77873258
63	25	0	0	90	36.1581920903955	36.241610738255	10	0.333354879915714	2	6	4	NaN	1	4	0.0463390450497508	1	1	NaN	324	6	9	2	121	221	321	NaN	521	0.280896668322384	2	0	NaN	4312303.8290397	NaN	4312304.8124288	4312305.32897633
63	25	0	0	90	36.1581920903955	36.241610738255	22	0.733380735814571	2	12	2	NaN	2	4	0.0463390450497508	1	1	NaN	325	6	10	2	121	221	321	NaN	521	0.256515721790493	2	1	NaN	4312306.4292903	NaN	4312307.4126812	4312307.92923798
63	25	0	0	90	36.1581920903955	36.241610738255	21	0.700045247823	2	7	6	NaN	2	3	0.0463390450497508	1	1	NaN	326	6	11	2	121	221	321	NaN	521	0.273607421666384	2	1	NaN	4312308.9962237	NaN	4312309.9795976	4312310.49615188
63	25	0	0	90	36.1581920903955	36.241610738255	23	0.766716223806143	2	11	6	NaN	2	4	0.0463390450497508	1	1	NaN	327	6	12	2	121	221	321	NaN	521	0.321898468770087	2	1	NaN	4312311.5796838	NaN	4312312.5631834	4312313.07973093
63	25	0	0	90	36.1581920903955	36.241610738255	19	0.633374271839857	2	4	3	NaN	1	3	0.0463390450497508	1	1	NaN	328	6	13	2	121	221	321	NaN	521	0.312475268729031	1	1	NaN	4312314.2133714	NaN	4312315.1967874	4312315.71334813
63	25	0	0	90	36.1581920903955	36.241610738255	22	0.733380735814571	2	3	6	NaN	1	5	0.0463390450497508	1	1	NaN	329	6	14	2	121	221	321	NaN	521	0.263551621697843	1	1	NaN	4312316.8302993	NaN	4312317.8136983	4312318.33025508
63	25	0	0	90	36.1581920903955	36.241610738255	18	0.600038783848286	2	7	4	NaN	2	5	0.0463390450497508	1	1	NaN	330	6	15	2	121	221	321	NaN	521	0.384592968039215	1	0	NaN	4312319.3972328	NaN	4312320.3806341	4312320.89717103
63	25	0	0	90	36.1581920903955	36.241610738255	6	0.200012927949429	2	6	2	NaN	1	4	0.0463390450497508	1	1	NaN	331	6	16	2	121	221	321	NaN	521	0.260474221780896	1	1	NaN	4312322.0974999	NaN	4312323.0808939	4312323.59744968
63	25	0	0	90	36.1581920903955	36.241610738255	18	0.600038783848286	2	2	6	NaN	1	3	0.0463390450497508	1	1	NaN	332	6	17	2	121	221	321	NaN	521	0.26935366820544	1	1	NaN	4312324.6644043	NaN	4312325.6478058	4312326.16434763
63	25	0	0	90	36.1581920903955	36.241610738255	8	0.266683903932571	2	10	4	NaN	2	5	0.0463390450497508	1	1	NaN	333	6	18	2	121	221	321	NaN	521	0.264842221513391	2	1	NaN	4312327.3813099	NaN	4312328.3647406	4312328.88129088
63	25	0	0	90	36.1581920903955	36.241610738255	13	0.433361343890429	2	1	4	NaN	1	4	0.0463390450497508	1	1	NaN	334	6	19	2	121	221	321	NaN	521	0.28123792167753	1	1	NaN	4312329.9649269	NaN	4312330.9483219	4312331.46487748
63	25	0	0	90	36.1581920903955	36.241610738255	17	0.566703295856714	2	6	6	NaN	1	4	0.0463390450497508	1	1	NaN	335	6	20	2	121	221	321	NaN	521	0.288631768897176	1	1	NaN	4312332.5651707	NaN	4312333.5485707	4312334.06512033
63	25	0	0	90	36.1581920903955	36.241610738255	6	0.200012927949429	2	10	5	NaN	2	4	0.0463390450497508	1	1	NaN	336	6	21	2	121	221	321	NaN	521	0.271603422239423	2	1	NaN	4312335.182104	NaN	4312336.1654988	4312336.68205308
63	25	0	0	90	36.1581920903955	36.241610738255	18	0.600038783848286	2	11	1	NaN	2	3	0.0463390450497508	1	1	NaN	337	6	22	2	121	221	321	NaN	521	0.256573921069503	2	1	NaN	4312337.7656833	NaN	4312338.7490816	4312339.26563328
63	25	0	0	90	36.1581920903955	36.241610738255	15	0.500032319873571	2	10	5	NaN	2	5	0.0463390450497508	1	1	NaN	338	6	23	2	121	221	321	NaN	521	0.361678668297827	2	1	NaN	4312340.3326032	NaN	4312341.3159758	4312341.83255183
63	25	0	0	90	36.1581920903955	36.241610738255	18	0.600038783848286	2	8	2	NaN	2	5	0.0463390450497508	1	1	NaN	339	6	24	2	121	221	321	NaN	521	0.278411021456122	2	1	NaN	4312342.9995227	NaN	4312343.9829167	4312344.49948718
63	25	0	0	90	36.1581920903955	36.241610738255	16	0.533367807865143	2	1	2	NaN	1	4	0.0463390450497508	1	1	NaN	340	6	25	2	121	221	321	NaN	521	0.350793968886137	1	1	NaN	4312345.5832146	NaN	4312346.5665192	4312347.08306283
63	25	0	0	90	36.1581920903955	36.241610738255	11	0.366690367907286	2	5	5	NaN	1	4	0.0463390450497508	1	1	NaN	341	6	26	2	121	221	321	NaN	521	0.413832121528685	1	1	NaN	4312348.4000666	NaN	4312349.3834545	4312349.90001718
63	25	0	0	90	36.1581920903955	36.241610738255	20	0.666709759831429	2	11	4	NaN	2	5	0.0463390450497508	1	1	NaN	342	6	27	2	121	221	321	NaN	521	0.248420968651772	2	1	NaN	4312351.1336631	NaN	4312352.1170649	4312352.63361613
63	25	0	0	90	36.1581920903955	36.241610738255	10	0.333354879915714	2	7	5	NaN	2	3	0.0463390450497508	1	1	NaN	343	6	28	2	121	221	321	NaN	521	0.265231422148645	1	0	NaN	4312353.7006229	NaN	4312354.6839659	4312355.20053488
63	25	0	0	90	36.1581920903955	36.241610738255	23	0.766716223806143	2	9	3	NaN	2	5	0.0463390450497508	1	1	NaN	344	6	29	2	121	221	321	NaN	521	0.281677921302617	2	1	NaN	4312356.2841592	NaN	4312357.2675666	4312357.78411998
63	25	0	0	90	36.1581920903955	36.241610738255	23	0.766716223806143	2	5	1	NaN	1	4	0.0463390450497508	1	1	NaN	345	6	30	2	121	221	321	NaN	521	0.382450079545379	2	0	NaN	4312359.1676664	NaN	4312360.1511764	4312360.66773582
63	25	0	0	90	36.1581920903955	36.241610738255	23	0.766716223806143	2	4	4	NaN	1	3	0.0463390450497508	1	1	NaN	346	6	31	2	121	221	321	NaN	521	0.362139521166682	1	1	NaN	4312361.8680713	NaN	4312362.8514493	4312363.36800098
63	25	0	0	90	36.1581920903955	36.241610738255	7	0.233348415941	2	3	2	NaN	1	5	0.0463390450497508	1	1	NaN	347	6	32	2	121	221	321	NaN	521	0.310859521850944	1	1	NaN	4312364.5349942	NaN	4312365.5183869	4312366.03492908
63	25	0	0	90	36.1581920903955	36.241610738255	0	0	1	1	5	NaN	1	4	0.0463390450497508	1	1	NaN	348	6	33	2	111	211	311	NaN	511	0.357991268858314	2	0	NaN	4312367.1519924	NaN	4312368.1352882	4312368.65185253
63	25	0	0	90	36.1581920903955	36.241610738255	11	0.366690367907286	2	11	5	NaN	2	4	0.0463390450497508	1	1	NaN	349	6	34	2	121	221	321	NaN	521	0.267331816256046	2	1	NaN	4312369.8188536	NaN	4312370.8022538	4312371.31877148
63	25	0	0	90	36.1581920903955	36.241610738255	9	0.300019391924143	2	1	6	NaN	1	4	0.0463390450497508	1	1	NaN	350	6	35	2	121	221	321	NaN	521	0.299741916358471	1	1	NaN	4312372.4024128	NaN	4312373.3857874	4312373.90236328
63	25	0	0	90	36.1581920903955	36.241610738255	10	0.333354879915714	2	11	6	NaN	2	4	0.0463390450497508	1	1	NaN	351	6	36	2	121	221	321	NaN	521	0.243385321460664	2	1	NaN	4312375.0026665	NaN	4312375.9860459	4312376.50261828
63	25	0	0	90	36.1581920903955	36.241610738255	8	0.266683903932571	2	2	6	NaN	1	4	0.0463390450497508	1	1	NaN	352	6	37	2	121	221	321	NaN	521	0.252860100008547	1	1	NaN	4312377.5529152	NaN	4312378.5363323	4312379.0528898
63	25	0	0	90	36.1581920903955	36.241610738255	9	0.300019391924143	2	9	3	NaN	2	5	0.0463390450497508	1	1	NaN	353	6	38	2	121	221	321	NaN	521	0.302394622005522	2	1	NaN	4312380.1198505	NaN	4312381.1032315	4312381.61979228
63	25	0	0	90	36.1581920903955	36.241610738255	22	0.733380735814571	2	5	5	NaN	1	3	0.0463390450497508	1	1	NaN	354	6	39	2	121	221	321	NaN	521	0.229310069233179	1	1	NaN	4312382.7367509	NaN	4312383.7201672	4312384.23670293
63	25	0	0	90	36.1581920903955	36.241610738255	18	0.600038783848286	2	1	6	NaN	1	4	0.0463390450497508	1	1	NaN	355	6	40	2	121	221	321	NaN	521	0.326948968693614	2	0	NaN	4312385.2869934	NaN	4312386.2704122	4312386.78695043
63	25	0	0	90	36.1581920903955	36.241610738255	14	0.466696831882	2	12	3	NaN	2	5	0.0463390450497508	1	1	NaN	356	6	41	2	121	221	321	NaN	521	0.245711168274283	2	1	NaN	4312387.920601	NaN	4312388.904002	4312389.42054263
63	25	0	0	90	36.1581920903955	36.241610738255	18	0.600038783848286	2	9	5	NaN	2	3	0.0463390450497508	1	1	NaN	357	6	42	2	121	221	321	NaN	521	0.382712667807937	2	1	NaN	4312390.487513	NaN	4312391.4709307	4312391.98746413
63	25	0	0	90	36.1581920903955	36.241610738255	10	0.333354879915714	2	6	5	NaN	1	3	0.0463390450497508	1	1	NaN	358	6	43	2	121	221	321	NaN	521	0.250803922303021	2	0	NaN	4312393.1711338	NaN	4312394.1544939	4312394.67106648
63	25	0	0	90	36.1581920903955	36.241610738255	22	0.733380735814571	2	8	4	NaN	2	3	0.0463390450497508	1	1	NaN	359	6	44	2	121	221	321	NaN	521	0.283926022239029	1	0	NaN	4312395.7380332	NaN	4312396.7214302	4312397.23798728
63	25	0	0	90	36.1581920903955	36.241610738255	19	0.633374271839857	2	9	5	NaN	2	5	0.0463390450497508	1	1	NaN	360	6	45	2	121	221	321	NaN	521	0.268307068385184	2	1	NaN	4312398.5216205	NaN	4312399.5050428	4312400.02158323
63	25	0	0	90	36.1581920903955	36.241610738255	17	0.566703295856714	2	10	2	NaN	2	5	0.0463390450497508	1	1	NaN	361	6	46	2	121	221	321	NaN	521	0.268999922089279	2	1	NaN	4312401.1052181	NaN	4312402.088621	4312402.60518228
63	25	0	0	90	36.1581920903955	36.241610738255	15	0.500032319873571	2	2	1	NaN	1	5	0.0463390450497508	1	1	NaN	362	6	47	2	121	221	321	NaN	521	0.252626421861351	1	1	NaN	4312404.1054916	NaN	4312405.0889211	4312405.60547598
63	25	0	0	90	36.1581920903955	36.241610738255	12	0.400025855898857	2	6	5	NaN	1	4	0.0463390450497508	1	1	NaN	363	6	48	2	121	221	321	NaN	521	0.197760221548378	1	1	NaN	4312406.672435	NaN	4312407.6558356	4312408.17239188
63	25	0	0	90	36.1581920903955	36.241610738255	23	0.766716223806143	2	7	4	NaN	2	3	0.0463390450497508	1	1	NaN	364	6	49	2	121	221	321	NaN	521	0.377632516436279	2	1	NaN	4312409.1725589	NaN	4312410.156082	4312410.67262378
63	25	0	0	90	36.1581920903955	36.241610738255	25	0.833387199789286	2	12	1	NaN	2	3	0.0463390450497508	1	1	NaN	365	6	50	2	121	221	321	NaN	521	0.269303621724248	2	1	NaN	4312411.8728245	NaN	4312412.8563496	4312413.37290208
63	25	0	0	90	36.1581920903955	36.241610738255	9	0.300019391924143	2	5	6	NaN	1	3	0.0463390450497508	1	1	NaN	366	6	51	2	121	221	321	NaN	521	0.317515316419303	1	1	NaN	4312414.4565557	NaN	4312415.43996	4312415.95647688
63	25	0	0	90	36.1581920903955	36.241610738255	7	0.233348415941	2	1	6	NaN	1	5	0.0463390450497508	1	1	NaN	367	6	52	2	121	221	321	NaN	521	0.428086516447365	1	1	NaN	4312417.0901214	NaN	4312418.0735179	4312418.59007558
63	25	0	0	90	36.1581920903955	36.241610738255	10	0.333354879915714	2	12	2	NaN	2	4	0.0463390450497508	1	1	NaN	368	6	53	2	121	221	321	NaN	521	0.246603768318892	2	1	NaN	4312419.8237332	NaN	4312420.8071269	4312421.32366973
63	25	0	0	90	36.1581920903955	36.241610738255	16	0.533367807865143	2	5	1	NaN	1	5	0.0463390450497508	1	1	NaN	369	6	54	2	121	221	321	NaN	521	0.279582268558443	1	1	NaN	4312422.3906429	NaN	4312423.3740423	4312423.89059803
63	25	0	0	90	36.1581920903955	36.241610738255	16	0.533367807865143	2	11	4	NaN	2	5	0.0463390450497508	1	1	NaN	370	6	55	2	121	221	321	NaN	521	0.391756668686867	1	0	NaN	4312424.9742538	NaN	4312425.9577905	4312426.47417313
63	25	0	0	90	36.1581920903955	36.241610738255	12	0.400025855898857	2	5	2	NaN	1	3	0.0463390450497508	1	1	NaN	371	6	56	2	121	221	321	NaN	521	0.267851021140814	1	1	NaN	4312427.6744996	NaN	4312428.6578931	4312429.17444858
63	25	0	0	90	36.1581920903955	36.241610738255	13	0.433361343890429	2	11	5	NaN	2	4	0.0463390450497508	1	1	NaN	372	6	57	2	121	221	321	NaN	521	0.380300668999553	1	0	NaN	4312430.2580421	NaN	4312431.2414637	4312431.75802863
63	25	0	0	90	36.1581920903955	36.241610738255	18	0.600038783848286	2	4	1	NaN	1	3	0.0463390450497508	1	1	NaN	373	6	58	2	121	221	321	NaN	521	0.288270189426839	1	1	NaN	4312432.9417044	NaN	4312433.9251028	4312434.44163531
63	25	0	0	90	36.1581920903955	36.241610738255	7	0.233348415941	2	1	4	NaN	1	4	0.0463390450497508	1	1	NaN	374	6	59	2	121	221	321	NaN	521	0.248488169163465	1	1	NaN	4312435.5418049	NaN	4312436.5253316	4312437.04187733
63	25	0	0	90	36.1581920903955	36.241610738255	21	0.700045247823	2	7	6	NaN	2	3	0.0463390450497508	1	1	NaN	375	6	60	2	121	221	321	NaN	521	0.313223268836737	2	1	NaN	4312438.1088698	NaN	4312439.092242	4312439.60879663
63	25	0	0	90	36.1581920903955	36.241610738255	24	0.800051711797714	2	2	6	NaN	1	4	0.0463390450497508	1	1	NaN	376	6	61	2	121	221	321	NaN	521	0.311347321607172	1	1	NaN	4312440.7424329	NaN	4312441.7258447	4312442.24239508
63	25	0	0	90	36.1581920903955	36.241610738255	7	0.233348415941	2	4	5	NaN	1	4	0.0463390450497508	1	1	NaN	377	6	62	2	121	221	321	NaN	521	0.294644668698311	1	1	NaN	4312443.3593514	NaN	4312444.3427629	4312444.85932003
63	25	0	0	90	36.1581920903955	36.241610738255	13	0.433361343890429	2	9	4	NaN	2	4	0.0463390450497508	1	1	NaN	378	6	63	2	121	221	321	NaN	521	0.405710121616721	1	0	NaN	4312445.9762775	NaN	4312446.9596862	4312447.47623948
63	25	0	0	90	36.1581920903955	36.241610738255	25	0.833387199789286	2	8	3	NaN	2	3	0.0463390450497508	1	1	NaN	379	7	1	2	121	221	321	NaN	521	0.547968468628824	2	1	NaN	4312461.9945258	NaN	4312462.9779383	4312463.49446723
63	25	0	0	90	36.1581920903955	36.241610738255	22	0.733380735814571	2	4	5	NaN	1	5	0.0463390450497508	1	1	NaN	380	7	2	2	121	221	321	NaN	521	0.0885969633236527	1	1	NaN	4312464.8613627	NaN	4312465.844872	4312466.36141364
63	25	0	0	90	36.1581920903955	36.241610738255	10	0.333354879915714	2	4	3	NaN	1	5	0.0463390450497508	1	1	NaN	381	7	3	2	121	221	321	NaN	521	0.344369968399405	1	1	NaN	4312467.2616963	NaN	4312468.2451115	4312468.76165293
63	25	0	0	90	36.1581920903955	36.241610738255	11	0.366690367907286	2	6	3	NaN	1	4	0.0463390450497508	1	1	NaN	382	7	4	2	121	221	321	NaN	521	0.363741069100797	1	1	NaN	4312470.3786563	NaN	4312471.3620899	4312471.87862623
63	25	0	0	90	36.1581920903955	36.241610738255	16	0.533367807865143	2	8	2	NaN	2	3	0.0463390450497508	1	1	NaN	383	7	5	2	121	221	321	NaN	521	0.296185121871531	2	1	NaN	4312473.0622973	NaN	4312474.0456774	4312474.56222648
63	25	0	0	90	36.1581920903955	36.241610738255	18	0.600038783848286	2	1	6	NaN	1	5	0.0463390450497508	1	1	NaN	384	7	6	2	121	221	321	NaN	521	0.367479821667075	2	0	NaN	4312476.06256	NaN	4312477.045961	4312477.56252598
63	25	0	0	90	36.1581920903955	36.241610738255	12	0.400025855898857	2	3	5	NaN	1	5	0.0463390450497508	1	1	NaN	385	7	7	2	121	221	321	NaN	521	0.28540566843003	2	0	NaN	4312478.9127906	NaN	4312479.8962468	4312480.41279563
63	25	0	0	90	36.1581920903955	36.241610738255	14	0.466696831882	2	2	4	NaN	1	3	0.0463390450497508	1	1	NaN	386	7	8	2	121	221	321	NaN	521	0.357213721610606	1	1	NaN	4312481.5130906	NaN	4312482.4965381	4312483.01305908
63	25	0	0	90	36.1581920903955	36.241610738255	23	0.766716223806143	2	11	4	NaN	2	4	0.0463390450497508	1	1	NaN	387	7	9	2	121	221	321	NaN	521	0.354198221117258	1	0	NaN	4312484.1799824	NaN	4312485.1634578	4312485.67998628
63	25	0	0	90	36.1581920903955	36.241610738255	19	0.633374271839857	2	10	5	NaN	2	5	0.0463390450497508	1	1	NaN	388	7	10	2	121	221	321	NaN	521	0.0951944682747126	2	1	NaN	4312486.8469577	NaN	4312487.8303813	4312488.34690203
63	25	0	0	90	36.1581920903955	36.241610738255	21	0.700045247823	2	12	2	NaN	2	5	0.0463390450497508	1	1	NaN	389	7	11	2	121	221	321	NaN	521	0.350303468294442	2	1	NaN	4312489.2638817	NaN	4312490.2472692	4312490.76381503
63	25	0	0	90	36.1581920903955	36.241610738255	19	0.633374271839857	2	5	3	NaN	1	5	0.0463390450497508	1	1	NaN	390	7	12	2	121	221	321	NaN	521	0.395609868690372	1	1	NaN	4312491.9307853	NaN	4312492.9141965	4312493.43073973
63	25	0	0	90	36.1581920903955	36.241610738255	18	0.600038783848286	2	12	2	NaN	2	4	0.0463390450497508	1	1	NaN	391	7	13	2	121	221	321	NaN	521	0.350514768622816	2	1	NaN	4312494.647725	NaN	4312495.6311351	4312496.14766823
63	25	0	0	90	36.1581920903955	36.241610738255	18	0.600038783848286	2	7	1	NaN	2	3	0.0463390450497508	1	1	NaN	392	7	14	2	121	221	321	NaN	521	1.62732922192663	2	1	NaN	4312497.3146443	NaN	4312498.2980518	4312498.81460818
63	25	0	0	90	36.1581920903955	36.241610738255	23	0.766716223806143	2	6	4	NaN	1	3	0.0463390450497508	1	1	NaN	393	7	15	2	121	221	321	NaN	521	0.317343521863222	1	1	NaN	4312501.2650542	NaN	4312502.2484378	4312502.76499538
63	25	0	0	90	36.1581920903955	36.241610738255	16	0.533367807865143	2	12	3	NaN	2	4	0.0463390450497508	1	1	NaN	394	7	16	2	121	221	321	NaN	521	0.611435721628368	2	1	NaN	4312503.8986215	NaN	4312504.8820123	4312505.39858478
63	25	0	0	90	36.1581920903955	36.241610738255	6	0.200012927949429	2	3	4	NaN	1	4	0.0463390450497508	1	1	NaN	395	7	17	2	121	221	321	NaN	521	0.315895868465304	1	1	NaN	4312507.0821574	NaN	4312508.0657013	4312508.58222623
63	25	0	0	90	36.1581920903955	36.241610738255	21	0.700045247823	2	10	6	NaN	2	4	0.0463390450497508	1	1	NaN	396	7	18	2	121	221	321	NaN	521	0.288787567988038	2	1	NaN	4312509.749221	NaN	4312510.7326024	4312511.24915923
63	25	0	0	90	36.1581920903955	36.241610738255	9	0.300019391924143	2	6	2	NaN	1	5	0.0463390450497508	1	1	NaN	397	7	19	2	121	221	321	NaN	521	0.288920068182051	1	1	NaN	4312512.3494637	NaN	4312513.332858	4312513.84940883
63	25	0	0	90	36.1581920903955	36.241610738255	17	0.566703295856714	2	7	4	NaN	2	5	0.0463390450497508	1	1	NaN	398	7	20	2	121	221	321	NaN	521	0.39204612094909	2	1	NaN	4312514.9663604	NaN	4312515.9497812	4312516.46633748
63	25	0	0	90	36.1581920903955	36.241610738255	7	0.233348415941	2	7	3	NaN	2	5	0.0463390450497508	1	1	NaN	399	7	21	2	121	221	321	NaN	521	0.483816969208419	2	1	NaN	4312517.6666452	NaN	4312518.6500432	4312519.16659463
63	25	0	0	90	36.1581920903955	36.241610738255	19	0.633374271839857	2	1	2	NaN	1	5	0.0463390450497508	1	1	NaN	400	7	22	2	121	221	321	NaN	521	0.315494021400809	1	1	NaN	4312520.4669197	NaN	4312521.4503212	4312521.96687048
63	25	0	0	90	36.1581920903955	36.241610738255	25	0.833387199789286	2	11	3	NaN	2	5	0.0463390450497508	1	1	NaN	401	7	23	2	121	221	321	NaN	521	0.553763422183692	2	1	NaN	4312523.100497	NaN	4312524.0839158	4312524.60045938
63	25	0	0	90	36.1581920903955	36.241610738255	12	0.400025855898857	2	4	1	NaN	1	3	0.0463390450497508	1	1	NaN	402	7	24	2	121	221	321	NaN	521	0.327009622007608	1	1	NaN	4312525.9675548	NaN	4312526.9508533	4312527.46741618
63	25	0	0	90	36.1581920903955	36.241610738255	14	0.466696831882	2	3	1	NaN	1	4	0.0463390450497508	1	1	NaN	403	7	25	2	121	221	321	NaN	521	2.20511292107403	1	1	NaN	4312528.6010761	NaN	4312529.5844475	4312530.10100738
63	25	0	0	90	36.1581920903955	36.241610738255	0	0	1	1	5	NaN	1	4	0.0463390450497508	1	1	NaN	404	7	26	2	111	211	311	NaN	511	0.775976722128689	1	1	NaN	4312533.118155	NaN	4312534.101557	4312534.61811688
63	25	0	0	90	36.1581920903955	36.241610738255	20	0.666709759831429	2	6	4	NaN	1	4	0.0463390450497508	1	1	NaN	405	7	27	2	121	221	321	NaN	521	0.292467116378248	1	1	NaN	4312536.2017867	NaN	4312537.1852102	4312537.70174888
63	25	0	0	90	36.1581920903955	36.241610738255	8	0.266683903932571	2	7	4	NaN	2	3	0.0463390450497508	1	1	NaN	406	7	28	2	121	221	321	NaN	521	0.276126621291041	2	1	NaN	4312538.8020622	NaN	4312539.7854449	4312540.30200378
63	25	0	0	90	36.1581920903955	36.241610738255	11	0.366690367907286	2	8	1	NaN	2	5	0.0463390450497508	1	1	NaN	407	7	29	2	121	221	321	NaN	521	0.236764620989561	2	1	NaN	4312541.5856493	NaN	4312542.5690715	4312543.08560658
63	25	0	0	90	36.1581920903955	36.241610738255	13	0.433361343890429	2	5	3	NaN	1	3	0.0463390450497508	1	1	NaN	408	7	30	2	121	221	321	NaN	521	0.278635421767831	1	1	NaN	4312544.1358983	NaN	4312545.1193037	4312545.63585548
63	25	0	0	90	36.1581920903955	36.241610738255	22	0.733380735814571	2	1	4	NaN	1	5	0.0463390450497508	1	1	NaN	409	7	31	2	121	221	321	NaN	521	0.326040668413043	2	0	NaN	4312546.736166	NaN	4312547.7194832	4312548.23611043
63	25	0	0	90	36.1581920903955	36.241610738255	6	0.200012927949429	2	4	2	NaN	1	5	0.0463390450497508	1	1	NaN	410	7	32	2	121	221	321	NaN	521	0.388283068314195	2	0	NaN	4312549.3697915	NaN	4312550.3531488	4312550.86970193
63	25	0	0	90	36.1581920903955	36.241610738255	13	0.433361343890429	2	12	5	NaN	2	4	0.0463390450497508	1	1	NaN	411	7	33	2	121	221	321	NaN	521	1.36820326838642	2	1	NaN	4312552.0700167	NaN	4312553.053424	4312553.56996203
63	25	0	0	90	36.1581920903955	36.241610738255	9	0.300019391924143	2	2	2	NaN	1	5	0.0463390450497508	1	1	NaN	412	7	34	2	121	221	321	NaN	521	0.260658921673894	1	1	NaN	4312555.7537257	NaN	4312556.7371187	4312557.25366618
63	25	0	0	90	36.1581920903955	36.241610738255	10	0.333354879915714	2	10	2	NaN	2	4	0.0463390450497508	1	1	NaN	413	7	35	2	121	221	321	NaN	521	0.220877220854163	2	1	NaN	4312558.3373075	NaN	4312559.3206875	4312559.83725978
63	25	0	0	90	36.1581920903955	36.241610738255	20	0.666709759831429	2	11	5	NaN	2	5	0.0463390450497508	1	1	NaN	414	7	36	2	121	221	321	NaN	521	0.247439121827483	2	1	NaN	4312560.87089	NaN	4312561.8541911	4312562.37083108
63	25	0	0	90	36.1581920903955	36.241610738255	0	0	1	6	6	NaN	1	5	0.0463390450497508	1	1	NaN	415	7	37	2	111	211	311	NaN	511	0.265086768195033	1	1	NaN	4312563.4210062	NaN	4312564.4045092	4312564.92107683
63	25	0	0	90	36.1581920903955	36.241610738255	20	0.666709759831429	2	4	4	NaN	1	3	0.0463390450497508	1	1	NaN	416	7	38	2	121	221	321	NaN	521	0.345756522379816	1	1	NaN	4312566.0047261	NaN	4312566.9881195	4312567.50467008
63	25	0	0	90	36.1581920903955	36.241610738255	0	0	1	7	6	NaN	2	5	0.0463390450497508	1	1	NaN	417	7	39	2	111	211	311	NaN	511	0.262535621412098	2	1	NaN	4312568.671643	NaN	4312569.6550567	4312570.17160158
63	25	0	0	90	36.1581920903955	36.241610738255	16	0.533367807865143	2	4	5	NaN	1	3	0.0463390450497508	1	1	NaN	418	7	40	2	121	221	321	NaN	521	0.286925768479705	2	0	NaN	4312571.2551212	NaN	4312572.2386226	4312572.75518023
63	25	0	0	90	36.1581920903955	36.241610738255	15	0.500032319873571	2	8	1	NaN	2	3	0.0463390450497508	1	1	NaN	419	7	41	2	121	221	321	NaN	521	0.295044168829918	2	1	NaN	4312573.8555187	NaN	4312574.8388876	4312575.35543803
63	25	0	0	90	36.1581920903955	36.241610738255	22	0.733380735814571	2	11	5	NaN	2	3	0.0463390450497508	1	1	NaN	420	7	42	2	121	221	321	NaN	521	0.269676621071994	2	1	NaN	4312576.4722673	NaN	4312577.455802	4312577.97236348
63	25	0	0	90	36.1581920903955	36.241610738255	15	0.500032319873571	2	4	4	NaN	1	4	0.0463390450497508	1	1	NaN	421	7	43	2	121	221	321	NaN	521	0.3624118687585	1	1	NaN	4312579.3560086	NaN	4312580.3394251	4312580.85597643
63	25	0	0	90	36.1581920903955	36.241610738255	8	0.266683903932571	2	12	5	NaN	2	4	0.0463390450497508	1	1	NaN	422	7	44	2	121	221	321	NaN	521	0.141361221671104	2	1	NaN	4312582.4729741	NaN	4312583.4563993	4312583.97295288
63	25	0	0	90	36.1581920903955	36.241610738255	16	0.533367807865143	2	4	4	NaN	1	5	0.0463390450497508	1	1	NaN	423	7	45	2	121	221	321	NaN	521	0.234877368435264	2	0	NaN	4312584.9232372	NaN	4312585.906538	4312586.42318503
63	25	0	0	90	36.1581920903955	36.241610738255	8	0.266683903932571	2	9	4	NaN	2	3	0.0463390450497508	1	1	NaN	424	7	46	2	121	221	321	NaN	521	0.244604921899736	1	0	NaN	4312587.4733596	NaN	4312588.4569055	4312588.97344308
63	25	0	0	90	36.1581920903955	36.241610738255	0	0	1	10	6	NaN	2	3	0.0463390450497508	1	1	NaN	425	7	47	2	111	211	311	NaN	511	0.277825479395688	2	1	NaN	4312590.0403943	NaN	4312591.0238057	4312591.54035542
63	25	0	0	90	36.1581920903955	36.241610738255	13	0.433361343890429	2	7	5	NaN	2	5	0.0463390450497508	1	1	NaN	426	7	48	2	121	221	321	NaN	521	0.26164982188493	1	0	NaN	4312592.6406511	NaN	4312593.6240642	4312594.14061498
63	25	0	0	90	36.1581920903955	36.241610738255	23	0.766716223806143	2	2	5	NaN	1	4	0.0463390450497508	1	1	NaN	427	7	49	2	121	221	321	NaN	521	0.246616968885064	1	1	NaN	4312595.2074575	NaN	4312596.1909774	4312596.70752643
63	25	0	0	90	36.1581920903955	36.241610738255	24	0.800051711797714	2	9	5	NaN	2	5	0.0463390450497508	1	1	NaN	428	7	50	2	121	221	321	NaN	521	0.231776321306825	2	1	NaN	4312597.7744963	NaN	4312598.757893	4312599.27445218
63	25	0	0	90	36.1581920903955	36.241610738255	8	0.266683903932571	2	9	4	NaN	2	4	0.0463390450497508	1	1	NaN	429	7	51	2	121	221	321	NaN	521	0.272746968083084	2	1	NaN	4312600.3413999	NaN	4312601.3248197	4312601.84138403
63	25	0	0	90	36.1581920903955	36.241610738255	12	0.400025855898857	2	1	1	NaN	1	5	0.0463390450497508	1	1	NaN	430	7	52	2	121	221	321	NaN	521	0.369311521761119	2	0	NaN	4312602.9249888	NaN	4312603.9084001	4312604.42495508
63	25	0	0	90	36.1581920903955	36.241610738255	9	0.300019391924143	2	2	3	NaN	1	4	0.0463390450497508	1	1	NaN	431	7	53	2	121	221	321	NaN	521	0.277619921602309	1	1	NaN	4312605.608595	NaN	4312606.592041	4312607.10854688
63	25	0	0	90	36.1581920903955	36.241610738255	17	0.566703295856714	2	12	6	NaN	2	4	0.0463390450497508	1	1	NaN	432	7	54	2	121	221	321	NaN	521	0.230307421647012	2	1	NaN	4312608.1920568	NaN	4312609.17558	4312609.69213968
63	25	0	0	90	36.1581920903955	36.241610738255	11	0.366690367907286	2	1	1	NaN	1	3	0.0463390450497508	1	1	NaN	433	7	55	2	121	221	321	NaN	521	0.344522468745708	2	0	NaN	4312610.7256365	NaN	4312611.7091744	4312612.22571483
63	25	0	0	90	36.1581920903955	36.241610738255	20	0.666709759831429	2	2	6	NaN	1	3	0.0463390450497508	1	1	NaN	434	7	56	2	121	221	321	NaN	521	0.326326122507453	2	0	NaN	4312613.3758998	NaN	4312614.3594173	4312614.87598018
63	25	0	0	90	36.1581920903955	36.241610738255	14	0.466696831882	2	9	6	NaN	2	5	0.0463390450497508	1	1	NaN	435	7	57	2	121	221	321	NaN	521	0.260717237368226	1	0	NaN	4312616.0096058	NaN	4312616.9930198	4312617.50957186
63	25	0	0	90	36.1581920903955	36.241610738255	14	0.466696831882	2	7	5	NaN	2	3	0.0463390450497508	1	1	NaN	436	7	58	2	121	221	321	NaN	521	0.301383121870458	2	1	NaN	4312618.5931947	NaN	4312619.5766019	4312620.09315888
63	25	0	0	90	36.1581920903955	36.241610738255	17	0.566703295856714	2	5	4	NaN	1	4	0.0463390450497508	1	1	NaN	437	7	59	2	121	221	321	NaN	521	0.204203422181308	2	0	NaN	4312621.2101426	NaN	4312622.1935244	4312622.71008888
63	25	0	0	90	36.1581920903955	36.241610738255	7	0.233348415941	2	6	1	NaN	1	4	0.0463390450497508	1	1	NaN	438	7	60	2	121	221	321	NaN	521	0.239498421549797	1	1	NaN	4312623.7270347	NaN	4312624.7105087	4312625.22699648
63	25	0	0	90	36.1581920903955	36.241610738255	25	0.833387199789286	2	10	2	NaN	2	5	0.0463390450497508	1	1	NaN	439	7	61	2	121	221	321	NaN	521	0.888889421708882	2	1	NaN	4312626.2772057	NaN	4312627.2606978	4312627.77724288
63	25	0	0	90	36.1581920903955	36.241610738255	17	0.566703295856714	2	5	1	NaN	1	3	0.0463390450497508	1	1	NaN	440	7	62	2	121	221	321	NaN	521	0.249953521415591	2	0	NaN	4312629.8441739	NaN	4312630.8277043	4312631.34426188
63	25	0	0	90	36.1581920903955	36.241610738255	19	0.633374271839857	2	6	5	NaN	1	5	0.0463390450497508	1	1	NaN	441	7	63	2	121	221	321	NaN	521	0.267777868546546	2	0	NaN	4312632.3945543	NaN	4312633.377955	4312633.89450243
63	25	0	0	90	36.1581920903955	36.241610738255	16	0.533367807865143	2	10	5	NaN	2	5	0.0463390450497508	1	1	NaN	442	8	1	2	121	221	321	NaN	521	0.277196768671274	2	1	NaN	4312667.0813083	NaN	4312668.0646741	4312668.58124273
63	25	0	0	90	36.1581920903955	36.241610738255	22	0.733380735814571	2	12	3	NaN	2	3	0.0463390450497508	1	1	NaN	443	8	2	2	121	221	321	NaN	521	0.27775702252984	2	1	NaN	4312669.6648571	NaN	4312670.6482994	4312671.16482808
63	25	0	0	90	36.1581920903955	36.241610738255	12	0.400025855898857	2	8	5	NaN	2	4	0.0463390450497508	1	1	NaN	444	8	3	2	121	221	321	NaN	521	0.589941821061075	2	1	NaN	4312672.2484968	NaN	4312673.2318585	4312673.74841278
63	25	0	0	90	36.1581920903955	36.241610738255	19	0.633374271839857	2	7	5	NaN	2	3	0.0463390450497508	1	1	NaN	445	8	4	2	121	221	321	NaN	521	0.42006697319448	1	0	NaN	4312675.4821144	NaN	4312676.4655062	4312676.98205603
63	25	0	0	90	36.1581920903955	36.241610738255	23	0.766716223806143	2	7	2	NaN	2	5	0.0463390450497508	1	1	NaN	446	8	5	2	121	221	321	NaN	521	0.286949568428099	2	1	NaN	4312678.215705	NaN	4312679.1991079	4312679.71565993
63	25	0	0	90	36.1581920903955	36.241610738255	15	0.500032319873571	2	5	5	NaN	1	5	0.0463390450497508	1	1	NaN	447	8	6	2	121	221	321	NaN	521	0.550573421642184	2	0	NaN	4312680.8158657	NaN	4312681.7993748	4312682.31592218
63	25	0	0	90	36.1581920903955	36.241610738255	6	0.200012927949429	2	4	2	NaN	1	5	0.0463390450497508	1	1	NaN	448	8	7	2	121	221	321	NaN	521	0.811330816708505	1	1	NaN	4312683.6829319	NaN	4312684.666313	4312685.18286048
63	25	0	0	90	36.1581920903955	36.241610738255	18	0.600038783848286	2	6	3	NaN	1	4	0.0463390450497508	1	1	NaN	449	8	8	2	121	221	321	NaN	521	0.294086668640375	1	1	NaN	4312686.8166428	NaN	4312687.7999622	4312688.31650453
63	25	0	0	90	36.1581920903955	36.241610738255	19	0.633374271839857	2	8	2	NaN	2	5	0.0463390450497508	1	1	NaN	450	8	9	2	121	221	321	NaN	521	0.445349368266761	2	1	NaN	4312689.4169062	NaN	4312690.4001776	4312690.91675723
63	25	0	0	90	36.1581920903955	36.241610738255	6	0.200012927949429	2	9	1	NaN	2	3	0.0463390450497508	1	1	NaN	451	8	10	2	121	221	321	NaN	521	0.46861042175442	2	1	NaN	4312692.2337311	NaN	4312693.2171427	4312693.73370838
63	25	0	0	90	36.1581920903955	36.241610738255	14	0.466696831882	2	12	6	NaN	2	4	0.0463390450497508	1	1	NaN	452	8	11	2	121	221	321	NaN	521	0.292174321599305	2	1	NaN	4312695.0339969	NaN	4312696.0174288	4312696.53398058
63	25	0	0	90	36.1581920903955	36.241610738255	13	0.433361343890429	2	7	4	NaN	2	5	0.0463390450497508	1	1	NaN	453	8	12	2	121	221	321	NaN	521	0.284364542923868	2	1	NaN	4312697.6341648	NaN	4312698.6176872	4312699.13424086
63	25	0	0	90	36.1581920903955	36.241610738255	25	0.833387199789286	2	2	2	NaN	1	5	0.0463390450497508	1	1	NaN	454	8	13	2	121	221	321	NaN	521	0.267762868665159	1	1	NaN	4312700.2345498	NaN	4312701.2179511	4312701.73448833
63	25	0	0	90	36.1581920903955	36.241610738255	23	0.766716223806143	2	12	3	NaN	2	5	0.0463390450497508	1	1	NaN	455	8	14	2	121	221	321	NaN	521	0.2525619212538	2	1	NaN	4312702.8181206	NaN	4312703.8015229	4312704.31807298
63	25	0	0	90	36.1581920903955	36.241610738255	0	0	1	12	3	NaN	2	3	0.0463390450497508	1	1	NaN	456	8	15	2	111	211	311	NaN	511	0.309618921950459	2	1	NaN	4312705.3850304	NaN	4312706.3684449	4312706.88499278
63	25	0	0	90	36.1581920903955	36.241610738255	14	0.466696831882	2	4	2	NaN	1	4	0.0463390450497508	1	1	NaN	457	8	16	2	121	221	321	NaN	521	0.372435921803117	1	1	NaN	4312708.4019246	NaN	4312709.3853871	4312709.90195388
63	25	0	0	90	36.1581920903955	36.241610738255	23	0.766716223806143	2	10	1	NaN	2	5	0.0463390450497508	1	1	NaN	458	8	17	2	121	221	321	NaN	521	0.264683021232486	2	1	NaN	4312711.0854982	NaN	4312712.0690454	4312712.58555078
63	25	0	0	90	36.1581920903955	36.241610738255	12	0.400025855898857	2	4	6	NaN	1	3	0.0463390450497508	1	1	NaN	459	8	18	2	121	221	321	NaN	521	0.314076921902597	2	0	NaN	4312713.6525101	NaN	4312714.6359161	4312715.15247298
