subjno	age	gender	isPractice	viewdist	CmToPixX	CmToPixY	SOA_frm	SOA_time	targNum	targID	targExample	targRace	targGender	firstTargPos	contrast	familiarity	curr_staircase	iStair	TrialNum	BlockNum	blktrl	sessionNum	TC_FIXATION	TC_RSVP_START	TC_RSVP_END	TC_BLANK	TC_RESPONSE_ONSET	RT2afc	resp_2afc	acc	RSVPOnsetVBL	RSVPOnsetTime	RSVPOffsetVBL	RSVPOffsetTime	startrt_2afc
99	21	0	0	90	36.1581920903955	36.241610738255	13	0.433374239988625	2	12	3	NaN	2	3	0.0741725096291569	1	1	NaN	1	1	1	2	121	221	321	NaN	521	1.61853994335979	2	1	NaN	3719502.8975674	NaN	3719503.8808383	3719504.41394976
99	21	0	0	90	36.1581920903955	36.241610738255	24	0.800075519979	2	8	3	NaN	2	4	0.0741725096291569	1	1	NaN	2	1	2	2	121	221	321	NaN	521	0.451839178334922	2	1	NaN	3719509.248141	NaN	3719510.2314115	3719510.76456652
99	21	0	0	90	36.1581920903955	36.241610738255	19	0.633393119983375	2	3	1	NaN	1	4	0.0741725096291569	1	1	NaN	3	1	3	2	121	221	321	NaN	521	0.020850770175457	2	0	NaN	3719512.0316525	NaN	3719513.0148669	3719513.53151123
99	21	0	0	90	36.1581920903955	36.241610738255	7	0.233355359993875	2	8	6	NaN	2	4	0.0741725096291569	1	1	NaN	4	1	4	2	121	221	321	NaN	521	1.07888512173668	2	1	NaN	3719514.3817784	NaN	3719515.3651787	3719515.88173638
99	21	0	0	90	36.1581920903955	36.241610738255	14	0.46671071998775	2	8	3	NaN	2	4	0.0741725096291569	1	1	NaN	5	1	5	2	121	221	321	NaN	521	0.166586874052882	2	1	NaN	3719517.7821372	NaN	3719518.7655214	3719519.28206283
99	21	0	0	90	36.1581920903955	36.241610738255	24	0.800075519979	2	9	6	NaN	2	5	0.0741725096291569	1	1	NaN	6	1	6	2	121	221	321	NaN	521	0.209942574147135	2	1	NaN	3719520.2823931	NaN	3719521.2657793	3719521.78231143
99	21	0	0	90	36.1581920903955	36.241610738255	14	0.46671071998775	2	9	1	NaN	2	3	0.0741725096291569	1	1	NaN	7	1	7	2	121	221	321	NaN	521	0.0684435265138745	2	1	NaN	3719522.8158831	NaN	3719523.7993393	3719524.31589357
99	21	0	0	90	36.1581920903955	36.241610738255	10	0.33336479999125	2	8	6	NaN	2	5	0.0741725096291569	1	1	NaN	8	1	8	2	121	221	321	NaN	521	0.0103945266455412	2	1	NaN	3719525.2161857	NaN	3719526.1995754	3719526.71613747
99	21	0	0	90	36.1581920903955	36.241610738255	20	0.6667295999825	2	4	4	NaN	1	4	0.0741725096291569	1	1	NaN	9	1	9	2	121	221	321	NaN	521	0.0713190264068544	1	1	NaN	3719527.5330823	NaN	3719528.516471	3719529.03303357
99	21	0	0	90	36.1581920903955	36.241610738255	11	0.366701279990375	2	9	5	NaN	2	4	0.0741725096291569	1	1	NaN	10	1	10	2	121	221	321	NaN	521	0.0317744868807495	2	1	NaN	3719529.9166424	NaN	3719530.9000401	3719531.41659581
99	21	0	0	90	36.1581920903955	36.241610738255	19	0.633393119983375	2	3	3	NaN	1	5	0.0741725096291569	1	1	NaN	11	1	11	2	121	221	321	NaN	521	0.337384078651667	1	1	NaN	3719532.2668599	NaN	3719533.2502707	3719533.76682432
99	21	0	0	90	36.1581920903955	36.241610738255	13	0.433374239988625	2	5	6	NaN	1	3	0.0741725096291569	1	1	NaN	12	1	12	2	121	221	321	NaN	521	0.0153487743809819	1	1	NaN	3719535.3171452	NaN	3719536.300583	3719536.81712113
99	21	0	0	90	36.1581920903955	36.241610738255	15	0.500047199986875	2	3	5	NaN	1	4	0.0741725096291569	1	1	NaN	13	1	13	2	121	221	321	NaN	521	1.52965367445722	1	1	NaN	3719537.6506108	NaN	3719538.6341356	3719539.15069283
99	21	0	0	90	36.1581920903955	36.241610738255	11	0.366701279990375	2	3	6	NaN	1	4	0.0741725096291569	1	1	NaN	14	1	14	2	121	221	321	NaN	521	0.159958274103701	1	1	NaN	3719541.8844533	NaN	3719542.8678819	3719543.38443163
99	21	0	0	90	36.1581920903955	36.241610738255	21	0.700066079981625	2	10	5	NaN	2	4	0.0741725096291569	1	1	NaN	15	1	15	2	121	221	321	NaN	521	0.0123039265163243	2	1	NaN	3719544.3681531	NaN	3719545.3514379	3719545.86801537
99	21	0	0	90	36.1581920903955	36.241610738255	21	0.700066079981625	2	2	5	NaN	1	3	0.0741725096291569	1	1	NaN	16	1	16	2	121	221	321	NaN	521	0.662963174283504	1	1	NaN	3719546.7016343	NaN	3719547.6850148	3719548.20158173
99	21	0	0	90	36.1581920903955	36.241610738255	20	0.6667295999825	2	10	4	NaN	2	3	0.0741725096291569	1	1	NaN	17	1	17	2	121	221	321	NaN	521	0.143231573980302	2	1	NaN	3719549.6852443	NaN	3719550.6686531	3719551.18519933
99	21	0	0	90	36.1581920903955	36.241610738255	16	0.533383679986	2	5	2	NaN	1	5	0.0741725096291569	1	1	NaN	18	1	18	2	121	221	321	NaN	521	0.140507126227021	1	1	NaN	3719552.1521621	NaN	3719553.1355636	3719553.65211887
99	21	0	0	90	36.1581920903955	36.241610738255	6	0.20001887999475	2	8	5	NaN	2	3	0.0741725096291569	1	1	NaN	19	1	19	2	121	221	321	NaN	521	0.0653731264173985	2	1	NaN	3719554.6190625	NaN	3719555.6024734	3719556.11902477
99	21	0	0	90	36.1581920903955	36.241610738255	11	0.366701279990375	2	5	5	NaN	1	5	0.0741725096291569	1	1	NaN	20	1	20	2	121	221	321	NaN	521	0.201345030684024	1	1	NaN	3719557.4192247	NaN	3719558.4027591	3719558.91929607
99	21	0	0	90	36.1581920903955	36.241610738255	7	0.233355359993875	2	12	3	NaN	2	4	0.0741725096291569	1	1	NaN	21	1	21	2	121	221	321	NaN	521	0.0918622263707221	2	1	NaN	3719559.9362635	NaN	3719560.9196526	3719561.43621227
99	21	0	0	90	36.1581920903955	36.241610738255	12	0.4000377599895	2	10	6	NaN	2	4	0.0741725096291569	1	1	NaN	22	1	22	2	121	221	321	NaN	521	0.0911203264258802	1	0	NaN	3719562.3531508	NaN	3719563.336563	3719563.85311807
99	21	0	0	90	36.1581920903955	36.241610738255	14	0.46671071998775	2	10	6	NaN	2	3	0.0741725096291569	1	1	NaN	23	1	23	2	121	221	321	NaN	521	0.0104991137050092	2	1	NaN	3719564.7700808	NaN	3719565.7534534	3719566.27001269
99	21	0	0	90	36.1581920903955	36.241610738255	17	0.566720159985125	2	12	5	NaN	2	5	0.0741725096291569	1	1	NaN	24	1	24	2	121	221	321	NaN	521	0.103503926191479	2	1	NaN	3719567.436972	NaN	3719568.420383	3719568.93695307
99	21	0	0	90	36.1581920903955	36.241610738255	9	0.300028319992125	2	5	1	NaN	1	4	0.0741725096291569	1	1	NaN	25	1	25	2	121	221	321	NaN	521	0.134657326154411	2	0	NaN	3719569.8538853	NaN	3719570.8372928	3719571.35385057
99	21	0	0	90	36.1581920903955	36.241610738255	25	0.833411999978125	2	7	1	NaN	2	4	0.0741725096291569	1	1	NaN	26	1	26	2	121	221	321	NaN	521	0.0104101742617786	2	1	NaN	3719572.687103	NaN	3719573.6709029	3719574.18745523
99	21	0	0	90	36.1581920903955	36.241610738255	20	0.6667295999825	2	3	3	NaN	1	5	0.0741725096291569	1	1	NaN	27	1	27	2	121	221	321	NaN	521	0.175575078465044	1	1	NaN	3719575.0210651	NaN	3719576.0044698	3719576.52102602
99	21	0	0	90	36.1581920903955	36.241610738255	14	0.46671071998775	2	2	4	NaN	1	4	0.0741725096291569	1	1	NaN	28	1	28	2	121	221	321	NaN	521	0.243427126668394	1	1	NaN	3719577.5213162	NaN	3719578.5047053	3719579.02127567
99	21	0	0	90	36.1581920903955	36.241610738255	13	0.433374239988625	2	3	1	NaN	1	4	0.0741725096291569	1	1	NaN	29	1	29	2	121	221	321	NaN	521	0.0842917263507843	1	1	NaN	3719580.0881575	NaN	3719581.0716319	3719581.58818957
99	21	0	0	90	36.1581920903955	36.241610738255	7	0.233355359993875	2	1	3	NaN	1	5	0.0741725096291569	1	1	NaN	30	1	30	2	121	221	321	NaN	521	0.0760317263193429	1	1	NaN	3719582.4884024	NaN	3719583.4718727	3719583.98842687
99	21	0	0	90	36.1581920903955	36.241610738255	0	0	1	3	1	NaN	1	3	0.0741725096291569	1	1	NaN	31	1	31	2	111	211	311	NaN	511	0.0104004265740514	2	0	NaN	3719585.222034	NaN	3719586.2054749	3719586.72202497
99	21	0	0	90	36.1581920903955	36.241610738255	6	0.20001887999475	2	2	1	NaN	1	5	0.0741725096291569	1	1	NaN	32	1	32	2	121	221	321	NaN	521	0.0968526261858642	1	1	NaN	3719587.5556324	NaN	3719588.5390404	3719589.05559307
99	21	0	0	90	36.1581920903955	36.241610738255	19	0.633393119983375	2	2	5	NaN	1	5	0.0741725096291569	1	1	NaN	33	1	33	2	121	221	321	NaN	521	0.0528336265124381	1	1	NaN	3719590.4392751	NaN	3719591.4226478	3719591.93920527
99	21	0	0	90	36.1581920903955	36.241610738255	10	0.33336479999125	2	6	2	NaN	1	3	0.0741725096291569	1	1	NaN	34	1	34	2	121	221	321	NaN	521	0.0709684737958014	1	1	NaN	3719593.1894927	NaN	3719594.172962	3719594.68946873
99	21	0	0	90	36.1581920903955	36.241610738255	15	0.500047199986875	2	4	1	NaN	1	4	0.0741725096291569	1	1	NaN	35	1	35	2	121	221	321	NaN	521	0.0234885262325406	1	1	NaN	3719595.5730769	NaN	3719596.5564687	3719597.07304177
99	21	0	0	90	36.1581920903955	36.241610738255	14	0.46671071998775	2	12	4	NaN	2	3	0.0741725096291569	1	1	NaN	36	1	36	2	121	221	321	NaN	521	0.0104274787008762	2	1	NaN	3719597.9233366	NaN	3719598.9067061	3719599.42327742
99	21	0	0	90	36.1581920903955	36.241610738255	12	0.4000377599895	2	10	4	NaN	2	5	0.0741725096291569	1	1	NaN	37	1	37	2	121	221	321	NaN	521	0.0516021302901208	2	1	NaN	3719600.2567737	NaN	3719601.240284	3719601.75683347
99	21	0	0	90	36.1581920903955	36.241610738255	8	0.266691839993	2	3	1	NaN	1	3	0.0741725096291569	1	1	NaN	38	1	38	2	121	221	321	NaN	521	0.0996425957418978	1	1	NaN	3719602.6570835	NaN	3719603.6405153	3719604.1570843
99	21	0	0	90	36.1581920903955	36.241610738255	10	0.33336479999125	2	4	2	NaN	1	4	0.0741725096291569	1	1	NaN	39	1	39	2	121	221	321	NaN	521	0.314525473862886	1	1	NaN	3719605.0740299	NaN	3719606.0574207	3719606.57397253
99	21	0	0	90	36.1581920903955	36.241610738255	9	0.300028319992125	2	9	4	NaN	2	4	0.0741725096291569	1	1	NaN	40	1	40	2	121	221	321	NaN	521	1.08915517386049	1	0	NaN	3719607.7076291	NaN	3719608.6910234	3719609.20756753
99	21	0	0	90	36.1581920903955	36.241610738255	18	0.60005663998425	2	8	6	NaN	2	5	0.0741725096291569	1	1	NaN	41	1	41	2	121	221	321	NaN	521	0.136473583057523	2	1	NaN	3719611.1079448	NaN	3719612.0913487	3719612.60789732
99	21	0	0	90	36.1581920903955	36.241610738255	6	0.20001887999475	2	9	2	NaN	2	3	0.0741725096291569	1	1	NaN	42	1	42	2	121	221	321	NaN	521	0.243212926667184	1	0	NaN	3719613.841543	NaN	3719614.8249364	3719615.34150467
99	21	0	0	90	36.1581920903955	36.241610738255	8	0.266691839993	2	11	2	NaN	2	5	0.0741725096291569	1	1	NaN	43	1	43	2	121	221	321	NaN	521	0.0780255263671279	2	1	NaN	3719616.7584806	NaN	3719617.741895	3719618.25845037
99	21	0	0	90	36.1581920903955	36.241610738255	9	0.300028319992125	2	4	4	NaN	1	3	0.0741725096291569	1	1	NaN	44	1	44	2	121	221	321	NaN	521	0.0465504741296172	1	1	NaN	3719619.1421366	NaN	3719620.1254735	3719620.64202363
99	21	0	0	90	36.1581920903955	36.241610738255	25	0.833411999978125	2	12	4	NaN	2	5	0.0741725096291569	1	1	NaN	45	1	45	2	121	221	321	NaN	521	0.335766073781997	2	1	NaN	3719621.4922931	NaN	3719622.4756993	3719622.99225703
99	21	0	0	90	36.1581920903955	36.241610738255	15	0.500047199986875	2	3	6	NaN	1	4	0.0741725096291569	1	1	NaN	46	1	46	2	121	221	321	NaN	521	0.253873491194099	1	1	NaN	3719624.1425578	NaN	3719625.1259543	3719625.64252401
99	21	0	0	90	36.1581920903955	36.241610738255	13	0.433374239988625	2	1	1	NaN	1	3	0.0741725096291569	1	1	NaN	47	1	47	2	121	221	321	NaN	521	0.975312726106495	2	0	NaN	3719626.709472	NaN	3719627.6928936	3719628.20943437
99	21	0	0	90	36.1581920903955	36.241610738255	20	0.6667295999825	2	1	4	NaN	1	3	0.0741725096291569	1	1	NaN	48	1	48	2	121	221	321	NaN	521	0.131563774310052	1	1	NaN	3719629.9930227	NaN	3719630.9765302	3719631.49308293
99	21	0	0	90	36.1581920903955	36.241610738255	12	0.4000377599895	2	11	3	NaN	2	5	0.0741725096291569	1	1	NaN	49	1	49	2	121	221	321	NaN	521	0.0491669261828065	2	1	NaN	3719632.4433657	NaN	3719633.4267748	3719633.94333327
99	21	0	0	90	36.1581920903955	36.241610738255	14	0.46671071998775	2	1	5	NaN	1	5	0.0741725096291569	1	1	NaN	50	1	50	2	121	221	321	NaN	521	0.0509475260041654	1	1	NaN	3719635.1936574	NaN	3719636.1770533	3719636.69359917
99	21	0	0	90	36.1581920903955	36.241610738255	0	0	1	4	3	NaN	1	5	0.0741725096291569	1	1	NaN	51	1	51	2	111	211	311	NaN	511	0.388969774357975	1	1	NaN	3719637.9439237	NaN	3719638.9273076	3719639.44387363
99	21	0	0	90	36.1581920903955	36.241610738255	25	0.833411999978125	2	5	3	NaN	1	5	0.0741725096291569	1	1	NaN	52	1	52	2	121	221	321	NaN	521	0.112372973933816	1	1	NaN	3719640.6441973	NaN	3719641.627572	3719642.14413123
99	21	0	0	90	36.1581920903955	36.241610738255	18	0.60005663998425	2	7	5	NaN	2	5	0.0741725096291569	1	1	NaN	53	1	53	2	121	221	321	NaN	521	0.050807926338166	2	1	NaN	3719643.3778775	NaN	3719644.3612376	3719644.87773717
99	21	0	0	90	36.1581920903955	36.241610738255	16	0.533383679986	2	4	4	NaN	1	5	0.0741725096291569	1	1	NaN	54	1	54	2	121	221	321	NaN	521	0.163508421741426	1	1	NaN	3719645.7612367	NaN	3719646.7447623	3719647.26130208
99	21	0	0	90	36.1581920903955	36.241610738255	20	0.6667295999825	2	7	4	NaN	2	3	0.0741725096291569	1	1	NaN	55	1	55	2	121	221	321	NaN	521	0.0956598739139736	2	1	NaN	3719648.2448249	NaN	3719649.2283632	3719649.74488453
99	21	0	0	90	36.1581920903955	36.241610738255	25	0.833411999978125	2	3	2	NaN	1	5	0.0741725096291569	1	1	NaN	56	1	56	2	121	221	321	NaN	521	0.0406537265516818	1	1	NaN	3719651.0118562	NaN	3719651.99517	3719652.51182507
99	21	0	0	90	36.1581920903955	36.241610738255	25	0.833411999978125	2	10	1	NaN	2	4	0.0741725096291569	1	1	NaN	57	1	57	2	121	221	321	NaN	521	0.0893603260628879	2	1	NaN	3719653.3787704	NaN	3719654.3621405	3719654.87872307
99	21	0	0	90	36.1581920903955	36.241610738255	14	0.46671071998775	2	5	4	NaN	1	4	0.0741725096291569	1	1	NaN	58	1	58	2	121	221	321	NaN	521	0.0654532220214605	1	1	NaN	3719655.7789956	NaN	3719656.7623835	3719657.27894958
99	21	0	0	90	36.1581920903955	36.241610738255	13	0.433374239988625	2	8	4	NaN	2	5	0.0741725096291569	1	1	NaN	59	1	59	2	121	221	321	NaN	521	0.0103791784495115	2	1	NaN	3719658.1625802	NaN	3719659.1459678	3719659.66252962
99	21	0	0	90	36.1581920903955	36.241610738255	17	0.566720159985125	2	9	2	NaN	2	3	0.0741725096291569	1	1	NaN	60	1	60	2	121	221	321	NaN	521	0.157331826165318	2	1	NaN	3719660.879482	NaN	3719661.862877	3719662.37947607
99	21	0	0	90	36.1581920903955	36.241610738255	19	0.633393119983375	2	10	2	NaN	2	5	0.0741725096291569	1	1	NaN	61	1	61	2	121	221	321	NaN	521	0.0662849266082048	2	1	NaN	3719663.3463984	NaN	3719664.3298203	3719664.84636527
99	21	0	0	90	36.1581920903955	36.241610738255	21	0.700066079981625	2	2	6	NaN	1	3	0.0741725096291569	1	1	NaN	62	1	62	2	121	221	321	NaN	521	0.234504426363856	2	0	NaN	3719665.7299716	NaN	3719666.7133225	3719667.22993787
99	21	0	0	90	36.1581920903955	36.241610738255	25	0.833411999978125	2	11	5	NaN	2	3	0.0741725096291569	1	1	NaN	63	1	63	2	121	221	321	NaN	521	0.108363578096032	2	1	NaN	3719668.2802358	NaN	3719669.2636223	3719669.78018442
99	21	0	0	90	36.1581920903955	36.241610738255	21	0.700066079981625	2	3	4	NaN	1	3	0.0741725096291569	1	1	NaN	64	2	1	2	121	221	321	NaN	521	0.233101226389408	2	0	NaN	3719735.6036089	NaN	3719736.5869048	3719737.10345987
99	21	0	0	90	36.1581920903955	36.241610738255	19	0.633393119983375	2	1	6	NaN	1	3	0.0741725096291569	1	1	NaN	65	2	2	2	121	221	321	NaN	521	0.0589424218051136	1	1	NaN	3719738.1537567	NaN	3719739.1372263	3719739.65371058
99	21	0	0	90	36.1581920903955	36.241610738255	20	0.6667295999825	2	8	4	NaN	2	5	0.0741725096291569	1	1	NaN	66	2	3	2	121	221	321	NaN	521	0.0356876743026078	2	1	NaN	3719740.5206657	NaN	3719741.504078	3719742.02061283
99	21	0	0	90	36.1581920903955	36.241610738255	16	0.533383679986	2	12	6	NaN	2	3	0.0741725096291569	1	1	NaN	67	2	4	2	121	221	321	NaN	521	0.0156601741909981	2	1	NaN	3719743.0207751	NaN	3719744.0043015	3719744.52085783
99	21	0	0	90	36.1581920903955	36.241610738255	10	0.33336479999125	2	1	5	NaN	1	3	0.0741725096291569	1	1	NaN	68	2	5	2	121	221	321	NaN	521	0.0103918262757361	2	0	NaN	3719745.3378041	NaN	3719746.3211862	3719746.83775357
99	21	0	0	90	36.1581920903955	36.241610738255	0	0	1	6	5	NaN	1	5	0.0741725096291569	1	1	NaN	69	2	6	2	111	211	311	NaN	511	0.0103452829644084	2	0	NaN	3719747.6713627	NaN	3719748.6547616	3719749.17130462
99	21	0	0	90	36.1581920903955	36.241610738255	22	0.73340255998075	2	2	2	NaN	1	3	0.0741725096291569	1	1	NaN	70	2	7	2	121	221	321	NaN	521	0.0564372739754617	1	1	NaN	3719749.9882551	NaN	3719750.9716477	3719751.48820313
99	21	0	0	90	36.1581920903955	36.241610738255	15	0.500047199986875	2	9	3	NaN	2	4	0.0741725096291569	1	1	NaN	71	2	8	2	121	221	321	NaN	521	0.0655757263302803	2	1	NaN	3719752.3552414	NaN	3719753.3385534	3719753.85511727
99	21	0	0	90	36.1581920903955	36.241610738255	7	0.233355359993875	2	6	1	NaN	1	3	0.0741725096291569	1	1	NaN	72	2	9	2	121	221	321	NaN	521	0.073918295558542	2	0	NaN	3719754.7387067	NaN	3719755.7221133	3719756.238677
99	21	0	0	90	36.1581920903955	36.241610738255	7	0.233355359993875	2	2	3	NaN	1	5	0.0741725096291569	1	1	NaN	73	2	10	2	121	221	321	NaN	521	0.274586574174464	1	1	NaN	3719757.1222705	NaN	3719758.1056607	3719758.62223533
99	21	0	0	90	36.1581920903955	36.241610738255	16	0.533383679986	2	1	4	NaN	1	5	0.0741725096291569	1	1	NaN	74	2	11	2	121	221	321	NaN	521	0.0530277914367616	1	1	NaN	3719760.0388393	NaN	3719761.0226361	3719761.53919511
99	21	0	0	90	36.1581920903955	36.241610738255	22	0.73340255998075	2	6	4	NaN	1	4	0.0741725096291569	1	1	NaN	75	2	12	2	121	221	321	NaN	521	0.142577426508069	1	1	NaN	3719762.4060239	NaN	3719763.3895399	3719763.90608367
99	21	0	0	90	36.1581920903955	36.241610738255	17	0.566720159985125	2	3	6	NaN	1	5	0.0741725096291569	1	1	NaN	76	2	13	2	121	221	321	NaN	521	0.171855426393449	1	1	NaN	3719764.8729153	NaN	3719765.8564446	3719766.37299987
99	21	0	0	90	36.1581920903955	36.241610738255	20	0.6667295999825	2	3	2	NaN	1	4	0.0741725096291569	1	1	NaN	77	2	14	2	121	221	321	NaN	521	0.128096874337643	2	0	NaN	3719767.3566318	NaN	3719768.3400248	3719768.85657543
99	21	0	0	90	36.1581920903955	36.241610738255	18	0.60005663998425	2	9	5	NaN	2	5	0.0741725096291569	1	1	NaN	78	2	15	2	121	221	321	NaN	521	0.0103037911467254	2	1	NaN	3719769.7900672	NaN	3719770.7736162	3719771.29017281
99	21	0	0	90	36.1581920903955	36.241610738255	13	0.433374239988625	2	2	4	NaN	1	3	0.0741725096291569	1	1	NaN	79	2	16	2	121	221	321	NaN	521	0.0490874308161438	1	1	NaN	3719772.1237497	NaN	3719773.1070334	3719773.62371917
99	21	0	0	90	36.1581920903955	36.241610738255	18	0.60005663998425	2	7	6	NaN	2	4	0.0741725096291569	1	1	NaN	80	2	17	2	121	221	321	NaN	521	0.13467717403546	2	1	NaN	3719774.5738847	NaN	3719775.557391	3719776.07394773
99	21	0	0	90	36.1581920903955	36.241610738255	9	0.300028319992125	2	5	3	NaN	1	5	0.0741725096291569	1	1	NaN	81	2	18	2	121	221	321	NaN	521	0.010542422067374	1	1	NaN	3719777.0243479	NaN	3719778.0076291	3719778.52418888
99	21	0	0	90	36.1581920903955	36.241610738255	23	0.766739039979875	2	1	5	NaN	1	3	0.0741725096291569	1	1	NaN	82	2	19	2	121	221	321	NaN	521	0.126994422171265	1	1	NaN	3719779.3577875	NaN	3719780.3412235	3719780.85775288
99	21	0	0	90	36.1581920903955	36.241610738255	13	0.433374239988625	2	9	4	NaN	2	5	0.0741725096291569	1	1	NaN	83	2	20	2	121	221	321	NaN	521	0.36433262610808	1	0	NaN	3719781.8080458	NaN	3719782.7914585	3719783.30799807
99	21	0	0	90	36.1581920903955	36.241610738255	24	0.800075519979	2	5	3	NaN	1	4	0.0741725096291569	1	1	NaN	84	2	21	2	121	221	321	NaN	521	0.0572019219398499	1	1	NaN	3719784.4916429	NaN	3719785.475083	3719785.99158538
99	21	0	0	90	36.1581920903955	36.241610738255	10	0.33336479999125	2	3	6	NaN	1	4	0.0741725096291569	1	1	NaN	85	2	22	2	121	221	321	NaN	521	0.849497274495661	1	1	NaN	3719786.8752077	NaN	3719787.858601	3719788.37515233
99	21	0	0	90	36.1581920903955	36.241610738255	24	0.800075519979	2	7	5	NaN	2	4	0.0741725096291569	1	1	NaN	86	2	23	2	121	221	321	NaN	521	0.122594873886555	2	1	NaN	3719790.0421861	NaN	3719791.0255804	3719791.54212953
99	21	0	0	90	36.1581920903955	36.241610738255	22	0.73340255998075	2	7	6	NaN	2	3	0.0741725096291569	1	1	NaN	87	2	24	2	121	221	321	NaN	521	0.0809994265437126	2	1	NaN	3719792.475757	NaN	3719793.4591467	3719793.97571097
99	21	0	0	90	36.1581920903955	36.241610738255	19	0.633393119983375	2	6	5	NaN	1	3	0.0741725096291569	1	1	NaN	88	2	25	2	121	221	321	NaN	521	0.152693774085492	2	0	NaN	3719794.8759924	NaN	3719795.8593999	3719796.37594833
99	21	0	0	90	36.1581920903955	36.241610738255	6	0.20001887999475	2	5	2	NaN	1	4	0.0741725096291569	1	1	NaN	89	2	26	2	121	221	321	NaN	521	0.718315426260233	1	1	NaN	3719797.3428933	NaN	3719798.3262958	3719798.84285417
99	21	0	0	90	36.1581920903955	36.241610738255	17	0.566720159985125	2	8	6	NaN	2	5	0.0741725096291569	1	1	NaN	90	2	27	2	121	221	321	NaN	521	0.996437374036759	2	1	NaN	3719800.3765368	NaN	3719801.3599099	3719801.87648573
99	21	0	0	90	36.1581920903955	36.241610738255	11	0.366701279990375	2	10	5	NaN	2	3	0.0741725096291569	1	1	NaN	91	2	28	2	121	221	321	NaN	521	0.281892026308924	2	1	NaN	3719804.0268601	NaN	3719805.0102968	3719805.52684347
99	21	0	0	90	36.1581920903955	36.241610738255	16	0.533383679986	2	10	5	NaN	2	3	0.0741725096291569	1	1	NaN	92	2	29	2	121	221	321	NaN	521	0.121192426420748	2	1	NaN	3719806.6271619	NaN	3719807.6105406	3719808.12709887
99	21	0	0	90	36.1581920903955	36.241610738255	16	0.533383679986	2	8	4	NaN	2	5	0.0741725096291569	1	1	NaN	93	2	30	2	121	221	321	NaN	521	0.0800027218647301	2	1	NaN	3719809.0607285	NaN	3719810.0441006	3719810.56066358
99	21	0	0	90	36.1581920903955	36.241610738255	16	0.533383679986	2	6	3	NaN	1	4	0.0741725096291569	1	1	NaN	94	2	31	2	121	221	321	NaN	521	0.0479131741449237	1	1	NaN	3719811.46095	NaN	3719812.444353	3719812.96089883
99	21	0	0	90	36.1581920903955	36.241610738255	11	0.366701279990375	2	4	2	NaN	1	4	0.0741725096291569	1	1	NaN	95	2	32	2	121	221	321	NaN	521	0.161085843574256	2	0	NaN	3719814.2280185	NaN	3719815.2112951	3719815.72784946
99	21	0	0	90	36.1581920903955	36.241610738255	25	0.833411999978125	2	2	1	NaN	1	3	0.0741725096291569	1	1	NaN	96	2	33	2	121	221	321	NaN	521	0.213230274152011	1	1	NaN	3719816.7113376	NaN	3719817.6948637	3719818.21141753
99	21	0	0	90	36.1581920903955	36.241610738255	23	0.766739039979875	2	11	5	NaN	2	5	0.0741725096291569	1	1	NaN	97	2	34	2	121	221	321	NaN	521	0.0159864742308855	2	1	NaN	3719819.228476	NaN	3719820.2118548	3719820.72833463
99	21	0	0	90	36.1581920903955	36.241610738255	10	0.33336479999125	2	8	3	NaN	2	4	0.0741725096291569	1	1	NaN	98	2	35	2	121	221	321	NaN	521	0.0188282220624387	2	1	NaN	3719821.561955	NaN	3719822.5454486	3719823.06190198
99	21	0	0	90	36.1581920903955	36.241610738255	11	0.366701279990375	2	9	3	NaN	2	5	0.0741725096291569	1	1	NaN	99	2	36	2	121	221	321	NaN	521	0.101267726160586	2	1	NaN	3719823.8953812	NaN	3719824.8789031	3719825.39546517
99	21	0	0	90	36.1581920903955	36.241610738255	21	0.700066079981625	2	8	2	NaN	2	5	0.0741725096291569	1	1	NaN	100	2	37	2	121	221	321	NaN	521	0.180004221852869	2	1	NaN	3719826.3290855	NaN	3719827.3124707	3719827.82903268
99	21	0	0	90	36.1581920903955	36.241610738255	17	0.566720159985125	2	8	4	NaN	2	5	0.0741725096291569	1	1	NaN	101	2	38	2	121	221	321	NaN	521	0.127500626258552	2	1	NaN	3719828.8293248	NaN	3719829.8127498	3719830.32927737
99	21	0	0	90	36.1581920903955	36.241610738255	24	0.800075519979	2	5	5	NaN	1	4	0.0741725096291569	1	1	NaN	102	2	39	2	121	221	321	NaN	521	0.157442348077893	1	1	NaN	3719831.2795752	NaN	3719832.2629427	3719832.77953945
99	21	0	0	90	36.1581920903955	36.241610738255	24	0.800075519979	2	11	2	NaN	2	3	0.0741725096291569	1	1	NaN	103	2	40	2	121	221	321	NaN	521	0.170332139357924	2	1	NaN	3719833.7464807	NaN	3719834.7299021	3719835.24643676
99	21	0	0	90	36.1581920903955	36.241610738255	9	0.300028319992125	2	4	2	NaN	1	5	0.0741725096291569	1	1	NaN	104	2	41	2	121	221	321	NaN	521	1.20705497451127	2	0	NaN	3719836.2300588	NaN	3719837.2134447	3719837.73000163
99	21	0	0	90	36.1581920903955	36.241610738255	10	0.33336479999125	2	1	2	NaN	1	3	0.0741725096291569	1	1	NaN	105	2	42	2	121	221	321	NaN	521	0.0818570265546441	1	1	NaN	3719839.7470617	NaN	3719840.7304509	3719841.24702077
99	21	0	0	90	36.1581920903955	36.241610738255	24	0.800075519979	2	10	6	NaN	2	3	0.0741725096291569	1	1	NaN	106	2	43	2	121	221	321	NaN	521	0.241783186793327	2	1	NaN	3719842.1473132	NaN	3719843.1306978	3719843.64725731
99	21	0	0	90	36.1581920903955	36.241610738255	24	0.800075519979	2	7	5	NaN	2	3	0.0741725096291569	1	1	NaN	107	2	44	2	121	221	321	NaN	521	0.315526621881872	2	1	NaN	3719844.6974287	NaN	3719845.6809299	3719846.19750168
99	21	0	0	90	36.1581920903955	36.241610738255	7	0.233355359993875	2	7	5	NaN	2	4	0.0741725096291569	1	1	NaN	108	2	45	2	121	221	321	NaN	521	0.0816701259464025	2	1	NaN	3719847.3311628	NaN	3719848.3145313	3719848.83109427
99	21	0	0	90	36.1581920903955	36.241610738255	15	0.500047199986875	2	2	4	NaN	1	5	0.0741725096291569	1	1	NaN	109	2	46	2	121	221	321	NaN	521	0.457470143213868	2	0	NaN	3719849.731379	NaN	3719850.714771	3719851.23133516
99	21	0	0	90	36.1581920903955	36.241610738255	21	0.700066079981625	2	9	3	NaN	2	3	0.0741725096291569	1	1	NaN	110	2	47	2	121	221	321	NaN	521	0.0104076261632144	2	1	NaN	3719852.4982793	NaN	3719853.4817137	3719853.99827007
99	21	0	0	90	36.1581920903955	36.241610738255	8	0.266691839993	2	1	3	NaN	1	5	0.0741725096291569	1	1	NaN	111	2	48	2	121	221	321	NaN	521	0.0937558221630752	1	1	NaN	3719854.8152012	NaN	3719855.7986073	3719856.31516308
99	21	0	0	90	36.1581920903955	36.241610738255	6	0.20001887999475	2	11	3	NaN	2	5	0.0741725096291569	1	1	NaN	112	2	49	2	121	221	321	NaN	521	0.125588573981076	2	1	NaN	3719857.215438	NaN	3719858.1988528	3719858.71539303
99	21	0	0	90	36.1581920903955	36.241610738255	25	0.833411999978125	2	1	3	NaN	1	4	0.0741725096291569	1	1	NaN	113	2	50	2	121	221	321	NaN	521	0.139840374235064	2	0	NaN	3719859.6489625	NaN	3719860.6324189	3719861.14897023
99	21	0	0	90	36.1581920903955	36.241610738255	12	0.4000377599895	2	9	6	NaN	2	4	0.0741725096291569	1	1	NaN	114	2	51	2	121	221	321	NaN	521	0.281615226529539	2	1	NaN	3719862.099136	NaN	3719863.0826251	3719863.59921077
99	21	0	0	90	36.1581920903955	36.241610738255	8	0.266691839993	2	12	3	NaN	2	4	0.0741725096291569	1	1	NaN	115	2	52	2	121	221	321	NaN	521	0.0572920264676213	2	1	NaN	3719864.6995122	NaN	3719865.6829089	3719866.19946737
99	21	0	0	90	36.1581920903955	36.241610738255	8	0.266691839993	2	6	5	NaN	1	3	0.0741725096291569	1	1	NaN	116	2	53	2	121	221	321	NaN	521	0.114359026309103	2	0	NaN	3719867.0664257	NaN	3719868.0498045	3719868.56636727
99	21	0	0	90	36.1581920903955	36.241610738255	20	0.6667295999825	2	10	5	NaN	2	5	0.0741725096291569	1	1	NaN	117	2	54	2	121	221	321	NaN	521	0.136437374167144	2	1	NaN	3719869.5165861	NaN	3719870.5000525	3719871.01660783
99	21	0	0	90	36.1581920903955	36.241610738255	23	0.766739039979875	2	5	5	NaN	1	4	0.0741725096291569	1	1	NaN	118	2	55	2	121	221	321	NaN	521	0.105885174125433	1	1	NaN	3719872.267041	NaN	3719873.2503171	3719873.76687053
99	21	0	0	90	36.1581920903955	36.241610738255	9	0.300028319992125	2	9	5	NaN	2	3	0.0741725096291569	1	1	NaN	119	2	56	2	121	221	321	NaN	521	0.121710474137217	2	1	NaN	3719875.0672104	NaN	3719876.0506052	3719876.56715023
99	21	0	0	90	36.1581920903955	36.241610738255	25	0.833411999978125	2	10	3	NaN	2	5	0.0741725096291569	1	1	NaN	120	2	57	2	121	221	321	NaN	521	0.233171591069549	2	1	NaN	3719877.8841792	NaN	3719878.8675111	3719879.38409721
99	21	0	0	90	36.1581920903955	36.241610738255	10	0.33336479999125	2	7	5	NaN	2	3	0.0741725096291569	1	1	NaN	121	2	58	2	121	221	321	NaN	521	0.0983464871533215	2	1	NaN	3719880.4343894	NaN	3719881.4177912	3719881.93435871
99	21	0	0	90	36.1581920903955	36.241610738255	15	0.500047199986875	2	1	6	NaN	1	3	0.0741725096291569	1	1	NaN	122	2	59	2	121	221	321	NaN	521	0.0568968262523413	1	1	NaN	3719882.8679833	NaN	3719883.8513856	3719884.36791517
99	21	0	0	90	36.1581920903955	36.241610738255	21	0.700066079981625	2	12	5	NaN	2	4	0.0741725096291569	1	1	NaN	123	2	60	2	121	221	321	NaN	521	0.123973174020648	2	1	NaN	3719885.5847825	NaN	3719886.5683655	3719887.08484763
99	21	0	0	90	36.1581920903955	36.241610738255	18	0.60005663998425	2	5	4	NaN	1	4	0.0741725096291569	1	1	NaN	124	2	61	2	121	221	321	NaN	521	0.122449222020805	1	1	NaN	3719888.0184691	NaN	3719889.0018655	3719889.51842038
99	21	0	0	90	36.1581920903955	36.241610738255	7	0.233355359993875	2	11	3	NaN	2	3	0.0741725096291569	1	1	NaN	125	2	62	2	121	221	321	NaN	521	0.178613926749676	2	1	NaN	3719890.80205	NaN	3719891.7854852	3719892.30202807
99	21	0	0	90	36.1581920903955	36.241610738255	22	0.73340255998075	2	3	3	NaN	1	3	0.0741725096291569	1	1	NaN	126	2	63	2	121	221	321	NaN	521	0.225472726393491	1	1	NaN	3719893.6356565	NaN	3719894.6190846	3719895.13564027
99	21	0	0	90	36.1581920903955	36.241610738255	16	0.533383679986	2	4	1	NaN	1	5	0.0741725096291569	1	1	NaN	127	3	1	2	121	221	321	NaN	521	0.190995526034385	2	0	NaN	3719966.326036	NaN	3719967.3095536	3719967.82610847
99	21	0	0	90	36.1581920903955	36.241610738255	6	0.20001887999475	2	4	6	NaN	1	3	0.0741725096291569	1	1	NaN	128	3	2	2	121	221	321	NaN	521	0.210206722375005	2	0	NaN	3719968.8262738	NaN	3719969.8097991	3719970.32635828
99	21	0	0	90	36.1581920903955	36.241610738255	11	0.366701279990375	2	1	3	NaN	1	4	0.0741725096291569	1	1	NaN	129	3	3	2	121	221	321	NaN	521	0.148985378444195	1	1	NaN	3719971.3599852	NaN	3719972.3433677	3719972.85994212
99	21	0	0	90	36.1581920903955	36.241610738255	18	0.60005663998425	2	10	3	NaN	2	3	0.0741725096291569	1	1	NaN	130	3	4	2	121	221	321	NaN	521	0.609711774624884	2	1	NaN	3719973.8268982	NaN	3719974.8102792	3719975.32683983
99	21	0	0	90	36.1581920903955	36.241610738255	16	0.533383679986	2	11	4	NaN	2	4	0.0741725096291569	1	1	NaN	131	3	5	2	121	221	321	NaN	521	0.973421473987401	2	1	NaN	3719976.7438615	NaN	3719977.7272442	3719978.24380373
99	21	0	0	90	36.1581920903955	36.241610738255	13	0.433374239988625	2	5	6	NaN	1	3	0.0741725096291569	1	1	NaN	132	3	6	2	121	221	321	NaN	521	0.233616574201733	1	1	NaN	3719980.0274069	NaN	3719981.0109013	3719981.52745313
99	21	0	0	90	36.1581920903955	36.241610738255	22	0.73340255998075	2	12	5	NaN	2	5	0.0741725096291569	1	1	NaN	133	3	7	2	121	221	321	NaN	521	0.17330227419734	2	1	NaN	3719982.9276618	NaN	3719983.9112033	3719984.42774123
99	21	0	0	90	36.1581920903955	36.241610738255	15	0.500047199986875	2	8	4	NaN	2	5	0.0741725096291569	1	1	NaN	134	3	8	2	121	221	321	NaN	521	0.185578326229006	2	1	NaN	3719985.4113591	NaN	3719986.3947632	3719986.91132407
99	21	0	0	90	36.1581920903955	36.241610738255	18	0.60005663998425	2	1	6	NaN	1	5	0.0741725096291569	1	1	NaN	135	3	9	2	121	221	321	NaN	521	5.22976652625948	2	0	NaN	3719987.9116105	NaN	3719988.8950092	3719989.41156627
99	21	0	0	90	36.1581920903955	36.241610738255	9	0.300028319992125	2	1	1	NaN	1	3	0.0741725096291569	1	1	NaN	136	3	10	2	121	221	321	NaN	521	0.150744474492967	2	0	NaN	3719995.4623575	NaN	3719996.4457493	3719996.96230943
99	21	0	0	90	36.1581920903955	36.241610738255	8	0.266691839993	2	9	5	NaN	2	3	0.0741725096291569	1	1	NaN	137	3	11	2	121	221	321	NaN	521	0.262019274290651	2	1	NaN	3719998.2792987	NaN	3719999.2626865	3719999.77924323
99	21	0	0	90	36.1581920903955	36.241610738255	19	0.633393119983375	2	5	1	NaN	1	4	0.0741725096291569	1	1	NaN	138	3	12	2	121	221	321	NaN	521	0.0543011263944209	1	1	NaN	3720000.8627541	NaN	3720001.8462722	3720002.36283617
99	21	0	0	90	36.1581920903955	36.241610738255	10	0.33336479999125	2	9	4	NaN	2	3	0.0741725096291569	1	1	NaN	139	3	13	2	121	221	321	NaN	521	0.0793444742448628	1	0	NaN	3720003.229665	NaN	3720004.2131765	3720004.72972963
99	21	0	0	90	36.1581920903955	36.241610738255	9	0.300028319992125	2	10	2	NaN	2	3	0.0741725096291569	1	1	NaN	140	3	14	2	121	221	321	NaN	521	0.121853026095778	2	1	NaN	3720005.9633582	NaN	3720006.9467735	3720007.46333837
99	21	0	0	90	36.1581920903955	36.241610738255	22	0.73340255998075	2	9	1	NaN	2	4	0.0741725096291569	1	1	NaN	141	3	15	2	121	221	321	NaN	521	0.384084678720683	2	1	NaN	3720008.3969517	NaN	3720009.3803459	3720009.89691232
99	21	0	0	90	36.1581920903955	36.241610738255	18	0.60005663998425	2	1	4	NaN	1	4	0.0741725096291569	1	1	NaN	142	3	16	2	121	221	321	NaN	521	0.211906826123595	2	0	NaN	3720011.0972242	NaN	3720012.0805953	3720012.59717227
99	21	0	0	90	36.1581920903955	36.241610738255	7	0.233355359993875	2	9	2	NaN	2	5	0.0741725096291569	1	1	NaN	143	3	17	2	121	221	321	NaN	521	0.0303575741127133	2	1	NaN	3720013.6307668	NaN	3720014.614202	3720015.13075703
99	21	0	0	90	36.1581920903955	36.241610738255	13	0.433374239988625	2	4	4	NaN	1	3	0.0741725096291569	1	1	NaN	144	3	18	2	121	221	321	NaN	521	0.16229102620855	2	0	NaN	3720016.3309563	NaN	3720017.3144676	3720017.83102187
99	21	0	0	90	36.1581920903955	36.241610738255	14	0.46671071998775	2	8	5	NaN	2	4	0.0741725096291569	1	1	NaN	145	3	19	2	121	221	321	NaN	521	0.110403826460242	1	0	NaN	3720018.8146615	NaN	3720019.7980447	3720020.31459987
99	21	0	0	90	36.1581920903955	36.241610738255	24	0.800075519979	2	6	6	NaN	1	4	0.0741725096291569	1	1	NaN	146	3	20	2	121	221	321	NaN	521	0.0768149262294173	1	1	NaN	3720021.248217	NaN	3720022.2316106	3720022.74816887
99	21	0	0	90	36.1581920903955	36.241610738255	0	0	1	3	3	NaN	1	4	0.0741725096291569	1	1	NaN	147	3	21	2	111	211	311	NaN	511	0.0693180742673576	2	0	NaN	3720023.6317832	NaN	3720024.6151809	3720025.13174273
99	21	0	0	90	36.1581920903955	36.241610738255	11	0.366701279990375	2	12	6	NaN	2	3	0.0741725096291569	1	1	NaN	148	3	22	2	121	221	321	NaN	521	0.101762174163014	2	1	NaN	3720026.015293	NaN	3720026.9987525	3720027.51529773
99	21	0	0	90	36.1581920903955	36.241610738255	0	0	1	6	6	NaN	1	3	0.0741725096291569	1	1	NaN	149	3	23	2	111	211	311	NaN	511	0.0608119261451066	1	1	NaN	3720028.4322511	NaN	3720029.4156403	3720029.93221197
99	21	0	0	90	36.1581920903955	36.241610738255	24	0.800075519979	2	1	2	NaN	1	5	0.0741725096291569	1	1	NaN	150	3	24	2	121	221	321	NaN	521	0.182169974315912	1	1	NaN	3720030.799125	NaN	3720031.782548	3720032.29910613
99	21	0	0	90	36.1581920903955	36.241610738255	21	0.700066079981625	2	7	3	NaN	2	4	0.0741725096291569	1	1	NaN	151	3	25	2	121	221	321	NaN	521	0.0417506266385317	1	0	NaN	3720033.2994132	NaN	3720034.2828067	3720034.79935327
99	21	0	0	90	36.1581920903955	36.241610738255	9	0.300028319992125	2	11	1	NaN	2	3	0.0741725096291569	1	1	NaN	152	3	26	2	121	221	321	NaN	521	0.0115527221933007	2	1	NaN	3720035.6496261	NaN	3720036.633044	3720037.14958108
99	21	0	0	90	36.1581920903955	36.241610738255	19	0.633393119983375	2	8	5	NaN	2	3	0.0741725096291569	1	1	NaN	153	3	27	2	121	221	321	NaN	521	0.0104078738950193	2	1	NaN	3720037.9665522	NaN	3720038.9499101	3720039.46647523
99	21	0	0	90	36.1581920903955	36.241610738255	25	0.833411999978125	2	6	1	NaN	1	4	0.0741725096291569	1	1	NaN	154	3	28	2	121	221	321	NaN	521	0.128983126487583	1	1	NaN	3720040.3000768	NaN	3720041.2834905	3720041.80004077
99	21	0	0	90	36.1581920903955	36.241610738255	19	0.633393119983375	2	12	3	NaN	2	3	0.0741725096291569	1	1	NaN	155	3	29	2	121	221	321	NaN	521	0.0554871265776455	2	1	NaN	3720042.7336886	NaN	3720043.7170548	3720044.23361327
99	21	0	0	90	36.1581920903955	36.241610738255	12	0.4000377599895	2	7	1	NaN	2	5	0.0741725096291569	1	1	NaN	156	3	30	2	121	221	321	NaN	521	0.59249328263104	2	1	NaN	3720045.1005547	NaN	3720046.0839608	3720046.60051902
99	21	0	0	90	36.1581920903955	36.241610738255	25	0.833411999978125	2	4	2	NaN	1	4	0.0741725096291569	1	1	NaN	157	3	31	2	121	221	321	NaN	521	0.1723876260221	2	0	NaN	3720048.0008348	NaN	3720048.9842334	3720049.50079427
99	21	0	0	90	36.1581920903955	36.241610738255	0	0	1	4	5	NaN	1	3	0.0741725096291569	1	1	NaN	158	3	32	2	111	211	311	NaN	511	0.136692626401782	2	0	NaN	3720050.484439	NaN	3720051.467828	3720051.98437827
99	21	0	0	90	36.1581920903955	36.241610738255	8	0.266691839993	2	2	2	NaN	1	3	0.0741725096291569	1	1	NaN	159	3	33	2	121	221	321	NaN	521	0.222362426575273	1	1	NaN	3720052.9345928	NaN	3720053.9180579	3720054.43461177
99	21	0	0	90	36.1581920903955	36.241610738255	0	0	1	11	2	NaN	2	5	0.0741725096291569	1	1	NaN	160	3	34	2	111	211	311	NaN	511	0.0104079744778574	2	1	NaN	3720055.4681195	NaN	3720056.4516365	3720056.96819803
99	21	0	0	90	36.1581920903955	36.241610738255	24	0.800075519979	2	9	1	NaN	2	4	0.0741725096291569	1	1	NaN	161	3	35	2	121	221	321	NaN	521	0.107387322001159	2	1	NaN	3720057.801761	NaN	3720058.7851922	3720059.30175808
99	21	0	0	90	36.1581920903955	36.241610738255	24	0.800075519979	2	12	5	NaN	2	3	0.0741725096291569	1	1	NaN	162	3	36	2	121	221	321	NaN	521	0.0104163740761578	2	1	NaN	3720060.2186852	NaN	3720061.2021109	3720061.71865953
99	21	0	0	90	36.1581920903955	36.241610738255	25	0.833411999978125	2	4	5	NaN	1	3	0.0741725096291569	1	1	NaN	163	3	37	2	121	221	321	NaN	521	0.0216007260605693	1	1	NaN	3720062.5355968	NaN	3720063.5190348	3720064.03555137
99	21	0	0	90	36.1581920903955	36.241610738255	8	0.266691839993	2	6	3	NaN	1	3	0.0741725096291569	1	1	NaN	164	3	38	2	121	221	321	NaN	521	0.120179574005306	1	1	NaN	3720064.8691662	NaN	3720065.8526065	3720066.36911713
99	21	0	0	90	36.1581920903955	36.241610738255	6	0.20001887999475	2	1	2	NaN	1	4	0.0741725096291569	1	1	NaN	165	3	39	2	121	221	321	NaN	521	0.110513226129115	1	1	NaN	3720067.3027328	NaN	3720068.2861374	3720068.80271117
99	21	0	0	90	36.1581920903955	36.241610738255	17	0.566720159985125	2	7	3	NaN	2	4	0.0741725096291569	1	1	NaN	166	3	40	2	121	221	321	NaN	521	0.0104069737717509	2	1	NaN	3720069.7196367	NaN	3720070.7030576	3720071.21959803
99	21	0	0	90	36.1581920903955	36.241610738255	8	0.266691839993	2	5	6	NaN	1	4	0.0741725096291569	1	1	NaN	167	3	41	2	121	221	321	NaN	521	0.256593978498131	1	1	NaN	3720072.0364035	NaN	3720073.0199406	3720073.53649582
99	21	0	0	90	36.1581920903955	36.241610738255	13	0.433374239988625	2	11	1	NaN	2	4	0.0741725096291569	1	1	NaN	168	3	42	2	121	221	321	NaN	521	0.121776674408466	2	1	NaN	3720074.6034553	NaN	3720075.5868459	3720076.10340893
99	21	0	0	90	36.1581920903955	36.241610738255	17	0.566720159985125	2	10	2	NaN	2	5	0.0741725096291569	1	1	NaN	169	3	43	2	121	221	321	NaN	521	0.0561552783474326	2	1	NaN	3720077.0369408	NaN	3720078.0203485	3720078.53697512
99	21	0	0	90	36.1581920903955	36.241610738255	17	0.566720159985125	2	7	5	NaN	2	4	0.0741725096291569	1	1	NaN	170	3	44	2	121	221	321	NaN	521	0.0103976260870695	1	0	NaN	3720079.403927	NaN	3720080.3873466	3720080.90388017
99	21	0	0	90	36.1581920903955	36.241610738255	8	0.266691839993	2	1	4	NaN	1	3	0.0741725096291569	1	1	NaN	171	3	45	2	121	221	321	NaN	521	0.0103947259485722	1	1	NaN	3720081.7374749	NaN	3720082.7208846	3720083.23744367
99	21	0	0	90	36.1581920903955	36.241610738255	20	0.6667295999825	2	1	1	NaN	1	3	0.0741725096291569	1	1	NaN	172	3	46	2	121	221	321	NaN	521	0.182229374069721	1	1	NaN	3720084.0710656	NaN	3720085.0544472	3720085.57099823
99	21	0	0	90	36.1581920903955	36.241610738255	13	0.433374239988625	2	6	4	NaN	1	5	0.0741725096291569	1	1	NaN	173	3	47	2	121	221	321	NaN	521	0.12184592615813	1	1	NaN	3720086.5712871	NaN	3720087.5546911	3720088.07125107
99	21	0	0	90	36.1581920903955	36.241610738255	15	0.500047199986875	2	2	2	NaN	1	3	0.0741725096291569	1	1	NaN	174	3	48	2	121	221	321	NaN	521	0.264988373965025	1	1	NaN	3720089.3882122	NaN	3720090.3716401	3720090.88818973
99	21	0	0	90	36.1581920903955	36.241610738255	13	0.433374239988625	2	7	3	NaN	2	4	0.0741725096291569	1	1	NaN	175	3	49	2	121	221	321	NaN	521	0.11340283928439	2	1	NaN	3720091.9718163	NaN	3720092.9551533	3720093.47178426
99	21	0	0	90	36.1581920903955	36.241610738255	13	0.433374239988625	2	3	6	NaN	1	3	0.0741725096291569	1	1	NaN	176	3	50	2	121	221	321	NaN	521	0.0103934262879193	2	0	NaN	3720094.4053924	NaN	3720095.3887962	3720095.90535347
99	21	0	0	90	36.1581920903955	36.241610738255	12	0.4000377599895	2	3	5	NaN	1	3	0.0741725096291569	1	1	NaN	177	3	51	2	121	221	321	NaN	521	0.0909101259894669	1	1	NaN	3720097.1223066	NaN	3720098.1057281	3720098.62228567
99	21	0	0	90	36.1581920903955	36.241610738255	12	0.4000377599895	2	1	2	NaN	1	5	0.0741725096291569	1	1	NaN	178	3	52	2	121	221	321	NaN	521	0.0340463742613792	1	1	NaN	3720099.9392662	NaN	3720100.9226604	3720101.43922183
99	21	0	0	90	36.1581920903955	36.241610738255	25	0.833411999978125	2	5	1	NaN	1	5	0.0741725096291569	1	1	NaN	179	3	53	2	121	221	321	NaN	521	0.0283324220217764	1	1	NaN	3720102.2729236	NaN	3720103.2562342	3720103.77279508
99	21	0	0	90	36.1581920903955	36.241610738255	16	0.533383679986	2	9	2	NaN	2	3	0.0741725096291569	1	1	NaN	180	3	54	2	121	221	321	NaN	521	0.159076874144375	1	0	NaN	3720104.6063851	NaN	3720105.5897938	3720106.10634793
99	21	0	0	90	36.1581920903955	36.241610738255	16	0.533383679986	2	1	6	NaN	1	3	0.0741725096291569	1	1	NaN	181	3	55	2	121	221	321	NaN	521	0.0506494259461761	1	1	NaN	3720107.1066221	NaN	3720108.0900449	3720108.60659747
99	21	0	0	90	36.1581920903955	36.241610738255	25	0.833411999978125	2	3	4	NaN	1	3	0.0741725096291569	1	1	NaN	182	3	56	2	121	221	321	NaN	521	0.187830726150423	1	1	NaN	3720109.4735511	NaN	3720110.4569242	3720110.97350227
99	21	0	0	90	36.1581920903955	36.241610738255	11	0.366701279990375	2	8	4	NaN	2	5	0.0741725096291569	1	1	NaN	183	3	57	2	121	221	321	NaN	521	0.255504322238266	2	1	NaN	3720111.9737894	NaN	3720112.9571857	3720113.47373958
99	21	0	0	90	36.1581920903955	36.241610738255	16	0.533383679986	2	6	1	NaN	1	4	0.0741725096291569	1	1	NaN	184	3	58	2	121	221	321	NaN	521	0.144359074067324	1	1	NaN	3720114.5407079	NaN	3720115.5240926	3720116.04065443
99	21	0	0	90	36.1581920903955	36.241610738255	9	0.300028319992125	2	3	3	NaN	1	4	0.0741725096291569	1	1	NaN	185	3	59	2	121	221	321	NaN	521	0.149818026460707	1	1	NaN	3720117.0076145	NaN	3720117.9910288	3720118.50757107
99	21	0	0	90	36.1581920903955	36.241610738255	6	0.20001887999475	2	1	4	NaN	1	4	0.0741725096291569	1	1	NaN	186	3	60	2	121	221	321	NaN	521	0.0988001739606261	1	1	NaN	3720119.4745123	NaN	3720120.4579265	3720120.97447243
99	21	0	0	90	36.1581920903955	36.241610738255	21	0.700066079981625	2	6	1	NaN	1	4	0.0741725096291569	1	1	NaN	187	3	61	2	121	221	321	NaN	521	0.186621382832527	1	1	NaN	3720122.8747632	NaN	3720123.8582533	3720124.37481692
99	21	0	0	90	36.1581920903955	36.241610738255	23	0.766739039979875	2	9	1	NaN	2	5	0.0741725096291569	1	1	NaN	188	3	62	2	121	221	321	NaN	521	0.190138922072947	2	1	NaN	3720125.3749844	NaN	3720126.3585061	3720126.87505438
99	21	0	0	90	36.1581920903955	36.241610738255	17	0.566720159985125	2	1	5	NaN	1	4	0.0741725096291569	1	1	NaN	189	3	63	2	121	221	321	NaN	521	0.163694926071912	1	1	NaN	3720128.4252907	NaN	3720129.4087922	3720129.92535847
99	21	0	0	90	36.1581920903955	36.241610738255	7	0.233355359993875	2	12	3	NaN	2	4	0.0741725096291569	1	1	NaN	190	4	1	2	121	221	321	NaN	521	0.138525926508009	2	1	NaN	3720135.6427852	NaN	3720136.6261811	3720137.14273757
99	21	0	0	90	36.1581920903955	36.241610738255	23	0.766739039979875	2	11	6	NaN	2	5	0.0741725096291569	1	1	NaN	191	4	2	2	121	221	321	NaN	521	0.0803285739384592	2	1	NaN	3720138.0930326	NaN	3720139.0764157	3720139.59297303
99	21	0	0	90	36.1581920903955	36.241610738255	25	0.833411999978125	2	2	3	NaN	1	3	0.0741725096291569	1	1	NaN	192	4	3	2	121	221	321	NaN	521	0.0539994263090193	1	1	NaN	3720140.5432659	NaN	3720141.5266583	3720142.04321607
99	21	0	0	90	36.1581920903955	36.241610738255	23	0.766739039979875	2	12	2	NaN	2	5	0.0741725096291569	1	1	NaN	193	4	4	2	121	221	321	NaN	521	0.175154274329543	2	1	NaN	3720142.910044	NaN	3720143.8935742	3720144.41011933
99	21	0	0	90	36.1581920903955	36.241610738255	15	0.500047199986875	2	1	2	NaN	1	4	0.0741725096291569	1	1	NaN	194	4	5	2	121	221	321	NaN	521	0.08301762631163	1	1	NaN	3720145.4103058	NaN	3720146.3937952	3720146.91037597
99	21	0	0	90	36.1581920903955	36.241610738255	12	0.4000377599895	2	11	1	NaN	2	5	0.0741725096291569	1	1	NaN	195	4	6	2	121	221	321	NaN	521	0.0986024742014706	2	1	NaN	3720148.2107136	NaN	3720149.194076	3720149.71063883
99	21	0	0	90	36.1581920903955	36.241610738255	17	0.566720159985125	2	5	3	NaN	1	4	0.0741725096291569	1	1	NaN	196	4	7	2	121	221	321	NaN	521	0.0104245217517018	1	1	NaN	3720150.6107913	NaN	3720151.5943355	3720152.11086248
99	21	0	0	90	36.1581920903955	36.241610738255	21	0.700066079981625	2	10	1	NaN	2	4	0.0741725096291569	1	1	NaN	197	4	8	2	121	221	321	NaN	521	0.354772274382412	2	1	NaN	3720153.3945004	NaN	3720154.3779106	3720154.89447623
99	21	0	0	90	36.1581920903955	36.241610738255	9	0.300028319992125	2	8	5	NaN	2	4	0.0741725096291569	1	1	NaN	198	4	9	2	121	221	321	NaN	521	0.0315319262444973	1	0	NaN	3720156.0614792	NaN	3720157.044836	3720157.56140137
99	21	0	0	90	36.1581920903955	36.241610738255	20	0.6667295999825	2	4	1	NaN	1	3	0.0741725096291569	1	1	NaN	199	4	10	2	121	221	321	NaN	521	7.48264928720891	1	1	NaN	3720158.3948931	NaN	3720159.3784529	3720159.89497011
99	21	0	0	90	36.1581920903955	36.241610738255	8	0.266691839993	2	7	4	NaN	2	4	0.0741725096291569	1	1	NaN	200	4	11	2	121	221	321	NaN	521	0.967896674294025	2	1	NaN	3720168.4293039	NaN	3720169.4127289	3720169.92929233
99	21	0	0	90	36.1581920903955	36.241610738255	9	0.300028319992125	2	6	5	NaN	1	3	0.0741725096291569	1	1	NaN	201	4	12	2	121	221	321	NaN	521	0.564437326043844	1	1	NaN	3720171.7129769	NaN	3720172.6963873	3720173.21294667
99	21	0	0	90	36.1581920903955	36.241610738255	10	0.33336479999125	2	7	4	NaN	2	4	0.0741725096291569	1	1	NaN	202	4	13	2	121	221	321	NaN	521	0.210150226019323	2	1	NaN	3720175.1629384	NaN	3720176.1467218	3720176.66328227
99	21	0	0	90	36.1581920903955	36.241610738255	19	0.633393119983375	2	4	5	NaN	1	5	0.0741725096291569	1	1	NaN	203	4	14	2	121	221	321	NaN	521	0.450556074269116	2	0	NaN	3720177.947006	NaN	3720178.9303387	3720179.44688783
99	21	0	0	90	36.1581920903955	36.241610738255	13	0.433374239988625	2	12	4	NaN	2	4	0.0741725096291569	1	1	NaN	204	4	15	2	121	221	321	NaN	521	0.609936317428946	2	1	NaN	3720182.1473529	NaN	3720183.1307519	3720183.64729708
99	21	0	0	90	36.1581920903955	36.241610738255	21	0.700066079981625	2	9	6	NaN	2	4	0.0741725096291569	1	1	NaN	205	4	16	2	121	221	321	NaN	521	0.204135426320136	2	1	NaN	3720204.2494889	NaN	3720205.2329155	3720205.74947307
99	21	0	0	90	36.1581920903955	36.241610738255	9	0.300028319992125	2	2	5	NaN	1	3	0.0741725096291569	1	1	NaN	206	4	17	2	121	221	321	NaN	521	0.174991721753031	1	1	NaN	3720206.7664372	NaN	3720207.7498326	3720208.26638598
99	21	0	0	90	36.1581920903955	36.241610738255	19	0.633393119983375	2	11	2	NaN	2	5	0.0741725096291569	1	1	NaN	207	4	18	2	121	221	321	NaN	521	0.322479674126953	2	1	NaN	3720209.2666703	NaN	3720210.2500737	3720210.76663623
99	21	0	0	90	36.1581920903955	36.241610738255	7	0.233355359993875	2	10	3	NaN	2	4	0.0741725096291569	1	1	NaN	208	4	19	2	121	221	321	NaN	521	0.109086626209319	2	1	NaN	3720212.2001905	NaN	3720213.1836961	3720213.70025507
99	21	0	0	90	36.1581920903955	36.241610738255	22	0.73340255998075	2	9	4	NaN	2	5	0.0741725096291569	1	1	NaN	209	4	20	2	121	221	321	NaN	521	2.22228782624006	2	1	NaN	3720214.9672093	NaN	3720215.9506141	3720216.46718947
99	21	0	0	90	36.1581920903955	36.241610738255	16	0.533383679986	2	3	4	NaN	1	3	0.0741725096291569	1	1	NaN	210	4	21	2	121	221	321	NaN	521	0.304273122455925	1	1	NaN	3720219.5010837	NaN	3720220.4844161	3720221.00096418
99	21	0	0	90	36.1581920903955	36.241610738255	6	0.20001887999475	2	12	4	NaN	2	5	0.0741725096291569	1	1	NaN	211	4	22	2	121	221	321	NaN	521	0.617371526081115	2	1	NaN	3720222.4679431	NaN	3720223.451375	3720223.96792847
99	21	0	0	90	36.1581920903955	36.241610738255	22	0.73340255998075	2	10	2	NaN	2	4	0.0741725096291569	1	1	NaN	212	4	23	2	121	221	321	NaN	521	0.25984702212736	2	1	NaN	3720225.8016026	NaN	3720226.78506	3720227.30157938
99	21	0	0	90	36.1581920903955	36.241610738255	10	0.33336479999125	2	2	4	NaN	1	5	0.0741725096291569	1	1	NaN	213	4	24	2	121	221	321	NaN	521	0.933344274293631	2	0	NaN	3720228.7518919	NaN	3720229.7352907	3720230.25188013
99	21	0	0	90	36.1581920903955	36.241610738255	19	0.633393119983375	2	6	6	NaN	1	4	0.0741725096291569	1	1	NaN	214	4	25	2	121	221	321	NaN	521	0.163236574269831	1	1	NaN	3720232.002126	NaN	3720232.9856432	3720233.50219353
99	21	0	0	90	36.1581920903955	36.241610738255	0	0	1	12	2	NaN	2	4	0.0741725096291569	1	1	NaN	215	4	26	2	111	211	311	NaN	511	0.105567025952041	2	1	NaN	3720234.8358245	NaN	3720235.8192518	3720236.33581107
99	21	0	0	90	36.1581920903955	36.241610738255	11	0.366701279990375	2	8	1	NaN	2	4	0.0741725096291569	1	1	NaN	216	4	27	2	121	221	321	NaN	521	0.0825129263103008	2	1	NaN	3720237.6027588	NaN	3720238.5861826	3720239.10274467
99	21	0	0	90	36.1581920903955	36.241610738255	12	0.4000377599895	2	5	5	NaN	1	3	0.0741725096291569	1	1	NaN	217	4	28	2	121	221	321	NaN	521	0.0103915263898671	1	1	NaN	3720240.0030221	NaN	3720240.986426	3720241.50298517
99	21	0	0	90	36.1581920903955	36.241610738255	17	0.566720159985125	2	11	6	NaN	2	4	0.0741725096291569	1	1	NaN	218	4	29	2	121	221	321	NaN	521	0.143717125989497	2	1	NaN	3720242.6699286	NaN	3720243.6533565	3720244.16991297
99	21	0	0	90	36.1581920903955	36.241610738255	11	0.366701279990375	2	4	3	NaN	1	5	0.0741725096291569	1	1	NaN	219	4	30	2	121	221	321	NaN	521	0.0404921309091151	2	0	NaN	3720245.4368787	NaN	3720246.4202967	3720246.93684337
99	21	0	0	90	36.1581920903955	36.241610738255	24	0.800075519979	2	3	1	NaN	1	4	0.0741725096291569	1	1	NaN	220	4	31	2	121	221	321	NaN	521	0.0995375262573361	1	1	NaN	3720248.1538234	NaN	3720249.1372474	3720249.65378067
99	21	0	0	90	36.1581920903955	36.241610738255	10	0.33336479999125	2	12	6	NaN	2	3	0.0741725096291569	1	1	NaN	221	4	32	2	121	221	321	NaN	521	0.300037526525557	2	1	NaN	3720250.9374283	NaN	3720251.9208292	3720252.43739197
99	21	0	0	90	36.1581920903955	36.241610738255	23	0.766739039979875	2	12	6	NaN	2	4	0.0741725096291569	1	1	NaN	222	4	33	2	121	221	321	NaN	521	0.123147526290268	2	1	NaN	3720253.5542463	NaN	3720254.5377643	3720255.05431507
99	21	0	0	90	36.1581920903955	36.241610738255	21	0.700066079981625	2	5	1	NaN	1	5	0.0741725096291569	1	1	NaN	223	4	34	2	121	221	321	NaN	521	0.0731225740164518	1	1	NaN	3720255.9878005	NaN	3720256.9713033	3720257.48788083
99	21	0	0	90	36.1581920903955	36.241610738255	8	0.266691839993	2	4	1	NaN	1	3	0.0741725096291569	1	1	NaN	224	4	35	2	121	221	321	NaN	521	0.194070065394044	1	1	NaN	3720258.3715033	NaN	3720259.3548996	3720259.87145523
99	21	0	0	90	36.1581920903955	36.241610738255	14	0.46671071998775	2	7	1	NaN	2	4	0.0741725096291569	1	1	NaN	225	4	36	2	121	221	321	NaN	521	0.177469573915005	2	1	NaN	3720261.1717508	NaN	3720262.1552141	3720262.67172543
99	21	0	0	90	36.1581920903955	36.241610738255	14	0.46671071998775	2	11	3	NaN	2	5	0.0741725096291569	1	1	NaN	226	4	37	2	121	221	321	NaN	521	0.0621123742312193	2	1	NaN	3720263.6553637	NaN	3720264.6387493	3720265.15530453
99	21	0	0	90	36.1581920903955	36.241610738255	15	0.500047199986875	2	11	1	NaN	2	5	0.0741725096291569	1	1	NaN	227	4	38	2	121	221	321	NaN	521	0.448067426681519	2	1	NaN	3720266.405584	NaN	3720267.3890133	3720267.90556967
99	21	0	0	90	36.1581920903955	36.241610738255	18	0.60005663998425	2	6	4	NaN	1	4	0.0741725096291569	1	1	NaN	228	4	39	2	121	221	321	NaN	521	0.241132722236216	1	1	NaN	3720269.1725559	NaN	3720270.1559425	3720270.67250868
99	21	0	0	90	36.1581920903955	36.241610738255	21	0.700066079981625	2	1	4	NaN	1	4	0.0741725096291569	1	1	NaN	229	4	40	2	121	221	321	NaN	521	0.218565074261278	1	1	NaN	3720271.722831	NaN	3720272.7061987	3720273.22277753
99	21	0	0	90	36.1581920903955	36.241610738255	21	0.700066079981625	2	8	5	NaN	2	5	0.0741725096291569	1	1	NaN	230	4	41	2	121	221	321	NaN	521	0.109060526359826	2	1	NaN	3720274.2563807	NaN	3720275.2397878	3720275.75634557
99	21	0	0	90	36.1581920903955	36.241610738255	6	0.20001887999475	2	4	4	NaN	1	5	0.0741725096291569	1	1	NaN	231	4	42	2	121	221	321	NaN	521	0.140359326265752	2	0	NaN	3720276.6733408	NaN	3720277.6566906	3720278.17325227
99	21	0	0	90	36.1581920903955	36.241610738255	18	0.60005663998425	2	3	5	NaN	1	5	0.0741725096291569	1	1	NaN	232	4	43	2	121	221	321	NaN	521	0.153973474167287	1	1	NaN	3720279.1235577	NaN	3720280.1069349	3720280.62349503
99	21	0	0	90	36.1581920903955	36.241610738255	17	0.566720159985125	2	9	1	NaN	2	3	0.0741725096291569	1	1	NaN	233	4	44	2	121	221	321	NaN	521	0.0465628742240369	2	1	NaN	3720281.5903019	NaN	3720282.5738338	3720283.09039253
99	21	0	0	90	36.1581920903955	36.241610738255	24	0.800075519979	2	12	5	NaN	2	3	0.0741725096291569	1	1	NaN	234	4	45	2	121	221	321	NaN	521	0.271947326138616	2	1	NaN	3720283.9573439	NaN	3720284.9407396	3720285.45729717
99	21	0	0	90	36.1581920903955	36.241610738255	0	0	1	5	4	NaN	1	4	0.0741725096291569	1	1	NaN	235	4	46	2	111	211	311	NaN	511	0.0103836786001921	2	0	NaN	3720286.5409517	NaN	3720287.52432	3720288.04089112
99	21	0	0	90	36.1581920903955	36.241610738255	18	0.60005663998425	2	8	6	NaN	2	4	0.0741725096291569	1	1	NaN	236	4	47	2	121	221	321	NaN	521	0.123057221993804	2	1	NaN	3720288.8744746	NaN	3720289.8578974	3720290.37444488
99	21	0	0	90	36.1581920903955	36.241610738255	24	0.800075519979	2	3	4	NaN	1	4	0.0741725096291569	1	1	NaN	237	4	48	2	121	221	321	NaN	521	0.209804873913527	2	0	NaN	3720291.3079612	NaN	3720292.2914679	3720292.80801563
99	21	0	0	90	36.1581920903955	36.241610738255	12	0.4000377599895	2	12	3	NaN	2	5	0.0741725096291569	1	1	NaN	238	4	49	2	121	221	321	NaN	521	0.0691643264144659	2	1	NaN	3720294.2082215	NaN	3720295.1917441	3720295.70830917
99	21	0	0	90	36.1581920903955	36.241610738255	22	0.73340255998075	2	4	6	NaN	1	3	0.0741725096291569	1	1	NaN	239	4	50	2	121	221	321	NaN	521	0.158906526397914	2	0	NaN	3720296.9586144	NaN	3720297.9420188	3720298.45857917
99	21	0	0	90	36.1581920903955	36.241610738255	24	0.800075519979	2	10	3	NaN	2	5	0.0741725096291569	1	1	NaN	240	4	51	2	121	221	321	NaN	521	0.0919920741580427	2	1	NaN	3720299.4255376	NaN	3720300.4089304	3720300.92548163
99	21	0	0	90	36.1581920903955	36.241610738255	17	0.566720159985125	2	3	5	NaN	1	5	0.0741725096291569	1	1	NaN	241	4	52	2	121	221	321	NaN	521	0.171937074512243	2	0	NaN	3720301.8257536	NaN	3720302.8091693	3720303.32572473
99	21	0	0	90	36.1581920903955	36.241610738255	25	0.833411999978125	2	8	3	NaN	2	3	0.0741725096291569	1	1	NaN	242	4	53	2	121	221	321	NaN	521	0.208392626140267	2	1	NaN	3720304.3092233	NaN	3720305.2927697	3720305.80930197
99	21	0	0	90	36.1581920903955	36.241610738255	13	0.433374239988625	2	1	2	NaN	1	4	0.0741725096291569	1	1	NaN	243	4	54	2	121	221	321	NaN	521	0.211493926122785	1	1	NaN	3720306.8261425	NaN	3720307.809656	3720308.32621327
99	21	0	0	90	36.1581920903955	36.241610738255	22	0.73340255998075	2	1	6	NaN	1	5	0.0741725096291569	1	1	NaN	244	4	55	2	121	221	321	NaN	521	0.222402734681964	1	1	NaN	3720309.3431675	NaN	3720310.3265699	3720310.84312807
99	21	0	0	90	36.1581920903955	36.241610738255	20	0.6667295999825	2	12	1	NaN	2	3	0.0741725096291569	1	1	NaN	245	4	56	2	121	221	321	NaN	521	0.168619026429951	2	1	NaN	3720311.8766249	NaN	3720312.8601568	3720313.37670687
99	21	0	0	90	36.1581920903955	36.241610738255	7	0.233355359993875	2	3	4	NaN	1	5	0.0741725096291569	1	1	NaN	246	4	57	2	121	221	321	NaN	521	0.221209121868014	1	1	NaN	3720314.3603387	NaN	3720315.3437238	3720315.86028138
99	21	0	0	90	36.1581920903955	36.241610738255	18	0.60005663998425	2	12	1	NaN	2	3	0.0741725096291569	1	1	NaN	247	4	58	2	121	221	321	NaN	521	0.167558786924928	2	1	NaN	3720316.8937967	NaN	3720317.8773067	3720318.39386501
99	21	0	0	90	36.1581920903955	36.241610738255	11	0.366701279990375	2	7	2	NaN	2	5	0.0741725096291569	1	1	NaN	248	4	59	2	121	221	321	NaN	521	0.776944973971695	2	1	NaN	3720319.4607071	NaN	3720320.4442188	3720320.96078313
99	21	0	0	90	36.1581920903955	36.241610738255	9	0.300028319992125	2	12	1	NaN	2	5	0.0741725096291569	1	1	NaN	249	4	60	2	121	221	321	NaN	521	0.220611526630819	2	1	NaN	3720322.5611504	NaN	3720323.5445402	3720324.06109367
99	21	0	0	90	36.1581920903955	36.241610738255	14	0.46671071998775	2	3	5	NaN	1	4	0.0741725096291569	1	1	NaN	250	4	61	2	121	221	321	NaN	521	0.143177426420152	1	1	NaN	3720325.0947146	NaN	3720326.0781263	3720326.59466577
99	21	0	0	90	36.1581920903955	36.241610738255	20	0.6667295999825	2	5	3	NaN	1	4	0.0741725096291569	1	1	NaN	251	4	62	2	121	221	321	NaN	521	0.188589626457542	1	1	NaN	3720327.5449629	NaN	3720328.5283568	3720329.04491387
99	21	0	0	90	36.1581920903955	36.241610738255	25	0.833411999978125	2	9	4	NaN	2	5	0.0741725096291569	1	1	NaN	252	4	63	2	121	221	321	NaN	521	0.312071726191789	1	0	NaN	3720330.0452294	NaN	3720331.0286117	3720331.54515097
99	21	0	0	90	36.1581920903955	36.241610738255	25	0.833411999978125	2	1	4	NaN	1	4	0.0741725096291569	1	1	NaN	253	5	1	2	121	221	321	NaN	521	0.065407725982368	1	1	NaN	3720338.9960776	NaN	3720339.9794677	3720340.49604057
99	21	0	0	90	36.1581920903955	36.241610738255	23	0.766739039979875	2	4	5	NaN	1	5	0.0741725096291569	1	1	NaN	254	5	2	2	121	221	321	NaN	521	0.190591926220804	2	0	NaN	3720341.8629913	NaN	3720342.8464266	3720343.36297577
99	21	0	0	90	36.1581920903955	36.241610738255	10	0.33336479999125	2	11	1	NaN	2	4	0.0741725096291569	1	1	NaN	255	5	3	2	121	221	321	NaN	521	0.0901940744370222	2	1	NaN	3720344.3632906	NaN	3720345.3466716	3720345.86322993
99	21	0	0	90	36.1581920903955	36.241610738255	12	0.4000377599895	2	4	6	NaN	1	3	0.0741725096291569	1	1	NaN	256	5	4	2	121	221	321	NaN	521	0.146097522228956	1	1	NaN	3720346.76338	NaN	3720347.7469404	3720348.26347648
99	21	0	0	90	36.1581920903955	36.241610738255	14	0.46671071998775	2	4	3	NaN	1	5	0.0741725096291569	1	1	NaN	257	5	5	2	121	221	321	NaN	521	0.0549336266703904	1	1	NaN	3720349.2304315	NaN	3720350.2138168	3720350.73037837
99	21	0	0	90	36.1581920903955	36.241610738255	7	0.233355359993875	2	7	2	NaN	2	5	0.0741725096291569	1	1	NaN	258	5	6	2	121	221	321	NaN	521	0.0164379263296723	2	1	NaN	3720351.5973094	NaN	3720352.5807168	3720353.09727377
99	21	0	0	90	36.1581920903955	36.241610738255	23	0.766739039979875	2	10	3	NaN	2	5	0.0741725096291569	1	1	NaN	259	5	7	2	121	221	321	NaN	521	0.0828659264370799	2	1	NaN	3720353.9308889	NaN	3720354.9142676	3720355.43083617
99	21	0	0	90	36.1581920903955	36.241610738255	7	0.233355359993875	2	8	5	NaN	2	4	0.0741725096291569	1	1	NaN	260	5	8	2	121	221	321	NaN	521	0.0103993262164295	2	1	NaN	3720356.3311148	NaN	3720357.3144933	3720357.83106437
99	21	0	0	90	36.1581920903955	36.241610738255	20	0.6667295999825	2	11	4	NaN	2	3	0.0741725096291569	1	1	NaN	261	5	9	2	121	221	321	NaN	521	0.109598482958972	2	1	NaN	3720358.648011	NaN	3720359.6314228	3720360.14795902
99	21	0	0	90	36.1581920903955	36.241610738255	19	0.633393119983375	2	7	2	NaN	2	3	0.0741725096291569	1	1	NaN	262	5	10	2	121	221	321	NaN	521	0.344887226354331	2	1	NaN	3720361.5649266	NaN	3720362.5484322	3720363.06492217
99	21	0	0	90	36.1581920903955	36.241610738255	9	0.300028319992125	2	10	2	NaN	2	5	0.0741725096291569	1	1	NaN	263	5	11	2	121	221	321	NaN	521	0.4863963262178	2	1	NaN	3720364.2152097	NaN	3720365.1986134	3720365.71517677
99	21	0	0	90	36.1581920903955	36.241610738255	18	0.60005663998425	2	4	4	NaN	1	3	0.0741725096291569	1	1	NaN	264	5	12	2	121	221	321	NaN	521	0.314030325971544	1	1	NaN	3720367.3154077	NaN	3720368.2989	3720368.81548437
99	21	0	0	90	36.1581920903955	36.241610738255	20	0.6667295999825	2	5	6	NaN	1	3	0.0741725096291569	1	1	NaN	265	5	13	2	121	221	321	NaN	521	0.0650610262528062	1	1	NaN	3720369.9325492	NaN	3720370.9158539	3720371.43240757
99	21	0	0	90	36.1581920903955	36.241610738255	24	0.800075519979	2	4	6	NaN	1	5	0.0741725096291569	1	1	NaN	266	5	14	2	121	221	321	NaN	521	0.289206026587635	1	1	NaN	3720372.3160263	NaN	3720373.2994144	3720373.81596537
99	21	0	0	90	36.1581920903955	36.241610738255	11	0.366701279990375	2	6	2	NaN	1	5	0.0741725096291569	1	1	NaN	267	5	15	2	121	221	321	NaN	521	0.337517374195158	1	1	NaN	3720374.9163148	NaN	3720375.899682	3720376.41622833
99	21	0	0	90	36.1581920903955	36.241610738255	11	0.366701279990375	2	2	2	NaN	1	3	0.0741725096291569	1	1	NaN	268	5	16	2	121	221	321	NaN	521	0.071016326546669	1	1	NaN	3720377.5665819	NaN	3720378.5499277	3720379.06648447
99	21	0	0	90	36.1581920903955	36.241610738255	23	0.766739039979875	2	3	5	NaN	1	3	0.0741725096291569	1	1	NaN	269	5	17	2	121	221	321	NaN	521	0.0103650307282805	2	0	NaN	3720379.9499749	NaN	3720380.933496	3720381.45005667
99	21	0	0	90	36.1581920903955	36.241610738255	11	0.366701279990375	2	10	4	NaN	2	3	0.0741725096291569	1	1	NaN	270	5	18	2	121	221	321	NaN	521	0.281999974045902	2	1	NaN	3720382.2836823	NaN	3720383.2670619	3720383.78361683
99	21	0	0	90	36.1581920903955	36.241610738255	14	0.46671071998775	2	3	2	NaN	1	5	0.0741725096291569	1	1	NaN	271	5	19	2	121	221	321	NaN	521	0.105935473926365	1	1	NaN	3720384.883922	NaN	3720385.8673152	3720386.38387983
99	21	0	0	90	36.1581920903955	36.241610738255	12	0.4000377599895	2	2	6	NaN	1	4	0.0741725096291569	1	1	NaN	272	5	20	2	121	221	321	NaN	521	0.176871026400477	1	1	NaN	3720387.3008561	NaN	3720388.2842171	3720388.80077307
99	21	0	0	90	36.1581920903955	36.241610738255	19	0.633393119983375	2	7	6	NaN	2	5	0.0741725096291569	1	1	NaN	273	5	21	2	121	221	321	NaN	521	0.109137821942568	2	1	NaN	3720389.7842804	NaN	3720390.7677842	3720391.28435368
99	21	0	0	90	36.1581920903955	36.241610738255	23	0.766739039979875	2	4	1	NaN	1	5	0.0741725096291569	1	1	NaN	274	5	22	2	121	221	321	NaN	521	0.0523825217969716	2	0	NaN	3720392.2011747	NaN	3720393.1847032	3720393.70126028
99	21	0	0	90	36.1581920903955	36.241610738255	12	0.4000377599895	2	8	5	NaN	2	3	0.0741725096291569	1	1	NaN	275	5	23	2	121	221	321	NaN	521	0.140626573935151	2	1	NaN	3720394.5848106	NaN	3720395.5682649	3720396.08482903
99	21	0	0	90	36.1581920903955	36.241610738255	21	0.700066079981625	2	4	5	NaN	1	5	0.0741725096291569	1	1	NaN	276	5	24	2	121	221	321	NaN	521	0.178564725909382	2	0	NaN	3720397.0351081	NaN	3720398.0185121	3720398.53506417
99	21	0	0	90	36.1581920903955	36.241610738255	12	0.4000377599895	2	4	6	NaN	1	4	0.0741725096291569	1	1	NaN	277	5	25	2	121	221	321	NaN	521	0.262132078874856	2	0	NaN	3720399.5353671	NaN	3720400.5187493	3720401.03531692
99	21	0	0	90	36.1581920903955	36.241610738255	18	0.60005663998425	2	9	1	NaN	2	5	0.0741725096291569	1	1	NaN	278	5	26	2	121	221	321	NaN	521	0.70330242626369	2	1	NaN	3720402.1022797	NaN	3720403.0856817	3720403.60222477
99	21	0	0	90	36.1581920903955	36.241610738255	9	0.300028319992125	2	8	2	NaN	2	3	0.0741725096291569	1	1	NaN	279	5	27	2	121	221	321	NaN	521	0.0464985216967762	2	1	NaN	3720405.1192562	NaN	3720406.1026329	3720406.61919118
99	21	0	0	90	36.1581920903955	36.241610738255	0	0	1	5	1	NaN	1	3	0.0741725096291569	1	1	NaN	280	5	28	2	111	211	311	NaN	511	0.0728121264837682	1	1	NaN	3720407.8527188	NaN	3720408.8362174	3720409.35279737
99	21	0	0	90	36.1581920903955	36.241610738255	14	0.46671071998775	2	1	1	NaN	1	4	0.0741725096291569	1	1	NaN	281	5	29	2	121	221	321	NaN	521	0.147470878437161	1	1	NaN	3720410.5696496	NaN	3720411.5531639	3720412.06972412
99	21	0	0	90	36.1581920903955	36.241610738255	20	0.6667295999825	2	2	6	NaN	1	3	0.0741725096291569	1	1	NaN	282	5	30	2	121	221	321	NaN	521	0.112848126329482	1	1	NaN	3720413.0366712	NaN	3720414.0200685	3720414.53663047
99	21	0	0	90	36.1581920903955	36.241610738255	13	0.433374239988625	2	9	1	NaN	2	5	0.0741725096291569	1	1	NaN	283	5	31	2	121	221	321	NaN	521	0.207383326254785	2	1	NaN	3720415.4701063	NaN	3720416.4536413	3720416.97021427
99	21	0	0	90	36.1581920903955	36.241610738255	22	0.73340255998075	2	1	5	NaN	1	4	0.0741725096291569	1	1	NaN	284	5	32	2	121	221	321	NaN	521	0.443727074190974	2	0	NaN	3720418.3538485	NaN	3720419.3372985	3720419.85382083
99	21	0	0	90	36.1581920903955	36.241610738255	22	0.73340255998075	2	11	1	NaN	2	3	0.0741725096291569	1	1	NaN	285	5	33	2	121	221	321	NaN	521	0.165331126190722	2	1	NaN	3720421.1041442	NaN	3720422.0875376	3720422.60409777
99	21	0	0	90	36.1581920903955	36.241610738255	16	0.533383679986	2	2	3	NaN	1	4	0.0741725096291569	1	1	NaN	286	5	34	2	121	221	321	NaN	521	0.265861526597291	1	1	NaN	3720423.5875986	NaN	3720424.5711181	3720425.08767737
99	21	0	0	90	36.1581920903955	36.241610738255	12	0.4000377599895	2	8	2	NaN	2	3	0.0741725096291569	1	1	NaN	287	5	35	2	121	221	321	NaN	521	0.16592482663691	2	1	NaN	3720426.4879718	NaN	3720427.4714171	3720427.98796277
99	21	0	0	90	36.1581920903955	36.241610738255	19	0.633393119983375	2	2	2	NaN	1	5	0.0741725096291569	1	1	NaN	288	5	36	2	121	221	321	NaN	521	0.135435773991048	1	1	NaN	3720429.2382416	NaN	3720430.2216672	3720430.73822453
99	21	0	0	90	36.1581920903955	36.241610738255	23	0.766739039979875	2	10	4	NaN	2	3	0.0741725096291569	1	1	NaN	289	5	37	2	121	221	321	NaN	521	0.24310602620244	2	1	NaN	3720432.1385299	NaN	3720433.1218579	3720433.63851277
99	21	0	0	90	36.1581920903955	36.241610738255	18	0.60005663998425	2	6	6	NaN	1	3	0.0741725096291569	1	1	NaN	290	5	38	2	121	221	321	NaN	521	0.0103939264081419	1	1	NaN	3720434.7054902	NaN	3720435.6888094	3720436.20543207
99	21	0	0	90	36.1581920903955	36.241610738255	15	0.500047199986875	2	10	1	NaN	2	4	0.0741725096291569	1	1	NaN	291	5	39	2	121	221	321	NaN	521	0.098025091458112	2	1	NaN	3720437.355625	NaN	3720438.3391446	3720438.85569021
99	21	0	0	90	36.1581920903955	36.241610738255	16	0.533383679986	2	5	5	NaN	1	5	0.0741725096291569	1	1	NaN	292	5	40	2	121	221	321	NaN	521	0.16253872634843	1	1	NaN	3720440.1226415	NaN	3720441.1060681	3720441.62262907
99	21	0	0	90	36.1581920903955	36.241610738255	8	0.266691839993	2	10	1	NaN	2	4	0.0741725096291569	1	1	NaN	293	5	41	2	121	221	321	NaN	521	0.0103938262909651	2	1	NaN	3720442.6062522	NaN	3720443.5896465	3720444.10620037
99	21	0	0	90	36.1581920903955	36.241610738255	21	0.700066079981625	2	7	3	NaN	2	5	0.0741725096291569	1	1	NaN	294	5	42	2	121	221	321	NaN	521	0.313488726038486	1	0	NaN	3720445.3398354	NaN	3720446.3232498	3720446.83981157
99	21	0	0	90	36.1581920903955	36.241610738255	14	0.46671071998775	2	5	2	NaN	1	3	0.0741725096291569	1	1	NaN	295	5	43	2	121	221	321	NaN	521	0.128475574310869	2	0	NaN	3720447.9734756	NaN	3720448.956856	3720449.47339843
99	21	0	0	90	36.1581920903955	36.241610738255	12	0.4000377599895	2	9	3	NaN	2	5	0.0741725096291569	1	1	NaN	296	5	44	2	121	221	321	NaN	521	0.230648139491677	2	1	NaN	3720450.4070184	NaN	3720451.390415	3720451.90697256
99	21	0	0	90	36.1581920903955	36.241610738255	21	0.700066079981625	2	11	6	NaN	2	4	0.0741725096291569	1	1	NaN	297	5	45	2	121	221	321	NaN	521	0.248746073804796	2	1	NaN	3720452.9572854	NaN	3720453.9406653	3720454.45721583
99	21	0	0	90	36.1581920903955	36.241610738255	8	0.266691839993	2	10	5	NaN	2	4	0.0741725096291569	1	1	NaN	298	5	46	2	121	221	321	NaN	521	0.32952372636646	2	1	NaN	3720455.5241933	NaN	3720456.5076451	3720457.02414637
99	21	0	0	90	36.1581920903955	36.241610738255	6	0.20001887999475	2	6	2	NaN	1	5	0.0741725096291569	1	1	NaN	299	5	47	2	121	221	321	NaN	521	0.0485770744271576	1	1	NaN	3720458.541121	NaN	3720459.5245455	3720460.04110013
99	21	0	0	90	36.1581920903955	36.241610738255	17	0.566720159985125	2	12	1	NaN	2	5	0.0741725096291569	1	1	NaN	300	5	48	2	121	221	321	NaN	521	0.174388126004487	2	1	NaN	3720460.9913614	NaN	3720461.9748118	3720462.49134527
99	21	0	0	90	36.1581920903955	36.241610738255	0	0	1	12	1	NaN	2	5	0.0741725096291569	1	1	NaN	301	5	49	2	111	211	311	NaN	511	0.0104059739969671	2	1	NaN	3720463.4749701	NaN	3720464.4583614	3720464.97491473
99	21	0	0	90	36.1581920903955	36.241610738255	11	0.366701279990375	2	5	2	NaN	1	4	0.0741725096291569	1	1	NaN	302	5	50	2	121	221	321	NaN	521	0.142062274273485	1	1	NaN	3720465.7919891	NaN	3720466.7752594	3720467.29182213
99	21	0	0	90	36.1581920903955	36.241610738255	7	0.233355359993875	2	4	2	NaN	1	3	0.0741725096291569	1	1	NaN	303	5	51	2	121	221	321	NaN	521	0.231750973965973	1	1	NaN	3720468.5420199	NaN	3720469.5255287	3720470.04208393
99	21	0	0	90	36.1581920903955	36.241610738255	15	0.500047199986875	2	4	5	NaN	1	3	0.0741725096291569	1	1	NaN	304	5	52	2	121	221	321	NaN	521	0.129348673857749	2	0	NaN	3720471.0924627	NaN	3720472.075772	3720472.59233523
99	21	0	0	90	36.1581920903955	36.241610738255	8	0.266691839993	2	5	6	NaN	1	4	0.0741725096291569	1	1	NaN	305	5	53	2	121	221	321	NaN	521	0.127965826541185	1	1	NaN	3720473.5259875	NaN	3720474.5093947	3720475.02591427
99	21	0	0	90	36.1581920903955	36.241610738255	6	0.20001887999475	2	7	1	NaN	2	4	0.0741725096291569	1	1	NaN	306	5	54	2	121	221	321	NaN	521	0.0536234262399375	2	1	NaN	3720475.976196	NaN	3720476.9595881	3720477.47614947
99	21	0	0	90	36.1581920903955	36.241610738255	22	0.73340255998075	2	3	3	NaN	1	5	0.0741725096291569	1	1	NaN	307	5	55	2	121	221	321	NaN	521	0.118572974111885	1	1	NaN	3720478.3430944	NaN	3720479.3265005	3720479.84305393
99	21	0	0	90	36.1581920903955	36.241610738255	7	0.233355359993875	2	4	6	NaN	1	3	0.0741725096291569	1	1	NaN	308	5	56	2	121	221	321	NaN	521	0.117041491437703	2	0	NaN	3720480.7766571	NaN	3720481.7600708	3720482.27663111
99	21	0	0	90	36.1581920903955	36.241610738255	10	0.33336479999125	2	5	2	NaN	1	5	0.0741725096291569	1	1	NaN	309	5	57	2	121	221	321	NaN	521	1.12383303930983	1	1	NaN	3720483.2101994	NaN	3720484.1936304	3720484.71019176
99	21	0	0	90	36.1581920903955	36.241610738255	10	0.33336479999125	2	12	1	NaN	2	5	0.0741725096291569	1	1	NaN	310	5	58	2	121	221	321	NaN	521	0.08982989564538	1	0	NaN	3720486.6438946	NaN	3720487.627305	3720488.1438738
99	21	0	0	90	36.1581920903955	36.241610738255	8	0.266691839993	2	9	4	NaN	2	3	0.0741725096291569	1	1	NaN	311	5	59	2	121	221	321	NaN	521	0.10687127429992	2	1	NaN	3720489.4108168	NaN	3720490.3942463	3720490.91080553
99	21	0	0	90	36.1581920903955	36.241610738255	20	0.6667295999825	2	8	1	NaN	2	3	0.0741725096291569	1	1	NaN	312	5	60	2	121	221	321	NaN	521	0.154673025943339	2	1	NaN	3720492.2110906	NaN	3720493.1945137	3720493.71107017
99	21	0	0	90	36.1581920903955	36.241610738255	11	0.366701279990375	2	11	4	NaN	2	4	0.0741725096291569	1	1	NaN	313	5	61	2	121	221	321	NaN	521	0.0104081742465496	1	0	NaN	3720494.6779362	NaN	3720495.6614166	3720496.17798843
99	21	0	0	90	36.1581920903955	36.241610738255	17	0.566720159985125	2	4	5	NaN	1	4	0.0741725096291569	1	1	NaN	314	5	62	2	121	221	321	NaN	521	0.0344317783601582	1	1	NaN	3720496.9949384	NaN	3720497.9783657	3720498.49488712
99	21	0	0	90	36.1581920903955	36.241610738255	20	0.6667295999825	2	9	6	NaN	2	3	0.0741725096291569	1	1	NaN	315	5	63	2	121	221	321	NaN	521	0.0103937261737883	2	1	NaN	3720499.6785126	NaN	3720500.6619153	3720501.17847557
99	21	0	0	90	36.1581920903955	36.241610738255	22	0.73340255998075	2	6	4	NaN	1	3	0.0741725096291569	1	1	NaN	316	6	1	2	121	221	321	NaN	521	0.549124226439744	1	1	NaN	3720551.6169307	NaN	3720552.6003417	3720553.11690467
99	21	0	0	90	36.1581920903955	36.241610738255	17	0.566720159985125	2	2	4	NaN	1	3	0.0741725096291569	1	1	NaN	317	6	2	2	121	221	321	NaN	521	0.0825674263760448	1	1	NaN	3720554.8671823	NaN	3720555.8506976	3720556.36723137
99	21	0	0	90	36.1581920903955	36.241610738255	22	0.73340255998075	2	11	5	NaN	2	5	0.0741725096291569	1	1	NaN	318	6	3	2	121	221	321	NaN	521	0.0676822261884809	2	1	NaN	3720557.6341838	NaN	3720558.6176082	3720559.13416317
99	21	0	0	90	36.1581920903955	36.241610738255	10	0.33336479999125	2	10	4	NaN	2	4	0.0741725096291569	1	1	NaN	319	6	4	2	121	221	321	NaN	521	0.0201355782337487	2	1	NaN	3720560.0177837	NaN	3720561.0011721	3720561.51773142
99	21	0	0	90	36.1581920903955	36.241610738255	20	0.6667295999825	2	7	6	NaN	2	5	0.0741725096291569	1	1	NaN	320	6	5	2	121	221	321	NaN	521	0.0545131741091609	2	1	NaN	3720562.3513344	NaN	3720563.3347361	3720563.85129523
99	21	0	0	90	36.1581920903955	36.241610738255	23	0.766739039979875	2	9	3	NaN	2	5	0.0741725096291569	1	1	NaN	321	6	6	2	121	221	321	NaN	521	0.135557074099779	2	1	NaN	3720564.7182538	NaN	3720565.7016173	3720566.21819683
99	21	0	0	90	36.1581920903955	36.241610738255	25	0.833411999978125	2	6	1	NaN	1	4	0.0741725096291569	1	1	NaN	322	6	7	2	121	221	321	NaN	521	0.010386926587671	1	1	NaN	3720567.1684729	NaN	3720568.1518689	3720568.66843587
99	21	0	0	90	36.1581920903955	36.241610738255	16	0.533383679986	2	10	4	NaN	2	3	0.0741725096291569	1	1	NaN	323	6	8	2	121	221	321	NaN	521	0.0652021742425859	2	1	NaN	3720569.8687606	NaN	3720570.8521415	3720571.36869343
99	21	0	0	90	36.1581920903955	36.241610738255	15	0.500047199986875	2	12	1	NaN	2	3	0.0741725096291569	1	1	NaN	324	6	9	2	121	221	321	NaN	521	0.209807273931801	2	1	NaN	3720572.2356613	NaN	3720573.2190524	3720573.73559883
99	21	0	0	90	36.1581920903955	36.241610738255	20	0.6667295999825	2	12	4	NaN	2	5	0.0741725096291569	1	1	NaN	325	6	10	2	121	221	321	NaN	521	0.101400726474822	2	1	NaN	3720574.7525862	NaN	3720575.7359511	3720576.25253437
99	21	0	0	90	36.1581920903955	36.241610738255	15	0.500047199986875	2	5	5	NaN	1	5	0.0741725096291569	1	1	NaN	326	6	11	2	121	221	321	NaN	521	0.0410194741562009	2	0	NaN	3720577.2526844	NaN	3720578.2361935	3720578.75275213
99	21	0	0	90	36.1581920903955	36.241610738255	19	0.633393119983375	2	9	6	NaN	2	4	0.0741725096291569	1	1	NaN	327	6	12	2	121	221	321	NaN	521	0.0104279350489378	2	1	NaN	3720579.6030288	NaN	3720580.5864276	3720581.10301297
99	21	0	0	90	36.1581920903955	36.241610738255	18	0.60005663998425	2	5	3	NaN	1	4	0.0741725096291569	1	1	NaN	328	6	13	2	121	221	321	NaN	521	0.125517226289958	1	1	NaN	3720581.9365409	NaN	3720582.9200056	3720583.43655767
99	21	0	0	90	36.1581920903955	36.241610738255	24	0.800075519979	2	1	1	NaN	1	4	0.0741725096291569	1	1	NaN	329	6	14	2	121	221	321	NaN	521	0.229005974251777	1	1	NaN	3720584.9368353	NaN	3720585.9203273	3720586.43684283
99	21	0	0	90	36.1581920903955	36.241610738255	16	0.533383679986	2	7	6	NaN	2	5	0.0741725096291569	1	1	NaN	330	6	15	2	121	221	321	NaN	521	0.0103880260139704	2	1	NaN	3720587.4871562	NaN	3720588.4705341	3720588.98710227
99	21	0	0	90	36.1581920903955	36.241610738255	24	0.800075519979	2	2	5	NaN	1	4	0.0741725096291569	1	1	NaN	331	6	16	2	121	221	321	NaN	521	0.0104177263565361	1	1	NaN	3720589.8207085	NaN	3720590.8041007	3720591.32065657
99	21	0	0	90	36.1581920903955	36.241610738255	21	0.700066079981625	2	6	4	NaN	1	5	0.0741725096291569	1	1	NaN	332	6	17	2	121	221	321	NaN	521	0.059505573939532	1	1	NaN	3720592.1542906	NaN	3720593.1377054	3720593.65422473
99	21	0	0	90	36.1581920903955	36.241610738255	14	0.46671071998775	2	2	1	NaN	1	4	0.0741725096291569	1	1	NaN	333	6	18	2	121	221	321	NaN	521	0.0208320743404329	1	1	NaN	3720594.5210293	NaN	3720595.5045559	3720596.02111813
99	21	0	0	90	36.1581920903955	36.241610738255	19	0.633393119983375	2	4	3	NaN	1	3	0.0741725096291569	1	1	NaN	334	6	19	2	121	221	321	NaN	521	0.199168026447296	1	1	NaN	3720596.8547324	NaN	3720597.8381269	3720598.35468127
99	21	0	0	90	36.1581920903955	36.241610738255	25	0.833411999978125	2	9	3	NaN	2	4	0.0741725096291569	1	1	NaN	335	6	20	2	121	221	321	NaN	521	0.0723810265772045	2	1	NaN	3720599.8215647	NaN	3720600.8050856	3720601.32163317
99	21	0	0	90	36.1581920903955	36.241610738255	6	0.20001887999475	2	5	6	NaN	1	5	0.0741725096291569	1	1	NaN	336	6	21	2	121	221	321	NaN	521	0.0967217744328082	1	1	NaN	3720602.2052518	NaN	3720603.188649	3720603.70520753
99	21	0	0	90	36.1581920903955	36.241610738255	21	0.700066079981625	2	12	6	NaN	2	4	0.0741725096291569	1	1	NaN	337	6	22	2	121	221	321	NaN	521	0.20906907459721	2	1	NaN	3720605.1889129	NaN	3720606.1722939	3720606.68882973
99	21	0	0	90	36.1581920903955	36.241610738255	9	0.300028319992125	2	7	1	NaN	2	4	0.0741725096291569	1	1	NaN	338	6	23	2	121	221	321	NaN	521	0.0654437220655382	2	1	NaN	3720607.7724716	NaN	3720608.7559045	3720609.27242128
99	21	0	0	90	36.1581920903955	36.241610738255	0	0	1	8	3	NaN	2	5	0.0741725096291569	1	1	NaN	339	6	24	2	111	211	311	NaN	511	0.627420026343316	2	1	NaN	3720610.5227138	NaN	3720611.5061351	3720612.02268887
99	21	0	0	90	36.1581920903955	36.241610738255	8	0.266691839993	2	8	1	NaN	2	3	0.0741725096291569	1	1	NaN	340	6	25	2	121	221	321	NaN	521	0.213165586814284	2	1	NaN	3720613.4563715	NaN	3720614.439752	3720614.95631291
99	21	0	0	90	36.1581920903955	36.241610738255	15	0.500047199986875	2	6	5	NaN	1	3	0.0741725096291569	1	1	NaN	341	6	26	2	121	221	321	NaN	521	0.242140782997012	2	0	NaN	3720617.140054	NaN	3720618.1234282	3720618.64001322
99	21	0	0	90	36.1581920903955	36.241610738255	13	0.433374239988625	2	10	6	NaN	2	5	0.0741725096291569	1	1	NaN	342	6	27	2	121	221	321	NaN	521	0.027637121733278	2	1	NaN	3720619.6902957	NaN	3720620.6736861	3720621.19025798
99	21	0	0	90	36.1581920903955	36.241610738255	17	0.566720159985125	2	6	6	NaN	1	4	0.0741725096291569	1	1	NaN	343	6	28	2	121	221	321	NaN	521	0.624952826648951	1	1	NaN	3720622.5572309	NaN	3720623.5406666	3720624.05720867
99	21	0	0	90	36.1581920903955	36.241610738255	8	0.266691839993	2	2	3	NaN	1	3	0.0741725096291569	1	1	NaN	344	6	29	2	121	221	321	NaN	521	0.447996074333787	1	1	NaN	3720625.7742036	NaN	3720626.7576343	3720627.27418903
99	21	0	0	90	36.1581920903955	36.241610738255	20	0.6667295999825	2	11	3	NaN	2	3	0.0741725096291569	1	1	NaN	345	6	30	2	121	221	321	NaN	521	0.280751374084502	2	1	NaN	3720628.7410672	NaN	3720629.7245871	3720630.24114353
99	21	0	0	90	36.1581920903955	36.241610738255	18	0.60005663998425	2	12	4	NaN	2	5	0.0741725096291569	1	1	NaN	346	6	31	2	121	221	321	NaN	521	0.599021974485368	2	1	NaN	3720631.7747928	NaN	3720632.7582165	3720633.27477603
99	21	0	0	90	36.1581920903955	36.241610738255	21	0.700066079981625	2	5	2	NaN	1	3	0.0741725096291569	1	1	NaN	347	6	32	2	121	221	321	NaN	521	0.477056665811688	2	0	NaN	3720635.0085969	NaN	3720635.9919803	3720636.50842953
99	21	0	0	90	36.1581920903955	36.241610738255	9	0.300028319992125	2	1	1	NaN	1	4	0.0741725096291569	1	1	NaN	348	6	33	2	121	221	321	NaN	521	0.707358287181705	2	0	NaN	3720638.258759	NaN	3720639.2421916	3720639.75875091
99	21	0	0	90	36.1581920903955	36.241610738255	25	0.833411999978125	2	8	1	NaN	2	5	0.0741725096291569	1	1	NaN	349	6	34	2	121	221	321	NaN	521	0.296241274103522	2	1	NaN	3720642.7258765	NaN	3720643.7093031	3720644.22584623
99	21	0	0	90	36.1581920903955	36.241610738255	13	0.433374239988625	2	10	6	NaN	2	3	0.0741725096291569	1	1	NaN	350	6	35	2	121	221	321	NaN	521	0.183358474168926	2	1	NaN	3720645.3428128	NaN	3720646.3262741	3720646.84277343
99	21	0	0	90	36.1581920903955	36.241610738255	19	0.633393119983375	2	12	2	NaN	2	5	0.0741725096291569	1	1	NaN	351	6	36	2	121	221	321	NaN	521	0.2911452264525	2	1	NaN	3720647.8430782	NaN	3720648.8264433	3720649.34302077
99	21	0	0	90	36.1581920903955	36.241610738255	18	0.60005663998425	2	2	5	NaN	1	3	0.0741725096291569	1	1	NaN	352	6	37	2	121	221	321	NaN	521	0.0426836740225554	1	1	NaN	3720650.4434104	NaN	3720651.4267163	3720651.94327133
99	21	0	0	90	36.1581920903955	36.241610738255	9	0.300028319992125	2	2	4	NaN	1	3	0.0741725096291569	1	1	NaN	353	6	38	2	121	221	321	NaN	521	0.12430402636528	1	1	NaN	3720652.7935267	NaN	3720653.7769346	3720654.29351287
99	21	0	0	90	36.1581920903955	36.241610738255	16	0.533383679986	2	3	4	NaN	1	4	0.0741725096291569	1	1	NaN	354	6	39	2	121	221	321	NaN	521	0.114844286814332	1	1	NaN	3720655.2271367	NaN	3720656.2105141	3720656.72707801
99	21	0	0	90	36.1581920903955	36.241610738255	15	0.500047199986875	2	7	5	NaN	2	5	0.0741725096291569	1	1	NaN	355	6	40	2	121	221	321	NaN	521	0.1054314263165	2	1	NaN	3720657.660686	NaN	3720658.6440959	3720659.16064387
99	21	0	0	90	36.1581920903955	36.241610738255	0	0	1	2	3	NaN	1	4	0.0741725096291569	1	1	NaN	356	6	41	2	111	211	311	NaN	511	0.0104365264996886	2	0	NaN	3720660.0775495	NaN	3720661.0609882	3720661.57755327
99	21	0	0	90	36.1581920903955	36.241610738255	9	0.300028319992125	2	6	4	NaN	1	3	0.0741725096291569	1	1	NaN	357	6	42	2	121	221	321	NaN	521	0.187514826189727	1	1	NaN	3720662.3945063	NaN	3720663.3778674	3720663.89445417
99	21	0	0	90	36.1581920903955	36.241610738255	24	0.800075519979	2	6	3	NaN	1	3	0.0741725096291569	1	1	NaN	358	6	43	2	121	221	321	NaN	521	0.0309148435480893	2	0	NaN	3720664.8947493	NaN	3720665.8781366	3720666.39470066
99	21	0	0	90	36.1581920903955	36.241610738255	20	0.6667295999825	2	9	2	NaN	2	3	0.0741725096291569	1	1	NaN	359	6	44	2	121	221	321	NaN	521	0.0176752265542746	1	0	NaN	3720667.2282958	NaN	3720668.2117024	3720668.72825907
99	21	0	0	90	36.1581920903955	36.241610738255	17	0.566720159985125	2	4	3	NaN	1	5	0.0741725096291569	1	1	NaN	360	6	45	2	121	221	321	NaN	521	0.148164074402303	1	1	NaN	3720669.5618688	NaN	3720670.5452629	3720671.06181823
99	21	0	0	90	36.1581920903955	36.241610738255	6	0.20001887999475	2	7	4	NaN	2	4	0.0741725096291569	1	1	NaN	361	6	46	2	121	221	321	NaN	521	0.0492440783418715	1	0	NaN	3720672.0287764	NaN	3720673.0121729	3720673.52873552
99	21	0	0	90	36.1581920903955	36.241610738255	19	0.633393119983375	2	5	5	NaN	1	3	0.0741725096291569	1	1	NaN	362	6	47	2	121	221	321	NaN	521	0.0423490223474801	1	1	NaN	3720674.3957159	NaN	3720675.3790617	3720675.89562518
99	21	0	0	90	36.1581920903955	36.241610738255	23	0.766739039979875	2	5	4	NaN	1	4	0.0741725096291569	1	1	NaN	363	6	48	2	121	221	321	NaN	521	2.3641206738539	1	1	NaN	3720676.745805	NaN	3720677.7293214	3720678.24584993
99	21	0	0	90	36.1581920903955	36.241610738255	15	0.500047199986875	2	7	3	NaN	2	5	0.0741725096291569	1	1	NaN	364	6	49	2	121	221	321	NaN	521	0.200077243149281	2	1	NaN	3720681.4296954	NaN	3720682.4130974	3720682.92965326
99	21	0	0	90	36.1581920903955	36.241610738255	10	0.33336479999125	2	5	6	NaN	1	5	0.0741725096291569	1	1	NaN	365	6	50	2	121	221	321	NaN	521	0.243707178160548	2	0	NaN	3720683.9466263	NaN	3720684.9300088	3720685.44656422
99	21	0	0	90	36.1581920903955	36.241610738255	14	0.46671071998775	2	10	4	NaN	2	5	0.0741725096291569	1	1	NaN	366	6	51	2	121	221	321	NaN	521	0.205252726562321	2	1	NaN	3720686.4968675	NaN	3720687.4802689	3720687.99681087
99	21	0	0	90	36.1581920903955	36.241610738255	17	0.566720159985125	2	11	2	NaN	2	5	0.0741725096291569	1	1	NaN	367	6	52	2	121	221	321	NaN	521	0.223838726524264	2	1	NaN	3720689.4304544	NaN	3720690.4138866	3720690.93043737
99	21	0	0	90	36.1581920903955	36.241610738255	14	0.46671071998775	2	6	1	NaN	1	4	0.0741725096291569	1	1	NaN	368	6	53	2	121	221	321	NaN	521	0.120045926421881	1	1	NaN	3720692.4141297	NaN	3720693.3975098	3720693.91406457
99	21	0	0	90	36.1581920903955	36.241610738255	22	0.73340255998075	2	2	4	NaN	1	5	0.0741725096291569	1	1	NaN	369	6	54	2	121	221	321	NaN	521	0.24554722616449	2	0	NaN	3720695.2643603	NaN	3720696.2477867	3720696.76434557
99	21	0	0	90	36.1581920903955	36.241610738255	18	0.60005663998425	2	11	6	NaN	2	3	0.0741725096291569	1	1	NaN	370	6	55	2	121	221	321	NaN	521	0.223969074431807	1	0	NaN	3720698.1979023	NaN	3720699.1813184	3720699.69795653
99	21	0	0	90	36.1581920903955	36.241610738255	13	0.433374239988625	2	6	3	NaN	1	5	0.0741725096291569	1	1	NaN	371	6	56	2	121	221	321	NaN	521	0.144451226107776	1	1	NaN	3720700.9816231	NaN	3720701.9650061	3720702.48157317
99	21	0	0	90	36.1581920903955	36.241610738255	20	0.6667295999825	2	6	3	NaN	1	3	0.0741725096291569	1	1	NaN	372	6	57	2	121	221	321	NaN	521	0.206188074313104	1	1	NaN	3720703.4317492	NaN	3720704.4152456	3720704.93180823
99	21	0	0	90	36.1581920903955	36.241610738255	16	0.533383679986	2	7	2	NaN	2	3	0.0741725096291569	1	1	NaN	373	6	58	2	121	221	321	NaN	521	0.0493317265063524	2	1	NaN	3720705.9487317	NaN	3720706.9321533	3720707.44871987
99	21	0	0	90	36.1581920903955	36.241610738255	14	0.46671071998775	2	6	2	NaN	1	3	0.0741725096291569	1	1	NaN	374	6	59	2	121	221	321	NaN	521	0.274584043771029	1	1	NaN	3720708.3156498	NaN	3720709.2990732	3720709.81562276
99	21	0	0	90	36.1581920903955	36.241610738255	17	0.566720159985125	2	6	1	NaN	1	5	0.0741725096291569	1	1	NaN	375	6	60	2	121	221	321	NaN	521	0.226834826171398	1	1	NaN	3720710.8992603	NaN	3720711.8826521	3720712.39921577
99	21	0	0	90	36.1581920903955	36.241610738255	0	0	1	11	5	NaN	2	4	0.0741725096291569	1	1	NaN	376	6	61	2	111	211	311	NaN	511	0.0210796222090721	2	1	NaN	3720713.8328507	NaN	3720714.8162598	3720715.33282488
99	21	0	0	90	36.1581920903955	36.241610738255	14	0.46671071998775	2	9	6	NaN	2	5	0.0741725096291569	1	1	NaN	377	6	62	2	121	221	321	NaN	521	0.0395294739864767	2	1	NaN	3720716.166429	NaN	3720717.1498405	3720717.66639963
99	21	0	0	90	36.1581920903955	36.241610738255	0	0	1	9	2	NaN	2	4	0.0741725096291569	1	1	NaN	378	6	63	2	111	211	311	NaN	511	0.260280474089086	2	1	NaN	3720718.6500366	NaN	3720719.6334199	3720720.14997413
99	21	0	0	90	36.1581920903955	36.241610738255	7	0.233355359993875	2	1	2	NaN	1	3	0.0741725096291569	1	1	NaN	379	7	1	2	121	221	321	NaN	521	0.0981886438094079	1	1	NaN	3720726.6674647	NaN	3720727.6507682	3720728.16743046
99	21	0	0	90	36.1581920903955	36.241610738255	10	0.33336479999125	2	6	4	NaN	1	5	0.0741725096291569	1	1	NaN	380	7	2	2	121	221	321	NaN	521	0.0104073262773454	1	1	NaN	3720729.0843677	NaN	3720730.0677693	3720730.58433407
99	21	0	0	90	36.1581920903955	36.241610738255	6	0.20001887999475	2	10	3	NaN	2	4	0.0741725096291569	1	1	NaN	381	7	3	2	121	221	321	NaN	521	1.54906822601333	2	1	NaN	3720731.4011985	NaN	3720732.3847162	3720732.90122717
99	21	0	0	90	36.1581920903955	36.241610738255	16	0.533383679986	2	12	6	NaN	2	3	0.0741725096291569	1	1	NaN	382	7	4	2	121	221	321	NaN	521	0.0339063741266727	2	1	NaN	3720735.2683241	NaN	3720736.2517509	3720736.76826663
99	21	0	0	90	36.1581920903955	36.241610738255	19	0.633393119983375	2	8	3	NaN	2	5	0.0741725096291569	1	1	NaN	383	7	5	2	121	221	321	NaN	521	0.0835828436538577	2	1	NaN	3720737.6185397	NaN	3720738.6018383	3720739.11850226
99	21	0	0	90	36.1581920903955	36.241610738255	12	0.4000377599895	2	2	3	NaN	1	3	0.0741725096291569	1	1	NaN	384	7	6	2	121	221	321	NaN	521	0.0873787263408303	1	1	NaN	3720740.5184243	NaN	3720741.5022244	3720742.01878847
99	21	0	0	90	36.1581920903955	36.241610738255	24	0.800075519979	2	4	3	NaN	1	5	0.0741725096291569	1	1	NaN	385	7	7	2	121	221	321	NaN	521	0.118234726600349	2	0	NaN	3720743.7356912	NaN	3720744.7192212	3720745.23576917
99	21	0	0	90	36.1581920903955	36.241610738255	23	0.766739039979875	2	8	2	NaN	2	3	0.0741725096291569	1	1	NaN	386	7	8	2	121	221	321	NaN	521	0.172955022193491	2	1	NaN	3720774.8888732	NaN	3720775.8723278	3720776.38882368
99	21	0	0	90	36.1581920903955	36.241610738255	18	0.60005663998425	2	4	3	NaN	1	4	0.0741725096291569	1	1	NaN	387	7	9	2	121	221	321	NaN	521	0.0990057741291821	2	0	NaN	3720777.739129	NaN	3720778.7225507	3720779.23910473
99	21	0	0	90	36.1581920903955	36.241610738255	22	0.73340255998075	2	8	6	NaN	2	3	0.0741725096291569	1	1	NaN	388	7	10	2	121	221	321	NaN	521	0.0660526743158698	2	1	NaN	3720780.1560555	NaN	3720781.1394515	3720781.65600493
99	21	0	0	90	36.1581920903955	36.241610738255	18	0.60005663998425	2	10	5	NaN	2	4	0.0741725096291569	1	1	NaN	389	7	11	2	121	221	321	NaN	521	0.0591868264600635	2	1	NaN	3720782.9228723	NaN	3720783.9063919	3720784.42295567
99	21	0	0	90	36.1581920903955	36.241610738255	24	0.800075519979	2	11	5	NaN	2	3	0.0741725096291569	1	1	NaN	390	7	12	2	121	221	321	NaN	521	0.0354837826453149	2	1	NaN	3720785.7065828	NaN	3720786.6900032	3720787.20656152
99	21	0	0	90	36.1581920903955	36.241610738255	22	0.73340255998075	2	8	2	NaN	2	4	0.0741725096291569	1	1	NaN	391	7	13	2	121	221	321	NaN	521	0.0853483784012496	2	1	NaN	3720788.456798	NaN	3720789.4402621	3720789.95682582
99	21	0	0	90	36.1581920903955	36.241610738255	25	0.833411999978125	2	12	5	NaN	2	5	0.0741725096291569	1	1	NaN	392	7	14	2	121	221	321	NaN	521	0.10512992599979	1	0	NaN	3720790.9571317	NaN	3720791.9405148	3720792.45707427
99	21	0	0	90	36.1581920903955	36.241610738255	22	0.73340255998075	2	5	3	NaN	1	5	0.0741725096291569	1	1	NaN	393	7	15	2	121	221	321	NaN	521	0.0104506220668554	2	0	NaN	3720793.7073001	NaN	3720794.6908436	3720795.20733618
99	21	0	0	90	36.1581920903955	36.241610738255	23	0.766739039979875	2	2	5	NaN	1	3	0.0741725096291569	1	1	NaN	394	7	16	2	121	221	321	NaN	521	0.0359110259450972	1	1	NaN	3720796.0742529	NaN	3720797.0576698	3720797.57424467
99	21	0	0	90	36.1581920903955	36.241610738255	18	0.60005663998425	2	11	5	NaN	2	4	0.0741725096291569	1	1	NaN	395	7	17	2	121	221	321	NaN	521	0.0615114783868194	2	1	NaN	3720798.4245027	NaN	3720799.4079088	3720799.92447562
99	21	0	0	90	36.1581920903955	36.241610738255	13	0.433374239988625	2	7	2	NaN	2	4	0.0741725096291569	1	1	NaN	396	7	18	2	121	221	321	NaN	521	0.0787538262084126	2	1	NaN	3720800.7913456	NaN	3720801.7748133	3720802.29136927
99	21	0	0	90	36.1581920903955	36.241610738255	22	0.73340255998075	2	7	2	NaN	2	3	0.0741725096291569	1	1	NaN	397	7	19	2	121	221	321	NaN	521	0.0632023741491139	2	1	NaN	3720803.174858	NaN	3720804.158383	3720804.67493763
99	21	0	0	90	36.1581920903955	36.241610738255	11	0.366701279990375	2	6	6	NaN	1	4	0.0741725096291569	1	1	NaN	398	7	20	2	121	221	321	NaN	521	0.135045826435089	1	1	NaN	3720805.5753702	NaN	3720806.5585984	3720807.07517207
99	21	0	0	90	36.1581920903955	36.241610738255	23	0.766739039979875	2	6	2	NaN	1	5	0.0741725096291569	1	1	NaN	399	7	21	2	121	221	321	NaN	521	0.24458837416023	1	1	NaN	3720808.02547	NaN	3720809.0088518	3720809.52541113
99	21	0	0	90	36.1581920903955	36.241610738255	19	0.633393119983375	2	9	5	NaN	2	3	0.0741725096291569	1	1	NaN	400	7	22	2	121	221	321	NaN	521	0.0297603216022253	2	1	NaN	3720810.9923895	NaN	3720811.9757463	3720812.49236478
99	21	0	0	90	36.1581920903955	36.241610738255	16	0.533383679986	2	2	3	NaN	1	5	0.0741725096291569	1	1	NaN	401	7	23	2	121	221	321	NaN	521	0.141472926363349	1	1	NaN	3720813.7925719	NaN	3720814.7760871	3720815.29264997
99	21	0	0	90	36.1581920903955	36.241610738255	13	0.433374239988625	2	11	2	NaN	2	4	0.0741725096291569	1	1	NaN	402	7	24	2	121	221	321	NaN	521	0.0104258740320802	2	1	NaN	3720816.2429385	NaN	3720817.2263656	3720817.74288553
99	21	0	0	90	36.1581920903955	36.241610738255	18	0.60005663998425	2	3	6	NaN	1	4	0.0741725096291569	1	1	NaN	403	7	25	2	121	221	321	NaN	521	0.0104026743210852	1	1	NaN	3720818.5598305	NaN	3720819.543215	3720820.05977483
99	21	0	0	90	36.1581920903955	36.241610738255	10	0.33336479999125	2	9	5	NaN	2	5	0.0741725096291569	1	1	NaN	404	7	26	2	121	221	321	NaN	521	0.0103907259181142	2	1	NaN	3720820.8767191	NaN	3720821.8600919	3720822.37667657
99	21	0	0	90	36.1581920903955	36.241610738255	16	0.533383679986	2	8	2	NaN	2	4	0.0741725096291569	1	1	NaN	405	7	27	2	121	221	321	NaN	521	0.0103811784647405	2	1	NaN	3720823.5936242	NaN	3720824.5770422	3720825.09360782
99	21	0	0	90	36.1581920903955	36.241610738255	20	0.6667295999825	2	2	6	NaN	1	5	0.0741725096291569	1	1	NaN	406	7	28	2	121	221	321	NaN	521	0.0103803784586489	2	0	NaN	3720826.2271132	NaN	3720827.2106397	3720827.72719742
99	21	0	0	90	36.1581920903955	36.241610738255	17	0.566720159985125	2	2	5	NaN	1	4	0.0741725096291569	1	1	NaN	407	7	29	2	121	221	321	NaN	521	0.189935026224703	2	0	NaN	3720828.9441528	NaN	3720829.9275728	3720830.44413507
99	21	0	0	90	36.1581920903955	36.241610738255	0	0	1	10	1	NaN	2	5	0.0741725096291569	1	1	NaN	408	7	30	2	111	211	311	NaN	511	0.132620221935213	2	1	NaN	3720831.7777897	NaN	3720832.7611927	3720833.27774798
99	21	0	0	90	36.1581920903955	36.241610738255	24	0.800075519979	2	8	1	NaN	2	4	0.0741725096291569	1	1	NaN	409	7	31	2	121	221	321	NaN	521	0.571178326383233	2	1	NaN	3720834.2114311	NaN	3720835.1947675	3720835.71131827
99	21	0	0	90	36.1581920903955	36.241610738255	0	0	1	8	2	NaN	2	3	0.0741725096291569	1	1	NaN	410	7	32	2	111	211	311	NaN	511	0.0393594782799482	2	1	NaN	3720837.0949467	NaN	3720838.0783506	3720838.59494052
99	21	0	0	90	36.1581920903955	36.241610738255	10	0.33336479999125	2	4	2	NaN	1	3	0.0741725096291569	1	1	NaN	411	7	33	2	121	221	321	NaN	521	0.131057717837393	1	1	NaN	3720839.7952166	NaN	3720840.7786413	3720841.29519178
99	21	0	0	90	36.1581920903955	36.241610738255	25	0.833411999978125	2	11	6	NaN	2	5	0.0741725096291569	1	1	NaN	412	7	34	2	121	221	321	NaN	521	0.137519243638963	2	1	NaN	3720842.228821	NaN	3720843.2121707	3720843.72876856
99	21	0	0	90	36.1581920903955	36.241610738255	8	0.266691839993	2	12	3	NaN	2	3	0.0741725096291569	1	1	NaN	413	7	35	2	121	221	321	NaN	521	0.0232811393216252	2	1	NaN	3720844.67905	NaN	3720845.6624622	3720846.17902046
99	21	0	0	90	36.1581920903955	36.241610738255	19	0.633393119983375	2	11	4	NaN	2	3	0.0741725096291569	1	1	NaN	414	7	36	2	121	221	321	NaN	521	0.145177726168185	2	1	NaN	3720847.0126313	NaN	3720847.9960208	3720848.51257867
99	21	0	0	90	36.1581920903955	36.241610738255	11	0.366701279990375	2	1	5	NaN	1	3	0.0741725096291569	1	1	NaN	415	7	37	2	121	221	321	NaN	521	0.0787385869771242	1	1	NaN	3720849.479535	NaN	3720850.4629747	3720850.97948881
99	21	0	0	90	36.1581920903955	36.241610738255	6	0.20001887999475	2	11	5	NaN	2	5	0.0741725096291569	1	1	NaN	416	7	38	2	121	221	321	NaN	521	0.182141774334013	2	1	NaN	3720852.296438	NaN	3720853.2798818	3720853.79642813
99	21	0	0	90	36.1581920903955	36.241610738255	22	0.73340255998075	2	5	1	NaN	1	4	0.0741725096291569	1	1	NaN	417	7	39	2	121	221	321	NaN	521	0.106149225961417	1	1	NaN	3720855.180056	NaN	3720856.1634884	3720856.68003717
99	21	0	0	90	36.1581920903955	36.241610738255	11	0.366701279990375	2	3	2	NaN	1	5	0.0741725096291569	1	1	NaN	418	7	40	2	121	221	321	NaN	521	0.1692980742082	1	1	NaN	3720857.9970044	NaN	3720858.9804508	3720859.49697903
99	21	0	0	90	36.1581920903955	36.241610738255	0	0	1	9	3	NaN	2	5	0.0741725096291569	1	1	NaN	419	7	41	2	111	211	311	NaN	511	0.136441073846072	2	1	NaN	3720860.8139491	NaN	3720861.7973863	3720862.31393463
99	21	0	0	90	36.1581920903955	36.241610738255	6	0.20001887999475	2	2	6	NaN	1	5	0.0741725096291569	1	1	NaN	420	7	42	2	121	221	321	NaN	521	0.062092574313283	2	0	NaN	3720863.264213	NaN	3720864.2476016	3720864.76416543
99	21	0	0	90	36.1581920903955	36.241610738255	12	0.4000377599895	2	3	2	NaN	1	3	0.0741725096291569	1	1	NaN	421	7	43	2	121	221	321	NaN	521	0.0471740956418216	2	0	NaN	3720865.631124	NaN	3720866.614515	3720867.1310761
99	21	0	0	90	36.1581920903955	36.241610738255	7	0.233355359993875	2	9	4	NaN	2	3	0.0741725096291569	1	1	NaN	422	7	44	2	121	221	321	NaN	521	0.176230025943369	2	1	NaN	3720867.9980073	NaN	3720868.9814103	3720869.49796917
99	21	0	0	90	36.1581920903955	36.241610738255	15	0.500047199986875	2	9	2	NaN	2	4	0.0741725096291569	1	1	NaN	423	7	45	2	121	221	321	NaN	521	0.0104097742587328	2	1	NaN	3720870.4814703	NaN	3720871.4649949	3720871.98153973
99	21	0	0	90	36.1581920903955	36.241610738255	21	0.700066079981625	2	4	6	NaN	1	5	0.0741725096291569	1	1	NaN	424	7	46	2	121	221	321	NaN	521	0.015017974190414	1	1	NaN	3720872.8151607	NaN	3720873.7985665	3720874.31510323
99	21	0	0	90	36.1581920903955	36.241610738255	22	0.73340255998075	2	4	1	NaN	1	3	0.0741725096291569	1	1	NaN	425	7	47	2	121	221	321	NaN	521	0.217813165858388	1	1	NaN	3720875.1486873	NaN	3720876.1321112	3720876.64866873
99	21	0	0	90	36.1581920903955	36.241610738255	23	0.766739039979875	2	2	6	NaN	1	3	0.0741725096291569	1	1	NaN	426	7	48	2	121	221	321	NaN	521	0.236087226308882	2	0	NaN	3720877.6822926	NaN	3720878.6656999	3720879.18225297
99	21	0	0	90	36.1581920903955	36.241610738255	8	0.266691839993	2	11	6	NaN	2	3	0.0741725096291569	1	1	NaN	427	7	49	2	121	221	321	NaN	521	0.0103897261433303	2	1	NaN	3720880.2325469	NaN	3720881.2159973	3720881.73250307
99	21	0	0	90	36.1581920903955	36.241610738255	23	0.766739039979875	2	7	1	NaN	2	3	0.0741725096291569	1	1	NaN	428	7	50	2	121	221	321	NaN	521	0.152235226240009	2	1	NaN	3720882.5659696	NaN	3720883.5495132	3720884.06606417
99	21	0	0	90	36.1581920903955	36.241610738255	14	0.46671071998775	2	7	4	NaN	2	3	0.0741725096291569	1	1	NaN	429	7	51	2	121	221	321	NaN	521	0.0103982263244689	2	1	NaN	3720885.3663758	NaN	3720886.3498461	3720886.86634037
99	21	0	0	90	36.1581920903955	36.241610738255	10	0.33336479999125	2	3	4	NaN	1	5	0.0741725096291569	1	1	NaN	430	7	52	2	121	221	321	NaN	521	0.0104070738889277	1	1	NaN	3720887.683162	NaN	3720888.6666751	3720889.18322793
99	21	0	0	90	36.1581920903955	36.241610738255	12	0.4000377599895	2	1	1	NaN	1	3	0.0741725096291569	1	1	NaN	431	7	53	2	121	221	321	NaN	521	0.165488526690751	2	0	NaN	3720890.0167223	NaN	3720891.0002392	3720891.51679617
99	21	0	0	90	36.1581920903955	36.241610738255	11	0.366701279990375	2	2	2	NaN	1	5	0.0741725096291569	1	1	NaN	432	7	54	2	121	221	321	NaN	521	0.14579667430371	1	1	NaN	3720892.5004157	NaN	3720893.4838337	3720894.00036573
99	21	0	0	90	36.1581920903955	36.241610738255	6	0.20001887999475	2	6	6	NaN	1	4	0.0741725096291569	1	1	NaN	433	7	55	2	121	221	321	NaN	521	0.27318187430501	1	1	NaN	3720895.3173353	NaN	3720896.3007495	3720896.81731913
99	21	0	0	90	36.1581920903955	36.241610738255	20	0.6667295999825	2	6	2	NaN	1	4	0.0741725096291569	1	1	NaN	434	7	56	2	121	221	321	NaN	521	0.225458526518196	2	0	NaN	3720897.9009507	NaN	3720898.884349	3720899.40090707
99	21	0	0	90	36.1581920903955	36.241610738255	15	0.500047199986875	2	5	2	NaN	1	4	0.0741725096291569	1	1	NaN	435	7	57	2	121	221	321	NaN	521	0.0999147263355553	1	1	NaN	3720900.4345583	NaN	3720901.417951	3720901.93448167
99	21	0	0	90	36.1581920903955	36.241610738255	22	0.73340255998075	2	10	6	NaN	2	3	0.0741725096291569	1	1	NaN	436	7	58	2	121	221	321	NaN	521	0.0103974263183773	2	1	NaN	3720902.8514388	NaN	3720903.8348364	3720904.35139137
99	21	0	0	90	36.1581920903955	36.241610738255	12	0.4000377599895	2	6	3	NaN	1	3	0.0741725096291569	1	1	NaN	437	7	59	2	121	221	321	NaN	521	0.0103931264020503	1	1	NaN	3720905.1683277	NaN	3720906.151725	3720906.66827907
99	21	0	0	90	36.1581920903955	36.241610738255	15	0.500047199986875	2	8	6	NaN	2	5	0.0741725096291569	1	1	NaN	438	7	60	2	121	221	321	NaN	521	0.116626022383571	2	1	NaN	3720907.8018975	NaN	3720908.7853256	3720909.30186728
99	21	0	0	90	36.1581920903955	36.241610738255	10	0.33336479999125	2	10	3	NaN	2	5	0.0741725096291569	1	1	NaN	439	7	61	2	121	221	321	NaN	521	0.186830974183977	2	1	NaN	3720910.2354885	NaN	3720911.2188927	3720911.73544833
99	21	0	0	90	36.1581920903955	36.241610738255	23	0.766739039979875	2	1	5	NaN	1	5	0.0741725096291569	1	1	NaN	440	7	62	2	121	221	321	NaN	521	0.158668474294245	1	1	NaN	3720912.7357384	NaN	3720913.7191288	3720914.23569523
99	21	0	0	90	36.1581920903955	36.241610738255	7	0.233355359993875	2	5	1	NaN	1	5	0.0741725096291569	1	1	NaN	441	7	63	2	121	221	321	NaN	521	0.0277961743995547	2	0	NaN	3720915.2025291	NaN	3720916.1860134	3720916.70259853
99	21	0	0	90	36.1581920903955	36.241610738255	8	0.266691839993	2	7	4	NaN	2	3	0.0741725096291569	1	1	NaN	442	8	1	2	121	221	321	NaN	521	0.106302973814309	2	1	NaN	3720978.892186	NaN	3720979.8756241	3720980.39218673
99	21	0	0	90	36.1581920903955	36.241610738255	8	0.266691839993	2	3	2	NaN	1	4	0.0741725096291569	1	1	NaN	443	8	2	2	121	221	321	NaN	521	0.0104084741324186	1	1	NaN	3720981.3091441	NaN	3720982.2925248	3720982.80909133
99	21	0	0	90	36.1581920903955	36.241610738255	7	0.233355359993875	2	11	4	NaN	2	3	0.0741725096291569	1	1	NaN	444	8	3	2	121	221	321	NaN	521	0.0103447828441858	2	1	NaN	3720983.6260655	NaN	3720984.6094287	3720985.12598032
99	21	0	0	90	36.1581920903955	36.241610738255	15	0.500047199986875	2	12	5	NaN	2	4	0.0741725096291569	1	1	NaN	445	8	4	2	121	221	321	NaN	521	0.0155774741433561	2	1	NaN	3720985.9429344	NaN	3720986.9263242	3720987.44287373
99	21	0	0	90	36.1581920903955	36.241610738255	6	0.20001887999475	2	9	6	NaN	2	3	0.0741725096291569	1	1	NaN	446	8	5	2	121	221	321	NaN	521	0.0103785782121122	1	0	NaN	3720988.2764774	NaN	3720989.2598853	3720989.77644922
99	21	0	0	90	36.1581920903955	36.241610738255	6	0.20001887999475	2	8	3	NaN	2	4	0.0741725096291569	1	1	NaN	447	8	6	2	121	221	321	NaN	521	0.0103879263624549	2	1	NaN	3720990.6100765	NaN	3720991.5934388	3720992.11001017
99	21	0	0	90	36.1581920903955	36.241610738255	9	0.300028319992125	2	11	3	NaN	2	5	0.0741725096291569	1	1	NaN	448	8	7	2	121	221	321	NaN	521	0.647431926336139	2	1	NaN	3720993.3269554	NaN	3720994.3103815	3720994.82694267
99	21	0	0	90	36.1581920903955	36.241610738255	0	0	1	10	5	NaN	2	3	0.0741725096291569	1	1	NaN	449	8	8	2	111	211	311	NaN	511	0.157372526358813	2	1	NaN	3720996.7773401	NaN	3720997.7607109	3720998.27728227
99	21	0	0	90	36.1581920903955	36.241610738255	17	0.566720159985125	2	1	3	NaN	1	4	0.0741725096291569	1	1	NaN	450	8	9	2	121	221	321	NaN	521	0.106256526429206	1	1	NaN	3720999.2442458	NaN	3721000.2276601	3721000.74418827
99	21	0	0	90	36.1581920903955	36.241610738255	12	0.4000377599895	2	12	2	NaN	2	5	0.0741725096291569	1	1	NaN	451	8	10	2	121	221	321	NaN	521	0.224488226231188	2	1	NaN	3721002.0778975	NaN	3721003.0612362	3721003.57779617
99	21	0	0	90	36.1581920903955	36.241610738255	13	0.433374239988625	2	2	1	NaN	1	5	0.0741725096291569	1	1	NaN	452	8	11	2	121	221	321	NaN	521	0.114672626368701	1	1	NaN	3721004.6114224	NaN	3721005.5948147	3721006.11138157
99	21	0	0	90	36.1581920903955	36.241610738255	12	0.4000377599895	2	6	5	NaN	1	5	0.0741725096291569	1	1	NaN	453	8	12	2	121	221	321	NaN	521	0.0104034263640642	2	0	NaN	3721007.0449681	NaN	3721008.0283973	3721008.54495367
99	21	0	0	90	36.1581920903955	36.241610738255	12	0.4000377599895	2	7	6	NaN	2	4	0.0741725096291569	1	1	NaN	454	8	13	2	121	221	321	NaN	521	0.0799288260750473	2	1	NaN	3721009.8779395	NaN	3721010.8619967	3721011.37856177
99	21	0	0	90	36.1581920903955	36.241610738255	8	0.266691839993	2	8	1	NaN	2	5	0.0741725096291569	1	1	NaN	455	8	14	2	121	221	321	NaN	521	0.0104193743318319	2	1	NaN	3721012.3121767	NaN	3721013.2956122	3721013.81213103
99	21	0	0	90	36.1581920903955	36.241610738255	7	0.233355359993875	2	6	5	NaN	1	4	0.0741725096291569	1	1	NaN	456	8	15	2	121	221	321	NaN	521	0.0861431742087007	2	0	NaN	3721015.1124447	NaN	3721016.0958308	3721016.61240823
99	21	0	0	90	36.1581920903955	36.241610738255	0	0	1	7	3	NaN	2	3	0.0741725096291569	1	1	NaN	457	8	16	2	111	211	311	NaN	511	0.319282522425056	2	1	NaN	3721017.8793586	NaN	3721018.8627895	3721019.37934288
99	21	0	0	90	36.1581920903955	36.241610738255	6	0.20001887999475	2	3	6	NaN	1	5	0.0741725096291569	1	1	NaN	458	8	17	2	121	221	321	NaN	521	0.25566937867552	1	1	NaN	3721020.8628753	NaN	3721021.8464066	3721022.36298152
