subjno	age	gender	isPractice	viewdist	CmToPixX	CmToPixY	SOA_frm	SOA_time	targNum	targID	targExample	targRace	targGender	firstTargPos	contrast	familiarity	curr_staircase	iStair	TrialNum	BlockNum	blktrl	sessionNum	TC_FIXATION	TC_RSVP_START	TC_RSVP_END	TC_BLANK	TC_RESPONSE_ONSET	RT2afc	resp_2afc	acc	RSVPOnsetVBL	RSVPOnsetTime	RSVPOffsetVBL	RSVPOffsetTime	startrt_2afc
96	20	0	0	90	36.1581920903955	36.241610738255	15	0.500033220089972	2	7	3	NaN	2	4	0.127937622744553	0	1	NaN	1	1	1	2	120	220	320	NaN	520	0.732317473739386	2	1	NaN	4403487.5216258	NaN	4403488.5048886	4403489.03798883
96	20	0	0	90	36.1581920903955	36.241610738255	19	0.633375412113965	2	9	2	NaN	2	5	0.127937622744553	0	1	NaN	2	1	2	2	120	220	320	NaN	520	0.463589473627508	2	1	NaN	4403490.6218872	NaN	4403491.6051678	4403492.13829243
96	20	0	0	90	36.1581920903955	36.241610738255	7	0.233348836041987	2	12	5	NaN	2	5	0.127937622744553	0	1	NaN	3	1	3	2	120	220	320	NaN	520	0.943945464678109	2	1	NaN	4403493.4219516	NaN	4403494.4053526	4403494.92190434
96	20	0	0	90	36.1581920903955	36.241610738255	11	0.366691028065979	2	3	4	NaN	1	3	0.127937622744553	0	1	NaN	4	1	4	2	120	220	320	NaN	520	2.48546476941556	2	0	NaN	4403496.6889391	NaN	4403497.6722329	4403498.18888963
96	20	0	0	90	36.1581920903955	36.241610738255	22	0.733382056131959	2	3	4	NaN	1	3	0.127937622744553	0	1	NaN	5	1	5	2	120	220	320	NaN	520	0.452714769169688	1	1	NaN	4403501.4894237	NaN	4403502.4728029	4403502.98935733
96	20	0	0	90	36.1581920903955	36.241610738255	25	0.833388700149953	2	8	4	NaN	2	3	0.127937622744553	0	1	NaN	6	1	6	2	120	220	320	NaN	520	0.989002264104784	2	1	NaN	4403504.2730095	NaN	4403505.256473	4403505.77295884
96	20	0	0	90	36.1581920903955	36.241610738255	12	0.400026576071978	2	3	1	NaN	1	3	0.127937622744553	0	1	NaN	7	1	7	2	120	220	320	NaN	520	0.512802521698177	1	1	NaN	4403507.5733455	NaN	4403508.5567496	4403509.07329598
96	20	0	0	90	36.1581920903955	36.241610738255	24	0.800053152143955	2	2	3	NaN	1	4	0.127937622744553	0	1	NaN	8	1	8	2	120	220	320	NaN	520	0.958918421529233	1	1	NaN	4403510.4069683	NaN	4403511.3903516	4403511.90690568
96	20	0	0	90	36.1581920903955	36.241610738255	14	0.466697672083974	2	6	2	NaN	1	4	0.127937622744553	0	1	NaN	9	1	9	2	120	220	320	NaN	520	0.619637370109558	1	1	NaN	4403513.690487	NaN	4403514.6740039	4403515.19055563
96	20	0	0	90	36.1581920903955	36.241610738255	10	0.333355480059981	2	7	6	NaN	2	4	0.127937622744553	0	1	NaN	10	1	10	2	120	220	320	NaN	520	0.837953221984208	2	1	NaN	4403516.6241023	NaN	4403517.6076054	4403518.12418318
96	20	0	0	90	36.1581920903955	36.241610738255	10	0.333355480059981	2	3	6	NaN	1	4	0.127937622744553	0	1	NaN	11	1	11	2	120	220	320	NaN	520	0.783506716601551	2	0	NaN	4403519.7745341	NaN	4403520.7579417	4403521.27448528
96	20	0	0	90	36.1581920903955	36.241610738255	24	0.800053152143955	2	5	1	NaN	1	3	0.127937622744553	0	1	NaN	12	1	12	2	120	220	320	NaN	520	1.20316036976874	1	1	NaN	4403522.8747224	NaN	4403523.8582363	4403524.37479203
96	20	0	0	90	36.1581920903955	36.241610738255	24	0.800053152143955	2	11	4	NaN	2	5	0.127937622744553	0	1	NaN	13	1	13	2	120	220	320	NaN	520	0.86243636906147	2	1	NaN	4403526.3918394	NaN	4403527.3752449	4403527.89180443
96	20	0	0	90	36.1581920903955	36.241610738255	8	0.266684384047985	2	5	2	NaN	1	5	0.127937622744553	0	1	NaN	14	1	14	2	120	220	320	NaN	520	0.790725494734943	2	0	NaN	4403529.5754941	NaN	4403530.5588753	4403531.07545801
96	20	0	0	90	36.1581920903955	36.241610738255	9	0.300019932053983	2	12	5	NaN	2	4	0.127937622744553	0	1	NaN	15	1	15	2	120	220	320	NaN	520	1.17777472175658	2	1	NaN	4403532.6924811	NaN	4403533.6758796	4403534.19243088
96	20	0	0	90	36.1581920903955	36.241610738255	25	0.833388700149953	2	4	5	NaN	1	5	0.127937622744553	0	1	NaN	16	1	16	2	120	220	320	NaN	520	0.611986821517348	1	1	NaN	4403536.226245	NaN	4403537.2095537	4403537.72610998
96	20	0	0	90	36.1581920903955	36.241610738255	12	0.400026576071978	2	8	5	NaN	2	4	0.127937622744553	0	1	NaN	17	1	17	2	120	220	320	NaN	520	1.09448082186282	2	1	NaN	4403539.1597619	NaN	4403540.1431675	4403540.65973308
96	20	0	0	90	36.1581920903955	36.241610738255	0	0	1	8	2	NaN	2	3	0.127937622744553	0	1	NaN	18	1	18	2	110	210	310	NaN	510	0.298184969462454	2	1	NaN	4403542.6599874	NaN	4403543.6435306	4403544.16006673
96	20	0	0	90	36.1581920903955	36.241610738255	18	0.600039864107966	2	12	6	NaN	2	3	0.127937622744553	0	1	NaN	19	1	19	2	120	220	320	NaN	520	0.496916926465929	2	1	NaN	4403545.2769998	NaN	4403546.2604404	4403546.77700947
96	20	0	0	90	36.1581920903955	36.241610738255	24	0.800053152143955	2	6	4	NaN	1	4	0.127937622744553	0	1	NaN	20	1	20	2	120	220	320	NaN	520	0.376349122263491	1	1	NaN	4403548.0939833	NaN	4403549.0773862	4403549.59394198
96	20	0	0	90	36.1581920903955	36.241610738255	14	0.466697672083974	2	9	6	NaN	2	3	0.127937622744553	0	1	NaN	21	1	21	2	120	220	320	NaN	520	0.284054621122777	2	1	NaN	4403550.7942533	NaN	4403551.777649	4403552.29420838
96	20	0	0	90	36.1581920903955	36.241610738255	22	0.733382056131959	2	4	5	NaN	1	5	0.127937622744553	0	1	NaN	22	1	22	2	120	220	320	NaN	520	0.381819821894169	1	1	NaN	4403553.7445183	NaN	4403554.727927	4403555.24448638
96	20	0	0	90	36.1581920903955	36.241610738255	24	0.800053152143955	2	9	1	NaN	2	3	0.127937622744553	0	1	NaN	23	1	23	2	120	220	320	NaN	520	0.353456522338092	2	1	NaN	4403556.4448146	NaN	4403557.4281988	4403557.94476158
96	20	0	0	90	36.1581920903955	36.241610738255	13	0.433362124077976	2	11	1	NaN	2	5	0.127937622744553	0	1	NaN	24	1	24	2	120	220	320	NaN	520	0.262304869480431	2	1	NaN	4403559.1117327	NaN	4403560.0951338	4403560.61169023
96	20	0	0	90	36.1581920903955	36.241610738255	13	0.433362124077976	2	4	6	NaN	1	4	0.127937622744553	0	1	NaN	25	1	25	2	120	220	320	NaN	520	0.270423421636224	1	1	NaN	4403561.6953222	NaN	4403562.6787074	4403563.19527758
96	20	0	0	90	36.1581920903955	36.241610738255	25	0.833388700149953	2	11	5	NaN	2	5	0.127937622744553	0	1	NaN	26	1	26	2	120	220	320	NaN	520	0.263088022358716	2	1	NaN	4403564.2789118	NaN	4403565.2622968	4403565.77885508
96	20	0	0	90	36.1581920903955	36.241610738255	18	0.600039864107966	2	2	4	NaN	1	4	0.127937622744553	0	1	NaN	27	1	27	2	120	220	320	NaN	520	0.239764122292399	1	1	NaN	4403566.8624072	NaN	4403567.8458976	4403568.36245248
96	20	0	0	90	36.1581920903955	36.241610738255	0	0	1	12	3	NaN	2	4	0.127937622744553	0	1	NaN	28	1	28	2	110	210	310	NaN	510	0.376707869581878	2	1	NaN	4403569.4294343	NaN	4403570.4128131	4403570.92936133
96	20	0	0	90	36.1581920903955	36.241610738255	0	0	1	5	4	NaN	1	4	0.127937622744553	0	1	NaN	29	1	29	2	110	210	310	NaN	510	0.308340373449028	2	0	NaN	4403572.1296819	NaN	4403573.1130683	4403573.62963783
96	20	0	0	90	36.1581920903955	36.241610738255	15	0.500033220089972	2	2	3	NaN	1	3	0.127937622744553	0	1	NaN	30	1	30	2	120	220	320	NaN	520	0.354832837358117	2	0	NaN	4403574.7632843	NaN	4403575.746686	4403576.26322766
96	20	0	0	90	36.1581920903955	36.241610738255	21	0.700046508125961	2	1	3	NaN	1	3	0.127937622744553	0	1	NaN	31	1	31	2	120	220	320	NaN	520	0.567230169661343	2	0	NaN	4403577.4468828	NaN	4403578.4302627	4403578.94681853
96	20	0	0	90	36.1581920903955	36.241610738255	21	0.700046508125961	2	12	2	NaN	2	5	0.127937622744553	0	1	NaN	32	1	32	2	120	220	320	NaN	520	0.443862269632518	2	1	NaN	4403580.330485	NaN	4403581.3138826	4403581.83042993
96	20	0	0	90	36.1581920903955	36.241610738255	11	0.366691028065979	2	8	5	NaN	2	3	0.127937622744553	0	1	NaN	33	1	33	2	120	220	320	NaN	520	1.56459232699126	2	1	NaN	4403583.0974431	NaN	4403584.08086	4403584.59737307
96	20	0	0	90	36.1581920903955	36.241610738255	13	0.433362124077976	2	5	6	NaN	1	4	0.127937622744553	0	1	NaN	34	1	34	2	120	220	320	NaN	520	0.209205620922148	1	1	NaN	4403586.9811306	NaN	4403587.9645334	4403588.48109738
96	20	0	0	90	36.1581920903955	36.241610738255	20	0.666710960119963	2	11	2	NaN	2	5	0.127937622744553	0	1	NaN	35	1	35	2	120	220	320	NaN	520	0.41945627424866	2	1	NaN	4403589.5147262	NaN	4403590.4981201	4403591.01468063
96	20	0	0	90	36.1581920903955	36.241610738255	15	0.500033220089972	2	12	5	NaN	2	3	0.127937622744553	0	1	NaN	36	1	36	2	120	220	320	NaN	520	0.597659116610885	2	1	NaN	4403592.2483181	NaN	4403593.2317164	4403593.74826848
96	20	0	0	90	36.1581920903955	36.241610738255	24	0.800053152143955	2	7	2	NaN	2	3	0.127937622744553	0	1	NaN	37	1	37	2	120	220	320	NaN	520	0.400605821982026	2	1	NaN	4403595.1652686	NaN	4403596.148678	4403596.66523178
96	20	0	0	90	36.1581920903955	36.241610738255	9	0.300019932053983	2	9	4	NaN	2	4	0.127937622744553	0	1	NaN	38	1	38	2	120	220	320	NaN	520	0.29195857886225	2	1	NaN	4403597.8821887	NaN	4403598.8655936	4403599.38216352
96	20	0	0	90	36.1581920903955	36.241610738255	11	0.366691028065979	2	10	6	NaN	2	5	0.127937622744553	0	1	NaN	39	1	39	2	120	220	320	NaN	520	0.491003121249378	2	1	NaN	4403600.4991485	NaN	4403601.4825259	4403601.99909238
96	20	0	0	90	36.1581920903955	36.241610738255	9	0.300019932053983	2	10	6	NaN	2	3	0.127937622744553	0	1	NaN	40	1	40	2	120	220	320	NaN	520	0.234512621536851	1	0	NaN	4403603.2993646	NaN	4403604.2828201	4403604.79936448
96	20	0	0	90	36.1581920903955	36.241610738255	20	0.666710960119963	2	12	5	NaN	2	4	0.127937622744553	0	1	NaN	41	1	41	2	120	220	320	NaN	520	1.14077512174845	2	1	NaN	4403605.8495523	NaN	4403606.8330611	4403607.34961688
96	20	0	0	90	36.1581920903955	36.241610738255	11	0.366691028065979	2	6	3	NaN	1	4	0.127937622744553	0	1	NaN	42	1	42	2	120	220	320	NaN	520	0.442030370235443	1	1	NaN	4403609.2999964	NaN	4403610.2834015	4403610.79995363
96	20	0	0	90	36.1581920903955	36.241610738255	19	0.633375412113965	2	5	4	NaN	1	4	0.127937622744553	0	1	NaN	43	1	43	2	120	220	320	NaN	520	0.483409121632576	2	0	NaN	4403612.066943	NaN	4403613.0503246	4403613.56689488
96	20	0	0	90	36.1581920903955	36.241610738255	23	0.766717604137957	2	1	1	NaN	1	3	0.127937622744553	0	1	NaN	44	1	44	2	120	220	320	NaN	520	1.28277721721679	2	0	NaN	4403614.8672172	NaN	4403615.8506046	4403616.36715598
96	20	0	0	90	36.1581920903955	36.241610738255	24	0.800053152143955	2	1	2	NaN	1	5	0.127937622744553	0	1	NaN	45	1	45	2	120	220	320	NaN	520	0.882448227144778	1	1	NaN	4403618.4675779	NaN	4403619.4509456	4403619.96752277
96	20	0	0	90	36.1581920903955	36.241610738255	17	0.566704316101968	2	10	1	NaN	2	3	0.127937622744553	0	1	NaN	46	1	46	2	120	220	320	NaN	520	0.314441994763911	2	1	NaN	4403621.6679062	NaN	4403622.6512716	4403623.1678435
96	20	0	0	90	36.1581920903955	36.241610738255	25	0.833388700149953	2	5	6	NaN	1	4	0.127937622744553	0	1	NaN	47	1	47	2	120	220	320	NaN	520	0.552604021504521	1	1	NaN	4403624.3013472	NaN	4403625.2848767	4403625.80143028
96	20	0	0	90	36.1581920903955	36.241610738255	23	0.766717604137957	2	6	2	NaN	1	3	0.127937622744553	0	1	NaN	48	1	48	2	120	220	320	NaN	520	0.805807169526815	1	1	NaN	4403627.1684258	NaN	4403628.1518176	4403628.66836513
96	20	0	0	90	36.1581920903955	36.241610738255	12	0.400026576071978	2	11	5	NaN	2	3	0.127937622744553	0	1	NaN	49	1	49	2	120	220	320	NaN	520	0.48858261667192	2	1	NaN	4403630.2853866	NaN	4403631.2687962	4403631.78534178
96	20	0	0	90	36.1581920903955	36.241610738255	9	0.300019932053983	2	11	5	NaN	2	4	0.127937622744553	0	1	NaN	50	1	50	2	120	220	320	NaN	520	0.371067620813847	2	1	NaN	4403633.4189301	NaN	4403634.4024101	4403634.91899238
96	20	0	0	90	36.1581920903955	36.241610738255	18	0.600039864107966	2	3	2	NaN	1	5	0.127937622744553	0	1	NaN	51	1	51	2	120	220	320	NaN	520	0.319267021492124	2	0	NaN	4403636.3026874	NaN	4403637.2860754	4403637.80260628
96	20	0	0	90	36.1581920903955	36.241610738255	10	0.333355480059981	2	2	6	NaN	1	3	0.127937622744553	0	1	NaN	52	1	52	2	120	220	320	NaN	520	0.390200668945909	2	0	NaN	4403638.9361094	NaN	4403639.9196424	4403640.43619713
96	20	0	0	90	36.1581920903955	36.241610738255	6	0.200013288035989	2	5	3	NaN	1	4	0.127937622744553	0	1	NaN	53	1	53	2	120	220	320	NaN	520	0.0336734224110842	1	1	NaN	4403641.6363777	NaN	4403642.619915	4403643.13646648
96	20	0	0	90	36.1581920903955	36.241610738255	21	0.700046508125961	2	11	2	NaN	2	5	0.127937622744553	0	1	NaN	54	1	54	2	120	220	320	NaN	520	0.330591469071805	2	1	NaN	4403644.2033641	NaN	4403645.1868122	4403645.70337443
96	20	0	0	90	36.1581920903955	36.241610738255	11	0.366691028065979	2	9	4	NaN	2	5	0.127937622744553	0	1	NaN	55	1	55	2	120	220	320	NaN	520	0.0537803694605827	2	1	NaN	4403647.3202442	NaN	4403648.3037991	4403648.82034583
96	20	0	0	90	36.1581920903955	36.241610738255	14	0.466697672083974	2	4	6	NaN	1	3	0.127937622744553	0	1	NaN	56	1	56	2	120	220	320	NaN	520	0.311118021607399	2	0	NaN	4403649.6872901	NaN	4403650.6706964	4403651.18725398
96	20	0	0	90	36.1581920903955	36.241610738255	25	0.833388700149953	2	12	1	NaN	2	3	0.127937622744553	0	1	NaN	57	1	57	2	120	220	320	NaN	520	0.485935789532959	2	1	NaN	4403652.3042169	NaN	4403653.2876482	4403653.80417341
96	20	0	0	90	36.1581920903955	36.241610738255	12	0.400026576071978	2	12	3	NaN	2	5	0.127937622744553	0	1	NaN	58	1	58	2	120	220	320	NaN	520	0.389960521832108	2	1	NaN	4403655.1044953	NaN	4403656.087874	4403656.60445388
96	20	0	0	90	36.1581920903955	36.241610738255	11	0.366691028065979	2	9	4	NaN	2	3	0.127937622744553	0	1	NaN	59	1	59	2	120	220	320	NaN	520	1.60920552164316	2	1	NaN	4403657.8047604	NaN	4403658.7881544	4403659.30472098
96	20	0	0	90	36.1581920903955	36.241610738255	13	0.433362124077976	2	10	5	NaN	2	4	0.127937622744553	0	1	NaN	60	1	60	2	120	220	320	NaN	520	1.70040682144463	2	1	NaN	4403661.7218146	NaN	4403662.705211	4403663.22176888
96	20	0	0	90	36.1581920903955	36.241610738255	22	0.733382056131959	2	8	2	NaN	2	3	0.127937622744553	0	1	NaN	61	1	61	2	120	220	320	NaN	520	0.619684222154319	2	1	NaN	4403665.7389773	NaN	4403666.7222735	4403667.23883128
96	20	0	0	90	36.1581920903955	36.241610738255	24	0.800053152143955	2	7	1	NaN	2	5	0.127937622744553	0	1	NaN	62	1	62	2	120	220	320	NaN	520	0.309703232720494	1	0	NaN	4403668.6725136	NaN	4403669.655876	4403670.17245327
96	20	0	0	90	36.1581920903955	36.241610738255	23	0.766717604137957	2	7	1	NaN	2	4	0.127937622744553	0	1	NaN	63	1	63	2	120	220	320	NaN	520	0.402788122184575	2	1	NaN	4403671.3395253	NaN	4403672.3228359	4403672.83937498
96	20	0	0	90	36.1581920903955	36.241610738255	21	0.700046508125961	2	7	5	NaN	2	3	0.127937622744553	0	1	NaN	64	2	1	2	120	220	320	NaN	520	0.241081421263516	2	1	NaN	4403695.3251466	NaN	4403696.3085152	4403696.82506658
96	20	0	0	90	36.1581920903955	36.241610738255	16	0.53336876809597	2	2	6	NaN	1	3	0.127937622744553	0	1	NaN	65	2	2	2	120	220	320	NaN	520	1.02644542232156	2	0	NaN	4403697.8920293	NaN	4403698.875425	4403699.39198328
96	20	0	0	90	36.1581920903955	36.241610738255	10	0.333355480059981	2	10	1	NaN	2	5	0.127937622744553	0	1	NaN	66	2	3	2	120	220	320	NaN	520	0.0524995215237141	2	1	NaN	4403701.2257998	NaN	4403702.2091159	4403702.72565118
96	20	0	0	90	36.1581920903955	36.241610738255	6	0.200013288035989	2	12	1	NaN	2	4	0.127937622744553	0	1	NaN	67	2	4	2	120	220	320	NaN	520	0.213596073910594	2	1	NaN	4403703.592597	NaN	4403704.5759932	4403705.09255193
96	20	0	0	90	36.1581920903955	36.241610738255	7	0.233348836041987	2	5	2	NaN	1	4	0.127937622744553	0	1	NaN	68	2	5	2	120	220	320	NaN	520	0.424364569596946	1	1	NaN	4403706.126179	NaN	4403707.1095752	4403707.62612053
96	20	0	0	90	36.1581920903955	36.241610738255	23	0.766717604137957	2	10	5	NaN	2	4	0.127937622744553	0	1	NaN	69	2	6	2	120	220	320	NaN	520	0.370484622195363	1	0	NaN	4403708.8597485	NaN	4403709.8431615	4403710.35973508
96	20	0	0	90	36.1581920903955	36.241610738255	21	0.700046508125961	2	4	2	NaN	1	3	0.127937622744553	0	1	NaN	70	2	7	2	120	220	320	NaN	520	0.466184221208096	1	1	NaN	4403711.6600792	NaN	4403712.6434484	4403713.16000558
96	20	0	0	90	36.1581920903955	36.241610738255	23	0.766717604137957	2	8	1	NaN	2	5	0.127937622744553	0	1	NaN	71	2	8	2	120	220	320	NaN	520	0.314662769436836	2	1	NaN	4403714.4436633	NaN	4403715.4270583	4403715.94361833
96	20	0	0	90	36.1581920903955	36.241610738255	13	0.433362124077976	2	8	6	NaN	2	3	0.127937622744553	0	1	NaN	72	2	9	2	120	220	320	NaN	520	0.18618472199887	2	1	NaN	4403717.2438017	NaN	4403718.2273259	4403718.74388548
96	20	0	0	90	36.1581920903955	36.241610738255	22	0.733382056131959	2	11	2	NaN	2	3	0.127937622744553	0	1	NaN	73	2	10	2	120	220	320	NaN	520	0.326051321811974	2	1	NaN	4403719.7441813	NaN	4403720.7275716	4403721.24412958
96	20	0	0	90	36.1581920903955	36.241610738255	12	0.400026576071978	2	2	5	NaN	1	3	0.127937622744553	0	1	NaN	74	2	11	2	120	220	320	NaN	520	0.324422569945455	1	1	NaN	4403722.3778099	NaN	4403723.3611699	4403723.87772473
96	20	0	0	90	36.1581920903955	36.241610738255	9	0.300019932053983	2	2	3	NaN	1	3	0.127937622744553	0	1	NaN	75	2	12	2	120	220	320	NaN	520	0.203222369775176	2	0	NaN	4403725.0114101	NaN	4403725.9947657	4403726.51131493
96	20	0	0	90	36.1581920903955	36.241610738255	0	0	1	6	4	NaN	1	5	0.127937622744553	0	1	NaN	76	2	13	2	110	210	310	NaN	510	0.366337274201214	1	1	NaN	4403727.5282848	NaN	4403728.5117151	4403729.02823743
96	20	0	0	90	36.1581920903955	36.241610738255	22	0.733382056131959	2	2	1	NaN	1	5	0.127937622744553	0	1	NaN	77	2	14	2	120	220	320	NaN	520	0.522255405783653	2	0	NaN	4403730.2118726	NaN	4403731.1952734	4403731.71182729
96	20	0	0	90	36.1581920903955	36.241610738255	20	0.666710960119963	2	5	1	NaN	1	4	0.127937622744553	0	1	NaN	78	2	15	2	120	220	320	NaN	520	0.3769177692011	2	0	NaN	4403733.0454945	NaN	4403734.0288963	4403734.54544443
96	20	0	0	90	36.1581920903955	36.241610738255	9	0.300019932053983	2	5	6	NaN	1	3	0.127937622744553	0	1	NaN	79	2	16	2	120	220	320	NaN	520	0.0692392215132713	1	1	NaN	4403735.728978	NaN	4403736.7124601	4403737.22903298
96	20	0	0	90	36.1581920903955	36.241610738255	21	0.700046508125961	2	9	5	NaN	2	5	0.127937622744553	0	1	NaN	80	2	17	2	120	220	320	NaN	520	0.501457769423723	2	1	NaN	4403738.1126522	NaN	4403739.0960723	4403739.61259653
96	20	0	0	90	36.1581920903955	36.241610738255	19	0.633375412113965	2	8	1	NaN	2	3	0.127937622744553	0	1	NaN	81	2	18	2	120	220	320	NaN	520	0.676769269630313	1	0	NaN	4403740.9295909	NaN	4403741.9128992	4403742.42954703
96	20	0	0	90	36.1581920903955	36.241610738255	17	0.566704316101968	2	4	5	NaN	1	4	0.127937622744553	0	1	NaN	82	2	19	2	120	220	320	NaN	520	0.229255369864404	1	1	NaN	4403743.9131257	NaN	4403744.8966105	4403745.41317643
96	20	0	0	90	36.1581920903955	36.241610738255	18	0.600039864107966	2	4	6	NaN	1	4	0.127937622744553	0	1	NaN	83	2	20	2	120	220	320	NaN	520	0.311801821924746	2	0	NaN	4403746.4467889	NaN	4403747.4302016	4403747.94675218
96	20	0	0	90	36.1581920903955	36.241610738255	16	0.53336876809597	2	4	4	NaN	1	3	0.127937622744553	0	1	NaN	84	2	21	2	120	220	320	NaN	520	0.23884316906333	1	1	NaN	4403749.063739	NaN	4403750.0471268	4403750.56367133
96	20	0	0	90	36.1581920903955	36.241610738255	7	0.233348836041987	2	4	6	NaN	1	4	0.127937622744553	0	1	NaN	85	2	22	2	120	220	320	NaN	520	0.240243121981621	1	1	NaN	4403751.613881	NaN	4403752.5973732	4403753.11393548
96	20	0	0	90	36.1581920903955	36.241610738255	16	0.53336876809597	2	12	2	NaN	2	5	0.127937622744553	0	1	NaN	86	2	23	2	120	220	320	NaN	520	0.255897121503949	2	1	NaN	4403754.2308892	NaN	4403755.2143106	4403755.73085678
96	20	0	0	90	36.1581920903955	36.241610738255	11	0.366691028065979	2	7	1	NaN	2	5	0.127937622744553	0	1	NaN	87	2	24	2	120	220	320	NaN	520	0.344357689842582	2	1	NaN	4403756.7978167	NaN	4403757.7811969	4403758.29777861
96	20	0	0	90	36.1581920903955	36.241610738255	8	0.266684384047985	2	1	5	NaN	1	4	0.127937622744553	0	1	NaN	88	2	25	2	120	220	320	NaN	520	0.0737203164026141	2	0	NaN	4403759.5647631	NaN	4403760.5481449	4403761.06470428
96	20	0	0	90	36.1581920903955	36.241610738255	16	0.53336876809597	2	11	2	NaN	2	5	0.127937622744553	0	1	NaN	89	2	26	2	120	220	320	NaN	520	0.302538769319654	2	1	NaN	4403762.8317348	NaN	4403763.8151418	4403764.33169063
96	20	0	0	90	36.1581920903955	36.241610738255	18	0.600039864107966	2	5	5	NaN	1	3	0.127937622744553	0	1	NaN	90	2	27	2	120	220	320	NaN	520	0.519183321855962	2	0	NaN	4403766.4153016	NaN	4403767.3988283	4403767.91538418
96	20	0	0	90	36.1581920903955	36.241610738255	8	0.266684384047985	2	10	2	NaN	2	3	0.127937622744553	0	1	NaN	91	2	28	2	120	220	320	NaN	520	0.141170421615243	1	0	NaN	4403769.2490317	NaN	4403770.2323498	4403770.74899188
96	20	0	0	90	36.1581920903955	36.241610738255	16	0.53336876809597	2	10	1	NaN	2	3	0.127937622744553	0	1	NaN	92	2	29	2	120	220	320	NaN	520	0.419107520952821	2	1	NaN	4403771.6993032	NaN	4403772.6826885	4403773.19924238
96	20	0	0	90	36.1581920903955	36.241610738255	0	0	1	11	6	NaN	2	4	0.127937622744553	0	1	NaN	93	2	30	2	110	210	310	NaN	510	0.822614616714418	2	1	NaN	4403797.5517949	NaN	4403798.5352246	4403799.05177228
96	20	0	0	90	36.1581920903955	36.241610738255	18	0.600039864107966	2	11	3	NaN	2	4	0.127937622744553	0	1	NaN	94	2	31	2	120	220	320	NaN	520	0.680878316983581	2	1	NaN	4403800.6855587	NaN	4403801.6688475	4403802.18541248
96	20	0	0	90	36.1581920903955	36.241610738255	15	0.500033220089972	2	9	6	NaN	2	3	0.127937622744553	0	1	NaN	95	2	32	2	120	220	320	NaN	520	0.496814468875527	2	1	NaN	4403803.6857678	NaN	4403804.6691721	4403805.18570733
96	20	0	0	90	36.1581920903955	36.241610738255	11	0.366691028065979	2	5	1	NaN	1	5	0.127937622744553	0	1	NaN	96	2	33	2	120	220	320	NaN	520	0.864657769910991	2	0	NaN	4403806.4860626	NaN	4403807.469434	4403807.98598483
96	20	0	0	90	36.1581920903955	36.241610738255	0	0	1	11	4	NaN	2	5	0.127937622744553	0	1	NaN	97	2	34	2	110	210	310	NaN	510	0.409008221700788	2	1	NaN	4403809.6696831	NaN	4403810.6531084	4403811.16962668
96	20	0	0	90	36.1581920903955	36.241610738255	21	0.700046508125961	2	10	1	NaN	2	3	0.127937622744553	0	1	NaN	98	2	35	2	120	220	320	NaN	520	0.675371069461107	2	1	NaN	4403812.4032951	NaN	4403813.3866846	4403813.90323213
96	20	0	0	90	36.1581920903955	36.241610738255	12	0.400026576071978	2	1	3	NaN	1	5	0.127937622744553	0	1	NaN	99	2	36	2	120	220	320	NaN	520	0.355533774010837	1	1	NaN	4403815.3869066	NaN	4403816.3703111	4403816.88686423
96	20	0	0	90	36.1581920903955	36.241610738255	0	0	1	1	3	NaN	1	4	0.127937622744553	0	1	NaN	100	2	37	2	110	210	310	NaN	510	0.680730169638991	2	0	NaN	4403818.0538344	NaN	4403819.0372343	4403819.55378973
96	20	0	0	90	36.1581920903955	36.241610738255	20	0.666710960119963	2	2	3	NaN	1	5	0.127937622744553	0	1	NaN	101	2	38	2	120	220	320	NaN	520	0.280216122046113	1	1	NaN	4403821.0541445	NaN	4403822.0375291	4403822.55408758
96	20	0	0	90	36.1581920903955	36.241610738255	8	0.266684384047985	2	8	5	NaN	2	4	0.127937622744553	0	1	NaN	102	2	39	2	120	220	320	NaN	520	0.45579881593585	2	1	NaN	4403823.6544068	NaN	4403824.637821	4403825.15433418
96	20	0	0	90	36.1581920903955	36.241610738255	25	0.833388700149953	2	8	4	NaN	2	4	0.127937622744553	0	1	NaN	103	2	40	2	120	220	320	NaN	520	0.393148269504309	2	1	NaN	4403826.4213408	NaN	4403827.4047275	4403827.92126883
96	20	0	0	90	36.1581920903955	36.241610738255	19	0.633375412113965	2	7	4	NaN	2	5	0.127937622744553	0	1	NaN	104	2	41	2	120	220	320	NaN	520	0.364796321839094	2	1	NaN	4403829.1215907	NaN	4403830.1049944	4403830.62154568
96	20	0	0	90	36.1581920903955	36.241610738255	8	0.266684384047985	2	6	5	NaN	1	3	0.127937622744553	0	1	NaN	105	2	42	2	120	220	320	NaN	520	0.201251221820712	1	1	NaN	4403831.8050679	NaN	4403832.788581	4403833.30513898
96	20	0	0	90	36.1581920903955	36.241610738255	13	0.433362124077976	2	7	4	NaN	2	4	0.127937622744553	0	1	NaN	106	2	43	2	120	220	320	NaN	520	0.428217521868646	2	1	NaN	4403834.3221609	NaN	4403835.3055129	4403835.82205738
96	20	0	0	90	36.1581920903955	36.241610738255	7	0.233348836041987	2	8	2	NaN	2	5	0.127937622744553	0	1	NaN	107	2	44	2	120	220	320	NaN	520	0.334712621755898	2	1	NaN	4403837.0557076	NaN	4403838.0391046	4403838.55565678
96	20	0	0	90	36.1581920903955	36.241610738255	14	0.466697672083974	2	3	5	NaN	1	4	0.127937622744553	0	1	NaN	108	2	45	2	120	220	320	NaN	520	0.292753069661558	1	1	NaN	4403839.7058436	NaN	4403840.6892696	4403841.20590863
96	20	0	0	90	36.1581920903955	36.241610738255	19	0.633375412113965	2	7	4	NaN	2	3	0.127937622744553	0	1	NaN	109	2	46	2	120	220	320	NaN	520	0.428540021181107	2	1	NaN	4403842.3062287	NaN	4403843.289675	4403843.80617528
96	20	0	0	90	36.1581920903955	36.241610738255	23	0.766717604137957	2	1	2	NaN	1	4	0.127937622744553	0	1	NaN	110	2	47	2	120	220	320	NaN	520	0.277969169430435	1	1	NaN	4403845.056504	NaN	4403846.0399017	4403846.55644453
96	20	0	0	90	36.1581920903955	36.241610738255	20	0.666710960119963	2	12	6	NaN	2	5	0.127937622744553	0	1	NaN	111	2	48	2	120	220	320	NaN	520	0.422672669403255	2	1	NaN	4403847.6401296	NaN	4403848.6233875	4403849.14002473
96	20	0	0	90	36.1581920903955	36.241610738255	12	0.400026576071978	2	10	4	NaN	2	5	0.127937622744553	0	1	NaN	112	2	49	2	120	220	320	NaN	520	0.848956169560552	2	1	NaN	4403850.373557	NaN	4403851.3570807	4403851.87363183
96	20	0	0	90	36.1581920903955	36.241610738255	20	0.666710960119963	2	11	1	NaN	2	5	0.127937622744553	0	1	NaN	113	2	50	2	120	220	320	NaN	520	0.403362721204758	2	1	NaN	4403853.707301	NaN	4403854.6907392	4403855.20729428
96	20	0	0	90	36.1581920903955	36.241610738255	9	0.300019932053983	2	3	5	NaN	1	5	0.127937622744553	0	1	NaN	114	2	51	2	120	220	320	NaN	520	0.65407121181488	1	1	NaN	4403856.4242618	NaN	4403857.4076699	4403857.92422449
96	20	0	0	90	36.1581920903955	36.241610738255	21	0.700046508125961	2	1	2	NaN	1	4	0.127937622744553	0	1	NaN	115	2	52	2	120	220	320	NaN	520	0.991142321377993	1	1	NaN	4403859.3912402	NaN	4403860.3746945	4403860.89118518
96	20	0	0	90	36.1581920903955	36.241610738255	8	0.266684384047985	2	11	1	NaN	2	3	0.127937622744553	0	1	NaN	116	2	53	2	120	220	320	NaN	520	0.354705332778394	2	1	NaN	4403862.6915661	NaN	4403863.674941	4403864.19151347
96	20	0	0	90	36.1581920903955	36.241610738255	12	0.400026576071978	2	11	3	NaN	2	3	0.127937622744553	0	1	NaN	117	2	54	2	120	220	320	NaN	520	1.13559537008405	1	0	NaN	4403865.3585132	NaN	4403866.3418747	4403866.85843393
96	20	0	0	90	36.1581920903955	36.241610738255	0	0	1	5	6	NaN	1	3	0.127937622744553	0	1	NaN	118	2	55	2	110	210	310	NaN	510	0.74177916906774	1	1	NaN	4403868.8088775	NaN	4403869.7922278	4403870.30878023
96	20	0	0	90	36.1581920903955	36.241610738255	20	0.666710960119963	2	1	1	NaN	1	5	0.127937622744553	0	1	NaN	119	2	56	2	120	220	320	NaN	520	2.04337699525058	1	1	NaN	4403871.8591273	NaN	4403872.8425218	4403873.3590823
96	20	0	0	90	36.1581920903955	36.241610738255	0	0	1	1	1	NaN	1	3	0.127937622744553	0	1	NaN	120	2	57	2	110	210	310	NaN	510	0.412846568971872	2	0	NaN	4403876.2095705	NaN	4403877.1929443	4403877.70950183
96	20	0	0	90	36.1581920903955	36.241610738255	16	0.53336876809597	2	3	4	NaN	1	5	0.127937622744553	0	1	NaN	121	2	58	2	120	220	320	NaN	520	0.879213669337332	1	1	NaN	4403878.94315	NaN	4403879.9265527	4403880.44309813
96	20	0	0	90	36.1581920903955	36.241610738255	21	0.700046508125961	2	5	3	NaN	1	5	0.127937622744553	0	1	NaN	122	2	59	2	120	220	320	NaN	520	0.871493089012802	1	1	NaN	4403882.126681	NaN	4403883.110201	4403883.62675041
96	20	0	0	90	36.1581920903955	36.241610738255	24	0.800053152143955	2	12	5	NaN	2	5	0.127937622744553	0	1	NaN	123	2	60	2	120	220	320	NaN	520	0.7042186697945	2	1	NaN	4403885.3103902	NaN	4403886.2938342	4403886.81039003
96	20	0	0	90	36.1581920903955	36.241610738255	0	0	1	10	3	NaN	2	4	0.127937622744553	0	1	NaN	124	2	61	2	110	210	310	NaN	510	0.807220621965826	2	1	NaN	4403888.327398	NaN	4403889.3108028	4403889.82736428
96	20	0	0	90	36.1581920903955	36.241610738255	13	0.433362124077976	2	12	3	NaN	2	5	0.127937622744553	0	1	NaN	125	2	62	2	120	220	320	NaN	520	0.170033521018922	2	1	NaN	4403891.4443861	NaN	4403892.4277844	4403892.94433028
96	20	0	0	90	36.1581920903955	36.241610738255	14	0.466697672083974	2	3	6	NaN	1	3	0.127937622744553	0	1	NaN	126	2	63	2	120	220	320	NaN	520	0.446337722241879	1	1	NaN	4403893.9279599	NaN	4403894.9113502	4403895.42790538
96	20	0	0	90	36.1581920903955	36.241610738255	8	0.266684384047985	2	7	3	NaN	2	3	0.127937622744553	0	1	NaN	127	3	1	2	120	220	320	NaN	520	0.265269932337105	2	1	NaN	4403920.7972823	NaN	4403921.780653	4403922.29721417
96	20	0	0	90	36.1581920903955	36.241610738255	6	0.200013288035989	2	10	4	NaN	2	4	0.127937622744553	0	1	NaN	128	3	2	2	120	220	320	NaN	520	0.0258011696860194	2	1	NaN	4403923.380701	NaN	4403924.3642456	4403924.88079383
96	20	0	0	90	36.1581920903955	36.241610738255	6	0.200013288035989	2	11	4	NaN	2	5	0.127937622744553	0	1	NaN	129	3	3	2	120	220	320	NaN	520	0.0815274734050035	2	1	NaN	4403925.9810743	NaN	4403926.9644856	4403927.48106343
96	20	0	0	90	36.1581920903955	36.241610738255	22	0.733382056131959	2	7	2	NaN	2	5	0.127937622744553	0	1	NaN	130	3	4	2	120	220	320	NaN	520	0.838874021545053	2	1	NaN	4403930.8315508	NaN	4403931.814982	4403932.33153718
96	20	0	0	90	36.1581920903955	36.241610738255	14	0.466697672083974	2	12	4	NaN	2	3	0.127937622744553	0	1	NaN	131	3	5	2	120	220	320	NaN	520	0.0406267214566469	2	1	NaN	4403933.9819123	NaN	4403934.9651964	4403935.48183728
96	20	0	0	90	36.1581920903955	36.241610738255	17	0.566704316101968	2	2	6	NaN	1	3	0.127937622744553	0	1	NaN	132	3	6	2	120	220	320	NaN	520	0.658665320836008	2	0	NaN	4403936.3321111	NaN	4403937.3155454	4403937.83207968
96	20	0	0	90	36.1581920903955	36.241610738255	21	0.700046508125961	2	6	4	NaN	1	3	0.127937622744553	0	1	NaN	133	3	7	2	120	220	320	NaN	520	0.39039751701057	1	1	NaN	4403939.4325087	NaN	4403940.4158195	4403940.93236908
96	20	0	0	90	36.1581920903955	36.241610738255	16	0.53336876809597	2	5	2	NaN	1	5	0.127937622744553	0	1	NaN	134	3	8	2	120	220	320	NaN	520	0.817891021259129	1	1	NaN	4403942.1327066	NaN	4403943.1161038	4403943.63264628
96	20	0	0	90	36.1581920903955	36.241610738255	22	0.733382056131959	2	6	5	NaN	1	5	0.127937622744553	0	1	NaN	135	3	9	2	120	220	320	NaN	520	0.732481869868934	2	0	NaN	4403945.2662132	NaN	4403946.2497426	4403946.76628233
96	20	0	0	90	36.1581920903955	36.241610738255	7	0.233348836041987	2	3	2	NaN	1	3	0.127937622744553	0	1	NaN	136	3	10	2	120	220	320	NaN	520	1.76194081641734	2	0	NaN	4403948.3165609	NaN	4403949.3000314	4403949.81658088
96	20	0	0	90	36.1581920903955	36.241610738255	19	0.633375412113965	2	12	2	NaN	2	5	0.127937622744553	0	1	NaN	137	3	11	2	120	220	320	NaN	520	1.58294042106718	2	1	NaN	4403952.383671	NaN	4403953.367095	4403953.88365618
96	20	0	0	90	36.1581920903955	36.241610738255	12	0.400026576071978	2	5	4	NaN	1	5	0.127937622744553	0	1	NaN	138	3	12	2	120	220	320	NaN	520	0.738493021577597	1	1	NaN	4403956.284087	NaN	4403957.2675773	4403957.78403658
96	20	0	0	90	36.1581920903955	36.241610738255	0	0	1	9	3	NaN	2	5	0.127937622744553	0	1	NaN	139	3	13	2	110	210	310	NaN	510	0.576575421728194	1	0	NaN	4403959.3343784	NaN	4403960.3177908	4403960.83433318
96	20	0	0	90	36.1581920903955	36.241610738255	10	0.333355480059981	2	5	4	NaN	1	4	0.127937622744553	0	1	NaN	140	3	14	2	120	220	320	NaN	520	0.452807121910155	1	1	NaN	4403962.2179007	NaN	4403963.2013895	4403963.71795428
96	20	0	0	90	36.1581920903955	36.241610738255	11	0.366691028065979	2	11	4	NaN	2	5	0.127937622744553	0	1	NaN	141	3	15	2	120	220	320	NaN	520	0.603945442475379	2	1	NaN	4403965.2348566	NaN	4403966.2183514	4403966.73492086
96	20	0	0	90	36.1581920903955	36.241610738255	8	0.266684384047985	2	7	1	NaN	2	4	0.127937622744553	0	1	NaN	142	3	16	2	120	220	320	NaN	520	0.680654421448708	2	1	NaN	4403969.1019839	NaN	4403970.0854027	4403970.60195888
96	20	0	0	90	36.1581920903955	36.241610738255	15	0.500033220089972	2	5	5	NaN	1	3	0.127937622744553	0	1	NaN	143	3	17	2	120	220	320	NaN	520	0.344227221794426	1	1	NaN	4403972.1022945	NaN	4403973.0857174	4403973.60225768
96	20	0	0	90	36.1581920903955	36.241610738255	17	0.566704316101968	2	12	2	NaN	2	3	0.127937622744553	0	1	NaN	144	3	18	2	120	220	320	NaN	520	0.685195221565664	2	1	NaN	4403974.7692286	NaN	4403975.7526284	4403976.26918208
96	20	0	0	90	36.1581920903955	36.241610738255	9	0.300019932053983	2	2	1	NaN	1	3	0.127937622744553	0	1	NaN	145	3	19	2	120	220	320	NaN	520	0.989378321915865	2	0	NaN	4403977.7695295	NaN	4403978.7529015	4403979.26947968
96	20	0	0	90	36.1581920903955	36.241610738255	15	0.500033220089972	2	12	5	NaN	2	3	0.127937622744553	0	1	NaN	146	3	20	2	120	220	320	NaN	520	0.490359622053802	2	1	NaN	4403981.4365411	NaN	4403982.4199496	4403982.93650648
96	20	0	0	90	36.1581920903955	36.241610738255	7	0.233348836041987	2	4	4	NaN	1	4	0.127937622744553	0	1	NaN	147	3	21	2	120	220	320	NaN	520	0.474290168844163	2	0	NaN	4403985.6202723	NaN	4403986.6037099	4403987.12024053
96	20	0	0	90	36.1581920903955	36.241610738255	16	0.53336876809597	2	8	4	NaN	2	4	0.127937622744553	0	1	NaN	148	3	22	2	120	220	320	NaN	520	0.698370370082557	2	1	NaN	4403988.4039049	NaN	4403989.3873118	4403989.90386073
96	20	0	0	90	36.1581920903955	36.241610738255	18	0.600039864107966	2	10	5	NaN	2	5	0.127937622744553	0	1	NaN	149	3	23	2	120	220	320	NaN	520	0.385846422053874	2	1	NaN	4403991.4208631	NaN	4403992.4042662	4403992.92082128
96	20	0	0	90	36.1581920903955	36.241610738255	14	0.466697672083974	2	8	6	NaN	2	5	0.127937622744553	0	1	NaN	150	3	24	2	120	220	320	NaN	520	0.010426769964397	2	1	NaN	4403994.1211274	NaN	4403995.1045273	4403995.62107673
96	20	0	0	90	36.1581920903955	36.241610738255	8	0.266684384047985	2	12	4	NaN	2	3	0.127937622744553	0	1	NaN	151	3	25	2	120	220	320	NaN	520	0.442856322042644	2	1	NaN	4403996.9880348	NaN	4403997.9714753	4403998.48802678
96	20	0	0	90	36.1581920903955	36.241610738255	20	0.666710960119963	2	9	2	NaN	2	5	0.127937622744553	0	1	NaN	152	3	26	2	120	220	320	NaN	520	0.396534269675612	2	1	NaN	4403999.7383604	NaN	4404000.7217401	4404001.23829623
96	20	0	0	90	36.1581920903955	36.241610738255	16	0.53336876809597	2	2	2	NaN	1	3	0.127937622744553	0	1	NaN	153	3	27	2	120	220	320	NaN	520	0.206045622006059	1	1	NaN	4404002.4885895	NaN	4404003.4720214	4404003.98857548
96	20	0	0	90	36.1581920903955	36.241610738255	20	0.666710960119963	2	10	6	NaN	2	5	0.127937622744553	0	1	NaN	154	3	28	2	120	220	320	NaN	520	1.97384872101247	2	1	NaN	4404005.0889115	NaN	4404006.0722714	4404006.58883068
96	20	0	0	90	36.1581920903955	36.241610738255	10	0.333355480059981	2	9	5	NaN	2	5	0.127937622744553	0	1	NaN	155	3	29	2	120	220	320	NaN	520	0.929970874451101	2	1	NaN	4404009.3725076	NaN	4404010.3560213	4404010.87258793
96	20	0	0	90	36.1581920903955	36.241610738255	14	0.466697672083974	2	2	2	NaN	1	5	0.127937622744553	0	1	NaN	156	3	30	2	120	220	320	NaN	520	0.405266869813204	1	1	NaN	4404013.0895362	NaN	4404014.0730771	4404014.58960853
96	20	0	0	90	36.1581920903955	36.241610738255	21	0.700046508125961	2	6	4	NaN	1	5	0.127937622744553	0	1	NaN	157	3	31	2	120	220	320	NaN	520	1.23988892138004	1	1	NaN	4404015.8066087	NaN	4404016.7899965	4404017.30654818
96	20	0	0	90	36.1581920903955	36.241610738255	6	0.200013288035989	2	4	4	NaN	1	4	0.127937622744553	0	1	NaN	158	3	32	2	120	220	320	NaN	520	0.466090021654963	1	1	NaN	4404019.3569484	NaN	4404020.3403445	4404020.85689838
96	20	0	0	90	36.1581920903955	36.241610738255	20	0.666710960119963	2	6	3	NaN	1	3	0.127937622744553	0	1	NaN	159	3	33	2	120	220	320	NaN	520	0.524362321943045	1	1	NaN	4404022.4905973	NaN	4404023.4740109	4404023.99053948
96	20	0	0	90	36.1581920903955	36.241610738255	12	0.400026576071978	2	7	6	NaN	2	4	0.127937622744553	0	1	NaN	160	3	34	2	120	220	320	NaN	520	1.41824211645871	2	1	NaN	4404025.3243062	NaN	4404026.3075949	4404026.82414528
96	20	0	0	90	36.1581920903955	36.241610738255	14	0.466697672083974	2	2	4	NaN	1	4	0.127937622744553	0	1	NaN	161	3	35	2	120	220	320	NaN	520	1.25280582159758	2	0	NaN	4404029.0579089	NaN	4404030.0412889	4404030.55785118
96	20	0	0	90	36.1581920903955	36.241610738255	25	0.833388700149953	2	10	3	NaN	2	3	0.127937622744553	0	1	NaN	162	3	36	2	120	220	320	NaN	520	3.22832472156733	2	1	NaN	4404032.6582683	NaN	4404033.6416537	4404034.15820708
96	20	0	0	90	36.1581920903955	36.241610738255	23	0.766717604137957	2	5	5	NaN	1	3	0.127937622744553	0	1	NaN	163	3	37	2	120	220	320	NaN	520	1.13416372146457	2	0	NaN	4404038.2088007	NaN	4404039.1921932	4404039.70875418
96	20	0	0	90	36.1581920903955	36.241610738255	19	0.633375412113965	2	6	2	NaN	1	3	0.127937622744553	0	1	NaN	164	3	38	2	120	220	320	NaN	520	0.443929769098759	2	0	NaN	4404041.6591398	NaN	4404042.6425353	4404043.15910593
96	20	0	0	90	36.1581920903955	36.241610738255	17	0.566704316101968	2	7	3	NaN	2	4	0.127937622744553	0	1	NaN	165	3	39	2	120	220	320	NaN	520	0.349550321698189	2	1	NaN	4404044.4093954	NaN	4404045.3928037	4404045.90934808
96	20	0	0	90	36.1581920903955	36.241610738255	24	0.800053152143955	2	5	4	NaN	1	3	0.127937622744553	0	1	NaN	166	3	40	2	120	220	320	NaN	520	0.450259270146489	2	0	NaN	4404047.076333	NaN	4404048.0597393	4404048.57627873
96	20	0	0	90	36.1581920903955	36.241610738255	14	0.466697672083974	2	8	6	NaN	2	5	0.127937622744553	0	1	NaN	167	3	41	2	120	220	320	NaN	520	0.254670494236052	2	1	NaN	4404050.7600274	NaN	4404051.7434141	4404052.25999111
96	20	0	0	90	36.1581920903955	36.241610738255	12	0.400026576071978	2	1	2	NaN	1	4	0.127937622744553	0	1	NaN	168	3	42	2	120	220	320	NaN	520	0.387284221127629	2	0	NaN	4404053.4436254	NaN	4404054.4270174	4404054.94358018
96	20	0	0	90	36.1581920903955	36.241610738255	23	0.766717604137957	2	11	5	NaN	2	4	0.127937622744553	0	1	NaN	169	3	43	2	120	220	320	NaN	520	0.415141969919205	2	1	NaN	4404056.1438806	NaN	4404057.1272837	4404057.64383623
96	20	0	0	90	36.1581920903955	36.241610738255	17	0.566704316101968	2	4	3	NaN	1	5	0.127937622744553	0	1	NaN	170	3	44	2	120	220	320	NaN	520	0.598129021935165	2	0	NaN	4404058.9608003	NaN	4404059.9442348	4404060.46078908
96	20	0	0	90	36.1581920903955	36.241610738255	18	0.600039864107966	2	9	1	NaN	2	5	0.127937622744553	0	1	NaN	171	3	45	2	120	220	320	NaN	520	0.328635521233082	2	1	NaN	4404061.8943479	NaN	4404062.8778524	4404063.39440978
96	20	0	0	90	36.1581920903955	36.241610738255	25	0.833388700149953	2	6	6	NaN	1	3	0.127937622744553	0	1	NaN	172	3	46	2	120	220	320	NaN	520	0.447952021844685	2	0	NaN	4404064.8946165	NaN	4404065.8781496	4404066.39470768
96	20	0	0	90	36.1581920903955	36.241610738255	14	0.466697672083974	2	1	6	NaN	1	5	0.127937622744553	0	1	NaN	173	3	47	2	120	220	320	NaN	520	0.79565742239356	1	1	NaN	4404068.7951072	NaN	4404069.7785448	4404070.29508858
96	20	0	0	90	36.1581920903955	36.241610738255	6	0.200013288035989	2	1	6	NaN	1	3	0.127937622744553	0	1	NaN	174	3	48	2	120	220	320	NaN	520	0.378633068874478	1	1	NaN	4404072.4121349	NaN	4404073.3955472	4404073.91211133
96	20	0	0	90	36.1581920903955	36.241610738255	11	0.366691028065979	2	11	1	NaN	2	4	0.127937622744553	0	1	NaN	175	3	49	2	120	220	320	NaN	520	0.614305069670081	2	1	NaN	4404075.1122719	NaN	4404076.0958191	4404076.61237373
96	20	0	0	90	36.1581920903955	36.241610738255	19	0.633375412113965	2	11	3	NaN	2	4	0.127937622744553	0	1	NaN	176	3	50	2	120	220	320	NaN	520	0.435957321897149	2	1	NaN	4404078.162721	NaN	4404079.1461168	4404079.66267148
96	20	0	0	90	36.1581920903955	36.241610738255	22	0.733382056131959	2	3	2	NaN	1	4	0.127937622744553	0	1	NaN	177	3	51	2	120	220	320	NaN	520	1.86999736912549	1	1	NaN	4404080.9129822	NaN	4404081.8963918	4404082.41293503
96	20	0	0	90	36.1581920903955	36.241610738255	7	0.233348836041987	2	11	6	NaN	2	5	0.127937622744553	0	1	NaN	178	3	52	2	120	220	320	NaN	520	1.24588052090257	2	1	NaN	4404085.0967526	NaN	4404086.0801358	4404086.59669128
96	20	0	0	90	36.1581920903955	36.241610738255	22	0.733382056131959	2	10	1	NaN	2	4	0.127937622744553	0	1	NaN	179	3	53	2	120	220	320	NaN	520	0.983720069751143	2	1	NaN	4404088.6470785	NaN	4404089.6304808	4404090.14703243
96	20	0	0	90	36.1581920903955	36.241610738255	24	0.800053152143955	2	3	2	NaN	1	4	0.127937622744553	0	1	NaN	180	3	54	2	120	220	320	NaN	520	0.411555421538651	1	1	NaN	4404091.9473122	NaN	4404092.930811	4404093.44736318
96	20	0	0	90	36.1581920903955	36.241610738255	17	0.566704316101968	2	1	4	NaN	1	3	0.127937622744553	0	1	NaN	181	3	55	2	120	220	320	NaN	520	0.445548921823502	1	1	NaN	4404094.6810606	NaN	4404095.6644718	4404096.18095818
96	20	0	0	90	36.1581920903955	36.241610738255	11	0.366691028065979	2	7	3	NaN	2	4	0.127937622744553	0	1	NaN	182	3	56	2	120	220	320	NaN	520	0.671114469878376	2	1	NaN	4404097.4479487	NaN	4404098.4313448	4404098.94789293
96	20	0	0	90	36.1581920903955	36.241610738255	22	0.733382056131959	2	10	2	NaN	2	3	0.127937622744553	0	1	NaN	183	3	57	2	120	220	320	NaN	520	1.412513515912	1	0	NaN	4404100.4982431	NaN	4404101.481647	4404101.99819298
96	20	0	0	90	36.1581920903955	36.241610738255	18	0.600039864107966	2	3	2	NaN	1	3	0.127937622744553	0	1	NaN	184	3	58	2	120	220	320	NaN	520	0.43987346906215	1	1	NaN	4404104.21528	NaN	4404105.1986792	4404105.71524213
96	20	0	0	90	36.1581920903955	36.241610738255	6	0.200013288035989	2	9	2	NaN	2	5	0.127937622744553	0	1	NaN	185	3	59	2	120	220	320	NaN	520	2.25747312232852	2	1	NaN	4404106.9655333	NaN	4404107.9489497	4404108.46550358
96	20	0	0	90	36.1581920903955	36.241610738255	13	0.433362124077976	2	9	2	NaN	2	3	0.127937622744553	0	1	NaN	186	3	60	2	120	220	320	NaN	520	0.42610177397728	2	1	NaN	4404111.5326881	NaN	4404112.5160675	4404113.03262873
96	20	0	0	90	36.1581920903955	36.241610738255	21	0.700046508125961	2	8	4	NaN	2	4	0.127937622744553	0	1	NaN	187	3	61	2	120	220	320	NaN	520	1.62868257332593	2	1	NaN	4404114.2663589	NaN	4404115.2496945	4404115.76622383
96	20	0	0	90	36.1581920903955	36.241610738255	8	0.266684384047985	2	4	3	NaN	1	4	0.127937622744553	0	1	NaN	188	3	62	2	120	220	320	NaN	520	0.446751121431589	1	1	NaN	4404118.1999873	NaN	4404119.1833844	4404119.69993728
96	20	0	0	90	36.1581920903955	36.241610738255	8	0.266684384047985	2	8	1	NaN	2	4	0.127937622744553	0	1	NaN	189	3	63	2	120	220	320	NaN	520	1.22424046974629	1	0	NaN	4404120.9668083	NaN	4404121.9503358	4404122.46687383
96	20	0	0	90	36.1581920903955	36.241610738255	17	0.566704316101968	2	9	4	NaN	2	4	0.127937622744553	0	1	NaN	190	4	1	2	120	220	320	NaN	520	0.506936121731997	2	1	NaN	4404198.7078862	NaN	4404199.69131	4404200.20784148
96	20	0	0	90	36.1581920903955	36.241610738255	6	0.200013288035989	2	5	1	NaN	1	4	0.127937622744553	0	1	NaN	191	4	2	2	120	220	320	NaN	520	0.228248221799731	1	1	NaN	4404201.6748167	NaN	4404202.6582569	4404203.17480738
96	20	0	0	90	36.1581920903955	36.241610738255	21	0.700046508125961	2	2	4	NaN	1	5	0.127937622744553	0	1	NaN	192	4	3	2	120	220	320	NaN	520	0.397817241959274	1	1	NaN	4404204.2251163	NaN	4404205.2085008	4404205.72505686
96	20	0	0	90	36.1581920903955	36.241610738255	0	0	1	12	4	NaN	2	3	0.127937622744553	0	1	NaN	193	4	4	2	110	210	310	NaN	510	0.297413470223546	2	1	NaN	4404206.9253771	NaN	4404207.9087788	4404208.42531443
96	20	0	0	90	36.1581920903955	36.241610738255	9	0.300019932053983	2	7	2	NaN	2	4	0.127937622744553	0	1	NaN	194	4	5	2	120	220	320	NaN	520	0.104593869298697	2	1	NaN	4404209.5423137	NaN	4404210.5257473	4404211.04224743
96	20	0	0	90	36.1581920903955	36.241610738255	8	0.266684384047985	2	4	1	NaN	1	5	0.127937622744553	0	1	NaN	195	4	6	2	120	220	320	NaN	520	0.31102932151407	1	1	NaN	4404211.9758464	NaN	4404212.9592666	4404213.47581258
96	20	0	0	90	36.1581920903955	36.241610738255	25	0.833388700149953	2	3	4	NaN	1	5	0.127937622744553	0	1	NaN	196	4	7	2	120	220	320	NaN	520	0.485834921710193	1	1	NaN	4404214.6094634	NaN	4404215.5928381	4404216.10940288
96	20	0	0	90	36.1581920903955	36.241610738255	15	0.500033220089972	2	2	2	NaN	1	3	0.127937622744553	0	1	NaN	197	4	8	2	120	220	320	NaN	520	0.565259621478617	1	1	NaN	4404217.4097323	NaN	4404218.3931227	4404218.90967688
96	20	0	0	90	36.1581920903955	36.241610738255	17	0.566704316101968	2	12	1	NaN	2	3	0.127937622744553	0	1	NaN	198	4	9	2	120	220	320	NaN	520	0.305908969603479	2	1	NaN	4404220.2933586	NaN	4404221.2767555	4404221.79329193
96	20	0	0	90	36.1581920903955	36.241610738255	23	0.766717604137957	2	5	1	NaN	1	3	0.127937622744553	0	1	NaN	199	4	10	2	120	220	320	NaN	520	0.400531621649861	2	0	NaN	4404222.9102733	NaN	4404223.8936594	4404224.41022638
96	20	0	0	90	36.1581920903955	36.241610738255	13	0.433362124077976	2	8	6	NaN	2	3	0.127937622744553	0	1	NaN	200	4	11	2	120	220	320	NaN	520	0.443978121504188	2	1	NaN	4404225.6271971	NaN	4404226.61062	4404227.12716238
96	20	0	0	90	36.1581920903955	36.241610738255	11	0.366691028065979	2	6	6	NaN	1	3	0.127937622744553	0	1	NaN	201	4	12	2	120	220	320	NaN	520	0.33339552115649	2	0	NaN	4404228.3774812	NaN	4404229.3608719	4404229.87742868
96	20	0	0	90	36.1581920903955	36.241610738255	18	0.600039864107966	2	11	3	NaN	2	3	0.127937622744553	0	1	NaN	202	4	13	2	120	220	320	NaN	520	0.139300068840384	2	1	NaN	4404231.027724	NaN	4404232.0111333	4404232.52768573
96	20	0	0	90	36.1581920903955	36.241610738255	10	0.333355480059981	2	6	3	NaN	1	3	0.127937622744553	0	1	NaN	203	4	14	2	120	220	320	NaN	520	0.264893721789122	1	1	NaN	4404233.4778771	NaN	4404234.4613867	4404234.97793298
96	20	0	0	90	36.1581920903955	36.241610738255	17	0.566704316101968	2	5	3	NaN	1	4	0.127937622744553	0	1	NaN	204	4	15	2	120	220	320	NaN	520	0.233616816811264	2	0	NaN	4404236.0615616	NaN	4404237.0449568	4404237.56150498
96	20	0	0	90	36.1581920903955	36.241610738255	6	0.200013288035989	2	8	3	NaN	2	4	0.127937622744553	0	1	NaN	205	4	16	2	120	220	320	NaN	520	0.659436421468854	2	1	NaN	4404238.6118094	NaN	4404239.5952039	4404240.11177118
96	20	0	0	90	36.1581920903955	36.241610738255	17	0.566704316101968	2	3	6	NaN	1	5	0.127937622744553	0	1	NaN	206	4	17	2	120	220	320	NaN	520	0.564329121261835	2	0	NaN	4404241.5787576	NaN	4404242.5621884	4404243.07872678
96	20	0	0	90	36.1581920903955	36.241610738255	15	0.500033220089972	2	7	6	NaN	2	5	0.127937622744553	0	1	NaN	207	4	18	2	120	220	320	NaN	520	0.360830321907997	2	1	NaN	4404244.4623935	NaN	4404245.4457975	4404245.96234448
96	20	0	0	90	36.1581920903955	36.241610738255	20	0.666710960119963	2	10	4	NaN	2	4	0.127937622744553	0	1	NaN	208	4	19	2	120	220	320	NaN	520	0.573737570084631	2	1	NaN	4404247.1292012	NaN	4404248.1127371	4404248.62926553
96	20	0	0	90	36.1581920903955	36.241610738255	7	0.233348836041987	2	1	4	NaN	1	3	0.127937622744553	0	1	NaN	209	4	20	2	120	220	320	NaN	520	0.386344021186233	1	1	NaN	4404250.0128098	NaN	4404250.9963304	4404251.51288618
96	20	0	0	90	36.1581920903955	36.241610738255	7	0.233348836041987	2	7	2	NaN	2	3	0.127937622744553	0	1	NaN	210	4	21	2	120	220	320	NaN	520	0.317834021523595	2	1	NaN	4404252.713194	NaN	4404253.6965893	4404254.21315358
96	20	0	0	90	36.1581920903955	36.241610738255	19	0.633375412113965	2	1	5	NaN	1	5	0.127937622744553	0	1	NaN	211	4	22	2	120	220	320	NaN	520	0.412191421724856	2	0	NaN	4404255.3467991	NaN	4404256.3301831	4404256.84673918
96	20	0	0	90	36.1581920903955	36.241610738255	14	0.466697672083974	2	5	1	NaN	1	5	0.127937622744553	0	1	NaN	212	4	23	2	120	220	320	NaN	520	0.311242422088981	1	1	NaN	4404258.2638286	NaN	4404259.2471495	4404259.76369718
96	20	0	0	90	36.1581920903955	36.241610738255	8	0.266684384047985	2	5	2	NaN	1	3	0.127937622744553	0	1	NaN	213	4	24	2	120	220	320	NaN	520	0.582611221820116	1	1	NaN	4404260.8806844	NaN	4404261.8640616	4404262.38062008
96	20	0	0	90	36.1581920903955	36.241610738255	19	0.633375412113965	2	4	3	NaN	1	3	0.127937622744553	0	1	NaN	214	4	25	2	120	220	320	NaN	520	0.346343570388854	2	0	NaN	4404263.7809491	NaN	4404264.7643593	4404265.28090333
96	20	0	0	90	36.1581920903955	36.241610738255	0	0	1	10	4	NaN	2	4	0.127937622744553	0	1	NaN	215	4	26	2	110	210	310	NaN	510	0.391751022078097	2	1	NaN	4404266.4310983	NaN	4404267.414622	4404267.93115968
96	20	0	0	90	36.1581920903955	36.241610738255	16	0.53336876809597	2	8	5	NaN	2	5	0.127937622744553	0	1	NaN	216	4	27	2	120	220	320	NaN	520	0.603541721589863	2	1	NaN	4404269.1314734	NaN	4404270.1148733	4404270.63143258
96	20	0	0	90	36.1581920903955	36.241610738255	22	0.733382056131959	2	12	6	NaN	2	5	0.127937622744553	0	1	NaN	217	4	28	2	120	220	320	NaN	520	0.446648521348834	2	1	NaN	4404272.0483556	NaN	4404273.0318207	4404273.54838308
96	20	0	0	90	36.1581920903955	36.241610738255	6	0.200013288035989	2	11	6	NaN	2	3	0.127937622744553	0	1	NaN	218	4	29	2	120	220	320	NaN	520	0.535756069235504	2	1	NaN	4404274.8153944	NaN	4404275.7987635	4404276.31531373
96	20	0	0	90	36.1581920903955	36.241610738255	22	0.733382056131959	2	1	5	NaN	1	4	0.127937622744553	0	1	NaN	219	4	30	2	120	220	320	NaN	520	0.0934727899730206	1	1	NaN	4404277.6656574	NaN	4404278.6489522	4404279.16560671
96	20	0	0	90	36.1581920903955	36.241610738255	22	0.733382056131959	2	5	3	NaN	1	4	0.127937622744553	0	1	NaN	220	4	31	2	120	220	320	NaN	520	0.484454921446741	1	1	NaN	4404280.0825554	NaN	4404281.0659721	4404281.58250068
96	20	0	0	90	36.1581920903955	36.241610738255	9	0.300019932053983	2	11	4	NaN	2	4	0.127937622744553	0	1	NaN	221	4	32	2	120	220	320	NaN	520	0.500190169550478	1	0	NaN	4404282.8828414	NaN	4404283.8663169	4404284.38277453
96	20	0	0	90	36.1581920903955	36.241610738255	11	0.366691028065979	2	2	2	NaN	1	3	0.127937622744553	0	1	NaN	222	4	33	2	120	220	320	NaN	520	1.69916621688753	2	0	NaN	4404285.6997703	NaN	4404286.68316	4404287.19972558
96	20	0	0	90	36.1581920903955	36.241610738255	17	0.566704316101968	2	1	1	NaN	1	5	0.127937622744553	0	1	NaN	223	4	34	2	120	220	320	NaN	520	0.543757569044828	1	1	NaN	4404289.7834856	NaN	4404290.7669068	4404291.28346173
96	20	0	0	90	36.1581920903955	36.241610738255	8	0.266684384047985	2	10	6	NaN	2	3	0.127937622744553	0	1	NaN	224	4	35	2	120	220	320	NaN	520	0.341566421091557	2	1	NaN	4404292.6337972	NaN	4404293.617185	4404294.13374388
96	20	0	0	90	36.1581920903955	36.241610738255	25	0.833388700149953	2	9	5	NaN	2	5	0.127937622744553	0	1	NaN	225	4	36	2	120	220	320	NaN	520	0.642906721681356	2	1	NaN	4404295.2840872	NaN	4404296.2674452	4404296.78400048
96	20	0	0	90	36.1581920903955	36.241610738255	8	0.266684384047985	2	3	2	NaN	1	5	0.127937622744553	0	1	NaN	226	4	37	2	120	220	320	NaN	520	0.843954973854125	2	0	NaN	4404298.2510108	NaN	4404299.2344221	4404299.75096133
96	20	0	0	90	36.1581920903955	36.241610738255	8	0.266684384047985	2	9	6	NaN	2	4	0.127937622744553	0	1	NaN	227	4	38	2	120	220	320	NaN	520	1.28527267370373	2	1	NaN	4404301.4179909	NaN	4404302.4013734	4404302.91793783
96	20	0	0	90	36.1581920903955	36.241610738255	18	0.600039864107966	2	1	6	NaN	1	3	0.127937622744553	0	1	NaN	228	4	39	2	120	220	320	NaN	520	3.06062876898795	2	0	NaN	4404305.0181894	NaN	4404306.0017898	4404306.51828153
96	20	0	0	90	36.1581920903955	36.241610738255	14	0.466697672083974	2	10	4	NaN	2	5	0.127937622744553	0	1	NaN	229	4	40	2	120	220	320	NaN	520	0.469196621328592	2	1	NaN	4404310.4021876	NaN	4404311.385592	4404311.90215098
96	20	0	0	90	36.1581920903955	36.241610738255	23	0.766717604137957	2	11	2	NaN	2	5	0.127937622744553	0	1	NaN	230	4	41	2	120	220	320	NaN	520	0.533225420862436	2	1	NaN	4404313.1857966	NaN	4404314.1691836	4404314.68575908
96	20	0	0	90	36.1581920903955	36.241610738255	9	0.300019932053983	2	4	1	NaN	1	5	0.127937622744553	0	1	NaN	231	4	42	2	120	220	320	NaN	520	0.355015520937741	2	0	NaN	4404316.0361007	NaN	4404317.0194926	4404317.53603958
96	20	0	0	90	36.1581920903955	36.241610738255	25	0.833388700149953	2	5	5	NaN	1	3	0.127937622744553	0	1	NaN	232	4	43	2	120	220	320	NaN	520	0.575906369835138	2	0	NaN	4404318.7028682	NaN	4404319.6864167	4404320.20296913
96	20	0	0	90	36.1581920903955	36.241610738255	17	0.566704316101968	2	11	5	NaN	2	4	0.127937622744553	0	1	NaN	233	4	44	2	120	220	320	NaN	520	0.380286268889904	2	1	NaN	4404321.5864951	NaN	4404322.5700284	4404323.08657433
96	20	0	0	90	36.1581920903955	36.241610738255	24	0.800053152143955	2	10	5	NaN	2	5	0.127937622744553	0	1	NaN	234	4	45	2	120	220	320	NaN	520	0.592259521596134	2	1	NaN	4404324.2868867	NaN	4404325.2702969	4404325.78684738
96	20	0	0	90	36.1581920903955	36.241610738255	6	0.200013288035989	2	8	3	NaN	2	4	0.127937622744553	0	1	NaN	235	4	46	2	120	220	320	NaN	520	0.579944320954382	2	1	NaN	4404327.1870795	NaN	4404328.170586	4404328.68713058
96	20	0	0	90	36.1581920903955	36.241610738255	8	0.266684384047985	2	2	5	NaN	1	5	0.127937622744553	0	1	NaN	236	4	47	2	120	220	320	NaN	520	0.470552821643651	2	0	NaN	4404330.5207182	NaN	4404331.5042369	4404332.02078578
96	20	0	0	90	36.1581920903955	36.241610738255	12	0.400026576071978	2	12	4	NaN	2	4	0.127937622744553	0	1	NaN	237	4	48	2	120	220	320	NaN	520	0.582702822051942	2	1	NaN	4404333.3044544	NaN	4404334.2878443	4404334.80439998
96	20	0	0	90	36.1581920903955	36.241610738255	6	0.200013288035989	2	2	5	NaN	1	5	0.127937622744553	0	1	NaN	238	4	49	2	120	220	320	NaN	520	0.306363521143794	1	1	NaN	4404336.2047392	NaN	4404337.1881434	4404337.70468868
96	20	0	0	90	36.1581920903955	36.241610738255	7	0.233348836041987	2	5	6	NaN	1	5	0.127937622744553	0	1	NaN	239	4	50	2	120	220	320	NaN	520	0.33691686950624	1	1	NaN	4404338.8383499	NaN	4404339.8217225	4404340.33827023
96	20	0	0	90	36.1581920903955	36.241610738255	16	0.53336876809597	2	6	3	NaN	1	5	0.127937622744553	0	1	NaN	240	4	51	2	120	220	320	NaN	520	0.406417021527886	1	1	NaN	4404341.4884751	NaN	4404342.472003	4404342.98854058
96	20	0	0	90	36.1581920903955	36.241610738255	20	0.666710960119963	2	7	5	NaN	2	4	0.127937622744553	0	1	NaN	241	4	52	2	120	220	320	NaN	520	0.721908790059388	1	0	NaN	4404344.2055186	NaN	4404345.1889186	4404345.70547041
96	20	0	0	90	36.1581920903955	36.241610738255	6	0.200013288035989	2	4	5	NaN	1	4	0.127937622744553	0	1	NaN	242	4	53	2	120	220	320	NaN	520	0.344031121581793	1	1	NaN	4404347.2391458	NaN	4404348.2225287	4404348.73910428
96	20	0	0	90	36.1581920903955	36.241610738255	21	0.700046508125961	2	2	5	NaN	1	5	0.127937622744553	0	1	NaN	243	4	54	2	120	220	320	NaN	520	0.421534822322428	2	0	NaN	4404349.8894093	NaN	4404350.8728174	4404351.38936428
96	20	0	0	90	36.1581920903955	36.241610738255	10	0.333355480059981	2	6	5	NaN	1	5	0.127937622744553	0	1	NaN	244	4	55	2	120	220	320	NaN	520	0.53600568883121	2	0	NaN	4404352.6228863	NaN	4404353.6064088	4404354.12297221
96	20	0	0	90	36.1581920903955	36.241610738255	9	0.300019932053983	2	3	1	NaN	1	3	0.127937622744553	0	1	NaN	245	4	56	2	120	220	320	NaN	520	0.813736622221768	2	0	NaN	4404355.4731693	NaN	4404356.4566887	4404356.97324548
96	20	0	0	90	36.1581920903955	36.241610738255	16	0.53336876809597	2	9	5	NaN	2	4	0.127937622744553	0	1	NaN	246	4	57	2	120	220	320	NaN	520	0.467435926198959	2	1	NaN	4404358.7236145	NaN	4404359.7070105	4404360.22356297
96	20	0	0	90	36.1581920903955	36.241610738255	13	0.433362124077976	2	12	6	NaN	2	3	0.127937622744553	0	1	NaN	247	4	58	2	120	220	320	NaN	520	0.386637821793556	2	1	NaN	4404361.5405657	NaN	4404362.5239553	4404363.04050708
96	20	0	0	90	36.1581920903955	36.241610738255	15	0.500033220089972	2	4	1	NaN	1	3	0.127937622744553	0	1	NaN	248	4	59	2	120	220	320	NaN	520	0.558637421578169	1	1	NaN	4404364.2408424	NaN	4404365.2242118	4404365.74076748
96	20	0	0	90	36.1581920903955	36.241610738255	7	0.233348836041987	2	3	1	NaN	1	3	0.127937622744553	0	1	NaN	249	4	60	2	120	220	320	NaN	520	0.603585669770837	1	1	NaN	4404367.1078065	NaN	4404368.0911664	4404368.60771073
96	20	0	0	90	36.1581920903955	36.241610738255	24	0.800053152143955	2	9	4	NaN	2	3	0.127937622744553	0	1	NaN	250	4	61	2	120	220	320	NaN	520	0.208386532031	2	1	NaN	4404370.1745922	NaN	4404371.1581442	4404371.67469547
96	20	0	0	90	36.1581920903955	36.241610738255	6	0.200013288035989	2	1	1	NaN	1	4	0.127937622744553	0	1	NaN	251	4	62	2	120	220	320	NaN	520	0.474806722253561	1	1	NaN	4404372.7083168	NaN	4404373.6917094	4404374.20827208
96	20	0	0	90	36.1581920903955	36.241610738255	16	0.53336876809597	2	10	2	NaN	2	3	0.127937622744553	0	1	NaN	252	4	63	2	120	220	320	NaN	520	0.627131422050297	1	0	NaN	4404375.4919172	NaN	4404376.4753208	4404376.99186898
96	20	0	0	90	36.1581920903955	36.241610738255	6	0.200013288035989	2	6	2	NaN	1	5	0.127937622744553	0	1	NaN	253	5	1	2	120	220	320	NaN	520	0.373748221434653	1	1	NaN	4404388.9931445	NaN	4404389.9766433	4404390.49320418
96	20	0	0	90	36.1581920903955	36.241610738255	24	0.800053152143955	2	8	6	NaN	2	5	0.127937622744553	0	1	NaN	254	5	2	2	120	220	320	NaN	520	0.399077521637082	2	1	NaN	4404391.9602493	NaN	4404392.9436088	4404393.46016338
96	20	0	0	90	36.1581920903955	36.241610738255	13	0.433362124077976	2	7	6	NaN	2	3	0.127937622744553	0	1	NaN	255	5	3	2	120	220	320	NaN	520	0.337920621968806	2	1	NaN	4404394.6771406	NaN	4404395.6605456	4404396.17709928
96	20	0	0	90	36.1581920903955	36.241610738255	20	0.666710960119963	2	7	1	NaN	2	4	0.127937622744553	0	1	NaN	256	5	4	2	120	220	320	NaN	520	0.344037721864879	1	0	NaN	4404397.3272937	NaN	4404398.3107996	4404398.82735758
96	20	0	0	90	36.1581920903955	36.241610738255	15	0.500033220089972	2	8	2	NaN	2	5	0.127937622744553	0	1	NaN	257	5	5	2	120	220	320	NaN	520	0.309852769598365	2	1	NaN	4404399.9775267	NaN	4404400.9610428	4404401.47761373
96	20	0	0	90	36.1581920903955	36.241610738255	13	0.433362124077976	2	10	2	NaN	2	4	0.127937622744553	0	1	NaN	258	5	6	2	120	220	320	NaN	520	0.100690489634871	2	1	NaN	4404402.5945836	NaN	4404403.5779898	4404404.09453881
96	20	0	0	90	36.1581920903955	36.241610738255	10	0.333355480059981	2	4	3	NaN	1	5	0.127937622744553	0	1	NaN	259	5	7	2	120	220	320	NaN	520	0.203696869313717	2	0	NaN	4404405.011481	NaN	4404405.9949101	4404406.51144343
96	20	0	0	90	36.1581920903955	36.241610738255	12	0.400026576071978	2	7	4	NaN	2	3	0.127937622744553	0	1	NaN	260	5	8	2	120	220	320	NaN	520	0.358683570288122	2	1	NaN	4404407.5284186	NaN	4404408.5118183	4404409.02835883
96	20	0	0	90	36.1581920903955	36.241610738255	11	0.366691028065979	2	8	5	NaN	2	3	0.127937622744553	0	1	NaN	261	5	9	2	120	220	320	NaN	520	0.212008742615581	2	1	NaN	4404410.1953276	NaN	4404411.1787198	4404411.69528506
96	20	0	0	90	36.1581920903955	36.241610738255	19	0.633375412113965	2	10	3	NaN	2	4	0.127937622744553	0	1	NaN	262	5	10	2	120	220	320	NaN	520	0.326595121063292	2	1	NaN	4404412.7289145	NaN	4404413.7123052	4404414.22886348
96	20	0	0	90	36.1581920903955	36.241610738255	25	0.833388700149953	2	10	3	NaN	2	3	0.127937622744553	0	1	NaN	263	5	11	2	120	220	320	NaN	520	0.268814116716385	2	1	NaN	4404415.3625002	NaN	4404416.3459074	4404416.86244928
96	20	0	0	90	36.1581920903955	36.241610738255	7	0.233348836041987	2	7	1	NaN	2	3	0.127937622744553	0	1	NaN	264	5	12	2	120	220	320	NaN	520	0.0104096215218306	2	1	NaN	4404417.9626915	NaN	4404418.9461615	4404419.46271978
96	20	0	0	90	36.1581920903955	36.241610738255	25	0.833388700149953	2	1	6	NaN	1	4	0.127937622744553	0	1	NaN	265	5	13	2	120	220	320	NaN	520	0.359580515883863	2	0	NaN	4404420.2796575	NaN	4404421.2631173	4404421.77960198
96	20	0	0	90	36.1581920903955	36.241610738255	20	0.666710960119963	2	2	6	NaN	1	5	0.127937622744553	0	1	NaN	266	5	14	2	120	220	320	NaN	520	0.364601969718933	2	0	NaN	4404422.9465959	NaN	4404423.9298783	4404424.44652853
96	20	0	0	90	36.1581920903955	36.241610738255	15	0.500033220089972	2	3	2	NaN	1	3	0.127937622744553	0	1	NaN	267	5	15	2	120	220	320	NaN	520	0.177892826497555	1	1	NaN	4404425.6133686	NaN	4404426.5969151	4404427.11345927
96	20	0	0	90	36.1581920903955	36.241610738255	9	0.300019932053983	2	4	5	NaN	1	4	0.127937622744553	0	1	NaN	268	5	16	2	120	220	320	NaN	520	0.214477222412825	1	1	NaN	4404428.0970957	NaN	4404429.0804983	4404429.59704668
96	20	0	0	90	36.1581920903955	36.241610738255	21	0.700046508125961	2	3	6	NaN	1	3	0.127937622744553	0	1	NaN	269	5	17	2	120	220	320	NaN	520	0.768507922068238	2	0	NaN	4404430.6306701	NaN	4404431.6140716	4404432.13062838
96	20	0	0	90	36.1581920903955	36.241610738255	13	0.433362124077976	2	3	3	NaN	1	3	0.127937622744553	0	1	NaN	270	5	18	2	120	220	320	NaN	520	0.324905821122229	1	1	NaN	4404433.7143011	NaN	4404434.6976667	4404435.21426718
96	20	0	0	90	36.1581920903955	36.241610738255	9	0.300019932053983	2	6	1	NaN	1	5	0.127937622744553	0	1	NaN	271	5	19	2	120	220	320	NaN	520	0.426359021104872	1	1	NaN	4404436.3811246	NaN	4404437.3646138	4404437.88119318
96	20	0	0	90	36.1581920903955	36.241610738255	21	0.700046508125961	2	9	6	NaN	2	3	0.127937622744553	0	1	NaN	272	5	20	2	120	220	320	NaN	520	0.380346269346774	2	1	NaN	4404439.1148071	NaN	4404440.0982445	4404440.61478613
96	20	0	0	90	36.1581920903955	36.241610738255	7	0.233348836041987	2	6	2	NaN	1	3	0.127937622744553	0	1	NaN	273	5	21	2	120	220	320	NaN	520	0.496461668983102	1	1	NaN	4404441.8149673	NaN	4404442.7985001	4404443.31505923
96	20	0	0	90	36.1581920903955	36.241610738255	16	0.53336876809597	2	3	3	NaN	1	3	0.127937622744553	0	1	NaN	274	5	22	2	120	220	320	NaN	520	0.295526869595051	1	1	NaN	4404444.6319146	NaN	4404445.6154708	4404446.13199833
96	20	0	0	90	36.1581920903955	36.241610738255	12	0.400026576071978	2	4	4	NaN	1	3	0.127937622744553	0	1	NaN	275	5	23	2	120	220	320	NaN	520	0.27126232162118	2	0	NaN	4404447.232297	NaN	4404448.2157065	4404448.73225748
96	20	0	0	90	36.1581920903955	36.241610738255	6	0.200013288035989	2	7	2	NaN	2	4	0.127937622744553	0	1	NaN	276	5	24	2	120	220	320	NaN	520	0.351726870052516	2	1	NaN	4404449.8158968	NaN	4404450.7992937	4404451.31583303
96	20	0	0	90	36.1581920903955	36.241610738255	6	0.200013288035989	2	2	3	NaN	1	4	0.127937622744553	0	1	NaN	277	5	25	2	120	220	320	NaN	520	1.24484756961465	1	1	NaN	4404452.4829073	NaN	4404453.4662144	4404453.98276823
96	20	0	0	90	36.1581920903955	36.241610738255	15	0.500033220089972	2	6	1	NaN	1	3	0.127937622744553	0	1	NaN	278	5	26	2	120	220	320	NaN	520	0.381714716553688	1	1	NaN	4404456.0498327	NaN	4404457.0332366	4404457.54978318
96	20	0	0	90	36.1581920903955	36.241610738255	17	0.566704316101968	2	2	6	NaN	1	3	0.127937622744553	0	1	NaN	279	5	27	2	120	220	320	NaN	520	0.393477915786207	2	0	NaN	4404458.7501104	NaN	4404459.7334918	4404460.25004738
96	20	0	0	90	36.1581920903955	36.241610738255	20	0.666710960119963	2	9	3	NaN	2	4	0.127937622744553	0	1	NaN	280	5	28	2	120	220	320	NaN	520	0.300104670226574	2	1	NaN	4404461.467029	NaN	4404462.450513	4404462.96697833
96	20	0	0	90	36.1581920903955	36.241610738255	22	0.733382056131959	2	6	6	NaN	1	3	0.127937622744553	0	1	NaN	281	5	29	2	120	220	320	NaN	520	0.323490421287715	1	1	NaN	4404464.0839534	NaN	4404465.0673568	4404465.58391438
96	20	0	0	90	36.1581920903955	36.241610738255	6	0.200013288035989	2	6	1	NaN	1	4	0.127937622744553	0	1	NaN	282	5	30	2	120	220	320	NaN	520	0.12970822211355	1	1	NaN	4404466.7174219	NaN	4404467.700956	4404468.21750768
96	20	0	0	90	36.1581920903955	36.241610738255	13	0.433362124077976	2	9	3	NaN	2	3	0.127937622744553	0	1	NaN	283	5	31	2	120	220	320	NaN	520	0.0234131701290607	1	0	NaN	4404469.1677812	NaN	4404470.1511876	4404470.66773553
96	20	0	0	90	36.1581920903955	36.241610738255	22	0.733382056131959	2	12	2	NaN	2	5	0.127937622744553	0	1	NaN	284	5	32	2	120	220	320	NaN	520	0.0179979214444757	2	1	NaN	4404471.5012231	NaN	4404472.4847424	4404473.00131108
96	20	0	0	90	36.1581920903955	36.241610738255	19	0.633375412113965	2	3	6	NaN	1	5	0.127937622744553	0	1	NaN	285	5	33	2	120	220	320	NaN	520	0.140525622293353	1	1	NaN	4404473.8349097	NaN	4404474.8183156	4404475.33487158
96	20	0	0	90	36.1581920903955	36.241610738255	21	0.700046508125961	2	5	2	NaN	1	4	0.127937622744553	0	1	NaN	286	5	34	2	120	220	320	NaN	520	0.0581339690834284	2	0	NaN	4404476.2851578	NaN	4404477.2685474	4404477.78510963
96	20	0	0	90	36.1581920903955	36.241610738255	17	0.566704316101968	2	10	2	NaN	2	3	0.127937622744553	0	1	NaN	287	5	35	2	120	220	320	NaN	520	0.219272369518876	1	0	NaN	4404478.6519468	NaN	4404479.6354351	4404480.15200853
96	20	0	0	90	36.1581920903955	36.241610738255	11	0.366691028065979	2	5	5	NaN	1	5	0.127937622744553	0	1	NaN	288	5	36	2	120	220	320	NaN	520	0.141639822162688	1	1	NaN	4404481.1856416	NaN	4404482.1690404	4404482.68559678
96	20	0	0	90	36.1581920903955	36.241610738255	25	0.833388700149953	2	1	4	NaN	1	4	0.127937622744553	0	1	NaN	289	5	37	2	120	220	320	NaN	520	0.0836010426282883	2	0	NaN	4404483.6358726	NaN	4404484.6192756	4404485.13583656
96	20	0	0	90	36.1581920903955	36.241610738255	7	0.233348836041987	2	9	4	NaN	2	5	0.127937622744553	0	1	NaN	290	5	38	2	120	220	320	NaN	520	0.219495570287108	1	0	NaN	4404486.0361166	NaN	4404487.0195144	4404487.53605883
96	20	0	0	90	36.1581920903955	36.241610738255	17	0.566704316101968	2	11	1	NaN	2	3	0.127937622744553	0	1	NaN	291	5	39	2	120	220	320	NaN	520	0.325817821547389	2	1	NaN	4404488.5696926	NaN	4404489.5531255	4404490.06964218
96	20	0	0	90	36.1581920903955	36.241610738255	17	0.566704316101968	2	7	3	NaN	2	5	0.127937622744553	0	1	NaN	292	5	40	2	120	220	320	NaN	520	0.339343870058656	2	1	NaN	4404491.2199596	NaN	4404492.2034197	4404492.71991353
96	20	0	0	90	36.1581920903955	36.241610738255	9	0.300019932053983	2	5	5	NaN	1	4	0.127937622744553	0	1	NaN	293	5	41	2	120	220	320	NaN	520	0.256956969387829	2	0	NaN	4404493.8702317	NaN	4404494.8536185	4404495.37016063
96	20	0	0	90	36.1581920903955	36.241610738255	22	0.733382056131959	2	9	3	NaN	2	5	0.127937622744553	0	1	NaN	294	5	42	2	120	220	320	NaN	520	0.530376621522009	2	1	NaN	4404496.4370081	NaN	4404497.4205332	4404497.93709028
96	20	0	0	90	36.1581920903955	36.241610738255	16	0.53336876809597	2	7	6	NaN	2	3	0.127937622744553	0	1	NaN	295	5	43	2	120	220	320	NaN	520	0.399180669337511	2	1	NaN	4404500.7041978	NaN	4404501.6876167	4404502.20417743
96	20	0	0	90	36.1581920903955	36.241610738255	14	0.466697672083974	2	7	4	NaN	2	3	0.127937622744553	0	1	NaN	296	5	44	2	120	220	320	NaN	520	0.314130316488445	2	1	NaN	4404503.4211581	NaN	4404504.4045444	4404504.92110208
96	20	0	0	90	36.1581920903955	36.241610738255	0	0	1	4	6	NaN	1	3	0.127937622744553	0	1	NaN	297	5	45	2	110	210	310	NaN	510	0.264606270007789	1	1	NaN	4404506.0547405	NaN	4404507.0381472	4404507.55470183
96	20	0	0	90	36.1581920903955	36.241610738255	15	0.500033220089972	2	5	2	NaN	1	3	0.127937622744553	0	1	NaN	298	5	46	2	120	220	320	NaN	520	0.137050269171596	2	0	NaN	4404508.6383305	NaN	4404509.6217428	4404510.13828843
96	20	0	0	90	36.1581920903955	36.241610738255	14	0.466697672083974	2	10	2	NaN	2	4	0.127937622744553	0	1	NaN	299	5	47	2	120	220	320	NaN	520	0.263098269701004	2	1	NaN	4404511.0885727	NaN	4404512.0719721	4404512.58852593
96	20	0	0	90	36.1581920903955	36.241610738255	10	0.333355480059981	2	11	6	NaN	2	3	0.127937622744553	0	1	NaN	300	5	48	2	120	220	320	NaN	520	0.287289720959961	2	1	NaN	4404513.6720183	NaN	4404514.6555634	4404515.17211278
96	20	0	0	90	36.1581920903955	36.241610738255	20	0.666710960119963	2	5	4	NaN	1	3	0.127937622744553	0	1	NaN	301	5	49	2	120	220	320	NaN	520	0.286952616646886	2	0	NaN	4404516.2724174	NaN	4404517.2558484	4404517.77237158
96	20	0	0	90	36.1581920903955	36.241610738255	7	0.233348836041987	2	8	2	NaN	2	4	0.127937622744553	0	1	NaN	302	5	50	2	120	220	320	NaN	520	0.174806821160018	2	1	NaN	4404518.8725671	NaN	4404519.8561388	4404520.37262648
96	20	0	0	90	36.1581920903955	36.241610738255	18	0.600039864107966	2	8	3	NaN	2	5	0.127937622744553	0	1	NaN	303	5	51	2	120	220	320	NaN	520	0.307017716579139	2	1	NaN	4404521.3562569	NaN	4404522.3396502	4404522.85620418
96	20	0	0	90	36.1581920903955	36.241610738255	0	0	1	2	4	NaN	1	4	0.127937622744553	0	1	NaN	304	5	52	2	110	210	310	NaN	510	0.441988621838391	1	1	NaN	4404523.9731875	NaN	4404524.9565761	4404525.47312518
96	20	0	0	90	36.1581920903955	36.241610738255	24	0.800053152143955	2	12	3	NaN	2	5	0.127937622744553	0	1	NaN	305	5	53	2	120	220	320	NaN	520	0.372273169457912	2	1	NaN	4404526.7234335	NaN	4404527.7068376	4404528.22338893
96	20	0	0	90	36.1581920903955	36.241610738255	18	0.600039864107966	2	12	5	NaN	2	4	0.127937622744553	0	1	NaN	306	5	54	2	120	220	320	NaN	520	0.600387969054282	2	1	NaN	4404529.4070322	NaN	4404530.3904363	4404530.90698713
96	20	0	0	90	36.1581920903955	36.241610738255	15	0.500033220089972	2	8	5	NaN	2	3	0.127937622744553	0	1	NaN	307	5	55	2	120	220	320	NaN	520	0.691384869627655	2	1	NaN	4404532.3239888	NaN	4404533.3073811	4404533.82394553
96	20	0	0	90	36.1581920903955	36.241610738255	11	0.366691028065979	2	10	3	NaN	2	5	0.127937622744553	0	1	NaN	308	5	56	2	120	220	320	NaN	520	0.571185069158673	1	0	NaN	4404535.32429	NaN	4404536.3076923	4404536.82424033
96	20	0	0	90	36.1581920903955	36.241610738255	21	0.700046508125961	2	7	4	NaN	2	3	0.127937622744553	0	1	NaN	309	5	57	2	120	220	320	NaN	520	4.35132692195475	2	1	NaN	4404538.2079044	NaN	4404539.1913733	4404539.70786078
96	20	0	0	90	36.1581920903955	36.241610738255	24	0.800053152143955	2	11	3	NaN	2	4	0.127937622744553	0	1	NaN	310	5	58	2	120	220	320	NaN	520	2.79201281629503	1	0	NaN	4404545.3746128	NaN	4404546.3586953	4404546.87521898
96	20	0	0	90	36.1581920903955	36.241610738255	20	0.666710960119963	2	8	4	NaN	2	5	0.127937622744553	0	1	NaN	311	5	59	2	120	220	320	NaN	520	0.291753616183996	2	1	NaN	4404550.4756363	NaN	4404551.4592007	4404551.97571998
96	20	0	0	90	36.1581920903955	36.241610738255	11	0.366691028065979	2	4	3	NaN	1	3	0.127937622744553	0	1	NaN	312	5	60	2	120	220	320	NaN	520	0.459183743223548	1	1	NaN	4404553.0761047	NaN	4404554.0594341	4404554.57598696
96	20	0	0	90	36.1581920903955	36.241610738255	16	0.53336876809597	2	6	5	NaN	1	4	0.127937622744553	0	1	NaN	313	5	61	2	120	220	320	NaN	520	0.300321869552135	1	1	NaN	4404555.8429644	NaN	4404556.8263647	4404557.34292233
96	20	0	0	90	36.1581920903955	36.241610738255	10	0.333355480059981	2	1	2	NaN	1	5	0.127937622744553	0	1	NaN	314	5	62	2	120	220	320	NaN	520	0.387617222033441	1	1	NaN	4404558.4598887	NaN	4404559.4432934	4404559.95984888
96	20	0	0	90	36.1581920903955	36.241610738255	12	0.400026576071978	2	4	2	NaN	1	4	0.127937622744553	0	1	NaN	315	5	63	2	120	220	320	NaN	520	0.255210469476879	1	1	NaN	4404561.1601445	NaN	4404562.1435557	4404562.66010933
96	20	0	0	90	36.1581920903955	36.241610738255	12	0.400026576071978	2	5	3	NaN	1	4	0.127937622744553	0	1	NaN	316	6	1	2	120	220	320	NaN	520	0.953190420754254	2	0	NaN	4404581.4621339	NaN	4404582.4455364	4404582.96209728
96	20	0	0	90	36.1581920903955	36.241610738255	18	0.600039864107966	2	6	5	NaN	1	4	0.127937622744553	0	1	NaN	317	6	2	2	120	220	320	NaN	520	2.03827483765781	2	0	NaN	4404584.7291471	NaN	4404585.7125371	4404586.22908826
96	20	0	0	90	36.1581920903955	36.241610738255	19	0.633375412113965	2	12	6	NaN	2	4	0.127937622744553	0	1	NaN	318	6	3	2	120	220	320	NaN	520	0.256185417063534	2	1	NaN	4404589.0795577	NaN	4404590.0629673	4404590.57951758
96	20	0	0	90	36.1581920903955	36.241610738255	0	0	1	3	3	NaN	1	5	0.127937622744553	0	1	NaN	319	6	4	2	110	210	310	NaN	510	0.0104141691699624	1	1	NaN	4404591.6464908	NaN	4404592.6298842	4404593.14643313
96	20	0	0	90	36.1581920903955	36.241610738255	25	0.833388700149953	2	7	5	NaN	2	4	0.127937622744553	0	1	NaN	320	6	5	2	120	220	320	NaN	520	0.179427421651781	2	1	NaN	4404593.9800525	NaN	4404594.9634502	4404595.47999608
96	20	0	0	90	36.1581920903955	36.241610738255	10	0.333355480059981	2	1	3	NaN	1	3	0.127937622744553	0	1	NaN	321	6	6	2	120	220	320	NaN	520	0.238441721536219	2	0	NaN	4404597.0968884	NaN	4404598.0804434	4404598.59697778
96	20	0	0	90	36.1581920903955	36.241610738255	6	0.200013288035989	2	12	4	NaN	2	4	0.127937622744553	0	1	NaN	322	6	7	2	120	220	320	NaN	520	0.312300869263709	2	1	NaN	4404599.6472616	NaN	4404600.6306605	4404601.14722293
96	20	0	0	90	36.1581920903955	36.241610738255	21	0.700046508125961	2	11	4	NaN	2	3	0.127937622744553	0	1	NaN	323	6	8	2	120	220	320	NaN	520	0.191036721691489	2	1	NaN	4404602.2808653	NaN	4404603.2642946	4404603.78081318
96	20	0	0	90	36.1581920903955	36.241610738255	24	0.800053152143955	2	10	4	NaN	2	5	0.127937622744553	0	1	NaN	324	6	9	2	120	220	320	NaN	520	0.162479269318283	2	1	NaN	4404604.7810491	NaN	4404605.7645049	4404606.28105973
96	20	0	0	90	36.1581920903955	36.241610738255	10	0.333355480059981	2	2	2	NaN	1	4	0.127937622744553	0	1	NaN	325	6	10	2	120	220	320	NaN	520	0.0788611695170403	1	1	NaN	4404607.2645438	NaN	4404608.2480906	4404608.76465743
96	20	0	0	90	36.1581920903955	36.241610738255	23	0.766717604137957	2	2	6	NaN	1	3	0.127937622744553	0	1	NaN	326	6	11	2	120	220	320	NaN	520	0.134602721780539	2	0	NaN	4404609.6649192	NaN	4404610.6483138	4404611.16487148
96	20	0	0	90	36.1581920903955	36.241610738255	24	0.800053152143955	2	6	6	NaN	1	5	0.127937622744553	0	1	NaN	327	6	12	2	120	220	320	NaN	520	0.0104778213426471	1	1	NaN	4404612.1983819	NaN	4404613.1819177	4404613.69848158
96	20	0	0	90	36.1581920903955	36.241610738255	17	0.566704316101968	2	6	2	NaN	1	4	0.127937622744553	0	1	NaN	328	6	13	2	120	220	320	NaN	520	0.259468269534409	1	1	NaN	4404614.5321019	NaN	4404615.5154602	4404616.03201833
96	20	0	0	90	36.1581920903955	36.241610738255	23	0.766717604137957	2	6	6	NaN	1	4	0.127937622744553	0	1	NaN	329	6	14	2	120	220	320	NaN	520	0.0103931212797761	1	1	NaN	4404617.0989896	NaN	4404618.0823899	4404618.59894188
96	20	0	0	90	36.1581920903955	36.241610738255	7	0.233348836041987	2	1	2	NaN	1	3	0.127937622744553	0	1	NaN	330	6	15	2	120	220	320	NaN	520	0.250985922291875	1	1	NaN	4404619.5325759	NaN	4404620.5159549	4404621.03250838
96	20	0	0	90	36.1581920903955	36.241610738255	22	0.733382056131959	2	4	1	NaN	1	3	0.127937622744553	0	1	NaN	331	6	16	2	120	220	320	NaN	520	0.274226621724665	1	1	NaN	4404622.1493601	NaN	4404623.1328932	4404623.64944048
96	20	0	0	90	36.1581920903955	36.241610738255	16	0.53336876809597	2	5	6	NaN	1	5	0.127937622744553	0	1	NaN	332	6	17	2	120	220	320	NaN	520	0.29767102189362	1	1	NaN	4404624.7497198	NaN	4404625.7331388	4404626.24969298
96	20	0	0	90	36.1581920903955	36.241610738255	18	0.600039864107966	2	2	4	NaN	1	5	0.127937622744553	0	1	NaN	333	6	18	2	120	220	320	NaN	520	0.35298296995461	2	0	NaN	4404627.3666598	NaN	4404628.3500582	4404628.86660753
96	20	0	0	90	36.1581920903955	36.241610738255	21	0.700046508125961	2	8	4	NaN	2	3	0.127937622744553	0	1	NaN	334	6	19	2	120	220	320	NaN	520	0.629851921461523	2	1	NaN	4404630.0335786	NaN	4404631.0169796	4404631.53353938
96	20	0	0	90	36.1581920903955	36.241610738255	9	0.300019932053983	2	10	4	NaN	2	5	0.127937622744553	0	1	NaN	335	6	20	2	120	220	320	NaN	520	0.335966316051781	2	1	NaN	4404632.9838863	NaN	4404633.9672824	4404634.48382728
96	20	0	0	90	36.1581920903955	36.241610738255	10	0.333355480059981	2	5	5	NaN	1	3	0.127937622744553	0	1	NaN	336	6	21	2	120	220	320	NaN	520	0.037452569231391	1	1	NaN	4404635.6341271	NaN	4404636.6175546	4404637.13409243
96	20	0	0	90	36.1581920903955	36.241610738255	23	0.766717604137957	2	4	2	NaN	1	4	0.127937622744553	0	1	NaN	337	6	22	2	120	220	320	NaN	520	0.183679121546447	1	1	NaN	4404638.1842536	NaN	4404639.1677929	4404639.68434578
96	20	0	0	90	36.1581920903955	36.241610738255	9	0.300019932053983	2	1	4	NaN	1	4	0.127937622744553	0	1	NaN	338	6	23	2	120	220	320	NaN	520	0.274813521653414	1	1	NaN	4404640.6846507	NaN	4404641.6680214	4404642.18459218
96	20	0	0	90	36.1581920903955	36.241610738255	9	0.300019932053983	2	1	5	NaN	1	5	0.127937622744553	0	1	NaN	339	6	24	2	120	220	320	NaN	520	0.010406170040369	2	0	NaN	4404643.2681021	NaN	4404644.2516148	4404644.76816623
96	20	0	0	90	36.1581920903955	36.241610738255	25	0.833388700149953	2	7	5	NaN	2	3	0.127937622744553	0	1	NaN	340	6	25	2	120	220	320	NaN	520	0.214315269142389	2	1	NaN	4404645.5851226	NaN	4404646.5684997	4404647.08506933
96	20	0	0	90	36.1581920903955	36.241610738255	9	0.300019932053983	2	9	6	NaN	2	3	0.127937622744553	0	1	NaN	341	6	26	2	120	220	320	NaN	520	0.313483769074082	2	1	NaN	4404648.1020411	NaN	4404649.0854318	4404649.60197813
96	20	0	0	90	36.1581920903955	36.241610738255	25	0.833388700149953	2	2	1	NaN	1	3	0.127937622744553	0	1	NaN	342	6	27	2	120	220	320	NaN	520	0.180826821364462	1	1	NaN	4404651.0188591	NaN	4404652.0024212	4404652.51894178
96	20	0	0	90	36.1581920903955	36.241610738255	19	0.633375412113965	2	3	4	NaN	1	3	0.127937622744553	0	1	NaN	343	6	28	2	120	220	320	NaN	520	0.0163664696738124	2	0	NaN	4404653.5191783	NaN	4404654.5026365	4404655.01917843
96	20	0	0	90	36.1581920903955	36.241610738255	22	0.733382056131959	2	8	5	NaN	2	5	0.127937622744553	0	1	NaN	344	6	29	2	120	220	320	NaN	520	0.259678921662271	2	1	NaN	4404655.8361231	NaN	4404656.8195179	4404657.33607968
96	20	0	0	90	36.1581920903955	36.241610738255	8	0.266684384047985	2	12	2	NaN	2	4	0.127937622744553	0	1	NaN	345	6	30	2	120	220	320	NaN	520	0.2768729692325	2	1	NaN	4404658.4030591	NaN	4404659.3864443	4404659.90299503
96	20	0	0	90	36.1581920903955	36.241610738255	23	0.766717604137957	2	3	3	NaN	1	5	0.127937622744553	0	1	NaN	346	6	31	2	120	220	320	NaN	520	0.319174216128886	1	1	NaN	4404661.1366526	NaN	4404662.1200485	4404662.63658878
96	20	0	0	90	36.1581920903955	36.241610738255	8	0.266684384047985	2	11	5	NaN	2	4	0.127937622744553	0	1	NaN	347	6	32	2	120	220	320	NaN	520	0.261602169834077	2	1	NaN	4404663.7702378	NaN	4404664.7536353	4404665.27018413
96	20	0	0	90	36.1581920903955	36.241610738255	24	0.800053152143955	2	8	4	NaN	2	4	0.127937622744553	0	1	NaN	348	6	33	2	120	220	320	NaN	520	0.357727137394249	2	1	NaN	4404666.3537951	NaN	4404667.3372193	4404667.85377516
96	20	0	0	90	36.1581920903955	36.241610738255	15	0.500033220089972	2	4	6	NaN	1	4	0.127937622744553	0	1	NaN	349	6	34	2	120	220	320	NaN	520	0.666935821063817	2	0	NaN	4404669.0207546	NaN	4404670.0041503	4404670.52071018
96	20	0	0	90	36.1581920903955	36.241610738255	14	0.466697672083974	2	11	5	NaN	2	4	0.127937622744553	0	1	NaN	350	6	35	2	120	220	320	NaN	520	0.483089622110128	2	1	NaN	4404672.0044082	NaN	4404672.9878201	4404673.50432528
96	20	0	0	90	36.1581920903955	36.241610738255	11	0.366691028065979	2	12	3	NaN	2	5	0.127937622744553	0	1	NaN	351	6	36	2	120	220	320	NaN	520	0.522915721870959	2	1	NaN	4404674.8046104	NaN	4404675.7880492	4404676.30460828
96	20	0	0	90	36.1581920903955	36.241610738255	14	0.466697672083974	2	11	1	NaN	2	4	0.127937622744553	0	1	NaN	352	6	37	2	120	220	320	NaN	520	0.417665521614254	2	1	NaN	4404677.6381591	NaN	4404678.6216675	4404679.13821018
96	20	0	0	90	36.1581920903955	36.241610738255	23	0.766717604137957	2	3	3	NaN	1	5	0.127937622744553	0	1	NaN	353	6	38	2	120	220	320	NaN	520	0.211785269901156	1	1	NaN	4404680.3719739	NaN	4404681.3552581	4404681.87181483
96	20	0	0	90	36.1581920903955	36.241610738255	23	0.766717604137957	2	12	1	NaN	2	4	0.127937622744553	0	1	NaN	354	6	39	2	120	220	320	NaN	520	0.3024344695732	2	1	NaN	4404682.9053352	NaN	4404683.8889591	4404684.40540083
96	20	0	0	90	36.1581920903955	36.241610738255	25	0.833388700149953	2	6	1	NaN	1	4	0.127937622744553	0	1	NaN	355	6	40	2	120	220	320	NaN	520	0.245629769749939	1	1	NaN	4404685.52238	NaN	4404686.5057744	4404687.02232353
96	20	0	0	90	36.1581920903955	36.241610738255	11	0.366691028065979	2	1	6	NaN	1	4	0.127937622744553	0	1	NaN	356	6	41	2	120	220	320	NaN	520	0.29433660581708	2	0	NaN	4404688.0891716	NaN	4404689.0726869	4404689.58924369
96	20	0	0	90	36.1581920903955	36.241610738255	25	0.833388700149953	2	3	5	NaN	1	5	0.127937622744553	0	1	NaN	357	6	42	2	120	220	320	NaN	520	0.550268821418285	1	1	NaN	4404690.6894234	NaN	4404691.6729568	4404692.18949868
96	20	0	0	90	36.1581920903955	36.241610738255	12	0.400026576071978	2	8	2	NaN	2	3	0.127937622744553	0	1	NaN	358	6	43	2	120	220	320	NaN	520	0.283160916529596	2	1	NaN	4404693.5565077	NaN	4404694.5398885	4404695.05645288
96	20	0	0	90	36.1581920903955	36.241610738255	19	0.633375412113965	2	10	5	NaN	2	5	0.127937622744553	0	1	NaN	359	6	44	2	120	220	320	NaN	520	0.354972942732275	1	0	NaN	4404696.1567532	NaN	4404697.1401485	4404697.65671416
96	20	0	0	90	36.1581920903955	36.241610738255	10	0.333355480059981	2	7	2	NaN	2	4	0.127937622744553	0	1	NaN	360	6	45	2	120	220	320	NaN	520	0.447919721715152	2	1	NaN	4404698.8235802	NaN	4404699.8070786	4404700.32362428
96	20	0	0	90	36.1581920903955	36.241610738255	22	0.733382056131959	2	11	1	NaN	2	3	0.127937622744553	0	1	NaN	361	6	46	2	120	220	320	NaN	520	0.297293521463871	2	1	NaN	4404701.5906519	NaN	4404702.5740537	4404703.09057528
96	20	0	0	90	36.1581920903955	36.241610738255	13	0.433362124077976	2	6	4	NaN	1	4	0.127937622744553	0	1	NaN	362	6	47	2	120	220	320	NaN	520	0.16040516924113	1	1	NaN	4404704.2074233	NaN	4404705.1909456	4404705.70748783
96	20	0	0	90	36.1581920903955	36.241610738255	16	0.53336876809597	2	9	5	NaN	2	3	0.127937622744553	0	1	NaN	363	6	48	2	120	220	320	NaN	520	0.34915217012167	1	0	NaN	4404706.6744601	NaN	4404707.6578579	4404708.17439693
96	20	0	0	90	36.1581920903955	36.241610738255	19	0.633375412113965	2	4	2	NaN	1	5	0.127937622744553	0	1	NaN	364	6	49	2	120	220	320	NaN	520	0.554214779287577	1	1	NaN	4404709.3413744	NaN	4404710.3247599	4404710.84133022
96	20	0	0	90	36.1581920903955	36.241610738255	9	0.300019932053983	2	7	6	NaN	2	3	0.127937622744553	0	1	NaN	365	6	50	2	120	220	320	NaN	520	0.135314894840121	1	0	NaN	4404712.2083418	NaN	4404713.1917289	4404713.7082922
96	20	0	0	90	36.1581920903955	36.241610738255	12	0.400026576071978	2	3	5	NaN	1	4	0.127937622744553	0	1	NaN	366	6	51	2	120	220	320	NaN	520	0.0102624949067831	1	1	NaN	4404714.6585651	NaN	4404715.6419651	4404716.15852741
96	20	0	0	90	36.1581920903955	36.241610738255	8	0.266684384047985	2	6	6	NaN	1	4	0.127937622744553	0	1	NaN	367	6	52	2	120	220	320	NaN	520	0.576175821013749	1	1	NaN	4404716.9754595	NaN	4404717.9588704	4404718.47541918
96	20	0	0	90	36.1581920903955	36.241610738255	23	0.766717604137957	2	10	5	NaN	2	5	0.127937622744553	0	1	NaN	368	6	53	2	120	220	320	NaN	520	0.14784952159971	1	0	NaN	4404719.8757548	NaN	4404720.8591431	4404721.37570458
96	20	0	0	90	36.1581920903955	36.241610738255	11	0.366691028065979	2	1	1	NaN	1	3	0.127937622744553	0	1	NaN	369	6	54	2	120	220	320	NaN	520	0.0736715896055102	2	0	NaN	4404722.325989	NaN	4404723.3093757	4404723.82594211
96	20	0	0	90	36.1581920903955	36.241610738255	21	0.700046508125961	2	10	6	NaN	2	4	0.127937622744553	0	1	NaN	370	6	55	2	120	220	320	NaN	520	0.234391168691218	2	1	NaN	4404724.7095107	NaN	4404725.6929866	4404726.20950823
96	20	0	0	90	36.1581920903955	36.241610738255	0	0	1	6	5	NaN	1	4	0.127937622744553	0	1	NaN	371	6	56	2	110	210	310	NaN	510	0.259853721596301	1	1	NaN	4404727.2598478	NaN	4404728.2432419	4404728.75976028
96	20	0	0	90	36.1581920903955	36.241610738255	18	0.600039864107966	2	7	3	NaN	2	4	0.127937622744553	0	1	NaN	372	6	57	2	120	220	320	NaN	520	0.332919369451702	2	1	NaN	4404729.8267245	NaN	4404730.8101127	4404731.32667613
96	20	0	0	90	36.1581920903955	36.241610738255	7	0.233348836041987	2	12	3	NaN	2	3	0.127937622744553	0	1	NaN	373	6	58	2	120	220	320	NaN	520	0.194514069706202	2	1	NaN	4404732.4770189	NaN	4404733.4604278	4404733.97693793
96	20	0	0	90	36.1581920903955	36.241610738255	20	0.666710960119963	2	3	5	NaN	1	3	0.127937622744553	0	1	NaN	374	6	59	2	120	220	320	NaN	520	0.301808374002576	2	0	NaN	4404734.9937834	NaN	4404735.9773018	4404736.49384983
96	20	0	0	90	36.1581920903955	36.241610738255	6	0.200013288035989	2	9	1	NaN	2	4	0.127937622744553	0	1	NaN	375	6	60	2	120	220	320	NaN	520	0.381032321602106	2	1	NaN	4404737.6108584	NaN	4404738.594206	4404739.11077998
96	20	0	0	90	36.1581920903955	36.241610738255	8	0.266684384047985	2	1	3	NaN	1	3	0.127937622744553	0	1	NaN	376	6	61	2	120	220	320	NaN	520	0.11273087002337	1	1	NaN	4404740.3110803	NaN	4404741.2944842	4404741.81103623
96	20	0	0	90	36.1581920903955	36.241610738255	9	0.300019932053983	2	8	1	NaN	2	4	0.127937622744553	0	1	NaN	377	6	62	2	120	220	320	NaN	520	0.0104090692475438	2	1	NaN	4404742.7446666	NaN	4404743.7280603	4404744.24461543
96	20	0	0	90	36.1581920903955	36.241610738255	13	0.433362124077976	2	1	2	NaN	1	3	0.127937622744553	0	1	NaN	378	6	63	2	120	220	320	NaN	520	0.0104165701195598	2	0	NaN	4404745.1947744	NaN	4404746.1783142	4404746.69485543
96	20	0	0	90	36.1581920903955	36.241610738255	0	0	1	2	1	NaN	1	4	0.127937622744553	0	1	NaN	379	7	1	2	110	210	310	NaN	510	0.197558521293104	2	0	NaN	4404752.3623065	NaN	4404753.3456611	4404753.86222128
96	20	0	0	90	36.1581920903955	36.241610738255	22	0.733382056131959	2	9	5	NaN	2	5	0.127937622744553	0	1	NaN	380	7	2	2	120	220	320	NaN	520	0.303348922170699	2	1	NaN	4404755.1126404	NaN	4404756.0959425	4404756.61249798
96	20	0	0	90	36.1581920903955	36.241610738255	25	0.833388700149953	2	9	6	NaN	2	3	0.127937622744553	0	1	NaN	381	7	3	2	120	220	320	NaN	520	0.0102913891896605	2	1	NaN	4404757.7961576	NaN	4404758.7795342	4404759.29608911
96	20	0	0	90	36.1581920903955	36.241610738255	12	0.400026576071978	2	9	3	NaN	2	3	0.127937622744553	0	1	NaN	382	7	4	2	120	220	320	NaN	520	0.0104102697223425	2	1	NaN	4404760.1129806	NaN	4404761.0964329	4404761.61298103
96	20	0	0	90	36.1581920903955	36.241610738255	16	0.53336876809597	2	12	6	NaN	2	3	0.127937622744553	0	1	NaN	383	7	5	2	120	220	320	NaN	520	0.0104868058115244	2	1	NaN	4404762.4299302	NaN	4404763.4133345	4404763.92986789
96	20	0	0	90	36.1581920903955	36.241610738255	16	0.53336876809597	2	1	5	NaN	1	3	0.127937622744553	0	1	NaN	384	7	6	2	120	220	320	NaN	520	0.0104056214913726	2	0	NaN	4404765.363562	NaN	4404766.3469463	4404766.86350538
96	20	0	0	90	36.1581920903955	36.241610738255	12	0.400026576071978	2	9	1	NaN	2	3	0.127937622744553	0	1	NaN	385	7	7	2	120	220	320	NaN	520	0.110586469992995	2	1	NaN	4404767.697024	NaN	4404768.6805294	4404769.19706363
96	20	0	0	90	36.1581920903955	36.241610738255	6	0.200013288035989	2	3	3	NaN	1	3	0.127937622744553	0	1	NaN	386	7	8	2	120	220	320	NaN	520	0.0103927217423916	1	1	NaN	4404770.1306814	NaN	4404771.1140715	4404771.63063868
96	20	0	0	90	36.1581920903955	36.241610738255	10	0.333355480059981	2	9	1	NaN	2	3	0.127937622744553	0	1	NaN	387	7	9	2	120	220	320	NaN	520	0.010275143198669	2	1	NaN	4404772.4475664	NaN	4404773.4310053	4404773.94753336
96	20	0	0	90	36.1581920903955	36.241610738255	18	0.600039864107966	2	5	3	NaN	1	4	0.127937622744553	0	1	NaN	388	7	10	2	120	220	320	NaN	520	0.29945192206651	1	1	NaN	4404774.764476	NaN	4404775.7478735	4404776.26442598
96	20	0	0	90	36.1581920903955	36.241610738255	11	0.366691028065979	2	2	6	NaN	1	5	0.127937622744553	0	1	NaN	389	7	11	2	120	220	320	NaN	520	0.218240121379495	2	0	NaN	4404777.3813851	NaN	4404778.3647957	4404778.88134558
96	20	0	0	90	36.1581920903955	36.241610738255	25	0.833388700149953	2	11	3	NaN	2	3	0.127937622744553	0	1	NaN	390	7	12	2	120	220	320	NaN	520	0.719686269760132	2	1	NaN	4404780.0482661	NaN	4404781.0317287	4404781.54826803
96	20	0	0	90	36.1581920903955	36.241610738255	19	0.633375412113965	2	11	3	NaN	2	4	0.127937622744553	0	1	NaN	391	7	13	2	120	220	320	NaN	520	0.568725469522178	2	1	NaN	4404784.0152672	NaN	4404784.9988433	4404785.51532853
96	20	0	0	90	36.1581920903955	36.241610738255	9	0.300019932053983	2	12	3	NaN	2	3	0.127937622744553	0	1	NaN	392	7	14	2	120	220	320	NaN	520	0.364622269757092	2	1	NaN	4404786.8990035	NaN	4404787.8823887	4404788.39895173
96	20	0	0	90	36.1581920903955	36.241610738255	15	0.500033220089972	2	11	2	NaN	2	5	0.127937622744553	0	1	NaN	393	7	15	2	120	220	320	NaN	520	0.40919392183423	2	1	NaN	4404789.5825328	NaN	4404790.5659966	4404791.08255308
96	20	0	0	90	36.1581920903955	36.241610738255	15	0.500033220089972	2	6	2	NaN	1	5	0.127937622744553	0	1	NaN	394	7	16	2	120	220	320	NaN	520	0.0103971213102341	1	1	NaN	4404792.4828919	NaN	4404793.4662778	4404793.98283588
96	20	0	0	90	36.1581920903955	36.241610738255	7	0.233348836041987	2	9	1	NaN	2	4	0.127937622744553	0	1	NaN	395	7	17	2	120	220	320	NaN	520	0.104110921733081	2	1	NaN	4404794.7996463	NaN	4404795.7831765	4404796.29972978
96	20	0	0	90	36.1581920903955	36.241610738255	7	0.233348836041987	2	10	3	NaN	2	3	0.127937622744553	0	1	NaN	396	7	18	2	120	220	320	NaN	520	0.407141969539225	2	1	NaN	4404797.2166892	NaN	4404798.2000727	4404798.71663123
96	20	0	0	90	36.1581920903955	36.241610738255	16	0.53336876809597	2	7	1	NaN	2	3	0.127937622744553	0	1	NaN	397	7	19	2	120	220	320	NaN	520	0.538205122575164	2	1	NaN	4404799.9336038	NaN	4404800.9170097	4404801.43355638
96	20	0	0	90	36.1581920903955	36.241610738255	7	0.233348836041987	2	10	3	NaN	2	5	0.127937622744553	0	1	NaN	398	7	20	2	120	220	320	NaN	520	0.432054569944739	2	1	NaN	4404802.7838764	NaN	4404803.7672957	4404804.28383923
96	20	0	0	90	36.1581920903955	36.241610738255	23	0.766717604137957	2	9	3	NaN	2	3	0.127937622744553	0	1	NaN	399	7	21	2	120	220	320	NaN	520	0.0104256691411138	1	0	NaN	4404805.5341245	NaN	4404806.5175604	4404807.03411383
96	20	0	0	90	36.1581920903955	36.241610738255	23	0.766717604137957	2	2	2	NaN	1	4	0.127937622744553	0	1	NaN	400	7	22	2	120	220	320	NaN	520	0.540667021647096	1	1	NaN	4404807.8509998	NaN	4404808.8344539	4404809.35100868
96	20	0	0	90	36.1581920903955	36.241610738255	14	0.466697672083974	2	12	4	NaN	2	5	0.127937622744553	0	1	NaN	401	7	23	2	120	220	320	NaN	520	0.354497069492936	2	1	NaN	4404810.7012041	NaN	4404811.684767	4404812.20127993
96	20	0	0	90	36.1581920903955	36.241610738255	14	0.466697672083974	2	6	3	NaN	1	4	0.127937622744553	0	1	NaN	402	7	24	2	120	220	320	NaN	520	0.255309200845659	1	1	NaN	4404813.3682661	NaN	4404814.3516754	4404814.8682075
96	20	0	0	90	36.1581920903955	36.241610738255	0	0	1	4	2	NaN	1	4	0.127937622744553	0	1	NaN	403	7	25	2	110	210	310	NaN	510	0.341550270095468	2	0	NaN	4404816.618558	NaN	4404817.6019826	4404818.11853653
96	20	0	0	90	36.1581920903955	36.241610738255	20	0.666710960119963	2	4	6	NaN	1	4	0.127937622744553	0	1	NaN	404	7	26	2	120	220	320	NaN	520	0.338335021398962	1	1	NaN	4404819.2855164	NaN	4404820.268911	4404820.78546258
96	20	0	0	90	36.1581920903955	36.241610738255	20	0.666710960119963	2	1	1	NaN	1	5	0.127937622744553	0	1	NaN	405	7	27	2	120	220	320	NaN	520	0.63205112144351	1	1	NaN	4404821.9357973	NaN	4404822.9191625	4404823.43572888
96	20	0	0	90	36.1581920903955	36.241610738255	6	0.200013288035989	2	10	1	NaN	2	4	0.127937622744553	0	1	NaN	406	7	28	2	120	220	320	NaN	520	0.45694572199136	2	1	NaN	4404826.3028356	NaN	4404827.2862888	4404827.80282518
96	20	0	0	90	36.1581920903955	36.241610738255	12	0.400026576071978	2	2	2	NaN	1	4	0.127937622744553	0	1	NaN	407	7	29	2	120	220	320	NaN	520	0.729878442361951	1	1	NaN	4404829.0698121	NaN	4404830.0532062	4404830.56977576
96	20	0	0	90	36.1581920903955	36.241610738255	20	0.666710960119963	2	4	1	NaN	1	3	0.127937622744553	0	1	NaN	408	7	30	2	120	220	320	NaN	520	0.39183282200247	2	0	NaN	4404832.1201053	NaN	4404833.1034993	4404833.62006078
96	20	0	0	90	36.1581920903955	36.241610738255	24	0.800053152143955	2	4	5	NaN	1	5	0.127937622744553	0	1	NaN	409	7	31	2	120	220	320	NaN	520	1.53963391669095	1	1	NaN	4404834.8203881	NaN	4404835.8037676	4404836.32032468
96	20	0	0	90	36.1581920903955	36.241610738255	10	0.333355480059981	2	8	3	NaN	2	3	0.127937622744553	0	1	NaN	410	7	32	2	120	220	320	NaN	520	0.481129521504045	1	0	NaN	4404838.6707103	NaN	4404839.6541479	4404840.17069968
96	20	0	0	90	36.1581920903955	36.241610738255	12	0.400026576071978	2	10	6	NaN	2	3	0.127937622744553	0	1	NaN	411	7	33	2	120	220	320	NaN	520	0.0104074692353606	2	1	NaN	4404841.4710503	NaN	4404842.4544592	4404842.97097173
96	20	0	0	90	36.1581920903955	36.241610738255	13	0.433362124077976	2	2	1	NaN	1	5	0.127937622744553	0	1	NaN	412	7	34	2	120	220	320	NaN	520	0.271918921731412	2	0	NaN	4404844.2878372	NaN	4404845.2713667	4404845.78792228
96	20	0	0	90	36.1581920903955	36.241610738255	17	0.566704316101968	2	9	3	NaN	2	4	0.127937622744553	0	1	NaN	413	7	35	2	120	220	320	NaN	520	0.0723282694816589	1	0	NaN	4404846.8715501	NaN	4404847.8549496	4404848.37150413
96	20	0	0	90	36.1581920903955	36.241610738255	19	0.633375412113965	2	8	3	NaN	2	4	0.127937622744553	0	1	NaN	414	7	36	2	120	220	320	NaN	520	0.219195521436632	1	0	NaN	4404849.7884911	NaN	4404850.7719124	4404851.28846058
96	20	0	0	90	36.1581920903955	36.241610738255	23	0.766717604137957	2	8	1	NaN	2	4	0.127937622744553	0	1	NaN	415	7	37	2	120	220	320	NaN	520	1.30180332157761	1	0	NaN	4404852.3220771	NaN	4404853.3054794	4404853.82203478
96	20	0	0	90	36.1581920903955	36.241610738255	18	0.600039864107966	2	9	1	NaN	2	5	0.127937622744553	0	1	NaN	416	7	38	2	120	220	320	NaN	520	0.340812621638179	2	1	NaN	4404855.9391028	NaN	4404856.9225113	4404857.43906648
96	20	0	0	90	36.1581920903955	36.241610738255	11	0.366691028065979	2	12	1	NaN	2	3	0.127937622744553	0	1	NaN	417	7	39	2	120	220	320	NaN	520	0.402537769638002	2	1	NaN	4404858.5894075	NaN	4404859.5728386	4404860.08931573
96	20	0	0	90	36.1581920903955	36.241610738255	13	0.433362124077976	2	3	1	NaN	1	3	0.127937622744553	0	1	NaN	418	7	40	2	120	220	320	NaN	520	0.277951369993389	2	0	NaN	4404861.306345	NaN	4404862.2897452	4404862.80625163
96	20	0	0	90	36.1581920903955	36.241610738255	6	0.200013288035989	2	3	3	NaN	1	3	0.127937622744553	0	1	NaN	419	7	41	2	120	220	320	NaN	520	0.0292944423854351	2	0	NaN	4404863.9065527	NaN	4404864.8899515	4404865.40652416
96	20	0	0	90	36.1581920903955	36.241610738255	7	0.233348836041987	2	2	5	NaN	1	4	0.127937622744553	0	1	NaN	420	7	42	2	120	220	320	NaN	520	0.0950742214918137	1	1	NaN	4404866.2568036	NaN	4404867.2402046	4404867.75674718
96	20	0	0	90	36.1581920903955	36.241610738255	22	0.733382056131959	2	2	3	NaN	1	5	0.127937622744553	0	1	NaN	421	7	43	2	120	220	320	NaN	520	0.390052521601319	1	1	NaN	4404869.0737797	NaN	4404870.0571246	4404870.57368998
96	20	0	0	90	36.1581920903955	36.241610738255	11	0.366691028065979	2	3	1	NaN	1	5	0.127937622744553	0	1	NaN	422	7	44	2	120	220	320	NaN	520	0.281553422100842	2	0	NaN	4404871.9740204	NaN	4404872.9574442	4404873.47397398
96	20	0	0	90	36.1581920903955	36.241610738255	9	0.300019932053983	2	8	3	NaN	2	5	0.127937622744553	0	1	NaN	423	7	45	2	120	220	320	NaN	520	0.0104081695899367	1	0	NaN	4404874.5742571	NaN	4404875.5576482	4404876.07423043
96	20	0	0	90	36.1581920903955	36.241610738255	0	0	1	7	5	NaN	2	3	0.127937622744553	0	1	NaN	424	7	46	2	110	210	310	NaN	510	0.376673821359873	2	1	NaN	4404876.9911965	NaN	4404877.9745726	4404878.49113688
96	20	0	0	90	36.1581920903955	36.241610738255	23	0.766717604137957	2	7	5	NaN	2	4	0.127937622744553	0	1	NaN	425	7	47	2	120	220	320	NaN	520	0.221324421465397	2	1	NaN	4404879.6747712	NaN	4404880.6581533	4404881.17473138
96	20	0	0	90	36.1581920903955	36.241610738255	17	0.566704316101968	2	8	1	NaN	2	3	0.127937622744553	0	1	NaN	426	7	48	2	120	220	320	NaN	520	0.215798120945692	2	1	NaN	4404882.2082323	NaN	4404883.1917613	4404883.70831118
96	20	0	0	90	36.1581920903955	36.241610738255	25	0.833388700149953	2	2	1	NaN	1	5	0.127937622744553	0	1	NaN	427	7	49	2	120	220	320	NaN	520	0.138321621343493	2	0	NaN	4404884.741937	NaN	4404885.7253424	4404886.24188578
96	20	0	0	90	36.1581920903955	36.241610738255	19	0.633375412113965	2	2	1	NaN	1	4	0.127937622744553	0	1	NaN	428	7	50	2	120	220	320	NaN	520	0.198216069489717	1	1	NaN	4404887.6255663	NaN	4404888.6089547	4404889.12550093
96	20	0	0	90	36.1581920903955	36.241610738255	20	0.666710960119963	2	8	1	NaN	2	4	0.127937622744553	0	1	NaN	429	7	51	2	120	220	320	NaN	520	0.0780303217470646	2	1	NaN	4404890.6257284	NaN	4404891.6092438	4404892.12580828
96	20	0	0	90	36.1581920903955	36.241610738255	23	0.766717604137957	2	4	4	NaN	1	4	0.127937622744553	0	1	NaN	430	7	52	2	120	220	320	NaN	520	0.4076211694628	1	1	NaN	4404893.1760826	NaN	4404894.1594886	4404894.67605253
96	20	0	0	90	36.1581920903955	36.241610738255	24	0.800053152143955	2	1	4	NaN	1	3	0.127937622744553	0	1	NaN	431	7	53	2	120	220	320	NaN	520	0.242771921679378	2	0	NaN	4404895.8930483	NaN	4404896.8764298	4404897.39298048
96	20	0	0	90	36.1581920903955	36.241610738255	24	0.800053152143955	2	3	4	NaN	1	5	0.127937622744553	0	1	NaN	432	7	54	2	120	220	320	NaN	520	0.0199168687686324	1	1	NaN	4404898.45996	NaN	4404899.4433624	4404899.95990243
96	20	0	0	90	36.1581920903955	36.241610738255	19	0.633375412113965	2	5	1	NaN	1	3	0.127937622744553	0	1	NaN	433	7	55	2	120	220	320	NaN	520	0.238338969647884	2	0	NaN	4404900.7935147	NaN	4404901.7769107	4404902.29346903
96	20	0	0	90	36.1581920903955	36.241610738255	13	0.433362124077976	2	11	4	NaN	2	5	0.127937622744553	0	1	NaN	434	7	56	2	120	220	320	NaN	520	0.256473990157247	2	1	NaN	4404903.3436387	NaN	4404904.3271671	4404904.84372891
96	20	0	0	90	36.1581920903955	36.241610738255	17	0.566704316101968	2	3	5	NaN	1	3	0.127937622744553	0	1	NaN	435	7	57	2	120	220	320	NaN	520	0.0103931222110987	1	1	NaN	4404905.9107146	NaN	4404906.8940825	4404907.41063858
96	20	0	0	90	36.1581920903955	36.241610738255	10	0.333355480059981	2	12	4	NaN	2	5	0.127937622744553	0	1	NaN	436	7	58	2	120	220	320	NaN	520	0.22828422114253	2	1	NaN	4404908.2274753	NaN	4404909.2109727	4404909.72753368
96	20	0	0	90	36.1581920903955	36.241610738255	13	0.433362124077976	2	5	4	NaN	1	5	0.127937622744553	0	1	NaN	437	7	59	2	120	220	320	NaN	520	2.39812912233174	1	1	NaN	4404910.7778344	NaN	4404911.7612414	4404912.27777888
96	20	0	0	90	36.1581920903955	36.241610738255	10	0.333355480059981	2	12	1	NaN	2	4	0.127937622744553	0	1	NaN	438	7	60	2	120	220	320	NaN	520	0.104846469126642	1	0	NaN	4404915.4949645	NaN	4404916.4783624	4404916.99490843
96	20	0	0	90	36.1581920903955	36.241610738255	10	0.333355480059981	2	3	1	NaN	1	5	0.127937622744553	0	1	NaN	439	7	61	2	120	220	320	NaN	520	1.2667594216764	2	0	NaN	4404918.0451906	NaN	4404919.0285912	4404919.54516848
96	20	0	0	90	36.1581920903955	36.241610738255	19	0.633375412113965	2	6	1	NaN	1	5	0.127937622744553	0	1	NaN	440	7	62	2	120	220	320	NaN	520	0.0991010218858719	1	1	NaN	4404921.6289023	NaN	4404922.6122977	4404923.12885248
96	20	0	0	90	36.1581920903955	36.241610738255	21	0.700046508125961	2	4	5	NaN	1	4	0.127937622744553	0	1	NaN	441	7	63	2	120	220	320	NaN	520	0.330057921819389	1	1	NaN	4404924.0457945	NaN	4404925.029176	4404925.54575528
96	20	0	0	90	36.1581920903955	36.241610738255	24	0.800053152143955	2	2	3	NaN	1	3	0.127937622744553	0	1	NaN	442	8	1	2	120	220	320	NaN	520	0.279582121409476	1	1	NaN	4404929.4962514	NaN	4404930.4797319	4404930.99629118
96	20	0	0	90	36.1581920903955	36.241610738255	17	0.566704316101968	2	5	3	NaN	1	5	0.127937622744553	0	1	NaN	443	8	2	2	120	220	320	NaN	520	0.111189369112253	1	1	NaN	4404932.096586	NaN	4404933.0800061	4404933.59654303
96	20	0	0	90	36.1581920903955	36.241610738255	22	0.733382056131959	2	1	5	NaN	1	3	0.127937622744553	0	1	NaN	444	8	3	2	120	220	320	NaN	520	0.0864745220169425	2	0	NaN	4404934.513389	NaN	4404935.4968815	4404936.01346948
96	20	0	0	90	36.1581920903955	36.241610738255	15	0.500033220089972	2	9	2	NaN	2	5	0.127937622744553	0	1	NaN	445	8	4	2	120	220	320	NaN	520	0.29457077011466	1	0	NaN	4404936.9136154	NaN	4404937.8971204	4404938.41368263
96	20	0	0	90	36.1581920903955	36.241610738255	19	0.633375412113965	2	1	3	NaN	1	3	0.127937622744553	0	1	NaN	446	8	5	2	120	220	320	NaN	520	0.469787721522152	1	1	NaN	4404939.5139853	NaN	4404940.4973816	4404941.01393248
96	20	0	0	90	36.1581920903955	36.241610738255	23	0.766717604137957	2	12	2	NaN	2	3	0.127937622744553	0	1	NaN	447	8	6	2	120	220	320	NaN	520	0.318335421383381	2	1	NaN	4404942.2974592	NaN	4404943.2809972	4404943.79754828
96	20	0	0	90	36.1581920903955	36.241610738255	19	0.633375412113965	2	2	5	NaN	1	5	0.127937622744553	0	1	NaN	448	8	7	2	120	220	320	NaN	520	0.420610721223056	1	1	NaN	4404944.9311843	NaN	4404945.9145984	4404946.43113168
96	20	0	0	90	36.1581920903955	36.241610738255	0	0	1	3	1	NaN	1	5	0.127937622744553	0	1	NaN	449	8	8	2	110	210	310	NaN	510	0.0103909214958549	2	0	NaN	4404947.6648006	NaN	4404948.6481934	4404949.16473978
96	20	0	0	90	36.1581920903955	36.241610738255	14	0.466697672083974	2	1	4	NaN	1	5	0.127937622744553	0	1	NaN	450	8	9	2	120	220	320	NaN	520	0.185548421926796	1	1	NaN	4404949.9983511	NaN	4404950.9817454	4404951.49830418
96	20	0	0	90	36.1581920903955	36.241610738255	14	0.466697672083974	2	5	2	NaN	1	5	0.127937622744553	0	1	NaN	451	8	10	2	120	220	320	NaN	520	0.0373023692518473	1	1	NaN	4404952.4986057	NaN	4404953.4820002	4404953.99854443
96	20	0	0	90	36.1581920903955	36.241610738255	15	0.500033220089972	2	1	5	NaN	1	5	0.127937622744553	0	1	NaN	452	8	11	2	120	220	320	NaN	520	0.0952147953212261	2	0	NaN	4404954.848823	NaN	4404955.83222	4404956.348786
96	20	0	0	90	36.1581920903955	36.241610738255	8	0.266684384047985	2	9	2	NaN	2	4	0.127937622744553	0	1	NaN	453	8	12	2	120	220	320	NaN	520	0.2468655211851	2	1	NaN	4404957.2490721	NaN	4404958.2324857	4404958.74901068
96	20	0	0	90	36.1581920903955	36.241610738255	15	0.500033220089972	2	3	4	NaN	1	5	0.127937622744553	0	1	NaN	454	8	13	2	120	220	320	NaN	520	0.296345815993845	2	0	NaN	4404959.8159877	NaN	4404960.7993826	4404961.31592438
96	20	0	0	90	36.1581920903955	36.241610738255	12	0.400026576071978	2	6	1	NaN	1	3	0.127937622744553	0	1	NaN	455	8	14	2	120	220	320	NaN	520	0.279345321469009	1	1	NaN	4404962.4327551	NaN	4404963.4163036	4404963.93286168
96	20	0	0	90	36.1581920903955	36.241610738255	10	0.333355480059981	2	8	2	NaN	2	4	0.127937622744553	0	1	NaN	456	8	15	2	120	220	320	NaN	520	0.247471469454467	2	1	NaN	4404965.0164809	NaN	4404965.9998871	4404966.51643883
96	20	0	0	90	36.1581920903955	36.241610738255	18	0.600039864107966	2	6	6	NaN	1	5	0.127937622744553	0	1	NaN	457	8	16	2	120	220	320	NaN	520	0.0806367425248027	1	1	NaN	4404967.5833024	NaN	4404968.5667985	4404969.08336996
96	20	0	0	90	36.1581920903955	36.241610738255	17	0.566704316101968	2	6	1	NaN	1	3	0.127937622744553	0	1	NaN	458	8	17	2	120	220	320	NaN	520	0.176653422415257	1	1	NaN	4404969.9836672	NaN	4404970.967025	4404971.48359428
96	20	0	0	90	36.1581920903955	36.241610738255	10	0.333355480059981	2	10	2	NaN	2	5	0.127937622744553	0	1	NaN	459	8	18	2	120	220	320	NaN	520	0.253069794736803	2	1	NaN	4404972.4670944	NaN	4404973.4505349	4404973.96718671
96	20	0	0	90	36.1581920903955	36.241610738255	20	0.666710960119963	2	6	3	NaN	1	3	0.127937622744553	0	1	NaN	460	8	19	2	120	220	320	NaN	520	0.16924676951021	1	1	NaN	4404975.1508089	NaN	4404976.1342124	4404976.65076383
