subjno	age	gender	isPractice	viewdist	CmToPixX	CmToPixY	SOA_frm	SOA_time	targNum	targID	targExample	targRace	targGender	firstTargPos	contrast	familiarity	curr_staircase	iStair	TrialNum	BlockNum	blktrl	sessionNum	TC_FIXATION	TC_RSVP_START	TC_RSVP_END	TC_BLANK	TC_RESPONSE_ONSET	RT2afc	resp_2afc	acc	RSVPOnsetVBL	RSVPOnsetTime	RSVPOffsetVBL	RSVPOffsetTime	startrt_2afc
56	19	0	0	90	36.1581920903955	36.241610738255	8	0.266686400026083	2	6	6	NaN	1	5	0.0251211088865766	1	1	NaN	1	1	1	1	121	221	321	NaN	521	0.0479439748451114	1	1	NaN	2680346.7155998	NaN	2680347.6989447	2680348.23206002
56	19	0	0	90	36.1581920903955	36.241610738255	12	0.400029600039125	2	12	3	NaN	2	5	0.0251211088865766	1	1	NaN	2	1	2	1	121	221	321	NaN	521	0.0788939278572798	1	0	NaN	2680349.1324384	NaN	2680350.115813	2680350.64896957
56	19	0	0	90	36.1581920903955	36.241610738255	8	0.266686400026083	2	1	3	NaN	1	5	0.0251211088865766	1	1	NaN	3	1	3	1	121	221	321	NaN	521	0.0106058707460761	2	0	NaN	2680351.5491443	NaN	2680352.5326487	2680353.04920703
56	19	0	0	90	36.1581920903955	36.241610738255	15	0.500037000048906	2	12	6	NaN	2	3	0.0251211088865766	1	1	NaN	4	1	4	1	121	221	321	NaN	521	0.0105189704336226	2	1	NaN	2680354.0493621	NaN	2680355.0329459	2680355.54944763
56	19	0	0	90	36.1581920903955	36.241610738255	17	0.566708600055426	2	9	6	NaN	2	5	0.0251211088865766	1	1	NaN	5	1	5	1	121	221	321	NaN	521	0.477038123179227	1	0	NaN	2680356.3830712	NaN	2680357.3664623	2680357.88300538
56	19	0	0	90	36.1581920903955	36.241610738255	25	0.833395000081509	2	12	2	NaN	2	4	0.0251211088865766	1	1	NaN	6	1	6	1	121	221	321	NaN	521	0.228552118409425	2	1	NaN	2680359.1833336	NaN	2680360.1667726	2680360.68328218
56	19	0	0	90	36.1581920903955	36.241610738255	7	0.233350600022823	2	1	1	NaN	1	5	0.0251211088865766	1	1	NaN	7	1	7	1	121	221	321	NaN	521	0.657472070772201	2	0	NaN	2680362.2502739	NaN	2680363.2337076	2680363.75026043
56	19	0	0	90	36.1581920903955	36.241610738255	10	0.333358000032604	2	3	5	NaN	1	5	0.0251211088865766	1	1	NaN	8	1	8	1	121	221	321	NaN	521	0.378083894960582	1	1	NaN	2680365.2339334	NaN	2680366.2173211	2680366.7338841
56	19	0	0	90	36.1581920903955	36.241610738255	23	0.766723400074989	2	7	3	NaN	2	5	0.0251211088865766	1	1	NaN	9	1	9	1	121	221	321	NaN	521	0.398073123302311	2	1	NaN	2680367.9341824	NaN	2680368.9175964	2680369.43415038
56	19	0	0	90	36.1581920903955	36.241610738255	15	0.500037000048906	2	7	2	NaN	2	4	0.0251211088865766	1	1	NaN	10	1	10	1	121	221	321	NaN	521	0.440834670327604	2	1	NaN	2680370.6511292	NaN	2680371.6345306	2680372.15108243
56	19	0	0	90	36.1581920903955	36.241610738255	10	0.333358000032604	2	4	2	NaN	1	3	0.0251211088865766	1	1	NaN	11	1	11	1	121	221	321	NaN	521	0.570196322631091	2	0	NaN	2680373.4180777	NaN	2680374.401473	2680374.91801938
56	19	0	0	90	36.1581920903955	36.241610738255	13	0.433365400042385	2	2	3	NaN	1	5	0.0251211088865766	1	1	NaN	12	1	12	1	121	221	321	NaN	521	0.429982175584882	1	1	NaN	2680376.3183622	NaN	2680377.3017452	2680377.81830442
56	19	0	0	90	36.1581920903955	36.241610738255	6	0.200014800019562	2	9	4	NaN	2	5	0.0251211088865766	1	1	NaN	13	1	13	1	121	221	321	NaN	521	0.559729170054197	1	0	NaN	2680379.0684921	NaN	2680380.0519993	2680380.56856593
56	19	0	0	90	36.1581920903955	36.241610738255	20	0.666716000065207	2	10	5	NaN	2	5	0.0251211088865766	1	1	NaN	14	1	14	1	121	221	321	NaN	521	0.403827670495957	2	1	NaN	2680381.9521229	NaN	2680382.9357311	2680383.45219593
56	19	0	0	90	36.1581920903955	36.241610738255	13	0.433365400042385	2	3	4	NaN	1	5	0.0251211088865766	1	1	NaN	15	1	15	1	121	221	321	NaN	521	0.406402923166752	1	1	NaN	2680384.6858488	NaN	2680385.6692402	2680386.18579608
56	19	0	0	90	36.1581920903955	36.241610738255	20	0.666716000065207	2	9	2	NaN	2	4	0.0251211088865766	1	1	NaN	16	1	16	1	121	221	321	NaN	521	0.640926065389067	1	0	NaN	2680387.4194446	NaN	2680388.402842	2680388.91939003
56	19	0	0	90	36.1581920903955	36.241610738255	0	0	1	3	1	NaN	1	4	0.0251211088865766	1	1	NaN	17	1	17	1	111	211	311	NaN	511	0.665520275011659	1	1	NaN	2680390.3864152	NaN	2680391.3697833	2680391.88635272
56	19	0	0	90	36.1581920903955	36.241610738255	17	0.566708600055426	2	10	3	NaN	2	3	0.0251211088865766	1	1	NaN	18	1	18	1	121	221	321	NaN	521	0.68203187501058	1	0	NaN	2680393.3700014	NaN	2680394.3534319	2680394.86998462
56	19	0	0	90	36.1581920903955	36.241610738255	17	0.566708600055426	2	1	4	NaN	1	5	0.0251211088865766	1	1	NaN	19	1	19	1	121	221	321	NaN	521	0.681639823131263	1	1	NaN	2680396.3703338	NaN	2680397.3537251	2680397.87027518
56	19	0	0	90	36.1581920903955	36.241610738255	15	0.500037000048906	2	8	4	NaN	2	5	0.0251211088865766	1	1	NaN	20	1	20	1	121	221	321	NaN	521	0.705674170516431	2	1	NaN	2680399.3706411	NaN	2680400.3540113	2680400.87056743
56	19	0	0	90	36.1581920903955	36.241610738255	22	0.733387600071728	2	4	6	NaN	1	3	0.0251211088865766	1	1	NaN	21	1	21	1	121	221	321	NaN	521	0.480450722854584	2	0	NaN	2680402.4042633	NaN	2680403.3876084	2680403.90419938
56	19	0	0	90	36.1581920903955	36.241610738255	24	0.800059200078249	2	11	4	NaN	2	5	0.0251211088865766	1	1	NaN	22	1	22	1	121	221	321	NaN	521	0.573477080557495	2	1	NaN	2680405.4544449	NaN	2680406.4379456	2680406.95449762
56	19	0	0	90	36.1581920903955	36.241610738255	13	0.433365400042385	2	1	6	NaN	1	4	0.0251211088865766	1	1	NaN	23	1	23	1	121	221	321	NaN	521	0.473454822786152	1	1	NaN	2680408.3546799	NaN	2680409.3382163	2680409.85478488
56	19	0	0	90	36.1581920903955	36.241610738255	18	0.600044400058687	2	10	1	NaN	2	3	0.0251211088865766	1	1	NaN	24	1	24	1	121	221	321	NaN	521	0.0881911227479577	2	1	NaN	2680411.5717856	NaN	2680412.5552	2680413.07176688
56	19	0	0	90	36.1581920903955	36.241610738255	20	0.666716000065207	2	1	3	NaN	1	3	0.0251211088865766	1	1	NaN	25	1	25	1	121	221	321	NaN	521	0.480003123171628	2	0	NaN	2680413.9720459	NaN	2680414.9554415	2680415.47200628
56	19	0	0	90	36.1581920903955	36.241610738255	16	0.533372800052166	2	6	2	NaN	1	3	0.0251211088865766	1	1	NaN	26	1	26	1	121	221	321	NaN	521	0.407998670358211	1	1	NaN	2680416.7723271	NaN	2680417.7557183	2680418.27227253
56	19	0	0	90	36.1581920903955	36.241610738255	20	0.666716000065207	2	7	4	NaN	2	4	0.0251211088865766	1	1	NaN	27	1	27	1	121	221	321	NaN	521	0.770417522639036	2	1	NaN	2680419.505938	NaN	2680420.4893274	2680421.00588148
56	19	0	0	90	36.1581920903955	36.241610738255	13	0.433365400042385	2	7	4	NaN	2	5	0.0251211088865766	1	1	NaN	28	1	28	1	121	221	321	NaN	521	0.596713870763779	1	0	NaN	2680423.0395804	NaN	2680424.0230059	2680424.53956013
56	19	0	0	90	36.1581920903955	36.241610738255	12	0.400029600039125	2	11	4	NaN	2	3	0.0251211088865766	1	1	NaN	29	1	29	1	121	221	321	NaN	521	0.775287223048508	1	0	NaN	2680425.9565506	NaN	2680426.9399606	2680427.45651638
56	19	0	0	90	36.1581920903955	36.241610738255	21	0.700051800068468	2	7	4	NaN	2	3	0.0251211088865766	1	1	NaN	30	1	30	1	121	221	321	NaN	521	0.467197475023568	1	0	NaN	2680429.0568669	NaN	2680430.0402538	2680430.55682102
56	19	0	0	90	36.1581920903955	36.241610738255	19	0.633380200061947	2	5	5	NaN	1	5	0.0251211088865766	1	1	NaN	31	1	31	1	121	221	321	NaN	521	0.60356332315132	2	0	NaN	2680431.8404091	NaN	2680432.8238732	2680433.34041888
56	19	0	0	90	36.1581920903955	36.241610738255	12	0.400029600039125	2	7	5	NaN	2	4	0.0251211088865766	1	1	NaN	32	1	32	1	121	221	321	NaN	521	0.574923070147634	2	1	NaN	2680434.7574228	NaN	2680435.7408252	2680436.25737853
56	19	0	0	90	36.1581920903955	36.241610738255	12	0.400029600039125	2	1	3	NaN	1	3	0.0251211088865766	1	1	NaN	33	1	33	1	121	221	321	NaN	521	0.330733923241496	1	1	NaN	2680437.6577246	NaN	2680438.6411311	2680439.15766248
56	19	0	0	90	36.1581920903955	36.241610738255	19	0.633380200061947	2	2	5	NaN	1	4	0.0251211088865766	1	1	NaN	34	1	34	1	121	221	321	NaN	521	0.327319918666035	1	1	NaN	2680440.7246365	NaN	2680441.7080666	2680442.22462888
56	19	0	0	90	36.1581920903955	36.241610738255	6	0.200014800019562	2	10	4	NaN	2	3	0.0251211088865766	1	1	NaN	35	1	35	1	121	221	321	NaN	521	0.50945952301845	1	0	NaN	2680443.3749279	NaN	2680444.3583303	2680444.87489198
56	19	0	0	90	36.1581920903955	36.241610738255	16	0.533372800052166	2	4	3	NaN	1	5	0.0251211088865766	1	1	NaN	36	1	36	1	121	221	321	NaN	521	0.467293123248965	1	1	NaN	2680446.4085385	NaN	2680447.3919681	2680447.90851638
56	19	0	0	90	36.1581920903955	36.241610738255	25	0.833395000081509	2	11	3	NaN	2	3	0.0251211088865766	1	1	NaN	37	1	37	1	121	221	321	NaN	521	0.459791723173112	2	1	NaN	2680449.1922193	NaN	2680450.1755868	2680450.69213338
56	19	0	0	90	36.1581920903955	36.241610738255	13	0.433365400042385	2	9	5	NaN	2	5	0.0251211088865766	1	1	NaN	38	1	38	1	121	221	321	NaN	521	0.426574565470219	1	0	NaN	2680452.2257715	NaN	2680453.2092112	2680453.72575303
56	19	0	0	90	36.1581920903955	36.241610738255	20	0.666716000065207	2	2	2	NaN	1	5	0.0251211088865766	1	1	NaN	39	1	39	1	121	221	321	NaN	521	0.477025775238872	1	1	NaN	2680454.9594204	NaN	2680455.9427838	2680456.45936612
56	19	0	0	90	36.1581920903955	36.241610738255	8	0.266686400026083	2	2	3	NaN	1	4	0.0251211088865766	1	1	NaN	40	1	40	1	121	221	321	NaN	521	0.364220223389566	1	1	NaN	2680457.7596946	NaN	2680458.7430856	2680459.25963068
56	19	0	0	90	36.1581920903955	36.241610738255	12	0.400029600039125	2	3	4	NaN	1	3	0.0251211088865766	1	1	NaN	41	1	41	1	121	221	321	NaN	521	0.537020122632384	2	0	NaN	2680460.4432335	NaN	2680461.4266845	2680461.94324238
56	19	0	0	90	36.1581920903955	36.241610738255	12	0.400029600039125	2	5	2	NaN	1	4	0.0251211088865766	1	1	NaN	42	1	42	1	121	221	321	NaN	521	0.606819070409983	1	1	NaN	2680463.2935628	NaN	2680464.276955	2680464.79351583
56	19	0	0	90	36.1581920903955	36.241610738255	8	0.266686400026083	2	5	1	NaN	1	5	0.0251211088865766	1	1	NaN	43	1	43	1	121	221	321	NaN	521	0.401676923036575	2	0	NaN	2680466.210536	NaN	2680467.1938844	2680467.71047158
56	19	0	0	90	36.1581920903955	36.241610738255	11	0.366693800035864	2	7	1	NaN	2	5	0.0251211088865766	1	1	NaN	44	1	44	1	121	221	321	NaN	521	0.564613822847605	1	0	NaN	2680468.92745	NaN	2680469.910837	2680470.42739188
56	19	0	0	90	36.1581920903955	36.241610738255	19	0.633380200061947	2	9	3	NaN	2	4	0.0251211088865766	1	1	NaN	45	1	45	1	121	221	321	NaN	521	0.496962785255164	2	1	NaN	2680471.811079	NaN	2680472.7945049	2680473.31102111
56	19	0	0	90	36.1581920903955	36.241610738255	20	0.666716000065207	2	4	3	NaN	1	5	0.0251211088865766	1	1	NaN	46	1	46	1	121	221	321	NaN	521	0.600444523151964	1	1	NaN	2680474.6279791	NaN	2680475.6114506	2680476.12795828
56	19	0	0	90	36.1581920903955	36.241610738255	15	0.500037000048906	2	10	1	NaN	2	4	0.0251211088865766	1	1	NaN	47	1	47	1	121	221	321	NaN	521	0.699219794943929	2	1	NaN	2680477.5448311	NaN	2680478.5283615	2680479.0449149
56	19	0	0	90	36.1581920903955	36.241610738255	13	0.433365400042385	2	6	6	NaN	1	5	0.0251211088865766	1	1	NaN	48	1	48	1	121	221	321	NaN	521	0.610754718538374	1	1	NaN	2680480.5452001	NaN	2680481.5286478	2680482.04519698
56	19	0	0	90	36.1581920903955	36.241610738255	19	0.633380200061947	2	4	2	NaN	1	4	0.0251211088865766	1	1	NaN	49	1	49	1	121	221	321	NaN	521	1.10195432323962	1	1	NaN	2680483.4622106	NaN	2680484.4456072	2680484.96216718
56	19	0	0	90	36.1581920903955	36.241610738255	21	0.700051800068468	2	11	1	NaN	2	3	0.0251211088865766	1	1	NaN	50	1	50	1	121	221	321	NaN	521	0.364828627556562	1	0	NaN	2680487.0792254	NaN	2680488.0626198	2680488.57918747
56	19	0	0	90	36.1581920903955	36.241610738255	23	0.766723400074989	2	7	1	NaN	2	5	0.0251211088865766	1	1	NaN	51	1	51	1	121	221	321	NaN	521	0.0652879234403372	2	1	NaN	2680489.7628459	NaN	2680490.7462239	2680491.26277328
56	19	0	0	90	36.1581920903955	36.241610738255	22	0.733387600071728	2	4	6	NaN	1	5	0.0251211088865766	1	1	NaN	52	1	52	1	121	221	321	NaN	521	0.338018022943288	2	0	NaN	2680492.1463874	NaN	2680493.1297936	2680493.64634768
56	19	0	0	90	36.1581920903955	36.241610738255	10	0.333358000032604	2	3	5	NaN	1	3	0.0251211088865766	1	1	NaN	53	1	53	1	121	221	321	NaN	521	0.455392923206091	1	1	NaN	2680494.7966619	NaN	2680495.7800499	2680496.29660858
56	19	0	0	90	36.1581920903955	36.241610738255	11	0.366693800035864	2	6	4	NaN	1	4	0.0251211088865766	1	1	NaN	54	1	54	1	121	221	321	NaN	521	0.539148323237896	1	1	NaN	2680497.8969658	NaN	2680498.8803639	2680499.39691388
56	19	0	0	90	36.1581920903955	36.241610738255	22	0.733387600071728	2	9	6	NaN	2	5	0.0251211088865766	1	1	NaN	55	1	55	1	121	221	321	NaN	521	0.560879132244736	1	0	NaN	2680500.7472676	NaN	2680501.7306386	2680502.24719007
56	19	0	0	90	36.1581920903955	36.241610738255	17	0.566708600055426	2	3	2	NaN	1	5	0.0251211088865766	1	1	NaN	56	1	56	1	121	221	321	NaN	521	0.677845018450171	1	1	NaN	2680503.614188	NaN	2680504.5975753	2680505.11413638
56	19	0	0	90	36.1581920903955	36.241610738255	16	0.533372800052166	2	8	5	NaN	2	3	0.0251211088865766	1	1	NaN	57	1	57	1	121	221	321	NaN	521	0.157996823079884	2	1	NaN	2680506.6145015	NaN	2680507.5978804	2680508.11442998
56	19	0	0	90	36.1581920903955	36.241610738255	14	0.466701200045645	2	10	4	NaN	2	3	0.0251211088865766	1	1	NaN	58	1	58	1	121	221	321	NaN	521	0.722014422994107	2	1	NaN	2680509.0980626	NaN	2680510.0814544	2680510.59801008
56	19	0	0	90	36.1581920903955	36.241610738255	12	0.400029600039125	2	1	6	NaN	1	3	0.0251211088865766	1	1	NaN	59	1	59	1	121	221	321	NaN	521	0.584271674975753	1	1	NaN	2680512.1317296	NaN	2680513.1150858	2680513.63164562
56	19	0	0	90	36.1581920903955	36.241610738255	6	0.200014800019562	2	3	6	NaN	1	5	0.0251211088865766	1	1	NaN	60	1	60	1	121	221	321	NaN	521	0.628511070273817	1	1	NaN	2680515.0318487	NaN	2680516.0153838	2680516.53192973
56	19	0	0	90	36.1581920903955	36.241610738255	25	0.833395000081509	2	11	4	NaN	2	3	0.0251211088865766	1	1	NaN	61	1	61	1	121	221	321	NaN	521	0.715906670317054	2	1	NaN	2680518.2321924	NaN	2680519.2156782	2680519.73223263
56	19	0	0	90	36.1581920903955	36.241610738255	20	0.666716000065207	2	1	5	NaN	1	3	0.0251211088865766	1	1	NaN	62	1	62	1	121	221	321	NaN	521	1.0424048230052	1	1	NaN	2680521.2659309	NaN	2680522.2493225	2680522.76586378
56	19	0	0	90	36.1581920903955	36.241610738255	16	0.533372800052166	2	9	5	NaN	2	3	0.0251211088865766	1	1	NaN	63	1	63	1	121	221	321	NaN	521	0.585554723162204	1	0	NaN	2680525.0829287	NaN	2680526.0663459	2680526.58291928
56	19	0	0	90	36.1581920903955	36.241610738255	8	0.266686400026083	2	11	2	NaN	2	5	0.0251211088865766	1	1	NaN	64	2	1	1	121	221	321	NaN	521	0.77269932301715	1	0	NaN	2680537.9675788	NaN	2680538.9509568	2680539.46751498
56	19	0	0	90	36.1581920903955	36.241610738255	18	0.600044400058687	2	8	1	NaN	2	3	0.0251211088865766	1	1	NaN	65	2	2	1	121	221	321	NaN	521	0.641027222853154	1	0	NaN	2680541.0512925	NaN	2680542.0345943	2680542.55114778
56	19	0	0	90	36.1581920903955	36.241610738255	0	0	1	11	2	NaN	2	3	0.0251211088865766	1	1	NaN	66	2	3	1	111	211	311	NaN	511	0.602496723178774	2	1	NaN	2680544.0015037	NaN	2680544.9848859	2680545.50144118
56	19	0	0	90	36.1581920903955	36.241610738255	20	0.666716000065207	2	10	3	NaN	2	5	0.0251211088865766	1	1	NaN	67	2	4	1	121	221	321	NaN	521	0.725679318420589	2	1	NaN	2680546.9183037	NaN	2680547.901835	2680548.41838648
56	19	0	0	90	36.1581920903955	36.241610738255	6	0.200014800019562	2	2	1	NaN	1	5	0.0251211088865766	1	1	NaN	68	2	5	1	121	221	321	NaN	521	0.499969570431858	1	1	NaN	2680549.9520963	NaN	2680550.9354704	2680551.45201393
56	19	0	0	90	36.1581920903955	36.241610738255	17	0.566708600055426	2	12	2	NaN	2	4	0.0251211088865766	1	1	NaN	69	2	6	1	121	221	321	NaN	521	0.57126887049526	2	1	NaN	2680552.7690176	NaN	2680553.7524116	2680554.26896493
56	19	0	0	90	36.1581920903955	36.241610738255	16	0.533372800052166	2	11	3	NaN	2	5	0.0251211088865766	1	1	NaN	70	2	7	1	121	221	321	NaN	521	1.07952487049624	2	1	NaN	2680555.6525755	NaN	2680556.6360046	2680557.15258063
56	19	0	0	90	36.1581920903955	36.241610738255	6	0.200014800019562	2	1	5	NaN	1	3	0.0251211088865766	1	1	NaN	71	2	8	1	121	221	321	NaN	521	0.629949575290084	2	0	NaN	2680559.0862968	NaN	2680560.0696971	2680560.58625322
56	19	0	0	90	36.1581920903955	36.241610738255	0	0	1	9	6	NaN	2	3	0.0251211088865766	1	1	NaN	72	2	9	1	111	211	311	NaN	511	0.431481770705432	1	0	NaN	2680562.0366119	NaN	2680563.0199654	2680563.53654073
56	19	0	0	90	36.1581920903955	36.241610738255	24	0.800059200078249	2	3	4	NaN	1	5	0.0251211088865766	1	1	NaN	73	2	10	1	121	221	321	NaN	521	0.569190223235637	1	1	NaN	2680564.7868533	NaN	2680565.7703178	2680566.28680888
56	19	0	0	90	36.1581920903955	36.241610738255	24	0.800059200078249	2	8	4	NaN	2	4	0.0251211088865766	1	1	NaN	74	2	11	1	121	221	321	NaN	521	0.845714895054698	1	0	NaN	2680567.6704789	NaN	2680568.6538806	2680569.1704302
56	19	0	0	90	36.1581920903955	36.241610738255	21	0.700051800068468	2	10	4	NaN	2	5	0.0251211088865766	1	1	NaN	75	2	12	1	121	221	321	NaN	521	0.655102170538157	2	1	NaN	2680570.8374666	NaN	2680571.8208517	2680572.33739663
56	19	0	0	90	36.1581920903955	36.241610738255	9	0.300022200029343	2	4	4	NaN	1	4	0.0251211088865766	1	1	NaN	76	2	13	1	121	221	321	NaN	521	0.57583142304793	1	1	NaN	2680573.8044296	NaN	2680574.7878378	2680575.30436928
56	19	0	0	90	36.1581920903955	36.241610738255	10	0.333358000032604	2	9	4	NaN	2	4	0.0251211088865766	1	1	NaN	77	2	14	1	121	221	321	NaN	521	0.571342522744089	2	1	NaN	2680577.1047698	NaN	2680578.0881276	2680578.60469278
56	19	0	0	90	36.1581920903955	36.241610738255	6	0.200014800019562	2	9	2	NaN	2	3	0.0251211088865766	1	1	NaN	78	2	15	1	121	221	321	NaN	521	0.895798022858799	1	0	NaN	2680579.9883677	NaN	2680580.9717239	2680581.48830718
56	19	0	0	90	36.1581920903955	36.241610738255	23	0.766723400074989	2	6	6	NaN	1	4	0.0251211088865766	1	1	NaN	79	2	16	1	121	221	321	NaN	521	0.687022523023188	1	1	NaN	2680583.605245	NaN	2680584.5887751	2680585.10532968
56	19	0	0	90	36.1581920903955	36.241610738255	13	0.433365400042385	2	6	3	NaN	1	3	0.0251211088865766	1	1	NaN	80	2	17	1	121	221	321	NaN	521	0.694443870335817	1	1	NaN	2680586.605683	NaN	2680587.5890701	2680588.10561743
56	19	0	0	90	36.1581920903955	36.241610738255	14	0.466701200045645	2	4	1	NaN	1	5	0.0251211088865766	1	1	NaN	81	2	18	1	121	221	321	NaN	521	0.665942670311779	2	0	NaN	2680589.7226364	NaN	2680590.7060275	2680591.22259683
56	19	0	0	90	36.1581920903955	36.241610738255	7	0.233350600022823	2	11	1	NaN	2	4	0.0251211088865766	1	1	NaN	82	2	19	1	121	221	321	NaN	521	1.16205662302673	1	0	NaN	2680592.7062681	NaN	2680593.6896658	2680594.20622288
56	19	0	0	90	36.1581920903955	36.241610738255	22	0.733387600071728	2	10	1	NaN	2	4	0.0251211088865766	1	1	NaN	83	2	20	1	121	221	321	NaN	521	0.638850370422006	2	1	NaN	2680596.1732968	NaN	2680597.1566664	2680597.67322643
56	19	0	0	90	36.1581920903955	36.241610738255	0	0	1	2	3	NaN	1	5	0.0251211088865766	1	1	NaN	84	2	21	1	111	211	311	NaN	511	0.808763670735061	2	0	NaN	2680599.1234264	NaN	2680600.1069578	2680600.62351853
56	19	0	0	90	36.1581920903955	36.241610738255	20	0.666716000065207	2	3	5	NaN	1	4	0.0251211088865766	1	1	NaN	85	2	22	1	121	221	321	NaN	521	0.611772870644927	2	0	NaN	2680602.2404101	NaN	2680603.2240179	2680603.74048443
56	19	0	0	90	36.1581920903955	36.241610738255	6	0.200014800019562	2	2	4	NaN	1	5	0.0251211088865766	1	1	NaN	86	2	23	1	121	221	321	NaN	521	0.486157523002476	1	1	NaN	2680605.1742381	NaN	2680606.1575556	2680606.67411338
56	19	0	0	90	36.1581920903955	36.241610738255	18	0.600044400058687	2	5	3	NaN	1	5	0.0251211088865766	1	1	NaN	87	2	24	1	121	221	321	NaN	521	0.7181810233742	2	0	NaN	2680607.974433	NaN	2680608.957839	2680609.47439038
56	19	0	0	90	36.1581920903955	36.241610738255	14	0.466701200045645	2	6	5	NaN	1	5	0.0251211088865766	1	1	NaN	88	2	25	1	121	221	321	NaN	521	0.7165795750916	1	1	NaN	2680611.0080715	NaN	2680611.9914648	2680612.50801982
56	19	0	0	90	36.1581920903955	36.241610738255	8	0.266686400026083	2	12	6	NaN	2	5	0.0251211088865766	1	1	NaN	89	2	26	1	121	221	321	NaN	521	0.95299237081781	2	1	NaN	2680614.4750341	NaN	2680615.4584847	2680615.97502743
56	19	0	0	90	36.1581920903955	36.241610738255	23	0.766723400074989	2	5	1	NaN	1	5	0.0251211088865766	1	1	NaN	90	2	27	1	121	221	321	NaN	521	0.614806422963738	1	1	NaN	2680617.7420458	NaN	2680618.7254526	2680619.24201038
56	19	0	0	90	36.1581920903955	36.241610738255	0	0	1	3	3	NaN	1	4	0.0251211088865766	1	1	NaN	91	2	28	1	111	211	311	NaN	511	0.962693570181727	1	1	NaN	2680621.025599	NaN	2680622.0091121	2680622.52567273
56	19	0	0	90	36.1581920903955	36.241610738255	12	0.400029600039125	2	10	2	NaN	2	4	0.0251211088865766	1	1	NaN	92	2	29	1	121	221	321	NaN	521	0.679038823116571	2	1	NaN	2680624.3093638	NaN	2680625.2927684	2680625.80931908
56	19	0	0	90	36.1581920903955	36.241610738255	24	0.800059200078249	2	7	6	NaN	2	5	0.0251211088865766	1	1	NaN	93	2	30	1	121	221	321	NaN	521	0.687020023353398	2	1	NaN	2680627.3096608	NaN	2680628.2930575	2680628.80961578
56	19	0	0	90	36.1581920903955	36.241610738255	12	0.400029600039125	2	8	5	NaN	2	3	0.0251211088865766	1	1	NaN	94	2	31	1	121	221	321	NaN	521	0.67824592301622	1	0	NaN	2680630.3099484	NaN	2680631.2934015	2680631.80990998
56	19	0	0	90	36.1581920903955	36.241610738255	22	0.733387600071728	2	1	1	NaN	1	5	0.0251211088865766	1	1	NaN	95	2	32	1	121	221	321	NaN	521	0.646342470310628	1	1	NaN	2680633.3102544	NaN	2680634.2936981	2680634.81020733
56	19	0	0	90	36.1581920903955	36.241610738255	14	0.466701200045645	2	12	6	NaN	2	4	0.0251211088865766	1	1	NaN	96	2	33	1	121	221	321	NaN	521	0.839249623008072	1	0	NaN	2680636.2772221	NaN	2680637.2606449	2680637.77716528
56	19	0	0	90	36.1581920903955	36.241610738255	11	0.366693800035864	2	12	6	NaN	2	3	0.0251211088865766	1	1	NaN	97	2	34	1	121	221	321	NaN	521	0.752724923193455	2	1	NaN	2680639.4274226	NaN	2680640.4109195	2680640.92747478
56	19	0	0	90	36.1581920903955	36.241610738255	19	0.633380200061947	2	12	1	NaN	2	4	0.0251211088865766	1	1	NaN	98	2	35	1	121	221	321	NaN	521	0.645689523313195	2	1	NaN	2680642.4945131	NaN	2680643.4778908	2680643.99444088
56	19	0	0	90	36.1581920903955	36.241610738255	19	0.633380200061947	2	12	5	NaN	2	3	0.0251211088865766	1	1	NaN	99	2	36	1	121	221	321	NaN	521	0.582885222975165	1	0	NaN	2680645.4614497	NaN	2680646.4448464	2680646.96139318
56	19	0	0	90	36.1581920903955	36.241610738255	0	0	1	2	1	NaN	1	5	0.0251211088865766	1	1	NaN	100	2	37	1	111	211	311	NaN	511	0.6265555229038	1	1	NaN	2680648.3615951	NaN	2680649.3451426	2680649.86168698
56	19	0	0	90	36.1581920903955	36.241610738255	16	0.533372800052166	2	5	1	NaN	1	4	0.0251211088865766	1	1	NaN	101	2	38	1	121	221	321	NaN	521	0.69353402312845	1	1	NaN	2680651.4787527	NaN	2680652.4620966	2680652.97865228
56	19	0	0	90	36.1581920903955	36.241610738255	17	0.566708600055426	2	2	1	NaN	1	4	0.0251211088865766	1	1	NaN	102	2	39	1	121	221	321	NaN	521	0.837364622857422	1	1	NaN	2680654.4789606	NaN	2680655.462399	2680655.97895108
56	19	0	0	90	36.1581920903955	36.241610738255	25	0.833395000081509	2	7	2	NaN	2	3	0.0251211088865766	1	1	NaN	103	2	40	1	121	221	321	NaN	521	0.615319618489593	2	1	NaN	2680657.6293052	NaN	2680658.6127451	2680659.12925228
56	19	0	0	90	36.1581920903955	36.241610738255	21	0.700051800068468	2	3	6	NaN	1	4	0.0251211088865766	1	1	NaN	104	2	41	1	121	221	321	NaN	521	0.71340162307024	1	1	NaN	2680660.5629469	NaN	2680661.5463617	2680662.06288798
56	19	0	0	90	36.1581920903955	36.241610738255	9	0.300022200029343	2	3	2	NaN	1	5	0.0251211088865766	1	1	NaN	105	2	42	1	121	221	321	NaN	521	0.767783223185688	1	1	NaN	2680663.5965895	NaN	2680664.5799679	2680665.09651598
56	19	0	0	90	36.1581920903955	36.241610738255	12	0.400029600039125	2	2	6	NaN	1	3	0.0251211088865766	1	1	NaN	106	2	43	1	121	221	321	NaN	521	0.699973423033953	1	1	NaN	2680666.6801826	NaN	2680667.6636208	2680668.18014928
56	19	0	0	90	36.1581920903955	36.241610738255	11	0.366693800035864	2	8	1	NaN	2	3	0.0251211088865766	1	1	NaN	107	2	44	1	121	221	321	NaN	521	0.635065723210573	2	1	NaN	2680669.6971564	NaN	2680670.6805596	2680671.19711078
56	19	0	0	90	36.1581920903955	36.241610738255	19	0.633380200061947	2	10	2	NaN	2	4	0.0251211088865766	1	1	NaN	108	2	45	1	121	221	321	NaN	521	0.476805118378252	2	1	NaN	2680672.6473279	NaN	2680673.6308505	2680674.14739598
56	19	0	0	90	36.1581920903955	36.241610738255	19	0.633380200061947	2	8	1	NaN	2	3	0.0251211088865766	1	1	NaN	109	2	46	1	121	221	321	NaN	521	0.437237123027444	2	1	NaN	2680675.4310583	NaN	2680676.4144559	2680676.93100728
56	19	0	0	90	36.1581920903955	36.241610738255	0	0	1	10	5	NaN	2	5	0.0251211088865766	1	1	NaN	110	2	47	1	111	211	311	NaN	511	0.574904375243932	2	1	NaN	2680678.1813426	NaN	2680679.1647248	2680679.68128362
56	19	0	0	90	36.1581920903955	36.241610738255	16	0.533372800052166	2	7	3	NaN	2	3	0.0251211088865766	1	1	NaN	111	2	48	1	121	221	321	NaN	521	0.763632718008012	1	0	NaN	2680681.0648806	NaN	2680682.0483433	2680682.56489438
56	19	0	0	90	36.1581920903955	36.241610738255	13	0.433365400042385	2	7	6	NaN	2	5	0.0251211088865766	1	1	NaN	112	2	49	1	121	221	321	NaN	521	0.936114970594645	1	0	NaN	2680684.148597	NaN	2680685.1319756	2680685.64853133
56	19	0	0	90	36.1581920903955	36.241610738255	12	0.400029600039125	2	8	2	NaN	2	3	0.0251211088865766	1	1	NaN	113	2	50	1	121	221	321	NaN	521	0.661754723172635	2	1	NaN	2680687.3989082	NaN	2680688.3822991	2680688.89885208
56	19	0	0	90	36.1581920903955	36.241610738255	8	0.266686400026083	2	9	6	NaN	2	5	0.0251211088865766	1	1	NaN	114	2	51	1	121	221	321	NaN	521	0.837777342647314	2	1	NaN	2680690.3825617	NaN	2680691.365917	2680691.88247416
56	19	0	0	90	36.1581920903955	36.241610738255	11	0.366693800035864	2	11	3	NaN	2	5	0.0251211088865766	1	1	NaN	115	2	52	1	121	221	321	NaN	521	0.543667070101947	2	1	NaN	2680693.5328219	NaN	2680694.5162263	2680695.03278753
56	19	0	0	90	36.1581920903955	36.241610738255	12	0.400029600039125	2	6	4	NaN	1	3	0.0251211088865766	1	1	NaN	116	2	53	1	121	221	321	NaN	521	0.477571223396808	2	0	NaN	2680696.3829903	NaN	2680697.3665108	2680697.88306888
56	19	0	0	90	36.1581920903955	36.241610738255	24	0.800059200078249	2	6	6	NaN	1	4	0.0251211088865766	1	1	NaN	117	2	54	1	121	221	321	NaN	521	0.389987622853369	2	0	NaN	2680699.1667153	NaN	2680700.1501092	2680700.66666768
56	19	0	0	90	36.1581920903955	36.241610738255	23	0.766723400074989	2	4	4	NaN	1	3	0.0251211088865766	1	1	NaN	118	2	55	1	121	221	321	NaN	521	0.361722575500607	1	1	NaN	2680701.8669756	NaN	2680702.8503791	2680703.36693282
56	19	0	0	90	36.1581920903955	36.241610738255	24	0.800059200078249	2	10	6	NaN	2	4	0.0251211088865766	1	1	NaN	119	2	56	1	121	221	321	NaN	521	0.597798518370837	1	0	NaN	2680704.5505881	NaN	2680705.5340094	2680706.05053258
56	19	0	0	90	36.1581920903955	36.241610738255	11	0.366693800035864	2	11	6	NaN	2	3	0.0251211088865766	1	1	NaN	120	2	57	1	121	221	321	NaN	521	1.00886772293597	1	0	NaN	2680707.4675346	NaN	2680708.450928	2680708.96748888
56	19	0	0	90	36.1581920903955	36.241610738255	13	0.433365400042385	2	11	1	NaN	2	4	0.0251211088865766	1	1	NaN	121	2	58	1	121	221	321	NaN	521	0.703526022844017	1	0	NaN	2680710.9011388	NaN	2680711.8845937	2680712.40115168
56	19	0	0	90	36.1581920903955	36.241610738255	0	0	1	11	5	NaN	2	4	0.0251211088865766	1	1	NaN	122	2	59	1	111	211	311	NaN	511	0.518219622783363	2	1	NaN	2680713.9181858	NaN	2680714.9015618	2680715.41812178
56	19	0	0	90	36.1581920903955	36.241610738255	20	0.666716000065207	2	4	1	NaN	1	3	0.0251211088865766	1	1	NaN	123	2	60	1	121	221	321	NaN	521	0.60472061811015	1	1	NaN	2680716.7517908	NaN	2680717.7351799	2680718.25173428
56	19	0	0	90	36.1581920903955	36.241610738255	11	0.366693800035864	2	10	3	NaN	2	4	0.0251211088865766	1	1	NaN	124	2	61	1	121	221	321	NaN	521	0.648027170449495	2	1	NaN	2680719.6687307	NaN	2680720.6521339	2680721.16867803
56	19	0	0	90	36.1581920903955	36.241610738255	15	0.500037000048906	2	5	3	NaN	1	5	0.0251211088865766	1	1	NaN	125	2	62	1	121	221	321	NaN	521	0.364613770507276	1	1	NaN	2680722.935718	NaN	2680723.9191351	2680724.43567373
56	19	0	0	90	36.1581920903955	36.241610738255	14	0.466701200045645	2	5	2	NaN	1	3	0.0251211088865766	1	1	NaN	126	2	63	1	121	221	321	NaN	521	0.353879475500435	1	1	NaN	2680725.602607	NaN	2680726.5860428	2680727.10260572
56	19	0	0	90	36.1581920903955	36.241610738255	13	0.433365400042385	2	1	2	NaN	1	4	0.0251211088865766	1	1	NaN	127	3	1	1	121	221	321	NaN	521	0.240075623150915	1	1	NaN	2680732.2365997	NaN	2680733.2200381	2680733.73658948
56	19	0	0	90	36.1581920903955	36.241610738255	23	0.766723400074989	2	3	5	NaN	1	4	0.0251211088865766	1	1	NaN	128	3	2	1	121	221	321	NaN	521	0.409902975428849	1	1	NaN	2680734.7868642	NaN	2680735.7702774	2680736.28683622
56	19	0	0	90	36.1581920903955	36.241610738255	9	0.300022200029343	2	7	4	NaN	2	4	0.0251211088865766	1	1	NaN	129	3	3	1	121	221	321	NaN	521	1.10853992309421	1	0	NaN	2680737.5038374	NaN	2680738.4872262	2680739.00377008
56	19	0	0	90	36.1581920903955	36.241610738255	8	0.266686400026083	2	10	4	NaN	2	4	0.0251211088865766	1	1	NaN	130	3	4	1	121	221	321	NaN	521	0.483813270460814	1	0	NaN	2680740.9206906	NaN	2680741.9042102	2680742.42077163
56	19	0	0	90	36.1581920903955	36.241610738255	9	0.300022200029343	2	4	3	NaN	1	5	0.0251211088865766	1	1	NaN	131	3	5	1	121	221	321	NaN	521	0.40987262269482	2	0	NaN	2680743.9544614	NaN	2680744.937854	2680745.45440138
56	19	0	0	90	36.1581920903955	36.241610738255	18	0.600044400058687	2	2	5	NaN	1	5	0.0251211088865766	1	1	NaN	132	3	6	1	121	221	321	NaN	521	0.821490470319986	2	0	NaN	2680746.6712569	NaN	2680747.6546793	2680748.17132873
56	19	0	0	90	36.1581920903955	36.241610738255	6	0.200014800019562	2	8	5	NaN	2	3	0.0251211088865766	1	1	NaN	133	3	7	1	121	221	321	NaN	521	1.32743172300979	1	0	NaN	2680749.8050512	NaN	2680750.7884017	2680751.30498298
56	19	0	0	90	36.1581920903955	36.241610738255	16	0.533372800052166	2	1	2	NaN	1	5	0.0251211088865766	1	1	NaN	134	3	8	1	121	221	321	NaN	521	0.837128070183098	1	1	NaN	2680753.4553899	NaN	2680754.4387721	2680754.95533653
56	19	0	0	90	36.1581920903955	36.241610738255	16	0.533372800052166	2	12	4	NaN	2	4	0.0251211088865766	1	1	NaN	135	3	9	1	121	221	321	NaN	521	0.495157170109451	2	1	NaN	2680756.6056408	NaN	2680757.5890785	2680758.10564093
56	19	0	0	90	36.1581920903955	36.241610738255	6	0.200014800019562	2	1	1	NaN	1	5	0.0251211088865766	1	1	NaN	136	3	10	1	121	221	321	NaN	521	0.758124370593578	1	1	NaN	2680759.4226363	NaN	2680760.406034	2680760.92258343
56	19	0	0	90	36.1581920903955	36.241610738255	14	0.466701200045645	2	2	5	NaN	1	3	0.0251211088865766	1	1	NaN	137	3	11	1	121	221	321	NaN	521	0.89930512290448	1	1	NaN	2680762.4895933	NaN	2680763.4730277	2680763.98955688
56	19	0	0	90	36.1581920903955	36.241610738255	19	0.633380200061947	2	11	5	NaN	2	4	0.0251211088865766	1	1	NaN	138	3	12	1	121	221	321	NaN	521	0.735076689627022	1	0	NaN	2680765.7732814	NaN	2680766.7566379	2680767.27321411
56	19	0	0	90	36.1581920903955	36.241610738255	7	0.233350600022823	2	11	5	NaN	2	5	0.0251211088865766	1	1	NaN	139	3	13	1	121	221	321	NaN	521	0.765841123182327	2	1	NaN	2680768.8234238	NaN	2680769.8069695	2680770.32352668
56	19	0	0	90	36.1581920903955	36.241610738255	17	0.566708600055426	2	6	2	NaN	1	3	0.0251211088865766	1	1	NaN	140	3	14	1	121	221	321	NaN	521	0.665493823122233	2	0	NaN	2680771.9071963	NaN	2680772.8906414	2680773.40714948
56	19	0	0	90	36.1581920903955	36.241610738255	17	0.566708600055426	2	8	2	NaN	2	4	0.0251211088865766	1	1	NaN	141	3	15	1	121	221	321	NaN	521	0.657669323030859	1	0	NaN	2680774.8908453	NaN	2680775.8742182	2680776.39077978
56	19	0	0	90	36.1581920903955	36.241610738255	14	0.466701200045645	2	11	6	NaN	2	5	0.0251211088865766	1	1	NaN	142	3	16	1	121	221	321	NaN	521	0.706679770722985	1	0	NaN	2680777.8577775	NaN	2680778.8411817	2680779.35772703
56	19	0	0	90	36.1581920903955	36.241610738255	23	0.766723400074989	2	3	3	NaN	1	3	0.0251211088865766	1	1	NaN	143	3	17	1	121	221	321	NaN	521	0.521684823092073	2	0	NaN	2680780.8747574	NaN	2680781.8581458	2680782.37469838
56	19	0	0	90	36.1581920903955	36.241610738255	19	0.633380200061947	2	7	2	NaN	2	5	0.0251211088865766	1	1	NaN	144	3	18	1	121	221	321	NaN	521	0.520304723177105	2	1	NaN	2680783.7083545	NaN	2680784.6917504	2680785.20830838
56	19	0	0	90	36.1581920903955	36.241610738255	10	0.333358000032604	2	7	6	NaN	2	3	0.0251211088865766	1	1	NaN	145	3	19	1	121	221	321	NaN	521	0.550490823108703	2	1	NaN	2680786.5419798	NaN	2680787.5253637	2680788.04191748
56	19	0	0	90	36.1581920903955	36.241610738255	19	0.633380200061947	2	11	6	NaN	2	5	0.0251211088865766	1	1	NaN	146	3	20	1	121	221	321	NaN	521	0.803590308409184	2	1	NaN	2680789.4089092	NaN	2680790.3923104	2680790.90886369
56	19	0	0	90	36.1581920903955	36.241610738255	0	0	1	8	4	NaN	2	4	0.0251211088865766	1	1	NaN	147	3	21	1	111	211	311	NaN	511	0.246691923122853	2	1	NaN	2680792.5259184	NaN	2680793.5092834	2680794.02583788
56	19	0	0	90	36.1581920903955	36.241610738255	25	0.833395000081509	2	10	4	NaN	2	5	0.0251211088865766	1	1	NaN	148	3	22	1	121	221	321	NaN	521	0.319225623272359	1	0	NaN	2680795.3095586	NaN	2680796.292878	2680796.80944138
56	19	0	0	90	36.1581920903955	36.241610738255	7	0.233350600022823	2	2	6	NaN	1	3	0.0251211088865766	1	1	NaN	149	3	23	1	121	221	321	NaN	521	0.55382189527154	2	0	NaN	2680798.2430096	NaN	2680799.2265152	2680799.743077
56	19	0	0	90	36.1581920903955	36.241610738255	20	0.666716000065207	2	5	1	NaN	1	5	0.0251211088865766	1	1	NaN	150	3	24	1	121	221	321	NaN	521	0.414572770241648	2	0	NaN	2680801.1101266	NaN	2680802.0934467	2680802.61001483
56	19	0	0	90	36.1581920903955	36.241610738255	11	0.366693800035864	2	5	6	NaN	1	4	0.0251211088865766	1	1	NaN	151	3	25	1	121	221	321	NaN	521	0.393752523232251	1	1	NaN	2680803.8270174	NaN	2680804.8103894	2680805.32695318
56	19	0	0	90	36.1581920903955	36.241610738255	24	0.800059200078249	2	12	5	NaN	2	4	0.0251211088865766	1	1	NaN	152	3	26	1	121	221	321	NaN	521	0.548779018223286	2	1	NaN	2680806.5439377	NaN	2680807.5273298	2680808.04387588
56	19	0	0	90	36.1581920903955	36.241610738255	13	0.433365400042385	2	8	6	NaN	2	3	0.0251211088865766	1	1	NaN	153	3	27	1	121	221	321	NaN	521	0.441518570296466	2	1	NaN	2680809.8108794	NaN	2680810.7943132	2680811.31086693
56	19	0	0	90	36.1581920903955	36.241610738255	10	0.333358000032604	2	11	1	NaN	2	3	0.0251211088865766	1	1	NaN	154	3	28	1	121	221	321	NaN	521	0.675660470500588	1	0	NaN	2680812.5610627	NaN	2680813.5445727	2680814.06114053
56	19	0	0	90	36.1581920903955	36.241610738255	23	0.766723400074989	2	5	3	NaN	1	4	0.0251211088865766	1	1	NaN	155	3	29	1	121	221	321	NaN	521	0.49449062300846	1	1	NaN	2680815.8781688	NaN	2680816.8615758	2680817.37814468
56	19	0	0	90	36.1581920903955	36.241610738255	13	0.433365400042385	2	12	2	NaN	2	3	0.0251211088865766	1	1	NaN	156	3	30	1	121	221	321	NaN	521	0.582367223221809	2	1	NaN	2680818.6783685	NaN	2680819.6618521	2680820.17840788
56	19	0	0	90	36.1581920903955	36.241610738255	8	0.266686400026083	2	7	2	NaN	2	5	0.0251211088865766	1	1	NaN	157	3	31	1	121	221	321	NaN	521	0.546026422642171	2	1	NaN	2680821.5787308	NaN	2680822.56214	2680823.07868648
56	19	0	0	90	36.1581920903955	36.241610738255	21	0.700051800068468	2	7	4	NaN	2	5	0.0251211088865766	1	1	NaN	158	3	32	1	121	221	321	NaN	521	0.646861860528588	2	1	NaN	2680824.4456869	NaN	2680825.4290807	2680825.94563064
56	19	0	0	90	36.1581920903955	36.241610738255	23	0.766723400074989	2	8	1	NaN	2	4	0.0251211088865766	1	1	NaN	159	3	33	1	121	221	321	NaN	521	0.488064123317599	2	1	NaN	2680827.4126532	NaN	2680828.3960511	2680828.91259858
56	19	0	0	90	36.1581920903955	36.241610738255	8	0.266686400026083	2	8	2	NaN	2	4	0.0251211088865766	1	1	NaN	160	3	34	1	121	221	321	NaN	521	0.527795223519206	2	1	NaN	2680830.2128088	NaN	2680831.1963255	2680831.71287838
56	19	0	0	90	36.1581920903955	36.241610738255	21	0.700051800068468	2	6	3	NaN	1	3	0.0251211088865766	1	1	NaN	161	3	35	1	121	221	321	NaN	521	0.629942522849888	1	1	NaN	2680833.0465763	NaN	2680834.0299149	2680834.54648588
56	19	0	0	90	36.1581920903955	36.241610738255	23	0.766723400074989	2	9	6	NaN	2	4	0.0251211088865766	1	1	NaN	162	3	36	1	121	221	321	NaN	521	0.888032670598477	1	0	NaN	2680835.9968586	NaN	2680836.9802149	2680837.49676923
56	19	0	0	90	36.1581920903955	36.241610738255	14	0.466701200045645	2	10	3	NaN	2	4	0.0251211088865766	1	1	NaN	163	3	37	1	121	221	321	NaN	521	0.471489270683378	2	1	NaN	2680839.1970083	NaN	2680840.1805277	2680840.69708613
56	19	0	0	90	36.1581920903955	36.241610738255	11	0.366693800035864	2	1	3	NaN	1	4	0.0251211088865766	1	1	NaN	164	3	38	1	121	221	321	NaN	521	0.616164418403059	1	1	NaN	2680841.9807421	NaN	2680842.9641296	2680843.48068708
56	19	0	0	90	36.1581920903955	36.241610738255	14	0.466701200045645	2	9	1	NaN	2	5	0.0251211088865766	1	1	NaN	165	3	39	1	121	221	321	NaN	521	0.906423770356923	2	1	NaN	2680844.9143612	NaN	2680845.8977572	2680846.41432823
56	19	0	0	90	36.1581920903955	36.241610738255	16	0.533372800052166	2	12	4	NaN	2	3	0.0251211088865766	1	1	NaN	166	3	40	1	121	221	321	NaN	521	0.609424395486712	1	0	NaN	2680848.1313806	NaN	2680849.1147396	2680849.6313043
56	19	0	0	90	36.1581920903955	36.241610738255	25	0.833395000081509	2	6	6	NaN	1	3	0.0251211088865766	1	1	NaN	167	3	41	1	121	221	321	NaN	521	0.363926922902465	1	1	NaN	2680851.0649802	NaN	2680852.0483668	2680852.56492248
56	19	0	0	90	36.1581920903955	36.241610738255	7	0.233350600022823	2	5	1	NaN	1	5	0.0251211088865766	1	1	NaN	168	3	42	1	121	221	321	NaN	521	0.464569823350757	1	1	NaN	2680853.7318995	NaN	2680854.7153033	2680855.23185118
56	19	0	0	90	36.1581920903955	36.241610738255	24	0.800059200078249	2	8	2	NaN	2	3	0.0251211088865766	1	1	NaN	169	3	43	1	121	221	321	NaN	521	0.473371242638677	2	1	NaN	2680856.5155317	NaN	2680857.498887	2680858.01546106
56	19	0	0	90	36.1581920903955	36.241610738255	18	0.600044400058687	2	2	2	NaN	1	5	0.0251211088865766	1	1	NaN	170	3	44	1	121	221	321	NaN	521	0.305492270272225	1	1	NaN	2680859.2989816	NaN	2680860.2824994	2680860.79906463
56	19	0	0	90	36.1581920903955	36.241610738255	16	0.533372800052166	2	9	5	NaN	2	4	0.0251211088865766	1	1	NaN	171	3	45	1	121	221	321	NaN	521	0.512734923046082	2	1	NaN	2680861.9160539	NaN	2680862.8994304	2680863.41598808
56	19	0	0	90	36.1581920903955	36.241610738255	16	0.533372800052166	2	1	1	NaN	1	3	0.0251211088865766	1	1	NaN	172	3	46	1	121	221	321	NaN	521	0.503966870252043	1	1	NaN	2680864.7329991	NaN	2680865.7163721	2680866.23292433
56	19	0	0	90	36.1581920903955	36.241610738255	11	0.366693800035864	2	4	4	NaN	1	5	0.0251211088865766	1	1	NaN	173	3	47	1	121	221	321	NaN	521	0.534806723240763	1	1	NaN	2680867.5499051	NaN	2680868.5333211	2680869.04987558
56	19	0	0	90	36.1581920903955	36.241610738255	11	0.366693800035864	2	6	5	NaN	1	3	0.0251211088865766	1	1	NaN	174	3	48	1	121	221	321	NaN	521	0.539347290061414	1	1	NaN	2680870.8335451	NaN	2680871.816972	2680872.33353191
56	19	0	0	90	36.1581920903955	36.241610738255	10	0.333358000032604	2	12	2	NaN	2	3	0.0251211088865766	1	1	NaN	175	3	49	1	121	221	321	NaN	521	0.36071159504354	2	1	NaN	2680873.6838684	NaN	2680874.6672552	2680875.1838116
56	19	0	0	90	36.1581920903955	36.241610738255	0	0	1	10	5	NaN	2	3	0.0251211088865766	1	1	NaN	176	3	50	1	111	211	311	NaN	511	0.582163570448756	2	1	NaN	2680876.3507276	NaN	2680877.334179	2680877.85073103
56	19	0	0	90	36.1581920903955	36.241610738255	11	0.366693800035864	2	3	3	NaN	1	4	0.0251211088865766	1	1	NaN	177	3	51	1	121	221	321	NaN	521	0.50555671332404	1	1	NaN	2680879.251095	NaN	2680880.234468	2680880.75101209
56	19	0	0	90	36.1581920903955	36.241610738255	9	0.300022200029343	2	7	1	NaN	2	3	0.0251211088865766	1	1	NaN	178	3	52	1	121	221	321	NaN	521	0.560947618447244	1	0	NaN	2680882.0680205	NaN	2680883.0514087	2680883.56796198
56	19	0	0	90	36.1581920903955	36.241610738255	21	0.700051800068468	2	4	5	NaN	1	4	0.0251211088865766	1	1	NaN	179	3	53	1	121	221	321	NaN	521	0.509612542577088	2	0	NaN	2680884.9348226	NaN	2680885.9183554	2680886.43491126
56	19	0	0	90	36.1581920903955	36.241610738255	22	0.733387600071728	2	10	1	NaN	2	3	0.0251211088865766	1	1	NaN	180	3	54	1	121	221	321	NaN	521	0.525096722878516	2	1	NaN	2680887.7518988	NaN	2680888.7353096	2680889.25186138
56	19	0	0	90	36.1581920903955	36.241610738255	22	0.733387600071728	2	5	6	NaN	1	4	0.0251211088865766	1	1	NaN	181	3	55	1	121	221	321	NaN	521	0.706938922870904	2	0	NaN	2680890.5855324	NaN	2680891.5690113	2680892.08546168
56	19	0	0	90	36.1581920903955	36.241610738255	23	0.766723400074989	2	11	2	NaN	2	4	0.0251211088865766	1	1	NaN	182	3	56	1	121	221	321	NaN	521	0.546197422780097	2	1	NaN	2680893.6024766	NaN	2680894.5859085	2680895.10242668
56	19	0	0	90	36.1581920903955	36.241610738255	7	0.233350600022823	2	5	2	NaN	1	5	0.0251211088865766	1	1	NaN	183	3	57	1	121	221	321	NaN	521	0.552085223142058	1	1	NaN	2680896.4527724	NaN	2680897.4361556	2680897.95270958
56	19	0	0	90	36.1581920903955	36.241610738255	11	0.366693800035864	2	9	1	NaN	2	5	0.0251211088865766	1	1	NaN	184	3	58	1	121	221	321	NaN	521	0.412957623135298	1	0	NaN	2680899.3197062	NaN	2680900.3030011	2680900.81965768
56	19	0	0	90	36.1581920903955	36.241610738255	25	0.833395000081509	2	9	4	NaN	2	3	0.0251211088865766	1	1	NaN	185	3	59	1	121	221	321	NaN	521	0.640326423104852	2	1	NaN	2680902.036652	NaN	2680903.0200388	2680903.53659718
56	19	0	0	90	36.1581920903955	36.241610738255	25	0.833395000081509	2	8	5	NaN	2	3	0.0251211088865766	1	1	NaN	186	3	60	1	121	221	321	NaN	521	0.866191575303674	2	1	NaN	2680904.9869292	NaN	2680905.9703262	2680906.48688662
56	19	0	0	90	36.1581920903955	36.241610738255	13	0.433365400042385	2	9	6	NaN	2	5	0.0251211088865766	1	1	NaN	187	3	61	1	121	221	321	NaN	521	0.802564922720194	1	0	NaN	2680908.170596	NaN	2680909.1539761	2680909.67053008
56	19	0	0	90	36.1581920903955	36.241610738255	20	0.666716000065207	2	3	3	NaN	1	3	0.0251211088865766	1	1	NaN	188	3	62	1	121	221	321	NaN	521	0.613311123102903	1	1	NaN	2680911.2875634	NaN	2680912.2709697	2680912.78749478
56	19	0	0	90	36.1581920903955	36.241610738255	22	0.733387600071728	2	11	3	NaN	2	3	0.0251211088865766	1	1	NaN	189	3	63	1	121	221	321	NaN	521	0.679334342945367	1	0	NaN	2680914.221186	NaN	2680915.2044673	2680915.72112006
56	19	0	0	90	36.1581920903955	36.241610738255	8	0.266686400026083	2	7	3	NaN	2	3	0.0251211088865766	1	1	NaN	190	4	1	1	121	221	321	NaN	521	0.0381251708604395	1	0	NaN	2680928.8225453	NaN	2680929.806027	2680930.32254713
56	19	0	0	90	36.1581920903955	36.241610738255	23	0.766723400074989	2	8	6	NaN	2	4	0.0251211088865766	1	1	NaN	191	4	2	1	121	221	321	NaN	521	0.344294770620763	2	1	NaN	2680931.1728321	NaN	2680932.1562293	2680932.67277933
56	19	0	0	90	36.1581920903955	36.241610738255	9	0.300022200029343	2	9	3	NaN	2	3	0.0251211088865766	1	1	NaN	192	4	3	1	121	221	321	NaN	521	0.349639023188502	1	0	NaN	2680933.822974	NaN	2680934.806494	2680935.32304068
56	19	0	0	90	36.1581920903955	36.241610738255	9	0.300022200029343	2	2	4	NaN	1	5	0.0251211088865766	1	1	NaN	193	4	4	1	121	221	321	NaN	521	0.451805923134089	1	1	NaN	2680936.4733689	NaN	2680937.4567385	2680937.97330428
56	19	0	0	90	36.1581920903955	36.241610738255	12	0.400029600039125	2	12	3	NaN	2	5	0.0251211088865766	1	1	NaN	194	4	5	1	121	221	321	NaN	521	0.596560623496771	2	1	NaN	2680939.2403053	NaN	2680940.2236901	2680940.74024418
56	19	0	0	90	36.1581920903955	36.241610738255	18	0.600044400058687	2	3	6	NaN	1	4	0.0251211088865766	1	1	NaN	195	4	6	1	121	221	321	NaN	521	0.375604575034231	2	0	NaN	2680942.1572506	NaN	2680943.1406421	2680943.65719512
56	19	0	0	90	36.1581920903955	36.241610738255	14	0.466701200045645	2	5	6	NaN	1	3	0.0251211088865766	1	1	NaN	196	4	7	1	121	221	321	NaN	521	0.436292123049498	1	1	NaN	2680944.8406999	NaN	2680945.824214	2680946.34079688
56	19	0	0	90	36.1581920903955	36.241610738255	18	0.600044400058687	2	5	4	NaN	1	4	0.0251211088865766	1	1	NaN	197	4	8	1	121	221	321	NaN	521	0.653943570330739	1	1	NaN	2680947.5911126	NaN	2680948.5745777	2680949.09105793
56	19	0	0	90	36.1581920903955	36.241610738255	6	0.200014800019562	2	10	1	NaN	2	4	0.0251211088865766	1	1	NaN	198	4	9	1	121	221	321	NaN	521	0.48666912317276	2	1	NaN	2680950.5580814	NaN	2680951.5415159	2680952.05802208
56	19	0	0	90	36.1581920903955	36.241610738255	23	0.766723400074989	2	4	1	NaN	1	5	0.0251211088865766	1	1	NaN	199	4	10	1	121	221	321	NaN	521	0.55846617044881	2	0	NaN	2680953.3583414	NaN	2680954.3417893	2680954.85830033
56	19	0	0	90	36.1581920903955	36.241610738255	21	0.700051800068468	2	5	4	NaN	1	5	0.0251211088865766	1	1	NaN	200	4	11	1	121	221	321	NaN	521	0.475816622842103	1	1	NaN	2680956.2252956	NaN	2680957.2086669	2680957.72524738
56	19	0	0	90	36.1581920903955	36.241610738255	7	0.233350600022823	2	3	3	NaN	1	3	0.0251211088865766	1	1	NaN	201	4	12	1	121	221	321	NaN	521	0.556214318145066	1	1	NaN	2680959.0089068	NaN	2680959.9923016	2680960.50884528
56	19	0	0	90	36.1581920903955	36.241610738255	23	0.766723400074989	2	10	6	NaN	2	3	0.0251211088865766	1	1	NaN	202	4	13	1	121	221	321	NaN	521	0.696823022793978	1	0	NaN	2680961.8758338	NaN	2680962.8592723	2680963.37580148
56	19	0	0	90	36.1581920903955	36.241610738255	6	0.200014800019562	2	12	5	NaN	2	4	0.0251211088865766	1	1	NaN	203	4	14	1	121	221	321	NaN	521	0.543913470581174	1	0	NaN	2680964.8928115	NaN	2680965.8762059	2680966.39275953
56	19	0	0	90	36.1581920903955	36.241610738255	11	0.366693800035864	2	2	1	NaN	1	5	0.0251211088865766	1	1	NaN	204	4	15	1	121	221	321	NaN	521	0.797985323239118	1	1	NaN	2680967.7431167	NaN	2680968.7264796	2680969.24304318
56	19	0	0	90	36.1581920903955	36.241610738255	6	0.200014800019562	2	12	2	NaN	2	3	0.0251211088865766	1	1	NaN	205	4	16	1	121	221	321	NaN	521	0.488653070293367	2	1	NaN	2680970.8600607	NaN	2680971.8434609	2680972.36001473
56	19	0	0	90	36.1581920903955	36.241610738255	14	0.466701200045645	2	3	4	NaN	1	5	0.0251211088865766	1	1	NaN	206	4	17	1	121	221	321	NaN	521	0.552771870512515	1	1	NaN	2680973.6603447	NaN	2680974.6437306	2680975.16028333
56	19	0	0	90	36.1581920903955	36.241610738255	24	0.800059200078249	2	5	2	NaN	1	5	0.0251211088865766	1	1	NaN	207	4	18	1	121	221	321	NaN	521	0.597779823001474	2	0	NaN	2680976.5272878	NaN	2680977.5106744	2680978.02723338
56	19	0	0	90	36.1581920903955	36.241610738255	9	0.300022200029343	2	12	5	NaN	2	5	0.0251211088865766	1	1	NaN	208	4	19	1	121	221	321	NaN	521	0.528913322836161	1	0	NaN	2680979.4442339	NaN	2680980.4276765	2680980.94419098
56	19	0	0	90	36.1581920903955	36.241610738255	8	0.266686400026083	2	3	6	NaN	1	5	0.0251211088865766	1	1	NaN	209	4	20	1	121	221	321	NaN	521	0.782271642703563	1	1	NaN	2680982.2945613	NaN	2680983.2779038	2680983.79447396
56	19	0	0	90	36.1581920903955	36.241610738255	6	0.200014800019562	2	5	4	NaN	1	4	0.0251211088865766	1	1	NaN	210	4	21	1	121	221	321	NaN	521	0.602027922868729	1	1	NaN	2680985.3947143	NaN	2680986.378244	2680986.89477728
56	19	0	0	90	36.1581920903955	36.241610738255	13	0.433365400042385	2	5	5	NaN	1	4	0.0251211088865766	1	1	NaN	211	4	22	1	121	221	321	NaN	521	0.628932670690119	1	1	NaN	2680988.311652	NaN	2680989.2951639	2680989.81172003
56	19	0	0	90	36.1581920903955	36.241610738255	18	0.600044400058687	2	8	3	NaN	2	3	0.0251211088865766	1	1	NaN	212	4	23	1	121	221	321	NaN	521	1.28707447042689	1	0	NaN	2680991.2620872	NaN	2680992.2454636	2680992.76201963
56	19	0	0	90	36.1581920903955	36.241610738255	19	0.633380200061947	2	10	2	NaN	2	5	0.0251211088865766	1	1	NaN	213	4	24	1	121	221	321	NaN	521	0.790713870432228	2	1	NaN	2680994.8624229	NaN	2680995.8458072	2680996.36236633
56	19	0	0	90	36.1581920903955	36.241610738255	21	0.700051800068468	2	1	4	NaN	1	3	0.0251211088865766	1	1	NaN	214	4	25	1	121	221	321	NaN	521	0.826212323270738	1	1	NaN	2680997.9627328	NaN	2680998.946121	2680999.46267828
56	19	0	0	90	36.1581920903955	36.241610738255	12	0.400029600039125	2	7	3	NaN	2	5	0.0251211088865766	1	1	NaN	215	4	26	1	121	221	321	NaN	521	0.516078623011708	2	1	NaN	2681001.1130349	NaN	2681002.0964216	2681002.61298628
56	19	0	0	90	36.1581920903955	36.241610738255	8	0.266686400026083	2	4	4	NaN	1	3	0.0251211088865766	1	1	NaN	216	4	27	1	121	221	321	NaN	521	0.650176523253322	1	1	NaN	2681003.9466675	NaN	2681004.9300439	2681005.44659818
56	19	0	0	90	36.1581920903955	36.241610738255	12	0.400029600039125	2	4	6	NaN	1	4	0.0251211088865766	1	1	NaN	217	4	28	1	121	221	321	NaN	521	0.72353297052905	1	1	NaN	2681006.9136183	NaN	2681007.8970366	2681008.41355153
56	19	0	0	90	36.1581920903955	36.241610738255	12	0.400029600039125	2	9	4	NaN	2	4	0.0251211088865766	1	1	NaN	218	4	29	1	121	221	321	NaN	521	0.513669823296368	1	0	NaN	2681009.9472445	NaN	2681010.9306072	2681011.44718748
56	19	0	0	90	36.1581920903955	36.241610738255	11	0.366693800035864	2	2	6	NaN	1	4	0.0251211088865766	1	1	NaN	219	4	30	1	121	221	321	NaN	521	0.75226482283324	1	1	NaN	2681012.7808354	NaN	2681013.7642327	2681014.28080088
56	19	0	0	90	36.1581920903955	36.241610738255	24	0.800059200078249	2	9	5	NaN	2	4	0.0251211088865766	1	1	NaN	220	4	31	1	121	221	321	NaN	521	0.660893770866096	1	0	NaN	2681015.8478061	NaN	2681016.831203	2681017.34775663
56	19	0	0	90	36.1581920903955	36.241610738255	21	0.700051800068468	2	12	3	NaN	2	4	0.0251211088865766	1	1	NaN	221	4	32	1	121	221	321	NaN	521	0.573549774941057	2	1	NaN	2681018.8313066	NaN	2681019.8148362	2681020.33138622
56	19	0	0	90	36.1581920903955	36.241610738255	21	0.700051800068468	2	1	1	NaN	1	5	0.0251211088865766	1	1	NaN	222	4	33	1	121	221	321	NaN	521	0.498114123009145	1	1	NaN	2681021.7150664	NaN	2681022.698455	2681023.21500828
56	19	0	0	90	36.1581920903955	36.241610738255	24	0.800059200078249	2	9	1	NaN	2	4	0.0251211088865766	1	1	NaN	223	4	34	1	121	221	321	NaN	521	0.624728823080659	1	0	NaN	2681024.5320016	NaN	2681025.5153851	2681026.03194828
56	19	0	0	90	36.1581920903955	36.241610738255	7	0.233350600022823	2	12	3	NaN	2	5	0.0251211088865766	1	1	NaN	224	4	35	1	121	221	321	NaN	521	0.531356570776552	1	0	NaN	2681027.4656362	NaN	2681028.4490156	2681028.96556883
56	19	0	0	90	36.1581920903955	36.241610738255	17	0.566708600055426	2	11	6	NaN	2	3	0.0251211088865766	1	1	NaN	225	4	36	1	121	221	321	NaN	521	0.69759487034753	1	0	NaN	2681030.2992307	NaN	2681031.2826375	2681031.79918363
56	19	0	0	90	36.1581920903955	36.241610738255	11	0.366693800035864	2	4	5	NaN	1	4	0.0251211088865766	1	1	NaN	226	4	37	1	121	221	321	NaN	521	0.681418722961098	2	0	NaN	2681033.2995261	NaN	2681034.2829218	2681034.79948068
56	19	0	0	90	36.1581920903955	36.241610738255	8	0.266686400026083	2	2	3	NaN	1	3	0.0251211088865766	1	1	NaN	227	4	38	1	121	221	321	NaN	521	0.457337537780404	1	1	NaN	2681036.2998186	NaN	2681037.2832294	2681037.79977146
56	19	0	0	90	36.1581920903955	36.241610738255	6	0.200014800019562	2	5	3	NaN	1	3	0.0251211088865766	1	1	NaN	228	4	39	1	121	221	321	NaN	521	0.58618707023561	1	1	NaN	2681039.0667699	NaN	2681040.0501577	2681040.56671193
56	19	0	0	90	36.1581920903955	36.241610738255	10	0.333358000032604	2	8	4	NaN	2	3	0.0251211088865766	1	1	NaN	229	4	40	1	121	221	321	NaN	521	0.502087722998112	1	0	NaN	2681041.9670416	NaN	2681042.9504398	2681043.46699278
56	19	0	0	90	36.1581920903955	36.241610738255	18	0.600044400058687	2	6	5	NaN	1	3	0.0251211088865766	1	1	NaN	230	4	41	1	121	221	321	NaN	521	0.58104932308197	1	1	NaN	2681044.7840094	NaN	2681045.7674113	2681046.28394168
56	19	0	0	90	36.1581920903955	36.241610738255	18	0.600044400058687	2	11	1	NaN	2	5	0.0251211088865766	1	1	NaN	231	4	42	1	121	221	321	NaN	521	0.456618923228234	1	0	NaN	2681047.6842881	NaN	2681048.667664	2681049.18421788
56	19	0	0	90	36.1581920903955	36.241610738255	18	0.600044400058687	2	6	1	NaN	1	3	0.0251211088865766	1	1	NaN	232	4	43	1	121	221	321	NaN	521	0.945675723254681	2	0	NaN	2681050.4510851	NaN	2681051.4346026	2681051.95116598
56	19	0	0	90	36.1581920903955	36.241610738255	22	0.733387600071728	2	2	5	NaN	1	4	0.0251211088865766	1	1	NaN	233	4	44	1	121	221	321	NaN	521	0.454714870080352	1	1	NaN	2681053.7182092	NaN	2681054.7015876	2681055.21814913
56	19	0	0	90	36.1581920903955	36.241610738255	17	0.566708600055426	2	4	4	NaN	1	5	0.0251211088865766	1	1	NaN	234	4	45	1	121	221	321	NaN	521	0.511749270372093	1	1	NaN	2681056.4851538	NaN	2681057.4685231	2681057.98508063
56	19	0	0	90	36.1581920903955	36.241610738255	24	0.800059200078249	2	4	4	NaN	1	4	0.0251211088865766	1	1	NaN	235	4	46	1	121	221	321	NaN	521	0.551970423199236	1	1	NaN	2681059.6687728	NaN	2681060.6521857	2681061.16873328
56	19	0	0	90	36.1581920903955	36.241610738255	10	0.333358000032604	2	7	6	NaN	2	3	0.0251211088865766	1	1	NaN	236	4	47	1	121	221	321	NaN	521	0.46107302326709	2	1	NaN	2681062.5357605	NaN	2681063.5191267	2681064.03567678
56	19	0	0	90	36.1581920903955	36.241610738255	25	0.833395000081509	2	4	3	NaN	1	5	0.0251211088865766	1	1	NaN	237	4	48	1	121	221	321	NaN	521	0.558629170525819	1	1	NaN	2681065.3026713	NaN	2681066.2860652	2681066.80261923
56	19	0	0	90	36.1581920903955	36.241610738255	23	0.766723400074989	2	2	3	NaN	1	4	0.0251211088865766	1	1	NaN	238	4	49	1	121	221	321	NaN	521	0.459421323146671	1	1	NaN	2681068.1696116	NaN	2681069.1530159	2681069.66956848
56	19	0	0	90	36.1581920903955	36.241610738255	7	0.233350600022823	2	6	5	NaN	1	5	0.0251211088865766	1	1	NaN	239	4	50	1	121	221	321	NaN	521	0.42870041821152	1	1	NaN	2681070.9365679	NaN	2681071.9199436	2681072.43651028
56	19	0	0	90	36.1581920903955	36.241610738255	15	0.500037000048906	2	6	2	NaN	1	3	0.0251211088865766	1	1	NaN	240	4	51	1	121	221	321	NaN	521	0.558495223056525	2	0	NaN	2681073.6868308	NaN	2681074.6702469	2681075.18678138
56	19	0	0	90	36.1581920903955	36.241610738255	21	0.700051800068468	2	4	5	NaN	1	3	0.0251211088865766	1	1	NaN	241	4	52	1	121	221	321	NaN	521	0.363517970312387	2	0	NaN	2681076.55377	NaN	2681077.5371605	2681078.05371533
56	19	0	0	90	36.1581920903955	36.241610738255	21	0.700051800068468	2	2	1	NaN	1	3	0.0251211088865766	1	1	NaN	242	4	53	1	121	221	321	NaN	521	0.231887175235897	1	1	NaN	2681079.2373913	NaN	2681080.2207956	2681080.73732012
56	19	0	0	90	36.1581920903955	36.241610738255	25	0.833395000081509	2	9	2	NaN	2	4	0.0251211088865766	1	1	NaN	243	4	54	1	121	221	321	NaN	521	0.385331222787499	1	0	NaN	2681082.1876263	NaN	2681083.1710475	2681083.68760408
56	19	0	0	90	36.1581920903955	36.241610738255	9	0.300022200029343	2	6	1	NaN	1	5	0.0251211088865766	1	1	NaN	244	4	55	1	121	221	321	NaN	521	0.517238923348486	1	1	NaN	2681084.8879514	NaN	2681085.8713255	2681086.38787498
56	19	0	0	90	36.1581920903955	36.241610738255	21	0.700051800068468	2	5	3	NaN	1	3	0.0251211088865766	1	1	NaN	245	4	56	1	121	221	321	NaN	521	0.483376970514655	1	1	NaN	2681087.7214198	NaN	2681088.7049316	2681089.22148433
56	19	0	0	90	36.1581920903955	36.241610738255	25	0.833395000081509	2	7	5	NaN	2	4	0.0251211088865766	1	1	NaN	246	4	57	1	121	221	321	NaN	521	0.882953795138747	1	0	NaN	2681090.5218265	NaN	2681091.505204	2681092.0217687
56	19	0	0	90	36.1581920903955	36.241610738255	15	0.500037000048906	2	5	2	NaN	1	5	0.0251211088865766	1	1	NaN	247	4	58	1	121	221	321	NaN	521	0.562873123213649	1	1	NaN	2681093.7220189	NaN	2681094.7055362	2681095.22207148
56	19	0	0	90	36.1581920903955	36.241610738255	0	0	1	6	3	NaN	1	4	0.0251211088865766	1	1	NaN	248	4	59	1	111	211	311	NaN	511	0.478974442463368	2	0	NaN	2681096.6057526	NaN	2681097.5891365	2681098.10569556
56	19	0	0	90	36.1581920903955	36.241610738255	10	0.333358000032604	2	10	6	NaN	2	5	0.0251211088865766	1	1	NaN	249	4	60	1	121	221	321	NaN	521	0.734956022817641	1	0	NaN	2681099.4060081	NaN	2681100.3894127	2681100.90596298
56	19	0	0	90	36.1581920903955	36.241610738255	10	0.333358000032604	2	10	5	NaN	2	5	0.0251211088865766	1	1	NaN	250	4	61	1	121	221	321	NaN	521	0.468689789995551	1	0	NaN	2681102.4563343	NaN	2681103.4397129	2681103.95627691
56	19	0	0	90	36.1581920903955	36.241610738255	6	0.200014800019562	2	7	1	NaN	2	4	0.0251211088865766	1	1	NaN	251	4	62	1	121	221	321	NaN	521	0.557070218026638	2	1	NaN	2681105.2399138	NaN	2681106.2233087	2681106.73986698
56	19	0	0	90	36.1581920903955	36.241610738255	16	0.533372800052166	2	6	6	NaN	1	4	0.0251211088865766	1	1	NaN	252	4	63	1	121	221	321	NaN	521	0.562419275287539	1	1	NaN	2681108.1068303	NaN	2681109.0902719	2681109.60682742
56	19	0	0	90	36.1581920903955	36.241610738255	22	0.733387600071728	2	9	2	NaN	2	3	0.0251211088865766	1	1	NaN	253	5	1	1	121	221	321	NaN	521	0.669594023376703	2	1	NaN	2681121.7915429	NaN	2681122.7749408	2681123.29150858
56	19	0	0	90	36.1581920903955	36.241610738255	17	0.566708600055426	2	6	6	NaN	1	4	0.0251211088865766	1	1	NaN	254	5	2	1	121	221	321	NaN	521	0.342069570440799	2	0	NaN	2681124.7750397	NaN	2681125.7586311	2681126.27511953
56	19	0	0	90	36.1581920903955	36.241610738255	22	0.733387600071728	2	1	1	NaN	1	4	0.0251211088865766	1	1	NaN	255	5	3	1	121	221	321	NaN	521	0.419691870454699	1	1	NaN	2681127.4254548	NaN	2681128.4088229	2681128.92537873
56	19	0	0	90	36.1581920903955	36.241610738255	0	0	1	7	3	NaN	2	5	0.0251211088865766	1	1	NaN	256	5	4	1	111	211	311	NaN	511	0.518026027828455	1	0	NaN	2681130.1590308	NaN	2681131.1424346	2681131.65898217
56	19	0	0	90	36.1581920903955	36.241610738255	14	0.466701200045645	2	1	3	NaN	1	4	0.0251211088865766	1	1	NaN	257	5	5	1	121	221	321	NaN	521	0.604797470849007	1	1	NaN	2681132.9926592	NaN	2681133.9760501	2681134.49259013
56	19	0	0	90	36.1581920903955	36.241610738255	23	0.766723400074989	2	12	4	NaN	2	5	0.0251211088865766	1	1	NaN	258	5	6	1	121	221	321	NaN	521	0.359374470543116	2	1	NaN	2681135.9096013	NaN	2681136.8929814	2681137.40955023
56	19	0	0	90	36.1581920903955	36.241610738255	25	0.833395000081509	2	1	2	NaN	1	3	0.0251211088865766	1	1	NaN	259	5	7	1	121	221	321	NaN	521	0.45280512329191	1	1	NaN	2681138.5765462	NaN	2681139.5599232	2681140.07648338
56	19	0	0	90	36.1581920903955	36.241610738255	17	0.566708600055426	2	5	3	NaN	1	3	0.0251211088865766	1	1	NaN	260	5	8	1	121	221	321	NaN	521	0.573791823349893	2	0	NaN	2681141.3434759	NaN	2681142.3268728	2681142.84341788
56	19	0	0	90	36.1581920903955	36.241610738255	14	0.466701200045645	2	6	4	NaN	1	3	0.0251211088865766	1	1	NaN	261	5	9	1	121	221	321	NaN	521	0.458075970411301	1	1	NaN	2681144.2270862	NaN	2681145.2104804	2681145.72703263
56	19	0	0	90	36.1581920903955	36.241610738255	17	0.566708600055426	2	2	1	NaN	1	4	0.0251211088865766	1	1	NaN	262	5	10	1	121	221	321	NaN	521	0.50735752331093	1	1	NaN	2681146.9940374	NaN	2681147.9774093	2681148.49396788
56	19	0	0	90	36.1581920903955	36.241610738255	15	0.500037000048906	2	4	5	NaN	1	4	0.0251211088865766	1	1	NaN	263	5	11	1	121	221	321	NaN	521	0.442013123072684	2	0	NaN	2681149.8109847	NaN	2681150.7943597	2681151.31090858
56	19	0	0	90	36.1581920903955	36.241610738255	17	0.566708600055426	2	10	2	NaN	2	3	0.0251211088865766	1	1	NaN	264	5	12	1	121	221	321	NaN	521	0.587778822984546	2	1	NaN	2681152.5612378	NaN	2681153.5446317	2681154.06118548
56	19	0	0	90	36.1581920903955	36.241610738255	8	0.266686400026083	2	3	6	NaN	1	4	0.0251211088865766	1	1	NaN	265	5	13	1	121	221	321	NaN	521	0.399844980333	1	1	NaN	2681155.461522	NaN	2681156.444908	2681156.96147212
56	19	0	0	90	36.1581920903955	36.241610738255	7	0.233350600022823	2	9	5	NaN	2	3	0.0251211088865766	1	1	NaN	266	5	14	1	121	221	321	NaN	521	0.530447823461145	1	0	NaN	2681158.1784641	NaN	2681159.1618344	2681159.67840788
56	19	0	0	90	36.1581920903955	36.241610738255	13	0.433365400042385	2	4	2	NaN	1	4	0.0251211088865766	1	1	NaN	267	5	15	1	121	221	321	NaN	521	0.472539170179516	2	0	NaN	2681161.0287144	NaN	2681162.0121233	2681162.52868113
56	19	0	0	90	36.1581920903955	36.241610738255	7	0.233350600022823	2	6	1	NaN	1	3	0.0251211088865766	1	1	NaN	268	5	16	1	121	221	321	NaN	521	0.432611123193055	1	1	NaN	2681163.8123735	NaN	2681164.7957394	2681165.31229578
56	19	0	0	90	36.1581920903955	36.241610738255	10	0.333358000032604	2	9	2	NaN	2	5	0.0251211088865766	1	1	NaN	269	5	17	1	121	221	321	NaN	521	0.563642723020166	2	1	NaN	2681166.9293288	NaN	2681167.9125952	2681168.42926288
56	19	0	0	90	36.1581920903955	36.241610738255	8	0.266686400026083	2	4	4	NaN	1	4	0.0251211088865766	1	1	NaN	270	5	18	1	121	221	321	NaN	521	0.448417570441961	2	0	NaN	2681169.8129398	NaN	2681170.7963864	2681171.31287123
56	19	0	0	90	36.1581920903955	36.241610738255	18	0.600044400058687	2	12	2	NaN	2	4	0.0251211088865766	1	1	NaN	271	5	19	1	121	221	321	NaN	521	0.585544823203236	1	0	NaN	2681172.579875	NaN	2681173.5632628	2681174.07981398
56	19	0	0	90	36.1581920903955	36.241610738255	0	0	1	1	6	NaN	1	3	0.0251211088865766	1	1	NaN	272	5	20	1	111	211	311	NaN	511	0.645330518484116	1	1	NaN	2681175.4801821	NaN	2681176.4635586	2681176.98009248
56	19	0	0	90	36.1581920903955	36.241610738255	15	0.500037000048906	2	10	2	NaN	2	4	0.0251211088865766	1	1	NaN	273	5	21	1	121	221	321	NaN	521	0.272917470429093	1	0	NaN	2681178.980446	NaN	2681179.9638953	2681180.48043713
56	19	0	0	90	36.1581920903955	36.241610738255	7	0.233350600022823	2	7	2	NaN	2	5	0.0251211088865766	1	1	NaN	274	5	22	1	121	221	321	NaN	521	0.424728822894394	2	1	NaN	2681181.5640772	NaN	2681182.5473763	2681183.06403568
56	19	0	0	90	36.1581920903955	36.241610738255	8	0.266686400026083	2	9	3	NaN	2	3	0.0251211088865766	1	1	NaN	275	5	23	1	121	221	321	NaN	521	0.523471723310649	2	1	NaN	2681184.2976931	NaN	2681185.2811068	2681185.79763328
56	19	0	0	90	36.1581920903955	36.241610738255	15	0.500037000048906	2	3	6	NaN	1	5	0.0251211088865766	1	1	NaN	276	5	24	1	121	221	321	NaN	521	0.529878518544137	1	1	NaN	2681187.1312938	NaN	2681188.1146817	2681188.63124018
56	19	0	0	90	36.1581920903955	36.241610738255	0	0	1	5	6	NaN	1	4	0.0251211088865766	1	1	NaN	277	5	25	1	111	211	311	NaN	511	0.527891722973436	1	1	NaN	2681189.9815266	NaN	2681190.9649728	2681191.48152838
56	19	0	0	90	36.1581920903955	36.241610738255	25	0.833395000081509	2	5	5	NaN	1	4	0.0251211088865766	1	1	NaN	278	5	26	1	121	221	321	NaN	521	0.157608085311949	1	1	NaN	2681192.8151981	NaN	2681193.7985706	2681194.31513751
56	19	0	0	90	36.1581920903955	36.241610738255	0	0	1	8	3	NaN	2	5	0.0251211088865766	1	1	NaN	279	5	27	1	111	211	311	NaN	511	0.483117423020303	2	1	NaN	2681195.2820957	NaN	2681196.2654895	2681196.78204818
56	19	0	0	90	36.1581920903955	36.241610738255	7	0.233350600022823	2	3	3	NaN	1	3	0.0251211088865766	1	1	NaN	280	5	28	1	121	221	321	NaN	521	0.450785018503666	1	1	NaN	2681198.082383	NaN	2681199.0657723	2681199.58231448
56	19	0	0	90	36.1581920903955	36.241610738255	17	0.566708600055426	2	5	6	NaN	1	3	0.0251211088865766	1	1	NaN	281	5	29	1	121	221	321	NaN	521	0.547730322927237	1	1	NaN	2681200.8492919	NaN	2681201.8327058	2681202.34926338
56	19	0	0	90	36.1581920903955	36.241610738255	12	0.400029600039125	2	11	6	NaN	2	3	0.0251211088865766	1	1	NaN	282	5	30	1	121	221	321	NaN	521	0.40994491847232	1	0	NaN	2681203.6995923	NaN	2681204.6829765	2681205.19953238
56	19	0	0	90	36.1581920903955	36.241610738255	22	0.733387600071728	2	2	6	NaN	1	5	0.0251211088865766	1	1	NaN	283	5	31	1	121	221	321	NaN	521	0.516411323100328	1	1	NaN	2681206.4165421	NaN	2681207.3999316	2681207.91647518
56	19	0	0	90	36.1581920903955	36.241610738255	7	0.233350600022823	2	8	3	NaN	2	3	0.0251211088865766	1	1	NaN	284	5	32	1	121	221	321	NaN	521	0.467040823306888	1	0	NaN	2681209.2501283	NaN	2681210.2335318	2681210.75008188
56	19	0	0	90	36.1581920903955	36.241610738255	23	0.766723400074989	2	1	4	NaN	1	4	0.0251211088865766	1	1	NaN	285	5	33	1	121	221	321	NaN	521	0.435730623081326	1	1	NaN	2681212.0337283	NaN	2681213.0171325	2681213.53369348
56	19	0	0	90	36.1581920903955	36.241610738255	7	0.233350600022823	2	8	6	NaN	2	4	0.0251211088865766	1	1	NaN	286	5	34	1	121	221	321	NaN	521	0.421519222669303	2	1	NaN	2681214.7840075	NaN	2681215.7673956	2681216.28396178
56	19	0	0	90	36.1581920903955	36.241610738255	21	0.700051800068468	2	8	4	NaN	2	3	0.0251211088865766	1	1	NaN	287	5	35	1	121	221	321	NaN	521	0.615550123155117	2	1	NaN	2681217.517644	NaN	2681218.5009297	2681219.01756618
56	19	0	0	90	36.1581920903955	36.241610738255	18	0.600044400058687	2	9	4	NaN	2	4	0.0251211088865766	1	1	NaN	288	5	36	1	121	221	321	NaN	521	0.713964423164725	2	1	NaN	2681220.4511791	NaN	2681221.4346168	2681221.95118858
56	19	0	0	90	36.1581920903955	36.241610738255	11	0.366693800035864	2	10	6	NaN	2	4	0.0251211088865766	1	1	NaN	289	5	37	1	121	221	321	NaN	521	0.71265292307362	2	1	NaN	2681223.4848472	NaN	2681224.4682612	2681224.98481748
56	19	0	0	90	36.1581920903955	36.241610738255	23	0.766723400074989	2	1	1	NaN	1	5	0.0251211088865766	1	1	NaN	290	5	38	1	121	221	321	NaN	521	0.529498523101211	1	1	NaN	2681226.6518354	NaN	2681227.6352288	2681228.15179568
56	19	0	0	90	36.1581920903955	36.241610738255	10	0.333358000032604	2	6	2	NaN	1	3	0.0251211088865766	1	1	NaN	291	5	39	1	121	221	321	NaN	521	0.767561923246831	1	1	NaN	2681229.4854407	NaN	2681230.4688471	2681230.98540708
56	19	0	0	90	36.1581920903955	36.241610738255	20	0.666716000065207	2	7	5	NaN	2	4	0.0251211088865766	1	1	NaN	292	5	40	1	121	221	321	NaN	521	0.596330423373729	2	1	NaN	2681232.5690907	NaN	2681233.5524837	2681234.06904608
56	19	0	0	90	36.1581920903955	36.241610738255	8	0.266686400026083	2	1	3	NaN	1	3	0.0251211088865766	1	1	NaN	293	5	41	1	121	221	321	NaN	521	0.511508089955896	1	1	NaN	2681235.4860549	NaN	2681236.4694377	2681236.98600211
56	19	0	0	90	36.1581920903955	36.241610738255	24	0.800059200078249	2	7	2	NaN	2	5	0.0251211088865766	1	1	NaN	294	5	42	1	121	221	321	NaN	521	0.534118223004043	1	0	NaN	2681238.3029874	NaN	2681239.2863781	2681239.80293198
56	19	0	0	90	36.1581920903955	36.241610738255	25	0.833395000081509	2	4	3	NaN	1	5	0.0251211088865766	1	1	NaN	295	5	43	1	121	221	321	NaN	521	0.419903823174536	1	1	NaN	2681241.1532544	NaN	2681242.1366609	2681242.65321868
56	19	0	0	90	36.1581920903955	36.241610738255	13	0.433365400042385	2	10	3	NaN	2	3	0.0251211088865766	1	1	NaN	296	5	44	1	121	221	321	NaN	521	0.446412718389183	2	1	NaN	2681243.8868668	NaN	2681244.870348	2681245.38682238
56	19	0	0	90	36.1581920903955	36.241610738255	16	0.533372800052166	2	3	2	NaN	1	4	0.0251211088865766	1	1	NaN	297	5	45	1	121	221	321	NaN	521	0.223390022758394	1	1	NaN	2681246.6538262	NaN	2681247.6371997	2681248.15375618
56	19	0	0	90	36.1581920903955	36.241610738255	14	0.466701200045645	2	7	5	NaN	2	4	0.0251211088865766	1	1	NaN	298	5	46	1	121	221	321	NaN	521	0.609884165693074	2	1	NaN	2681249.1873836	NaN	2681250.1707863	2681250.68734013
56	19	0	0	90	36.1581920903955	36.241610738255	13	0.433365400042385	2	4	5	NaN	1	5	0.0251211088865766	1	1	NaN	299	5	47	1	121	221	321	NaN	521	0.42891892278567	1	1	NaN	2681252.1043498	NaN	2681253.087741	2681253.60429448
56	19	0	0	90	36.1581920903955	36.241610738255	0	0	1	9	3	NaN	2	3	0.0251211088865766	1	1	NaN	300	5	48	1	111	211	311	NaN	511	0.775096022989601	1	0	NaN	2681254.8379471	NaN	2681255.8213307	2681256.33791158
56	19	0	0	90	36.1581920903955	36.241610738255	16	0.533372800052166	2	5	5	NaN	1	3	0.0251211088865766	1	1	NaN	301	5	49	1	121	221	321	NaN	521	0.515545123256743	1	1	NaN	2681257.9216768	NaN	2681258.9049752	2681259.42153178
56	19	0	0	90	36.1581920903955	36.241610738255	6	0.200014800019562	2	3	1	NaN	1	3	0.0251211088865766	1	1	NaN	302	5	50	1	121	221	321	NaN	521	0.258325070608407	1	1	NaN	2681260.7550804	NaN	2681261.738589	2681262.25513533
56	19	0	0	90	36.1581920903955	36.241610738255	13	0.433365400042385	2	10	3	NaN	2	5	0.0251211088865766	1	1	NaN	303	5	51	1	121	221	321	NaN	521	0.322960670106113	2	1	NaN	2681263.322061	NaN	2681264.3055167	2681264.82206183
56	19	0	0	90	36.1581920903955	36.241610738255	10	0.333358000032604	2	11	3	NaN	2	5	0.0251211088865766	1	1	NaN	304	5	52	1	121	221	321	NaN	521	0.593823455274105	1	0	NaN	2681265.9556911	NaN	2681266.9390934	2681267.45564204
56	19	0	0	90	36.1581920903955	36.241610738255	19	0.633380200061947	2	9	6	NaN	2	5	0.0251211088865766	1	1	NaN	305	5	53	1	121	221	321	NaN	521	0.685191023163497	1	0	NaN	2681268.8559998	NaN	2681269.8393847	2681270.35593948
56	19	0	0	90	36.1581920903955	36.241610738255	6	0.200014800019562	2	4	6	NaN	1	4	0.0251211088865766	1	1	NaN	306	5	54	1	121	221	321	NaN	521	0.500960323028266	2	0	NaN	2681271.8562729	NaN	2681272.8396926	2681273.35623418
56	19	0	0	90	36.1581920903955	36.241610738255	10	0.333358000032604	2	2	1	NaN	1	5	0.0251211088865766	1	1	NaN	307	5	55	1	121	221	321	NaN	521	0.435856770258397	1	1	NaN	2681274.6732355	NaN	2681275.6566603	2681276.17316493
56	19	0	0	90	36.1581920903955	36.241610738255	11	0.366693800035864	2	8	4	NaN	2	5	0.0251211088865766	1	1	NaN	308	5	56	1	121	221	321	NaN	521	0.293772370554507	1	0	NaN	2681277.4234862	NaN	2681278.4068884	2681278.92343663
56	19	0	0	90	36.1581920903955	36.241610738255	16	0.533372800052166	2	7	6	NaN	2	4	0.0251211088865766	1	1	NaN	309	5	57	1	121	221	321	NaN	521	0.613717623054981	2	1	NaN	2681280.0236461	NaN	2681281.0071451	2681281.52370298
56	19	0	0	90	36.1581920903955	36.241610738255	0	0	1	4	1	NaN	1	3	0.0251211088865766	1	1	NaN	310	5	58	1	111	211	311	NaN	511	0.495949318632483	1	1	NaN	2681282.9573699	NaN	2681283.9407583	2681284.45731448
56	19	0	0	90	36.1581920903955	36.241610738255	25	0.833395000081509	2	3	2	NaN	1	5	0.0251211088865766	1	1	NaN	311	5	59	1	121	221	321	NaN	521	0.751933818217367	1	1	NaN	2681285.7576341	NaN	2681286.7410364	2681287.25759198
56	19	0	0	90	36.1581920903955	36.241610738255	22	0.733387600071728	2	8	3	NaN	2	5	0.0251211088865766	1	1	NaN	312	5	60	1	121	221	321	NaN	521	0.572848970536143	2	1	NaN	2681288.8246042	NaN	2681289.8079995	2681290.32455733
56	19	0	0	90	36.1581920903955	36.241610738255	7	0.233350600022823	2	7	1	NaN	2	4	0.0251211088865766	1	1	NaN	313	5	61	1	121	221	321	NaN	521	0.833193770609796	2	1	NaN	2681291.7080995	NaN	2681292.6916085	2681293.20817183
56	19	0	0	90	36.1581920903955	36.241610738255	24	0.800059200078249	2	1	4	NaN	1	4	0.0251211088865766	1	1	NaN	314	5	62	1	121	221	321	NaN	521	0.522659723181278	1	1	NaN	2681294.8585481	NaN	2681295.8419289	2681296.35849018
56	19	0	0	90	36.1581920903955	36.241610738255	9	0.300022200029343	2	2	6	NaN	1	3	0.0251211088865766	1	1	NaN	315	5	63	1	121	221	321	NaN	521	0.608906222973019	1	1	NaN	2681297.6921659	NaN	2681298.6755445	2681299.19210438
56	19	0	0	90	36.1581920903955	36.241610738255	24	0.800059200078249	2	11	2	NaN	2	3	0.0251211088865766	1	1	NaN	316	6	1	1	121	221	321	NaN	521	0.552387522999197	2	1	NaN	2681311.8768784	NaN	2681312.8602774	2681313.37682398
56	19	0	0	90	36.1581920903955	36.241610738255	15	0.500037000048906	2	7	5	NaN	2	5	0.0251211088865766	1	1	NaN	317	6	2	1	121	221	321	NaN	521	0.581501318141818	2	1	NaN	2681314.7438138	NaN	2681315.7272157	2681316.24377038
56	19	0	0	90	36.1581920903955	36.241610738255	7	0.233350600022823	2	2	4	NaN	1	4	0.0251211088865766	1	1	NaN	318	6	3	1	121	221	321	NaN	521	0.417035970371217	1	1	NaN	2681317.6441048	NaN	2681318.6275298	2681319.14406103
56	19	0	0	90	36.1581920903955	36.241610738255	20	0.666716000065207	2	2	3	NaN	1	4	0.0251211088865766	1	1	NaN	319	6	4	1	121	221	321	NaN	521	0.883693123236299	2	0	NaN	2681320.3777073	NaN	2681321.3611079	2681321.87766318
56	19	0	0	90	36.1581920903955	36.241610738255	14	0.466701200045645	2	7	3	NaN	2	3	0.0251211088865766	1	1	NaN	320	6	5	1	121	221	321	NaN	521	0.707638123072684	1	0	NaN	2681323.5780564	NaN	2681324.5614203	2681325.07796798
56	19	0	0	90	36.1581920903955	36.241610738255	18	0.600044400058687	2	7	2	NaN	2	5	0.0251211088865766	1	1	NaN	321	6	6	1	121	221	321	NaN	521	0.482350018341094	2	1	NaN	2681326.594863	NaN	2681327.5783949	2681328.09493228
56	19	0	0	90	36.1581920903955	36.241610738255	15	0.500037000048906	2	6	5	NaN	1	5	0.0251211088865766	1	1	NaN	322	6	7	1	121	221	321	NaN	521	0.594209723174572	2	0	NaN	2681329.3952804	NaN	2681330.3786407	2681330.89521378
56	19	0	0	90	36.1581920903955	36.241610738255	9	0.300022200029343	2	1	4	NaN	1	4	0.0251211088865766	1	1	NaN	323	6	8	1	121	221	321	NaN	521	0.645033695269376	1	1	NaN	2681332.3122108	NaN	2681333.2956079	2681333.8121662
56	19	0	0	90	36.1581920903955	36.241610738255	23	0.766723400074989	2	10	2	NaN	2	3	0.0251211088865766	1	1	NaN	324	6	9	1	121	221	321	NaN	521	0.918077670503408	1	0	NaN	2681335.2791986	NaN	2681336.2625665	2681336.77911443
56	19	0	0	90	36.1581920903955	36.241610738255	14	0.466701200045645	2	9	2	NaN	2	4	0.0251211088865766	1	1	NaN	325	6	10	1	121	221	321	NaN	521	0.596495023462921	1	0	NaN	2681338.5128259	NaN	2681339.4962309	2681340.01277958
56	19	0	0	90	36.1581920903955	36.241610738255	14	0.466701200045645	2	8	2	NaN	2	5	0.0251211088865766	1	1	NaN	326	6	11	1	121	221	321	NaN	521	0.487557023297995	1	0	NaN	2681341.4296353	NaN	2681342.4131917	2681342.92973008
56	19	0	0	90	36.1581920903955	36.241610738255	14	0.466701200045645	2	11	5	NaN	2	5	0.0251211088865766	1	1	NaN	327	6	12	1	121	221	321	NaN	521	0.535577923059464	2	1	NaN	2681344.2300436	NaN	2681345.2134524	2681345.73002428
56	19	0	0	90	36.1581920903955	36.241610738255	17	0.566708600055426	2	4	2	NaN	1	5	0.0251211088865766	1	1	NaN	328	6	13	1	121	221	321	NaN	521	0.55690437508747	2	0	NaN	2681347.0803437	NaN	2681348.0637207	2681348.58029532
56	19	0	0	90	36.1581920903955	36.241610738255	10	0.333358000032604	2	5	1	NaN	1	3	0.0251211088865766	1	1	NaN	329	6	14	1	121	221	321	NaN	521	0.529872318264097	1	1	NaN	2681349.9472586	NaN	2681350.9306984	2681351.44722538
56	19	0	0	90	36.1581920903955	36.241610738255	6	0.200014800019562	2	11	1	NaN	2	3	0.0251211088865766	1	1	NaN	330	6	15	1	121	221	321	NaN	521	0.432054490316659	1	0	NaN	2681352.7974485	NaN	2681353.7809559	2681354.29750931
56	19	0	0	90	36.1581920903955	36.241610738255	15	0.500037000048906	2	4	6	NaN	1	3	0.0251211088865766	1	1	NaN	331	6	16	1	121	221	321	NaN	521	0.60982077056542	1	1	NaN	2681355.5478224	NaN	2681356.5312128	2681357.04778033
56	19	0	0	90	36.1581920903955	36.241610738255	6	0.200014800019562	2	6	2	NaN	1	3	0.0251211088865766	1	1	NaN	332	6	17	1	121	221	321	NaN	521	0.660719223320484	1	1	NaN	2681358.4647992	NaN	2681359.4481867	2681359.96473758
56	19	0	0	90	36.1581920903955	36.241610738255	9	0.300022200029343	2	8	2	NaN	2	3	0.0251211088865766	1	1	NaN	333	6	18	1	121	221	321	NaN	521	0.781898570246994	1	0	NaN	2681361.4318366	NaN	2681362.4151208	2681362.93168043
56	19	0	0	90	36.1581920903955	36.241610738255	17	0.566708600055426	2	12	3	NaN	2	5	0.0251211088865766	1	1	NaN	334	6	19	1	121	221	321	NaN	521	1.00119837047532	2	1	NaN	2681364.5320402	NaN	2681365.5154437	2681366.03198523
56	19	0	0	90	36.1581920903955	36.241610738255	16	0.533372800052166	2	11	6	NaN	2	5	0.0251211088865766	1	1	NaN	335	6	20	1	121	221	321	NaN	521	0.668415870051831	2	1	NaN	2681367.8490355	NaN	2681368.83244	2681369.34898733
56	19	0	0	90	36.1581920903955	36.241610738255	25	0.833395000081509	2	12	3	NaN	2	4	0.0251211088865766	1	1	NaN	336	6	21	1	121	221	321	NaN	521	0.621052818372846	2	1	NaN	2681370.8327006	NaN	2681371.8160772	2681372.33261708
56	19	0	0	90	36.1581920903955	36.241610738255	22	0.733387600071728	2	12	4	NaN	2	4	0.0251211088865766	1	1	NaN	337	6	22	1	121	221	321	NaN	521	0.623206622898579	1	0	NaN	2681373.7662864	NaN	2681374.7496706	2681375.26623378
56	19	0	0	90	36.1581920903955	36.241610738255	20	0.666716000065207	2	8	3	NaN	2	3	0.0251211088865766	1	1	NaN	338	6	23	1	121	221	321	NaN	521	0.6898352233693	2	1	NaN	2681376.6997783	NaN	2681377.6833269	2681378.19985608
56	19	0	0	90	36.1581920903955	36.241610738255	20	0.666716000065207	2	8	5	NaN	2	5	0.0251211088865766	1	1	NaN	339	6	24	1	121	221	321	NaN	521	0.601134170778096	2	1	NaN	2681379.7001815	NaN	2681380.6835971	2681381.20015133
56	19	0	0	90	36.1581920903955	36.241610738255	10	0.333358000032604	2	12	5	NaN	2	5	0.0251211088865766	1	1	NaN	340	6	25	1	121	221	321	NaN	521	0.484274022746831	1	0	NaN	2681382.6171659	NaN	2681383.6005471	2681384.11710398
56	19	0	0	90	36.1581920903955	36.241610738255	15	0.500037000048906	2	11	1	NaN	2	4	0.0251211088865766	1	1	NaN	341	6	26	1	121	221	321	NaN	521	0.620641370303929	2	1	NaN	2681385.4007609	NaN	2681386.3841482	2681386.90071003
56	19	0	0	90	36.1581920903955	36.241610738255	14	0.466701200045645	2	12	1	NaN	2	5	0.0251211088865766	1	1	NaN	342	6	27	1	121	221	321	NaN	521	0.590895423199981	1	0	NaN	2681388.3342302	NaN	2681389.3177645	2681389.83433088
56	19	0	0	90	36.1581920903955	36.241610738255	14	0.466701200045645	2	1	5	NaN	1	4	0.0251211088865766	1	1	NaN	343	6	28	1	121	221	321	NaN	521	0.642753770574927	1	1	NaN	2681391.2347206	NaN	2681392.2180615	2681392.73460923
56	19	0	0	90	36.1581920903955	36.241610738255	9	0.300022200029343	2	6	3	NaN	1	3	0.0251211088865766	1	1	NaN	344	6	29	1	121	221	321	NaN	521	0.836837323382497	1	1	NaN	2681394.1849382	NaN	2681395.1683366	2681395.68490378
56	19	0	0	90	36.1581920903955	36.241610738255	22	0.733387600071728	2	11	5	NaN	2	3	0.0251211088865766	1	1	NaN	345	6	30	1	121	221	321	NaN	521	0.398268423043191	2	1	NaN	2681397.335261	NaN	2681398.3187049	2681398.83521608
56	19	0	0	90	36.1581920903955	36.241610738255	0	0	1	12	1	NaN	2	3	0.0251211088865766	1	1	NaN	346	6	31	1	111	211	311	NaN	511	0.513344823382795	2	1	NaN	2681400.0520662	NaN	2681401.0356015	2681401.55214058
56	19	0	0	90	36.1581920903955	36.241610738255	19	0.633380200061947	2	5	1	NaN	1	5	0.0251211088865766	1	1	NaN	347	6	32	1	121	221	321	NaN	521	0.511454923078418	1	1	NaN	2681402.8858153	NaN	2681403.8692079	2681404.38575628
56	19	0	0	90	36.1581920903955	36.241610738255	19	0.633380200061947	2	3	5	NaN	1	5	0.0251211088865766	1	1	NaN	348	6	33	1	121	221	321	NaN	521	0.685859323013574	2	0	NaN	2681405.7194341	NaN	2681406.7028147	2681407.21937228
56	19	0	0	90	36.1581920903955	36.241610738255	11	0.366693800035864	2	3	6	NaN	1	5	0.0251211088865766	1	1	NaN	349	6	34	1	121	221	321	NaN	521	0.565882722847164	1	1	NaN	2681408.7197124	NaN	2681409.7030991	2681410.21967108
56	19	0	0	90	36.1581920903955	36.241610738255	6	0.200014800019562	2	4	1	NaN	1	3	0.0251211088865766	1	1	NaN	350	6	35	1	121	221	321	NaN	521	0.826046622823924	1	1	NaN	2681411.6033277	NaN	2681412.5867284	2681413.10328508
56	19	0	0	90	36.1581920903955	36.241610738255	22	0.733387600071728	2	7	1	NaN	2	3	0.0251211088865766	1	1	NaN	351	6	36	1	121	221	321	NaN	521	0.732504823245108	1	0	NaN	2681414.7369685	NaN	2681415.7203675	2681416.23692908
56	19	0	0	90	36.1581920903955	36.241610738255	16	0.533372800052166	2	10	6	NaN	2	3	0.0251211088865766	1	1	NaN	352	6	37	1	121	221	321	NaN	521	0.762198670301586	1	0	NaN	2681417.7872843	NaN	2681418.7706961	2681419.28721753
56	19	0	0	90	36.1581920903955	36.241610738255	23	0.766723400074989	2	6	5	NaN	1	5	0.0251211088865766	1	1	NaN	353	6	38	1	121	221	321	NaN	521	0.414617722854018	2	0	NaN	2681420.8709026	NaN	2681421.8542882	2681422.37085938
56	19	0	0	90	36.1581920903955	36.241610738255	18	0.600044400058687	2	1	5	NaN	1	3	0.0251211088865766	1	1	NaN	354	6	39	1	121	221	321	NaN	521	0.529182222671807	1	1	NaN	2681423.6045379	NaN	2681424.5879049	2681425.10445668
56	19	0	0	90	36.1581920903955	36.241610738255	13	0.433365400042385	2	12	1	NaN	2	5	0.0251211088865766	1	1	NaN	355	6	40	1	121	221	321	NaN	521	0.255175122991204	2	1	NaN	2681426.4381219	NaN	2681427.4215142	2681427.93806688
56	19	0	0	90	36.1581920903955	36.241610738255	18	0.600044400058687	2	11	2	NaN	2	3	0.0251211088865766	1	1	NaN	356	6	41	1	121	221	321	NaN	521	0.472452423069626	2	1	NaN	2681429.0050473	NaN	2681429.9884391	2681430.50499238
56	19	0	0	90	36.1581920903955	36.241610738255	15	0.500037000048906	2	9	3	NaN	2	5	0.0251211088865766	1	1	NaN	357	6	42	1	121	221	321	NaN	521	0.40095827030018	1	0	NaN	2681431.7886472	NaN	2681432.7720237	2681433.28859273
56	19	0	0	90	36.1581920903955	36.241610738255	24	0.800059200078249	2	5	4	NaN	1	3	0.0251211088865766	1	1	NaN	358	6	43	1	121	221	321	NaN	521	0.468304323032498	1	1	NaN	2681434.5055352	NaN	2681435.4889726	2681436.00552588
56	19	0	0	90	36.1581920903955	36.241610738255	25	0.833395000081509	2	3	1	NaN	1	5	0.0251211088865766	1	1	NaN	359	6	44	1	121	221	321	NaN	521	0.484549470245838	1	1	NaN	2681437.2892901	NaN	2681438.2725901	2681438.78913123
56	19	0	0	90	36.1581920903955	36.241610738255	18	0.600044400058687	2	10	2	NaN	2	3	0.0251211088865766	1	1	NaN	360	6	45	1	121	221	321	NaN	521	0.79591982299462	1	0	NaN	2681440.0894492	NaN	2681441.0728548	2681441.58941128
56	19	0	0	90	36.1581920903955	36.241610738255	15	0.500037000048906	2	8	1	NaN	2	5	0.0251211088865766	1	1	NaN	361	6	46	1	121	221	321	NaN	521	0.631109318695962	2	1	NaN	2681443.2064317	NaN	2681444.1898713	2681444.70638098
56	19	0	0	90	36.1581920903955	36.241610738255	19	0.633380200061947	2	8	2	NaN	2	5	0.0251211088865766	1	1	NaN	362	6	47	1	121	221	321	NaN	521	0.497116023208946	2	1	NaN	2681446.1567346	NaN	2681447.140166	2681447.65667618
56	19	0	0	90	36.1581920903955	36.241610738255	13	0.433365400042385	2	2	2	NaN	1	3	0.0251211088865766	1	1	NaN	363	6	48	1	121	221	321	NaN	521	0.703783518169075	2	0	NaN	2681448.9736682	NaN	2681449.9570579	2681450.47360808
56	19	0	0	90	36.1581920903955	36.241610738255	16	0.533372800052166	2	2	5	NaN	1	4	0.0251211088865766	1	1	NaN	364	6	49	1	121	221	321	NaN	521	0.0103923231363297	1	1	NaN	2681451.9906424	NaN	2681452.9740507	2681453.49057848
56	19	0	0	90	36.1581920903955	36.241610738255	9	0.300022200029343	2	8	6	NaN	2	5	0.0251211088865766	1	1	NaN	365	6	50	1	121	221	321	NaN	521	0.330290718469769	2	1	NaN	2681454.3075247	NaN	2681455.2909214	2681455.80746518
56	19	0	0	90	36.1581920903955	36.241610738255	22	0.733387600071728	2	5	2	NaN	1	4	0.0251211088865766	1	1	NaN	366	6	51	1	121	221	321	NaN	521	0.423661690205336	2	0	NaN	2681456.9577631	NaN	2681457.9411773	2681458.45773771
56	19	0	0	90	36.1581920903955	36.241610738255	14	0.466701200045645	2	2	4	NaN	1	4	0.0251211088865766	1	1	NaN	367	6	52	1	121	221	321	NaN	521	0.266197523102164	1	1	NaN	2681459.6913835	NaN	2681460.6747809	2681461.19133068
56	19	0	0	90	36.1581920903955	36.241610738255	19	0.633380200061947	2	3	2	NaN	1	5	0.0251211088865766	1	1	NaN	368	6	53	1	121	221	321	NaN	521	0.650830722879618	2	0	NaN	2681462.2749912	NaN	2681463.2583629	2681463.77492158
56	19	0	0	90	36.1581920903955	36.241610738255	8	0.266686400026083	2	6	5	NaN	1	5	0.0251211088865766	1	1	NaN	369	6	54	1	121	221	321	NaN	521	0.779571070801467	2	0	NaN	2681465.2420291	NaN	2681466.2253174	2681466.74187683
56	19	0	0	90	36.1581920903955	36.241610738255	11	0.366693800035864	2	1	6	NaN	1	5	0.0251211088865766	1	1	NaN	370	6	55	1	121	221	321	NaN	521	0.560225223191082	1	1	NaN	2681468.3254944	NaN	2681469.3089625	2681469.82550968
56	19	0	0	90	36.1581920903955	36.241610738255	9	0.300022200029343	2	11	5	NaN	2	3	0.0251211088865766	1	1	NaN	371	6	56	1	121	221	321	NaN	521	0.692669675219804	1	0	NaN	2681471.2091898	NaN	2681472.1925898	2681472.70913532
56	19	0	0	90	36.1581920903955	36.241610738255	18	0.600044400058687	2	3	1	NaN	1	5	0.0251211088865766	1	1	NaN	372	6	57	1	121	221	321	NaN	521	0.484401123132557	2	0	NaN	2681474.2094926	NaN	2681475.1928807	2681475.70942828
56	19	0	0	90	36.1581920903955	36.241610738255	17	0.566708600055426	2	11	2	NaN	2	3	0.0251211088865766	1	1	NaN	373	6	58	1	121	221	321	NaN	521	0.572048623114824	1	0	NaN	2681477.0097474	NaN	2681477.993146	2681478.50970338
56	19	0	0	90	36.1581920903955	36.241610738255	9	0.300022200029343	2	5	3	NaN	1	3	0.0251211088865766	1	1	NaN	374	6	59	1	121	221	321	NaN	521	0.576201570220292	1	1	NaN	2681479.893382	NaN	2681480.8767961	2681481.39331363
56	19	0	0	90	36.1581920903955	36.241610738255	7	0.233350600022823	2	10	5	NaN	2	5	0.0251211088865766	1	1	NaN	375	6	60	1	121	221	321	NaN	521	0.572716270107776	1	0	NaN	2681482.7769926	NaN	2681483.7603845	2681484.27693063
56	19	0	0	90	36.1581920903955	36.241610738255	11	0.366693800035864	2	7	1	NaN	2	4	0.0251211088865766	1	1	NaN	376	6	61	1	121	221	321	NaN	521	0.480793523136526	2	1	NaN	2681485.6606109	NaN	2681486.6439975	2681487.16055518
56	19	0	0	90	36.1581920903955	36.241610738255	25	0.833395000081509	2	1	2	NaN	1	3	0.0251211088865766	1	1	NaN	377	6	62	1	121	221	321	NaN	521	0.465249170549214	1	1	NaN	2681488.4442136	NaN	2681489.4276137	2681489.94415853
56	19	0	0	90	36.1581920903955	36.241610738255	20	0.666716000065207	2	6	1	NaN	1	4	0.0251211088865766	1	1	NaN	378	6	63	1	121	221	321	NaN	521	0.593823423143476	1	1	NaN	2681491.227845	NaN	2681492.2112876	2681492.72776838
56	19	0	0	90	36.1581920903955	36.241610738255	21	0.700051800068468	2	10	1	NaN	2	3	0.0251211088865766	1	1	NaN	379	7	1	1	121	221	321	NaN	521	0.564668170642108	1	0	NaN	2681516.4968557	NaN	2681517.4803613	2681517.99690563
56	19	0	0	90	36.1581920903955	36.241610738255	9	0.300022200029343	2	12	3	NaN	2	5	0.0251211088865766	1	1	NaN	380	7	2	1	121	221	321	NaN	521	0.593070570379496	1	0	NaN	2681519.3806208	NaN	2681520.3639762	2681520.88053043
56	19	0	0	90	36.1581920903955	36.241610738255	10	0.333358000032604	2	1	2	NaN	1	4	0.0251211088865766	1	1	NaN	381	7	3	1	121	221	321	NaN	521	0.708668523002416	1	1	NaN	2681522.2808607	NaN	2681523.2642549	2681523.78081828
56	19	0	0	90	36.1581920903955	36.241610738255	0	0	1	6	3	NaN	1	3	0.0251211088865766	1	1	NaN	382	7	4	1	111	211	311	NaN	511	0.802875775378197	2	0	NaN	2681525.3144642	NaN	2681526.2979213	2681526.81444962
56	19	0	0	90	36.1581920903955	36.241610738255	16	0.533372800052166	2	4	1	NaN	1	4	0.0251211088865766	1	1	NaN	383	7	5	1	121	221	321	NaN	521	0.733974270522594	1	1	NaN	2681528.4313405	NaN	2681529.4148644	2681529.93141703
56	19	0	0	90	36.1581920903955	36.241610738255	8	0.266686400026083	2	5	4	NaN	1	4	0.0251211088865766	1	1	NaN	384	7	6	1	121	221	321	NaN	521	0.43583427509293	1	1	NaN	2681531.4817635	NaN	2681532.4652427	2681532.98172142
56	19	0	0	90	36.1581920903955	36.241610738255	16	0.533372800052166	2	8	5	NaN	2	4	0.0251211088865766	1	1	NaN	385	7	7	1	121	221	321	NaN	521	0.101478970609605	2	1	NaN	2681534.2320273	NaN	2681535.2154333	2681535.73198053
56	19	0	0	90	36.1581920903955	36.241610738255	15	0.500037000048906	2	1	5	NaN	1	3	0.0251211088865766	1	1	NaN	386	7	8	1	121	221	321	NaN	521	0.364621870219707	2	0	NaN	2681536.6490519	NaN	2681537.6323335	2681538.14888803
56	19	0	0	90	36.1581920903955	36.241610738255	25	0.833395000081509	2	5	4	NaN	1	4	0.0251211088865766	1	1	NaN	387	7	9	1	121	221	321	NaN	521	0.649593589827418	2	0	NaN	2681539.3325419	NaN	2681540.3159346	2681540.83249821
56	19	0	0	90	36.1581920903955	36.241610738255	9	0.300022200029343	2	3	5	NaN	1	5	0.0251211088865766	1	1	NaN	388	7	10	1	121	221	321	NaN	521	0.482148170471191	1	1	NaN	2681542.2994949	NaN	2681543.2828124	2681543.79943993
56	19	0	0	90	36.1581920903955	36.241610738255	24	0.800059200078249	2	12	6	NaN	2	4	0.0251211088865766	1	1	NaN	389	7	11	1	121	221	321	NaN	521	0.657755823340267	2	1	NaN	2681545.0997559	NaN	2681546.0831616	2681546.59971818
56	19	0	0	90	36.1581920903955	36.241610738255	21	0.700051800068468	2	3	5	NaN	1	5	0.0251211088865766	1	1	NaN	390	7	12	1	121	221	321	NaN	521	0.643348122946918	1	1	NaN	2681548.066738	NaN	2681549.0501278	2681549.56667858
56	19	0	0	90	36.1581920903955	36.241610738255	0	0	1	4	6	NaN	1	3	0.0251211088865766	1	1	NaN	391	7	13	1	111	211	311	NaN	511	0.435860523488373	2	0	NaN	2681551.0336999	NaN	2681552.0171167	2681552.53363678
56	19	0	0	90	36.1581920903955	36.241610738255	8	0.266686400026083	2	8	4	NaN	2	3	0.0251211088865766	1	1	NaN	392	7	14	1	121	221	321	NaN	521	0.653654222842306	2	1	NaN	2681553.7840568	NaN	2681554.7673679	2681555.28390778
56	19	0	0	90	36.1581920903955	36.241610738255	10	0.333358000032604	2	5	5	NaN	1	3	0.0251211088865766	1	1	NaN	393	7	15	1	121	221	321	NaN	521	0.40723687550053	1	1	NaN	2681556.7509282	NaN	2681557.7342954	2681558.25086552
56	19	0	0	90	36.1581920903955	36.241610738255	12	0.400029600039125	2	2	2	NaN	1	4	0.0251211088865766	1	1	NaN	394	7	16	1	121	221	321	NaN	521	0.849934623111039	2	0	NaN	2681559.4678883	NaN	2681560.4512619	2681560.96779438
56	19	0	0	90	36.1581920903955	36.241610738255	22	0.733387600071728	2	3	1	NaN	1	3	0.0251211088865766	1	1	NaN	395	7	17	1	121	221	321	NaN	521	0.826842223294079	2	0	NaN	2681562.6348341	NaN	2681563.6182018	2681564.13477688
56	19	0	0	90	36.1581920903955	36.241610738255	7	0.233350600022823	2	12	4	NaN	2	5	0.0251211088865766	1	1	NaN	396	7	18	1	121	221	321	NaN	521	0.573013175278902	1	0	NaN	2681565.7684895	NaN	2681566.751863	2681567.26841572
56	19	0	0	90	36.1581920903955	36.241610738255	22	0.733387600071728	2	12	5	NaN	2	3	0.0251211088865766	1	1	NaN	397	7	19	1	121	221	321	NaN	521	0.721837937831879	1	0	NaN	2681568.652128	NaN	2681569.6355256	2681570.15203436
56	19	0	0	90	36.1581920903955	36.241610738255	22	0.733387600071728	2	6	4	NaN	1	4	0.0251211088865766	1	1	NaN	398	7	20	1	121	221	321	NaN	521	0.695762223098427	1	1	NaN	2681571.6856977	NaN	2681572.6691083	2681573.18565748
56	19	0	0	90	36.1581920903955	36.241610738255	19	0.633380200061947	2	2	5	NaN	1	3	0.0251211088865766	1	1	NaN	399	7	21	1	121	221	321	NaN	521	0.511316522955894	1	1	NaN	2681574.7026896	NaN	2681575.6860839	2681576.20262808
56	19	0	0	90	36.1581920903955	36.241610738255	14	0.466701200045645	2	3	1	NaN	1	4	0.0251211088865766	1	1	NaN	400	7	22	1	121	221	321	NaN	521	3.58234917046502	1	1	NaN	2681577.5196159	NaN	2681578.5030163	2681579.01957563
56	19	0	0	90	36.1581920903955	36.241610738255	21	0.700051800068468	2	12	6	NaN	2	5	0.0251211088865766	1	1	NaN	401	7	23	1	121	221	321	NaN	521	0.697317822836339	1	0	NaN	2681583.4202039	NaN	2681584.4035943	2681584.92015338
56	19	0	0	90	36.1581920903955	36.241610738255	21	0.700051800068468	2	9	4	NaN	2	3	0.0251211088865766	1	1	NaN	402	7	24	1	121	221	321	NaN	521	0.592805617954582	1	0	NaN	2681586.4370475	NaN	2681587.4206146	2681587.93710978
56	19	0	0	90	36.1581920903955	36.241610738255	23	0.766723400074989	2	12	1	NaN	2	5	0.0251211088865766	1	1	NaN	403	7	25	1	121	221	321	NaN	521	0.556226523127407	2	1	NaN	2681589.337453	NaN	2681590.3208662	2681590.83740088
56	19	0	0	90	36.1581920903955	36.241610738255	18	0.600044400058687	2	12	1	NaN	2	3	0.0251211088865766	1	1	NaN	404	7	26	1	121	221	321	NaN	521	0.593581622932106	2	1	NaN	2681592.2043953	NaN	2681593.187792	2681593.70433998
56	19	0	0	90	36.1581920903955	36.241610738255	24	0.800059200078249	2	10	6	NaN	2	5	0.0251211088865766	1	1	NaN	405	7	27	1	121	221	321	NaN	521	1.10854372335598	1	0	NaN	2681595.1213599	NaN	2681596.1047408	2681596.62130148
56	19	0	0	90	36.1581920903955	36.241610738255	25	0.833395000081509	2	2	3	NaN	1	3	0.0251211088865766	1	1	NaN	406	7	28	1	121	221	321	NaN	521	0.723250570241362	1	1	NaN	2681598.9383643	NaN	2681599.9217621	2681600.43834203
56	19	0	0	90	36.1581920903955	36.241610738255	20	0.666716000065207	2	11	4	NaN	2	5	0.0251211088865766	1	1	NaN	407	7	29	1	121	221	321	NaN	521	0.49775602761656	2	1	NaN	2681601.9718724	NaN	2681602.9554477	2681603.47196637
56	19	0	0	90	36.1581920903955	36.241610738255	7	0.233350600022823	2	4	5	NaN	1	4	0.0251211088865766	1	1	NaN	408	7	30	1	121	221	321	NaN	521	0.625807223375887	2	0	NaN	2681604.7723	NaN	2681605.7556895	2681606.27224928
56	19	0	0	90	36.1581920903955	36.241610738255	13	0.433365400042385	2	8	6	NaN	2	5	0.0251211088865766	1	1	NaN	409	7	31	1	121	221	321	NaN	521	0.531374323181808	2	1	NaN	2681607.7226082	NaN	2681608.7059836	2681609.22253848
56	19	0	0	90	36.1581920903955	36.241610738255	24	0.800059200078249	2	3	4	NaN	1	3	0.0251211088865766	1	1	NaN	410	7	32	1	121	221	321	NaN	521	0.641798470634967	2	0	NaN	2681610.5561941	NaN	2681611.5395929	2681612.05614853
56	19	0	0	90	36.1581920903955	36.241610738255	0	0	1	5	6	NaN	1	5	0.0251211088865766	1	1	NaN	411	7	33	1	111	211	311	NaN	511	0.363205070607364	1	1	NaN	2681613.5064902	NaN	2681614.4898629	2681615.00643483
56	19	0	0	90	36.1581920903955	36.241610738255	15	0.500037000048906	2	2	2	NaN	1	4	0.0251211088865766	1	1	NaN	412	7	34	1	121	221	321	NaN	521	0.51953071821481	2	0	NaN	2681616.1900727	NaN	2681617.1735206	2681617.69002948
56	19	0	0	90	36.1581920903955	36.241610738255	12	0.400029600039125	2	3	4	NaN	1	5	0.0251211088865766	1	1	NaN	413	7	35	1	121	221	321	NaN	521	0.509992070496082	1	1	NaN	2681619.0236897	NaN	2681620.0070857	2681620.52363983
56	19	0	0	90	36.1581920903955	36.241610738255	23	0.766723400074989	2	11	6	NaN	2	5	0.0251211088865766	1	1	NaN	414	7	36	1	121	221	321	NaN	521	0.429442518390715	2	1	NaN	2681621.8406276	NaN	2681622.8240527	2681623.34058798
56	19	0	0	90	36.1581920903955	36.241610738255	9	0.300022200029343	2	10	4	NaN	2	3	0.0251211088865766	1	1	NaN	415	7	37	1	121	221	321	NaN	521	0.4397575231269	2	1	NaN	2681624.5742358	NaN	2681625.5576369	2681626.07419038
56	19	0	0	90	36.1581920903955	36.241610738255	0	0	1	7	4	NaN	2	5	0.0251211088865766	1	1	NaN	416	7	38	1	111	211	311	NaN	511	0.865215423051268	1	0	NaN	2681627.3245096	NaN	2681628.3079084	2681628.82445728
56	19	0	0	90	36.1581920903955	36.241610738255	19	0.633380200061947	2	6	2	NaN	1	5	0.0251211088865766	1	1	NaN	417	7	39	1	121	221	321	NaN	521	1.03363882331178	2	0	NaN	2681630.5081755	NaN	2681631.4915527	2681632.00810428
56	19	0	0	90	36.1581920903955	36.241610738255	15	0.500037000048906	2	11	2	NaN	2	3	0.0251211088865766	1	1	NaN	418	7	40	1	121	221	321	NaN	521	0.715521470177919	2	1	NaN	2681633.8584775	NaN	2681634.8418792	2681635.35843633
56	19	0	0	90	36.1581920903955	36.241610738255	22	0.733387600071728	2	3	2	NaN	1	4	0.0251211088865766	1	1	NaN	419	7	41	1	121	221	321	NaN	521	0.665595023427159	1	1	NaN	2681636.8921788	NaN	2681637.8754916	2681638.39206558
56	19	0	0	90	36.1581920903955	36.241610738255	10	0.333358000032604	2	2	2	NaN	1	4	0.0251211088865766	1	1	NaN	420	7	42	1	121	221	321	NaN	521	0.994183923117816	1	1	NaN	2681639.8757398	NaN	2681640.859134	2681641.37569438
56	19	0	0	90	36.1581920903955	36.241610738255	16	0.533372800052166	2	3	2	NaN	1	3	0.0251211088865766	1	1	NaN	421	7	43	1	121	221	321	NaN	521	0.68573268968612	2	0	NaN	2681643.1759542	NaN	2681644.1594688	2681644.67601501
56	19	0	0	90	36.1581920903955	36.241610738255	9	0.300022200029343	2	11	3	NaN	2	5	0.0251211088865766	1	1	NaN	422	7	44	1	121	221	321	NaN	521	0.925421323161572	2	1	NaN	2681646.1763556	NaN	2681647.1597565	2681647.67630838
56	19	0	0	90	36.1581920903955	36.241610738255	19	0.633380200061947	2	1	3	NaN	1	4	0.0251211088865766	1	1	NaN	423	7	45	1	121	221	321	NaN	521	0.644063123501837	1	1	NaN	2681649.4100335	NaN	2681650.3934349	2681650.90996528
56	19	0	0	90	36.1581920903955	36.241610738255	24	0.800059200078249	2	4	2	NaN	1	4	0.0251211088865766	1	1	NaN	424	7	46	1	121	221	321	NaN	521	2.10176232270896	1	1	NaN	2681652.3603194	NaN	2681653.3436894	2681653.86025158
56	19	0	0	90	36.1581920903955	36.241610738255	12	0.400029600039125	2	10	5	NaN	2	5	0.0251211088865766	1	1	NaN	425	7	47	1	121	221	321	NaN	521	0.628491322975606	1	0	NaN	2681656.7774078	NaN	2681657.7607925	2681658.27735218
56	19	0	0	90	36.1581920903955	36.241610738255	20	0.666716000065207	2	11	4	NaN	2	3	0.0251211088865766	1	1	NaN	426	7	48	1	121	221	321	NaN	521	0.558479023166001	2	1	NaN	2681659.7276929	NaN	2681660.7111091	2681661.22763878
56	19	0	0	90	36.1581920903955	36.241610738255	11	0.366693800035864	2	9	5	NaN	2	3	0.0251211088865766	1	1	NaN	427	7	49	1	121	221	321	NaN	521	0.69073551800102	1	0	NaN	2681662.6113296	NaN	2681663.5947052	2681664.11125278
56	19	0	0	90	36.1581920903955	36.241610738255	12	0.400029600039125	2	9	3	NaN	2	4	0.0251211088865766	1	1	NaN	428	7	50	1	121	221	321	NaN	521	0.434215422719717	2	1	NaN	2681665.6116076	NaN	2681666.5949983	2681667.11155268
56	19	0	0	90	36.1581920903955	36.241610738255	21	0.700051800068468	2	8	3	NaN	2	4	0.0251211088865766	1	1	NaN	429	7	51	1	121	221	321	NaN	521	0.70816701836884	1	0	NaN	2681668.3619058	NaN	2681669.3452454	2681669.86181578
56	19	0	0	90	36.1581920903955	36.241610738255	13	0.433365400042385	2	11	4	NaN	2	3	0.0251211088865766	1	1	NaN	430	7	52	1	121	221	321	NaN	521	0.539767870679498	2	1	NaN	2681671.7620771	NaN	2681672.7456033	2681673.26214993
56	19	0	0	90	36.1581920903955	36.241610738255	0	0	1	12	2	NaN	2	4	0.0251211088865766	1	1	NaN	431	7	53	1	111	211	311	NaN	511	0.513367922976613	2	1	NaN	2681674.6124927	NaN	2681675.5958817	2681676.11243798
56	19	0	0	90	36.1581920903955	36.241610738255	20	0.666716000065207	2	6	2	NaN	1	3	0.0251211088865766	1	1	NaN	432	7	54	1	121	221	321	NaN	521	0.680166870821267	2	0	NaN	2681677.4295323	NaN	2681678.412826	2681678.92938873
56	19	0	0	90	36.1581920903955	36.241610738255	9	0.300022200029343	2	1	2	NaN	1	5	0.0251211088865766	1	1	NaN	433	7	55	1	121	221	321	NaN	521	0.463889323174953	1	1	NaN	2681680.429732	NaN	2681681.4131248	2681681.92969358
56	19	0	0	90	36.1581920903955	36.241610738255	24	0.800059200078249	2	2	6	NaN	1	4	0.0251211088865766	1	1	NaN	434	7	56	1	121	221	321	NaN	521	0.489460370503366	1	1	NaN	2681683.1966676	NaN	2681684.1800591	2681684.69660813
56	19	0	0	90	36.1581920903955	36.241610738255	8	0.266686400026083	2	10	5	NaN	2	4	0.0251211088865766	1	1	NaN	435	7	57	1	121	221	321	NaN	521	0.43312352290377	2	1	NaN	2681685.996935	NaN	2681686.9803361	2681687.49689188
56	19	0	0	90	36.1581920903955	36.241610738255	16	0.533372800052166	2	10	6	NaN	2	5	0.0251211088865766	1	1	NaN	436	7	58	1	121	221	321	NaN	521	0.570972470100969	2	1	NaN	2681688.7472144	NaN	2681689.7305984	2681690.24715893
56	19	0	0	90	36.1581920903955	36.241610738255	18	0.600044400058687	2	4	5	NaN	1	4	0.0251211088865766	1	1	NaN	437	7	59	1	121	221	321	NaN	521	0.862815322820097	2	0	NaN	2681691.6308083	NaN	2681692.6142511	2681693.13077458
56	19	0	0	90	36.1581920903955	36.241610738255	10	0.333358000032604	2	4	3	NaN	1	4	0.0251211088865766	1	1	NaN	438	7	60	1	121	221	321	NaN	521	0.471962222829461	2	0	NaN	2681694.797809	NaN	2681695.781188	2681696.29775638
56	19	0	0	90	36.1581920903955	36.241610738255	8	0.266686400026083	2	12	6	NaN	2	3	0.0251211088865766	1	1	NaN	439	7	61	1	121	221	321	NaN	521	0.576431223191321	2	1	NaN	2681697.5814242	NaN	2681698.5648139	2681699.08135888
56	19	0	0	90	36.1581920903955	36.241610738255	18	0.600044400058687	2	9	1	NaN	2	4	0.0251211088865766	1	1	NaN	440	7	62	1	121	221	321	NaN	521	0.461067223455757	1	0	NaN	2681700.4650177	NaN	2681701.4484201	2681701.96497788
56	19	0	0	90	36.1581920903955	36.241610738255	21	0.700051800068468	2	6	4	NaN	1	4	0.0251211088865766	1	1	NaN	441	7	63	1	121	221	321	NaN	521	0.429945523384959	1	1	NaN	2681703.2319694	NaN	2681704.215336	2681704.73191278
56	19	0	0	90	36.1581920903955	36.241610738255	6	0.200014800019562	2	11	4	NaN	2	3	0.0251211088865766	1	1	NaN	442	8	1	1	121	221	321	NaN	521	0.197839823085815	2	1	NaN	2681727.7842423	NaN	2681728.7677953	2681729.28432268
56	19	0	0	90	36.1581920903955	36.241610738255	7	0.233350600022823	2	9	5	NaN	2	5	0.0251211088865766	1	1	NaN	443	8	2	1	121	221	321	NaN	521	0.136858427897096	2	1	NaN	2681730.3012808	NaN	2681731.2846726	2681731.80123967
56	19	0	0	90	36.1581920903955	36.241610738255	9	0.300022200029343	2	10	3	NaN	2	3	0.0251211088865766	1	1	NaN	444	8	3	1	121	221	321	NaN	521	0.0384588232263923	2	1	NaN	2681732.7515452	NaN	2681733.7349192	2681734.25147968
56	19	0	0	90	36.1581920903955	36.241610738255	23	0.766723400074989	2	2	6	NaN	1	3	0.0251211088865766	1	1	NaN	445	8	4	1	121	221	321	NaN	521	0.231955570168793	1	1	NaN	2681735.101789	NaN	2681736.0851645	2681736.60170033
56	19	0	0	90	36.1581920903955	36.241610738255	6	0.200014800019562	2	7	6	NaN	2	3	0.0251211088865766	1	1	NaN	446	8	5	1	121	221	321	NaN	521	0.177916170563549	2	1	NaN	2681737.6520115	NaN	2681738.6354081	2681739.15195873
56	19	0	0	90	36.1581920903955	36.241610738255	6	0.200014800019562	2	8	3	NaN	2	5	0.0251211088865766	1	1	NaN	447	8	6	1	121	221	321	NaN	521	0.302288770209998	1	0	NaN	2681740.1354606	NaN	2681741.1189827	2681741.63552713
56	19	0	0	90	36.1581920903955	36.241610738255	24	0.800059200078249	2	2	4	NaN	1	3	0.0251211088865766	1	1	NaN	448	8	7	1	121	221	321	NaN	521	0.365527823101729	1	1	NaN	2681742.7525152	NaN	2681743.735905	2681744.25246058
56	19	0	0	90	36.1581920903955	36.241610738255	23	0.766723400074989	2	9	3	NaN	2	5	0.0251211088865766	1	1	NaN	449	8	8	1	121	221	321	NaN	521	0.361806290224195	1	0	NaN	2681745.4361059	NaN	2681746.419531	2681746.93605801
56	19	0	0	90	36.1581920903955	36.241610738255	7	0.233350600022823	2	1	6	NaN	1	4	0.0251211088865766	1	1	NaN	450	8	9	1	121	221	321	NaN	521	0.342188122682273	1	1	NaN	2681748.1197171	NaN	2681749.1030925	2681749.61965728
56	19	0	0	90	36.1581920903955	36.241610738255	19	0.633380200061947	2	4	1	NaN	1	3	0.0251211088865766	1	1	NaN	451	8	10	1	121	221	321	NaN	521	0.467794223222882	1	1	NaN	2681750.7699603	NaN	2681751.7533516	2681752.26990788
56	19	0	0	90	36.1581920903955	36.241610738255	22	0.733387600071728	2	7	3	NaN	2	4	0.0251211088865766	1	1	NaN	452	8	11	1	121	221	321	NaN	521	0.332331270445138	2	1	NaN	2681753.5536496	NaN	2681754.5369629	2681755.05352123
56	19	0	0	90	36.1581920903955	36.241610738255	17	0.566708600055426	2	7	5	NaN	2	3	0.0251211088865766	1	1	NaN	453	8	12	1	121	221	321	NaN	521	0.353838023263961	1	0	NaN	2681756.2038238	NaN	2681757.1872164	2681757.70377928
56	19	0	0	90	36.1581920903955	36.241610738255	22	0.733387600071728	2	6	4	NaN	1	4	0.0251211088865766	1	1	NaN	454	8	13	1	121	221	321	NaN	521	0.399473770521581	1	1	NaN	2681758.8707466	NaN	2681759.854155	2681760.37070623
56	19	0	0	90	36.1581920903955	36.241610738255	12	0.400029600039125	2	6	3	NaN	1	4	0.0251211088865766	1	1	NaN	455	8	14	1	121	221	321	NaN	521	0.522547570522875	1	1	NaN	2681761.587696	NaN	2681762.5709809	2681763.08763763
56	19	0	0	90	36.1581920903955	36.241610738255	9	0.300022200029343	2	5	5	NaN	1	5	0.0251211088865766	1	1	NaN	456	8	15	1	121	221	321	NaN	521	0.43268752284348	2	0	NaN	2681764.4212921	NaN	2681765.4046917	2681765.92125688
56	19	0	0	90	36.1581920903955	36.241610738255	19	0.633380200061947	2	7	5	NaN	2	5	0.0251211088865766	1	1	NaN	457	8	16	1	121	221	321	NaN	521	0.40270987059921	2	1	NaN	2681767.1715737	NaN	2681768.1549742	2681768.67152893
56	19	0	0	90	36.1581920903955	36.241610738255	14	0.466701200045645	2	8	6	NaN	2	3	0.0251211088865766	1	1	NaN	458	8	17	1	121	221	321	NaN	521	0.405774923041463	2	1	NaN	2681769.8885154	NaN	2681770.8718987	2681771.38846068
