subjno	age	gender	isPractice	viewdist	CmToPixX	CmToPixY	SOA_frm	SOA_time	targNum	targID	targExample	targRace	targGender	firstTargPos	contrast	familiarity	curr_staircase	iStair	TrialNum	BlockNum	blktrl	sessionNum	TC_FIXATION	TC_RSVP_START	TC_RSVP_END	TC_BLANK	TC_RESPONSE_ONSET	RT2afc	resp_2afc	acc	RSVPOnsetVBL	RSVPOnsetTime	RSVPOffsetVBL	RSVPOffsetTime	startrt_2afc
90	20	0	0	90	36.1581920903955	36.241610738255	11	0.36670352416113	2	2	2	NaN	1	5	0.325689784324022	0	1	NaN	1	1	1	2	120	220	320	NaN	520	0.686190631706268	1	1	NaN	3011978.8467082	NaN	3011979.8300982	3011980.36322627
90	20	0	0	90	36.1581920903955	36.241610738255	23	0.766743732336909	2	11	5	NaN	2	4	0.325689784324022	0	1	NaN	2	1	2	2	120	220	320	NaN	520	0.299756427761167	2	1	NaN	3011981.8970542	NaN	3011982.8804416	3011983.41349847
90	20	0	0	90	36.1581920903955	36.241610738255	24	0.800080416351557	2	6	6	NaN	1	4	0.325689784324022	0	1	NaN	3	1	3	2	120	220	320	NaN	520	0.62442568410188	1	1	NaN	3011984.997121	NaN	3011985.9805677	3011986.49714132
90	20	0	0	90	36.1581920903955	36.241610738255	23	0.766743732336909	2	7	6	NaN	2	4	0.325689784324022	0	1	NaN	4	1	4	2	120	220	320	NaN	520	0.322010427713394	2	1	NaN	3011987.9473963	NaN	3011988.9309143	3011989.44743407
90	20	0	0	90	36.1581920903955	36.241610738255	22	0.73340704832226	2	11	4	NaN	2	4	0.325689784324022	0	1	NaN	5	1	5	2	120	220	320	NaN	520	0.255567275453359	2	1	NaN	3011990.5977365	NaN	3011991.5811683	3011992.09768122
90	20	0	0	90	36.1581920903955	36.241610738255	14	0.466713576205075	2	7	3	NaN	2	4	0.325689784324022	0	1	NaN	6	1	6	2	120	220	320	NaN	520	0.191659223753959	2	1	NaN	3011993.1813321	NaN	3011994.1647263	3011994.68127878
90	20	0	0	90	36.1581920903955	36.241610738255	22	0.73340704832226	2	7	6	NaN	2	4	0.325689784324022	0	1	NaN	7	1	7	2	120	220	320	NaN	520	0.43516697594896	1	0	NaN	3011995.698282	NaN	3011996.6817336	3011997.19818652
90	20	0	0	90	36.1581920903955	36.241610738255	10	0.333366840146482	2	8	2	NaN	2	4	0.325689784324022	0	1	NaN	8	1	8	2	120	220	320	NaN	520	0.196727223694324	2	1	NaN	3011998.4484071	NaN	3011999.4319211	3011999.94846368
90	20	0	0	90	36.1581920903955	36.241610738255	19	0.633396996278316	2	6	1	NaN	1	3	0.325689784324022	0	1	NaN	9	1	9	2	120	220	320	NaN	520	0.67984422808513	1	1	NaN	3012000.9654319	NaN	3012001.9488691	3012002.46539397
90	20	0	0	90	36.1581920903955	36.241610738255	15	0.500050260219723	2	4	1	NaN	1	5	0.325689784324022	0	1	NaN	10	1	10	2	120	220	320	NaN	520	0.455494375899434	1	1	NaN	3012003.9657177	NaN	3012004.9491151	3012005.46566142
90	20	0	0	90	36.1581920903955	36.241610738255	22	0.73340704832226	2	2	2	NaN	1	4	0.325689784324022	0	1	NaN	11	1	11	2	120	220	320	NaN	520	0.200104375369847	1	1	NaN	3012006.749263	NaN	3012007.7327446	3012008.24927652
90	20	0	0	90	36.1581920903955	36.241610738255	23	0.766743732336909	2	10	4	NaN	2	4	0.325689784324022	0	1	NaN	12	1	12	2	120	220	320	NaN	520	0.211045623291284	2	1	NaN	3012009.2662527	NaN	3012010.249638	3012010.76618398
90	20	0	0	90	36.1581920903955	36.241610738255	19	0.633396996278316	2	9	5	NaN	2	4	0.325689784324022	0	1	NaN	13	1	13	2	120	220	320	NaN	520	0.205141075886786	2	1	NaN	3012011.7998211	NaN	3012012.783229	3012013.29977052
90	20	0	0	90	36.1581920903955	36.241610738255	19	0.633396996278316	2	10	2	NaN	2	4	0.325689784324022	0	1	NaN	14	1	14	2	120	220	320	NaN	520	0.112003271467984	2	1	NaN	3012014.3333934	NaN	3012015.3168022	3012015.83335193
90	20	0	0	90	36.1581920903955	36.241610738255	0	0	1	2	3	NaN	1	5	0.325689784324022	0	1	NaN	15	1	15	2	110	210	310	NaN	510	0.318250323180109	1	1	NaN	3012016.7670716	NaN	3012017.7503745	3012018.26693358
90	20	0	0	90	36.1581920903955	36.241610738255	9	0.300030156131834	2	6	5	NaN	1	5	0.325689784324022	0	1	NaN	16	1	16	2	120	220	320	NaN	520	0.412759575527161	2	0	NaN	3012019.4005588	NaN	3012020.3839756	3012020.90050972
90	20	0	0	90	36.1581920903955	36.241610738255	18	0.600060312263668	2	12	5	NaN	2	5	0.325689784324022	0	1	NaN	17	1	17	2	120	220	320	NaN	520	0.247140975669026	2	1	NaN	3012022.1341623	NaN	3012023.1175671	3012023.63411182
90	20	0	0	90	36.1581920903955	36.241610738255	15	0.500050260219723	2	3	3	NaN	1	4	0.325689784324022	0	1	NaN	18	1	18	2	120	220	320	NaN	520	0.160261627752334	1	1	NaN	3012024.7010759	NaN	3012025.6844995	3012026.20104427
90	20	0	0	90	36.1581920903955	36.241610738255	17	0.566723628249019	2	1	2	NaN	1	4	0.325689784324022	0	1	NaN	19	1	19	2	120	220	320	NaN	520	0.228644623421133	1	1	NaN	3012027.1845426	NaN	3012028.1680551	3012028.68461248
90	20	0	0	90	36.1581920903955	36.241610738255	18	0.600060312263668	2	3	5	NaN	1	3	0.325689784324022	0	1	NaN	20	1	20	2	120	220	320	NaN	520	2.00678147561848	1	1	NaN	3012029.7349062	NaN	3012030.718305	3012031.23486492
90	20	0	0	90	36.1581920903955	36.241610738255	21	0.700070364307612	2	12	6	NaN	2	5	0.325689784324022	0	1	NaN	21	1	21	2	120	220	320	NaN	520	3.6085331235081	2	1	NaN	3012035.0687753	NaN	3012036.0521792	3012036.56871348
90	20	0	0	90	36.1581920903955	36.241610738255	8	0.266693472117186	2	3	2	NaN	1	5	0.325689784324022	0	1	NaN	22	1	22	2	120	220	320	NaN	520	0.0354129755869508	2	0	NaN	3012040.9860089	NaN	3012041.969402	3012042.48596882
90	20	0	0	90	36.1581920903955	36.241610738255	0	0	1	12	6	NaN	2	3	0.325689784324022	0	1	NaN	23	1	23	2	110	210	310	NaN	510	0.0104249231517315	2	1	NaN	3012044.3696718	NaN	3012045.3530713	3012045.86962598
90	20	0	0	90	36.1581920903955	36.241610738255	23	0.766743732336909	2	6	3	NaN	1	5	0.325689784324022	0	1	NaN	24	1	24	2	120	220	320	NaN	520	0.590086275245994	1	1	NaN	3012046.7033375	NaN	3012047.6866787	3012048.20319012
90	20	0	0	90	36.1581920903955	36.241610738255	9	0.300030156131834	2	5	4	NaN	1	3	0.325689784324022	0	1	NaN	25	1	25	2	120	220	320	NaN	520	0.320860123261809	1	1	NaN	3012049.6202128	NaN	3012050.6035941	3012051.12014288
90	20	0	0	90	36.1581920903955	36.241610738255	22	0.73340704832226	2	7	5	NaN	2	5	0.325689784324022	0	1	NaN	26	1	26	2	120	220	320	NaN	520	0.287566623650491	2	1	NaN	3012052.2538118	NaN	3012053.2371895	3012053.75374008
90	20	0	0	90	36.1581920903955	36.241610738255	23	0.766743732336909	2	3	2	NaN	1	3	0.325689784324022	0	1	NaN	27	1	27	2	120	220	320	NaN	520	0.231185123324394	2	0	NaN	3012054.853943	NaN	3012055.8374406	3012056.35398928
90	20	0	0	90	36.1581920903955	36.241610738255	24	0.800080416351557	2	9	2	NaN	2	4	0.325689784324022	0	1	NaN	28	1	28	2	120	220	320	NaN	520	0.302527623251081	2	1	NaN	3012057.4709669	NaN	3012058.4544068	3012058.97091408
90	20	0	0	90	36.1581920903955	36.241610738255	11	0.36670352416113	2	9	5	NaN	2	3	0.325689784324022	0	1	NaN	29	1	29	2	120	220	320	NaN	520	0.16560727590695	2	1	NaN	3012060.0878871	NaN	3012061.0713037	3012061.58783912
90	20	0	0	90	36.1581920903955	36.241610738255	13	0.433376892190427	2	2	5	NaN	1	4	0.325689784324022	0	1	NaN	30	1	30	2	120	220	320	NaN	520	0.28177973954007	1	1	NaN	3012062.5713362	NaN	3012063.554869	3012064.07143236
90	20	0	0	90	36.1581920903955	36.241610738255	11	0.36670352416113	2	1	2	NaN	1	4	0.325689784324022	0	1	NaN	31	1	31	2	120	220	320	NaN	520	0.217262723483145	2	0	NaN	3012065.171723	NaN	3012066.1551968	3012066.67168528
90	20	0	0	90	36.1581920903955	36.241610738255	17	0.566723628249019	2	10	1	NaN	2	3	0.325689784324022	0	1	NaN	32	1	32	2	120	220	320	NaN	520	0.104026671033353	2	1	NaN	3012067.805321	NaN	3012068.7887805	3012069.30525973
90	20	0	0	90	36.1581920903955	36.241610738255	8	0.266693472117186	2	7	6	NaN	2	4	0.325689784324022	0	1	NaN	33	1	33	2	120	220	320	NaN	520	0.254962275270373	2	1	NaN	3012070.2222516	NaN	3012071.2056262	3012071.72217352
90	20	0	0	90	36.1581920903955	36.241610738255	23	0.766743732336909	2	6	4	NaN	1	4	0.325689784324022	0	1	NaN	34	1	34	2	120	220	320	NaN	520	0.392534075304866	1	1	NaN	3012072.7891332	NaN	3012073.7725968	3012074.28908592
90	20	0	0	90	36.1581920903955	36.241610738255	14	0.466713576205075	2	7	3	NaN	2	5	0.325689784324022	0	1	NaN	35	1	35	2	120	220	320	NaN	520	0.291859175544232	2	1	NaN	3012075.5060653	NaN	3012076.4894756	3012077.00602272
90	20	0	0	90	36.1581920903955	36.241610738255	9	0.300030156131834	2	4	1	NaN	1	3	0.325689784324022	0	1	NaN	36	1	36	2	120	220	320	NaN	520	1.47270907554775	1	1	NaN	3012078.1729189	NaN	3012079.1564115	3012079.67295722
90	20	0	0	90	36.1581920903955	36.241610738255	8	0.266693472117186	2	9	1	NaN	2	3	0.325689784324022	0	1	NaN	37	1	37	2	120	220	320	NaN	520	0.320049575529993	2	1	NaN	3012081.9732793	NaN	3012082.9568164	3012083.47332182
90	20	0	0	90	36.1581920903955	36.241610738255	19	0.633396996278316	2	4	1	NaN	1	4	0.325689784324022	0	1	NaN	38	1	38	2	120	220	320	NaN	520	0.32653447566554	1	1	NaN	3012084.6070662	NaN	3012085.5903615	3012086.10692282
90	20	0	0	90	36.1581920903955	36.241610738255	15	0.500050260219723	2	7	2	NaN	2	3	0.325689784324022	0	1	NaN	39	1	39	2	120	220	320	NaN	520	0.396808527875692	2	1	NaN	3012087.2405109	NaN	3012088.2239472	3012088.74051267
90	20	0	0	90	36.1581920903955	36.241610738255	13	0.433376892190427	2	3	5	NaN	1	4	0.325689784324022	0	1	NaN	40	1	40	2	120	220	320	NaN	520	0.615941875614226	1	1	NaN	3012089.9574911	NaN	3012090.9409058	3012091.45743972
90	20	0	0	90	36.1581920903955	36.241610738255	20	0.666733680292964	2	3	1	NaN	1	5	0.325689784324022	0	1	NaN	41	1	41	2	120	220	320	NaN	520	0.386537475511432	2	0	NaN	3012093.4911983	NaN	3012094.474573	3012094.99112622
90	20	0	0	90	36.1581920903955	36.241610738255	22	0.73340704832226	2	5	3	NaN	1	4	0.325689784324022	0	1	NaN	42	1	42	2	120	220	320	NaN	520	0.310164118651301	1	1	NaN	3012096.1914698	NaN	3012097.1748601	3012097.69138078
90	20	0	0	90	36.1581920903955	36.241610738255	22	0.73340704832226	2	11	1	NaN	2	5	0.325689784324022	0	1	NaN	43	1	43	2	120	220	320	NaN	520	1.06472747167572	2	1	NaN	3012098.9250401	NaN	3012099.9084268	3012100.42499233
90	20	0	0	90	36.1581920903955	36.241610738255	0	0	1	4	3	NaN	1	5	0.325689784324022	0	1	NaN	44	1	44	2	110	210	310	NaN	510	0.653254644013941	2	0	NaN	3012105.792365	NaN	3012106.7757623	3012107.29234176
90	20	0	0	90	36.1581920903955	36.241610738255	25	0.833417100366205	2	6	2	NaN	1	5	0.325689784324022	0	1	NaN	45	1	45	2	120	220	320	NaN	520	2.36642792308703	1	1	NaN	3012108.7592657	NaN	3012109.7427435	3012110.25929078
90	20	0	0	90	36.1581920903955	36.241610738255	25	0.833417100366205	2	9	4	NaN	2	3	0.325689784324022	0	1	NaN	46	1	46	2	120	220	320	NaN	520	0.466644975822419	2	1	NaN	3012113.4431247	NaN	3012114.4265208	3012114.94308192
90	20	0	0	90	36.1581920903955	36.241610738255	6	0.200020104087889	2	5	6	NaN	1	3	0.325689784324022	0	1	NaN	47	1	47	2	120	220	320	NaN	520	0.450660227797925	1	1	NaN	3012116.2267671	NaN	3012117.2101381	3012117.72668897
90	20	0	0	90	36.1581920903955	36.241610738255	19	0.633396996278316	2	10	6	NaN	2	5	0.325689784324022	0	1	NaN	48	1	48	2	120	220	320	NaN	520	0.667662475258112	2	1	NaN	3012119.3938683	NaN	3012120.3771336	3012120.89366272
90	20	0	0	90	36.1581920903955	36.241610738255	6	0.200020104087889	2	4	2	NaN	1	3	0.325689784324022	0	1	NaN	49	1	49	2	120	220	320	NaN	520	0.916541423648596	1	1	NaN	3012122.377344	NaN	3012123.3607808	3012123.87728528
90	20	0	0	90	36.1581920903955	36.241610738255	16	0.533386944234371	2	1	1	NaN	1	5	0.325689784324022	0	1	NaN	50	1	50	2	120	220	320	NaN	520	0.378861627541482	1	1	NaN	3012125.6108479	NaN	3012126.5943908	3012127.11093987
90	20	0	0	90	36.1581920903955	36.241610738255	10	0.333366840146482	2	11	1	NaN	2	3	0.325689784324022	0	1	NaN	51	1	51	2	120	220	320	NaN	520	0.207065675873309	2	1	NaN	3012128.2946194	NaN	3012129.2779907	3012129.79453512
90	20	0	0	90	36.1581920903955	36.241610738255	7	0.233356788102537	2	10	6	NaN	2	3	0.325689784324022	0	1	NaN	52	1	52	2	120	220	320	NaN	520	0.96234347531572	2	1	NaN	3012130.8113876	NaN	3012131.7948947	3012132.31145712
90	20	0	0	90	36.1581920903955	36.241610738255	10	0.333366840146482	2	12	2	NaN	2	4	0.325689784324022	0	1	NaN	53	1	53	2	120	220	320	NaN	520	0.189976075664163	2	1	NaN	3012134.0951627	NaN	3012135.0785692	3012135.59511012
90	20	0	0	90	36.1581920903955	36.241610738255	10	0.333366840146482	2	5	3	NaN	1	5	0.325689784324022	0	1	NaN	54	1	54	2	120	220	320	NaN	520	0.194147975649685	1	1	NaN	3012136.5953958	NaN	3012137.5788078	3012138.09534902
90	20	0	0	90	36.1581920903955	36.241610738255	20	0.666733680292964	2	1	3	NaN	1	4	0.325689784324022	0	1	NaN	55	1	55	2	120	220	320	NaN	520	0.598056975286454	1	1	NaN	3012139.0955429	NaN	3012140.0790469	3012140.59559622
90	20	0	0	90	36.1581920903955	36.241610738255	10	0.333366840146482	2	3	4	NaN	1	4	0.325689784324022	0	1	NaN	56	1	56	2	120	220	320	NaN	520	0.288912775460631	2	0	NaN	3012142.0126148	NaN	3012142.9960092	3012143.51255372
90	20	0	0	90	36.1581920903955	36.241610738255	6	0.200020104087889	2	5	3	NaN	1	3	0.325689784324022	0	1	NaN	57	1	57	2	120	220	320	NaN	520	0.24886317551136	2	0	NaN	3012144.6128623	NaN	3012145.596143	3012146.11280832
90	20	0	0	90	36.1581920903955	36.241610738255	0	0	1	8	5	NaN	2	3	0.325689784324022	0	1	NaN	58	1	58	2	110	210	310	NaN	510	0.249746575951576	2	1	NaN	3012147.179767	NaN	3012148.1631811	3012148.67972172
90	20	0	0	90	36.1581920903955	36.241610738255	14	0.466713576205075	2	10	5	NaN	2	4	0.325689784324022	0	1	NaN	59	1	59	2	120	220	320	NaN	520	0.194727875757962	2	1	NaN	3012149.7466962	NaN	3012150.7300945	3012151.24664052
90	20	0	0	90	36.1581920903955	36.241610738255	19	0.633396996278316	2	11	2	NaN	2	3	0.325689784324022	0	1	NaN	60	1	60	2	120	220	320	NaN	520	0.0782006713561714	2	1	NaN	3012152.2469382	NaN	3012153.2304622	3012153.74688943
90	20	0	0	90	36.1581920903955	36.241610738255	25	0.833417100366205	2	4	4	NaN	1	5	0.325689784324022	0	1	NaN	61	1	61	2	120	220	320	NaN	520	0.67098712362349	2	0	NaN	3012154.6305367	NaN	3012155.6139127	3012156.13045208
90	20	0	0	90	36.1581920903955	36.241610738255	19	0.633396996278316	2	8	6	NaN	2	3	0.325689784324022	0	1	NaN	62	1	62	2	120	220	320	NaN	520	0.239712875336409	1	0	NaN	3012157.613988	NaN	3012158.5975669	3012159.11409202
90	20	0	0	90	36.1581920903955	36.241610738255	18	0.600060312263668	2	3	4	NaN	1	5	0.325689784324022	0	1	NaN	63	1	63	2	120	220	320	NaN	520	0.521102275233716	2	0	NaN	3012160.1644471	NaN	3012161.1478469	3012161.66433382
90	20	0	0	90	36.1581920903955	36.241610738255	10	0.333366840146482	2	2	2	NaN	1	5	0.325689784324022	0	1	NaN	64	2	1	2	120	220	320	NaN	520	1.42739004408941	1	1	NaN	3012240.7222202	NaN	3012241.7056952	3012242.22225396
90	20	0	0	90	36.1581920903955	36.241610738255	7	0.233356788102537	2	5	1	NaN	1	4	0.325689784324022	0	1	NaN	65	2	2	2	120	220	320	NaN	520	0.356602175626904	1	1	NaN	3012244.4726684	NaN	3012245.4560664	3012245.97261812
90	20	0	0	90	36.1581920903955	36.241610738255	22	0.73340704832226	2	2	3	NaN	1	4	0.325689784324022	0	1	NaN	66	2	3	2	120	220	320	NaN	520	0.274034675210714	1	1	NaN	3012247.1395935	NaN	3012248.1230014	3012248.63953612
90	20	0	0	90	36.1581920903955	36.241610738255	21	0.700070364307612	2	9	2	NaN	2	5	0.325689784324022	0	1	NaN	67	2	4	2	120	220	320	NaN	520	0.234072171151638	2	1	NaN	3012249.7397432	NaN	3012250.7231452	3012251.23979783
90	20	0	0	90	36.1581920903955	36.241610738255	20	0.666733680292964	2	8	5	NaN	2	5	0.325689784324022	0	1	NaN	68	2	5	2	120	220	320	NaN	520	0.867607123684138	2	1	NaN	3012252.2901154	NaN	3012253.2734967	3012253.79004098
90	20	0	0	90	36.1581920903955	36.241610738255	24	0.800080416351557	2	4	6	NaN	1	5	0.325689784324022	0	1	NaN	69	2	6	2	120	220	320	NaN	520	0.171211723703891	2	0	NaN	3012255.4903959	NaN	3012256.4738577	3012256.99036638
90	20	0	0	90	36.1581920903955	36.241610738255	8	0.266693472117186	2	2	5	NaN	1	3	0.325689784324022	0	1	NaN	70	2	7	2	120	220	320	NaN	520	0.17561603570357	2	0	NaN	3012257.973978	NaN	3012258.95738	3012259.47393536
90	20	0	0	90	36.1581920903955	36.241610738255	17	0.566723628249019	2	11	6	NaN	2	4	0.325689784324022	0	1	NaN	71	2	8	2	120	220	320	NaN	520	0.276122323703021	2	1	NaN	3012260.4574394	NaN	3012261.4409633	3012261.95751088
90	20	0	0	90	36.1581920903955	36.241610738255	12	0.400040208175778	2	5	2	NaN	1	5	0.325689784324022	0	1	NaN	72	2	9	2	120	220	320	NaN	520	0.469937275629491	1	1	NaN	3012263.4078728	NaN	3012264.3912508	3012264.90780012
90	20	0	0	90	36.1581920903955	36.241610738255	23	0.766743732336909	2	7	5	NaN	2	3	0.325689784324022	0	1	NaN	73	2	10	2	120	220	320	NaN	520	0.654166319407523	2	1	NaN	3012266.1914623	NaN	3012267.1748663	3012267.69141588
90	20	0	0	90	36.1581920903955	36.241610738255	9	0.300030156131834	2	5	4	NaN	1	5	0.325689784324022	0	1	NaN	74	2	11	2	120	220	320	NaN	520	0.271695775445551	2	0	NaN	3012269.1584414	NaN	3012270.1418112	3012270.65837042
90	20	0	0	90	36.1581920903955	36.241610738255	23	0.766743732336909	2	3	5	NaN	1	5	0.325689784324022	0	1	NaN	75	2	12	2	120	220	320	NaN	520	0.287384319119155	1	1	NaN	3012271.7418774	NaN	3012272.7253975	3012273.24194848
90	20	0	0	90	36.1581920903955	36.241610738255	13	0.433376892190427	2	3	6	NaN	1	5	0.325689784324022	0	1	NaN	76	2	13	2	120	220	320	NaN	520	0.215331227984279	1	1	NaN	3012274.3422759	NaN	3012275.3256643	3012275.84221167
90	20	0	0	90	36.1581920903955	36.241610738255	6	0.200020104087889	2	12	3	NaN	2	5	0.325689784324022	0	1	NaN	77	2	14	2	120	220	320	NaN	520	0.433921183459461	2	1	NaN	3012276.8758469	NaN	3012277.8592485	3012278.37579882
90	20	0	0	90	36.1581920903955	36.241610738255	19	0.633396996278316	2	7	3	NaN	2	5	0.325689784324022	0	1	NaN	78	2	15	2	120	220	320	NaN	520	0.187806375790387	2	1	NaN	3012279.6261414	NaN	3012280.609517	3012281.12606792
90	20	0	0	90	36.1581920903955	36.241610738255	11	0.36670352416113	2	4	3	NaN	1	5	0.325689784324022	0	1	NaN	79	2	16	2	120	220	320	NaN	520	0.119496323168278	2	0	NaN	3012282.1263703	NaN	3012283.1097801	3012283.62631218
90	20	0	0	90	36.1581920903955	36.241610738255	0	0	1	4	6	NaN	1	4	0.325689784324022	0	1	NaN	80	2	17	2	110	210	310	NaN	510	0.121755227912217	1	1	NaN	3012284.6598551	NaN	3012285.6433397	3012286.15988977
90	20	0	0	90	36.1581920903955	36.241610738255	13	0.433376892190427	2	9	4	NaN	2	4	0.325689784324022	0	1	NaN	81	2	18	2	120	220	320	NaN	520	0.19219232769683	1	0	NaN	3012287.0935117	NaN	3012288.0769052	3012288.59347247
90	20	0	0	90	36.1581920903955	36.241610738255	15	0.500050260219723	2	12	4	NaN	2	5	0.325689784324022	0	1	NaN	82	2	19	2	120	220	320	NaN	520	0.268132575787604	2	1	NaN	3012289.5937521	NaN	3012290.5771714	3012291.09370832
90	20	0	0	90	36.1581920903955	36.241610738255	13	0.433376892190427	2	8	5	NaN	2	4	0.325689784324022	0	1	NaN	83	2	20	2	120	220	320	NaN	520	0.836333723273128	2	1	NaN	3012292.1773581	NaN	3012293.160766	3012293.67729308
90	20	0	0	90	36.1581920903955	36.241610738255	13	0.433376892190427	2	4	5	NaN	1	4	0.325689784324022	0	1	NaN	84	2	21	2	120	220	320	NaN	520	0.350466723553836	1	1	NaN	3012295.3276559	NaN	3012296.3110371	3012296.82760148
90	20	0	0	90	36.1581920903955	36.241610738255	15	0.500050260219723	2	4	5	NaN	1	3	0.325689784324022	0	1	NaN	85	2	22	2	120	220	320	NaN	520	0.307754027657211	1	1	NaN	3012297.9778412	NaN	3012298.9613217	3012299.47787147
90	20	0	0	90	36.1581920903955	36.241610738255	24	0.800080416351557	2	2	6	NaN	1	4	0.325689784324022	0	1	NaN	86	2	23	2	120	220	320	NaN	520	0.330850823316723	1	1	NaN	3012300.5947234	NaN	3012301.578239	3012302.09478308
90	20	0	0	90	36.1581920903955	36.241610738255	24	0.800080416351557	2	1	5	NaN	1	3	0.325689784324022	0	1	NaN	87	2	24	2	120	220	320	NaN	520	0.528565575834364	1	1	NaN	3012303.2451012	NaN	3012304.2284984	3012304.74505362
90	20	0	0	90	36.1581920903955	36.241610738255	8	0.266693472117186	2	4	2	NaN	1	5	0.325689784324022	0	1	NaN	88	2	25	2	120	220	320	NaN	520	0.127005363348871	1	1	NaN	3012306.0787016	NaN	3012307.0621159	3012307.57865954
90	20	0	0	90	36.1581920903955	36.241610738255	7	0.233356788102537	2	8	6	NaN	2	5	0.325689784324022	0	1	NaN	89	2	26	2	120	220	320	NaN	520	0.276646823156625	2	1	NaN	3012308.5289601	NaN	3012309.5123585	3012310.02890218
90	20	0	0	90	36.1581920903955	36.241610738255	19	0.633396996278316	2	1	6	NaN	1	5	0.325689784324022	0	1	NaN	90	2	27	2	120	220	320	NaN	520	0.149735723156482	2	0	NaN	3012311.1124099	NaN	3012312.0959342	3012312.61248778
90	20	0	0	90	36.1581920903955	36.241610738255	13	0.433376892190427	2	7	1	NaN	2	4	0.325689784324022	0	1	NaN	91	2	28	2	120	220	320	NaN	520	0.154223475605249	2	1	NaN	3012313.5792972	NaN	3012314.5628744	3012315.07939392
90	20	0	0	90	36.1581920903955	36.241610738255	22	0.73340704832226	2	1	1	NaN	1	3	0.325689784324022	0	1	NaN	92	2	29	2	120	220	320	NaN	520	0.271677423268557	1	1	NaN	3012316.0462395	NaN	3012317.0297544	3012317.54631018
90	20	0	0	90	36.1581920903955	36.241610738255	10	0.333366840146482	2	10	4	NaN	2	5	0.325689784324022	0	1	NaN	93	2	30	2	120	220	320	NaN	520	0.151955043897033	2	1	NaN	3012318.6299509	NaN	3012319.6133459	3012320.12989616
90	20	0	0	90	36.1581920903955	36.241610738255	19	0.633396996278316	2	5	2	NaN	1	4	0.325689784324022	0	1	NaN	94	2	31	2	120	220	320	NaN	520	0.45301312347874	1	1	NaN	3012321.0968433	NaN	3012322.080383	3012322.59679818
90	20	0	0	90	36.1581920903955	36.241610738255	18	0.600060312263668	2	7	6	NaN	2	5	0.325689784324022	0	1	NaN	95	2	32	2	120	220	320	NaN	520	0.21398992324248	2	1	NaN	3012323.8636649	NaN	3012324.8472013	3012325.36373838
90	20	0	0	90	36.1581920903955	36.241610738255	6	0.200020104087889	2	2	6	NaN	1	5	0.325689784324022	0	1	NaN	96	2	33	2	120	220	320	NaN	520	0.3283386756666	1	1	NaN	3012326.3973855	NaN	3012327.3807685	3012327.89732772
90	20	0	0	90	36.1581920903955	36.241610738255	0	0	1	5	2	NaN	1	5	0.325689784324022	0	1	NaN	97	2	34	2	110	210	310	NaN	510	0.97418992780149	1	1	NaN	3012329.0476474	NaN	3012330.0310415	3012330.54757747
90	20	0	0	90	36.1581920903955	36.241610738255	21	0.700070364307612	2	1	6	NaN	1	4	0.325689784324022	0	1	NaN	98	2	35	2	120	220	320	NaN	520	0.250439131632447	1	1	NaN	3012332.3311688	NaN	3012333.3147258	3012333.83124397
90	20	0	0	90	36.1581920903955	36.241610738255	9	0.300030156131834	2	7	2	NaN	2	4	0.325689784324022	0	1	NaN	99	2	36	2	120	220	320	NaN	520	0.485197875648737	1	0	NaN	3012335.0480838	NaN	3012336.0316156	3012336.54817912
90	20	0	0	90	36.1581920903955	36.241610738255	11	0.36670352416113	2	8	3	NaN	2	5	0.325689784324022	0	1	NaN	100	2	37	2	120	220	320	NaN	520	2.20533859170973	2	1	NaN	3012337.8485131	NaN	3012338.8319312	3012339.34845081
90	20	0	0	90	36.1581920903955	36.241610738255	15	0.500050260219723	2	10	4	NaN	2	5	0.325689784324022	0	1	NaN	101	2	38	2	120	220	320	NaN	520	0.232223823200911	2	1	NaN	3012342.3656726	NaN	3012343.3490066	3012343.86555218
90	20	0	0	90	36.1581920903955	36.241610738255	20	0.666733680292964	2	3	3	NaN	1	3	0.325689784324022	0	1	NaN	102	2	39	2	120	220	320	NaN	520	0.0104372231289744	1	1	NaN	3012344.915854	NaN	3012345.8992653	3012346.41580668
90	20	0	0	90	36.1581920903955	36.241610738255	21	0.700070364307612	2	11	6	NaN	2	3	0.325689784324022	0	1	NaN	103	2	40	2	120	220	320	NaN	520	0.229408675339073	1	0	NaN	3012347.232754	NaN	3012348.2161715	3012348.73269992
90	20	0	0	90	36.1581920903955	36.241610738255	6	0.200020104087889	2	8	6	NaN	2	3	0.325689784324022	0	1	NaN	104	2	41	2	120	220	320	NaN	520	0.230990719050169	2	1	NaN	3012349.7830086	NaN	3012350.7664075	3012351.28294808
90	20	0	0	90	36.1581920903955	36.241610738255	22	0.73340704832226	2	12	4	NaN	2	3	0.325689784324022	0	1	NaN	105	2	42	2	120	220	320	NaN	520	0.132411075755954	2	1	NaN	3012352.6332845	NaN	3012353.6167092	3012354.13322872
90	20	0	0	90	36.1581920903955	36.241610738255	16	0.533386944234371	2	8	2	NaN	2	3	0.325689784324022	0	1	NaN	106	2	43	2	120	220	320	NaN	520	0.186314575374126	2	1	NaN	3012355.0835367	NaN	3012356.0669339	3012356.58348022
90	20	0	0	90	36.1581920903955	36.241610738255	8	0.266693472117186	2	3	1	NaN	1	3	0.325689784324022	0	1	NaN	107	2	44	2	120	220	320	NaN	520	0.142131123226136	2	0	NaN	3012357.5838031	NaN	3012358.5672286	3012359.08372508
90	20	0	0	90	36.1581920903955	36.241610738255	25	0.833417100366205	2	11	6	NaN	2	4	0.325689784324022	0	1	NaN	108	2	45	2	120	220	320	NaN	520	0.0836987756192684	2	1	NaN	3012360.0340248	NaN	3012361.0173985	3012361.53396552
90	20	0	0	90	36.1581920903955	36.241610738255	22	0.73340704832226	2	1	4	NaN	1	4	0.325689784324022	0	1	NaN	109	2	46	2	120	220	320	NaN	520	0.0104356710799038	1	1	NaN	3012362.4342575	NaN	3012363.4176474	3012363.93419643
90	20	0	0	90	36.1581920903955	36.241610738255	12	0.400040208175778	2	4	3	NaN	1	3	0.325689784324022	0	1	NaN	110	2	47	2	120	220	320	NaN	520	0.238665575161576	1	1	NaN	3012364.7511639	NaN	3012365.7345358	3012366.25109442
90	20	0	0	90	36.1581920903955	36.241610738255	8	0.266693472117186	2	10	3	NaN	2	4	0.325689784324022	0	1	NaN	111	2	48	2	120	220	320	NaN	520	0.207403975538909	1	0	NaN	3012367.7347607	NaN	3012368.7181485	3012369.23470972
90	20	0	0	90	36.1581920903955	36.241610738255	6	0.200020104087889	2	11	4	NaN	2	4	0.325689784324022	0	1	NaN	112	2	49	2	120	220	320	NaN	520	0.0741659714840353	2	1	NaN	3012370.2516998	NaN	3012371.235126	3012371.75162363
90	20	0	0	90	36.1581920903955	36.241610738255	6	0.200020104087889	2	12	5	NaN	2	5	0.325689784324022	0	1	NaN	113	2	50	2	120	220	320	NaN	520	0.274917123373598	2	1	NaN	3012372.6352654	NaN	3012373.6186613	3012374.13519158
90	20	0	0	90	36.1581920903955	36.241610738255	22	0.73340704832226	2	12	5	NaN	2	5	0.325689784324022	0	1	NaN	114	2	51	2	120	220	320	NaN	520	0.0750873754732311	2	1	NaN	3012375.218911	NaN	3012376.2022205	3012376.71878172
90	20	0	0	90	36.1581920903955	36.241610738255	25	0.833417100366205	2	3	4	NaN	1	4	0.325689784324022	0	1	NaN	115	2	52	2	120	220	320	NaN	520	1.27540302742273	2	0	NaN	3012377.6024037	NaN	3012378.5858424	3012379.10236037
90	20	0	0	90	36.1581920903955	36.241610738255	18	0.600060312263668	2	9	3	NaN	2	5	0.325689784324022	0	1	NaN	116	2	53	2	120	220	320	NaN	520	0.0104079754091799	2	1	NaN	3012381.1860927	NaN	3012382.1694891	3012382.68603812
90	20	0	0	90	36.1581920903955	36.241610738255	6	0.200020104087889	2	2	3	NaN	1	3	0.325689784324022	0	1	NaN	117	2	54	2	120	220	320	NaN	520	0.422258427832276	2	0	NaN	3012383.51964	NaN	3012384.5030519	3012385.01959797
90	20	0	0	90	36.1581920903955	36.241610738255	12	0.400040208175778	2	6	2	NaN	1	4	0.325689784324022	0	1	NaN	118	2	55	2	120	220	320	NaN	520	0.208537323400378	1	1	NaN	3012386.2532759	NaN	3012387.2366538	3012387.75319798
90	20	0	0	90	36.1581920903955	36.241610738255	10	0.333366840146482	2	2	6	NaN	1	5	0.325689784324022	0	1	NaN	119	2	56	2	120	220	320	NaN	520	0.491939775645733	2	0	NaN	3012388.7700948	NaN	3012389.7535778	3012390.27011432
90	20	0	0	90	36.1581920903955	36.241610738255	18	0.600060312263668	2	10	4	NaN	2	5	0.325689784324022	0	1	NaN	120	2	57	2	120	220	320	NaN	520	0.0103953275829554	2	1	NaN	3012391.5703188	NaN	3012392.5538446	3012393.07039087
90	20	0	0	90	36.1581920903955	36.241610738255	19	0.633396996278316	2	6	6	NaN	1	4	0.325689784324022	0	1	NaN	121	2	58	2	120	220	320	NaN	520	0.238791271112859	1	1	NaN	3012393.8873267	NaN	3012394.8707542	3012395.38727733
90	20	0	0	90	36.1581920903955	36.241610738255	20	0.666733680292964	2	6	5	NaN	1	4	0.325689784324022	0	1	NaN	122	2	59	2	120	220	320	NaN	520	0.136438623536378	1	1	NaN	3012396.4376086	NaN	3012397.4210277	3012397.93754108
90	20	0	0	90	36.1581920903955	36.241610738255	20	0.666733680292964	2	7	4	NaN	2	5	0.325689784324022	0	1	NaN	123	2	60	2	120	220	320	NaN	520	0.198051175568253	2	1	NaN	3012398.8878243	NaN	3012399.8711444	3012400.38777852
90	20	0	0	90	36.1581920903955	36.241610738255	13	0.433376892190427	2	5	4	NaN	1	5	0.325689784324022	0	1	NaN	124	2	61	2	120	220	320	NaN	520	0.22511898400262	1	1	NaN	3012401.4047429	NaN	3012402.3881892	3012402.90469242
90	20	0	0	90	36.1581920903955	36.241610738255	0	0	1	10	5	NaN	2	5	0.325689784324022	0	1	NaN	125	2	62	2	110	210	310	NaN	510	0.0276203234679997	2	1	NaN	3012403.9383697	NaN	3012404.9217263	3012405.43826568
90	20	0	0	90	36.1581920903955	36.241610738255	11	0.36670352416113	2	9	2	NaN	2	3	0.325689784324022	0	1	NaN	126	2	63	2	120	220	320	NaN	520	0.0940974759869277	2	1	NaN	3012406.2718211	NaN	3012407.2552705	3012407.77183042
90	20	0	0	90	36.1581920903955	36.241610738255	16	0.533386944234371	2	2	4	NaN	1	4	0.325689784324022	0	1	NaN	127	3	1	2	120	220	320	NaN	520	0.211185875814408	1	1	NaN	3012428.890786	NaN	3012429.8741557	3012430.39071682
90	20	0	0	90	36.1581920903955	36.241610738255	23	0.766743732336909	2	2	3	NaN	1	5	0.325689784324022	0	1	NaN	128	3	2	2	120	220	320	NaN	520	0.262127575464547	1	1	NaN	3012431.407693	NaN	3012432.3910841	3012432.90763472
90	20	0	0	90	36.1581920903955	36.241610738255	22	0.73340704832226	2	10	6	NaN	2	4	0.325689784324022	0	1	NaN	129	3	3	2	120	220	320	NaN	520	0.158613223582506	2	1	NaN	3012433.9912752	NaN	3012434.9746605	3012435.49122128
90	20	0	0	90	36.1581920903955	36.241610738255	24	0.800080416351557	2	11	6	NaN	2	4	0.325689784324022	0	1	NaN	130	3	4	2	120	220	320	NaN	520	0.275581975467503	2	1	NaN	3012436.4581838	NaN	3012437.4415916	3012437.95812642
90	20	0	0	90	36.1581920903955	36.241610738255	21	0.700070364307612	2	6	5	NaN	1	4	0.325689784324022	0	1	NaN	131	3	5	2	120	220	320	NaN	520	0.340256143826991	1	1	NaN	3012439.0417942	NaN	3012440.0251934	3012440.54172776
90	20	0	0	90	36.1581920903955	36.241610738255	7	0.233356788102537	2	1	3	NaN	1	5	0.325689784324022	0	1	NaN	132	3	6	2	120	220	320	NaN	520	0.242010175716132	1	1	NaN	3012441.6919598	NaN	3012442.6754667	3012443.19198032
90	20	0	0	90	36.1581920903955	36.241610738255	14	0.466713576205075	2	3	1	NaN	1	3	0.325689784324022	0	1	NaN	133	3	7	2	120	220	320	NaN	520	0.307901323307306	2	0	NaN	3012444.2421551	NaN	3012445.2257207	3012445.74222808
90	20	0	0	90	36.1581920903955	36.241610738255	20	0.666733680292964	2	11	2	NaN	2	3	0.325689784324022	0	1	NaN	134	3	8	2	120	220	320	NaN	520	0.355101675260812	2	1	NaN	3012446.8590687	NaN	3012447.8425973	3012448.35915392
90	20	0	0	90	36.1581920903955	36.241610738255	22	0.73340704832226	2	10	5	NaN	2	5	0.325689784324022	0	1	NaN	135	3	9	2	120	220	320	NaN	520	0.247930323705077	1	0	NaN	3012449.5261199	NaN	3012450.5095328	3012451.02608228
90	20	0	0	90	36.1581920903955	36.241610738255	9	0.300030156131834	2	2	3	NaN	1	3	0.325689784324022	0	1	NaN	136	3	10	2	120	220	320	NaN	520	0.937278723809868	2	0	NaN	3012452.0930382	NaN	3012453.0764564	3012453.59300258
90	20	0	0	90	36.1581920903955	36.241610738255	17	0.566723628249019	2	8	1	NaN	2	5	0.325689784324022	0	1	NaN	137	3	11	2	120	220	320	NaN	520	1.95088297920302	1	0	NaN	3012455.343372	NaN	3012456.3267594	3012456.84331632
90	20	0	0	90	36.1581920903955	36.241610738255	12	0.400040208175778	2	8	5	NaN	2	4	0.325689784324022	0	1	NaN	138	3	12	2	120	220	320	NaN	520	0.163576423190534	2	1	NaN	3012459.6104741	NaN	3012460.5938542	3012461.11040858
90	20	0	0	90	36.1581920903955	36.241610738255	18	0.600060312263668	2	2	1	NaN	1	3	0.325689784324022	0	1	NaN	139	3	13	2	120	220	320	NaN	520	0.839950623456389	1	1	NaN	3012462.0939296	NaN	3012463.0774428	3012463.59397818
90	20	0	0	90	36.1581920903955	36.241610738255	10	0.333366840146482	2	7	3	NaN	2	3	0.325689784324022	0	1	NaN	140	3	14	2	120	220	320	NaN	520	0.0104090757668018	2	1	NaN	3012465.2443351	NaN	3012466.2277219	3012466.74429192
90	20	0	0	90	36.1581920903955	36.241610738255	21	0.700070364307612	2	10	6	NaN	2	4	0.325689784324022	0	1	NaN	141	3	15	2	120	220	320	NaN	520	0.556003275327384	2	1	NaN	3012467.5779102	NaN	3012468.56131	3012469.07785352
90	20	0	0	90	36.1581920903955	36.241610738255	14	0.466713576205075	2	11	5	NaN	2	3	0.325689784324022	0	1	NaN	142	3	16	2	120	220	320	NaN	520	0.313007975462824	2	1	NaN	3012470.4448693	NaN	3012471.4282705	3012471.94480422
90	20	0	0	90	36.1581920903955	36.241610738255	14	0.466713576205075	2	9	6	NaN	2	4	0.325689784324022	0	1	NaN	143	3	17	2	120	220	320	NaN	520	0.375819375738502	2	1	NaN	3012473.0784854	NaN	3012474.0618446	3012474.57839012
90	20	0	0	90	36.1581920903955	36.241610738255	7	0.233356788102537	2	7	2	NaN	2	3	0.325689784324022	0	1	NaN	144	3	18	2	120	220	320	NaN	520	0.43589772330597	2	1	NaN	3012475.7620454	NaN	3012476.7454445	3012477.26198638
90	20	0	0	90	36.1581920903955	36.241610738255	12	0.400040208175778	2	2	5	NaN	1	3	0.325689784324022	0	1	NaN	145	3	19	2	120	220	320	NaN	520	0.205641044303775	1	1	NaN	3012478.5123176	NaN	3012479.495721	3012480.01226506
90	20	0	0	90	36.1581920903955	36.241610738255	18	0.600060312263668	2	1	4	NaN	1	4	0.325689784324022	0	1	NaN	146	3	20	2	120	220	320	NaN	520	0.256813523359597	1	1	NaN	3012481.0292159	NaN	3012482.0126218	3012482.52917028
90	20	0	0	90	36.1581920903955	36.241610738255	20	0.666733680292964	2	8	5	NaN	2	4	0.325689784324022	0	1	NaN	147	3	21	2	120	220	320	NaN	520	0.233489175792783	1	0	NaN	3012483.5961435	NaN	3012484.5795524	3012485.09609602
90	20	0	0	90	36.1581920903955	36.241610738255	25	0.833417100366205	2	3	6	NaN	1	5	0.325689784324022	0	1	NaN	148	3	22	2	120	220	320	NaN	520	0.213020875584334	1	1	NaN	3012486.5130909	NaN	3012487.4964142	3012488.01304152
90	20	0	0	90	36.1581920903955	36.241610738255	10	0.333366840146482	2	10	5	NaN	2	5	0.325689784324022	0	1	NaN	149	3	23	2	120	220	320	NaN	520	0.166978975292295	2	1	NaN	3012489.0466817	NaN	3012490.0300791	3012490.54662612
90	20	0	0	90	36.1581920903955	36.241610738255	17	0.566723628249019	2	1	6	NaN	1	3	0.325689784324022	0	1	NaN	150	3	24	2	120	220	320	NaN	520	0.259792023338377	1	1	NaN	3012491.5302672	NaN	3012492.5137068	3012493.03019868
90	20	0	0	90	36.1581920903955	36.241610738255	8	0.266693472117186	2	11	4	NaN	2	5	0.325689784324022	0	1	NaN	151	3	25	2	120	220	320	NaN	520	0.188733375165612	2	1	NaN	3012494.0971758	NaN	3012495.0805878	3012495.59712472
90	20	0	0	90	36.1581920903955	36.241610738255	16	0.533386944234371	2	4	2	NaN	1	3	0.325689784324022	0	1	NaN	152	3	26	2	120	220	320	NaN	520	0.6168322712183	1	1	NaN	3012496.5974098	NaN	3012497.5808129	3012498.09737013
90	20	0	0	90	36.1581920903955	36.241610738255	9	0.300030156131834	2	11	4	NaN	2	3	0.325689784324022	0	1	NaN	153	3	27	2	120	220	320	NaN	520	0.267041575629264	2	1	NaN	3012499.5310634	NaN	3012500.5144561	3012501.03099402
90	20	0	0	90	36.1581920903955	36.241610738255	24	0.800080416351557	2	3	3	NaN	1	5	0.325689784324022	0	1	NaN	154	3	28	2	120	220	320	NaN	520	0.283723675645888	1	1	NaN	3012502.114632	NaN	3012503.0980233	3012503.61458112
90	20	0	0	90	36.1581920903955	36.241610738255	25	0.833417100366205	2	8	5	NaN	2	3	0.325689784324022	0	1	NaN	155	3	29	2	120	220	320	NaN	520	0.443520575296134	2	1	NaN	3012504.7148846	NaN	3012505.6982957	3012506.21482872
90	20	0	0	90	36.1581920903955	36.241610738255	14	0.466713576205075	2	12	1	NaN	2	5	0.325689784324022	0	1	NaN	156	3	30	2	120	220	320	NaN	520	0.188302975613624	2	1	NaN	3012507.4818272	NaN	3012508.465199	3012508.98177252
90	20	0	0	90	36.1581920903955	36.241610738255	20	0.666733680292964	2	12	6	NaN	2	5	0.325689784324022	0	1	NaN	157	3	31	2	120	220	320	NaN	520	0.727824175730348	2	1	NaN	3012509.9820857	NaN	3012510.9654775	3012511.48202842
90	20	0	0	90	36.1581920903955	36.241610738255	24	0.800080416351557	2	8	4	NaN	2	3	0.325689784324022	0	1	NaN	158	3	32	2	120	220	320	NaN	520	0.206200523301959	2	1	NaN	3012513.0156879	NaN	3012513.9991268	3012514.51564248
90	20	0	0	90	36.1581920903955	36.241610738255	12	0.400040208175778	2	1	6	NaN	1	5	0.325689784324022	0	1	NaN	159	3	33	2	120	220	320	NaN	520	0.569436727557331	1	1	NaN	3012515.5325883	NaN	3012516.516016	3012517.03256477
90	20	0	0	90	36.1581920903955	36.241610738255	24	0.800080416351557	2	12	3	NaN	2	4	0.325689784324022	0	1	NaN	160	3	34	2	120	220	320	NaN	520	0.182084623724222	2	1	NaN	3012518.4162506	NaN	3012519.3996696	3012519.91617438
90	20	0	0	90	36.1581920903955	36.241610738255	12	0.400040208175778	2	6	1	NaN	1	3	0.325689784324022	0	1	NaN	161	3	35	2	120	220	320	NaN	520	0.23954639211297	1	1	NaN	3012521.5665504	NaN	3012522.549941	3012523.06649831
90	20	0	0	90	36.1581920903955	36.241610738255	24	0.800080416351557	2	2	5	NaN	1	4	0.325689784324022	0	1	NaN	162	3	36	2	120	220	320	NaN	520	0.962160027585924	2	0	NaN	3012524.3001878	NaN	3012525.2835618	3012525.80009167
90	20	0	0	90	36.1581920903955	36.241610738255	6	0.200020104087889	2	6	3	NaN	1	3	0.325689784324022	0	1	NaN	163	3	37	2	120	220	320	NaN	520	0.534249027725309	1	1	NaN	3012527.5838372	NaN	3012528.5672105	3012529.08374917
90	20	0	0	90	36.1581920903955	36.241610738255	0	0	1	11	5	NaN	2	4	0.325689784324022	0	1	NaN	164	3	38	2	110	210	310	NaN	510	2.69880887586623	2	1	NaN	3012530.6674165	NaN	3012531.6508361	3012532.16738212
90	20	0	0	90	36.1581920903955	36.241610738255	16	0.533386944234371	2	11	6	NaN	2	5	0.325689784324022	0	1	NaN	165	3	39	2	120	220	320	NaN	520	1.12142147542909	2	1	NaN	3012535.6844778	NaN	3012536.6679987	3012537.18454152
90	20	0	0	90	36.1581920903955	36.241610738255	7	0.233356788102537	2	9	3	NaN	2	4	0.325689784324022	0	1	NaN	166	3	40	2	120	220	320	NaN	520	0.376395275816321	2	1	NaN	3012539.3015756	NaN	3012540.2850128	3012540.80156482
90	20	0	0	90	36.1581920903955	36.241610738255	17	0.566723628249019	2	7	4	NaN	2	5	0.325689784324022	0	1	NaN	167	3	41	2	120	220	320	NaN	520	0.212952019181103	2	1	NaN	3012541.9852165	NaN	3012542.9686248	3012543.48516938
90	20	0	0	90	36.1581920903955	36.241610738255	24	0.800080416351557	2	3	4	NaN	1	4	0.325689784324022	0	1	NaN	168	3	42	2	120	220	320	NaN	520	0.335256327874959	1	1	NaN	3012544.518803	NaN	3012545.5021802	3012546.01874737
90	20	0	0	90	36.1581920903955	36.241610738255	0	0	1	6	3	NaN	1	3	0.325689784324022	0	1	NaN	169	3	43	2	110	210	310	NaN	510	0.165339275728911	2	0	NaN	3012547.1690503	NaN	3012548.152459	3012548.66899722
90	20	0	0	90	36.1581920903955	36.241610738255	13	0.433376892190427	2	6	4	NaN	1	3	0.325689784324022	0	1	NaN	170	3	44	2	120	220	320	NaN	520	0.042061623185873	2	0	NaN	3012549.6360364	NaN	3012550.6194255	3012551.13590428
90	20	0	0	90	36.1581920903955	36.241610738255	9	0.300030156131834	2	8	4	NaN	2	4	0.325689784324022	0	1	NaN	171	3	45	2	120	220	320	NaN	520	0.121363475453109	2	1	NaN	3012552.0528605	NaN	3012553.0362802	3012553.55281842
90	20	0	0	90	36.1581920903955	36.241610738255	0	0	1	3	5	NaN	1	3	0.325689784324022	0	1	NaN	172	3	46	2	110	210	310	NaN	510	0.104360771365464	1	1	NaN	3012554.8697851	NaN	3012555.8532004	3012556.36975733
90	20	0	0	90	36.1581920903955	36.241610738255	7	0.233356788102537	2	9	1	NaN	2	4	0.325689784324022	0	1	NaN	173	3	47	2	120	220	320	NaN	520	0.178204175550491	2	1	NaN	3012557.6199584	NaN	3012558.6034936	3012559.12002292
90	20	0	0	90	36.1581920903955	36.241610738255	17	0.566723628249019	2	5	1	NaN	1	5	0.325689784324022	0	1	NaN	174	3	48	2	120	220	320	NaN	520	0.245708123780787	1	1	NaN	3012560.1203304	NaN	3012561.103726	3012561.62027898
90	20	0	0	90	36.1581920903955	36.241610738255	24	0.800080416351557	2	5	1	NaN	1	5	0.325689784324022	0	1	NaN	175	3	49	2	120	220	320	NaN	520	0.35120999161154	1	1	NaN	3012562.6871092	NaN	3012563.6706668	3012564.18719431
90	20	0	0	90	36.1581920903955	36.241610738255	24	0.800080416351557	2	12	4	NaN	2	5	0.325689784324022	0	1	NaN	176	3	50	2	120	220	320	NaN	520	0.228236044291407	1	0	NaN	3012565.3541706	NaN	3012566.3375764	3012566.85412216
90	20	0	0	90	36.1581920903955	36.241610738255	11	0.36670352416113	2	5	6	NaN	1	4	0.325689784324022	0	1	NaN	177	3	51	2	120	220	320	NaN	520	0.20641782367602	1	1	NaN	3012567.8877811	NaN	3012568.8711605	3012569.38770108
90	20	0	0	90	36.1581920903955	36.241610738255	12	0.400040208175778	2	8	1	NaN	2	3	0.325689784324022	0	1	NaN	178	3	52	2	120	220	320	NaN	520	0.561642527580261	1	0	NaN	3012570.4046591	NaN	3012571.3880643	3012571.90462037
90	20	0	0	90	36.1581920903955	36.241610738255	8	0.266693472117186	2	12	6	NaN	2	3	0.325689784324022	0	1	NaN	179	3	53	2	120	220	320	NaN	520	0.197783175390214	2	1	NaN	3012573.2883001	NaN	3012574.2716947	3012574.78823012
90	20	0	0	90	36.1581920903955	36.241610738255	9	0.300030156131834	2	9	6	NaN	2	4	0.325689784324022	0	1	NaN	180	3	54	2	120	220	320	NaN	520	0.313193783629686	2	1	NaN	3012575.8051949	NaN	3012576.7885956	3012577.30514332
90	20	0	0	90	36.1581920903955	36.241610738255	7	0.233356788102537	2	4	6	NaN	1	4	0.325689784324022	0	1	NaN	181	3	55	2	120	220	320	NaN	520	0.207461927551776	2	0	NaN	3012578.4387968	NaN	3012579.4221918	3012579.93873767
90	20	0	0	90	36.1581920903955	36.241610738255	23	0.766743732336909	2	12	6	NaN	2	5	0.325689784324022	0	1	NaN	182	3	56	2	120	220	320	NaN	520	0.258551343809813	2	1	NaN	3012580.9557075	NaN	3012581.9391038	3012582.45565716
90	20	0	0	90	36.1581920903955	36.241610738255	9	0.300030156131834	2	3	6	NaN	1	3	0.325689784324022	0	1	NaN	183	3	57	2	120	220	320	NaN	520	0.283461075741798	1	1	NaN	3012583.5226263	NaN	3012584.5060264	3012585.02257852
90	20	0	0	90	36.1581920903955	36.241610738255	10	0.333366840146482	2	5	6	NaN	1	5	0.325689784324022	0	1	NaN	184	3	58	2	120	220	320	NaN	520	0.971422823611647	1	1	NaN	3012586.1227562	NaN	3012587.1062901	3012587.62283088
90	20	0	0	90	36.1581920903955	36.241610738255	11	0.36670352416113	2	10	1	NaN	2	5	0.325689784324022	0	1	NaN	185	3	59	2	120	220	320	NaN	520	0.0955188232474029	2	1	NaN	3012589.4065476	NaN	3012590.3899441	3012590.90648318
90	20	0	0	90	36.1581920903955	36.241610738255	9	0.300030156131834	2	6	1	NaN	1	4	0.325689784324022	0	1	NaN	186	3	60	2	120	220	320	NaN	520	0.119654875714332	1	1	NaN	3012591.8067735	NaN	3012592.790167	3012593.30671752
90	20	0	0	90	36.1581920903955	36.241610738255	22	0.73340704832226	2	5	3	NaN	1	5	0.325689784324022	0	1	NaN	187	3	61	2	120	220	320	NaN	520	0.237772491760552	1	1	NaN	3012594.240337	NaN	3012595.2237238	3012595.74029501
90	20	0	0	90	36.1581920903955	36.241610738255	22	0.73340704832226	2	4	3	NaN	1	5	0.325689784324022	0	1	NaN	188	3	62	2	120	220	320	NaN	520	0.303916675504297	1	1	NaN	3012596.7905831	NaN	3012597.77399	3012598.29053772
90	20	0	0	90	36.1581920903955	36.241610738255	11	0.36670352416113	2	12	1	NaN	2	5	0.325689784324022	0	1	NaN	189	3	63	2	120	220	320	NaN	520	0.406843027565628	2	1	NaN	3012599.4075321	NaN	3012600.3909236	3012600.90746827
90	20	0	0	90	36.1581920903955	36.241610738255	18	0.600060312263668	2	1	6	NaN	1	5	0.325689784324022	0	1	NaN	190	4	1	2	120	220	320	NaN	520	0.375516695901752	2	0	NaN	3012636.894495	NaN	3012637.877926	3012638.3944845
90	20	0	0	90	36.1581920903955	36.241610738255	14	0.466713576205075	2	1	3	NaN	1	5	0.325689784324022	0	1	NaN	191	4	2	2	120	220	320	NaN	520	0.196379223372787	2	0	NaN	3012639.5781313	NaN	3012640.5615382	3012641.07808158
90	20	0	0	90	36.1581920903955	36.241610738255	25	0.833417100366205	2	2	6	NaN	1	5	0.325689784324022	0	1	NaN	192	4	3	2	120	220	320	NaN	520	0.231458923313767	1	1	NaN	3012642.0950461	NaN	3012643.0784389	3012643.59500018
90	20	0	0	90	36.1581920903955	36.241610738255	0	0	1	9	6	NaN	2	3	0.325689784324022	0	1	NaN	193	4	4	2	110	210	310	NaN	510	0.233563475310802	2	1	NaN	3012644.6285759	NaN	3012645.6120808	3012646.12856622
90	20	0	0	90	36.1581920903955	36.241610738255	15	0.500050260219723	2	10	3	NaN	2	4	0.325689784324022	0	1	NaN	194	4	5	2	120	220	320	NaN	520	0.195463475771248	2	1	NaN	3012647.1788745	NaN	3012648.1622764	3012648.67881652
90	20	0	0	90	36.1581920903955	36.241610738255	21	0.700070364307612	2	5	1	NaN	1	4	0.325689784324022	0	1	NaN	195	4	6	2	120	220	320	NaN	520	0.222747675608844	1	1	NaN	3012649.6957988	NaN	3012650.6792014	3012651.19573802
90	20	0	0	90	36.1581920903955	36.241610738255	18	0.600060312263668	2	11	2	NaN	2	4	0.325689784324022	0	1	NaN	196	4	7	2	120	220	320	NaN	520	0.128864323254675	2	1	NaN	3012652.2293818	NaN	3012653.2127689	3012653.72931178
90	20	0	0	90	36.1581920903955	36.241610738255	22	0.73340704832226	2	9	3	NaN	2	5	0.325689784324022	0	1	NaN	197	4	8	2	120	220	320	NaN	520	0.123901475220919	2	1	NaN	3012654.746212	NaN	3012655.72968	3012656.24623892
90	20	0	0	90	36.1581920903955	36.241610738255	15	0.500050260219723	2	9	1	NaN	2	4	0.325689784324022	0	1	NaN	198	4	9	2	120	220	320	NaN	520	0.0984496236778796	2	1	NaN	3012657.1798889	NaN	3012658.1632806	3012658.67980178
90	20	0	0	90	36.1581920903955	36.241610738255	23	0.766743732336909	2	1	5	NaN	1	4	0.325689784324022	0	1	NaN	199	4	10	2	120	220	320	NaN	520	0.0902030235156417	1	1	NaN	3012659.5801247	NaN	3012660.5634821	3012661.08003738
90	20	0	0	90	36.1581920903955	36.241610738255	20	0.666733680292964	2	11	2	NaN	2	5	0.325689784324022	0	1	NaN	200	4	11	2	120	220	320	NaN	520	0.185909123625606	2	1	NaN	3012661.9803591	NaN	3012662.9637254	3012663.48027008
90	20	0	0	90	36.1581920903955	36.241610738255	19	0.633396996278316	2	11	3	NaN	2	5	0.325689784324022	0	1	NaN	201	4	12	2	120	220	320	NaN	520	0.165274715051055	2	1	NaN	3012664.4804906	NaN	3012665.4639932	3012665.98052388
90	20	0	0	90	36.1581920903955	36.241610738255	24	0.800080416351557	2	9	6	NaN	2	3	0.325689784324022	0	1	NaN	202	4	13	2	120	220	320	NaN	520	0.186415075790137	2	1	NaN	3012666.9640396	NaN	3012667.947549	3012668.46410322
90	20	0	0	90	36.1581920903955	36.241610738255	21	0.700070364307612	2	6	6	NaN	1	5	0.325689784324022	0	1	NaN	203	4	14	2	120	220	320	NaN	520	0.229652879294008	1	1	NaN	3012669.4642933	NaN	3012670.4478043	3012670.96435222
90	20	0	0	90	36.1581920903955	36.241610738255	13	0.433376892190427	2	10	5	NaN	2	4	0.325689784324022	0	1	NaN	204	4	15	2	120	220	320	NaN	520	0.335465223528445	1	0	NaN	3012672.0146537	NaN	3012672.9980926	3012673.51458878
90	20	0	0	90	36.1581920903955	36.241610738255	11	0.36670352416113	2	1	6	NaN	1	3	0.325689784324022	0	1	NaN	205	4	16	2	120	220	320	NaN	520	0.268905975390226	1	1	NaN	3012674.6815618	NaN	3012675.6649869	3012676.18151812
90	20	0	0	90	36.1581920903955	36.241610738255	15	0.500050260219723	2	3	4	NaN	1	5	0.325689784324022	0	1	NaN	206	4	17	2	120	220	320	NaN	520	0.261006744112819	1	1	NaN	3012677.2651563	NaN	3012678.2485736	3012678.76512186
90	20	0	0	90	36.1581920903955	36.241610738255	6	0.200020104087889	2	9	3	NaN	2	5	0.325689784324022	0	1	NaN	207	4	18	2	120	220	320	NaN	520	0.0543188755400479	2	1	NaN	3012679.8319589	NaN	3012680.8154805	3012681.33203092
90	20	0	0	90	36.1581920903955	36.241610738255	25	0.833417100366205	2	4	6	NaN	1	5	0.325689784324022	0	1	NaN	208	4	19	2	120	220	320	NaN	520	0.175266391597688	1	1	NaN	3012682.1989624	NaN	3012683.1823814	3012683.69893871
90	20	0	0	90	36.1581920903955	36.241610738255	0	0	1	1	3	NaN	1	3	0.325689784324022	0	1	NaN	209	4	20	2	110	210	310	NaN	510	0.234698723070323	1	1	NaN	3012685.1159327	NaN	3012686.0993252	3012686.61588408
90	20	0	0	90	36.1581920903955	36.241610738255	17	0.566723628249019	2	2	1	NaN	1	3	0.325689784324022	0	1	NaN	210	4	21	2	120	220	320	NaN	520	0.26021967548877	1	1	NaN	3012687.6662842	NaN	3012688.6495714	3012689.16613232
90	20	0	0	90	36.1581920903955	36.241610738255	24	0.800080416351557	2	7	3	NaN	2	3	0.325689784324022	0	1	NaN	211	4	22	2	120	220	320	NaN	520	0.485610475298017	2	1	NaN	3012690.2331033	NaN	3012691.2165067	3012691.73304442
90	20	0	0	90	36.1581920903955	36.241610738255	9	0.300030156131834	2	1	5	NaN	1	3	0.325689784324022	0	1	NaN	212	4	23	2	120	220	320	NaN	520	0.365036123432219	1	1	NaN	3012693.0333958	NaN	3012694.0167851	3012694.53331778
90	20	0	0	90	36.1581920903955	36.241610738255	18	0.600060312263668	2	8	1	NaN	2	3	0.325689784324022	0	1	NaN	213	4	24	2	120	220	320	NaN	520	0.297194375656545	2	1	NaN	3012695.7168523	NaN	3012696.7004136	3012697.21691552
90	20	0	0	90	36.1581920903955	36.241610738255	9	0.300030156131834	2	3	3	NaN	1	3	0.325689784324022	0	1	NaN	214	4	25	2	120	220	320	NaN	520	0.249328427482396	1	1	NaN	3012698.9172624	NaN	3012699.9007187	3012700.41723317
90	20	0	0	90	36.1581920903955	36.241610738255	9	0.300030156131834	2	4	4	NaN	1	3	0.325689784324022	0	1	NaN	215	4	26	2	120	220	320	NaN	520	0.242109623271972	1	1	NaN	3012701.4842013	NaN	3012702.4675867	3012702.98415788
90	20	0	0	90	36.1581920903955	36.241610738255	6	0.200020104087889	2	10	3	NaN	2	5	0.325689784324022	0	1	NaN	216	4	27	2	120	220	320	NaN	520	0.283797523472458	2	1	NaN	3012704.0344551	NaN	3012705.0178713	3012705.53440388
90	20	0	0	90	36.1581920903955	36.241610738255	25	0.833417100366205	2	2	1	NaN	1	4	0.325689784324022	0	1	NaN	217	4	28	2	120	220	320	NaN	520	1.06785337580368	1	1	NaN	3012706.6345818	NaN	3012707.6181287	3012708.13465422
90	20	0	0	90	36.1581920903955	36.241610738255	21	0.700070364307612	2	2	3	NaN	1	3	0.325689784324022	0	1	NaN	218	4	29	2	120	220	320	NaN	520	0.27462322358042	1	1	NaN	3012710.2517016	NaN	3012711.2351197	3012711.75167988
90	20	0	0	90	36.1581920903955	36.241610738255	24	0.800080416351557	2	6	1	NaN	1	5	0.325689784324022	0	1	NaN	219	4	30	2	120	220	320	NaN	520	0.219234023243189	1	1	NaN	3012712.8353253	NaN	3012713.8187541	3012714.33527058
90	20	0	0	90	36.1581920903955	36.241610738255	14	0.466713576205075	2	8	3	NaN	2	4	0.325689784324022	0	1	NaN	220	4	31	2	120	220	320	NaN	520	0.173660427797586	2	1	NaN	3012715.3689163	NaN	3012716.3523171	3012716.86885537
90	20	0	0	90	36.1581920903955	36.241610738255	7	0.233356788102537	2	8	3	NaN	2	5	0.325689784324022	0	1	NaN	221	4	32	2	120	220	320	NaN	520	0.258301227819175	2	1	NaN	3012717.8523493	NaN	3012718.8358921	3012719.35242257
90	20	0	0	90	36.1581920903955	36.241610738255	16	0.533386944234371	2	10	2	NaN	2	5	0.325689784324022	0	1	NaN	222	4	33	2	120	220	320	NaN	520	0.190306283533573	1	0	NaN	3012720.7361642	NaN	3012721.7195534	3012722.23605282
90	20	0	0	90	36.1581920903955	36.241610738255	24	0.800080416351557	2	4	2	NaN	1	4	0.325689784324022	0	1	NaN	223	4	34	2	120	220	320	NaN	520	0.201625323388726	1	1	NaN	3012723.2364185	NaN	3012724.2197348	3012724.73628868
90	20	0	0	90	36.1581920903955	36.241610738255	11	0.36670352416113	2	11	4	NaN	2	3	0.325689784324022	0	1	NaN	224	4	35	2	120	220	320	NaN	520	0.445468975696713	2	1	NaN	3012725.753263	NaN	3012726.7366669	3012727.25320522
90	20	0	0	90	36.1581920903955	36.241610738255	16	0.533386944234371	2	8	4	NaN	2	5	0.325689784324022	0	1	NaN	225	4	36	2	120	220	320	NaN	520	0.790519623085856	2	1	NaN	3012728.5201835	NaN	3012729.5035887	3012730.02014428
90	20	0	0	90	36.1581920903955	36.241610738255	15	0.500050260219723	2	2	2	NaN	1	3	0.325689784324022	0	1	NaN	226	4	37	2	120	220	320	NaN	520	0.289841023273766	1	1	NaN	3012731.6204997	NaN	3012732.6038879	3012733.12044678
90	20	0	0	90	36.1581920903955	36.241610738255	21	0.700070364307612	2	3	4	NaN	1	5	0.325689784324022	0	1	NaN	227	4	38	2	120	220	320	NaN	520	0.40156592335552	1	1	NaN	3012734.2207712	NaN	3012735.2041474	3012735.72069988
90	20	0	0	90	36.1581920903955	36.241610738255	24	0.800080416351557	2	10	1	NaN	2	5	0.325689784324022	0	1	NaN	228	4	39	2	120	220	320	NaN	520	0.133088923525065	2	1	NaN	3012736.9375897	NaN	3012737.9210939	3012738.43763128
90	20	0	0	90	36.1581920903955	36.241610738255	18	0.600060312263668	2	8	4	NaN	2	5	0.325689784324022	0	1	NaN	229	4	40	2	120	220	320	NaN	520	0.210412275511771	2	1	NaN	3012739.3879321	NaN	3012740.3713203	3012740.88787872
90	20	0	0	90	36.1581920903955	36.241610738255	25	0.833417100366205	2	10	2	NaN	2	5	0.325689784324022	0	1	NaN	230	4	41	2	120	220	320	NaN	520	0.204880423378199	2	1	NaN	3012741.9215016	NaN	3012742.9049135	3012743.42146848
90	20	0	0	90	36.1581920903955	36.241610738255	6	0.200020104087889	2	1	2	NaN	1	5	0.325689784324022	0	1	NaN	231	4	42	2	120	220	320	NaN	520	0.215914923232049	1	1	NaN	3012744.4384675	NaN	3012745.421834	3012745.93836898
90	20	0	0	90	36.1581920903955	36.241610738255	7	0.233356788102537	2	11	1	NaN	2	5	0.325689784324022	0	1	NaN	232	4	43	2	120	220	320	NaN	520	0.262447475455701	2	1	NaN	3012747.0720308	NaN	3012748.0554459	3012748.57196182
90	20	0	0	90	36.1581920903955	36.241610738255	0	0	1	5	1	NaN	1	3	0.325689784324022	0	1	NaN	233	4	44	2	110	210	310	NaN	510	0.190623123664409	1	1	NaN	3012749.6557037	NaN	3012750.6389927	3012751.15554718
90	20	0	0	90	36.1581920903955	36.241610738255	20	0.666733680292964	2	5	6	NaN	1	5	0.325689784324022	0	1	NaN	234	4	45	2	120	220	320	NaN	520	0.154550775419921	1	1	NaN	3012752.1558511	NaN	3012753.1392563	3012753.65579932
90	20	0	0	90	36.1581920903955	36.241610738255	17	0.566723628249019	2	6	4	NaN	1	5	0.325689784324022	0	1	NaN	235	4	46	2	120	220	320	NaN	520	0.255871875677258	1	1	NaN	3012754.6227512	NaN	3012755.6060478	3012756.12270582
90	20	0	0	90	36.1581920903955	36.241610738255	13	0.433376892190427	2	12	6	NaN	2	3	0.325689784324022	0	1	NaN	236	4	47	2	120	220	320	NaN	520	0.237693223636597	2	1	NaN	3012757.4563602	NaN	3012758.4397691	3012758.95631868
90	20	0	0	90	36.1581920903955	36.241610738255	24	0.800080416351557	2	8	3	NaN	2	3	0.325689784324022	0	1	NaN	237	4	48	2	120	220	320	NaN	520	0.287545775528997	2	1	NaN	3012760.0066124	NaN	3012760.9900163	3012761.50656982
90	20	0	0	90	36.1581920903955	36.241610738255	13	0.433376892190427	2	10	1	NaN	2	3	0.325689784324022	0	1	NaN	238	4	49	2	120	220	320	NaN	520	0.191048475913703	2	1	NaN	3012762.8234762	NaN	3012763.8069749	3012764.32351722
90	20	0	0	90	36.1581920903955	36.241610738255	12	0.400040208175778	2	10	3	NaN	2	3	0.325689784324022	0	1	NaN	239	4	50	2	120	220	320	NaN	520	0.234281175304204	2	1	NaN	3012765.3238881	NaN	3012766.3072133	3012766.82375862
90	20	0	0	90	36.1581920903955	36.241610738255	8	0.266693472117186	2	7	3	NaN	2	5	0.325689784324022	0	1	NaN	240	4	51	2	120	220	320	NaN	520	0.188238275237381	2	1	NaN	3012767.8740505	NaN	3012768.8574491	3012769.37401362
90	20	0	0	90	36.1581920903955	36.241610738255	10	0.333366840146482	2	4	1	NaN	1	3	0.325689784324022	0	1	NaN	241	4	52	2	120	220	320	NaN	520	0.160079223569483	1	1	NaN	3012770.3744054	NaN	3012771.3577009	3012771.87425748
90	20	0	0	90	36.1581920903955	36.241610738255	19	0.633396996278316	2	3	2	NaN	1	5	0.325689784324022	0	1	NaN	242	4	53	2	120	220	320	NaN	520	0.309507823549211	1	1	NaN	3012772.8411403	NaN	3012773.8246033	3012774.34115328
90	20	0	0	90	36.1581920903955	36.241610738255	16	0.533386944234371	2	3	3	NaN	1	3	0.325689784324022	0	1	NaN	243	4	54	2	120	220	320	NaN	520	0.19632047554478	1	1	NaN	3012775.4581821	NaN	3012776.4415184	3012776.95808172
90	20	0	0	90	36.1581920903955	36.241610738255	23	0.766743732336909	2	2	5	NaN	1	3	0.325689784324022	0	1	NaN	244	4	55	2	120	220	320	NaN	520	0.342276427429169	1	1	NaN	3012778.2083728	NaN	3012779.1918194	3012779.70835627
90	20	0	0	90	36.1581920903955	36.241610738255	25	0.833417100366205	2	1	3	NaN	1	4	0.325689784324022	0	1	NaN	245	4	56	2	120	220	320	NaN	520	0.422433623578399	2	0	NaN	3012781.7920759	NaN	3012782.7755052	3012783.29203218
90	20	0	0	90	36.1581920903955	36.241610738255	15	0.500050260219723	2	11	3	NaN	2	5	0.325689784324022	0	1	NaN	246	4	57	2	120	220	320	NaN	520	0.26496682362631	2	1	NaN	3012784.9257215	NaN	3012785.9091807	3012786.42568198
90	20	0	0	90	36.1581920903955	36.241610738255	24	0.800080416351557	2	10	3	NaN	2	3	0.325689784324022	0	1	NaN	247	4	58	2	120	220	320	NaN	520	0.28905327571556	2	1	NaN	3012787.5093094	NaN	3012788.4927084	3012789.00926272
90	20	0	0	90	36.1581920903955	36.241610738255	11	0.36670352416113	2	12	3	NaN	2	4	0.325689784324022	0	1	NaN	248	4	59	2	120	220	320	NaN	520	0.128766275476664	2	1	NaN	3012790.1094562	NaN	3012791.092931	3012791.60952542
90	20	0	0	90	36.1581920903955	36.241610738255	20	0.666733680292964	2	5	4	NaN	1	3	0.325689784324022	0	1	NaN	249	4	60	2	120	220	320	NaN	520	0.185821275692433	1	1	NaN	3012793.8765981	NaN	3012794.8599957	3012795.37656222
90	20	0	0	90	36.1581920903955	36.241610738255	7	0.233356788102537	2	4	1	NaN	1	3	0.325689784324022	0	1	NaN	250	4	61	2	120	220	320	NaN	520	0.189651727676392	1	1	NaN	3012796.3767672	NaN	3012797.3602551	3012797.87681157
90	20	0	0	90	36.1581920903955	36.241610738255	7	0.233356788102537	2	12	2	NaN	2	4	0.325689784324022	0	1	NaN	251	4	62	2	120	220	320	NaN	520	0.54268227564171	2	1	NaN	3012802.1440723	NaN	3012803.1274831	3012803.64403812
90	20	0	0	90	36.1581920903955	36.241610738255	22	0.73340704832226	2	3	1	NaN	1	5	0.325689784324022	0	1	NaN	252	4	63	2	120	220	320	NaN	520	0.323367975652218	2	0	NaN	3012805.0110492	NaN	3012805.994464	3012806.51099172
90	20	0	0	90	36.1581920903955	36.241610738255	20	0.666733680292964	2	6	5	NaN	1	3	0.325689784324022	0	1	NaN	253	5	1	2	120	220	320	NaN	520	0.239366427995265	1	1	NaN	3012840.2311834	NaN	3012841.2145625	3012841.73111197
90	20	0	0	90	36.1581920903955	36.241610738255	6	0.200020104087889	2	6	1	NaN	1	3	0.325689784324022	0	1	NaN	254	5	2	2	120	220	320	NaN	520	0.23306227568537	1	1	NaN	3012842.7812761	NaN	3012843.7648567	3012844.28135982
90	20	0	0	90	36.1581920903955	36.241610738255	16	0.533386944234371	2	7	5	NaN	2	3	0.325689784324022	0	1	NaN	255	5	3	2	120	220	320	NaN	520	0.186820943839848	2	1	NaN	3012845.331663	NaN	3012846.3150669	3012846.83161686
90	20	0	0	90	36.1581920903955	36.241610738255	8	0.266693472117186	2	9	3	NaN	2	3	0.325689784324022	0	1	NaN	256	5	4	2	120	220	320	NaN	520	0.261380019132048	2	1	NaN	3012847.8652225	NaN	3012848.848657	3012849.36518608
90	20	0	0	90	36.1581920903955	36.241610738255	20	0.666733680292964	2	9	1	NaN	2	5	0.325689784324022	0	1	NaN	257	5	5	2	120	220	320	NaN	520	0.213982627727091	2	1	NaN	3012850.4321672	NaN	3012851.4155243	3012851.93211067
90	20	0	0	90	36.1581920903955	36.241610738255	19	0.633396996278316	2	12	3	NaN	2	4	0.325689784324022	0	1	NaN	258	5	6	2	120	220	320	NaN	520	0.120879175607115	2	1	NaN	3012852.9657393	NaN	3012853.9491705	3012854.46569822
90	20	0	0	90	36.1581920903955	36.241610738255	14	0.466713576205075	2	5	6	NaN	1	5	0.325689784324022	0	1	NaN	259	5	7	2	120	220	320	NaN	520	0.175253923516721	1	1	NaN	3012855.3993173	NaN	3012856.3827277	3012856.89926788
90	20	0	0	90	36.1581920903955	36.241610738255	12	0.400040208175778	2	12	4	NaN	2	5	0.325689784324022	0	1	NaN	260	5	8	2	120	220	320	NaN	520	0.195448127575219	2	1	NaN	3012857.8828927	NaN	3012858.8662833	3012859.38284767
90	20	0	0	90	36.1581920903955	36.241610738255	12	0.400040208175778	2	3	2	NaN	1	3	0.325689784324022	0	1	NaN	261	5	9	2	120	220	320	NaN	520	0.159548227675259	1	1	NaN	3012860.3831637	NaN	3012861.3665357	3012861.88309467
90	20	0	0	90	36.1581920903955	36.241610738255	18	0.600060312263668	2	4	6	NaN	1	4	0.325689784324022	0	1	NaN	262	5	10	2	120	220	320	NaN	520	0.612758675590158	1	1	NaN	3012862.8499255	NaN	3012863.8334549	3012864.34999412
90	20	0	0	90	36.1581920903955	36.241610738255	14	0.466713576205075	2	6	2	NaN	1	4	0.325689784324022	0	1	NaN	263	5	11	2	120	220	320	NaN	520	0.383216627407819	1	1	NaN	3012865.7836664	NaN	3012866.7670662	3012867.28362637
90	20	0	0	90	36.1581920903955	36.241610738255	9	0.300030156131834	2	1	4	NaN	1	4	0.325689784324022	0	1	NaN	264	5	12	2	120	220	320	NaN	520	0.13861012738198	1	1	NaN	3012868.4839292	NaN	3012869.467287	3012869.98389047
90	20	0	0	90	36.1581920903955	36.241610738255	16	0.533386944234371	2	5	5	NaN	1	3	0.325689784324022	0	1	NaN	265	5	13	2	120	220	320	NaN	520	0.128379175439477	1	1	NaN	3012870.9341938	NaN	3012871.9176181	3012872.43412832
90	20	0	0	90	36.1581920903955	36.241610738255	17	0.566723628249019	2	9	2	NaN	2	3	0.325689784324022	0	1	NaN	266	5	14	2	120	220	320	NaN	520	0.110785075463355	2	1	NaN	3012873.3677021	NaN	3012874.3511321	3012874.86769712
90	20	0	0	90	36.1581920903955	36.241610738255	17	0.566723628249019	2	4	5	NaN	1	5	0.325689784324022	0	1	NaN	267	5	15	2	120	220	320	NaN	520	0.133675375487655	1	1	NaN	3012875.8013116	NaN	3012876.7847305	3012877.30126372
90	20	0	0	90	36.1581920903955	36.241610738255	17	0.566723628249019	2	10	5	NaN	2	4	0.325689784324022	0	1	NaN	268	5	16	2	120	220	320	NaN	520	0.155230227857828	2	1	NaN	3012878.2515669	NaN	3012879.2349854	3012879.75151537
90	20	0	0	90	36.1581920903955	36.241610738255	0	0	1	7	6	NaN	2	5	0.325689784324022	0	1	NaN	269	5	17	2	110	210	310	NaN	510	0.128179375547916	2	1	NaN	3012880.7184894	NaN	3012881.7018831	3012882.21842262
90	20	0	0	90	36.1581920903955	36.241610738255	16	0.533386944234371	2	7	4	NaN	2	3	0.325689784324022	0	1	NaN	270	5	18	2	120	220	320	NaN	520	0.150099939666688	2	1	NaN	3012883.1687086	NaN	3012884.1520877	3012884.66865816
90	20	0	0	90	36.1581920903955	36.241610738255	17	0.566723628249019	2	8	3	NaN	2	4	0.325689784324022	0	1	NaN	271	5	19	2	120	220	320	NaN	520	0.155251875519753	2	1	NaN	3012885.63562	NaN	3012886.6190315	3012887.13557152
90	20	0	0	90	36.1581920903955	36.241610738255	18	0.600060312263668	2	10	6	NaN	2	4	0.325689784324022	0	1	NaN	272	5	20	2	120	220	320	NaN	520	0.16000827588141	2	1	NaN	3012888.1024818	NaN	3012889.0859362	3012889.60248052
90	20	0	0	90	36.1581920903955	36.241610738255	15	0.500050260219723	2	8	6	NaN	2	5	0.325689784324022	0	1	NaN	273	5	21	2	120	220	320	NaN	520	0.149181975517422	2	1	NaN	3012890.7694557	NaN	3012891.7528925	3012892.26940652
90	20	0	0	90	36.1581920903955	36.241610738255	15	0.500050260219723	2	1	2	NaN	1	4	0.325689784324022	0	1	NaN	274	5	22	2	120	220	320	NaN	520	0.154475027695298	1	1	NaN	3012893.2363725	NaN	3012894.2197972	3012894.73631447
90	20	0	0	90	36.1581920903955	36.241610738255	7	0.233356788102537	2	2	5	NaN	1	4	0.325689784324022	0	1	NaN	275	5	23	2	120	220	320	NaN	520	0.103253427892923	1	1	NaN	3012895.7032965	NaN	3012896.6867756	3012897.20322117
90	20	0	0	90	36.1581920903955	36.241610738255	11	0.36670352416113	2	8	2	NaN	2	3	0.325689784324022	0	1	NaN	276	5	24	2	120	220	320	NaN	520	0.214361071586609	2	1	NaN	3012898.1201715	NaN	3012899.1035863	3012899.62012173
90	20	0	0	90	36.1581920903955	36.241610738255	0	0	1	12	1	NaN	2	3	0.325689784324022	0	1	NaN	277	5	25	2	110	210	310	NaN	510	0.409569979645312	2	1	NaN	3012900.6369665	NaN	3012901.6205419	3012902.13703882
90	20	0	0	90	36.1581920903955	36.241610738255	22	0.73340704832226	2	6	2	NaN	1	3	0.325689784324022	0	1	NaN	278	5	26	2	120	220	320	NaN	520	0.188625227659941	1	1	NaN	3012903.3538916	NaN	3012904.3374183	3012904.85398217
90	20	0	0	90	36.1581920903955	36.241610738255	25	0.833417100366205	2	12	5	NaN	2	3	0.325689784324022	0	1	NaN	279	5	27	2	120	220	320	NaN	520	0.295943475794047	1	0	NaN	3012905.8541708	NaN	3012906.8376894	3012907.35421282
90	20	0	0	90	36.1581920903955	36.241610738255	0	0	1	6	4	NaN	1	4	0.325689784324022	0	1	NaN	280	5	28	2	110	210	310	NaN	510	0.18343167565763	1	1	NaN	3012908.4712166	NaN	3012909.4546151	3012909.97115602
90	20	0	0	90	36.1581920903955	36.241610738255	15	0.500050260219723	2	11	5	NaN	2	3	0.325689784324022	0	1	NaN	281	5	29	2	120	220	320	NaN	520	0.299112423323095	1	0	NaN	3012910.9714526	NaN	3012911.9548309	3012912.47138788
90	20	0	0	90	36.1581920903955	36.241610738255	16	0.533386944234371	2	12	1	NaN	2	5	0.325689784324022	0	1	NaN	282	5	30	2	120	220	320	NaN	520	0.218506475444883	1	0	NaN	3012913.5884043	NaN	3012914.5717754	3012915.08831662
90	20	0	0	90	36.1581920903955	36.241610738255	10	0.333366840146482	2	11	1	NaN	2	4	0.325689784324022	0	1	NaN	283	5	31	2	120	220	320	NaN	520	0.0103322356007993	2	1	NaN	3012916.1219473	NaN	3012917.1053524	3012917.62189916
90	20	0	0	90	36.1581920903955	36.241610738255	21	0.700070364307612	2	7	4	NaN	2	4	0.325689784324022	0	1	NaN	284	5	32	2	120	220	320	NaN	520	0.15931807551533	2	1	NaN	3012918.4555079	NaN	3012919.4389184	3012919.95546142
90	20	0	0	90	36.1581920903955	36.241610738255	22	0.73340704832226	2	9	3	NaN	2	3	0.325689784324022	0	1	NaN	285	5	33	2	120	220	320	NaN	520	0.534866575617343	2	1	NaN	3012921.2557061	NaN	3012922.2391874	3012922.75573322
90	20	0	0	90	36.1581920903955	36.241610738255	21	0.700070364307612	2	12	4	NaN	2	4	0.325689784324022	0	1	NaN	286	5	34	2	120	220	320	NaN	520	0.0765393837355077	2	1	NaN	3012924.1060845	NaN	3012925.0894626	3012925.60602112
90	20	0	0	90	36.1581920903955	36.241610738255	8	0.266693472117186	2	1	5	NaN	1	4	0.325689784324022	0	1	NaN	287	5	35	2	120	220	320	NaN	520	0.237061723601073	2	0	NaN	3012926.4896118	NaN	3012927.4730334	3012927.98957288
90	20	0	0	90	36.1581920903955	36.241610738255	13	0.433376892190427	2	7	2	NaN	2	3	0.325689784324022	0	1	NaN	288	5	36	2	120	220	320	NaN	520	0.142762723378837	2	1	NaN	3012929.0397435	NaN	3012930.0233431	3012930.53982168
90	20	0	0	90	36.1581920903955	36.241610738255	15	0.500050260219723	2	6	4	NaN	1	4	0.325689784324022	0	1	NaN	289	5	37	2	120	220	320	NaN	520	0.196340223774314	1	1	NaN	3012931.4901149	NaN	3012932.4735192	3012932.99006588
90	20	0	0	90	36.1581920903955	36.241610738255	25	0.833417100366205	2	1	2	NaN	1	5	0.325689784324022	0	1	NaN	290	5	38	2	120	220	320	NaN	520	0.551659371238202	1	1	NaN	3012934.0070472	NaN	3012934.9904806	3012935.50698243
90	20	0	0	90	36.1581920903955	36.241610738255	15	0.500050260219723	2	12	3	NaN	2	4	0.325689784324022	0	1	NaN	291	5	39	2	120	220	320	NaN	520	0.444828575942665	1	0	NaN	3012936.8739806	NaN	3012937.8573914	3012938.37393062
90	20	0	0	90	36.1581920903955	36.241610738255	6	0.200020104087889	2	9	3	NaN	2	5	0.325689784324022	0	1	NaN	292	5	40	2	120	220	320	NaN	520	0.933798675425351	2	1	NaN	3012939.6409253	NaN	3012940.6243406	3012941.14087322
90	20	0	0	90	36.1581920903955	36.241610738255	12	0.400040208175778	2	9	5	NaN	2	3	0.325689784324022	0	1	NaN	293	5	41	2	120	220	320	NaN	520	0.13146147551015	2	1	NaN	3012942.891243	NaN	3012943.8746448	3012944.39119082
90	20	0	0	90	36.1581920903955	36.241610738255	21	0.700070364307612	2	7	2	NaN	2	4	0.325689784324022	0	1	NaN	294	5	42	2	120	220	320	NaN	520	0.18519912334159	1	0	NaN	3012945.3414826	NaN	3012946.3248873	3012946.84144008
90	20	0	0	90	36.1581920903955	36.241610738255	13	0.433376892190427	2	12	2	NaN	2	4	0.325689784324022	0	1	NaN	295	5	43	2	120	220	320	NaN	520	0.309265175834298	2	1	NaN	3012947.8417176	NaN	3012948.8251246	3012949.34168752
90	20	0	0	90	36.1581920903955	36.241610738255	16	0.533386944234371	2	12	1	NaN	2	3	0.325689784324022	0	1	NaN	296	5	44	2	120	220	320	NaN	520	0.308103823568672	2	1	NaN	3012950.4586572	NaN	3012951.442042	3012951.95860168
90	20	0	0	90	36.1581920903955	36.241610738255	10	0.333366840146482	2	1	1	NaN	1	4	0.325689784324022	0	1	NaN	297	5	45	2	120	220	320	NaN	520	2.19494237564504	1	1	NaN	3012953.0755807	NaN	3012954.0589822	3012954.57551752
90	20	0	0	90	36.1581920903955	36.241610738255	8	0.266693472117186	2	1	1	NaN	1	3	0.325689784324022	0	1	NaN	298	5	46	2	120	220	320	NaN	520	0.126722739543766	1	1	NaN	3012957.5760073	NaN	3012958.5594122	3012959.07597066
90	20	0	0	90	36.1581920903955	36.241610738255	15	0.500050260219723	2	1	4	NaN	1	3	0.325689784324022	0	1	NaN	299	5	47	2	120	220	320	NaN	520	0.172217975836247	1	1	NaN	3012960.0262509	NaN	3012961.0097011	3012961.52620032
90	20	0	0	90	36.1581920903955	36.241610738255	7	0.233356788102537	2	5	2	NaN	1	4	0.325689784324022	0	1	NaN	300	5	48	2	120	220	320	NaN	520	0.224740528035909	1	1	NaN	3012962.5099192	NaN	3012963.4932412	3012964.00978797
90	20	0	0	90	36.1581920903955	36.241610738255	11	0.36670352416113	2	5	6	NaN	1	4	0.325689784324022	0	1	NaN	301	5	49	2	120	220	320	NaN	520	0.2751598758623	1	1	NaN	3012965.0434343	NaN	3012966.0268162	3012966.54335842
90	20	0	0	90	36.1581920903955	36.241610738255	17	0.566723628249019	2	9	1	NaN	2	5	0.325689784324022	0	1	NaN	302	5	50	2	120	220	320	NaN	520	0.259631175547838	2	1	NaN	3012967.6268921	NaN	3012968.610394	3012969.12694602
90	20	0	0	90	36.1581920903955	36.241610738255	19	0.633396996278316	2	8	3	NaN	2	5	0.325689784324022	0	1	NaN	303	5	51	2	120	220	320	NaN	520	0.157033035997301	2	1	NaN	3012970.1939187	NaN	3012971.1773275	3012971.69387926
90	20	0	0	90	36.1581920903955	36.241610738255	12	0.400040208175778	2	5	3	NaN	1	5	0.325689784324022	0	1	NaN	304	5	52	2	120	220	320	NaN	520	0.217855023220181	2	0	NaN	3012972.6608567	NaN	3012973.6441754	3012974.16077228
90	20	0	0	90	36.1581920903955	36.241610738255	20	0.666733680292964	2	12	4	NaN	2	5	0.325689784324022	0	1	NaN	305	5	53	2	120	220	320	NaN	520	0.0839107921347022	2	1	NaN	3012975.1944184	NaN	3012976.1778046	3012976.69435841
90	20	0	0	90	36.1581920903955	36.241610738255	23	0.766743732336909	2	8	3	NaN	2	3	0.325689784324022	0	1	NaN	306	5	54	2	120	220	320	NaN	520	0.252032975666225	2	1	NaN	3012977.5946536	NaN	3012978.5780637	3012979.09460432
90	20	0	0	90	36.1581920903955	36.241610738255	13	0.433376892190427	2	2	1	NaN	1	3	0.325689784324022	0	1	NaN	307	5	55	2	120	220	320	NaN	520	0.0530706751160324	1	1	NaN	3012980.1614948	NaN	3012981.1449782	3012981.66152152
90	20	0	0	90	36.1581920903955	36.241610738255	17	0.566723628249019	2	3	6	NaN	1	4	0.325689784324022	0	1	NaN	308	5	56	2	120	220	320	NaN	520	0.230129575356841	1	1	NaN	3012982.5284589	NaN	3012983.5118592	3012984.02841442
90	20	0	0	90	36.1581920903955	36.241610738255	7	0.233356788102537	2	2	1	NaN	1	4	0.325689784324022	0	1	NaN	309	5	57	2	120	220	320	NaN	520	0.232197923585773	1	1	NaN	3012985.0787221	NaN	3012986.0621137	3012986.57866328
90	20	0	0	90	36.1581920903955	36.241610738255	11	0.36670352416113	2	10	6	NaN	2	5	0.325689784324022	0	1	NaN	310	5	58	2	120	220	320	NaN	520	0.137952627614141	2	1	NaN	3012987.6289725	NaN	3012988.6123736	3012989.12891987
90	20	0	0	90	36.1581920903955	36.241610738255	22	0.73340704832226	2	4	4	NaN	1	5	0.325689784324022	0	1	NaN	311	5	59	2	120	220	320	NaN	520	0.239802475553006	1	1	NaN	3012990.0792127	NaN	3012991.0626029	3012991.57915352
90	20	0	0	90	36.1581920903955	36.241610738255	20	0.666733680292964	2	4	2	NaN	1	4	0.325689784324022	0	1	NaN	312	5	60	2	120	220	320	NaN	520	0.0733038755133748	1	1	NaN	3012992.6294852	NaN	3012993.6128647	3012994.12939842
90	20	0	0	90	36.1581920903955	36.241610738255	22	0.73340704832226	2	6	1	NaN	1	5	0.325689784324022	0	1	NaN	313	5	61	2	120	220	320	NaN	520	0.122009775601327	1	1	NaN	3012995.0128903	NaN	3012995.9964944	3012996.51298022
90	20	0	0	90	36.1581920903955	36.241610738255	14	0.466713576205075	2	3	3	NaN	1	5	0.325689784324022	0	1	NaN	314	5	62	2	120	220	320	NaN	520	0.456103175412863	1	1	NaN	3012997.4466184	NaN	3012998.4299766	3012998.94654832
90	20	0	0	90	36.1581920903955	36.241610738255	12	0.400040208175778	2	4	5	NaN	1	3	0.325689784324022	0	1	NaN	315	5	63	2	120	220	320	NaN	520	0.12126062810421	1	1	NaN	3013000.2134182	NaN	3013001.1969437	3013001.71348957
90	20	0	0	90	36.1581920903955	36.241610738255	13	0.433376892190427	2	4	1	NaN	1	4	0.325689784324022	0	1	NaN	316	6	1	2	120	220	320	NaN	520	0.28883212339133	2	0	NaN	3013048.1182688	NaN	3013049.101638	3013049.61818628
90	20	0	0	90	36.1581920903955	36.241610738255	0	0	1	7	5	NaN	2	5	0.325689784324022	0	1	NaN	317	6	2	2	110	210	310	NaN	510	0.104310075286776	2	1	NaN	3013050.718486	NaN	3013051.7019527	3013052.21844592
90	20	0	0	90	36.1581920903955	36.241610738255	21	0.700070364307612	2	4	4	NaN	1	4	0.325689784324022	0	1	NaN	318	6	3	2	120	220	320	NaN	520	0.183746875263751	1	1	NaN	3013053.1353959	NaN	3013054.118766	3013054.63534542
90	20	0	0	90	36.1581920903955	36.241610738255	24	0.800080416351557	2	7	1	NaN	2	4	0.325689784324022	0	1	NaN	319	6	4	2	120	220	320	NaN	520	0.0751157756894827	2	1	NaN	3013055.6355133	NaN	3013056.6190739	3013057.13559592
90	20	0	0	90	36.1581920903955	36.241610738255	8	0.266693472117186	2	4	4	NaN	1	3	0.325689784324022	0	1	NaN	320	6	5	2	120	220	320	NaN	520	0.0376153755933046	2	0	NaN	3013058.3692345	NaN	3013059.3525359	3013059.86919232
90	20	0	0	90	36.1581920903955	36.241610738255	16	0.533386944234371	2	4	5	NaN	1	3	0.325689784324022	0	1	NaN	321	6	6	2	120	220	320	NaN	520	0.119702723342925	1	1	NaN	3013060.7194863	NaN	3013061.7028682	3013062.21942178
90	20	0	0	90	36.1581920903955	36.241610738255	25	0.833417100366205	2	9	4	NaN	2	4	0.325689784324022	0	1	NaN	322	6	7	2	120	220	320	NaN	520	0.072340723592788	2	1	NaN	3013063.4863878	NaN	3013064.4698239	3013064.98635778
90	20	0	0	90	36.1581920903955	36.241610738255	8	0.266693472117186	2	6	2	NaN	1	5	0.325689784324022	0	1	NaN	323	6	8	2	120	220	320	NaN	520	0.137202283833176	1	1	NaN	3013065.8699743	NaN	3013066.853386	3013067.36992782
90	20	0	0	90	36.1581920903955	36.241610738255	11	0.36670352416113	2	6	5	NaN	1	4	0.325689784324022	0	1	NaN	324	6	9	2	120	220	320	NaN	520	0.13478942355141	1	1	NaN	3013068.3201147	NaN	3013069.3036331	3013069.82016418
90	20	0	0	90	36.1581920903955	36.241610738255	16	0.533386944234371	2	3	6	NaN	1	5	0.325689784324022	0	1	NaN	325	6	10	2	120	220	320	NaN	520	0.228628375567496	1	1	NaN	3013070.7704643	NaN	3013071.7538675	3013072.27040242
90	20	0	0	90	36.1581920903955	36.241610738255	14	0.466713576205075	2	12	6	NaN	2	3	0.325689784324022	0	1	NaN	326	6	11	2	120	220	320	NaN	520	0.230963723734021	1	0	NaN	3013073.3040527	NaN	3013074.287449	3013074.80398658
90	20	0	0	90	36.1581920903955	36.241610738255	10	0.333366840146482	2	1	2	NaN	1	3	0.325689784324022	0	1	NaN	327	6	12	2	120	220	320	NaN	520	0.0884977709501982	1	1	NaN	3013075.8542804	NaN	3013076.8376965	3013077.35423513
90	20	0	0	90	36.1581920903955	36.241610738255	11	0.36670352416113	2	7	1	NaN	2	4	0.325689784324022	0	1	NaN	328	6	13	2	120	220	320	NaN	520	0.160222427919507	1	0	NaN	3013078.2546183	NaN	3013079.23794	3013079.75448587
90	20	0	0	90	36.1581920903955	36.241610738255	14	0.466713576205075	2	2	4	NaN	1	5	0.325689784324022	0	1	NaN	329	6	14	2	120	220	320	NaN	520	0.205403675325215	1	1	NaN	3013080.7214546	NaN	3013081.7048679	3013082.22138142
90	20	0	0	90	36.1581920903955	36.241610738255	6	0.200020104087889	2	1	3	NaN	1	3	0.325689784324022	0	1	NaN	330	6	15	2	120	220	320	NaN	520	0.120479323435575	1	1	NaN	3013083.2383605	NaN	3013084.2217628	3013084.73829228
90	20	0	0	90	36.1581920903955	36.241610738255	7	0.233356788102537	2	3	6	NaN	1	4	0.325689784324022	0	1	NaN	331	6	16	2	120	220	320	NaN	520	0.214921019040048	1	1	NaN	3013085.6719191	NaN	3013086.6553334	3013087.17186398
90	20	0	0	90	36.1581920903955	36.241610738255	25	0.833417100366205	2	5	2	NaN	1	4	0.325689784324022	0	1	NaN	332	6	17	2	120	220	320	NaN	520	0.193378828000277	1	1	NaN	3013088.2055273	NaN	3013089.1889041	3013089.70545057
90	20	0	0	90	36.1581920903955	36.241610738255	21	0.700070364307612	2	4	5	NaN	1	5	0.325689784324022	0	1	NaN	333	6	18	2	120	220	320	NaN	520	0.18878207122907	1	1	NaN	3013090.7224244	NaN	3013091.7058022	3013092.22236703
90	20	0	0	90	36.1581920903955	36.241610738255	16	0.533386944234371	2	9	4	NaN	2	3	0.325689784324022	0	1	NaN	334	6	19	2	120	220	320	NaN	520	0.200065375771374	1	0	NaN	3013093.2226663	NaN	3013094.2060706	3013094.72260692
90	20	0	0	90	36.1581920903955	36.241610738255	12	0.400040208175778	2	10	1	NaN	2	4	0.325689784324022	0	1	NaN	335	6	20	2	120	220	320	NaN	520	0.144067344255745	2	1	NaN	3013097.0230119	NaN	3013098.0064346	3013098.52300316
90	20	0	0	90	36.1581920903955	36.241610738255	13	0.433376892190427	2	1	4	NaN	1	3	0.325689784324022	0	1	NaN	336	6	21	2	120	220	320	NaN	520	0.189637975301594	1	1	NaN	3013099.4731548	NaN	3013100.456685	3013100.97322822
90	20	0	0	90	36.1581920903955	36.241610738255	18	0.600060312263668	2	6	4	NaN	1	5	0.325689784324022	0	1	NaN	337	6	22	2	120	220	320	NaN	520	0.12973982328549	1	1	NaN	3013101.9735362	NaN	3013102.9569141	3013103.47347688
90	20	0	0	90	36.1581920903955	36.241610738255	8	0.266693472117186	2	6	4	NaN	1	5	0.325689784324022	0	1	NaN	338	6	23	2	120	220	320	NaN	520	0.143202675506473	1	1	NaN	3013104.4237722	NaN	3013105.4071669	3013105.92371592
90	20	0	0	90	36.1581920903955	36.241610738255	18	0.600060312263668	2	12	5	NaN	2	5	0.325689784324022	0	1	NaN	339	6	24	2	120	220	320	NaN	520	0.157006623223424	2	1	NaN	3013106.8740416	NaN	3013107.8574679	3013108.37395878
90	20	0	0	90	36.1581920903955	36.241610738255	8	0.266693472117186	2	5	2	NaN	1	4	0.325689784324022	0	1	NaN	340	6	25	2	120	220	320	NaN	520	0.2339125755243	2	0	NaN	3013109.34093	NaN	3013110.3243181	3013110.84086432
90	20	0	0	90	36.1581920903955	36.241610738255	6	0.200020104087889	2	8	2	NaN	2	3	0.325689784324022	0	1	NaN	341	6	26	2	120	220	320	NaN	520	0.0597097752615809	2	1	NaN	3013111.8911686	NaN	3013112.874569	3013113.39111612
90	20	0	0	90	36.1581920903955	36.241610738255	10	0.333366840146482	2	9	5	NaN	2	3	0.325689784324022	0	1	NaN	342	6	27	2	120	220	320	NaN	520	1.50079852342606	1	0	NaN	3013114.2581406	NaN	3013115.2414738	3013115.75800678
90	20	0	0	90	36.1581920903955	36.241610738255	19	0.633396996278316	2	7	3	NaN	2	3	0.325689784324022	0	1	NaN	343	6	28	2	120	220	320	NaN	520	0.163769727572799	1	0	NaN	3013118.0750937	NaN	3013119.0585056	3013119.57504907
90	20	0	0	90	36.1581920903955	36.241610738255	14	0.466713576205075	2	1	6	NaN	1	4	0.325689784324022	0	1	NaN	344	6	29	2	120	220	320	NaN	520	0.232297975569963	2	0	NaN	3013120.5586887	NaN	3013121.5420916	3013122.05862812
90	20	0	0	90	36.1581920903955	36.241610738255	15	0.500050260219723	2	8	1	NaN	2	5	0.325689784324022	0	1	NaN	345	6	30	2	120	220	320	NaN	520	0.442102723754942	1	0	NaN	3013123.3090408	NaN	3013124.2923479	3013124.80889328
90	20	0	0	90	36.1581920903955	36.241610738255	17	0.566723628249019	2	12	1	NaN	2	3	0.325689784324022	0	1	NaN	346	6	31	2	120	220	320	NaN	520	0.155683423392475	1	0	NaN	3013126.059149	NaN	3013127.0426344	3013127.55917428
90	20	0	0	90	36.1581920903955	36.241610738255	17	0.566723628249019	2	6	6	NaN	1	3	0.325689784324022	0	1	NaN	347	6	32	2	120	220	320	NaN	520	0.193002139683813	1	1	NaN	3013128.92615	NaN	3013129.9095666	3013130.42613056
90	20	0	0	90	36.1581920903955	36.241610738255	15	0.500050260219723	2	5	5	NaN	1	4	0.325689784324022	0	1	NaN	348	6	33	2	120	220	320	NaN	520	1.12398491520435	1	1	NaN	3013132.4431897	NaN	3013133.4265887	3013133.94312458
90	20	0	0	90	36.1581920903955	36.241610738255	15	0.500050260219723	2	5	1	NaN	1	3	0.325689784324022	0	1	NaN	349	6	34	2	120	220	320	NaN	520	0.263659875374287	1	1	NaN	3013135.9435104	NaN	3013136.9269098	3013137.44348602
90	20	0	0	90	36.1581920903955	36.241610738255	19	0.633396996278316	2	2	6	NaN	1	4	0.325689784324022	0	1	NaN	350	6	35	2	120	220	320	NaN	520	0.153771123383194	2	0	NaN	3013139.8771156	NaN	3013140.8606546	3013141.37718808
90	20	0	0	90	36.1581920903955	36.241610738255	13	0.433376892190427	2	1	1	NaN	1	4	0.325689784324022	0	1	NaN	351	6	36	2	120	220	320	NaN	520	0.128224775195122	2	0	NaN	3013142.7107374	NaN	3013143.6942554	3013144.21080672
90	20	0	0	90	36.1581920903955	36.241610738255	16	0.533386944234371	2	1	4	NaN	1	5	0.325689784324022	0	1	NaN	352	6	37	2	120	220	320	NaN	520	0.15080467518419	1	1	NaN	3013145.5444536	NaN	3013146.5279499	3013147.04442142
90	20	0	0	90	36.1581920903955	36.241610738255	11	0.36670352416113	2	6	5	NaN	1	3	0.325689784324022	0	1	NaN	353	6	38	2	120	220	320	NaN	520	0.124842827674001	1	1	NaN	3013148.5780949	NaN	3013149.5615054	3013150.07805477
90	20	0	0	90	36.1581920903955	36.241610738255	8	0.266693472117186	2	10	2	NaN	2	4	0.325689784324022	0	1	NaN	354	6	39	2	120	220	320	NaN	520	0.0752361756749451	2	1	NaN	3013151.0116818	NaN	3013151.995081	3013152.51162322
90	20	0	0	90	36.1581920903955	36.241610738255	17	0.566723628249019	2	2	4	NaN	1	4	0.325689784324022	0	1	NaN	355	6	40	2	120	220	320	NaN	520	0.107296427711844	2	0	NaN	3013153.3952277	NaN	3013154.3786485	3013154.89519557
90	20	0	0	90	36.1581920903955	36.241610738255	22	0.73340704832226	2	3	5	NaN	1	5	0.325689784324022	0	1	NaN	356	6	41	2	120	220	320	NaN	520	0.146419175434858	1	1	NaN	3013155.8122549	NaN	3013156.7955488	3013157.31208932
90	20	0	0	90	36.1581920903955	36.241610738255	21	0.700070364307612	2	8	1	NaN	2	5	0.325689784324022	0	1	NaN	357	6	42	2	120	220	320	NaN	520	0.489549523219466	2	1	NaN	3013158.6456237	NaN	3013159.6291475	3013160.14570408
90	20	0	0	90	36.1581920903955	36.241610738255	23	0.766743732336909	2	5	1	NaN	1	5	0.325689784324022	0	1	NaN	358	6	43	2	120	220	320	NaN	520	0.280124775599688	2	0	NaN	3013161.6627201	NaN	3013162.646116	3013163.16265962
90	20	0	0	90	36.1581920903955	36.241610738255	19	0.633396996278316	2	1	5	NaN	1	3	0.325689784324022	0	1	NaN	359	6	44	2	120	220	320	NaN	520	0.314782475586981	2	0	NaN	3013165.3963156	NaN	3013166.379807	3013166.89636582
90	20	0	0	90	36.1581920903955	36.241610738255	11	0.36670352416113	2	3	2	NaN	1	5	0.325689784324022	0	1	NaN	360	6	45	2	120	220	320	NaN	520	0.249171075876802	1	1	NaN	3013168.0300035	NaN	3013169.0133843	3013169.52995222
90	20	0	0	90	36.1581920903955	36.241610738255	21	0.700070364307612	2	10	4	NaN	2	3	0.325689784324022	0	1	NaN	361	6	46	2	120	220	320	NaN	520	0.190074427984655	2	1	NaN	3013173.4804731	NaN	3013174.4639471	3013174.98049607
90	20	0	0	90	36.1581920903955	36.241610738255	20	0.666733680292964	2	10	1	NaN	2	3	0.325689784324022	0	1	NaN	362	6	47	2	120	220	320	NaN	520	0.266204727813601	2	1	NaN	3013175.9809053	NaN	3013176.964198	3013177.48073537
90	20	0	0	90	36.1581920903955	36.241610738255	19	0.633396996278316	2	4	3	NaN	1	4	0.325689784324022	0	1	NaN	363	6	48	2	120	220	320	NaN	520	0.240307771135122	2	0	NaN	3013181.214627	NaN	3013182.1980575	3013182.71457833
90	20	0	0	90	36.1581920903955	36.241610738255	20	0.666733680292964	2	2	1	NaN	1	5	0.325689784324022	0	1	NaN	364	6	49	2	120	220	320	NaN	520	0.323805195745081	1	1	NaN	3013187.9152716	NaN	3013188.8986981	3013189.415263
90	20	0	0	90	36.1581920903955	36.241610738255	11	0.36670352416113	2	11	6	NaN	2	3	0.325689784324022	0	1	NaN	365	6	50	2	120	220	320	NaN	520	0.426934675313532	2	1	NaN	3013192.53239	NaN	3013193.5158219	3013194.03236502
90	20	0	0	90	36.1581920903955	36.241610738255	23	0.766743732336909	2	1	1	NaN	1	3	0.325689784324022	0	1	NaN	366	6	51	2	120	220	320	NaN	520	0.268622575793415	1	1	NaN	3013195.6825984	NaN	3013196.6661323	3013197.18267002
90	20	0	0	90	36.1581920903955	36.241610738255	9	0.300030156131834	2	2	4	NaN	1	5	0.325689784324022	0	1	NaN	367	6	52	2	120	220	320	NaN	520	0.562606775201857	1	1	NaN	3013202.3166918	NaN	3013203.3001211	3013203.81665242
90	20	0	0	90	36.1581920903955	36.241610738255	25	0.833417100366205	2	11	4	NaN	2	5	0.325689784324022	0	1	NaN	368	6	53	2	120	220	320	NaN	520	0.262683175504208	2	1	NaN	3013205.2003274	NaN	3013206.1837331	3013206.70027582
90	20	0	0	90	36.1581920903955	36.241610738255	18	0.600060312263668	2	4	3	NaN	1	4	0.325689784324022	0	1	NaN	369	6	54	2	120	220	320	NaN	520	0.279434775933623	2	0	NaN	3013207.7838237	NaN	3013208.767312	3013209.28385942
90	20	0	0	90	36.1581920903955	36.241610738255	23	0.766743732336909	2	5	5	NaN	1	5	0.325689784324022	0	1	NaN	370	6	55	2	120	220	320	NaN	520	0.781751123256981	1	1	NaN	3013210.8174218	NaN	3013211.8010012	3013212.31749078
90	20	0	0	90	36.1581920903955	36.241610738255	24	0.800080416351557	2	5	3	NaN	1	4	0.325689784324022	0	1	NaN	371	6	56	2	120	220	320	NaN	520	0.29012117581442	1	1	NaN	3013213.9011975	NaN	3013214.8845562	3013215.40112872
90	20	0	0	90	36.1581920903955	36.241610738255	6	0.200020104087889	2	10	5	NaN	2	4	0.325689784324022	0	1	NaN	372	6	57	2	120	220	320	NaN	520	0.745922723319381	1	0	NaN	3013216.5014536	NaN	3013217.4848297	3013218.00137528
90	20	0	0	90	36.1581920903955	36.241610738255	7	0.233356788102537	2	12	5	NaN	2	3	0.325689784324022	0	1	NaN	373	6	58	2	120	220	320	NaN	520	1.43087152345106	2	1	NaN	3013219.5684091	NaN	3013220.5518185	3013221.06834688
90	20	0	0	90	36.1581920903955	36.241610738255	11	0.36670352416113	2	4	3	NaN	1	3	0.325689784324022	0	1	NaN	374	6	59	2	120	220	320	NaN	520	0.128390623256564	1	1	NaN	3013223.3187835	NaN	3013224.3021786	3013224.81871408
90	20	0	0	90	36.1581920903955	36.241610738255	24	0.800080416351557	2	1	4	NaN	1	4	0.325689784324022	0	1	NaN	375	6	60	2	120	220	320	NaN	520	0.133027523290366	1	1	NaN	3013226.0023635	NaN	3013226.985801	3013227.50231448
90	20	0	0	90	36.1581920903955	36.241610738255	19	0.633396996278316	2	12	2	NaN	2	4	0.325689784324022	0	1	NaN	376	6	61	2	120	220	320	NaN	520	0.0984978755004704	2	1	NaN	3013228.4526113	NaN	3013229.4360292	3013229.95255942
90	20	0	0	90	36.1581920903955	36.241610738255	6	0.200020104087889	2	7	1	NaN	2	4	0.325689784324022	0	1	NaN	377	6	62	2	120	220	320	NaN	520	0.162251723464578	2	1	NaN	3013230.8529336	NaN	3013231.8362422	3013232.35278808
90	20	0	0	90	36.1581920903955	36.241610738255	9	0.300030156131834	2	12	2	NaN	2	3	0.325689784324022	0	1	NaN	378	6	63	2	120	220	320	NaN	520	0.238629423547536	2	1	NaN	3013233.3364277	NaN	3013234.3198313	3013234.83636518
90	20	0	0	90	36.1581920903955	36.241610738255	7	0.233356788102537	2	6	2	NaN	1	3	0.325689784324022	0	1	NaN	379	7	1	2	120	220	320	NaN	520	0.251410627737641	1	1	NaN	3013267.9397084	NaN	3013268.9232193	3013269.43977477
90	20	0	0	90	36.1581920903955	36.241610738255	9	0.300030156131834	2	10	6	NaN	2	3	0.325689784324022	0	1	NaN	380	7	2	2	120	220	320	NaN	520	0.132428291719407	2	1	NaN	3013270.5067351	NaN	3013271.4901538	3013272.00668961
90	20	0	0	90	36.1581920903955	36.241610738255	12	0.400040208175778	2	12	4	NaN	2	4	0.325689784324022	0	1	NaN	381	7	3	2	120	220	320	NaN	520	0.114116423297673	2	1	NaN	3013272.9569694	NaN	3013273.9403789	3013274.45691808
90	20	0	0	90	36.1581920903955	36.241610738255	23	0.766743732336909	2	11	3	NaN	2	3	0.325689784324022	0	1	NaN	382	7	4	2	120	220	320	NaN	520	3.10461072344333	2	1	NaN	3013275.3905492	NaN	3013276.3739694	3013276.89050248
90	20	0	0	90	36.1581920903955	36.241610738255	10	0.333366840146482	2	9	5	NaN	2	3	0.325689784324022	0	1	NaN	383	7	5	2	120	220	320	NaN	520	0.240198923740536	2	1	NaN	3013281.1909933	NaN	3013282.1745324	3013282.69106048
90	20	0	0	90	36.1581920903955	36.241610738255	0	0	1	2	4	NaN	1	5	0.325689784324022	0	1	NaN	384	7	6	2	110	210	310	NaN	510	0.178101175930351	2	0	NaN	3013283.7413626	NaN	3013284.7247543	3013285.24131802
90	20	0	0	90	36.1581920903955	36.241610738255	10	0.333366840146482	2	12	3	NaN	2	4	0.325689784324022	0	1	NaN	385	7	7	2	120	220	320	NaN	520	0.253889375831932	2	1	NaN	3013286.2415111	NaN	3013287.2250079	3013287.74155652
90	20	0	0	90	36.1581920903955	36.241610738255	0	0	1	10	3	NaN	2	3	0.325689784324022	0	1	NaN	386	7	8	2	110	210	310	NaN	510	0.342534123454243	2	1	NaN	3013288.8085489	NaN	3013289.7919942	3013290.30848348
90	20	0	0	90	36.1581920903955	36.241610738255	11	0.36670352416113	2	2	6	NaN	1	3	0.325689784324022	0	1	NaN	387	7	9	2	120	220	320	NaN	520	0.148236075881869	2	0	NaN	3013291.4587819	NaN	3013292.4422043	3013292.95873682
90	20	0	0	90	36.1581920903955	36.241610738255	10	0.333366840146482	2	7	4	NaN	2	3	0.325689784324022	0	1	NaN	388	7	10	2	120	220	320	NaN	520	0.0654795756563544	2	1	NaN	3013293.9257121	NaN	3013294.9091043	3013295.42564902
90	20	0	0	90	36.1581920903955	36.241610738255	9	0.300030156131834	2	10	4	NaN	2	5	0.325689784324022	0	1	NaN	389	7	11	2	120	220	320	NaN	520	0.138163675554097	2	1	NaN	3013296.3092648	NaN	3013297.2927034	3013297.80921322
90	20	0	0	90	36.1581920903955	36.241610738255	19	0.633396996278316	2	2	1	NaN	1	3	0.325689784324022	0	1	NaN	390	7	12	2	120	220	320	NaN	520	0.143638275563717	2	0	NaN	3013298.759522	NaN	3013299.7429079	3013300.25945182
90	20	0	0	90	36.1581920903955	36.241610738255	17	0.566723628249019	2	4	1	NaN	1	3	0.325689784324022	0	1	NaN	391	7	13	2	120	220	320	NaN	520	2.70872657559812	1	1	NaN	3013301.2264284	NaN	3013302.2098302	3013302.72636262
90	20	0	0	90	36.1581920903955	36.241610738255	7	0.233356788102537	2	6	6	NaN	1	5	0.325689784324022	0	1	NaN	392	7	14	2	120	220	320	NaN	520	0.27483912371099	1	1	NaN	3013306.2602217	NaN	3013307.2436404	3013307.76018948
90	20	0	0	90	36.1581920903955	36.241610738255	12	0.400040208175778	2	3	3	NaN	1	5	0.325689784324022	0	1	NaN	393	7	15	2	120	220	320	NaN	520	0.227246523369104	1	1	NaN	3013308.8438576	NaN	3013309.8272808	3013310.34378328
90	20	0	0	90	36.1581920903955	36.241610738255	16	0.533386944234371	2	2	6	NaN	1	4	0.325689784324022	0	1	NaN	394	7	16	2	120	220	320	NaN	520	0.29311442328617	1	1	NaN	3013311.3940893	NaN	3013312.3774798	3013312.89402758
90	20	0	0	90	36.1581920903955	36.241610738255	6	0.200020104087889	2	11	3	NaN	2	5	0.325689784324022	0	1	NaN	395	7	17	2	120	220	320	NaN	520	0.24377882340923	2	1	NaN	3013314.0110039	NaN	3013314.9944242	3013315.51095118
90	20	0	0	90	36.1581920903955	36.241610738255	9	0.300030156131834	2	11	3	NaN	2	5	0.325689784324022	0	1	NaN	396	7	18	2	120	220	320	NaN	520	0.166126975324005	2	1	NaN	3013316.5611622	NaN	3013317.5446993	3013318.06121072
90	20	0	0	90	36.1581920903955	36.241610738255	16	0.533386944234371	2	6	3	NaN	1	5	0.325689784324022	0	1	NaN	397	7	19	2	120	220	320	NaN	520	0.162597127724439	1	1	NaN	3013319.0280401	NaN	3013320.0115708	3013320.52812317
90	20	0	0	90	36.1581920903955	36.241610738255	10	0.333366840146482	2	3	1	NaN	1	4	0.325689784324022	0	1	NaN	398	7	20	2	120	220	320	NaN	520	0.343715771101415	1	1	NaN	3013321.4950679	NaN	3013322.4784781	3013322.99502483
90	20	0	0	90	36.1581920903955	36.241610738255	19	0.633396996278316	2	3	2	NaN	1	4	0.325689784324022	0	1	NaN	399	7	21	2	120	220	320	NaN	520	0.126022144220769	1	1	NaN	3013324.1452213	NaN	3013325.1287353	3013325.64528976
90	20	0	0	90	36.1581920903955	36.241610738255	14	0.466713576205075	2	5	4	NaN	1	3	0.325689784324022	0	1	NaN	400	7	22	2	120	220	320	NaN	520	0.0679013272747397	1	1	NaN	3013326.578915	NaN	3013327.5623284	3013328.07885537
90	20	0	0	90	36.1581920903955	36.241610738255	15	0.500050260219723	2	2	4	NaN	1	5	0.325689784324022	0	1	NaN	401	7	23	2	120	220	320	NaN	520	0.236527075525373	1	1	NaN	3013328.9625778	NaN	3013329.9458811	3013330.46242532
90	20	0	0	90	36.1581920903955	36.241610738255	14	0.466713576205075	2	4	6	NaN	1	3	0.325689784324022	0	1	NaN	402	7	24	2	120	220	320	NaN	520	0.142736875452101	1	1	NaN	3013331.5127155	NaN	3013332.4961338	3013333.01267772
90	20	0	0	90	36.1581920903955	36.241610738255	25	0.833417100366205	2	8	4	NaN	2	3	0.325689784324022	0	1	NaN	403	7	25	2	120	220	320	NaN	520	0.467408223543316	1	0	NaN	3013333.9796294	NaN	3013334.9630222	3013335.47958168
90	20	0	0	90	36.1581920903955	36.241610738255	22	0.73340704832226	2	8	1	NaN	2	4	0.325689784324022	0	1	NaN	404	7	26	2	120	220	320	NaN	520	0.107913110870868	2	1	NaN	3013336.7632481	NaN	3013337.7466409	3013338.26318269
90	20	0	0	90	36.1581920903955	36.241610738255	21	0.700070364307612	2	11	1	NaN	2	4	0.325689784324022	0	1	NaN	405	7	27	2	120	220	320	NaN	520	0.107085391879082	2	1	NaN	3013339.1801488	NaN	3013340.1635585	3013340.68009491
90	20	0	0	90	36.1581920903955	36.241610738255	16	0.533386944234371	2	6	6	NaN	1	3	0.325689784324022	0	1	NaN	406	7	28	2	120	220	320	NaN	520	0.138455131556839	1	1	NaN	3013341.5970513	NaN	3013342.5804528	3013343.09700687
90	20	0	0	90	36.1581920903955	36.241610738255	9	0.300030156131834	2	8	4	NaN	2	5	0.325689784324022	0	1	NaN	407	7	29	2	120	220	320	NaN	520	0.311985475476831	1	0	NaN	3013344.0472899	NaN	3013345.0306977	3013345.54723172
90	20	0	0	90	36.1581920903955	36.241610738255	11	0.36670352416113	2	3	1	NaN	1	5	0.325689784324022	0	1	NaN	408	7	30	2	120	220	320	NaN	520	0.0782603756524622	2	0	NaN	3013346.6808818	NaN	3013347.6642713	3013348.18083782
90	20	0	0	90	36.1581920903955	36.241610738255	6	0.200020104087889	2	3	5	NaN	1	3	0.325689784324022	0	1	NaN	409	7	31	2	120	220	320	NaN	520	0.486649775877595	1	1	NaN	3013349.0644538	NaN	3013350.0478754	3013350.56440362
90	20	0	0	90	36.1581920903955	36.241610738255	23	0.766743732336909	2	10	2	NaN	2	4	0.325689784324022	0	1	NaN	410	7	32	2	120	220	320	NaN	520	0.142098579090089	1	0	NaN	3013351.8647113	NaN	3013352.8481068	3013353.36468052
90	20	0	0	90	36.1581920903955	36.241610738255	17	0.566723628249019	2	12	2	NaN	2	3	0.325689784324022	0	1	NaN	411	7	33	2	120	220	320	NaN	520	0.0922748753800988	2	1	NaN	3013354.314972	NaN	3013355.2983768	3013355.81490812
90	20	0	0	90	36.1581920903955	36.241610738255	25	0.833417100366205	2	10	4	NaN	2	3	0.325689784324022	0	1	NaN	412	7	34	2	120	220	320	NaN	520	0.0755142755806446	2	1	NaN	3013356.7318692	NaN	3013357.7152751	3013358.23181242
90	20	0	0	90	36.1581920903955	36.241610738255	23	0.766743732336909	2	9	2	NaN	2	5	0.325689784324022	0	1	NaN	413	7	35	2	120	220	320	NaN	520	0.187238435726613	2	1	NaN	3013359.132109	NaN	3013360.1155077	3013360.63206076
90	20	0	0	90	36.1581920903955	36.241610738255	6	0.200020104087889	2	7	4	NaN	2	3	0.325689784324022	0	1	NaN	414	7	36	2	120	220	320	NaN	520	0.32719387114048	2	1	NaN	3013361.6323054	NaN	3013362.6157904	3013363.13229893
90	20	0	0	90	36.1581920903955	36.241610738255	15	0.500050260219723	2	7	1	NaN	2	3	0.325689784324022	0	1	NaN	415	7	37	2	120	220	320	NaN	520	0.313546123448759	2	1	NaN	3013364.5659719	NaN	3013365.5493708	3013366.06591398
90	20	0	0	90	36.1581920903955	36.241610738255	13	0.433376892190427	2	9	5	NaN	2	3	0.325689784324022	0	1	NaN	416	7	38	2	120	220	320	NaN	520	0.0103919277898967	2	1	NaN	3013367.1995696	NaN	3013368.1829606	3013368.69951717
90	20	0	0	90	36.1581920903955	36.241610738255	21	0.700070364307612	2	5	5	NaN	1	3	0.325689784324022	0	1	NaN	417	7	39	2	120	220	320	NaN	520	0.234884044155478	1	1	NaN	3013369.5164627	NaN	3013370.4998584	3013371.01641756
90	20	0	0	90	36.1581920903955	36.241610738255	0	0	1	8	2	NaN	2	5	0.325689784324022	0	1	NaN	418	7	40	2	110	210	310	NaN	510	0.0104052755050361	2	1	NaN	3013372.0499172	NaN	3013373.0334762	3013373.54998092
90	20	0	0	90	36.1581920903955	36.241610738255	10	0.333366840146482	2	6	6	NaN	1	5	0.325689784324022	0	1	NaN	419	7	41	2	120	220	320	NaN	520	0.328360439743847	1	1	NaN	3013374.3669561	NaN	3013375.3503657	3013375.86688086
90	20	0	0	90	36.1581920903955	36.241610738255	16	0.533386944234371	2	5	6	NaN	1	3	0.325689784324022	0	1	NaN	420	7	42	2	120	220	320	NaN	520	0.198247883468866	1	1	NaN	3013377.0170692	NaN	3013378.0006075	3013378.51715202
90	20	0	0	90	36.1581920903955	36.241610738255	13	0.433376892190427	2	11	3	NaN	2	4	0.325689784324022	0	1	NaN	421	7	43	2	120	220	320	NaN	520	0.953175075352192	1	0	NaN	3013379.534164	NaN	3013380.5175143	3013381.03405552
90	20	0	0	90	36.1581920903955	36.241610738255	9	0.300030156131834	2	9	4	NaN	2	5	0.325689784324022	0	1	NaN	422	7	44	2	120	220	320	NaN	520	0.246174571104348	2	1	NaN	3013382.8011231	NaN	3013383.78449	3013384.30104423
90	20	0	0	90	36.1581920903955	36.241610738255	19	0.633396996278316	2	9	4	NaN	2	3	0.325689784324022	0	1	NaN	423	7	45	2	120	220	320	NaN	520	0.191940423101187	2	1	NaN	3013385.3513313	NaN	3013386.3347437	3013386.85128748
90	20	0	0	90	36.1581920903955	36.241610738255	16	0.533386944234371	2	11	2	NaN	2	3	0.325689784324022	0	1	NaN	424	7	46	2	120	220	320	NaN	520	0.243661675602198	2	1	NaN	3013387.8514913	NaN	3013388.8350234	3013389.35153502
90	20	0	0	90	36.1581920903955	36.241610738255	15	0.500050260219723	2	6	1	NaN	1	3	0.325689784324022	0	1	NaN	425	7	47	2	120	220	320	NaN	520	0.0928497277200222	1	1	NaN	3013390.4185074	NaN	3013391.4019062	3013391.91846547
90	20	0	0	90	36.1581920903955	36.241610738255	18	0.600060312263668	2	9	1	NaN	2	4	0.325689784324022	0	1	NaN	426	7	48	2	120	220	320	NaN	520	0.716544723603874	2	1	NaN	3013392.818739	NaN	3013393.8021381	3013394.31868688
90	20	0	0	90	36.1581920903955	36.241610738255	23	0.766743732336909	2	4	4	NaN	1	3	0.325689784324022	0	1	NaN	427	7	49	2	120	220	320	NaN	520	0.226886423304677	2	0	NaN	3013395.8523825	NaN	3013396.8357857	3013397.35231668
90	20	0	0	90	36.1581920903955	36.241610738255	25	0.833417100366205	2	7	2	NaN	2	3	0.325689784324022	0	1	NaN	428	7	50	2	120	220	320	NaN	520	0.205607223324478	2	1	NaN	3013398.3858539	NaN	3013399.3693681	3013399.88589968
90	20	0	0	90	36.1581920903955	36.241610738255	0	0	1	9	6	NaN	2	5	0.325689784324022	0	1	NaN	429	7	51	2	110	210	310	NaN	510	0.0562510234303772	2	1	NaN	3013400.9028734	NaN	3013401.8862545	3013402.40282458
90	20	0	0	90	36.1581920903955	36.241610738255	6	0.200020104087889	2	4	2	NaN	1	5	0.325689784324022	0	1	NaN	430	7	52	2	120	220	320	NaN	520	0.161831223405898	1	1	NaN	3013403.269701	NaN	3013404.253222	3013404.76971978
90	20	0	0	90	36.1581920903955	36.241610738255	7	0.233356788102537	2	3	2	NaN	1	4	0.325689784324022	0	1	NaN	431	7	53	2	120	220	320	NaN	520	1.93409357545897	2	0	NaN	3013405.7532156	NaN	3013406.7367556	3013407.25329782
90	20	0	0	90	36.1581920903955	36.241610738255	8	0.266693472117186	2	8	5	NaN	2	3	0.325689784324022	0	1	NaN	432	7	54	2	120	220	320	NaN	520	0.155657947994769	2	1	NaN	3013410.0037528	NaN	3013410.9871657	3013411.50373635
90	20	0	0	90	36.1581920903955	36.241610738255	16	0.533386944234371	2	9	5	NaN	2	4	0.325689784324022	0	1	NaN	433	7	55	2	120	220	320	NaN	520	0.0886181276291609	2	1	NaN	3013412.4706734	NaN	3013413.4540866	3013413.97062157
90	20	0	0	90	36.1581920903955	36.241610738255	13	0.433376892190427	2	11	5	NaN	2	3	0.325689784324022	0	1	NaN	434	7	56	2	120	220	320	NaN	520	0.15252242796123	2	1	NaN	3013414.8709014	NaN	3013415.8543176	3013416.37086477
90	20	0	0	90	36.1581920903955	36.241610738255	14	0.466713576205075	2	4	5	NaN	1	4	0.325689784324022	0	1	NaN	435	7	57	2	120	220	320	NaN	520	0.118328736163676	1	1	NaN	3013417.7211605	NaN	3013418.7045863	3013419.22115246
90	20	0	0	90	36.1581920903955	36.241610738255	20	0.666733680292964	2	2	5	NaN	1	4	0.325689784324022	0	1	NaN	436	7	58	2	120	220	320	NaN	520	0.292653675656766	1	1	NaN	3013420.1549371	NaN	3013421.1382013	3013421.65471702
90	20	0	0	90	36.1581920903955	36.241610738255	20	0.666733680292964	2	10	3	NaN	2	3	0.325689784324022	0	1	NaN	437	7	59	2	120	220	320	NaN	520	0.100355023518205	2	1	NaN	3013422.7550202	NaN	3013423.7384292	3013424.25496098
90	20	0	0	90	36.1581920903955	36.241610738255	17	0.566723628249019	2	3	6	NaN	1	5	0.325689784324022	0	1	NaN	438	7	60	2	120	220	320	NaN	520	0.0104189235717058	2	0	NaN	3013425.171951	NaN	3013426.1553197	3013426.67187388
90	20	0	0	90	36.1581920903955	36.241610738255	11	0.36670352416113	2	7	6	NaN	2	4	0.325689784324022	0	1	NaN	439	7	61	2	120	220	320	NaN	520	0.109911223407835	2	1	NaN	3013427.5055039	NaN	3013428.4888736	3013429.00542438
90	20	0	0	90	36.1581920903955	36.241610738255	10	0.333366840146482	2	4	6	NaN	1	3	0.325689784324022	0	1	NaN	440	7	62	2	120	220	320	NaN	520	0.117058975156397	1	1	NaN	3013429.9223793	NaN	3013430.905822	3013431.42233002
90	20	0	0	90	36.1581920903955	36.241610738255	10	0.333366840146482	2	8	2	NaN	2	4	0.325689784324022	0	1	NaN	441	7	63	2	120	220	320	NaN	520	0.0194572755135596	2	1	NaN	3013432.7559226	NaN	3013433.7393958	3013434.25594842
90	20	0	0	90	36.1581920903955	36.241610738255	18	0.600060312263668	2	5	4	NaN	1	5	0.325689784324022	0	1	NaN	442	8	1	2	120	220	320	NaN	520	0.209800175391138	1	1	NaN	3013465.9092265	NaN	3013466.8926465	3013467.40920842
90	20	0	0	90	36.1581920903955	36.241610738255	14	0.466713576205075	2	6	2	NaN	1	4	0.325689784324022	0	1	NaN	443	8	2	2	120	220	320	NaN	520	0.156585323624313	1	1	NaN	3013468.4427216	NaN	3013469.4262661	3013469.94278678
90	20	0	0	90	36.1581920903955	36.241610738255	7	0.233356788102537	2	10	2	NaN	2	3	0.325689784324022	0	1	NaN	444	8	3	2	120	220	320	NaN	520	0.217674791812897	2	1	NaN	3013470.9097409	NaN	3013471.8931564	3013472.40969321
90	20	0	0	90	36.1581920903955	36.241610738255	12	0.400040208175778	2	1	5	NaN	1	3	0.325689784324022	0	1	NaN	445	8	4	2	120	220	320	NaN	520	0.25998222315684	2	0	NaN	3013473.4431921	NaN	3013474.4267287	3013474.94327418
90	20	0	0	90	36.1581920903955	36.241610738255	7	0.233356788102537	2	11	5	NaN	2	5	0.325689784324022	0	1	NaN	446	8	5	2	120	220	320	NaN	520	0.156737527810037	2	1	NaN	3013476.0269643	NaN	3013477.0103114	3013477.52686957
90	20	0	0	90	36.1581920903955	36.241610738255	12	0.400040208175778	2	7	1	NaN	2	3	0.325689784324022	0	1	NaN	447	8	6	2	120	220	320	NaN	520	0.15560192335397	2	1	NaN	3013478.8438136	NaN	3013479.8272569	3013480.34380308
90	20	0	0	90	36.1581920903955	36.241610738255	8	0.266693472117186	2	5	5	NaN	1	3	0.325689784324022	0	1	NaN	448	8	7	2	120	220	320	NaN	520	0.112639175262302	1	1	NaN	3013481.3107642	NaN	3013482.2941827	3013482.81071042
90	20	0	0	90	36.1581920903955	36.241610738255	13	0.433376892190427	2	6	3	NaN	1	4	0.325689784324022	0	1	NaN	449	8	8	2	120	220	320	NaN	520	0.127698675263673	1	1	NaN	3013483.7275389	NaN	3013484.7111156	3013485.22761202
90	20	0	0	90	36.1581920903955	36.241610738255	17	0.566723628249019	2	11	1	NaN	2	4	0.325689784324022	0	1	NaN	450	8	9	2	120	220	320	NaN	520	0.152056915219873	2	1	NaN	3013486.5112739	NaN	3013487.4946857	3013488.01121758
90	20	0	0	90	36.1581920903955	36.241610738255	23	0.766743732336909	2	8	4	NaN	2	5	0.325689784324022	0	1	NaN	451	8	10	2	120	220	320	NaN	520	0.109334570821375	2	1	NaN	3013488.9780586	NaN	3013489.9615983	3013490.47813193
90	20	0	0	90	36.1581920903955	36.241610738255	0	0	1	1	2	NaN	1	4	0.325689784324022	0	1	NaN	452	8	11	2	110	210	310	NaN	510	0.132435823325068	2	0	NaN	3013491.3951733	NaN	3013492.3784791	3013492.89503448
90	20	0	0	90	36.1581920903955	36.241610738255	18	0.600060312263668	2	11	1	NaN	2	3	0.325689784324022	0	1	NaN	453	8	12	2	120	220	320	NaN	520	0.0104419714771211	2	1	NaN	3013494.1453154	NaN	3013495.1287575	3013495.64530103
90	20	0	0	90	36.1581920903955	36.241610738255	12	0.400040208175778	2	11	2	NaN	2	4	0.325689784324022	0	1	NaN	454	8	13	2	120	220	320	NaN	520	0.152601275593042	2	1	NaN	3013496.478921	NaN	3013497.4622513	3013497.97886712
90	20	0	0	90	36.1581920903955	36.241610738255	25	0.833417100366205	2	12	2	NaN	2	5	0.325689784324022	0	1	NaN	455	8	14	2	120	220	320	NaN	520	0.309579675551504	2	1	NaN	3013498.9458305	NaN	3013499.92923	3013500.44577782
90	20	0	0	90	36.1581920903955	36.241610738255	14	0.466713576205075	2	9	4	NaN	2	3	0.325689784324022	0	1	NaN	456	8	15	2	120	220	320	NaN	520	0.180500223301351	2	1	NaN	3013501.5627636	NaN	3013502.5461607	3013503.06269728
90	20	0	0	90	36.1581920903955	36.241610738255	8	0.266693472117186	2	12	5	NaN	2	3	0.325689784324022	0	1	NaN	457	8	16	2	120	220	320	NaN	520	0.032060727942735	2	1	NaN	3013504.0630035	NaN	3013505.046404	3013505.56295237
90	20	0	0	90	36.1581920903955	36.241610738255	18	0.600060312263668	2	7	6	NaN	2	5	0.325689784324022	0	1	NaN	458	8	17	2	120	220	320	NaN	520	0.890160879120231	2	1	NaN	3013506.4132377	NaN	3013507.3966231	3013507.91317812
90	20	0	0	90	36.1581920903955	36.241610738255	8	0.266693472117186	2	11	5	NaN	2	5	0.325689784324022	0	1	NaN	459	8	18	2	120	220	320	NaN	520	0.201910275500268	2	1	NaN	3013509.6135311	NaN	3013510.5969465	3013511.11349362
90	20	0	0	90	36.1581920903955	36.241610738255	20	0.666733680292964	2	7	5	NaN	2	3	0.325689784324022	0	1	NaN	460	8	19	2	120	220	320	NaN	520	0.276962575502694	2	1	NaN	3013512.1304597	NaN	3013513.1137562	3013513.63040832
