subjno	age	gender	isPractice	viewdist	CmToPixX	CmToPixY	SOA_frm	SOA_time	targNum	targID	targExample	targRace	targGender	firstTargPos	contrast	familiarity	curr_staircase	iStair	TrialNum	BlockNum	blktrl	sessionNum	TC_FIXATION	TC_RSVP_START	TC_RSVP_END	TC_BLANK	TC_RESPONSE_ONSET	RT2afc	resp_2afc	acc	RSVPOnsetVBL	RSVPOnsetTime	RSVPOffsetVBL	RSVPOffsetTime	startrt_2afc
61	20	1	0	90	36.1581920903955	36.241610738255	7	0.233363648056984	2	7	4	NaN	2	4	0.0542498672943188	0	1	NaN	1	1	1	1	120	220	320	NaN	520	0.837963983882219	1	0	NaN	2421059.9648633	NaN	2421060.9485243	2421061.48159742
61	20	1	0	90	36.1581920903955	36.241610738255	9	0.300038976073265	2	8	5	NaN	2	5	0.0542498672943188	0	1	NaN	2	1	2	1	120	220	320	NaN	520	4.66278238408267	2	1	NaN	2421063.3321677	NaN	2421064.3154513	2421064.84858612
61	20	1	0	90	36.1581920903955	36.241610738255	22	0.733428608179092	2	11	1	NaN	2	3	0.0542498672943188	0	1	NaN	3	1	3	1	120	220	320	NaN	520	0.44635032908991	2	1	NaN	2421070.3492025	NaN	2421071.3327332	2421071.84927827
61	20	1	0	90	36.1581920903955	36.241610738255	21	0.700090944170952	2	7	6	NaN	2	4	0.0542498672943188	0	1	NaN	4	1	4	1	120	220	320	NaN	520	0.351208896376193	2	1	NaN	2421073.1161389	NaN	2421074.0996562	2421074.616226
61	20	1	0	90	36.1581920903955	36.241610738255	23	0.766766272187233	2	4	4	NaN	1	4	0.0542498672943188	0	1	NaN	5	1	5	1	120	220	320	NaN	520	1.00442763231695	1	1	NaN	2421075.7831547	NaN	2421076.7665991	2421077.28314397
61	20	1	0	90	36.1581920903955	36.241610738255	7	0.233363648056984	2	9	3	NaN	2	5	0.0542498672943188	0	1	NaN	6	1	6	1	120	220	320	NaN	520	0.991583680734038	2	1	NaN	2421079.1001993	NaN	2421080.0835846	2421080.60013632
61	20	1	0	90	36.1581920903955	36.241610738255	9	0.300038976073265	2	2	5	NaN	1	3	0.0542498672943188	0	1	NaN	7	1	7	1	120	220	320	NaN	520	0.202167532406747	2	0	NaN	2421082.4172931	NaN	2421083.4006044	2421083.91712977
61	20	1	0	90	36.1581920903955	36.241610738255	21	0.700090944170952	2	4	1	NaN	1	5	0.0542498672943188	0	1	NaN	8	1	8	1	120	220	320	NaN	520	0.0103916325606406	1	1	NaN	2421084.9340924	NaN	2421085.9174924	2421086.43403717
61	20	1	0	90	36.1581920903955	36.241610738255	24	0.800103936195373	2	10	6	NaN	2	4	0.0542498672943188	0	1	NaN	9	1	9	1	120	220	320	NaN	520	1.03151563229039	2	1	NaN	2421087.2676507	NaN	2421088.2510665	2421088.76761097
61	20	1	0	90	36.1581920903955	36.241610738255	17	0.56674028813839	2	1	4	NaN	1	5	0.0542498672943188	0	1	NaN	10	1	10	1	120	220	320	NaN	520	0.473866680637002	1	1	NaN	2421090.6179707	NaN	2421091.6013731	2421092.11793652
61	20	1	0	90	36.1581920903955	36.241610738255	13	0.433389632105827	2	10	6	NaN	2	4	0.0542498672943188	0	1	NaN	11	1	11	1	120	220	320	NaN	520	0.0104028321802616	1	0	NaN	2421093.418258	NaN	2421094.4016474	2421094.91821587
61	20	1	0	90	36.1581920903955	36.241610738255	11	0.366714304089546	2	1	2	NaN	1	4	0.0542498672943188	0	1	NaN	12	1	12	1	120	220	320	NaN	520	0.371878780424595	2	0	NaN	2421095.7518201	NaN	2421096.7352226	2421097.25177312
61	20	1	0	90	36.1581920903955	36.241610738255	6	0.200025984048843	2	5	2	NaN	1	3	0.0542498672943188	0	1	NaN	13	1	13	1	120	220	320	NaN	520	0.799877132289112	1	1	NaN	2421098.4354079	NaN	2421099.4188186	2421099.93537297
61	20	1	0	90	36.1581920903955	36.241610738255	7	0.233363648056984	2	3	4	NaN	1	4	0.0542498672943188	0	1	NaN	14	1	14	1	120	220	320	NaN	520	0.514949481002986	2	0	NaN	2421101.5523852	NaN	2421102.5357889	2421103.05233892
61	20	1	0	90	36.1581920903955	36.241610738255	19	0.633415616154671	2	9	5	NaN	2	3	0.0542498672943188	0	1	NaN	15	1	15	1	120	220	320	NaN	520	0.529371232260019	2	1	NaN	2421104.3860128	NaN	2421105.3694033	2421105.88595607
61	20	1	0	90	36.1581920903955	36.241610738255	11	0.366714304089546	2	8	6	NaN	2	4	0.0542498672943188	0	1	NaN	16	1	16	1	120	220	320	NaN	520	0.759565380401909	1	0	NaN	2421107.2362927	NaN	2421108.219685	2421108.73623512
61	20	1	0	90	36.1581920903955	36.241610738255	12	0.400051968097687	2	6	2	NaN	1	4	0.0542498672943188	0	1	NaN	17	1	17	1	120	220	320	NaN	520	0.843518880661577	1	1	NaN	2421110.3199277	NaN	2421111.3033471	2421111.81986512
61	20	1	0	90	36.1581920903955	36.241610738255	20	0.666753280162811	2	9	2	NaN	2	4	0.0542498672943188	0	1	NaN	18	1	18	1	120	220	320	NaN	520	2.5965378805995	1	0	NaN	2421113.4868948	NaN	2421114.4702959	2421114.98684922
61	20	1	0	90	36.1581920903955	36.241610738255	22	0.733428608179092	2	5	3	NaN	1	4	0.0542498672943188	0	1	NaN	19	1	19	1	120	220	320	NaN	520	1.03934083227068	2	0	NaN	2421118.4040547	NaN	2421119.3874439	2421119.90399087
61	20	1	0	90	36.1581920903955	36.241610738255	21	0.700090944170952	2	10	2	NaN	2	3	0.0542498672943188	0	1	NaN	20	1	20	1	120	220	320	NaN	520	0.881125980988145	2	1	NaN	2421121.7543999	NaN	2421122.7377891	2421123.25432662
61	20	1	0	90	36.1581920903955	36.241610738255	11	0.366714304089546	2	3	3	NaN	1	5	0.0542498672943188	0	1	NaN	21	1	21	1	120	220	320	NaN	520	0.0104234297759831	1	1	NaN	2421124.9546894	NaN	2421125.9381146	2421126.45464167
61	20	1	0	90	36.1581920903955	36.241610738255	10	0.333376640081406	2	3	3	NaN	1	5	0.0542498672943188	0	1	NaN	22	1	22	1	120	220	320	NaN	520	2.12315868074074	1	1	NaN	2421127.2882307	NaN	2421128.2716679	2421128.78819772
61	20	1	0	90	36.1581920903955	36.241610738255	25	0.833441600203514	2	8	6	NaN	2	5	0.0542498672943188	0	1	NaN	23	1	23	1	120	220	320	NaN	520	0.0808793804608285	1	0	NaN	2421131.7386807	NaN	2421132.722078	2421133.23864142
61	20	1	0	90	36.1581920903955	36.241610738255	6	0.200025984048843	2	5	2	NaN	1	5	0.0542498672943188	0	1	NaN	24	1	24	1	120	220	320	NaN	520	0.584636632353067	1	1	NaN	2421134.138944	NaN	2421135.1223211	2421135.63887517
61	20	1	0	90	36.1581920903955	36.241610738255	11	0.366714304089546	2	10	1	NaN	2	4	0.0542498672943188	0	1	NaN	25	1	25	1	120	220	320	NaN	520	0.540172080509365	1	0	NaN	2421137.0392195	NaN	2421138.0226264	2421138.53915132
61	20	1	0	90	36.1581920903955	36.241610738255	9	0.300038976073265	2	1	6	NaN	1	5	0.0542498672943188	0	1	NaN	26	1	26	1	120	220	320	NaN	520	0.0412708874791861	2	0	NaN	2421139.9061591	NaN	2421140.889546	2421141.40610901
61	20	1	0	90	36.1581920903955	36.241610738255	12	0.400051968097687	2	10	6	NaN	2	3	0.0542498672943188	0	1	NaN	27	1	27	1	120	220	320	NaN	520	0.0104078804142773	2	1	NaN	2421142.2730497	NaN	2421143.2564542	2421143.77300182
61	20	1	0	90	36.1581920903955	36.241610738255	24	0.800103936195373	2	6	1	NaN	1	5	0.0542498672943188	0	1	NaN	28	1	28	1	120	220	320	NaN	520	0.0104132806882262	1	1	NaN	2421144.6066329	NaN	2421145.5899931	2421146.10656972
61	20	1	0	90	36.1581920903955	36.241610738255	0	0	1	12	5	NaN	2	4	0.0542498672943188	0	1	NaN	29	1	29	1	110	210	310	NaN	510	0.327355580404401	2	1	NaN	2421146.940268	NaN	2421147.9236158	2421148.44012432
61	20	1	0	90	36.1581920903955	36.241610738255	19	0.633415616154671	2	6	1	NaN	1	5	0.0542498672943188	0	1	NaN	30	1	30	1	120	220	320	NaN	520	0.13316788058728	1	1	NaN	2421149.5904446	NaN	2421150.5738387	2421151.09039662
61	20	1	0	90	36.1581920903955	36.241610738255	22	0.733428608179092	2	8	3	NaN	2	5	0.0542498672943188	0	1	NaN	31	1	31	1	120	220	320	NaN	520	0.163127980660647	2	1	NaN	2421152.040664	NaN	2421153.0240937	2421153.54062422
61	20	1	0	90	36.1581920903955	36.241610738255	8	0.266701312065124	2	1	1	NaN	1	5	0.0542498672943188	0	1	NaN	32	1	32	1	120	220	320	NaN	520	0.0711689805611968	1	1	NaN	2421154.524137	NaN	2421155.5076567	2421156.02420322
61	20	1	0	90	36.1581920903955	36.241610738255	0	0	1	3	2	NaN	1	4	0.0542498672943188	0	1	NaN	33	1	33	1	110	210	310	NaN	510	0.0555649809539318	1	1	NaN	2421156.9078803	NaN	2421157.8912197	2421158.40777492
61	20	1	0	90	36.1581920903955	36.241610738255	6	0.200025984048843	2	11	3	NaN	2	3	0.0542498672943188	0	1	NaN	34	1	34	1	120	220	320	NaN	520	0.816398980561644	2	1	NaN	2421159.2913958	NaN	2421160.2747872	2421160.79134532
61	20	1	0	90	36.1581920903955	36.241610738255	25	0.833441600203514	2	4	3	NaN	1	3	0.0542498672943188	0	1	NaN	35	1	35	1	120	220	320	NaN	520	0.0103964321315289	1	1	NaN	2421162.4250409	NaN	2421163.4084735	2421163.92498927
61	20	1	0	90	36.1581920903955	36.241610738255	21	0.700090944170952	2	12	6	NaN	2	4	0.0542498672943188	0	1	NaN	36	1	36	1	120	220	320	NaN	520	0.404995032120496	2	1	NaN	2421164.7584641	NaN	2421165.7419998	2421166.25855237
61	20	1	0	90	36.1581920903955	36.241610738255	8	0.266701312065124	2	4	1	NaN	1	5	0.0542498672943188	0	1	NaN	37	1	37	1	120	220	320	NaN	520	0.0104004321619868	1	1	NaN	2421167.4921984	NaN	2421168.4756017	2421168.99215597
61	20	1	0	90	36.1581920903955	36.241610738255	24	0.800103936195373	2	7	1	NaN	2	4	0.0542498672943188	0	1	NaN	38	1	38	1	120	220	320	NaN	520	0.602370581123978	1	0	NaN	2421169.8090938	NaN	2421170.7924902	2421171.30904462
61	20	1	0	90	36.1581920903955	36.241610738255	11	0.366714304089546	2	4	6	NaN	1	5	0.0542498672943188	0	1	NaN	39	1	39	1	120	220	320	NaN	520	0.0534179811365902	1	1	NaN	2421172.7260375	NaN	2421173.7094606	2421174.22599622
61	20	1	0	90	36.1581920903955	36.241610738255	15	0.500064960122108	2	9	6	NaN	2	3	0.0542498672943188	0	1	NaN	40	1	40	1	120	220	320	NaN	520	0.174369732383639	2	1	NaN	2421175.0928177	NaN	2421176.0763322	2421176.59288877
61	20	1	0	90	36.1581920903955	36.241610738255	10	0.333376640081406	2	5	6	NaN	1	4	0.0542498672943188	0	1	NaN	41	1	41	1	120	220	320	NaN	520	0.010420280508697	1	1	NaN	2421177.5765809	NaN	2421178.5599292	2421179.07647122
61	20	1	0	90	36.1581920903955	36.241610738255	16	0.533402624130249	2	12	5	NaN	2	3	0.0542498672943188	0	1	NaN	42	1	42	1	120	220	320	NaN	520	0.166040632408112	2	1	NaN	2421179.8934342	NaN	2421180.8768064	2421181.39337007
61	20	1	0	90	36.1581920903955	36.241610738255	17	0.56674028813839	2	5	5	NaN	1	3	0.0542498672943188	0	1	NaN	43	1	43	1	120	220	320	NaN	520	0.0104425810277462	1	1	NaN	2421182.4602073	NaN	2421183.4437497	2421183.96027902
61	20	1	0	90	36.1581920903955	36.241610738255	22	0.733428608179092	2	4	3	NaN	1	5	0.0542498672943188	0	1	NaN	44	1	44	1	120	220	320	NaN	520	0.13074978068471	1	1	NaN	2421184.7772439	NaN	2421185.7606388	2421186.27718162
61	20	1	0	90	36.1581920903955	36.241610738255	20	0.666753280162811	2	1	3	NaN	1	5	0.0542498672943188	0	1	NaN	45	1	45	1	120	220	320	NaN	520	0.0246959323994815	1	1	NaN	2421187.210803	NaN	2421188.1942017	2421188.71075517
61	20	1	0	90	36.1581920903955	36.241610738255	10	0.333376640081406	2	2	6	NaN	1	4	0.0542498672943188	0	1	NaN	46	1	46	1	120	220	320	NaN	520	0.546947845257819	2	0	NaN	2421189.5443732	NaN	2421190.527761	2421191.04431315
61	20	1	0	90	36.1581920903955	36.241610738255	7	0.233363648056984	2	2	2	NaN	1	4	0.0542498672943188	0	1	NaN	47	1	47	1	120	220	320	NaN	520	0.0322485808283091	1	1	NaN	2421192.4113998	NaN	2421193.3947126	2421193.91126052
61	20	1	0	90	36.1581920903955	36.241610738255	14	0.466727296113968	2	1	2	NaN	1	5	0.0542498672943188	0	1	NaN	48	1	48	1	120	220	320	NaN	520	0.346228080801666	1	1	NaN	2421194.7615357	NaN	2421195.744944	2421196.26149562
61	20	1	0	90	36.1581920903955	36.241610738255	21	0.700090944170952	2	6	2	NaN	1	4	0.0542498672943188	0	1	NaN	49	1	49	1	120	220	320	NaN	520	0.0104039320722222	1	1	NaN	2421197.4117932	NaN	2421198.3952012	2421198.91174717
61	20	1	0	90	36.1581920903955	36.241610738255	18	0.60007795214653	2	1	5	NaN	1	3	0.0542498672943188	0	1	NaN	50	1	50	1	120	220	320	NaN	520	0.0104100806638598	1	1	NaN	2421199.7287012	NaN	2421200.7122051	2421201.22864442
61	20	1	0	90	36.1581920903955	36.241610738255	13	0.433389632105827	2	9	3	NaN	2	3	0.0542498672943188	0	1	NaN	51	1	51	1	120	220	320	NaN	520	0.142297180835158	1	0	NaN	2421202.0455972	NaN	2421203.0289953	2421203.54553472
61	20	1	0	90	36.1581920903955	36.241610738255	15	0.500064960122108	2	2	2	NaN	1	5	0.0542498672943188	0	1	NaN	52	1	52	1	120	220	320	NaN	520	0.059686993714422	1	1	NaN	2421204.4957051	NaN	2421205.4792333	2421205.99578241
61	20	1	0	90	36.1581920903955	36.241610738255	12	0.400051968097687	2	1	1	NaN	1	5	0.0542498672943188	0	1	NaN	53	1	53	1	120	220	320	NaN	520	0.0128170293755829	1	1	NaN	2421206.8627904	NaN	2421207.8461307	2421208.36268257
61	20	1	0	90	36.1581920903955	36.241610738255	18	0.60007795214653	2	3	4	NaN	1	4	0.0542498672943188	0	1	NaN	54	1	54	1	120	220	320	NaN	520	0.88719548098743	2	0	NaN	2421209.19619	NaN	2421210.1796914	2421210.69624602
61	20	1	0	90	36.1581920903955	36.241610738255	11	0.366714304089546	2	2	2	NaN	1	3	0.0542498672943188	0	1	NaN	55	1	55	1	120	220	320	NaN	520	0.0104087325744331	1	1	NaN	2421212.3966134	NaN	2421213.3800138	2421213.89656267
61	20	1	0	90	36.1581920903955	36.241610738255	9	0.300038976073265	2	10	3	NaN	2	5	0.0542498672943188	0	1	NaN	56	1	56	1	120	220	320	NaN	520	0.0103889321908355	2	1	NaN	2421214.7133775	NaN	2421215.6969046	2421216.21344977
61	20	1	0	90	36.1581920903955	36.241610738255	19	0.633415616154671	2	12	2	NaN	2	5	0.0542498672943188	0	1	NaN	57	1	57	1	120	220	320	NaN	520	0.54156703222543	1	0	NaN	2421217.0303982	NaN	2421218.0137985	2421218.53035017
61	20	1	0	90	36.1581920903955	36.241610738255	9	0.300038976073265	2	12	5	NaN	2	5	0.0542498672943188	0	1	NaN	58	1	58	1	120	220	320	NaN	520	1.22682568058372	2	1	NaN	2421219.8806684	NaN	2421220.8640811	2421221.38062812
61	20	1	0	90	36.1581920903955	36.241610738255	17	0.56674028813839	2	11	6	NaN	2	4	0.0542498672943188	0	1	NaN	59	1	59	1	120	220	320	NaN	520	0.0104041327722371	2	1	NaN	2421223.4142296	NaN	2421224.3977574	2421224.91431127
61	20	1	0	90	36.1581920903955	36.241610738255	18	0.60007795214653	2	12	3	NaN	2	4	0.0542498672943188	0	1	NaN	60	1	60	1	120	220	320	NaN	520	0.0104089807718992	1	0	NaN	2421225.7312483	NaN	2421226.7146349	2421227.23120542
61	20	1	0	90	36.1581920903955	36.241610738255	11	0.366714304089546	2	7	6	NaN	2	3	0.0542498672943188	0	1	NaN	61	1	61	1	120	220	320	NaN	520	0.563545232638717	1	0	NaN	2421228.0480035	NaN	2421229.031549	2421229.54809897
61	20	1	0	90	36.1581920903955	36.241610738255	25	0.833441600203514	2	4	2	NaN	1	5	0.0542498672943188	0	1	NaN	62	1	62	1	120	220	320	NaN	520	0.0104085807688534	1	1	NaN	2421230.9150956	NaN	2421231.8984943	2421232.41504492
61	20	1	0	90	36.1581920903955	36.241610738255	9	0.300038976073265	2	2	1	NaN	1	3	0.0542498672943188	0	1	NaN	63	1	63	1	120	220	320	NaN	520	0.0104534779675305	1	1	NaN	2421233.2319856	NaN	2421234.2153954	2421234.73193042
61	20	1	0	90	36.1581920903955	36.241610738255	12	0.400051968097687	2	5	4	NaN	1	4	0.0542498672943188	0	1	NaN	64	2	1	1	120	220	320	NaN	520	0.543164129368961	1	1	NaN	2421239.9325658	NaN	2421240.9160444	2421241.43258737
61	20	1	0	90	36.1581920903955	36.241610738255	0	0	1	8	2	NaN	2	3	0.0542498672943188	0	1	NaN	65	2	2	1	110	210	310	NaN	510	0.637400080449879	2	1	NaN	2421242.966177	NaN	2421243.9497149	2421244.46622832
61	20	1	0	90	36.1581920903955	36.241610738255	11	0.366714304089546	2	10	5	NaN	2	3	0.0542498672943188	0	1	NaN	66	2	3	1	120	220	320	NaN	520	0.606881381012499	1	0	NaN	2421245.9165749	NaN	2421246.8999678	2421247.41650732
61	20	1	0	90	36.1581920903955	36.241610738255	20	0.666753280162811	2	1	4	NaN	1	3	0.0542498672943188	0	1	NaN	67	2	4	1	120	220	320	NaN	520	0.510754980612546	1	1	NaN	2421249.116744	NaN	2421250.1002753	2421250.61682962
61	20	1	0	90	36.1581920903955	36.241610738255	8	0.266701312065124	2	2	1	NaN	1	4	0.0542498672943188	0	1	NaN	68	2	5	1	120	220	320	NaN	520	0.92890303209424	1	1	NaN	2421252.0670447	NaN	2421253.0505723	2421253.56711647
61	20	1	0	90	36.1581920903955	36.241610738255	14	0.466727296113968	2	2	4	NaN	1	3	0.0542498672943188	0	1	NaN	69	2	6	1	120	220	320	NaN	520	0.542624280788004	2	0	NaN	2421255.9009068	NaN	2421256.8843756	2421257.40083042
61	20	1	0	90	36.1581920903955	36.241610738255	7	0.233363648056984	2	12	1	NaN	2	4	0.0542498672943188	0	1	NaN	70	2	7	1	120	220	320	NaN	520	1.12400759011507	1	0	NaN	2421260.9680215	NaN	2421261.9514508	2421262.46799821
61	20	1	0	90	36.1581920903955	36.241610738255	14	0.466727296113968	2	9	3	NaN	2	5	0.0542498672943188	0	1	NaN	71	2	8	1	120	220	320	NaN	520	0.0659653805196285	2	1	NaN	2421264.4017167	NaN	2421265.3851049	2421265.90166942
61	20	1	0	90	36.1581920903955	36.241610738255	8	0.266701312065124	2	12	6	NaN	2	5	0.0542498672943188	0	1	NaN	72	2	9	1	120	220	320	NaN	520	0.84171103220433	2	1	NaN	2421269.2021632	NaN	2421270.1855858	2421270.70213857
61	20	1	0	90	36.1581920903955	36.241610738255	15	0.500064960122108	2	11	2	NaN	2	3	0.0542498672943188	0	1	NaN	73	2	10	1	120	220	320	NaN	520	0.682302380446345	1	0	NaN	2421272.969206	NaN	2421273.9526188	2421274.46917042
61	20	1	0	90	36.1581920903955	36.241610738255	8	0.266701312065124	2	6	3	NaN	1	4	0.0542498672943188	0	1	NaN	74	2	11	1	120	220	320	NaN	520	0.0103955324739218	1	1	NaN	2421275.9695266	NaN	2421276.9529623	2421277.46946977
61	20	1	0	90	36.1581920903955	36.241610738255	21	0.700090944170952	2	9	6	NaN	2	3	0.0542498672943188	0	1	NaN	75	2	12	1	120	220	320	NaN	520	0.645541780628264	2	1	NaN	2421278.2862955	NaN	2421279.2698289	2421279.78636192
61	20	1	0	90	36.1581920903955	36.241610738255	21	0.700090944170952	2	5	4	NaN	1	4	0.0542498672943188	0	1	NaN	76	2	13	1	120	220	320	NaN	520	0.0104207806289196	1	1	NaN	2421281.2533882	NaN	2421282.2367676	2421282.75332732
61	20	1	0	90	36.1581920903955	36.241610738255	9	0.300038976073265	2	6	5	NaN	1	4	0.0542498672943188	0	1	NaN	77	2	14	1	120	220	320	NaN	520	0.0104102804325521	2	0	NaN	2421283.586925	NaN	2421284.5703254	2421285.08688292
61	20	1	0	90	36.1581920903955	36.241610738255	12	0.400051968097687	2	11	5	NaN	2	3	0.0542498672943188	0	1	NaN	78	2	15	1	120	220	320	NaN	520	0.500188784208149	1	0	NaN	2421285.9036987	NaN	2421286.8872629	2421287.40378142
61	20	1	0	90	36.1581920903955	36.241610738255	23	0.766766272187233	2	11	4	NaN	2	3	0.0542498672943188	0	1	NaN	79	2	16	1	120	220	320	NaN	520	0.0268849809654057	2	1	NaN	2421288.7207729	NaN	2421289.7041736	2421290.22072282
61	20	1	0	90	36.1581920903955	36.241610738255	13	0.433389632105827	2	3	5	NaN	1	5	0.0542498672943188	0	1	NaN	80	2	17	1	120	220	320	NaN	520	0.0103941322304308	1	1	NaN	2421291.054326	NaN	2421292.0377369	2421292.55428247
61	20	1	0	90	36.1581920903955	36.241610738255	12	0.400051968097687	2	12	2	NaN	2	3	0.0542498672943188	0	1	NaN	81	2	18	1	120	220	320	NaN	520	0.944673480466008	1	0	NaN	2421293.3712304	NaN	2421294.3546174	2421294.87118002
61	20	1	0	90	36.1581920903955	36.241610738255	17	0.56674028813839	2	9	4	NaN	2	4	0.0542498672943188	0	1	NaN	82	2	19	1	120	220	320	NaN	520	0.0103126903995872	2	1	NaN	2421296.7548666	NaN	2421297.7382903	2421298.25484891
61	20	1	0	90	36.1581920903955	36.241610738255	23	0.766766272187233	2	10	5	NaN	2	4	0.0542498672943188	0	1	NaN	83	2	20	1	120	220	320	NaN	520	0.275270380545408	2	1	NaN	2421299.0884456	NaN	2421300.0718377	2421300.58840652
61	20	1	0	90	36.1581920903955	36.241610738255	22	0.733428608179092	2	10	1	NaN	2	3	0.0542498672943188	0	1	NaN	84	2	21	1	120	220	320	NaN	520	0.0467216810211539	2	1	NaN	2421303.9889334	NaN	2421304.9723794	2421305.48887722
61	20	1	0	90	36.1581920903955	36.241610738255	10	0.333376640081406	2	11	6	NaN	2	3	0.0542498672943188	0	1	NaN	85	2	22	1	120	220	320	NaN	520	0.644767680671066	2	1	NaN	2421307.0392432	NaN	2421308.022636	2421308.53917742
61	20	1	0	90	36.1581920903955	36.241610738255	23	0.766766272187233	2	9	2	NaN	2	3	0.0542498672943188	0	1	NaN	86	2	23	1	120	220	320	NaN	520	0.734119929838926	2	1	NaN	2421309.9895312	NaN	2421310.972919	2421311.48946657
61	20	1	0	90	36.1581920903955	36.241610738255	7	0.233363648056984	2	10	3	NaN	2	5	0.0542498672943188	0	1	NaN	87	2	24	1	120	220	320	NaN	520	0.491832680534571	2	1	NaN	2421313.0398115	NaN	2421314.0232337	2421314.53977222
61	20	1	0	90	36.1581920903955	36.241610738255	0	0	1	1	5	NaN	1	3	0.0542498672943188	0	1	NaN	88	2	25	1	110	210	310	NaN	510	0.107642929535359	2	0	NaN	2421315.8401075	NaN	2421316.8234889	2421317.34004617
61	20	1	0	90	36.1581920903955	36.241610738255	6	0.200025984048843	2	11	4	NaN	2	4	0.0542498672943188	0	1	NaN	89	2	26	1	120	220	320	NaN	520	0.602573080454022	2	1	NaN	2421318.2570221	NaN	2421319.2404215	2421319.75695322
61	20	1	0	90	36.1581920903955	36.241610738255	7	0.233363648056984	2	10	6	NaN	2	3	0.0542498672943188	0	1	NaN	90	2	27	1	120	220	320	NaN	520	0.0296660806052387	2	1	NaN	2421321.1738379	NaN	2421322.1573512	2421322.67389472
61	20	1	0	90	36.1581920903955	36.241610738255	6	0.200025984048843	2	3	3	NaN	1	5	0.0542498672943188	0	1	NaN	91	2	28	1	120	220	320	NaN	520	0.183339880779386	1	1	NaN	2421323.524154	NaN	2421324.5076002	2421325.02413632
61	20	1	0	90	36.1581920903955	36.241610738255	25	0.833441600203514	2	7	1	NaN	2	3	0.0542498672943188	0	1	NaN	92	2	29	1	120	220	320	NaN	520	0.485947080422193	1	0	NaN	2421326.5577105	NaN	2421327.5411967	2421328.05775742
61	20	1	0	90	36.1581920903955	36.241610738255	10	0.333376640081406	2	10	3	NaN	2	4	0.0542498672943188	0	1	NaN	93	2	30	1	120	220	320	NaN	520	0.526057629380375	2	1	NaN	2421329.3580945	NaN	2421330.3414908	2421330.85803367
61	20	1	0	90	36.1581920903955	36.241610738255	22	0.733428608179092	2	10	3	NaN	2	3	0.0542498672943188	0	1	NaN	94	2	31	1	120	220	320	NaN	520	0.0103967320173979	1	0	NaN	2421332.641773	NaN	2421333.6251711	2421334.14169667
61	20	1	0	90	36.1581920903955	36.241610738255	19	0.633415616154671	2	11	4	NaN	2	4	0.0542498672943188	0	1	NaN	95	2	32	1	120	220	320	NaN	520	0.0104041807353497	2	1	NaN	2421334.9586405	NaN	2421335.9420342	2421336.45860822
61	20	1	0	90	36.1581920903955	36.241610738255	14	0.466727296113968	2	7	5	NaN	2	5	0.0542498672943188	0	1	NaN	96	2	33	1	120	220	320	NaN	520	0.336091232486069	1	0	NaN	2421337.275521	NaN	2421338.258939	2421338.77548937
61	20	1	0	90	36.1581920903955	36.241610738255	0	0	1	10	4	NaN	2	4	0.0542498672943188	0	1	NaN	97	2	34	1	110	210	310	NaN	510	0.297597545664757	1	0	NaN	2421340.6425311	NaN	2421341.6259366	2421342.14248165
61	20	1	0	90	36.1581920903955	36.241610738255	23	0.766766272187233	2	10	2	NaN	2	5	0.0542498672943188	0	1	NaN	98	2	35	1	120	220	320	NaN	520	0.175259732175618	2	1	NaN	2421343.4928204	NaN	2421344.4762152	2421344.99276317
61	20	1	0	90	36.1581920903955	36.241610738255	14	0.466727296113968	2	3	4	NaN	1	5	0.0542498672943188	0	1	NaN	99	2	36	1	120	220	320	NaN	520	0.115368380676955	1	1	NaN	2421345.9763953	NaN	2421346.959793	2421347.47633792
61	20	1	0	90	36.1581920903955	36.241610738255	23	0.766766272187233	2	12	3	NaN	2	5	0.0542498672943188	0	1	NaN	100	2	37	1	120	220	320	NaN	520	0.506337393540889	1	0	NaN	2421348.393302	NaN	2421349.3766893	2421349.89324721
61	20	1	0	90	36.1581920903955	36.241610738255	7	0.233363648056984	2	1	6	NaN	1	3	0.0542498672943188	0	1	NaN	101	2	38	1	120	220	320	NaN	520	0.353954080492258	2	0	NaN	2421351.2101224	NaN	2421352.1936447	2421352.71018782
61	20	1	0	90	36.1581920903955	36.241610738255	15	0.500064960122108	2	6	5	NaN	1	4	0.0542498672943188	0	1	NaN	102	2	39	1	120	220	320	NaN	520	0.0104026808403432	1	1	NaN	2421354.6939693	NaN	2421355.6772987	2421356.19386292
61	20	1	0	90	36.1581920903955	36.241610738255	14	0.466727296113968	2	12	4	NaN	2	4	0.0542498672943188	0	1	NaN	103	2	40	1	120	220	320	NaN	520	1.00108828069642	2	1	NaN	2421357.0106734	NaN	2421357.9941976	2421358.51074952
61	20	1	0	90	36.1581920903955	36.241610738255	22	0.733428608179092	2	9	5	NaN	2	4	0.0542498672943188	0	1	NaN	104	2	41	1	120	220	320	NaN	520	0.0104077807627618	2	1	NaN	2421361.4779142	NaN	2421362.4613078	2421362.97785412
61	20	1	0	90	36.1581920903955	36.241610738255	24	0.800103936195373	2	11	5	NaN	2	4	0.0542498672943188	0	1	NaN	105	2	42	1	120	220	320	NaN	520	0.417362031992525	2	1	NaN	2421363.7948431	NaN	2421364.7782045	2421365.29476037
61	20	1	0	90	36.1581920903955	36.241610738255	9	0.300038976073265	2	3	5	NaN	1	4	0.0542498672943188	0	1	NaN	106	2	43	1	120	220	320	NaN	520	0.0104163810610771	1	1	NaN	2421366.5284434	NaN	2421367.51181	2421368.02834902
61	20	1	0	90	36.1581920903955	36.241610738255	25	0.833441600203514	2	3	4	NaN	1	3	0.0542498672943188	0	1	NaN	107	2	44	1	120	220	320	NaN	520	0.710906080901623	1	1	NaN	2421368.8452995	NaN	2421369.8286996	2421370.34524952
61	20	1	0	90	36.1581920903955	36.241610738255	17	0.56674028813839	2	1	3	NaN	1	3	0.0542498672943188	0	1	NaN	108	2	45	1	120	220	320	NaN	520	0.0288505326025188	1	1	NaN	2421371.8789396	NaN	2421372.8623303	2421373.37887627
61	20	1	0	90	36.1581920903955	36.241610738255	9	0.300038976073265	2	7	5	NaN	2	5	0.0542498672943188	0	1	NaN	109	2	46	1	120	220	320	NaN	520	0.590944480616599	2	1	NaN	2421374.2291671	NaN	2421375.2125599	2421375.72911682
61	20	1	0	90	36.1581920903955	36.241610738255	10	0.333376640081406	2	2	3	NaN	1	3	0.0542498672943188	0	1	NaN	110	2	47	1	120	220	320	NaN	520	0.0104028326459229	1	1	NaN	2421377.3461221	NaN	2421378.3295314	2421378.84607797
61	20	1	0	90	36.1581920903955	36.241610738255	9	0.300038976073265	2	1	1	NaN	1	3	0.0542498672943188	0	1	NaN	111	2	48	1	120	220	320	NaN	520	0.0104064806364477	1	1	NaN	2421379.9790563	NaN	2421380.9631651	2421381.47967722
61	20	1	0	90	36.1581920903955	36.241610738255	22	0.733428608179092	2	1	5	NaN	1	4	0.0542498672943188	0	1	NaN	112	2	49	1	120	220	320	NaN	520	0.574233180377632	2	0	NaN	2421384.4135035	NaN	2421385.3968985	2421385.91343732
61	20	1	0	90	36.1581920903955	36.241610738255	11	0.366714304089546	2	12	3	NaN	2	3	0.0542498672943188	0	1	NaN	113	2	50	1	120	220	320	NaN	520	0.127637580502778	2	1	NaN	2421387.5804593	NaN	2421388.5638685	2421389.08042672
61	20	1	0	90	36.1581920903955	36.241610738255	23	0.766766272187233	2	7	1	NaN	2	3	0.0542498672943188	0	1	NaN	114	2	51	1	120	220	320	NaN	520	0.341863380745053	2	1	NaN	2421390.013932	NaN	2421390.9974461	2421391.51398862
61	20	1	0	90	36.1581920903955	36.241610738255	18	0.60007795214653	2	5	5	NaN	1	3	0.0542498672943188	0	1	NaN	115	2	52	1	120	220	320	NaN	520	0.0104252295568585	1	1	NaN	2421392.6644001	NaN	2421393.6477055	2421394.16425297
61	20	1	0	90	36.1581920903955	36.241610738255	23	0.766766272187233	2	2	6	NaN	1	3	0.0542498672943188	0	1	NaN	116	2	53	1	120	220	320	NaN	520	0.960732080508024	1	1	NaN	2421418.2834878	NaN	2421419.2668991	2421419.78343872
61	20	1	0	90	36.1581920903955	36.241610738255	20	0.666753280162811	2	2	3	NaN	1	3	0.0542498672943188	0	1	NaN	117	2	54	1	120	220	320	NaN	520	0.525374580640346	2	0	NaN	2421421.5504752	NaN	2421422.5338767	2421423.05042042
61	20	1	0	90	36.1581920903955	36.241610738255	6	0.200025984048843	2	1	5	NaN	1	5	0.0542498672943188	0	1	NaN	118	2	55	1	120	220	320	NaN	520	0.355671584140509	2	0	NaN	2421424.3840731	NaN	2421425.3674837	2421425.88403972
61	20	1	0	90	36.1581920903955	36.241610738255	20	0.666753280162811	2	3	6	NaN	1	3	0.0542498672943188	0	1	NaN	119	2	56	1	120	220	320	NaN	520	0.529297532048076	1	1	NaN	2421427.0510085	NaN	2421428.0344302	2421428.55096657
61	20	1	0	90	36.1581920903955	36.241610738255	6	0.200025984048843	2	6	3	NaN	1	4	0.0542498672943188	0	1	NaN	120	2	57	1	120	220	320	NaN	520	0.150464380625635	2	0	NaN	2421429.9012877	NaN	2421430.8846805	2421431.40124382
61	20	1	0	90	36.1581920903955	36.241610738255	8	0.266701312065124	2	7	1	NaN	2	4	0.0542498672943188	0	1	NaN	121	2	58	1	120	220	320	NaN	520	0.395587532315403	1	0	NaN	2421432.3681935	NaN	2421433.3516269	2421433.86815347
61	20	1	0	90	36.1581920903955	36.241610738255	24	0.800103936195373	2	6	3	NaN	1	3	0.0542498672943188	0	1	NaN	122	2	59	1	120	220	320	NaN	520	1.44745873240754	1	1	NaN	2421435.0685579	NaN	2421436.0518632	2421436.56841497
61	20	1	0	90	36.1581920903955	36.241610738255	21	0.700090944170952	2	2	1	NaN	1	4	0.0542498672943188	0	1	NaN	123	2	60	1	120	220	320	NaN	520	0.30435358081013	2	0	NaN	2421438.8354977	NaN	2421439.8188783	2421440.33544832
61	20	1	0	90	36.1581920903955	36.241610738255	24	0.800103936195373	2	3	2	NaN	1	4	0.0542498672943188	0	1	NaN	124	2	61	1	120	220	320	NaN	520	0.271628281101584	1	1	NaN	2421441.4524277	NaN	2421442.4358223	2421442.95237472
61	20	1	0	90	36.1581920903955	36.241610738255	0	0	1	7	6	NaN	2	5	0.0542498672943188	0	1	NaN	125	2	62	1	110	210	310	NaN	510	0.464152580592781	2	1	NaN	2421444.0360106	NaN	2421445.0194135	2421445.53595782
61	20	1	0	90	36.1581920903955	36.241610738255	0	0	1	3	5	NaN	1	3	0.0542498672943188	0	1	NaN	126	2	63	1	110	210	310	NaN	510	0.0249974322505295	1	1	NaN	2421446.8029731	NaN	2421447.7863802	2421448.30289637
61	20	1	0	90	36.1581920903955	36.241610738255	7	0.233363648056984	2	1	4	NaN	1	3	0.0542498672943188	0	1	NaN	127	3	1	1	120	220	320	NaN	520	1.95639248052612	1	1	NaN	2421456.9038703	NaN	2421457.8873481	2421458.40389122
61	20	1	0	90	36.1581920903955	36.241610738255	17	0.56674028813839	2	12	6	NaN	2	3	0.0542498672943188	0	1	NaN	128	3	2	1	120	220	320	NaN	520	5.45248114550486	2	1	NaN	2421461.2876768	NaN	2421462.2711068	2421462.78766085
61	20	1	0	90	36.1581920903955	36.241610738255	24	0.800103936195373	2	8	6	NaN	2	5	0.0542498672943188	0	1	NaN	129	3	3	1	120	220	320	NaN	520	0.301116645336151	2	1	NaN	2421469.0551346	NaN	2421470.0385208	2421470.55510525
61	20	1	0	90	36.1581920903955	36.241610738255	16	0.533402624130249	2	6	1	NaN	1	4	0.0542498672943188	0	1	NaN	130	3	4	1	120	220	320	NaN	520	0.140218680724502	1	1	NaN	2421471.6720577	NaN	2421472.6554598	2421473.17201652
61	20	1	0	90	36.1581920903955	36.241610738255	14	0.466727296113968	2	2	3	NaN	1	3	0.0542498672943188	0	1	NaN	131	3	5	1	120	220	320	NaN	520	0.225644981022924	1	1	NaN	2421474.1223043	NaN	2421475.1057038	2421475.62225442
61	20	1	0	90	36.1581920903955	36.241610738255	13	0.433389632105827	2	5	1	NaN	1	5	0.0542498672943188	0	1	NaN	132	3	6	1	120	220	320	NaN	520	0.340429329313338	1	1	NaN	2421476.6558699	NaN	2421477.6393212	2421478.15582497
61	20	1	0	90	36.1581920903955	36.241610738255	20	0.666753280162811	2	8	3	NaN	2	4	0.0542498672943188	0	1	NaN	133	3	7	1	120	220	320	NaN	520	0.226244432386011	2	1	NaN	2421479.3061505	NaN	2421480.2895411	2421480.80609567
61	20	1	0	90	36.1581920903955	36.241610738255	25	0.833441600203514	2	5	3	NaN	1	5	0.0542498672943188	0	1	NaN	134	3	8	1	120	220	320	NaN	520	0.516196432057768	1	1	NaN	2421481.8395838	NaN	2421482.8231274	2421483.33968047
61	20	1	0	90	36.1581920903955	36.241610738255	11	0.366714304089546	2	2	6	NaN	1	5	0.0542498672943188	0	1	NaN	135	3	9	1	120	220	320	NaN	520	0.227091480977833	1	1	NaN	2421484.6733395	NaN	2421485.656757	2421486.17328862
61	20	1	0	90	36.1581920903955	36.241610738255	16	0.533402624130249	2	1	3	NaN	1	4	0.0542498672943188	0	1	NaN	136	3	10	1	120	220	320	NaN	520	0.421027980744839	2	0	NaN	2421487.2070063	NaN	2421488.1903186	2421488.70686432
61	20	1	0	90	36.1581920903955	36.241610738255	22	0.733428608179092	2	2	5	NaN	1	4	0.0542498672943188	0	1	NaN	137	3	11	1	120	220	320	NaN	520	0.255724180489779	1	1	NaN	2421489.9403803	NaN	2421490.9239196	2421491.44047122
61	20	1	0	90	36.1581920903955	36.241610738255	13	0.433389632105827	2	12	3	NaN	2	4	0.0542498672943188	0	1	NaN	138	3	12	1	120	220	320	NaN	520	1.39186723250896	2	1	NaN	2421492.7240918	NaN	2421493.7075639	2421494.22407967
61	20	1	0	90	36.1581920903955	36.241610738255	21	0.700090944170952	2	10	6	NaN	2	3	0.0542498672943188	0	1	NaN	139	3	13	1	120	220	320	NaN	520	0.23549878038466	2	1	NaN	2421496.4243604	NaN	2421497.4078855	2421497.92444012
61	20	1	0	90	36.1581920903955	36.241610738255	25	0.833441600203514	2	2	6	NaN	1	4	0.0542498672943188	0	1	NaN	140	3	14	1	120	220	320	NaN	520	0.0612900322303176	1	1	NaN	2421498.9747264	NaN	2421499.9581441	2421500.47469347
61	20	1	0	90	36.1581920903955	36.241610738255	13	0.433389632105827	2	6	6	NaN	1	5	0.0542498672943188	0	1	NaN	141	3	15	1	120	220	320	NaN	520	0.198564180638641	1	1	NaN	2421501.3416286	NaN	2421502.3250379	2421502.84158272
61	20	1	0	90	36.1581920903955	36.241610738255	19	0.633415616154671	2	6	6	NaN	1	5	0.0542498672943188	0	1	NaN	142	3	16	1	120	220	320	NaN	520	0.0895090322010219	1	1	NaN	2421503.858638	NaN	2421504.8419837	2421505.35850527
61	20	1	0	90	36.1581920903955	36.241610738255	20	0.666753280162811	2	7	2	NaN	2	3	0.0542498672943188	0	1	NaN	143	3	17	1	120	220	320	NaN	520	0.27319138078019	2	1	NaN	2421506.258682	NaN	2421507.2421886	2421507.75873892
61	20	1	0	90	36.1581920903955	36.241610738255	0	0	1	4	2	NaN	1	5	0.0542498672943188	0	1	NaN	144	3	18	1	110	210	310	NaN	510	0.385569332167506	1	1	NaN	2421508.8423729	NaN	2421509.8257918	2421510.34232917
61	20	1	0	90	36.1581920903955	36.241610738255	18	0.60007795214653	2	12	2	NaN	2	3	0.0542498672943188	0	1	NaN	145	3	19	1	120	220	320	NaN	520	0.461126384325325	2	1	NaN	2421513.3427889	NaN	2421514.3262134	2421514.84276322
61	20	1	0	90	36.1581920903955	36.241610738255	10	0.333376640081406	2	7	3	NaN	2	3	0.0542498672943188	0	1	NaN	146	3	20	1	120	220	320	NaN	520	0.0104240803048015	1	0	NaN	2421516.1097566	NaN	2421517.0931588	2421517.60970602
61	20	1	0	90	36.1581920903955	36.241610738255	18	0.60007795214653	2	6	1	NaN	1	5	0.0542498672943188	0	1	NaN	147	3	21	1	120	220	320	NaN	520	3.29779709037393	1	1	NaN	2421518.4266525	NaN	2421519.4100487	2421519.92659711
61	20	1	0	90	36.1581920903955	36.241610738255	24	0.800103936195373	2	4	5	NaN	1	3	0.0542498672943188	0	1	NaN	148	3	22	1	120	220	320	NaN	520	0.339354432653636	1	1	NaN	2421524.160517	NaN	2421525.1439517	2421525.66050017
61	20	1	0	90	36.1581920903955	36.241610738255	22	0.733428608179092	2	3	2	NaN	1	4	0.0542498672943188	0	1	NaN	149	3	23	1	120	220	320	NaN	520	0.0103929322212934	1	1	NaN	2421526.8108134	NaN	2421527.7942072	2421528.31075597
61	20	1	0	90	36.1581920903955	36.241610738255	15	0.500064960122108	2	8	6	NaN	2	3	0.0542498672943188	0	1	NaN	150	3	24	1	120	220	320	NaN	520	0.0103977327235043	1	0	NaN	2421529.1275819	NaN	2421530.1110889	2421530.62765667
61	20	1	0	90	36.1581920903955	36.241610738255	20	0.666753280162811	2	6	5	NaN	1	5	0.0542498672943188	0	1	NaN	151	3	25	1	120	220	320	NaN	520	0.0104069807566702	2	0	NaN	2421531.4445982	NaN	2421532.4279925	2421532.94454772
61	20	1	0	90	36.1581920903955	36.241610738255	24	0.800103936195373	2	8	3	NaN	2	3	0.0542498672943188	0	1	NaN	152	3	26	1	120	220	320	NaN	520	0.106525832321495	2	1	NaN	2421533.7614843	NaN	2421534.7448888	2421535.26144007
61	20	1	0	90	36.1581920903955	36.241610738255	25	0.833441600203514	2	6	3	NaN	1	5	0.0542498672943188	0	1	NaN	153	3	27	1	120	220	320	NaN	520	0.153421632479876	1	1	NaN	2421536.1782742	NaN	2421537.1617915	2421537.67834187
61	20	1	0	90	36.1581920903955	36.241610738255	22	0.733428608179092	2	3	4	NaN	1	3	0.0542498672943188	0	1	NaN	154	3	28	1	120	220	320	NaN	520	0.616491980850697	2	0	NaN	2421581.6995329	NaN	2421582.6829534	2421583.19947012
61	20	1	0	90	36.1581920903955	36.241610738255	13	0.433389632105827	2	3	2	NaN	1	5	0.0542498672943188	0	1	NaN	155	3	29	1	120	220	320	NaN	520	0.370748780667782	1	1	NaN	2421584.6331757	NaN	2421585.6165444	2421586.13310292
61	20	1	0	90	36.1581920903955	36.241610738255	11	0.366714304089546	2	12	5	NaN	2	4	0.0542498672943188	0	1	NaN	156	3	30	1	120	220	320	NaN	520	0.823575180955231	2	1	NaN	2421587.3166436	NaN	2421588.3001453	2421588.81669592
61	20	1	0	90	36.1581920903955	36.241610738255	23	0.766766272187233	2	5	6	NaN	1	3	0.0542498672943188	0	1	NaN	157	3	31	1	120	220	320	NaN	520	0.561666780617088	2	0	NaN	2421590.4503906	NaN	2421591.4337839	2421591.95033772
61	20	1	0	90	36.1581920903955	36.241610738255	25	0.833441600203514	2	10	3	NaN	2	5	0.0542498672943188	0	1	NaN	158	3	32	1	120	220	320	NaN	520	0.183145132381469	2	1	NaN	2421593.3173449	NaN	2421594.3007516	2421594.81728727
61	20	1	0	90	36.1581920903955	36.241610738255	6	0.200025984048843	2	10	3	NaN	2	3	0.0542498672943188	0	1	NaN	159	3	33	1	120	220	320	NaN	520	0.122458180878311	1	0	NaN	2421595.8176046	NaN	2421596.8009845	2421597.31752922
61	20	1	0	90	36.1581920903955	36.241610738255	20	0.666753280162811	2	6	1	NaN	1	5	0.0542498672943188	0	1	NaN	160	3	34	1	120	220	320	NaN	520	0.161338238976896	1	1	NaN	2421598.2511599	NaN	2421599.2345635	2421599.75110186
61	20	1	0	90	36.1581920903955	36.241610738255	13	0.433389632105827	2	1	4	NaN	1	3	0.0542498672943188	0	1	NaN	161	3	35	1	120	220	320	NaN	520	0.214226187206805	2	0	NaN	2421600.7180697	NaN	2421601.7014588	2421602.21802881
61	20	1	0	90	36.1581920903955	36.241610738255	16	0.533402624130249	2	11	4	NaN	2	3	0.0542498672943188	0	1	NaN	162	3	36	1	120	220	320	NaN	520	0.12913173250854	2	1	NaN	2421603.2349906	NaN	2421604.2183909	2421604.73492507
61	20	1	0	90	36.1581920903955	36.241610738255	15	0.500064960122108	2	7	3	NaN	2	4	0.0542498672943188	0	1	NaN	163	3	37	1	120	220	320	NaN	520	0.422886341810226	1	0	NaN	2421605.6852191	NaN	2421606.6686189	2421607.18517006
61	20	1	0	90	36.1581920903955	36.241610738255	25	0.833441600203514	2	2	2	NaN	1	4	0.0542498672943188	0	1	NaN	164	3	38	1	120	220	320	NaN	520	0.273347932379693	1	1	NaN	2421608.4188385	NaN	2421609.4022361	2421609.91877317
61	20	1	0	90	36.1581920903955	36.241610738255	24	0.800103936195373	2	3	3	NaN	1	5	0.0542498672943188	0	1	NaN	165	3	39	1	120	220	320	NaN	520	0.121959090232849	1	1	NaN	2421611.0024112	NaN	2421611.9858062	2421612.50236201
61	20	1	0	90	36.1581920903955	36.241610738255	0	0	1	11	2	NaN	2	5	0.0542498672943188	0	1	NaN	166	3	40	1	110	210	310	NaN	510	0.23462228057906	1	0	NaN	2421653.6899474	NaN	2421654.6733397	2421655.18988272
61	20	1	0	90	36.1581920903955	36.241610738255	18	0.60007795214653	2	10	2	NaN	2	5	0.0542498672943188	0	1	NaN	167	3	41	1	120	220	320	NaN	520	0.0104074804112315	1	0	NaN	2421656.2401931	NaN	2421657.223616	2421657.74012802
61	20	1	0	90	36.1581920903955	36.241610738255	13	0.433389632105827	2	2	3	NaN	1	3	0.0542498672943188	0	1	NaN	168	3	42	1	120	220	320	NaN	520	0.0104102808982134	1	1	NaN	2421658.5570961	NaN	2421659.5404922	2421660.05702562
61	20	1	0	90	36.1581920903955	36.241610738255	21	0.700090944170952	2	11	4	NaN	2	5	0.0542498672943188	0	1	NaN	169	3	43	1	120	220	320	NaN	520	0.0104118874296546	2	1	NaN	2421660.8906493	NaN	2421661.8740553	2421662.39059411
61	20	1	0	90	36.1581920903955	36.241610738255	6	0.200025984048843	2	9	1	NaN	2	5	0.0542498672943188	0	1	NaN	170	3	44	1	120	220	320	NaN	520	0.0103372386656702	1	0	NaN	2421663.2075536	NaN	2421664.1909595	2421664.70747656
61	20	1	0	90	36.1581920903955	36.241610738255	7	0.233363648056984	2	5	1	NaN	1	4	0.0542498672943188	0	1	NaN	171	3	45	1	120	220	320	NaN	520	0.0104347295127809	1	1	NaN	2421665.5411025	NaN	2421666.5244151	2421667.04104187
61	20	1	0	90	36.1581920903955	36.241610738255	23	0.766766272187233	2	6	6	NaN	1	3	0.0542498672943188	0	1	NaN	172	3	46	1	120	220	320	NaN	520	0.0104107805527747	1	1	NaN	2421667.8579811	NaN	2421668.8413982	2421669.35794142
61	20	1	0	90	36.1581920903955	36.241610738255	20	0.666753280162811	2	5	3	NaN	1	3	0.0542498672943188	0	1	NaN	173	3	47	1	120	220	320	NaN	520	0.0104276803322136	1	1	NaN	2421670.1915806	NaN	2421671.1749698	2421671.69150062
61	20	1	0	90	36.1581920903955	36.241610738255	6	0.200025984048843	2	10	4	NaN	2	5	0.0542498672943188	0	1	NaN	174	3	48	1	120	220	320	NaN	520	0.167830732185394	2	1	NaN	2421672.5084507	NaN	2421673.4918915	2421674.00840017
61	20	1	0	90	36.1581920903955	36.241610738255	15	0.500064960122108	2	12	3	NaN	2	5	0.0542498672943188	0	1	NaN	175	3	49	1	120	220	320	NaN	520	0.404374545440078	2	1	NaN	2421674.9918943	NaN	2421675.9754717	2421676.49198365
61	20	1	0	90	36.1581920903955	36.241610738255	18	0.60007795214653	2	5	5	NaN	1	4	0.0542498672943188	0	1	NaN	176	3	50	1	120	220	320	NaN	520	0.0705053806304932	1	1	NaN	2421677.725627	NaN	2421678.7090281	2421679.22557532
61	20	1	0	90	36.1581920903955	36.241610738255	14	0.466727296113968	2	6	6	NaN	1	3	0.0542498672943188	0	1	NaN	177	3	51	1	120	220	320	NaN	520	0.0104520805180073	1	1	NaN	2421680.1090852	NaN	2421681.092582	2421681.60913632
61	20	1	0	90	36.1581920903955	36.241610738255	18	0.60007795214653	2	4	5	NaN	1	3	0.0542498672943188	0	1	NaN	178	3	52	1	120	220	320	NaN	520	0.010493129491806	1	1	NaN	2421682.4427544	NaN	2421683.42617	2421683.94269727
61	20	1	0	90	36.1581920903955	36.241610738255	12	0.400051968097687	2	7	3	NaN	2	4	0.0542498672943188	0	1	NaN	179	3	53	1	120	220	320	NaN	520	0.0918472805060446	2	1	NaN	2421684.7763391	NaN	2421685.7598328	2421686.27626142
61	20	1	0	90	36.1581920903955	36.241610738255	22	0.733428608179092	2	7	2	NaN	2	5	0.0542498672943188	0	1	NaN	180	3	54	1	120	220	320	NaN	520	0.0189752806909382	1	0	NaN	2421687.1930927	NaN	2421688.1766316	2421688.69316592
61	20	1	0	90	36.1581920903955	36.241610738255	8	0.266701312065124	2	10	1	NaN	2	5	0.0542498672943188	0	1	NaN	181	3	55	1	120	220	320	NaN	520	0.749682787340134	2	1	NaN	2421689.5267801	NaN	2421690.5101908	2421691.02673121
61	20	1	0	90	36.1581920903955	36.241610738255	11	0.366714304089546	2	11	2	NaN	2	3	0.0542498672943188	0	1	NaN	182	3	56	1	120	220	320	NaN	520	0.13888812949881	1	0	NaN	2421692.5937737	NaN	2421693.5771588	2421694.09369627
61	20	1	0	90	36.1581920903955	36.241610738255	8	0.266701312065124	2	5	3	NaN	1	4	0.0542498672943188	0	1	NaN	183	3	57	1	120	220	320	NaN	520	0.0103922323323786	1	1	NaN	2421695.0606845	NaN	2421696.0441122	2421696.56060687
61	20	1	0	90	36.1581920903955	36.241610738255	18	0.60007795214653	2	11	4	NaN	2	4	0.0542498672943188	0	1	NaN	184	3	58	1	120	220	320	NaN	520	0.162348742131144	2	1	NaN	2421697.3942281	NaN	2421698.3776435	2421698.89417126
61	20	1	0	90	36.1581920903955	36.241610738255	11	0.366714304089546	2	1	1	NaN	1	5	0.0542498672943188	0	1	NaN	185	3	59	1	120	220	320	NaN	520	0.01043332926929	1	1	NaN	2421699.861083	NaN	2421700.8445455	2421701.36107737
61	20	1	0	90	36.1581920903955	36.241610738255	23	0.766766272187233	2	5	4	NaN	1	3	0.0542498672943188	0	1	NaN	186	3	60	1	120	220	320	NaN	520	0.441951893735677	2	0	NaN	2421702.1947289	NaN	2421703.1780885	2421703.69464511
61	20	1	0	90	36.1581920903955	36.241610738255	23	0.766766272187233	2	12	2	NaN	2	5	0.0542498672943188	0	1	NaN	187	3	61	1	120	220	320	NaN	520	0.0104112806729972	2	1	NaN	2421705.0282742	NaN	2421706.0117195	2421706.52825092
61	20	1	0	90	36.1581920903955	36.241610738255	20	0.666753280162811	2	5	2	NaN	1	3	0.0542498672943188	0	1	NaN	188	3	62	1	120	220	320	NaN	520	0.0662549803964794	2	0	NaN	2421707.3618609	NaN	2421708.3452767	2421708.86182452
61	20	1	0	90	36.1581920903955	36.241610738255	18	0.60007795214653	2	6	6	NaN	1	3	0.0542498672943188	0	1	NaN	189	3	63	1	120	220	320	NaN	520	0.010472780559212	1	1	NaN	2421709.762119	NaN	2421710.7455139	2421711.26205782
61	20	1	0	90	36.1581920903955	36.241610738255	6	0.200025984048843	2	12	1	NaN	2	5	0.0542498672943188	0	1	NaN	190	4	1	1	120	220	320	NaN	520	4.49075348069891	1	0	NaN	2421717.9295808	NaN	2421718.9129746	2421719.42951342
61	20	1	0	90	36.1581920903955	36.241610738255	12	0.400051968097687	2	6	2	NaN	1	3	0.0542498672943188	0	1	NaN	191	4	2	1	120	220	320	NaN	520	0.0104138874448836	1	1	NaN	2421724.7303312	NaN	2421725.7136552	2421726.23018821
61	20	1	0	90	36.1581920903955	36.241610738255	18	0.60007795214653	2	10	4	NaN	2	3	0.0542498672943188	0	1	NaN	192	4	3	1	120	220	320	NaN	520	0.060540481004864	2	1	NaN	2421727.0637884	NaN	2421728.0472171	2421728.56374472
61	20	1	0	90	36.1581920903955	36.241610738255	6	0.200025984048843	2	1	3	NaN	1	5	0.0542498672943188	0	1	NaN	193	4	4	1	120	220	320	NaN	520	0.0769745805300772	2	0	NaN	2421729.4473783	NaN	2421730.4307681	2421730.94732202
61	20	1	0	90	36.1581920903955	36.241610738255	18	0.60007795214653	2	11	1	NaN	2	5	0.0542498672943188	0	1	NaN	194	4	5	1	120	220	320	NaN	520	0.260628532152623	2	1	NaN	2421731.8476951	NaN	2421732.8309676	2421733.34754657
61	20	1	0	90	36.1581920903955	36.241610738255	0	0	1	6	4	NaN	1	3	0.0542498672943188	0	1	NaN	195	4	6	1	110	210	310	NaN	510	0.0104209808632731	1	1	NaN	2421734.4145276	NaN	2421735.3979257	2421735.91447312
61	20	1	0	90	36.1581920903955	36.241610738255	0	0	1	8	6	NaN	2	5	0.0542498672943188	0	1	NaN	196	4	7	1	110	210	310	NaN	510	0.769323880318552	1	0	NaN	2421736.7314152	NaN	2421737.7148411	2421738.23138292
61	20	1	0	90	36.1581920903955	36.241610738255	21	0.700090944170952	2	5	2	NaN	1	4	0.0542498672943188	0	1	NaN	197	4	8	1	120	220	320	NaN	520	0.973480829503387	2	0	NaN	2421739.815074	NaN	2421740.7984671	2421741.31499707
61	20	1	0	90	36.1581920903955	36.241610738255	8	0.266701312065124	2	10	1	NaN	2	5	0.0542498672943188	0	1	NaN	198	4	9	1	120	220	320	NaN	520	0.384850026108325	2	1	NaN	2421743.1153219	NaN	2421744.0988543	2421744.61532747
61	20	1	0	90	36.1581920903955	36.241610738255	9	0.300038976073265	2	6	4	NaN	1	3	0.0542498672943188	0	1	NaN	199	4	10	1	120	220	320	NaN	520	0.0104112806729972	1	1	NaN	2421745.8156604	NaN	2421746.7990575	2421747.31559382
61	20	1	0	90	36.1581920903955	36.241610738255	15	0.500064960122108	2	9	4	NaN	2	5	0.0542498672943188	0	1	NaN	200	4	11	1	120	220	320	NaN	520	0.211108680814505	2	1	NaN	2421748.4492758	NaN	2421749.4326469	2421749.94918622
61	20	1	0	90	36.1581920903955	36.241610738255	0	0	1	12	2	NaN	2	4	0.0542498672943188	0	1	NaN	201	4	12	1	110	210	310	NaN	510	0.501511780545115	1	0	NaN	2421750.982815	NaN	2421751.9662173	2421752.48276632
61	20	1	0	90	36.1581920903955	36.241610738255	12	0.400051968097687	2	8	1	NaN	2	3	0.0542498672943188	0	1	NaN	202	4	13	1	120	220	320	NaN	520	0.412874529603869	2	1	NaN	2421753.799771	NaN	2421754.7831774	2421755.29971417
61	20	1	0	90	36.1581920903955	36.241610738255	23	0.766766272187233	2	4	6	NaN	1	5	0.0542498672943188	0	1	NaN	203	4	14	1	120	220	320	NaN	520	0.247356332372874	1	1	NaN	2421756.533228	NaN	2421757.516778	2421758.03331437
61	20	1	0	90	36.1581920903955	36.241610738255	6	0.200025984048843	2	2	4	NaN	1	5	0.0542498672943188	0	1	NaN	204	4	15	1	120	220	320	NaN	520	0.0240532327443361	2	0	NaN	2421759.1001589	NaN	2421760.0836809	2421760.60023637
61	20	1	0	90	36.1581920903955	36.241610738255	6	0.200025984048843	2	3	1	NaN	1	5	0.0542498672943188	0	1	NaN	205	4	16	1	120	220	320	NaN	520	0.378322880715132	1	1	NaN	2421761.4503454	NaN	2421762.4339061	2421762.95046212
61	20	1	0	90	36.1581920903955	36.241610738255	24	0.800103936195373	2	9	5	NaN	2	3	0.0542498672943188	0	1	NaN	206	4	17	1	120	220	320	NaN	520	0.277534632012248	2	1	NaN	2421764.1506627	NaN	2421765.134181	2421765.65072807
61	20	1	0	90	36.1581920903955	36.241610738255	22	0.733428608179092	2	2	4	NaN	1	3	0.0542498672943188	0	1	NaN	207	4	18	1	120	220	320	NaN	520	0.142027380410582	2	0	NaN	2421766.7343678	NaN	2421767.7177831	2421768.23431212
61	20	1	0	90	36.1581920903955	36.241610738255	0	0	1	5	4	NaN	1	3	0.0542498672943188	0	1	NaN	208	4	19	1	110	210	310	NaN	510	0.467020929791033	1	1	NaN	2421769.2011571	NaN	2421770.1846643	2421770.70121357
61	20	1	0	90	36.1581920903955	36.241610738255	15	0.500064960122108	2	11	5	NaN	2	3	0.0542498672943188	0	1	NaN	209	4	20	1	120	220	320	NaN	520	0.907567580696195	2	1	NaN	2421771.9848838	NaN	2421772.9682909	2421773.48483272
61	20	1	0	90	36.1581920903955	36.241610738255	12	0.400051968097687	2	12	6	NaN	2	5	0.0542498672943188	0	1	NaN	210	4	21	1	120	220	320	NaN	520	1.84188603237271	1	0	NaN	2421775.2184358	NaN	2421776.2019405	2421776.71847067
61	20	1	0	90	36.1581920903955	36.241610738255	8	0.266701312065124	2	6	1	NaN	1	4	0.0542498672943188	0	1	NaN	211	4	22	1	120	220	320	NaN	520	65.3791660293937	2	0	NaN	2421779.3856015	NaN	2421780.3690373	2421780.88554707
61	20	1	0	90	36.1581920903955	36.241610738255	12	0.400051968097687	2	9	3	NaN	2	5	0.0542498672943188	0	1	NaN	212	4	23	1	120	220	320	NaN	520	0.736231380607933	2	1	NaN	2421847.0922422	NaN	2421848.0756608	2421848.59220002
61	20	1	0	90	36.1581920903955	36.241610738255	17	0.56674028813839	2	8	3	NaN	2	3	0.0542498672943188	0	1	NaN	213	4	24	1	120	220	320	NaN	520	1.48593984823674	1	0	NaN	2421850.1425692	NaN	2421851.1259806	2421851.64250865
61	20	1	0	90	36.1581920903955	36.241610738255	7	0.233363648056984	2	7	4	NaN	2	4	0.0542498672943188	0	1	NaN	214	4	25	1	120	220	320	NaN	520	0.0369271296076477	2	1	NaN	2421853.959587	NaN	2421854.9430136	2421855.45954287
61	20	1	0	90	36.1581920903955	36.241610738255	24	0.800103936195373	2	11	2	NaN	2	4	0.0542498672943188	0	1	NaN	215	4	26	1	120	220	320	NaN	520	0.589708429761231	1	0	NaN	2421856.7430847	NaN	2421857.7266093	2421858.24314897
61	20	1	0	90	36.1581920903955	36.241610738255	14	0.466727296113968	2	10	2	NaN	2	5	0.0542498672943188	0	1	NaN	216	4	27	1	120	220	320	NaN	520	0.184511725790799	1	0	NaN	2421859.6601414	NaN	2421860.6435588	2421861.16009497
61	20	1	0	90	36.1581920903955	36.241610738255	12	0.400051968097687	2	9	1	NaN	2	5	0.0542498672943188	0	1	NaN	217	4	28	1	120	220	320	NaN	520	0.252464629244059	2	1	NaN	2421862.1604045	NaN	2421863.1439131	2421863.66034597
61	20	1	0	90	36.1581920903955	36.241610738255	9	0.300038976073265	2	9	5	NaN	2	4	0.0542498672943188	0	1	NaN	218	4	29	1	120	220	320	NaN	520	0.436928180512041	1	0	NaN	2421864.7438703	NaN	2421865.7274058	2421866.24393872
61	20	1	0	90	36.1581920903955	36.241610738255	0	0	1	11	3	NaN	2	3	0.0542498672943188	0	1	NaN	219	4	30	1	110	210	310	NaN	510	0.942231780849397	2	1	NaN	2421867.4942565	NaN	2421868.4776441	2421868.99420812
61	20	1	0	90	36.1581920903955	36.241610738255	25	0.833441600203514	2	1	4	NaN	1	5	0.0542498672943188	0	1	NaN	220	4	31	1	120	220	320	NaN	520	0.571281229611486	2	0	NaN	2421870.761283	NaN	2421871.7446534	2421872.26119527
61	20	1	0	90	36.1581920903955	36.241610738255	11	0.366714304089546	2	8	2	NaN	2	5	0.0542498672943188	0	1	NaN	221	4	32	1	120	220	320	NaN	520	0.487373480573297	2	1	NaN	2421873.6615371	NaN	2421874.6449347	2421875.16147372
61	20	1	0	90	36.1581920903955	36.241610738255	22	0.733428608179092	2	11	3	NaN	2	4	0.0542498672943188	0	1	NaN	222	4	33	1	120	220	320	NaN	520	0.358705284073949	1	0	NaN	2421876.4618096	NaN	2421877.4452372	2421877.96174882
61	20	1	0	90	36.1581920903955	36.241610738255	9	0.300038976073265	2	12	5	NaN	2	3	0.0542498672943188	0	1	NaN	223	4	34	1	120	220	320	NaN	520	0.403083577752113	2	1	NaN	2421879.1454047	NaN	2421880.1287926	2421880.64534472
61	20	1	0	90	36.1581920903955	36.241610738255	8	0.266701312065124	2	4	6	NaN	1	5	0.0542498672943188	0	1	NaN	224	4	35	1	120	220	320	NaN	520	0.0104934293776751	1	1	NaN	2421881.8790137	NaN	2421882.8624186	2421883.37894697
61	20	1	0	90	36.1581920903955	36.241610738255	14	0.466727296113968	2	7	5	NaN	2	4	0.0542498672943188	0	1	NaN	225	4	36	1	120	220	320	NaN	520	0.83230078080669	1	0	NaN	2421884.2124292	NaN	2421885.1959685	2421885.71251532
61	20	1	0	90	36.1581920903955	36.241610738255	8	0.266701312065124	2	5	1	NaN	1	4	0.0542498672943188	0	1	NaN	226	4	37	1	120	220	320	NaN	520	0.361054032109678	2	0	NaN	2421887.3795361	NaN	2421888.3629827	2421888.87948217
61	20	1	0	90	36.1581920903955	36.241610738255	15	0.500064960122108	2	12	1	NaN	2	3	0.0542498672943188	0	1	NaN	227	4	38	1	120	220	320	NaN	520	0.269378929398954	1	0	NaN	2421890.0631422	NaN	2421891.0465474	2421891.56307597
61	20	1	0	90	36.1581920903955	36.241610738255	14	0.466727296113968	2	8	5	NaN	2	3	0.0542498672943188	0	1	NaN	228	4	39	1	120	220	320	NaN	520	0.109938480891287	2	1	NaN	2421892.6467409	NaN	2421893.6301281	2421894.14667202
61	20	1	0	90	36.1581920903955	36.241610738255	24	0.800103936195373	2	5	1	NaN	1	3	0.0542498672943188	0	1	NaN	229	4	40	1	120	220	320	NaN	520	0.404819177463651	1	1	NaN	2421895.0636558	NaN	2421896.0470539	2421896.56356712
61	20	1	0	90	36.1581920903955	36.241610738255	0	0	1	5	2	NaN	1	5	0.0542498672943188	0	1	NaN	230	4	41	1	110	210	310	NaN	510	0.392023732420057	2	0	NaN	2421897.7805591	NaN	2421898.7639914	2421899.28051307
61	20	1	0	90	36.1581920903955	36.241610738255	14	0.466727296113968	2	3	5	NaN	1	5	0.0542498672943188	0	1	NaN	231	4	42	1	120	220	320	NaN	520	0.810879880562425	1	1	NaN	2421900.4973589	NaN	2421901.480937	2421901.99744702
61	20	1	0	90	36.1581920903955	36.241610738255	15	0.500064960122108	2	3	2	NaN	1	5	0.0542498672943188	0	1	NaN	232	4	43	1	120	220	320	NaN	520	0.565769132226706	1	1	NaN	2421903.6311377	NaN	2421904.6145976	2421905.13107327
61	20	1	0	90	36.1581920903955	36.241610738255	18	0.60007795214653	2	2	4	NaN	1	3	0.0542498672943188	0	1	NaN	233	4	44	1	120	220	320	NaN	520	0.434277380816638	1	1	NaN	2421906.5147562	NaN	2421907.4981331	2421908.01470632
61	20	1	0	90	36.1581920903955	36.241610738255	20	0.666753280162811	2	7	2	NaN	2	5	0.0542498672943188	0	1	NaN	234	4	45	1	120	220	320	NaN	520	0.403942980803549	1	0	NaN	2421909.2650369	NaN	2421910.2484382	2421910.76496232
61	20	1	0	90	36.1581920903955	36.241610738255	15	0.500064960122108	2	1	1	NaN	1	3	0.0542498672943188	0	1	NaN	235	4	46	1	120	220	320	NaN	520	0.502363677602261	1	1	NaN	2421911.998625	NaN	2421912.9820546	2421913.49856252
61	20	1	0	90	36.1581920903955	36.241610738255	14	0.466727296113968	2	12	6	NaN	2	3	0.0542498672943188	0	1	NaN	236	4	47	1	120	220	320	NaN	520	0.261127032339573	2	1	NaN	2421914.8154439	NaN	2421915.7989857	2421916.31551017
61	20	1	0	90	36.1581920903955	36.241610738255	15	0.500064960122108	2	1	5	NaN	1	3	0.0542498672943188	0	1	NaN	237	4	48	1	120	220	320	NaN	520	0.285822229459882	2	0	NaN	2421917.3991491	NaN	2421918.3825348	2421918.89909477
61	20	1	0	90	36.1581920903955	36.241610738255	7	0.233363648056984	2	3	5	NaN	1	3	0.0542498672943188	0	1	NaN	238	4	49	1	120	220	320	NaN	520	0.0104101807810366	1	1	NaN	2421920.0160949	NaN	2421920.9994951	2421921.51601622
61	20	1	0	90	36.1581920903955	36.241610738255	7	0.233363648056984	2	11	3	NaN	2	4	0.0542498672943188	0	1	NaN	239	4	50	1	120	220	320	NaN	520	0.287517080549151	2	1	NaN	2421922.3329665	NaN	2421923.3164461	2421923.83291792
61	20	1	0	90	36.1581920903955	36.241610738255	7	0.233363648056984	2	12	6	NaN	2	3	0.0542498672943188	0	1	NaN	240	4	51	1	120	220	320	NaN	520	0.20665973238647	1	0	NaN	2421924.9498874	NaN	2421925.9332892	2421926.44984137
61	20	1	0	90	36.1581920903955	36.241610738255	0	0	1	10	4	NaN	2	5	0.0542498672943188	0	1	NaN	241	4	52	1	110	210	310	NaN	510	0.0899162809364498	2	1	NaN	2421927.4669166	NaN	2421928.4502178	2421928.96675512
61	20	1	0	90	36.1581920903955	36.241610738255	20	0.666753280162811	2	8	2	NaN	2	3	0.0542498672943188	0	1	NaN	242	4	53	1	120	220	320	NaN	520	0.905922429636121	2	1	NaN	2421929.8670639	NaN	2421930.8504481	2421931.36698337
61	20	1	0	90	36.1581920903955	36.241610738255	14	0.466727296113968	2	1	2	NaN	1	4	0.0542498672943188	0	1	NaN	243	4	54	1	120	220	320	NaN	520	0.415960132610053	2	0	NaN	2421933.1006852	NaN	2421934.0841976	2421934.60063587
61	20	1	0	90	36.1581920903955	36.241610738255	9	0.300038976073265	2	7	6	NaN	2	4	0.0542498672943188	0	1	NaN	244	4	55	1	120	220	320	NaN	520	0.378571880515665	2	1	NaN	2421935.834306	NaN	2421936.8177086	2421937.33423962
61	20	1	0	90	36.1581920903955	36.241610738255	19	0.633415616154671	2	8	4	NaN	2	5	0.0542498672943188	0	1	NaN	245	4	56	1	120	220	320	NaN	520	0.406036080326885	1	0	NaN	2421938.534569	NaN	2421939.517888	2421940.03449912
61	20	1	0	90	36.1581920903955	36.241610738255	7	0.233363648056984	2	8	4	NaN	2	5	0.0542498672943188	0	1	NaN	246	4	57	1	120	220	320	NaN	520	0.280942332465202	1	0	NaN	2421941.2515123	NaN	2421942.2349068	2421942.75143917
61	20	1	0	90	36.1581920903955	36.241610738255	23	0.766766272187233	2	8	1	NaN	2	5	0.0542498672943188	0	1	NaN	247	4	58	1	120	220	320	NaN	520	0.312771880533546	2	1	NaN	2421943.8517588	NaN	2421944.8351567	2421945.35169282
61	20	1	0	90	36.1581920903955	36.241610738255	7	0.233363648056984	2	5	5	NaN	1	5	0.0542498672943188	0	1	NaN	248	4	59	1	120	220	320	NaN	520	0.383240338880569	1	1	NaN	2421946.4853415	NaN	2421947.46874	2421947.98529676
61	20	1	0	90	36.1581920903955	36.241610738255	11	0.366714304089546	2	3	1	NaN	1	3	0.0542498672943188	0	1	NaN	249	4	60	1	120	220	320	NaN	520	0.362857080530375	1	1	NaN	2421949.1854839	NaN	2421950.1690598	2421950.68555392
61	20	1	0	90	36.1581920903955	36.241610738255	21	0.700090944170952	2	1	2	NaN	1	4	0.0542498672943188	0	1	NaN	250	4	61	1	120	220	320	NaN	520	0.327625180594623	1	1	NaN	2421951.869192	NaN	2421952.8526038	2421953.36914882
61	20	1	0	90	36.1581920903955	36.241610738255	8	0.266701312065124	2	8	5	NaN	2	4	0.0542498672943188	0	1	NaN	251	4	62	1	120	220	320	NaN	520	0.221131077501923	1	0	NaN	2421954.5194551	NaN	2421955.5028673	2421956.01940592
61	20	1	0	90	36.1581920903955	36.241610738255	17	0.56674028813839	2	6	6	NaN	1	5	0.0542498672943188	0	1	NaN	252	4	63	1	120	220	320	NaN	520	0.35141208069399	1	1	NaN	2421957.0529304	NaN	2421958.0363495	2421958.55298612
61	20	1	0	90	36.1581920903955	36.241610738255	15	0.500064960122108	2	10	4	NaN	2	5	0.0542498672943188	0	1	NaN	253	5	1	1	120	220	320	NaN	520	0.0104808807373047	2	1	NaN	2421963.186868	NaN	2421964.170399	2421964.68692612
61	20	1	0	90	36.1581920903955	36.241610738255	25	0.833441600203514	2	3	4	NaN	1	4	0.0542498672943188	0	1	NaN	254	5	2	1	120	220	320	NaN	520	0.332448532339185	1	1	NaN	2421965.5203973	NaN	2421966.5038743	2421967.02050647
61	20	1	0	90	36.1581920903955	36.241610738255	20	0.666753280162811	2	12	1	NaN	2	5	0.0542498672943188	0	1	NaN	255	5	3	1	120	220	320	NaN	520	0.0731691322289407	1	0	NaN	2421968.1874753	NaN	2421969.1708695	2421969.68741587
61	20	1	0	90	36.1581920903955	36.241610738255	24	0.800103936195373	2	2	6	NaN	1	5	0.0542498672943188	0	1	NaN	256	5	4	1	120	220	320	NaN	520	0.105650080833584	1	1	NaN	2421970.5710321	NaN	2421971.5543891	2421972.07097842
61	20	1	0	90	36.1581920903955	36.241610738255	6	0.200025984048843	2	7	5	NaN	2	3	0.0542498672943188	0	1	NaN	257	5	5	1	120	220	320	NaN	520	0.23265973245725	2	1	NaN	2421972.9879251	NaN	2421973.9713876	2421974.48788887
61	20	1	0	90	36.1581920903955	36.241610738255	0	0	1	6	2	NaN	1	4	0.0542498672943188	0	1	NaN	258	5	6	1	110	210	310	NaN	510	0.0104378806427121	1	1	NaN	2421975.5380642	NaN	2421976.5216425	2421977.03814092
61	20	1	0	90	36.1581920903955	36.241610738255	21	0.700090944170952	2	9	3	NaN	2	4	0.0542498672943188	0	1	NaN	259	5	7	1	120	220	320	NaN	520	0.0104462360031903	1	0	NaN	2421977.8717423	NaN	2421978.8551503	2421979.37170156
61	20	1	0	90	36.1581920903955	36.241610738255	14	0.466727296113968	2	11	2	NaN	2	4	0.0542498672943188	0	1	NaN	260	5	8	1	120	220	320	NaN	520	0.271445132326335	1	0	NaN	2421980.2052479	NaN	2421981.188715	2421981.70525637
61	20	1	0	90	36.1581920903955	36.241610738255	10	0.333376640081406	2	1	2	NaN	1	4	0.0542498672943188	0	1	NaN	261	5	9	1	120	220	320	NaN	520	0.055698380805552	1	1	NaN	2421982.7889215	NaN	2421983.7723088	2421984.28884442
61	20	1	0	90	36.1581920903955	36.241610738255	17	0.56674028813839	2	3	1	NaN	1	5	0.0542498672943188	0	1	NaN	262	5	10	1	120	220	320	NaN	520	0.249314947985113	2	0	NaN	2421985.155834	NaN	2421986.1392396	2421986.65575745
61	20	1	0	90	36.1581920903955	36.241610738255	15	0.500064960122108	2	5	6	NaN	1	4	0.0542498672943188	0	1	NaN	263	5	11	1	120	220	320	NaN	520	0.0103978323750198	1	1	NaN	2421987.7227294	NaN	2421988.7060085	2421989.22267137
61	20	1	0	90	36.1581920903955	36.241610738255	12	0.400051968097687	2	4	2	NaN	1	5	0.0542498672943188	0	1	NaN	264	5	12	1	120	220	320	NaN	520	0.157135787419975	1	1	NaN	2421990.0396201	NaN	2421991.0230074	2421991.53956331
61	20	1	0	90	36.1581920903955	36.241610738255	23	0.766766272187233	2	8	1	NaN	2	3	0.0542498672943188	0	1	NaN	265	5	13	1	120	220	320	NaN	520	0.160802180878818	1	0	NaN	2421992.5398971	NaN	2421993.5233072	2421994.03979992
61	20	1	0	90	36.1581920903955	36.241610738255	12	0.400051968097687	2	4	2	NaN	1	5	0.0542498672943188	0	1	NaN	266	5	14	1	120	220	320	NaN	520	0.0104878298006952	1	1	NaN	2421995.0233044	NaN	2421996.0068283	2421996.52337717
61	20	1	0	90	36.1581920903955	36.241610738255	11	0.366714304089546	2	6	3	NaN	1	4	0.0542498672943188	0	1	NaN	267	5	15	1	120	220	320	NaN	520	0.191662029363215	1	1	NaN	2421997.3569977	NaN	2421998.3404359	2421998.85693957
61	20	1	0	90	36.1581920903955	36.241610738255	8	0.266701312065124	2	11	6	NaN	2	3	0.0542498672943188	0	1	NaN	268	5	16	1	120	220	320	NaN	520	0.171427580993623	1	0	NaN	2421999.8572682	NaN	2422000.8406297	2422001.35719492
61	20	1	0	90	36.1581920903955	36.241610738255	15	0.500064960122108	2	2	4	NaN	1	5	0.0542498672943188	0	1	NaN	269	5	17	1	120	220	320	NaN	520	0.247581880539656	1	1	NaN	2422002.3574791	NaN	2422003.3408963	2422003.85742642
61	20	1	0	90	36.1581920903955	36.241610738255	7	0.233363648056984	2	6	4	NaN	1	3	0.0542498672943188	0	1	NaN	270	5	18	1	120	220	320	NaN	520	0.0104106809012592	1	1	NaN	2422004.9244167	NaN	2422005.9078317	2422006.42435322
61	20	1	0	90	36.1581920903955	36.241610738255	13	0.433389632105827	2	9	5	NaN	2	5	0.0542498672943188	0	1	NaN	271	5	19	1	120	220	320	NaN	520	0.0104098808951676	2	1	NaN	2422007.2579816	NaN	2422008.2413898	2422008.75792422
61	20	1	0	90	36.1581920903955	36.241610738255	10	0.333376640081406	2	9	3	NaN	2	3	0.0542498672943188	0	1	NaN	272	5	20	1	120	220	320	NaN	520	0.0105141294188797	2	1	NaN	2422009.5748842	NaN	2422010.5582806	2422011.07480367
61	20	1	0	90	36.1581920903955	36.241610738255	13	0.433389632105827	2	12	4	NaN	2	3	0.0542498672943188	0	1	NaN	273	5	21	1	120	220	320	NaN	520	0.176521690562367	1	0	NaN	2422011.9083017	NaN	2422012.8918212	2422013.40837231
61	20	1	0	90	36.1581920903955	36.241610738255	0	0	1	1	6	NaN	1	5	0.0542498672943188	0	1	NaN	274	5	22	1	110	210	310	NaN	510	0.100199580658227	2	0	NaN	2422014.4086813	NaN	2422015.3921905	2422015.90861882
61	20	1	0	90	36.1581920903955	36.241610738255	22	0.733428608179092	2	5	4	NaN	1	3	0.0542498672943188	0	1	NaN	275	5	23	1	120	220	320	NaN	520	0.131155132316053	2	0	NaN	2422016.8255987	NaN	2422017.8089994	2422018.32551537
61	20	1	0	90	36.1581920903955	36.241610738255	16	0.533402624130249	2	2	5	NaN	1	3	0.0542498672943188	0	1	NaN	276	5	24	1	120	220	320	NaN	520	0.233684629201889	1	1	NaN	2422019.2591551	NaN	2422020.2425568	2422020.75908657
61	20	1	0	90	36.1581920903955	36.241610738255	12	0.400051968097687	2	3	1	NaN	1	4	0.0542498672943188	0	1	NaN	277	5	25	1	120	220	320	NaN	520	0.243591732345521	2	0	NaN	2422021.8094199	NaN	2422022.7928087	2422023.30934147
61	20	1	0	90	36.1581920903955	36.241610738255	8	0.266701312065124	2	12	4	NaN	2	3	0.0542498672943188	0	1	NaN	278	5	26	1	120	220	320	NaN	520	0.717469532508403	1	0	NaN	2422024.3596507	NaN	2422025.3430783	2422025.85959607
61	20	1	0	90	36.1581920903955	36.241610738255	25	0.833441600203514	2	9	5	NaN	2	4	0.0542498672943188	0	1	NaN	279	5	27	1	120	220	320	NaN	520	0.403361232485622	2	1	NaN	2422027.3932951	NaN	2422028.3766922	2422028.89322967
61	20	1	0	90	36.1581920903955	36.241610738255	23	0.766766272187233	2	11	2	NaN	2	5	0.0542498672943188	0	1	NaN	280	5	28	1	120	220	320	NaN	520	0.414391229394823	1	0	NaN	2422030.1102907	NaN	2422031.0936511	2422031.61016247
61	20	1	0	90	36.1581920903955	36.241610738255	13	0.433389632105827	2	5	1	NaN	1	4	0.0542498672943188	0	1	NaN	281	5	29	1	120	220	320	NaN	520	0.225290332455188	2	0	NaN	2422032.8438243	NaN	2422033.8272724	2422034.34376157
61	20	1	0	90	36.1581920903955	36.241610738255	15	0.500064960122108	2	5	3	NaN	1	5	0.0542498672943188	0	1	NaN	282	5	30	1	120	220	320	NaN	520	0.674933429341763	2	0	NaN	2422035.3940603	NaN	2422036.3775124	2422036.89400477
61	20	1	0	90	36.1581920903955	36.241610738255	8	0.266701312065124	2	3	6	NaN	1	3	0.0542498672943188	0	1	NaN	283	5	31	1	120	220	320	NaN	520	0.603132694028318	1	1	NaN	2422038.3776868	NaN	2422039.3610885	2422039.87764511
61	20	1	0	90	36.1581920903955	36.241610738255	21	0.700090944170952	2	7	4	NaN	2	4	0.0542498672943188	0	1	NaN	284	5	32	1	120	220	320	NaN	520	0.294339241925627	2	1	NaN	2422041.2946389	NaN	2422042.2780732	2422042.79459986
61	20	1	0	90	36.1581920903955	36.241610738255	19	0.633415616154671	2	4	2	NaN	1	3	0.0542498672943188	0	1	NaN	285	5	33	1	120	220	320	NaN	520	0.061231232713908	1	1	NaN	2422043.911451	NaN	2422044.894953	2422045.41151557
61	20	1	0	90	36.1581920903955	36.241610738255	15	0.500064960122108	2	6	1	NaN	1	3	0.0542498672943188	0	1	NaN	286	5	34	1	120	220	320	NaN	520	0.925418680533767	2	0	NaN	2422046.2950106	NaN	2422047.2785433	2422047.79507702
61	20	1	0	90	36.1581920903955	36.241610738255	12	0.400051968097687	2	8	2	NaN	2	3	0.0542498672943188	0	1	NaN	287	5	35	1	120	220	320	NaN	520	0.675199232529849	1	0	NaN	2422049.5454696	NaN	2422050.5288944	2422051.04539997
61	20	1	0	90	36.1581920903955	36.241610738255	21	0.700090944170952	2	12	2	NaN	2	4	0.0542498672943188	0	1	NaN	288	5	36	1	120	220	320	NaN	520	0.371006293687969	2	1	NaN	2422052.545749	NaN	2422053.5291753	2422054.04569811
61	20	1	0	90	36.1581920903955	36.241610738255	12	0.400051968097687	2	2	1	NaN	1	3	0.0542498672943188	0	1	NaN	289	5	37	1	120	220	320	NaN	520	0.271756332367659	1	1	NaN	2422055.2293625	NaN	2422056.2127838	2422056.72929007
61	20	1	0	90	36.1581920903955	36.241610738255	19	0.633415616154671	2	2	3	NaN	1	3	0.0542498672943188	0	1	NaN	290	5	38	1	120	220	320	NaN	520	0.386800632346421	2	0	NaN	2422058.1463205	NaN	2422059.1296875	2422059.64623897
61	20	1	0	90	36.1581920903955	36.241610738255	24	0.800103936195373	2	1	3	NaN	1	3	0.0542498672943188	0	1	NaN	291	5	39	1	120	220	320	NaN	520	0.152206532191485	2	0	NaN	2422060.9965226	NaN	2422061.9800314	2422062.49652887
61	20	1	0	90	36.1581920903955	36.241610738255	24	0.800103936195373	2	7	5	NaN	2	3	0.0542498672943188	0	1	NaN	292	5	40	1	120	220	320	NaN	520	2.78183673229069	2	1	NaN	2422063.446696	NaN	2422064.4302367	2422064.94676127
61	20	1	0	90	36.1581920903955	36.241610738255	16	0.533402624130249	2	10	2	NaN	2	3	0.0542498672943188	0	1	NaN	293	5	41	1	120	220	320	NaN	520	0.60939333261922	1	0	NaN	2422068.5473263	NaN	2422069.5307134	2422070.04725887
61	20	1	0	90	36.1581920903955	36.241610738255	13	0.433389632105827	2	8	3	NaN	2	4	0.0542498672943188	0	1	NaN	294	5	42	1	120	220	320	NaN	520	0.915828829631209	2	1	NaN	2422071.4809386	NaN	2422072.4643318	2422072.98088117
61	20	1	0	90	36.1581920903955	36.241610738255	16	0.533402624130249	2	10	1	NaN	2	4	0.0542498672943188	0	1	NaN	295	5	43	1	120	220	320	NaN	520	0.754629242233932	2	1	NaN	2422074.7145792	NaN	2422075.6979872	2422076.21453766
61	20	1	0	90	36.1581920903955	36.241610738255	22	0.733428608179092	2	12	4	NaN	2	5	0.0542498672943188	0	1	NaN	296	5	44	1	120	220	320	NaN	520	0.711062184069306	1	0	NaN	2422078.3815945	NaN	2422079.3650246	2422079.88156492
61	20	1	0	90	36.1581920903955	36.241610738255	19	0.633415616154671	2	7	1	NaN	2	3	0.0542498672943188	0	1	NaN	297	5	45	1	120	220	320	NaN	520	0.7495899326168	2	1	NaN	2422081.4151169	NaN	2422082.3986568	2422082.91519387
61	20	1	0	90	36.1581920903955	36.241610738255	14	0.466727296113968	2	10	6	NaN	2	5	0.0542498672943188	0	1	NaN	298	5	46	1	120	220	320	NaN	520	0.986644880380481	1	0	NaN	2422084.4822272	NaN	2422085.4656298	2422085.98215862
61	20	1	0	90	36.1581920903955	36.241610738255	19	0.633415616154671	2	5	6	NaN	1	5	0.0542498672943188	0	1	NaN	299	5	47	1	120	220	320	NaN	520	0.010447280947119	2	0	NaN	2422087.7992243	NaN	2422088.7826107	2422089.29914392
61	20	1	0	90	36.1581920903955	36.241610738255	6	0.200025984048843	2	7	4	NaN	2	3	0.0542498672943188	0	1	NaN	300	5	48	1	120	220	320	NaN	520	1.18438547803089	2	1	NaN	2422090.1326454	NaN	2422091.1160654	2422091.63270892
61	20	1	0	90	36.1581920903955	36.241610738255	6	0.200025984048843	2	6	2	NaN	1	4	0.0542498672943188	0	1	NaN	301	5	49	1	120	220	320	NaN	520	0.0837748809717596	1	1	NaN	2422093.6331176	NaN	2422094.6165533	2422095.13306252
61	20	1	0	90	36.1581920903955	36.241610738255	10	0.333376640081406	2	8	3	NaN	2	4	0.0542498672943188	0	1	NaN	302	5	50	1	120	220	320	NaN	520	0.365049480460584	2	1	NaN	2422096.600095	NaN	2422097.5834431	2422098.10001492
61	20	1	0	90	36.1581920903955	36.241610738255	17	0.56674028813839	2	2	2	NaN	1	5	0.0542498672943188	0	1	NaN	303	5	51	1	120	220	320	NaN	520	0.985124232713133	1	1	NaN	2422099.2836877	NaN	2422100.2670654	2422100.78361697
61	20	1	0	90	36.1581920903955	36.241610738255	10	0.333376640081406	2	8	1	NaN	2	5	0.0542498672943188	0	1	NaN	304	5	52	1	120	220	320	NaN	520	0.260756545700133	1	0	NaN	2422102.5840411	NaN	2422103.5673714	2422104.08393815
61	20	1	0	90	36.1581920903955	36.241610738255	9	0.300038976073265	2	4	1	NaN	1	3	0.0542498672943188	0	1	NaN	305	5	53	1	120	220	320	NaN	520	0.0104155875742435	1	1	NaN	2422105.1509061	NaN	2422106.1343184	2422106.65087621
61	20	1	0	90	36.1581920903955	36.241610738255	19	0.633415616154671	2	9	2	NaN	2	3	0.0542498672943188	0	1	NaN	306	5	54	1	120	220	320	NaN	520	0.304219780489802	2	1	NaN	2422107.4844556	NaN	2422108.4678859	2422108.98441712
61	20	1	0	90	36.1581920903955	36.241610738255	22	0.733428608179092	2	1	6	NaN	1	3	0.0542498672943188	0	1	NaN	307	5	55	1	120	220	320	NaN	520	0.407197532709688	1	1	NaN	2422110.1180535	NaN	2422111.1014939	2422111.61801297
61	20	1	0	90	36.1581920903955	36.241610738255	16	0.533402624130249	2	3	1	NaN	1	5	0.0542498672943188	0	1	NaN	308	5	56	1	120	220	320	NaN	520	0.232981580775231	2	0	NaN	2422112.8516746	NaN	2422113.8350642	2422114.35161742
61	20	1	0	90	36.1581920903955	36.241610738255	14	0.466727296113968	2	9	1	NaN	2	5	0.0542498672943188	0	1	NaN	309	5	57	1	120	220	320	NaN	520	0.123232532292604	2	1	NaN	2422115.401922	NaN	2422116.3853384	2422116.90186057
61	20	1	0	90	36.1581920903955	36.241610738255	6	0.200025984048843	2	8	4	NaN	2	4	0.0542498672943188	0	1	NaN	310	5	58	1	120	220	320	NaN	520	0.184764680918306	2	1	NaN	2422117.8521629	NaN	2422118.835561	2422119.35210142
61	20	1	0	90	36.1581920903955	36.241610738255	16	0.533402624130249	2	12	3	NaN	2	3	0.0542498672943188	0	1	NaN	311	5	59	1	120	220	320	NaN	520	0.284462680574507	2	1	NaN	2422120.3524147	NaN	2422121.3358018	2422121.85234092
61	20	1	0	90	36.1581920903955	36.241610738255	21	0.700090944170952	2	2	4	NaN	1	5	0.0542498672943188	0	1	NaN	312	5	60	1	120	220	320	NaN	520	0.0835139807313681	2	0	NaN	2422122.9693137	NaN	2422123.9527331	2422124.46927592
61	20	1	0	90	36.1581920903955	36.241610738255	6	0.200025984048843	2	8	4	NaN	2	5	0.0542498672943188	0	1	NaN	313	5	61	1	120	220	320	NaN	520	0.363708880729973	2	1	NaN	2422125.3694327	NaN	2422126.3529866	2422126.86949902
61	20	1	0	90	36.1581920903955	36.241610738255	10	0.333376640081406	2	5	4	NaN	1	4	0.0542498672943188	0	1	NaN	314	5	62	1	120	220	320	NaN	520	0.175902580842376	2	0	NaN	2422128.053165	NaN	2422129.0365453	2422129.55310532
61	20	1	0	90	36.1581920903955	36.241610738255	7	0.233363648056984	2	9	1	NaN	2	5	0.0542498672943188	0	1	NaN	315	5	63	1	120	220	320	NaN	520	0.0104060806334019	2	1	NaN	2422130.5534035	NaN	2422131.5368034	2422132.05334932
61	20	1	0	90	36.1581920903955	36.241610738255	15	0.500064960122108	2	4	3	NaN	1	3	0.0542498672943188	0	1	NaN	316	6	1	1	120	220	320	NaN	520	0.0104763805866241	2	0	NaN	2422137.6373909	NaN	2422138.6208413	2422139.13737962
61	20	1	0	90	36.1581920903955	36.241610738255	20	0.666753280162811	2	9	3	NaN	2	4	0.0542498672943188	0	1	NaN	317	6	2	1	120	220	320	NaN	520	0.0178552940487862	2	1	NaN	2422139.9710003	NaN	2422140.9544084	2422141.47094811
61	20	1	0	90	36.1581920903955	36.241610738255	24	0.800103936195373	2	12	4	NaN	2	3	0.0542498672943188	0	1	NaN	318	6	3	1	120	220	320	NaN	520	0.284329577814788	1	0	NaN	2422142.3044612	NaN	2422143.2879518	2422143.80450072
61	20	1	0	90	36.1581920903955	36.241610738255	24	0.800103936195373	2	12	1	NaN	2	3	0.0542498672943188	0	1	NaN	319	6	4	1	120	220	320	NaN	520	0.0761826322413981	2	1	NaN	2422144.9048107	NaN	2422145.8882198	2422146.40476067
61	20	1	0	90	36.1581920903955	36.241610738255	13	0.433389632105827	2	8	5	NaN	2	5	0.0542498672943188	0	1	NaN	320	6	5	1	120	220	320	NaN	520	1.23626423208043	1	0	NaN	2422147.3050292	NaN	2422148.288425	2422148.80499257
61	20	1	0	90	36.1581920903955	36.241610738255	16	0.533402624130249	2	2	6	NaN	1	4	0.0542498672943188	0	1	NaN	321	6	6	1	120	220	320	NaN	520	0.181405584327877	2	0	NaN	2422150.8553821	NaN	2422151.8387957	2422152.35534652
61	20	1	0	90	36.1581920903955	36.241610738255	0	0	1	2	2	NaN	1	5	0.0542498672943188	0	1	NaN	322	6	7	1	110	210	310	NaN	510	0.01053028088063	1	1	NaN	2422153.355651	NaN	2422154.3390622	2422154.85558192
61	20	1	0	90	36.1581920903955	36.241610738255	11	0.366714304089546	2	4	1	NaN	1	4	0.0542498672943188	0	1	NaN	323	6	8	1	120	220	320	NaN	520	2.69979222957045	1	1	NaN	2422155.6892048	NaN	2422156.6725849	2422157.18914497
61	20	1	0	90	36.1581920903955	36.241610738255	9	0.300038976073265	2	3	2	NaN	1	4	0.0542498672943188	0	1	NaN	324	6	9	1	120	220	320	NaN	520	0.194591232109815	2	0	NaN	2422160.70618	NaN	2422161.6897579	2422162.20630527
61	20	1	0	90	36.1581920903955	36.241610738255	24	0.800103936195373	2	4	4	NaN	1	5	0.0542498672943188	0	1	NaN	325	6	10	1	120	220	320	NaN	520	0.0104125807993114	2	0	NaN	2422163.2232947	NaN	2422164.2065684	2422164.72321542
61	20	1	0	90	36.1581920903955	36.241610738255	13	0.433389632105827	2	7	6	NaN	2	5	0.0542498672943188	0	1	NaN	326	6	11	1	120	220	320	NaN	520	0.0104229291900992	1	0	NaN	2422165.5401769	NaN	2422166.5235737	2422167.04010407
61	20	1	0	90	36.1581920903955	36.241610738255	16	0.533402624130249	2	8	2	NaN	2	3	0.0542498672943188	0	1	NaN	327	6	12	1	120	220	320	NaN	520	0.283466683700681	2	1	NaN	2422167.8737349	NaN	2422168.8571286	2422169.37368092
61	20	1	0	90	36.1581920903955	36.241610738255	19	0.633415616154671	2	7	4	NaN	2	4	0.0542498672943188	0	1	NaN	328	6	13	1	120	220	320	NaN	520	0.0103953387588263	2	1	NaN	2422170.4740726	NaN	2422171.4573854	2422171.97392956
61	20	1	0	90	36.1581920903955	36.241610738255	13	0.433389632105827	2	11	6	NaN	2	3	0.0542498672943188	0	1	NaN	329	6	14	1	120	220	320	NaN	520	0.157490480691195	2	1	NaN	2422172.80755	NaN	2422173.7909668	2422174.30749582
61	20	1	0	90	36.1581920903955	36.241610738255	13	0.433389632105827	2	7	4	NaN	2	3	0.0542498672943188	0	1	NaN	330	6	15	1	120	220	320	NaN	520	0.0104083805344999	2	1	NaN	2422175.2911282	NaN	2422176.2745415	2422176.79106522
61	20	1	0	90	36.1581920903955	36.241610738255	8	0.266701312065124	2	9	2	NaN	2	3	0.0542498672943188	0	1	NaN	331	6	16	1	120	220	320	NaN	520	0.0104240807704628	2	1	NaN	2422177.6245887	NaN	2422178.6081005	2422179.12463652
61	20	1	0	90	36.1581920903955	36.241610738255	16	0.533402624130249	2	8	2	NaN	2	5	0.0542498672943188	0	1	NaN	332	6	17	1	120	220	320	NaN	520	0.126874980982393	2	1	NaN	2422179.958263	NaN	2422180.9416691	2422181.45818632
61	20	1	0	90	36.1581920903955	36.241610738255	0	0	1	7	3	NaN	2	5	0.0542498672943188	0	1	NaN	333	6	18	1	110	210	310	NaN	510	0.140538280829787	2	1	NaN	2422182.4084927	NaN	2422183.3919181	2422183.90843692
61	20	1	0	90	36.1581920903955	36.241610738255	9	0.300038976073265	2	4	3	NaN	1	5	0.0542498672943188	0	1	NaN	334	6	19	1	120	220	320	NaN	520	0.0104585322551429	1	1	NaN	2422184.8587505	NaN	2422185.842139	2422186.35867967
61	20	1	0	90	36.1581920903955	36.241610738255	17	0.56674028813839	2	12	3	NaN	2	5	0.0542498672943188	0	1	NaN	335	6	20	1	120	220	320	NaN	520	0.0127181811258197	2	1	NaN	2422187.1922933	NaN	2422188.1757449	2422188.69223902
61	20	1	0	90	36.1581920903955	36.241610738255	17	0.56674028813839	2	11	6	NaN	2	3	0.0542498672943188	0	1	NaN	336	6	21	1	120	220	320	NaN	520	0.623047780711204	1	0	NaN	2422189.5258681	NaN	2422190.5092492	2422191.02580092
61	20	1	0	90	36.1581920903955	36.241610738255	20	0.666753280162811	2	11	6	NaN	2	5	0.0542498672943188	0	1	NaN	337	6	22	1	120	220	320	NaN	520	0.0104217296466231	2	1	NaN	2422192.4761574	NaN	2422193.4595473	2422193.97609417
61	20	1	0	90	36.1581920903955	36.241610738255	7	0.233363648056984	2	11	5	NaN	2	3	0.0542498672943188	0	1	NaN	338	6	23	1	120	220	320	NaN	520	0.219649880658835	1	0	NaN	2422194.8097304	NaN	2422195.7930881	2422196.30965332
61	20	1	0	90	36.1581920903955	36.241610738255	19	0.633415616154671	2	2	5	NaN	1	5	0.0542498672943188	0	1	NaN	339	6	24	1	120	220	320	NaN	520	0.0370196807198226	2	0	NaN	2422197.7598679	NaN	2422198.743397	2422199.25994262
61	20	1	0	90	36.1581920903955	36.241610738255	11	0.366714304089546	2	5	5	NaN	1	5	0.0542498672943188	0	1	NaN	340	6	25	1	120	220	320	NaN	520	0.285978129599243	1	1	NaN	2422200.1267617	NaN	2422201.1103083	2422201.62683537
61	20	1	0	90	36.1581920903955	36.241610738255	21	0.700090944170952	2	1	5	NaN	1	3	0.0542498672943188	0	1	NaN	341	6	26	1	120	220	320	NaN	520	0.0104408841580153	2	0	NaN	2422202.7270357	NaN	2422203.7105825	2422204.22709482
61	20	1	0	90	36.1581920903955	36.241610738255	13	0.433389632105827	2	2	4	NaN	1	5	0.0542498672943188	0	1	NaN	342	6	27	1	120	220	320	NaN	520	0.0241510323248804	2	0	NaN	2422205.0607308	NaN	2422206.044111	2422206.56066177
61	20	1	0	90	36.1581920903955	36.241610738255	22	0.733428608179092	2	9	4	NaN	2	5	0.0542498672943188	0	1	NaN	343	6	28	1	120	220	320	NaN	520	0.0103623359464109	2	1	NaN	2422207.4109349	NaN	2422208.3943553	2422208.91088326
61	20	1	0	90	36.1581920903955	36.241610738255	13	0.433389632105827	2	6	5	NaN	1	4	0.0542498672943188	0	1	NaN	344	6	29	1	120	220	320	NaN	520	0.0104107805527747	2	0	NaN	2422209.7278672	NaN	2422210.7112867	2422211.22777372
61	20	1	0	90	36.1581920903955	36.241610738255	10	0.333376640081406	2	3	3	NaN	1	5	0.0542498672943188	0	1	NaN	345	6	30	1	120	220	320	NaN	520	0.0103939319960773	1	1	NaN	2422212.0446056	NaN	2422213.0281717	2422213.54466737
61	20	1	0	90	36.1581920903955	36.241610738255	25	0.833441600203514	2	12	4	NaN	2	4	0.0542498672943188	0	1	NaN	346	6	31	1	120	220	320	NaN	520	0.0104237804189324	1	0	NaN	2422214.3616455	NaN	2422215.3450242	2422215.86157252
61	20	1	0	90	36.1581920903955	36.241610738255	14	0.466727296113968	2	4	6	NaN	1	4	0.0542498672943188	0	1	NaN	347	6	32	1	120	220	320	NaN	520	0.0104829808697104	1	1	NaN	2422216.6952269	NaN	2422217.678584	2422218.19513772
61	20	1	0	90	36.1581920903955	36.241610738255	16	0.533402624130249	2	4	1	NaN	1	5	0.0542498672943188	0	1	NaN	348	6	33	1	120	220	320	NaN	520	0.0104927294887602	2	0	NaN	2422219.0286431	NaN	2422220.0121627	2422220.52869407
61	20	1	0	90	36.1581920903955	36.241610738255	13	0.433389632105827	2	1	5	NaN	1	3	0.0542498672943188	0	1	NaN	349	6	34	1	120	220	320	NaN	520	0.010411680676043	1	1	NaN	2422221.6790189	NaN	2422222.6624145	2422223.17895222
61	20	1	0	90	36.1581920903955	36.241610738255	18	0.60007795214653	2	9	6	NaN	2	5	0.0542498672943188	0	1	NaN	350	6	35	1	120	220	320	NaN	520	0.0104080806486309	2	1	NaN	2422224.0127785	NaN	2422224.9959711	2422225.51251132
61	20	1	0	90	36.1581920903955	36.241610738255	22	0.733428608179092	2	4	5	NaN	1	4	0.0542498672943188	0	1	NaN	351	6	36	1	120	220	320	NaN	520	0.0589388804510236	1	1	NaN	2422226.3461423	NaN	2422227.3295421	2422227.84608072
61	20	1	0	90	36.1581920903955	36.241610738255	8	0.266701312065124	2	11	1	NaN	2	5	0.0542498672943188	0	1	NaN	352	6	37	1	120	220	320	NaN	520	0.0103591941297054	2	1	NaN	2422228.7130191	NaN	2422229.6964244	2422230.21298651
61	20	1	0	90	36.1581920903955	36.241610738255	23	0.766766272187233	2	1	6	NaN	1	5	0.0542498672943188	0	1	NaN	353	6	38	1	120	220	320	NaN	520	0.0623693452216685	1	1	NaN	2422231.0466325	NaN	2422232.0300209	2422232.54653625
61	20	1	0	90	36.1581920903955	36.241610738255	25	0.833441600203514	2	9	4	NaN	2	4	0.0542498672943188	0	1	NaN	354	6	39	1	120	220	320	NaN	520	0.0476756808348	2	1	NaN	2422233.4134851	NaN	2422234.3969135	2422234.91343832
61	20	1	0	90	36.1581920903955	36.241610738255	8	0.266701312065124	2	1	1	NaN	1	3	0.0542498672943188	0	1	NaN	355	6	40	1	120	220	320	NaN	520	0.192562329117209	1	1	NaN	2422235.7802527	NaN	2422236.763837	2422237.28033557
61	20	1	0	90	36.1581920903955	36.241610738255	23	0.766766272187233	2	2	5	NaN	1	4	0.0542498672943188	0	1	NaN	356	6	41	1	120	220	320	NaN	520	0.04378503235057	1	1	NaN	2422238.2972937	NaN	2422239.2807416	2422239.79724837
61	20	1	0	90	36.1581920903955	36.241610738255	22	0.733428608179092	2	6	3	NaN	1	5	0.0542498672943188	0	1	NaN	357	6	42	1	120	220	320	NaN	520	0.0209016320295632	2	0	NaN	2422240.6642023	NaN	2422241.647612	2422242.16415027
61	20	1	0	90	36.1581920903955	36.241610738255	20	0.666753280162811	2	2	3	NaN	1	3	0.0542498672943188	0	1	NaN	358	6	43	1	120	220	320	NaN	520	0.119606732390821	1	1	NaN	2422242.9976622	NaN	2422243.9812138	2422244.49771567
61	20	1	0	90	36.1581920903955	36.241610738255	20	0.666753280162811	2	3	6	NaN	1	5	0.0542498672943188	0	1	NaN	359	6	44	1	120	220	320	NaN	520	0.0376588809303939	2	0	NaN	2422245.4313824	NaN	2422246.4147307	2422246.93128722
61	20	1	0	90	36.1581920903955	36.241610738255	21	0.700090944170952	2	11	5	NaN	2	5	0.0542498672943188	0	1	NaN	360	6	45	1	120	220	320	NaN	520	0.33533463254571	2	1	NaN	2422247.781423	NaN	2422248.7649723	2422249.28151507
61	20	1	0	90	36.1581920903955	36.241610738255	0	0	1	4	6	NaN	1	5	0.0542498672943188	0	1	NaN	361	6	46	1	110	210	310	NaN	510	0.613168732263148	1	1	NaN	2422250.4319003	NaN	2422251.4152395	2422251.93177257
61	20	1	0	90	36.1581920903955	36.241610738255	7	0.233363648056984	2	8	1	NaN	2	5	0.0542498672943188	0	1	NaN	362	6	47	1	120	220	320	NaN	520	0.289223541971296	2	1	NaN	2422253.7321558	NaN	2422254.7156	2422255.23210426
61	20	1	0	90	36.1581920903955	36.241610738255	24	0.800103936195373	2	9	2	NaN	2	4	0.0542498672943188	0	1	NaN	363	6	48	1	120	220	320	NaN	520	0.735837180633098	1	0	NaN	2422256.3490873	NaN	2422257.3324701	2422257.84902102
61	20	1	0	90	36.1581920903955	36.241610738255	11	0.366714304089546	2	7	2	NaN	2	3	0.0542498672943188	0	1	NaN	364	6	49	1	120	220	320	NaN	520	0.933651380240917	2	1	NaN	2422259.3993682	NaN	2422260.3827834	2422260.89932092
61	20	1	0	90	36.1581920903955	36.241610738255	17	0.56674028813839	2	4	1	NaN	1	3	0.0542498672943188	0	1	NaN	365	6	50	1	120	220	320	NaN	520	2.34725448070094	1	1	NaN	2422262.6496259	NaN	2422263.633102	2422264.14964122
61	20	1	0	90	36.1581920903955	36.241610738255	17	0.56674028813839	2	9	6	NaN	2	4	0.0542498672943188	0	1	NaN	366	6	51	1	120	220	320	NaN	520	1.56873773224652	2	1	NaN	2422267.3168238	NaN	2422268.3002109	2422268.81676987
61	20	1	0	90	36.1581920903955	36.241610738255	15	0.500064960122108	2	10	3	NaN	2	5	0.0542498672943188	0	1	NaN	367	6	52	1	120	220	320	NaN	520	0.564110680948943	2	1	NaN	2422271.2171894	NaN	2422272.2005923	2422272.71714972
61	20	1	0	90	36.1581920903955	36.241610738255	15	0.500064960122108	2	4	4	NaN	1	5	0.0542498672943188	0	1	NaN	368	6	53	1	120	220	320	NaN	520	0.40048338053748	2	0	NaN	2422274.1007845	NaN	2422275.0842158	2422275.60076762
61	20	1	0	90	36.1581920903955	36.241610738255	12	0.400051968097687	2	11	5	NaN	2	3	0.0542498672943188	0	1	NaN	369	6	54	1	120	220	320	NaN	520	0.563309480901808	2	1	NaN	2422276.8177593	NaN	2422277.8012614	2422278.31769652
61	20	1	0	90	36.1581920903955	36.241610738255	21	0.700090944170952	2	3	6	NaN	1	4	0.0542498672943188	0	1	NaN	370	6	55	1	120	220	320	NaN	520	0.352025880478323	2	0	NaN	2422279.7013739	NaN	2422280.6846705	2422281.20131902
61	20	1	0	90	36.1581920903955	36.241610738255	9	0.300038976073265	2	5	1	NaN	1	5	0.0542498672943188	0	1	NaN	371	6	56	1	120	220	320	NaN	520	0.492078080773354	2	0	NaN	2422282.3849587	NaN	2422283.3683607	2422283.88491092
61	20	1	0	90	36.1581920903955	36.241610738255	9	0.300038976073265	2	5	6	NaN	1	4	0.0542498672943188	0	1	NaN	372	6	57	1	120	220	320	NaN	520	0.779192632064223	2	0	NaN	2422285.2019058	NaN	2422286.1853475	2422286.70185317
61	20	1	0	90	36.1581920903955	36.241610738255	7	0.233363648056984	2	4	2	NaN	1	3	0.0542498672943188	0	1	NaN	373	6	58	1	120	220	320	NaN	520	0.0104387779720128	1	1	NaN	2422288.3022239	NaN	2422289.2856178	2422289.80214842
61	20	1	0	90	36.1581920903955	36.241610738255	14	0.466727296113968	2	8	4	NaN	2	4	0.0542498672943188	0	1	NaN	374	6	59	1	120	220	320	NaN	520	0.249466280918568	2	1	NaN	2422290.6356458	NaN	2422291.619187	2422292.13571872
61	20	1	0	90	36.1581920903955	36.241610738255	17	0.56674028813839	2	7	2	NaN	2	5	0.0542498672943188	0	1	NaN	375	6	60	1	120	220	320	NaN	520	0.554377880878747	1	0	NaN	2422293.2027045	NaN	2422294.1861752	2422294.70263982
61	20	1	0	90	36.1581920903955	36.241610738255	6	0.200025984048843	2	9	1	NaN	2	3	0.0542498672943188	0	1	NaN	376	6	61	1	120	220	320	NaN	520	0.0104985297657549	2	1	NaN	2422296.0863254	NaN	2422297.0697391	2422297.58625747
61	20	1	0	90	36.1581920903955	36.241610738255	13	0.433389632105827	2	4	5	NaN	1	3	0.0542498672943188	0	1	NaN	377	6	62	1	120	220	320	NaN	520	0.353037029504776	2	0	NaN	2422298.4198852	NaN	2422299.4032791	2422299.91981337
61	20	1	0	90	36.1581920903955	36.241610738255	19	0.633415616154671	2	1	2	NaN	1	4	0.0542498672943188	0	1	NaN	378	6	63	1	120	220	320	NaN	520	0.0103940321132541	2	0	NaN	2422301.0866873	NaN	2422302.0702093	2422302.58674607
61	20	1	0	90	36.1581920903955	36.241610738255	17	0.56674028813839	2	10	5	NaN	2	3	0.0542498672943188	0	1	NaN	379	7	1	1	120	220	320	NaN	520	0.0257645775564015	2	1	NaN	2422307.5874449	NaN	2422308.5709132	2422309.08738522
61	20	1	0	90	36.1581920903955	36.241610738255	19	0.633415616154671	2	1	2	NaN	1	3	0.0542498672943188	0	1	NaN	380	7	2	1	120	220	320	NaN	520	0.331421532202512	2	0	NaN	2422309.9376804	NaN	2422310.9210922	2422311.43761577
61	20	1	0	90	36.1581920903955	36.241610738255	15	0.500064960122108	2	7	3	NaN	2	3	0.0542498672943188	0	1	NaN	381	7	3	1	120	220	320	NaN	520	0.0171793322078884	2	1	NaN	2422312.5879348	NaN	2422313.5713499	2422314.08787677
61	20	1	0	90	36.1581920903955	36.241610738255	11	0.366714304089546	2	9	1	NaN	2	3	0.0542498672943188	0	1	NaN	382	7	4	1	120	220	320	NaN	520	0.69998648064211	2	1	NaN	2422314.9213639	NaN	2422315.9048988	2422316.42144292
61	20	1	0	90	36.1581920903955	36.241610738255	21	0.700090944170952	2	4	3	NaN	1	5	0.0542498672943188	0	1	NaN	383	7	5	1	120	220	320	NaN	520	3.51486358093098	2	0	NaN	2422317.9384714	NaN	2422318.9218759	2422319.43839382
61	20	1	0	90	36.1581920903955	36.241610738255	10	0.333376640081406	2	11	3	NaN	2	4	0.0542498672943188	0	1	NaN	384	7	6	1	120	220	320	NaN	520	4.46486158063635	2	1	NaN	2422323.7724542	NaN	2422324.7557342	2422325.27230752
61	20	1	0	90	36.1581920903955	36.241610738255	21	0.700090944170952	2	8	3	NaN	2	5	0.0542498672943188	0	1	NaN	385	7	7	1	120	220	320	NaN	520	1.79274248052388	2	1	NaN	2422330.5563743	NaN	2422331.5397696	2422332.05629532
61	20	1	0	90	36.1581920903955	36.241610738255	0	0	1	9	6	NaN	2	3	0.0542498672943188	0	1	NaN	386	7	8	1	110	210	310	NaN	510	2.37181203207001	2	1	NaN	2422334.6734482	NaN	2422335.6568365	2422336.17337467
61	20	1	0	90	36.1581920903955	36.241610738255	20	0.666753280162811	2	4	4	NaN	1	4	0.0542498672943188	0	1	NaN	387	7	9	1	120	220	320	NaN	520	1.06387948058546	2	0	NaN	2422339.3572268	NaN	2422340.3406275	2422340.85716262
61	20	1	0	90	36.1581920903955	36.241610738255	11	0.366714304089546	2	6	2	NaN	1	5	0.0542498672943188	0	1	NaN	388	7	10	1	120	220	320	NaN	520	1.00031878054142	1	1	NaN	2422342.7407698	NaN	2422343.7241932	2422344.24083772
61	20	1	0	90	36.1581920903955	36.241610738255	22	0.733428608179092	2	8	6	NaN	2	5	0.0542498672943188	0	1	NaN	389	7	11	1	120	220	320	NaN	520	4.17172028077766	1	0	NaN	2422346.0578757	NaN	2422347.0412915	2422347.55782152
61	20	1	0	90	36.1581920903955	36.241610738255	10	0.333376640081406	2	7	3	NaN	2	5	0.0542498672943188	0	1	NaN	390	7	12	1	120	220	320	NaN	520	0.454668632242829	2	1	NaN	2422352.5585499	NaN	2422353.5419268	2422354.05847657
61	20	1	0	90	36.1581920903955	36.241610738255	19	0.633415616154671	2	10	1	NaN	2	4	0.0542498672943188	0	1	NaN	391	7	13	1	120	220	320	NaN	520	0.856008980423212	2	1	NaN	2422355.3254503	NaN	2422356.3088491	2422356.82539842
61	20	1	0	90	36.1581920903955	36.241610738255	7	0.233363648056984	2	2	3	NaN	1	5	0.0542498672943188	0	1	NaN	392	7	14	1	120	220	320	NaN	520	0.0240507293492556	1	1	NaN	2422358.5091158	NaN	2422359.4925061	2422360.00904467
61	20	1	0	90	36.1581920903955	36.241610738255	25	0.833441600203514	2	11	6	NaN	2	5	0.0542498672943188	0	1	NaN	393	7	15	1	120	220	320	NaN	520	0.169674687553197	2	1	NaN	2422360.8592372	NaN	2422361.8427533	2422362.35927311
61	20	1	0	90	36.1581920903955	36.241610738255	23	0.766766272187233	2	3	3	NaN	1	5	0.0542498672943188	0	1	NaN	394	7	16	1	120	220	320	NaN	520	0.0223502805456519	1	1	NaN	2422363.3428938	NaN	2422364.3263434	2422364.84285692
61	20	1	0	90	36.1581920903955	36.241610738255	16	0.533402624130249	2	1	4	NaN	1	3	0.0542498672943188	0	1	NaN	395	7	17	1	120	220	320	NaN	520	0.0104451840743423	2	0	NaN	2422365.6765519	NaN	2422366.6598818	2422367.17641822
61	20	1	0	90	36.1581920903955	36.241610738255	16	0.533402624130249	2	11	3	NaN	2	4	0.0542498672943188	0	1	NaN	396	7	18	1	120	220	320	NaN	520	0.363925929181278	2	1	NaN	2422367.9933676	NaN	2422368.9768194	2422369.49330887
61	20	1	0	90	36.1581920903955	36.241610738255	13	0.433389632105827	2	4	1	NaN	1	3	0.0542498672943188	0	1	NaN	397	7	19	1	120	220	320	NaN	520	0.560993890278041	1	1	NaN	2422370.6603033	NaN	2422371.643705	2422372.16023841
61	20	1	0	90	36.1581920903955	36.241610738255	19	0.633415616154671	2	8	1	NaN	2	3	0.0542498672943188	0	1	NaN	398	7	20	1	120	220	320	NaN	520	0.0103942328132689	2	1	NaN	2422373.5439239	NaN	2422374.5273273	2422375.04384837
61	20	1	0	90	36.1581920903955	36.241610738255	8	0.266701312065124	2	2	2	NaN	1	4	0.0542498672943188	0	1	NaN	399	7	21	1	120	220	320	NaN	520	0.0104900295846164	2	0	NaN	2422375.877511	NaN	2422376.8608819	2422377.37741517
61	20	1	0	90	36.1581920903955	36.241610738255	14	0.466727296113968	2	6	5	NaN	1	4	0.0542498672943188	0	1	NaN	400	7	22	1	120	220	320	NaN	520	0.100800580810755	1	1	NaN	2422378.3443521	NaN	2422379.3277894	2422379.84433112
61	20	1	0	90	36.1581920903955	36.241610738255	25	0.833441600203514	2	8	1	NaN	2	5	0.0542498672943188	0	1	NaN	401	7	23	1	120	220	320	NaN	520	0.075934880413115	2	1	NaN	2422380.7612681	NaN	2422381.7447277	2422382.26122372
61	20	1	0	90	36.1581920903955	36.241610738255	18	0.60007795214653	2	7	5	NaN	2	3	0.0542498672943188	0	1	NaN	402	7	24	1	120	220	320	NaN	520	0.708347132429481	1	0	NaN	2422383.1447291	NaN	2422384.128248	2422384.64480267
61	20	1	0	90	36.1581920903955	36.241610738255	8	0.266701312065124	2	9	4	NaN	2	3	0.0542498672943188	0	1	NaN	403	7	25	1	120	220	320	NaN	520	0.0104753323830664	2	1	NaN	2422386.1785024	NaN	2422387.1619014	2422387.67842657
61	20	1	0	90	36.1581920903955	36.241610738255	10	0.333376640081406	2	12	2	NaN	2	3	0.0542498672943188	0	1	NaN	404	7	26	1	120	220	320	NaN	520	1.81044492963701	2	1	NaN	2422388.7786208	NaN	2422389.7621521	2422390.27867217
61	20	1	0	90	36.1581920903955	36.241610738255	16	0.533402624130249	2	3	2	NaN	1	4	0.0542498672943188	0	1	NaN	405	7	27	1	120	220	320	NaN	520	1.21311512636021	2	0	NaN	2422392.9124852	NaN	2422393.895915	2422394.41241277
61	20	1	0	90	36.1581920903955	36.241610738255	21	0.700090944170952	2	6	6	NaN	1	3	0.0542498672943188	0	1	NaN	406	7	28	1	120	220	320	NaN	520	0.0105107296258211	1	1	NaN	2422396.4459845	NaN	2422397.4294767	2422397.94609467
61	20	1	0	90	36.1581920903955	36.241610738255	16	0.533402624130249	2	9	6	NaN	2	5	0.0542498672943188	0	1	NaN	407	7	29	1	120	220	320	NaN	520	0.0104151805862784	2	1	NaN	2422398.7797161	NaN	2422399.7631411	2422400.27966102
61	20	1	0	90	36.1581920903955	36.241610738255	21	0.700090944170952	2	8	5	NaN	2	3	0.0542498672943188	0	1	NaN	408	7	30	1	120	220	320	NaN	520	0.0104068806394935	2	1	NaN	2422401.1132802	NaN	2422402.0966773	2422402.61322042
61	20	1	0	90	36.1581920903955	36.241610738255	23	0.766766272187233	2	7	1	NaN	2	3	0.0542498672943188	0	1	NaN	409	7	31	1	120	220	320	NaN	520	0.0104688741266727	2	1	NaN	2422403.4301695	NaN	2422404.4135794	2422404.93010933
61	20	1	0	90	36.1581920903955	36.241610738255	10	0.333376640081406	2	1	6	NaN	1	3	0.0542498672943188	0	1	NaN	410	7	32	1	120	220	320	NaN	520	2.03350748075172	2	0	NaN	2422405.763757	NaN	2422406.7471414	2422407.26367512
61	20	1	0	90	36.1581920903955	36.241610738255	8	0.266701312065124	2	3	1	NaN	1	4	0.0542498672943188	0	1	NaN	411	7	33	1	120	220	320	NaN	520	0.482722935732454	2	0	NaN	2422410.1306518	NaN	2422411.1142403	2422411.63078006
61	20	1	0	90	36.1581920903955	36.241610738255	25	0.833441600203514	2	11	1	NaN	2	3	0.0542498672943188	0	1	NaN	412	7	34	1	120	220	320	NaN	520	0.466146394144744	2	1	NaN	2422412.9311173	NaN	2422413.9144963	2422414.43105101
61	20	1	0	90	36.1581920903955	36.241610738255	6	0.200025984048843	2	4	4	NaN	1	4	0.0542498672943188	0	1	NaN	413	7	35	1	120	220	320	NaN	520	0.362979331985116	2	0	NaN	2422415.714746	NaN	2422416.6981301	2422417.21465747
61	20	1	0	90	36.1581920903955	36.241610738255	25	0.833441600203514	2	1	4	NaN	1	4	0.0542498672943188	0	1	NaN	414	7	36	1	120	220	320	NaN	520	0.0869867326691747	1	1	NaN	2422418.3983179	NaN	2422419.3817329	2422419.89825677
61	20	1	0	90	36.1581920903955	36.241610738255	21	0.700090944170952	2	3	6	NaN	1	3	0.0542498672943188	0	1	NaN	415	7	37	1	120	220	320	NaN	520	0.621992980595678	1	1	NaN	2422420.8152282	NaN	2422421.7985672	2422422.31516032
61	20	1	0	90	36.1581920903955	36.241610738255	9	0.300038976073265	2	11	4	NaN	2	3	0.0542498672943188	0	1	NaN	416	7	38	1	120	220	320	NaN	520	0.010509077925235	2	1	NaN	2422423.7655135	NaN	2422424.7488978	2422425.26544482
61	20	1	0	90	36.1581920903955	36.241610738255	7	0.233363648056984	2	6	4	NaN	1	5	0.0542498672943188	0	1	NaN	417	7	39	1	120	220	320	NaN	520	0.0104731325991452	1	1	NaN	2422426.0990841	NaN	2422427.0824691	2422427.59900927
61	20	1	0	90	36.1581920903955	36.241610738255	11	0.366714304089546	2	9	4	NaN	2	4	0.0542498672943188	0	1	NaN	418	7	40	1	120	220	320	NaN	520	0.0686884806491435	2	1	NaN	2422428.4326128	NaN	2422429.4160327	2422429.93257252
61	20	1	0	90	36.1581920903955	36.241610738255	13	0.433389632105827	2	11	3	NaN	2	3	0.0542498672943188	0	1	NaN	419	7	41	1	120	220	320	NaN	520	0.0103966323658824	2	1	NaN	2422430.8162011	NaN	2422431.7995733	2422432.31614197
61	20	1	0	90	36.1581920903955	36.241610738255	24	0.800103936195373	2	2	6	NaN	1	4	0.0542498672943188	0	1	NaN	420	7	42	1	120	220	320	NaN	520	0.0104545326903462	2	0	NaN	2422433.1331142	NaN	2422434.116499	2422434.63302907
61	20	1	0	90	36.1581920903955	36.241610738255	22	0.733428608179092	2	12	5	NaN	2	5	0.0542498672943188	0	1	NaN	421	7	43	1	120	220	320	NaN	520	1.75446673249826	2	1	NaN	2422435.4665038	NaN	2422436.4500884	2422436.96659817
61	20	1	0	90	36.1581920903955	36.241610738255	23	0.766766272187233	2	1	6	NaN	1	4	0.0542498672943188	0	1	NaN	422	7	44	1	120	220	320	NaN	520	0.702781632076949	2	0	NaN	2422439.5504041	NaN	2422440.5337936	2422441.05033587
61	20	1	0	90	36.1581920903955	36.241610738255	18	0.60007795214653	2	8	2	NaN	2	3	0.0542498672943188	0	1	NaN	423	7	45	1	120	220	320	NaN	520	0.0104583324864507	2	1	NaN	2422442.5673876	NaN	2422443.550748	2422444.06728747
61	20	1	0	90	36.1581920903955	36.241610738255	12	0.400051968097687	2	3	5	NaN	1	3	0.0542498672943188	0	1	NaN	424	7	46	1	120	220	320	NaN	520	0.0104106804355979	2	0	NaN	2422444.900933	NaN	2422445.8843117	2422446.40084692
61	20	1	0	90	36.1581920903955	36.241610738255	7	0.233363648056984	2	4	5	NaN	1	4	0.0542498672943188	0	1	NaN	425	7	47	1	120	220	320	NaN	520	2.33115018391982	1	1	NaN	2422447.2343518	NaN	2422448.2179271	2422448.73441122
61	20	1	0	90	36.1581920903955	36.241610738255	11	0.366714304089546	2	11	2	NaN	2	4	0.0542498672943188	0	1	NaN	426	7	48	1	120	220	320	NaN	520	0.0104456809349358	2	1	NaN	2422451.8849321	NaN	2422452.8683161	2422453.38487392
61	20	1	0	90	36.1581920903955	36.241610738255	24	0.800103936195373	2	5	5	NaN	1	3	0.0542498672943188	0	1	NaN	427	7	49	1	120	220	320	NaN	520	0.0104319360107183	2	0	NaN	2422454.2184941	NaN	2422455.2018977	2422455.71844276
61	20	1	0	90	36.1581920903955	36.241610738255	12	0.400051968097687	2	10	5	NaN	2	3	0.0542498672943188	0	1	NaN	428	7	50	1	120	220	320	NaN	520	1.38933903211728	2	1	NaN	2422456.5521331	NaN	2422457.5354445	2422458.05200137
61	20	1	0	90	36.1581920903955	36.241610738255	10	0.333376640081406	2	9	2	NaN	2	3	0.0542498672943188	0	1	NaN	429	7	51	1	120	220	320	NaN	520	0.128955580759794	2	1	NaN	2422460.25237	NaN	2422461.2358519	2422461.75236352
61	20	1	0	90	36.1581920903955	36.241610738255	12	0.400051968097687	2	5	3	NaN	1	3	0.0542498672943188	0	1	NaN	430	7	52	1	120	220	320	NaN	520	0.270570387598127	2	0	NaN	2422462.7026643	NaN	2422463.6860596	2422464.20259951
61	20	1	0	90	36.1581920903955	36.241610738255	18	0.60007795214653	2	7	4	NaN	2	3	0.0542498672943188	0	1	NaN	431	7	53	1	120	220	320	NaN	520	0.439047480467707	2	1	NaN	2422465.2862718	NaN	2422466.269717	2422466.78618282
61	20	1	0	90	36.1581920903955	36.241610738255	25	0.833441600203514	2	7	3	NaN	2	3	0.0542498672943188	0	1	NaN	432	7	54	1	120	220	320	NaN	520	0.304212580900639	2	1	NaN	2422468.0531862	NaN	2422469.0365965	2422469.55312822
61	20	1	0	90	36.1581920903955	36.241610738255	13	0.433389632105827	2	10	6	NaN	2	4	0.0542498672943188	0	1	NaN	433	7	55	1	120	220	320	NaN	520	0.0104709807783365	2	1	NaN	2422470.6699941	NaN	2422471.653511	2422472.17005262
61	20	1	0	90	36.1581920903955	36.241610738255	11	0.366714304089546	2	5	6	NaN	1	5	0.0542498672943188	0	1	NaN	434	7	56	1	120	220	320	NaN	520	0.0103950323536992	1	1	NaN	2422473.0035168	NaN	2422473.9870806	2422474.50361427
61	20	1	0	90	36.1581920903955	36.241610738255	22	0.733428608179092	2	6	4	NaN	1	3	0.0542498672943188	0	1	NaN	435	7	57	1	120	220	320	NaN	520	1.3967537805438	2	0	NaN	2422475.3371736	NaN	2422476.320635	2422476.83716682
61	20	1	0	90	36.1581920903955	36.241610738255	8	0.266701312065124	2	7	5	NaN	2	3	0.0542498672943188	0	1	NaN	436	7	58	1	120	220	320	NaN	520	0.319564780686051	2	1	NaN	2422479.0542458	NaN	2422480.0376521	2422480.55420662
61	20	1	0	90	36.1581920903955	36.241610738255	17	0.56674028813839	2	4	3	NaN	1	3	0.0542498672943188	0	1	NaN	437	7	59	1	120	220	320	NaN	520	0.165493832435459	1	1	NaN	2422481.6878251	NaN	2422482.6712515	2422483.18779737
61	20	1	0	90	36.1581920903955	36.241610738255	14	0.466727296113968	2	4	4	NaN	1	5	0.0542498672943188	0	1	NaN	438	7	60	1	120	220	320	NaN	520	0.0499798804521561	1	1	NaN	2422484.1714464	NaN	2422485.1548218	2422485.67137542
61	20	1	0	90	36.1581920903955	36.241610738255	16	0.533402624130249	2	9	4	NaN	2	3	0.0542498672943188	0	1	NaN	439	7	61	1	120	220	320	NaN	520	0.0104099805466831	2	1	NaN	2422486.5383292	NaN	2422487.5217206	2422488.03829302
61	20	1	0	90	36.1581920903955	36.241610738255	0	0	1	9	1	NaN	2	3	0.0542498672943188	0	1	NaN	440	7	62	1	110	210	310	NaN	510	0.598563280887902	2	1	NaN	2422488.855091	NaN	2422489.8386311	2422490.35517062
61	20	1	0	90	36.1581920903955	36.241610738255	10	0.333376640081406	2	6	4	NaN	1	5	0.0542498672943188	0	1	NaN	441	7	63	1	120	220	320	NaN	520	0.0104556805454195	1	1	NaN	2422491.7555597	NaN	2422492.738906	2422493.25544872
61	20	1	0	90	36.1581920903955	36.241610738255	18	0.60007795214653	2	4	5	NaN	1	3	0.0542498672943188	0	1	NaN	442	8	1	1	120	220	320	NaN	520	0.0105948229320347	1	1	NaN	2422498.6394726	NaN	2422499.6229274	2422500.13946138
61	20	1	0	90	36.1581920903955	36.241610738255	25	0.833441600203514	2	12	5	NaN	2	3	0.0542498672943188	0	1	NaN	443	8	2	1	120	220	320	NaN	520	0.0104066808708012	2	1	NaN	2422500.9730973	NaN	2422501.9563662	2422502.47302572
61	20	1	0	90	36.1581920903955	36.241610738255	19	0.633415616154671	2	4	6	NaN	1	5	0.0542498672943188	0	1	NaN	444	8	3	1	120	220	320	NaN	520	0.0104457838460803	1	1	NaN	2422503.8233179	NaN	2422504.8067665	2422505.32330872
61	20	1	0	90	36.1581920903955	36.241610738255	16	0.533402624130249	2	7	1	NaN	2	5	0.0542498672943188	0	1	NaN	445	8	4	1	120	220	320	NaN	520	0.288777580950409	2	1	NaN	2422506.1569247	NaN	2422507.1403267	2422507.65685932
61	20	1	0	90	36.1581920903955	36.241610738255	17	0.56674028813839	2	10	5	NaN	2	5	0.0542498672943188	0	1	NaN	446	8	5	1	120	220	320	NaN	520	0.010411380790174	1	0	NaN	2422508.7738432	NaN	2422509.7572271	2422510.27378152
61	20	1	0	90	36.1581920903955	36.241610738255	18	0.60007795214653	2	3	1	NaN	1	5	0.0542498672943188	0	1	NaN	447	8	6	1	120	220	320	NaN	520	0.0104384780861437	2	0	NaN	2422511.1074931	NaN	2422512.0907965	2422512.60734002
61	20	1	0	90	36.1581920903955	36.241610738255	19	0.633415616154671	2	11	1	NaN	2	4	0.0542498672943188	0	1	NaN	448	8	7	1	120	220	320	NaN	520	1.63681988418102	1	0	NaN	2422513.4408498	NaN	2422514.4243801	2422514.94091332
61	20	1	0	90	36.1581920903955	36.241610738255	18	0.60007795214653	2	8	4	NaN	2	5	0.0542498672943188	0	1	NaN	449	8	8	1	120	220	320	NaN	520	0.0104407840408385	2	1	NaN	2422517.3912116	NaN	2422518.3747581	2422518.89130392
61	20	1	0	90	36.1581920903955	36.241610738255	17	0.56674028813839	2	5	3	NaN	1	5	0.0542498672943188	0	1	NaN	450	8	9	1	120	220	320	NaN	520	0.174063329584897	1	1	NaN	2422519.7915696	NaN	2422520.7749864	2422521.29152977
61	20	1	0	90	36.1581920903955	36.241610738255	0	0	1	2	5	NaN	1	5	0.0542498672943188	0	1	NaN	451	8	10	1	110	210	310	NaN	510	0.0104741808027029	1	1	NaN	2422522.2918328	NaN	2422523.275237	2422523.79178092
61	20	1	0	90	36.1581920903955	36.241610738255	19	0.633415616154671	2	10	4	NaN	2	3	0.0542498672943188	0	1	NaN	452	8	11	1	120	220	320	NaN	520	1.40452253213152	2	1	NaN	2422524.6253421	NaN	2422525.6088042	2422526.12534237
61	20	1	0	90	36.1581920903955	36.241610738255	9	0.300038976073265	2	9	5	NaN	2	3	0.0542498672943188	0	1	NaN	453	8	12	1	120	220	320	NaN	520	0.0103923324495554	1	0	NaN	2422528.3590986	NaN	2422529.3425064	2422529.85904417
61	20	1	0	90	36.1581920903955	36.241610738255	16	0.533402624130249	2	5	6	NaN	1	3	0.0542498672943188	0	1	NaN	454	8	13	1	120	220	320	NaN	520	0.0104126809164882	2	0	NaN	2422530.9258932	NaN	2422531.9094129	2422532.42595842
61	20	1	0	90	36.1581920903955	36.241610738255	20	0.666753280162811	2	12	1	NaN	2	4	0.0542498672943188	0	1	NaN	455	8	14	1	120	220	320	NaN	520	0.194656380452216	2	1	NaN	2422533.2427587	NaN	2422534.2263077	2422534.74285552
61	20	1	0	90	36.1581920903955	36.241610738255	9	0.300038976073265	2	11	5	NaN	2	3	0.0542498672943188	0	1	NaN	456	8	15	1	120	220	320	NaN	520	0.0104770320467651	2	1	NaN	2422535.7598307	NaN	2422536.7432256	2422537.25976677
61	20	1	0	90	36.1581920903955	36.241610738255	17	0.56674028813839	2	7	2	NaN	2	4	0.0542498672943188	0	1	NaN	457	8	16	1	120	220	320	NaN	520	0.0104576321318746	1	0	NaN	2422538.0934126	NaN	2422539.0767929	2422539.59332377
