subjno	age	gender	isPractice	viewdist	CmToPixX	CmToPixY	SOA_frm	SOA_time	targNum	targID	targExample	targRace	targGender	firstTargPos	contrast	familiarity	curr_staircase	iStair	TrialNum	BlockNum	blktrl	sessionNum	TC_FIXATION	TC_RSVP_START	TC_RSVP_END	TC_BLANK	TC_RESPONSE_ONSET	RT2afc	resp_2afc	acc	RSVPOnsetVBL	RSVPOnsetTime	RSVPOffsetVBL	RSVPOffsetTime	startrt_2afc
18	18	0	0	90	36.1581920903955	36.241610738255	8	0.266692415997386	2	9	5	NaN	2	3	0.191111655185609	1	1	NaN	1	1	1	1	121	221	321	NaN	521	0.965529378736392	2	1	NaN	1362837.3390423	NaN	1362838.3223948	1362838.85552002
18	18	0	0	90	36.1581920903955	36.241610738255	15	0.500048279995099	2	6	4	NaN	1	4	0.191111655185609	1	1	NaN	2	1	2	1	121	221	321	NaN	521	0.0112149310298264	1	1	NaN	1362854.8740587	NaN	1362855.857485	1362856.37390957
18	18	0	0	90	36.1581920903955	36.241610738255	18	0.600057935994118	2	2	5	NaN	1	4	0.191111655185609	1	1	NaN	3	1	3	1	121	221	321	NaN	521	1.20922657474875	1	1	NaN	1362857.2075272	NaN	1362858.1909207	1362858.70747133
18	18	0	0	90	36.1581920903955	36.241610738255	24	0.800077247992158	2	3	2	NaN	1	3	0.191111655185609	1	1	NaN	4	1	4	1	121	221	321	NaN	521	0.563900326844305	1	1	NaN	1362860.7412248	NaN	1362861.7246095	1362862.24115677
18	18	0	0	90	36.1581920903955	36.241610738255	17	0.566721383994445	2	9	1	NaN	2	3	0.191111655185609	1	1	NaN	5	1	5	1	121	221	321	NaN	521	0.0103935268707573	2	1	NaN	1362863.6248144	NaN	1362864.6082198	1362865.12477457
18	18	0	0	90	36.1581920903955	36.241610738255	16	0.533384831994772	2	6	1	NaN	1	3	0.191111655185609	1	1	NaN	6	1	6	1	121	221	321	NaN	521	0.895591874606907	1	1	NaN	1362866.0416979	NaN	1362867.025115	1362867.54166673
18	18	0	0	90	36.1581920903955	36.241610738255	0	0	1	4	6	NaN	1	5	0.191111655185609	1	1	NaN	7	1	7	1	111	211	311	NaN	511	0.0104105747304857	2	0	NaN	1362869.2587486	NaN	1362870.2421211	1362870.75865993
18	18	0	0	90	36.1581920903955	36.241610738255	0	0	1	8	3	NaN	2	4	0.191111655185609	1	1	NaN	8	1	8	1	111	211	311	NaN	511	0.376874574460089	2	1	NaN	1362871.5921498	NaN	1362872.5756829	1362873.09221653
18	18	0	0	90	36.1581920903955	36.241610738255	20	0.666731039993465	2	12	4	NaN	2	5	0.191111655185609	1	1	NaN	9	1	9	1	121	221	321	NaN	521	1.89282167470083	2	1	NaN	1362874.2924632	NaN	1362875.2759286	1362875.79248643
18	18	0	0	90	36.1581920903955	36.241610738255	23	0.766740695992485	2	12	3	NaN	2	3	0.191111655185609	1	1	NaN	10	1	10	1	121	221	321	NaN	521	0.219753774581477	2	1	NaN	1362878.5096197	NaN	1362879.4930099	1362880.00956883
18	18	0	0	90	36.1581920903955	36.241610738255	15	0.500048279995099	2	12	3	NaN	2	5	0.191111655185609	1	1	NaN	11	1	11	1	121	221	321	NaN	521	0.0300673744641244	2	1	NaN	1362881.0432306	NaN	1362882.0266032	1362882.54315043
18	18	0	0	90	36.1581920903955	36.241610738255	14	0.466711727995425	2	12	2	NaN	2	3	0.191111655185609	1	1	NaN	12	1	12	1	121	221	321	NaN	521	1.23160582687706	1	0	NaN	1362883.3934774	NaN	1362884.3768937	1362884.89338467
18	18	0	0	90	36.1581920903955	36.241610738255	0	0	1	1	1	NaN	1	5	0.191111655185609	1	1	NaN	13	1	13	1	111	211	311	NaN	511	0.0104109747335315	1	1	NaN	1362886.9437858	NaN	1362887.9271721	1362888.44373083
18	18	0	0	90	36.1581920903955	36.241610738255	13	0.433375175995752	2	12	5	NaN	2	3	0.191111655185609	1	1	NaN	14	1	14	1	121	221	321	NaN	521	0.21169547457248	1	0	NaN	1362889.2773079	NaN	1362890.260747	1362890.77729493
18	18	0	0	90	36.1581920903955	36.241610738255	13	0.433375175995752	2	9	6	NaN	2	5	0.191111655185609	1	1	NaN	15	1	15	1	121	221	321	NaN	521	1.65446912683547	2	1	NaN	1362891.8109388	NaN	1362892.7943093	1362893.31087237
18	18	0	0	90	36.1581920903955	36.241610738255	21	0.700067591993138	2	2	6	NaN	1	4	0.191111655185609	1	1	NaN	16	1	16	1	121	221	321	NaN	521	0.182884743670002	1	1	NaN	1362895.7946576	NaN	1362896.7780431	1362897.29461316
18	18	0	0	90	36.1581920903955	36.241610738255	7	0.233355863997713	2	3	3	NaN	1	5	0.191111655185609	1	1	NaN	17	1	17	1	121	221	321	NaN	521	0.0728639266453683	1	1	NaN	1362898.7282522	NaN	1362899.7116756	1362900.22821767
18	18	0	0	90	36.1581920903955	36.241610738255	18	0.600057935994118	2	12	4	NaN	2	3	0.191111655185609	1	1	NaN	18	1	18	1	121	221	321	NaN	521	1.31239967071451	1	0	NaN	1362901.1285177	NaN	1362902.1119847	1362902.62846993
18	18	0	0	90	36.1581920903955	36.241610738255	11	0.366702071996406	2	9	1	NaN	2	5	0.191111655185609	1	1	NaN	19	1	19	1	121	221	321	NaN	521	2.23116843122989	2	1	NaN	1362904.7622065	NaN	1362905.7455939	1362906.26214937
18	18	0	0	90	36.1581920903955	36.241610738255	22	0.733404143992811	2	12	2	NaN	2	5	0.191111655185609	1	1	NaN	20	1	20	1	121	221	321	NaN	521	0.504527826793492	2	1	NaN	1362909.3126473	NaN	1362910.2960479	1362910.81260057
18	18	0	0	90	36.1581920903955	36.241610738255	10	0.333365519996732	2	7	3	NaN	2	5	0.191111655185609	1	1	NaN	21	1	21	1	121	221	321	NaN	521	0.010378479026258	2	1	NaN	1362912.1462652	NaN	1362913.1296473	1362913.64620652
18	18	0	0	90	36.1581920903955	36.241610738255	21	0.700067591993138	2	10	3	NaN	2	4	0.191111655185609	1	1	NaN	22	1	22	1	121	221	321	NaN	521	0.753322474658489	1	0	NaN	1362914.4798492	NaN	1362915.4632295	1362915.97976853
18	18	0	0	90	36.1581920903955	36.241610738255	14	0.466711727995425	2	7	1	NaN	2	5	0.191111655185609	1	1	NaN	23	1	23	1	121	221	321	NaN	521	0.0104092746041715	2	1	NaN	1362917.5467927	NaN	1362918.530191	1362919.04673973
18	18	0	0	90	36.1581920903955	36.241610738255	19	0.633394487993792	2	3	5	NaN	1	3	0.191111655185609	1	1	NaN	24	1	24	1	121	221	321	NaN	521	0.120783826801926	1	1	NaN	1362919.8803429	NaN	1362920.8637577	1362921.38030957
18	18	0	0	90	36.1581920903955	36.241610738255	14	0.466711727995425	2	4	2	NaN	1	5	0.191111655185609	1	1	NaN	25	1	25	1	121	221	321	NaN	521	0.0104046748019755	1	1	NaN	1362922.330593	NaN	1362923.3139883	1362923.83054573
18	18	0	0	90	36.1581920903955	36.241610738255	22	0.733404143992811	2	9	4	NaN	2	3	0.191111655185609	1	1	NaN	26	1	26	1	121	221	321	NaN	521	0.0410841268021613	2	1	NaN	1362924.6640243	NaN	1362925.6475562	1362926.16411437
18	18	0	0	90	36.1581920903955	36.241610738255	17	0.566721383994445	2	4	3	NaN	1	3	0.191111655185609	1	1	NaN	27	1	27	1	121	221	321	NaN	521	0.0104118746239692	1	1	NaN	1362927.0310605	NaN	1362928.0144102	1362928.53100973
18	18	0	0	90	36.1581920903955	36.241610738255	7	0.233355863997713	2	8	6	NaN	2	4	0.191111655185609	1	1	NaN	28	1	28	1	121	221	321	NaN	521	0.0104279746301472	2	1	NaN	1362929.3646337	NaN	1362930.3479203	1362930.86456503
18	18	0	0	90	36.1581920903955	36.241610738255	21	0.700067591993138	2	4	2	NaN	1	4	0.191111655185609	1	1	NaN	29	1	29	1	121	221	321	NaN	521	0.0629345267079771	1	1	NaN	1362931.6981873	NaN	1362932.6815867	1362933.19813547
18	18	0	0	90	36.1581920903955	36.241610738255	19	0.633394487993792	2	7	2	NaN	2	4	0.191111655185609	1	1	NaN	30	1	30	1	121	221	321	NaN	521	2.28752693091519	2	1	NaN	1362934.0817427	NaN	1362935.0651376	1362935.58169657
18	18	0	0	90	36.1581920903955	36.241610738255	6	0.200019311998039	2	6	6	NaN	1	5	0.191111655185609	1	1	NaN	31	1	31	1	121	221	321	NaN	521	0.0104048745706677	1	1	NaN	1362939.0988838	NaN	1362940.0823256	1362940.59885623
18	18	0	0	90	36.1581920903955	36.241610738255	19	0.633394487993792	2	5	4	NaN	1	4	0.191111655185609	1	1	NaN	32	1	32	1	121	221	321	NaN	521	0.0104072268586606	1	1	NaN	1362941.4324719	NaN	1362942.4158709	1362942.93243007
18	18	0	0	90	36.1581920903955	36.241610738255	10	0.333365519996732	2	1	1	NaN	1	4	0.191111655185609	1	1	NaN	33	1	33	1	121	221	321	NaN	521	0.193793474696577	1	1	NaN	1362944.1993429	NaN	1362945.1828238	1362945.69936533
18	18	0	0	90	36.1581920903955	36.241610738255	7	0.233355863997713	2	10	3	NaN	2	4	0.191111655185609	1	1	NaN	34	1	34	1	121	221	321	NaN	521	0.0103952267672867	2	1	NaN	1362946.7163326	NaN	1362947.6997265	1362948.21628277
18	18	0	0	90	36.1581920903955	36.241610738255	18	0.600057935994118	2	4	2	NaN	1	5	0.191111655185609	1	1	NaN	35	1	35	1	121	221	321	NaN	521	0.0714496746659279	1	1	NaN	1362949.0499034	NaN	1362950.0332928	1362950.54984593
18	18	0	0	90	36.1581920903955	36.241610738255	0	0	1	6	6	NaN	1	3	0.191111655185609	1	1	NaN	36	1	36	1	111	211	311	NaN	511	0.183031026739627	1	1	NaN	1362951.8501448	NaN	1362952.8335754	1362953.35012127
18	18	0	0	90	36.1581920903955	36.241610738255	6	0.200019311998039	2	10	2	NaN	2	5	0.191111655185609	1	1	NaN	37	1	37	1	121	221	321	NaN	521	2.24336107471026	2	1	NaN	1362954.7337731	NaN	1362955.7171832	1362956.23373333
18	18	0	0	90	36.1581920903955	36.241610738255	15	0.500048279995099	2	11	2	NaN	2	5	0.191111655185609	1	1	NaN	38	1	38	1	121	221	321	NaN	521	0.0868687268812209	2	1	NaN	1362959.6342319	NaN	1362960.6176742	1362961.13421917
18	18	0	0	90	36.1581920903955	36.241610738255	12	0.400038623996079	2	1	5	NaN	1	5	0.191111655185609	1	1	NaN	39	1	39	1	121	221	321	NaN	521	0.094750726595521	1	1	NaN	1362962.0344935	NaN	1362963.0178966	1362963.53445367
18	18	0	0	90	36.1581920903955	36.241610738255	10	0.333365519996732	2	3	4	NaN	1	3	0.191111655185609	1	1	NaN	40	1	40	1	121	221	321	NaN	521	0.0103939266409725	1	1	NaN	1362964.4514161	NaN	1362965.4348243	1362965.95136137
18	18	0	0	90	36.1581920903955	36.241610738255	7	0.233355863997713	2	2	5	NaN	1	3	0.191111655185609	1	1	NaN	41	1	41	1	121	221	321	NaN	521	0.010347287170589	1	1	NaN	1362966.7849701	NaN	1362967.768365	1362968.28491361
18	18	0	0	90	36.1581920903955	36.241610738255	20	0.666731039993465	2	5	5	NaN	1	5	0.191111655185609	1	1	NaN	42	1	42	1	121	221	321	NaN	521	0.0102691436186433	1	1	NaN	1362969.1018691	NaN	1362970.0852592	1362970.60181666
18	18	0	0	90	36.1581920903955	36.241610738255	9	0.300028967997059	2	8	6	NaN	2	3	0.191111655185609	1	1	NaN	43	1	43	1	121	221	321	NaN	521	0.149662800133228	2	1	NaN	1362971.4354435	NaN	1362972.4188117	1362972.935383
18	18	0	0	90	36.1581920903955	36.241610738255	17	0.566721383994445	2	1	5	NaN	1	4	0.191111655185609	1	1	NaN	44	1	44	1	121	221	321	NaN	521	0.258763774530962	1	1	NaN	1362973.9023107	NaN	1362974.8857508	1362975.40227903
18	18	0	0	90	36.1581920903955	36.241610738255	20	0.666731039993465	2	7	4	NaN	2	3	0.191111655185609	1	1	NaN	45	1	45	1	121	221	321	NaN	521	0.107790174661204	2	1	NaN	1362976.4691325	NaN	1362977.4527111	1362977.96920643
18	18	0	0	90	36.1581920903955	36.241610738255	15	0.500048279995099	2	2	6	NaN	1	3	0.191111655185609	1	1	NaN	46	1	46	1	121	221	321	NaN	521	0.0104089747183025	1	1	NaN	1362978.8861538	NaN	1362979.8695577	1362980.38610193
18	18	0	0	90	36.1581920903955	36.241610738255	12	0.400038623996079	2	4	3	NaN	1	5	0.191111655185609	1	1	NaN	47	1	47	1	121	221	321	NaN	521	0.141669683158398	1	1	NaN	1362981.2197178	NaN	1362982.2031305	1362982.71966782
18	18	0	0	90	36.1581920903955	36.241610738255	7	0.233355863997713	2	2	4	NaN	1	4	0.191111655185609	1	1	NaN	48	1	48	1	121	221	321	NaN	521	0.0113199269399047	1	1	NaN	1362983.670068	NaN	1362984.6533593	1362985.16990717
18	18	0	0	90	36.1581920903955	36.241610738255	22	0.733404143992811	2	6	3	NaN	1	4	0.191111655185609	1	1	NaN	49	1	49	1	121	221	321	NaN	521	0.0624649745877832	1	1	NaN	1362985.9867308	NaN	1362986.9702546	1362987.48679963
18	18	0	0	90	36.1581920903955	36.241610738255	18	0.600057935994118	2	9	6	NaN	2	4	0.191111655185609	1	1	NaN	50	1	50	1	121	221	321	NaN	521	0.0103025436401367	2	1	NaN	1362988.3704242	NaN	1362989.3538319	1362989.87037766
18	18	0	0	90	36.1581920903955	36.241610738255	17	0.566721383994445	2	4	6	NaN	1	5	0.191111655185609	1	1	NaN	51	1	51	1	121	221	321	NaN	521	0.170165326911956	2	0	NaN	1362990.6872115	NaN	1362991.6707101	1362992.18727037
18	18	0	0	90	36.1581920903955	36.241610738255	17	0.566721383994445	2	1	4	NaN	1	5	0.191111655185609	1	1	NaN	52	1	52	1	121	221	321	NaN	521	0.0104090746026486	1	1	NaN	1362993.1707835	NaN	1362994.1541924	1362994.67083803
18	18	0	0	90	36.1581920903955	36.241610738255	19	0.633394487993792	2	9	1	NaN	2	4	0.191111655185609	1	1	NaN	53	1	53	1	121	221	321	NaN	521	0.0175031267572194	2	1	NaN	1362995.4877856	NaN	1362996.471183	1362996.98774527
18	18	0	0	90	36.1581920903955	36.241610738255	16	0.533384831994772	2	8	3	NaN	2	5	0.191111655185609	1	1	NaN	54	1	54	1	121	221	321	NaN	521	0.100108174607158	2	1	NaN	1362997.8213684	NaN	1362998.8047587	1362999.32129753
18	18	0	0	90	36.1581920903955	36.241610738255	6	0.200019311998039	2	1	2	NaN	1	5	0.191111655185609	1	1	NaN	55	1	55	1	121	221	321	NaN	521	0.171134734991938	1	1	NaN	1363000.2382635	NaN	1363001.2216569	1363001.73820836
18	18	0	0	90	36.1581920903955	36.241610738255	6	0.200019311998039	2	9	5	NaN	2	5	0.191111655185609	1	1	NaN	56	1	56	1	121	221	321	NaN	521	0.671882378868759	2	1	NaN	1363002.7218474	NaN	1363003.7052608	1363004.22178752
18	18	0	0	90	36.1581920903955	36.241610738255	13	0.433375175995752	2	11	4	NaN	2	4	0.191111655185609	1	1	NaN	57	1	57	1	121	221	321	NaN	521	0.121449722675607	2	1	NaN	1363006.0721557	NaN	1363007.0555612	1363007.57210698
18	18	0	0	90	36.1581920903955	36.241610738255	17	0.566721383994445	2	7	4	NaN	2	4	0.191111655185609	1	1	NaN	58	1	58	1	121	221	321	NaN	521	1.78351352689788	2	1	NaN	1363008.5057253	NaN	1363009.4891467	1363010.00569307
18	18	0	0	90	36.1581920903955	36.241610738255	0	0	1	9	6	NaN	2	3	0.191111655185609	1	1	NaN	59	1	59	1	111	211	311	NaN	511	0.434851374709979	1	0	NaN	1363012.6061473	NaN	1363013.5895379	1363014.10608793
18	18	0	0	90	36.1581920903955	36.241610738255	24	0.800077247992158	2	11	6	NaN	2	4	0.191111655185609	1	1	NaN	60	1	60	1	121	221	321	NaN	521	0.0104083747137338	2	1	NaN	1363015.3564096	NaN	1363016.339814	1363016.85635793
18	18	0	0	90	36.1581920903955	36.241610738255	20	0.666731039993465	2	8	3	NaN	2	5	0.191111655185609	1	1	NaN	61	1	61	1	121	221	321	NaN	521	0.0632558269426227	2	1	NaN	1363017.690006	NaN	1363018.6733647	1363019.18992147
18	18	0	0	90	36.1581920903955	36.241610738255	12	0.400038623996079	2	8	2	NaN	2	5	0.191111655185609	1	1	NaN	62	1	62	1	121	221	321	NaN	521	0.183743226807564	2	1	NaN	1363020.0735501	NaN	1363021.0569278	1363021.57349167
18	18	0	0	90	36.1581920903955	36.241610738255	24	0.800077247992158	2	5	4	NaN	1	4	0.191111655185609	1	1	NaN	63	1	63	1	121	221	321	NaN	521	0.15407617460005	1	1	NaN	1363023.0071703	NaN	1363023.9905651	1363024.50711703
18	18	0	0	90	36.1581920903955	36.241610738255	11	0.366702071996406	2	3	3	NaN	1	4	0.191111655185609	1	1	NaN	64	2	1	1	121	221	321	NaN	521	0.0570969267282635	1	1	NaN	1363046.9762359	NaN	1363047.9595776	1363048.47614047
18	18	0	0	90	36.1581920903955	36.241610738255	24	0.800077247992158	2	10	6	NaN	2	5	0.191111655185609	1	1	NaN	65	2	2	1	121	221	321	NaN	521	0.0103927268646657	2	1	NaN	1363049.343075	NaN	1363050.3264896	1363050.84304177
18	18	0	0	90	36.1581920903955	36.241610738255	25	0.833413799991831	2	9	5	NaN	2	3	0.191111655185609	1	1	NaN	66	2	3	1	121	221	321	NaN	521	0.781278574839234	2	1	NaN	1363051.6599781	NaN	1363052.6433965	1363053.15993363
18	18	0	0	90	36.1581920903955	36.241610738255	20	0.666731039993465	2	11	4	NaN	2	3	0.191111655185609	1	1	NaN	67	2	4	1	121	221	321	NaN	521	0.081066474551335	2	1	NaN	1363054.7602884	NaN	1363055.7436838	1363056.26022933
18	18	0	0	90	36.1581920903955	36.241610738255	15	0.500048279995099	2	1	6	NaN	1	3	0.191111655185609	1	1	NaN	68	2	5	1	121	221	321	NaN	521	0.010405974695459	1	1	NaN	1363057.160529	NaN	1363058.1439316	1363058.66048703
18	18	0	0	90	36.1581920903955	36.241610738255	25	0.833413799991831	2	8	4	NaN	2	3	0.191111655185609	1	1	NaN	69	2	6	1	121	221	321	NaN	521	0.0103936267551035	2	1	NaN	1363059.4774103	NaN	1363060.4608563	1363060.97737237
18	18	0	0	90	36.1581920903955	36.241610738255	7	0.233355863997713	2	11	3	NaN	2	4	0.191111655185609	1	1	NaN	70	2	7	1	121	221	321	NaN	521	0.811396374600008	2	1	NaN	1363061.8776613	NaN	1363062.861066	1363063.37760313
18	18	0	0	90	36.1581920903955	36.241610738255	16	0.533384831994772	2	10	2	NaN	2	3	0.191111655185609	1	1	NaN	71	2	8	1	121	221	321	NaN	521	1.07822547876276	2	1	NaN	1363065.0113029	NaN	1363065.9947106	1363066.51124562
18	18	0	0	90	36.1581920903955	36.241610738255	8	0.266692415997386	2	7	3	NaN	2	4	0.191111655185609	1	1	NaN	72	2	9	1	121	221	321	NaN	521	0.0103959268890321	2	1	NaN	1363068.3948353	NaN	1363069.3783461	1363069.89490507
18	18	0	0	90	36.1581920903955	36.241610738255	16	0.533384831994772	2	8	5	NaN	2	3	0.191111655185609	1	1	NaN	73	2	10	1	121	221	321	NaN	521	0.0167979747056961	2	1	NaN	1363070.7285465	NaN	1363071.711934	1363072.22846683
18	18	0	0	90	36.1581920903955	36.241610738255	8	0.266692415997386	2	8	3	NaN	2	3	0.191111655185609	1	1	NaN	74	2	11	1	121	221	321	NaN	521	0.0104107747320086	2	1	NaN	1363073.0619728	NaN	1363074.0454712	1363074.56203953
18	18	0	0	90	36.1581920903955	36.241610738255	19	0.633394487993792	2	2	4	NaN	1	3	0.191111655185609	1	1	NaN	75	2	12	1	121	221	321	NaN	521	0.0104123745113611	1	1	NaN	1363075.395652	NaN	1363076.379059	1363076.89559313
18	18	0	0	90	36.1581920903955	36.241610738255	14	0.466711727995425	2	4	5	NaN	1	5	0.191111655185609	1	1	NaN	76	2	13	1	121	221	321	NaN	521	0.0104085747152567	1	1	NaN	1363077.7124513	NaN	1363078.6959446	1363079.21249563
18	18	0	0	90	36.1581920903955	36.241610738255	11	0.366702071996406	2	2	5	NaN	1	3	0.191111655185609	1	1	NaN	77	2	14	1	121	221	321	NaN	521	0.185380826704204	1	1	NaN	1363080.2961143	NaN	1363081.2795213	1363081.79608657
18	18	0	0	90	36.1581920903955	36.241610738255	0	0	1	5	4	NaN	1	4	0.191111655185609	1	1	NaN	78	2	15	1	111	211	311	NaN	511	0.036919126752764	1	1	NaN	1363082.796373	NaN	1363083.7797659	1363084.29632837
18	18	0	0	90	36.1581920903955	36.241610738255	9	0.300028967997059	2	4	4	NaN	1	5	0.191111655185609	1	1	NaN	79	2	16	1	121	221	321	NaN	521	0.163309974828735	1	1	NaN	1363085.6299629	NaN	1363086.6133791	1363087.12993683
18	18	0	0	90	36.1581920903955	36.241610738255	25	0.833413799991831	2	1	5	NaN	1	3	0.191111655185609	1	1	NaN	80	2	17	1	121	221	321	NaN	521	0.0104087747167796	1	1	NaN	1363088.0969217	NaN	1363089.0802919	1363089.59685343
18	18	0	0	90	36.1581920903955	36.241610738255	11	0.366702071996406	2	5	1	NaN	1	5	0.191111655185609	1	1	NaN	81	2	18	1	121	221	321	NaN	521	0.0104244747199118	1	1	NaN	1363090.4137981	NaN	1363091.3971896	1363091.91373803
18	18	0	0	90	36.1581920903955	36.241610738255	10	0.333365519996732	2	8	1	NaN	2	4	0.191111655185609	1	1	NaN	82	2	19	1	121	221	321	NaN	521	0.0104089747183025	2	1	NaN	1363092.7306975	NaN	1363093.714084	1363094.23063923
18	18	0	0	90	36.1581920903955	36.241610738255	12	0.400038623996079	2	5	2	NaN	1	4	0.191111655185609	1	1	NaN	83	2	20	1	121	221	321	NaN	521	0.0103865351993591	1	1	NaN	1363095.0642548	NaN	1363096.0476504	1363096.56420076
18	18	0	0	90	36.1581920903955	36.241610738255	14	0.466711727995425	2	11	3	NaN	2	5	0.191111655185609	1	1	NaN	84	2	21	1	121	221	321	NaN	521	0.684541822643951	2	1	NaN	1363097.380995	NaN	1363098.3645827	1363098.88108788
18	18	0	0	90	36.1581920903955	36.241610738255	17	0.566721383994445	2	8	5	NaN	2	4	0.191111655185609	1	1	NaN	85	2	22	1	121	221	321	NaN	521	0.0104092268738896	2	1	NaN	1363100.3814421	NaN	1363101.3648304	1363101.88139487
18	18	0	0	90	36.1581920903955	36.241610738255	9	0.300028967997059	2	9	3	NaN	2	4	0.191111655185609	1	1	NaN	86	2	23	1	121	221	321	NaN	521	2.22102752281353	2	1	NaN	1363102.7483447	NaN	1363103.7317347	1363104.24828008
18	18	0	0	90	36.1581920903955	36.241610738255	22	0.733404143992811	2	5	1	NaN	1	5	0.191111655185609	1	1	NaN	87	2	24	1	121	221	321	NaN	521	0.103282574564219	1	1	NaN	1363107.2821244	NaN	1363108.2654988	1363108.78208163
18	18	0	0	90	36.1581920903955	36.241610738255	18	0.600057935994118	2	5	6	NaN	1	3	0.191111655185609	1	1	NaN	88	2	25	1	121	221	321	NaN	521	0.0103010393213481	1	1	NaN	1363109.6990281	NaN	1363110.6824252	1363111.19897546
18	18	0	0	90	36.1581920903955	36.241610738255	11	0.366702071996406	2	11	1	NaN	2	3	0.191111655185609	1	1	NaN	89	2	26	1	121	221	321	NaN	521	0.489343378925696	2	1	NaN	1363112.0159132	NaN	1363112.9993327	1363113.51587222
18	18	0	0	90	36.1581920903955	36.241610738255	12	0.400038623996079	2	6	6	NaN	1	3	0.191111655185609	1	1	NaN	90	2	27	1	121	221	321	NaN	521	1.12955977465026	1	1	NaN	1363114.8161976	NaN	1363115.7995855	1363116.31613783
18	18	0	0	90	36.1581920903955	36.241610738255	22	0.733404143992811	2	5	3	NaN	1	5	0.191111655185609	1	1	NaN	91	2	28	1	121	221	321	NaN	521	0.239107274683192	1	1	NaN	1363118.2665273	NaN	1363119.2499562	1363119.76648553
18	18	0	0	90	36.1581920903955	36.241610738255	15	0.500048279995099	2	10	6	NaN	2	4	0.191111655185609	1	1	NaN	92	2	29	1	121	221	321	NaN	521	2.48853517463431	2	1	NaN	1363120.8167875	NaN	1363121.8001732	1363122.31672823
18	18	0	0	90	36.1581920903955	36.241610738255	12	0.400038623996079	2	10	5	NaN	2	4	0.191111655185609	1	1	NaN	93	2	30	1	121	221	321	NaN	521	0.0104109745007008	2	1	NaN	1363125.6172535	NaN	1363126.6006525	1363127.11720503
18	18	0	0	90	36.1581920903955	36.241610738255	11	0.366702071996406	2	1	3	NaN	1	5	0.191111655185609	1	1	NaN	94	2	31	1	121	221	321	NaN	521	0.0104071744717658	1	1	NaN	1363128.3675338	NaN	1363129.3509169	1363129.86747093
18	18	0	0	90	36.1581920903955	36.241610738255	6	0.200019311998039	2	8	4	NaN	2	4	0.191111655185609	1	1	NaN	95	2	32	1	121	221	321	NaN	521	0.0769427747000009	2	1	NaN	1363130.6844221	NaN	1363131.667816	1363132.18436653
18	18	0	0	90	36.1581920903955	36.241610738255	19	0.633394487993792	2	4	5	NaN	1	3	0.191111655185609	1	1	NaN	96	2	33	1	121	221	321	NaN	521	0.0103811789304018	1	1	NaN	1363133.0679348	NaN	1363134.0513793	1363134.56794152
18	18	0	0	90	36.1581920903955	36.241610738255	17	0.566721383994445	2	2	1	NaN	1	5	0.191111655185609	1	1	NaN	97	2	34	1	121	221	321	NaN	521	0.0104036745615304	1	1	NaN	1363135.4015551	NaN	1363136.3849675	1363136.90149033
18	18	0	0	90	36.1581920903955	36.241610738255	20	0.666731039993465	2	10	1	NaN	2	5	0.191111655185609	1	1	NaN	98	2	35	1	121	221	321	NaN	521	1.40311252255924	2	1	NaN	1363137.7184341	NaN	1363138.7018331	1363139.21838648
18	18	0	0	90	36.1581920903955	36.241610738255	21	0.700067591993138	2	3	6	NaN	1	5	0.191111655185609	1	1	NaN	99	2	36	1	121	221	321	NaN	521	0.0103947266470641	1	1	NaN	1363141.7188624	NaN	1363142.7022302	1363143.21878837
18	18	0	0	90	36.1581920903955	36.241610738255	20	0.666731039993465	2	5	6	NaN	1	4	0.191111655185609	1	1	NaN	100	2	37	1	121	221	321	NaN	521	0.0104053746908903	1	1	NaN	1363144.0357389	NaN	1363145.0191222	1363145.53568513
18	18	0	0	90	36.1581920903955	36.241610738255	7	0.233355863997713	2	11	2	NaN	2	4	0.191111655185609	1	1	NaN	101	2	38	1	121	221	321	NaN	521	0.041032770415768	2	1	NaN	1363146.3525038	NaN	1363147.3360085	1363147.85256833
18	18	0	0	90	36.1581920903955	36.241610738255	7	0.233355863997713	2	5	2	NaN	1	3	0.191111655185609	1	1	NaN	102	2	39	1	121	221	321	NaN	521	0.0104048745706677	1	1	NaN	1363148.7027492	NaN	1363149.6862419	1363150.20280293
18	18	0	0	90	36.1581920903955	36.241610738255	7	0.233355863997713	2	10	4	NaN	2	3	0.191111655185609	1	1	NaN	103	2	40	1	121	221	321	NaN	521	0.934015426784754	1	0	NaN	1363151.0197534	NaN	1363152.0031812	1363152.51970287
18	18	0	0	90	36.1581920903955	36.241610738255	11	0.366702071996406	2	7	6	NaN	2	3	0.191111655185609	1	1	NaN	104	2	41	1	121	221	321	NaN	521	0.0104098746087402	2	1	NaN	1363154.2701029	NaN	1363155.2535004	1363155.77001823
18	18	0	0	90	36.1581920903955	36.241610738255	19	0.633394487993792	2	12	1	NaN	2	5	0.191111655185609	1	1	NaN	105	2	42	1	121	221	321	NaN	521	0.0103965266607702	2	1	NaN	1363156.5869481	NaN	1363157.5703929	1363158.08692047
18	18	0	0	90	36.1581920903955	36.241610738255	8	0.266692415997386	2	3	1	NaN	1	3	0.191111655185609	1	1	NaN	106	2	43	1	121	221	321	NaN	521	0.0574885746464133	1	1	NaN	1363158.9038658	NaN	1363159.8872599	1363160.40380273
18	18	0	0	90	36.1581920903955	36.241610738255	22	0.733404143992811	2	1	5	NaN	1	3	0.191111655185609	1	1	NaN	107	2	44	1	121	221	321	NaN	521	1.09058127063327	1	1	NaN	1363161.2706289	NaN	1363162.2541638	1363162.77070233
18	18	0	0	90	36.1581920903955	36.241610738255	13	0.433375175995752	2	8	6	NaN	2	5	0.191111655185609	1	1	NaN	108	2	45	1	121	221	321	NaN	521	2.22658137464896	2	1	NaN	1363164.6711918	NaN	1363165.654524	1363166.17103953
18	18	0	0	90	36.1581920903955	36.241610738255	0	0	1	12	5	NaN	2	3	0.191111655185609	1	1	NaN	109	2	46	1	111	211	311	NaN	511	0.0103920267429203	2	1	NaN	1363169.2214383	NaN	1363170.2049344	1363170.72149357
18	18	0	0	90	36.1581920903955	36.241610738255	13	0.433375175995752	2	5	1	NaN	1	4	0.191111655185609	1	1	NaN	110	2	47	1	121	221	321	NaN	521	0.382985274773091	1	1	NaN	1363171.5383741	NaN	1363172.5218388	1363173.03838033
18	18	0	0	90	36.1581920903955	36.241610738255	21	0.700067591993138	2	4	6	NaN	1	3	0.191111655185609	1	1	NaN	111	2	48	1	121	221	321	NaN	521	1.40933407889679	2	0	NaN	1363174.4720454	NaN	1363175.4554749	1363175.97201042
18	18	0	0	90	36.1581920903955	36.241610738255	24	0.800077247992158	2	3	4	NaN	1	5	0.191111655185609	1	1	NaN	112	2	49	1	121	221	321	NaN	521	0.428803043672815	1	1	NaN	1363178.1891071	NaN	1363179.1724822	1363179.68904246
18	18	0	0	90	36.1581920903955	36.241610738255	18	0.600057935994118	2	1	3	NaN	1	5	0.191111655185609	1	1	NaN	113	2	50	1	121	221	321	NaN	521	0.950750426622108	1	1	NaN	1363180.9226864	NaN	1363181.9060996	1363182.42264637
18	18	0	0	90	36.1581920903955	36.241610738255	12	0.400038623996079	2	6	2	NaN	1	4	0.191111655185609	1	1	NaN	114	2	51	1	121	221	321	NaN	521	0.90010592690669	1	1	NaN	1363184.1896727	NaN	1363185.1730916	1363185.68963017
18	18	0	0	90	36.1581920903955	36.241610738255	20	0.666731039993465	2	9	2	NaN	2	5	0.191111655185609	1	1	NaN	115	2	52	1	121	221	321	NaN	521	0.0908284226898104	2	1	NaN	1363187.406664	NaN	1363188.3900645	1363188.90660538
18	18	0	0	90	36.1581920903955	36.241610738255	20	0.666731039993465	2	3	3	NaN	1	5	0.191111655185609	1	1	NaN	116	2	53	1	121	221	321	NaN	521	0.0103831789456308	1	1	NaN	1363189.8069094	NaN	1363190.7903004	1363191.30685072
18	18	0	0	90	36.1581920903955	36.241610738255	6	0.200019311998039	2	6	3	NaN	1	3	0.191111655185609	1	1	NaN	117	2	54	1	121	221	321	NaN	521	0.0102628956083208	1	1	NaN	1363192.1404691	NaN	1363193.1238671	1363193.6404191
18	18	0	0	90	36.1581920903955	36.241610738255	6	0.200019311998039	2	12	2	NaN	2	3	0.191111655185609	1	1	NaN	118	2	55	1	121	221	321	NaN	521	0.11743849166669	2	1	NaN	1363194.9240477	NaN	1363195.9074501	1363196.42401621
18	18	0	0	90	36.1581920903955	36.241610738255	11	0.366702071996406	2	1	3	NaN	1	5	0.191111655185609	1	1	NaN	119	2	56	1	121	221	321	NaN	521	0.099918318213895	1	1	NaN	1363197.3576541	NaN	1363198.3410453	1363198.85758238
18	18	0	0	90	36.1581920903955	36.241610738255	15	0.500048279995099	2	2	4	NaN	1	5	0.191111655185609	1	1	NaN	120	2	57	1	121	221	321	NaN	521	0.37105842679739	1	1	NaN	1363199.7745654	NaN	1363200.7579299	1363201.27449407
18	18	0	0	90	36.1581920903955	36.241610738255	25	0.833413799991831	2	12	6	NaN	2	4	0.191111655185609	1	1	NaN	121	2	58	1	121	221	321	NaN	521	0.239641974680126	2	1	NaN	1363202.4581418	NaN	1363203.4415409	1363203.95808433
18	18	0	0	90	36.1581920903955	36.241610738255	16	0.533384831994772	2	7	6	NaN	2	3	0.191111655185609	1	1	NaN	122	2	59	1	121	221	321	NaN	521	0.577447674470022	2	1	NaN	1363205.0083857	NaN	1363205.9917826	1363206.50834213
18	18	0	0	90	36.1581920903955	36.241610738255	8	0.266692415997386	2	5	4	NaN	1	3	0.191111655185609	1	1	NaN	123	2	60	1	121	221	321	NaN	521	0.485370274633169	1	1	NaN	1363207.8920168	NaN	1363208.8754124	1363209.39195213
18	18	0	0	90	36.1581920903955	36.241610738255	18	0.600057935994118	2	10	2	NaN	2	5	0.191111655185609	1	1	NaN	124	2	61	1	121	221	321	NaN	521	0.621243574656546	2	1	NaN	1363210.6922905	NaN	1363211.67568	1363212.19223813
18	18	0	0	90	36.1581920903955	36.241610738255	14	0.466711727995425	2	1	5	NaN	1	4	0.191111655185609	1	1	NaN	125	2	62	1	121	221	321	NaN	521	0.447470226790756	1	1	NaN	1363213.6259047	NaN	1363214.6093099	1363215.12587387
18	18	0	0	90	36.1581920903955	36.241610738255	25	0.833413799991831	2	4	3	NaN	1	3	0.191111655185609	1	1	NaN	126	2	63	1	121	221	321	NaN	521	0.504698174772784	1	1	NaN	1363216.3928467	NaN	1363217.376236	1363217.89278943
18	18	0	0	90	36.1581920903955	36.241610738255	10	0.333365519996732	2	9	1	NaN	2	5	0.191111655185609	1	1	NaN	127	3	1	1	121	221	321	NaN	521	0.0104180227499455	2	1	NaN	1363238.5950023	NaN	1363239.5784227	1363240.09496708
18	18	0	0	90	36.1581920903955	36.241610738255	13	0.433375175995752	2	10	4	NaN	2	4	0.191111655185609	1	1	NaN	128	3	2	1	121	221	321	NaN	521	0.912812374532223	2	1	NaN	1363240.9285972	NaN	1363241.9119906	1363242.42853213
18	18	0	0	90	36.1581920903955	36.241610738255	13	0.433375175995752	2	3	4	NaN	1	3	0.191111655185609	1	1	NaN	129	3	3	1	121	221	321	NaN	521	0.607416574610397	1	1	NaN	1363245.7623747	NaN	1363246.7457781	1363247.26234363
18	18	0	0	90	36.1581920903955	36.241610738255	24	0.800077247992158	2	7	4	NaN	2	5	0.191111655185609	1	1	NaN	130	3	4	1	121	221	321	NaN	521	0.0663570745382458	2	1	NaN	1363248.6793776	NaN	1363249.6627497	1363250.17929533
18	18	0	0	90	36.1581920903955	36.241610738255	14	0.466711727995425	2	5	4	NaN	1	3	0.191111655185609	1	1	NaN	131	3	5	1	121	221	321	NaN	521	0.618767274543643	1	1	NaN	1363251.0629249	NaN	1363252.0463051	1363252.56286803
18	18	0	0	90	36.1581920903955	36.241610738255	25	0.833413799991831	2	10	5	NaN	2	3	0.191111655185609	1	1	NaN	132	3	6	1	121	221	321	NaN	521	0.829001874662936	1	0	NaN	1363253.9964421	NaN	1363254.9799502	1363255.49649093
18	18	0	0	90	36.1581920903955	36.241610738255	10	0.333365519996732	2	12	6	NaN	2	5	0.191111655185609	1	1	NaN	133	3	7	1	121	221	321	NaN	521	0.0104329267051071	2	1	NaN	1363257.1468566	NaN	1363258.1302313	1363258.64679617
18	18	0	0	90	36.1581920903955	36.241610738255	12	0.400038623996079	2	12	2	NaN	2	3	0.191111655185609	1	1	NaN	134	3	8	1	121	221	321	NaN	521	0.393020974472165	2	1	NaN	1363260.080366	NaN	1363261.0638826	1363261.58041313
18	18	0	0	90	36.1581920903955	36.241610738255	20	0.666731039993465	2	11	1	NaN	2	3	0.191111655185609	1	1	NaN	135	3	9	1	121	221	321	NaN	521	0.405025074491277	2	1	NaN	1363262.7807405	NaN	1363263.7641248	1363264.28068733
18	18	0	0	90	36.1581920903955	36.241610738255	11	0.366702071996406	2	9	4	NaN	2	5	0.191111655185609	1	1	NaN	136	3	10	1	121	221	321	NaN	521	1.41589112672955	2	1	NaN	1363265.4975412	NaN	1363266.4810705	1363266.99762637
18	18	0	0	90	36.1581920903955	36.241610738255	20	0.666731039993465	2	12	3	NaN	2	3	0.191111655185609	1	1	NaN	137	3	11	1	121	221	321	NaN	521	0.0103994747623801	2	1	NaN	1363269.2146986	NaN	1363270.1981214	1363270.71465633
18	18	0	0	90	36.1581920903955	36.241610738255	13	0.433375175995752	2	10	1	NaN	2	4	0.191111655185609	1	1	NaN	138	3	12	1	121	221	321	NaN	521	0.010437922552228	2	1	NaN	1363271.5482695	NaN	1363272.5317327	1363273.04821538
18	18	0	0	90	36.1581920903955	36.241610738255	22	0.733404143992811	2	8	3	NaN	2	3	0.191111655185609	1	1	NaN	139	3	13	1	121	221	321	NaN	521	0.0323836745228618	2	1	NaN	1363273.8651656	NaN	1363274.8485502	1363275.36511353
18	18	0	0	90	36.1581920903955	36.241610738255	19	0.633394487993792	2	6	3	NaN	1	5	0.191111655185609	1	1	NaN	140	3	14	1	121	221	321	NaN	521	0.0102692439686507	1	1	NaN	1363276.2153857	NaN	1363277.1987867	1363277.71534256
18	18	0	0	90	36.1581920903955	36.241610738255	12	0.400038623996079	2	7	2	NaN	2	4	0.191111655185609	1	1	NaN	141	3	15	1	121	221	321	NaN	521	0.0103938267566264	2	1	NaN	1363278.5323134	NaN	1363279.5156929	1363280.03223617
18	18	0	0	90	36.1581920903955	36.241610738255	6	0.200019311998039	2	11	4	NaN	2	3	0.191111655185609	1	1	NaN	142	3	16	1	121	221	321	NaN	521	0.551773326704279	2	1	NaN	1363280.865848	NaN	1363281.8492489	1363282.36579037
18	18	0	0	90	36.1581920903955	36.241610738255	9	0.300028967997059	2	6	5	NaN	1	3	0.191111655185609	1	1	NaN	143	3	17	1	121	221	321	NaN	521	1.10869523952715	1	1	NaN	1363283.7328036	NaN	1363284.7161816	1363285.23275616
18	18	0	0	90	36.1581920903955	36.241610738255	6	0.200019311998039	2	2	5	NaN	1	4	0.191111655185609	1	1	NaN	144	3	18	1	121	221	321	NaN	521	0.219856774667278	1	1	NaN	1363287.1498	NaN	1363288.1331978	1363288.64975163
18	18	0	0	90	36.1581920903955	36.241610738255	16	0.533384831994772	2	9	3	NaN	2	5	0.191111655185609	1	1	NaN	145	3	19	1	121	221	321	NaN	521	0.0104468227364123	2	1	NaN	1363289.6833706	NaN	1363290.6667776	1363291.18333668
18	18	0	0	90	36.1581920903955	36.241610738255	9	0.300028967997059	2	12	5	NaN	2	5	0.191111655185609	1	1	NaN	146	3	20	1	121	221	321	NaN	521	0.377462926786393	1	0	NaN	1363292.000144	NaN	1363292.9836833	1363293.50022897
18	18	0	0	90	36.1581920903955	36.241610738255	8	0.266692415997386	2	10	1	NaN	2	5	0.191111655185609	1	1	NaN	147	3	21	1	121	221	321	NaN	521	0.0104115747381002	2	1	NaN	1363294.6838733	NaN	1363295.6672544	1363296.18381863
18	18	0	0	90	36.1581920903955	36.241610738255	11	0.366702071996406	2	10	5	NaN	2	4	0.191111655185609	1	1	NaN	148	3	22	1	121	221	321	NaN	521	0.634333226829767	2	1	NaN	1363297.1673216	NaN	1363298.1508852	1363298.66739907
18	18	0	0	90	36.1581920903955	36.241610738255	24	0.800077247992158	2	11	3	NaN	2	5	0.191111655185609	1	1	NaN	149	3	23	1	121	221	321	NaN	521	0.0103907268494368	2	1	NaN	1363300.1177412	NaN	1363301.1011205	1363301.61769227
18	18	0	0	90	36.1581920903955	36.241610738255	25	0.833413799991831	2	4	3	NaN	1	5	0.191111655185609	1	1	NaN	150	3	24	1	121	221	321	NaN	521	1.67833267454989	1	1	NaN	1363302.4513179	NaN	1363303.4347065	1363303.95124913
18	18	0	0	90	36.1581920903955	36.241610738255	20	0.666731039993465	2	10	2	NaN	2	4	0.191111655185609	1	1	NaN	151	3	25	1	121	221	321	NaN	521	0.318679926916957	2	1	NaN	1363306.4350355	NaN	1363307.4184197	1363307.93497307
18	18	0	0	90	36.1581920903955	36.241610738255	17	0.566721383994445	2	3	1	NaN	1	5	0.191111655185609	1	1	NaN	152	3	26	1	121	221	321	NaN	521	0.117155026644468	1	1	NaN	1363309.0686163	NaN	1363310.0520225	1363310.56856257
18	18	0	0	90	36.1581920903955	36.241610738255	25	0.833413799991831	2	11	5	NaN	2	3	0.191111655185609	1	1	NaN	153	3	27	1	121	221	321	NaN	521	0.11549357464537	2	1	NaN	1363311.5021896	NaN	1363312.4855754	1363313.00213913
18	18	0	0	90	36.1581920903955	36.241610738255	19	0.633394487993792	2	8	1	NaN	2	3	0.191111655185609	1	1	NaN	154	3	28	1	121	221	321	NaN	521	0.0104112746194005	2	1	NaN	1363313.9357614	NaN	1363314.9191651	1363315.43571843
18	18	0	0	90	36.1581920903955	36.241610738255	12	0.400038623996079	2	3	1	NaN	1	4	0.191111655185609	1	1	NaN	155	3	29	1	121	221	321	NaN	521	0.0104087747167796	1	1	NaN	1363316.2526114	NaN	1363317.2360754	1363317.75260513
18	18	0	0	90	36.1581920903955	36.241610738255	10	0.333365519996732	2	12	1	NaN	2	4	0.191111655185609	1	1	NaN	156	3	30	1	121	221	321	NaN	521	0.816325026797131	2	1	NaN	1363318.5695652	NaN	1363319.5529514	1363320.06950997
18	18	0	0	90	36.1581920903955	36.241610738255	10	0.333365519996732	2	2	3	NaN	1	3	0.191111655185609	1	1	NaN	157	3	31	1	121	221	321	NaN	521	0.010394126875326	1	1	NaN	1363321.7030598	NaN	1363322.6865861	1363323.20314877
18	18	0	0	90	36.1581920903955	36.241610738255	25	0.833413799991831	2	1	2	NaN	1	5	0.191111655185609	1	1	NaN	158	3	32	1	121	221	321	NaN	521	0.125691322842613	1	1	NaN	1363324.0200461	NaN	1363325.0034894	1363325.52003478
18	18	0	0	90	36.1581920903955	36.241610738255	23	0.766740695992485	2	1	4	NaN	1	3	0.191111655185609	1	1	NaN	159	3	33	1	121	221	321	NaN	521	0.0104104746133089	1	1	NaN	1363326.4703344	NaN	1363327.4537621	1363327.97027743
18	18	0	0	90	36.1581920903955	36.241610738255	7	0.233355863997713	2	3	5	NaN	1	5	0.191111655185609	1	1	NaN	160	3	34	1	121	221	321	NaN	521	0.0103953268844634	1	1	NaN	1363328.7871352	NaN	1363329.7706134	1363330.28718077
18	18	0	0	90	36.1581920903955	36.241610738255	8	0.266692415997386	2	10	2	NaN	2	4	0.191111655185609	1	1	NaN	161	3	35	1	121	221	321	NaN	521	1.52977627888322	2	1	NaN	1363331.1041262	NaN	1363332.0875156	1363332.60407542
18	18	0	0	90	36.1581920903955	36.241610738255	7	0.233355863997713	2	5	2	NaN	1	5	0.191111655185609	1	1	NaN	162	3	36	1	121	221	321	NaN	521	0.0104104746133089	1	1	NaN	1363334.9544812	NaN	1363335.9378968	1363336.45444553
18	18	0	0	90	36.1581920903955	36.241610738255	7	0.233355863997713	2	8	5	NaN	2	3	0.191111655185609	1	1	NaN	163	3	37	1	121	221	321	NaN	521	0.0104106746148318	2	1	NaN	1363337.2880616	NaN	1363338.2714591	1363338.78800393
18	18	0	0	90	36.1581920903955	36.241610738255	22	0.733404143992811	2	10	6	NaN	2	3	0.191111655185609	1	1	NaN	164	3	38	1	121	221	321	NaN	521	0.4526781225577	2	1	NaN	1363339.6049369	NaN	1363340.5883512	1363341.10489898
18	18	0	0	90	36.1581920903955	36.241610738255	8	0.266692415997386	2	6	4	NaN	1	3	0.191111655185609	1	1	NaN	165	3	39	1	121	221	321	NaN	521	0.47013442683965	1	1	NaN	1363342.3718935	NaN	1363343.3552774	1363343.87183517
18	18	0	0	90	36.1581920903955	36.241610738255	19	0.633394487993792	2	11	3	NaN	2	4	0.191111655185609	1	1	NaN	166	3	40	1	121	221	321	NaN	521	2.21466409577988	2	1	NaN	1363345.1553848	NaN	1363346.1389448	1363346.6554596
18	18	0	0	90	36.1581920903955	36.241610738255	11	0.366702071996406	2	6	4	NaN	1	3	0.191111655185609	1	1	NaN	167	3	41	1	121	221	321	NaN	521	0.0104273746255785	1	1	NaN	1363349.6892803	NaN	1363350.672677	1363351.18922293
18	18	0	0	90	36.1581920903955	36.241610738255	17	0.566721383994445	2	6	6	NaN	1	5	0.191111655185609	1	1	NaN	168	3	42	1	121	221	321	NaN	521	0.0514685227535665	1	1	NaN	1363352.0061564	NaN	1363352.9895747	1363353.50611858
18	18	0	0	90	36.1581920903955	36.241610738255	12	0.400038623996079	2	9	1	NaN	2	3	0.191111655185609	1	1	NaN	169	3	43	1	121	221	321	NaN	521	1.68487542262301	1	0	NaN	1363354.3730727	NaN	1363355.3564957	1363355.87301448
18	18	0	0	90	36.1581920903955	36.241610738255	18	0.600057935994118	2	10	3	NaN	2	4	0.191111655185609	1	1	NaN	170	3	44	1	121	221	321	NaN	521	0.1806565746665	2	1	NaN	1363358.3734271	NaN	1363359.3568853	1363359.87341543
18	18	0	0	90	36.1581920903955	36.241610738255	14	0.466711727995425	2	8	5	NaN	2	5	0.191111655185609	1	1	NaN	171	3	45	1	121	221	321	NaN	521	0.0104077747091651	2	1	NaN	1363360.8735284	NaN	1363361.8571069	1363362.37366193
18	18	0	0	90	36.1581920903955	36.241610738255	0	0	1	4	5	NaN	1	4	0.191111655185609	1	1	NaN	172	3	46	1	111	211	311	NaN	511	0.706862174440175	2	0	NaN	1363363.2072682	NaN	1363364.1906758	1363364.70721653
18	18	0	0	90	36.1581920903955	36.241610738255	17	0.566721383994445	2	7	2	NaN	2	4	0.191111655185609	1	1	NaN	173	3	47	1	121	221	321	NaN	521	0.337757074506953	2	1	NaN	1363366.2242619	NaN	1363367.2076263	1363367.72418373
18	18	0	0	90	36.1581920903955	36.241610738255	12	0.400038623996079	2	12	3	NaN	2	5	0.191111655185609	1	1	NaN	174	3	48	1	121	221	321	NaN	521	0.111887991661206	2	1	NaN	1363369.0577217	NaN	1363370.041249	1363370.55780411
18	18	0	0	90	36.1581920903955	36.241610738255	12	0.400038623996079	2	11	2	NaN	2	3	0.191111655185609	1	1	NaN	175	3	49	1	121	221	321	NaN	521	0.486583274556324	2	1	NaN	1363371.4914271	NaN	1363372.4748148	1363372.99136633
18	18	0	0	90	36.1581920903955	36.241610738255	19	0.633394487993792	2	11	5	NaN	2	3	0.191111655185609	1	1	NaN	176	3	50	1	121	221	321	NaN	521	0.630210674600676	1	0	NaN	1363374.2916805	NaN	1363375.2751066	1363375.79164373
18	18	0	0	90	36.1581920903955	36.241610738255	14	0.466711727995425	2	2	6	NaN	1	4	0.191111655185609	1	1	NaN	177	3	51	1	121	221	321	NaN	521	0.480408274568617	2	0	NaN	1363377.2253435	NaN	1363378.2087127	1363378.72526923
18	18	0	0	90	36.1581920903955	36.241610738255	9	0.300028967997059	2	10	3	NaN	2	3	0.191111655185609	1	1	NaN	178	3	52	1	121	221	321	NaN	521	0.0104087747167796	2	1	NaN	1363380.0255947	NaN	1363381.0090182	1363381.52553653
18	18	0	0	90	36.1581920903955	36.241610738255	8	0.266692415997386	2	12	5	NaN	2	4	0.191111655185609	1	1	NaN	179	3	53	1	121	221	321	NaN	521	0.0103933266364038	1	0	NaN	1363382.3423473	NaN	1363383.3258823	1363383.84244437
18	18	0	0	90	36.1581920903955	36.241610738255	23	0.766740695992485	2	5	5	NaN	1	5	0.191111655185609	1	1	NaN	180	3	54	1	121	221	321	NaN	521	0.0104069747030735	1	1	NaN	1363384.6594704	NaN	1363385.6427741	1363386.15932473
18	18	0	0	90	36.1581920903955	36.241610738255	16	0.533384831994772	2	4	3	NaN	1	3	0.191111655185609	1	1	NaN	181	3	55	1	121	221	321	NaN	521	0.473352226894349	1	1	NaN	1363386.9762606	NaN	1363387.9596683	1363388.47622697
18	18	0	0	90	36.1581920903955	36.241610738255	10	0.333365519996732	2	3	2	NaN	1	4	0.191111655185609	1	1	NaN	182	3	56	1	121	221	321	NaN	521	0.209226674633101	1	1	NaN	1363389.7765616	NaN	1363390.7599542	1363391.27649513
18	18	0	0	90	36.1581920903955	36.241610738255	22	0.733404143992811	2	8	2	NaN	2	3	0.191111655185609	1	1	NaN	183	3	57	1	121	221	321	NaN	521	1.2443249267526	2	1	NaN	1363392.2933782	NaN	1363393.2768489	1363393.79341637
18	18	0	0	90	36.1581920903955	36.241610738255	11	0.366702071996406	2	5	5	NaN	1	5	0.191111655185609	1	1	NaN	184	3	58	1	121	221	321	NaN	521	0.5260199746117	1	1	NaN	1363395.8437374	NaN	1363396.8272351	1363397.34376553
18	18	0	0	90	36.1581920903955	36.241610738255	25	0.833413799991831	2	11	1	NaN	2	4	0.191111655185609	1	1	NaN	185	3	59	1	121	221	321	NaN	521	1.29230257472955	2	1	NaN	1363398.6774251	NaN	1363399.6608072	1363400.17736823
18	18	0	0	90	36.1581920903955	36.241610738255	23	0.766740695992485	2	7	1	NaN	2	5	0.191111655185609	1	1	NaN	186	3	60	1	121	221	321	NaN	521	1.65201947465539	2	1	NaN	1363402.2777808	NaN	1363403.2611803	1363403.77772313
18	18	0	0	90	36.1581920903955	36.241610738255	22	0.733404143992811	2	2	4	NaN	1	4	0.191111655185609	1	1	NaN	187	3	61	1	121	221	321	NaN	521	1.12500037462451	1	1	NaN	1363406.2448436	NaN	1363407.2282341	1363407.74478343
18	18	0	0	90	36.1581920903955	36.241610738255	25	0.833413799991831	2	8	6	NaN	2	5	0.191111655185609	1	1	NaN	188	3	62	1	121	221	321	NaN	521	0.0104078748263419	2	1	NaN	1363409.6785332	NaN	1363410.6619062	1363411.17845233
18	18	0	0	90	36.1581920903955	36.241610738255	6	0.200019311998039	2	4	2	NaN	1	3	0.191111655185609	1	1	NaN	189	3	63	1	121	221	321	NaN	521	0.109070626785979	1	1	NaN	1363412.0284221	NaN	1363413.0121437	1363413.52868857
18	18	0	0	90	36.1581920903955	36.241610738255	22	0.733404143992811	2	3	2	NaN	1	5	0.191111655185609	1	1	NaN	190	4	1	1	121	221	321	NaN	521	1.03338472684845	1	1	NaN	1363436.4644582	NaN	1363437.4478662	1363437.96442487
18	18	0	0	90	36.1581920903955	36.241610738255	18	0.600057935994118	2	1	6	NaN	1	4	0.191111655185609	1	1	NaN	191	4	2	1	121	221	321	NaN	521	0.362822926836088	1	1	NaN	1363439.814809	NaN	1363440.7982212	1363441.31475597
18	18	0	0	90	36.1581920903955	36.241610738255	7	0.233355863997713	2	4	1	NaN	1	3	0.191111655185609	1	1	NaN	192	4	3	1	121	221	321	NaN	521	0.0103975266683847	1	1	NaN	1363442.4984187	NaN	1363443.4817903	1363443.99835297
18	18	0	0	90	36.1581920903955	36.241610738255	18	0.600057935994118	2	5	3	NaN	1	4	0.191111655185609	1	1	NaN	193	4	4	1	121	221	321	NaN	521	0.0104208746924996	1	1	NaN	1363444.8153133	NaN	1363445.7986889	1363446.31524083
18	18	0	0	90	36.1581920903955	36.241610738255	10	0.333365519996732	2	5	5	NaN	1	5	0.191111655185609	1	1	NaN	194	4	5	1	121	221	321	NaN	521	0.0104113745037466	1	1	NaN	1363447.1320643	NaN	1363448.1155751	1363448.63214153
18	18	0	0	90	36.1581920903955	36.241610738255	7	0.233355863997713	2	6	5	NaN	1	4	0.191111655185609	1	1	NaN	195	4	6	1	121	221	321	NaN	521	0.0104056745767593	1	1	NaN	1363449.4657975	NaN	1363450.4491425	1363450.96569283
18	18	0	0	90	36.1581920903955	36.241610738255	12	0.400038623996079	2	8	4	NaN	2	3	0.191111655185609	1	1	NaN	196	4	7	1	121	221	321	NaN	521	0.0265707748476416	2	1	NaN	1363451.7993426	NaN	1363452.7827722	1363453.29925933
18	18	0	0	90	36.1581920903955	36.241610738255	21	0.700067591993138	2	2	3	NaN	1	5	0.191111655185609	1	1	NaN	197	4	8	1	121	221	321	NaN	521	0.700326070655137	1	1	NaN	1363454.1495332	NaN	1363455.13295	1363455.64949253
18	18	0	0	90	36.1581920903955	36.241610738255	14	0.466711727995425	2	1	1	NaN	1	4	0.191111655185609	1	1	NaN	198	4	9	1	121	221	321	NaN	521	0.459740370512009	1	1	NaN	1363457.1665034	NaN	1363458.149905	1363458.66646023
18	18	0	0	90	36.1581920903955	36.241610738255	17	0.566721383994445	2	12	6	NaN	2	4	0.191111655185609	1	1	NaN	199	4	10	1	121	221	321	NaN	521	0.0103942269925028	2	1	NaN	1363459.9334765	NaN	1363460.9168436	1363461.43340147
18	18	0	0	90	36.1581920903955	36.241610738255	18	0.600057935994118	2	9	3	NaN	2	3	0.191111655185609	1	1	NaN	200	4	11	1	121	221	321	NaN	521	0.0104159745387733	2	1	NaN	1363462.6670233	NaN	1363463.6504444	1363464.16700053
18	18	0	0	90	36.1581920903955	36.241610738255	22	0.733404143992811	2	3	2	NaN	1	5	0.191111655185609	1	1	NaN	201	4	12	1	121	221	321	NaN	521	0.23355837049894	1	1	NaN	1363465.000615	NaN	1363465.9840082	1363466.50055473
18	18	0	0	90	36.1581920903955	36.241610738255	7	0.233355863997713	2	4	2	NaN	1	5	0.191111655185609	1	1	NaN	202	4	13	1	121	221	321	NaN	521	0.123296426609159	1	1	NaN	1363467.550864	NaN	1363468.5342496	1363469.05081327
18	18	0	0	90	36.1581920903955	36.241610738255	19	0.633394487993792	2	1	6	NaN	1	4	0.191111655185609	1	1	NaN	203	4	14	1	121	221	321	NaN	521	0.409255726728588	1	1	NaN	1363469.9844014	NaN	1363470.9678761	1363471.48438907
18	18	0	0	90	36.1581920903955	36.241610738255	16	0.533384831994772	2	12	2	NaN	2	4	0.191111655185609	1	1	NaN	204	4	15	1	121	221	321	NaN	521	0.323733774712309	2	1	NaN	1363472.7180427	NaN	1363473.7014233	1363474.21798553
18	18	0	0	90	36.1581920903955	36.241610738255	21	0.700067591993138	2	9	2	NaN	2	4	0.191111655185609	1	1	NaN	205	4	16	1	121	221	321	NaN	521	0.250544526847079	2	1	NaN	1363475.3516236	NaN	1363476.3350252	1363476.85158337
18	18	0	0	90	36.1581920903955	36.241610738255	19	0.633394487993792	2	1	6	NaN	1	3	0.191111655185609	1	1	NaN	206	4	17	1	121	221	321	NaN	521	0.0934877747204155	1	1	NaN	1363478.2685972	NaN	1363479.2519763	1363479.76853073
18	18	0	0	90	36.1581920903955	36.241610738255	12	0.400038623996079	2	4	5	NaN	1	5	0.191111655185609	1	1	NaN	207	4	18	1	121	221	321	NaN	521	0.0104167747776955	1	1	NaN	1363480.6688213	NaN	1363481.652213	1363482.16875973
18	18	0	0	90	36.1581920903955	36.241610738255	20	0.666731039993465	2	6	2	NaN	1	4	0.191111655185609	1	1	NaN	208	4	19	1	121	221	321	NaN	521	0.0104066745843738	1	1	NaN	1363483.0023826	NaN	1363483.9857795	1363484.50233333
18	18	0	0	90	36.1581920903955	36.241610738255	20	0.666731039993465	2	4	5	NaN	1	4	0.191111655185609	1	1	NaN	209	4	20	1	121	221	321	NaN	521	0.417941174702719	1	1	NaN	1363485.3358219	NaN	1363486.3193801	1363486.83588583
18	18	0	0	90	36.1581920903955	36.241610738255	0	0	1	1	4	NaN	1	5	0.191111655185609	1	1	NaN	210	4	21	1	111	211	311	NaN	511	0.404504274716601	1	1	NaN	1363488.06956	NaN	1363489.0529689	1363489.56951943
18	18	0	0	90	36.1581920903955	36.241610738255	23	0.766740695992485	2	2	2	NaN	1	5	0.191111655185609	1	1	NaN	211	4	22	1	121	221	321	NaN	521	0.375364526873454	1	1	NaN	1363490.7865103	NaN	1363491.7698723	1363492.28644827
18	18	0	0	90	36.1581920903955	36.241610738255	6	0.200019311998039	2	2	6	NaN	1	3	0.191111655185609	1	1	NaN	212	4	23	1	121	221	321	NaN	521	0.38784199161455	1	1	NaN	1363493.4700771	NaN	1363494.4534644	1363494.97002111
18	18	0	0	90	36.1581920903955	36.241610738255	0	0	1	7	4	NaN	2	3	0.191111655185609	1	1	NaN	213	4	24	1	111	211	311	NaN	511	0.0556726746726781	2	1	NaN	1363496.1703387	NaN	1363497.1537448	1363497.67028383
18	18	0	0	90	36.1581920903955	36.241610738255	24	0.800077247992158	2	12	3	NaN	2	5	0.191111655185609	1	1	NaN	214	4	25	1	121	221	321	NaN	521	0.176922626793385	2	1	NaN	1363498.5371044	NaN	1363499.5206457	1363500.03719137
18	18	0	0	90	36.1581920903955	36.241610738255	6	0.200019311998039	2	10	6	NaN	2	5	0.191111655185609	1	1	NaN	215	4	26	1	121	221	321	NaN	521	0.349443170474842	2	1	NaN	1363501.0208219	NaN	1363502.0042491	1363502.52075773
18	18	0	0	90	36.1581920903955	36.241610738255	10	0.333365519996732	2	8	4	NaN	2	3	0.191111655185609	1	1	NaN	216	4	27	1	121	221	321	NaN	521	0.346084774471819	2	1	NaN	1363503.6877296	NaN	1363504.6711349	1363505.18768943
18	18	0	0	90	36.1581920903955	36.241610738255	11	0.366702071996406	2	4	4	NaN	1	5	0.191111655185609	1	1	NaN	217	4	28	1	121	221	321	NaN	521	0.631093974458054	1	1	NaN	1363506.3547041	NaN	1363507.3380791	1363507.85462833
18	18	0	0	90	36.1581920903955	36.241610738255	14	0.466711727995425	2	10	1	NaN	2	3	0.191111655185609	1	1	NaN	218	4	29	1	121	221	321	NaN	521	0.457363774534315	2	1	NaN	1363509.3049701	NaN	1363510.2883362	1363510.80491603
18	18	0	0	90	36.1581920903955	36.241610738255	10	0.333365519996732	2	6	6	NaN	1	3	0.191111655185609	1	1	NaN	219	4	30	1	121	221	321	NaN	521	0.32899122685194	1	1	NaN	1363512.3052665	NaN	1363513.2886597	1363513.80520787
18	18	0	0	90	36.1581920903955	36.241610738255	13	0.433375175995752	2	6	4	NaN	1	4	0.191111655185609	1	1	NaN	220	4	31	1	121	221	321	NaN	521	0.430771474726498	1	1	NaN	1363514.955394	NaN	1363515.9389076	1363516.45546313
18	18	0	0	90	36.1581920903955	36.241610738255	18	0.600057935994118	2	6	4	NaN	1	4	0.191111655185609	1	1	NaN	221	4	32	1	121	221	321	NaN	521	1.17678202269599	2	0	NaN	1363517.6890421	NaN	1363518.6725031	1363519.18906608
18	18	0	0	90	36.1581920903955	36.241610738255	23	0.766740695992485	2	6	1	NaN	1	4	0.191111655185609	1	1	NaN	222	4	33	1	121	221	321	NaN	521	0.0104147747624665	1	1	NaN	1363521.1894722	NaN	1363522.17286	1363522.68941043
18	18	0	0	90	36.1581920903955	36.241610738255	22	0.733404143992811	2	10	1	NaN	2	5	0.191111655185609	1	1	NaN	223	4	34	1	121	221	321	NaN	521	0.0102371000684798	2	1	NaN	1363523.5063395	NaN	1363524.489762	1363525.0063204
18	18	0	0	90	36.1581920903955	36.241610738255	8	0.266692415997386	2	11	6	NaN	2	5	0.191111655185609	1	1	NaN	224	4	35	1	121	221	321	NaN	521	0.370043474482372	2	1	NaN	1363525.8399341	NaN	1363526.8233423	1363527.33987123
18	18	0	0	90	36.1581920903955	36.241610738255	21	0.700067591993138	2	11	1	NaN	2	4	0.191111655185609	1	1	NaN	225	4	36	1	121	221	321	NaN	521	0.59829347464256	2	1	NaN	1363528.5234916	NaN	1363529.5069071	1363530.02346673
18	18	0	0	90	36.1581920903955	36.241610738255	23	0.766740695992485	2	5	4	NaN	1	5	0.191111655185609	1	1	NaN	226	4	37	1	121	221	321	NaN	521	0.161351074464619	1	1	NaN	1363531.4404666	NaN	1363532.4238667	1363532.94041603
18	18	0	0	90	36.1581920903955	36.241610738255	16	0.533384831994772	2	2	1	NaN	1	3	0.191111655185609	1	1	NaN	227	4	38	1	121	221	321	NaN	521	0.0104087747167796	1	1	NaN	1363533.9072533	NaN	1363534.8907898	1363535.40732413
18	18	0	0	90	36.1581920903955	36.241610738255	9	0.300028967997059	2	7	5	NaN	2	3	0.191111655185609	1	1	NaN	228	4	39	1	121	221	321	NaN	521	1.08959187893197	2	1	NaN	1363536.2241689	NaN	1363537.2076748	1363537.72422392
18	18	0	0	90	36.1581920903955	36.241610738255	24	0.800077247992158	2	5	3	NaN	1	4	0.191111655185609	1	1	NaN	229	4	40	1	121	221	321	NaN	521	0.377646674634889	1	1	NaN	1363539.6244881	NaN	1363540.608011	1363541.12455283
18	18	0	0	90	36.1581920903955	36.241610738255	21	0.700067591993138	2	1	1	NaN	1	4	0.191111655185609	1	1	NaN	230	4	41	1	121	221	321	NaN	521	0.141177943674847	1	1	NaN	1363542.3248768	NaN	1363543.3082672	1363543.82482996
18	18	0	0	90	36.1581920903955	36.241610738255	11	0.366702071996406	2	10	2	NaN	2	5	0.191111655185609	1	1	NaN	231	4	42	1	121	221	321	NaN	521	0.0103951268829405	2	1	NaN	1363544.775004	NaN	1363545.7585424	1363546.27507097
18	18	0	0	90	36.1581920903955	36.241610738255	21	0.700067591993138	2	1	2	NaN	1	5	0.191111655185609	1	1	NaN	232	4	43	1	121	221	321	NaN	521	0.166272926842794	1	1	NaN	1363547.0919004	NaN	1363548.0754015	1363548.59195947
18	18	0	0	90	36.1581920903955	36.241610738255	22	0.733404143992811	2	4	1	NaN	1	4	0.191111655185609	1	1	NaN	233	4	44	1	121	221	321	NaN	521	0.010418574558571	1	1	NaN	1363549.575547	NaN	1363550.5589909	1363551.07553203
18	18	0	0	90	36.1581920903955	36.241610738255	21	0.700067591993138	2	7	5	NaN	2	4	0.191111655185609	1	1	NaN	234	4	45	1	121	221	321	NaN	521	1.09347792668268	2	1	NaN	1363551.8923524	NaN	1363552.8758739	1363553.39243457
18	18	0	0	90	36.1581920903955	36.241610738255	20	0.666731039993465	2	9	6	NaN	2	5	0.191111655185609	1	1	NaN	235	4	46	1	121	221	321	NaN	521	0.0104100746102631	2	1	NaN	1363555.3093714	NaN	1363556.2928809	1363556.80942513
18	18	0	0	90	36.1581920903955	36.241610738255	10	0.333365519996732	2	11	1	NaN	2	5	0.191111655185609	1	1	NaN	236	4	47	1	121	221	321	NaN	521	0.0104055267293006	2	1	NaN	1363557.6263751	NaN	1363558.6097674	1363559.12632967
18	18	0	0	90	36.1581920903955	36.241610738255	19	0.633394487993792	2	9	4	NaN	2	3	0.191111655185609	1	1	NaN	237	4	48	1	121	221	321	NaN	521	0.114645074820146	2	1	NaN	1363559.9432798	NaN	1363560.9266622	1363561.44322033
18	18	0	0	90	36.1581920903955	36.241610738255	19	0.633394487993792	2	2	1	NaN	1	5	0.191111655185609	1	1	NaN	238	4	49	1	121	221	321	NaN	521	0.385308174649253	1	1	NaN	1363562.3768496	NaN	1363563.3602413	1363563.87678783
18	18	0	0	90	36.1581920903955	36.241610738255	15	0.500048279995099	2	6	5	NaN	1	4	0.191111655185609	1	1	NaN	239	4	50	1	121	221	321	NaN	521	0.0104063746985048	1	1	NaN	1363565.0604274	NaN	1363566.043841	1363566.56039213
18	18	0	0	90	36.1581920903955	36.241610738255	6	0.200019311998039	2	7	3	NaN	2	4	0.191111655185609	1	1	NaN	240	4	51	1	121	221	321	NaN	521	0.135765314102173	2	1	NaN	1363567.3938987	NaN	1363568.3773999	1363568.89395089
18	18	0	0	90	36.1581920903955	36.241610738255	6	0.200019311998039	2	1	4	NaN	1	5	0.191111655185609	1	1	NaN	241	4	52	1	121	221	321	NaN	521	0.0103879789821804	2	0	NaN	1363569.8442514	NaN	1363570.8276743	1363571.34420092
18	18	0	0	90	36.1581920903955	36.241610738255	21	0.700067591993138	2	5	5	NaN	1	3	0.191111655185609	1	1	NaN	242	4	53	1	121	221	321	NaN	521	1.36819763109088	1	1	NaN	1363572.177811	NaN	1363573.1611925	1363573.67776397
18	18	0	0	90	36.1581920903955	36.241610738255	21	0.700067591993138	2	6	2	NaN	1	5	0.191111655185609	1	1	NaN	243	4	54	1	121	221	321	NaN	521	0.0526971747167408	1	1	NaN	1363575.8615116	NaN	1363576.8449158	1363577.36144803
18	18	0	0	90	36.1581920903955	36.241610738255	18	0.600057935994118	2	6	4	NaN	1	5	0.191111655185609	1	1	NaN	244	4	55	1	121	221	321	NaN	521	0.453599422704428	1	1	NaN	1363578.2284007	NaN	1363579.2118146	1363579.72834488
18	18	0	0	90	36.1581920903955	36.241610738255	17	0.566721383994445	2	11	4	NaN	2	3	0.191111655185609	1	1	NaN	245	4	56	1	121	221	321	NaN	521	1.20673377462663	1	0	NaN	1363580.9952229	NaN	1363581.9787738	1363582.49528463
18	18	0	0	90	36.1581920903955	36.241610738255	16	0.533384831994772	2	11	4	NaN	2	5	0.191111655185609	1	1	NaN	246	4	57	1	121	221	321	NaN	521	0.73788967449218	2	1	NaN	1363584.5122333	NaN	1363585.4957509	1363586.01230223
18	18	0	0	90	36.1581920903955	36.241610738255	10	0.333365519996732	2	4	3	NaN	1	4	0.191111655185609	1	1	NaN	247	4	58	1	121	221	321	NaN	521	0.0104087747167796	1	1	NaN	1363587.5626371	NaN	1363588.5460521	1363589.06259493
18	18	0	0	90	36.1581920903955	36.241610738255	13	0.433375175995752	2	11	1	NaN	2	5	0.191111655185609	1	1	NaN	248	4	59	1	121	221	321	NaN	521	0.0104148746468127	2	1	NaN	1363589.8795851	NaN	1363590.8629518	1363591.37949753
18	18	0	0	90	36.1581920903955	36.241610738255	0	0	1	5	3	NaN	1	3	0.191111655185609	1	1	NaN	249	4	60	1	111	211	311	NaN	511	0.261223974637687	1	1	NaN	1363592.2131228	NaN	1363593.1966061	1363593.71305013
18	18	0	0	90	36.1581920903955	36.241610738255	8	0.266692415997386	2	3	6	NaN	1	4	0.191111655185609	1	1	NaN	250	4	61	1	121	221	321	NaN	521	0.0104141747578979	1	1	NaN	1363594.7966926	NaN	1363595.7800841	1363596.29664583
18	18	0	0	90	36.1581920903955	36.241610738255	10	0.333365519996732	2	10	4	NaN	2	5	0.191111655185609	1	1	NaN	251	4	62	1	121	221	321	NaN	521	0.344785974593833	2	1	NaN	1363597.1135037	NaN	1363598.0969947	1363598.61353263
18	18	0	0	90	36.1581920903955	36.241610738255	18	0.600057935994118	2	3	1	NaN	1	4	0.191111655185609	1	1	NaN	252	4	63	1	121	221	321	NaN	521	0.174187674652785	1	1	NaN	1363599.7638645	NaN	1363600.7472487	1363601.26379473
18	18	0	0	90	36.1581920903955	36.241610738255	19	0.633394487993792	2	4	1	NaN	1	4	0.191111655185609	1	1	NaN	253	5	1	1	121	221	321	NaN	521	0.886877835262567	1	1	NaN	1363624.682964	NaN	1363625.666352	1363626.18291666
18	18	0	0	90	36.1581920903955	36.241610738255	6	0.200019311998039	2	3	2	NaN	1	3	0.191111655185609	1	1	NaN	254	5	2	1	121	221	321	NaN	521	0.511095926864073	1	1	NaN	1363627.883291	NaN	1363628.8666847	1363629.38323567
18	18	0	0	90	36.1581920903955	36.241610738255	18	0.600057935994118	2	8	2	NaN	2	5	0.191111655185609	1	1	NaN	255	5	3	1	121	221	321	NaN	521	0.0539143269415945	2	1	NaN	1363630.7002676	NaN	1363631.6836016	1363632.20017497
18	18	0	0	90	36.1581920903955	36.241610738255	10	0.333365519996732	2	4	4	NaN	1	5	0.191111655185609	1	1	NaN	256	5	4	1	121	221	321	NaN	521	0.310996774584055	1	1	NaN	1363633.06713	NaN	1363634.0505329	1363634.56706503
18	18	0	0	90	36.1581920903955	36.241610738255	7	0.233355863997713	2	12	6	NaN	2	3	0.191111655185609	1	1	NaN	257	5	5	1	121	221	321	NaN	521	0.0104966748040169	2	1	NaN	1363635.684048	NaN	1363636.667446	1363637.18399983
18	18	0	0	90	36.1581920903955	36.241610738255	16	0.533384831994772	2	10	6	NaN	2	4	0.191111655185609	1	1	NaN	258	5	6	1	121	221	321	NaN	521	0.400602874578908	2	1	NaN	1363638.0176107	NaN	1363639.0010144	1363639.51756213
18	18	0	0	90	36.1581920903955	36.241610738255	0	0	1	10	5	NaN	2	3	0.191111655185609	1	1	NaN	259	5	7	1	111	211	311	NaN	511	0.347441274672747	2	1	NaN	1363640.7345543	NaN	1363641.717974	1363642.23449323
18	18	0	0	90	36.1581920903955	36.241610738255	7	0.233355863997713	2	1	1	NaN	1	5	0.191111655185609	1	1	NaN	260	5	8	1	121	221	321	NaN	521	0.313296826789156	1	1	NaN	1363643.3846755	NaN	1363644.368206	1363644.88475757
18	18	0	0	90	36.1581920903955	36.241610738255	16	0.533384831994772	2	1	3	NaN	1	4	0.191111655185609	1	1	NaN	261	5	9	1	121	221	321	NaN	521	0.495582074625418	1	1	NaN	1363646.0184186	NaN	1363647.0017855	1363647.51834023
18	18	0	0	90	36.1581920903955	36.241610738255	23	0.766740695992485	2	12	2	NaN	2	4	0.191111655185609	1	1	NaN	262	5	10	1	121	221	321	NaN	521	0.0104168746620417	2	1	NaN	1363648.818571	NaN	1363649.8020804	1363650.31861433
18	18	0	0	90	36.1581920903955	36.241610738255	17	0.566721383994445	2	9	6	NaN	2	5	0.191111655185609	1	1	NaN	263	5	11	1	121	221	321	NaN	521	0.306159970583394	2	1	NaN	1363651.1522507	NaN	1363652.1356274	1363652.65218503
18	18	0	0	90	36.1581920903955	36.241610738255	20	0.666731039993465	2	2	2	NaN	1	3	0.191111655185609	1	1	NaN	264	5	12	1	121	221	321	NaN	521	0.43298422684893	1	1	NaN	1363653.7691637	NaN	1363654.7525564	1363655.26910697
18	18	0	0	90	36.1581920903955	36.241610738255	12	0.400038623996079	2	5	3	NaN	1	4	0.191111655185609	1	1	NaN	265	5	13	1	121	221	321	NaN	521	0.0187306394800544	1	1	NaN	1363656.5192903	NaN	1363657.502818	1363658.01937436
18	18	0	0	90	36.1581920903955	36.241610738255	23	0.766740695992485	2	2	1	NaN	1	3	0.191111655185609	1	1	NaN	266	5	14	1	121	221	321	NaN	521	0.765048326924443	1	1	NaN	1363658.8530084	NaN	1363659.8363899	1363660.35294457
18	18	0	0	90	36.1581920903955	36.241610738255	14	0.466711727995425	2	9	3	NaN	2	3	0.191111655185609	1	1	NaN	267	5	15	1	121	221	321	NaN	521	0.0104086745996028	2	1	NaN	1363661.9366188	NaN	1363662.9200774	1363663.43656993
18	18	0	0	90	36.1581920903955	36.241610738255	11	0.366702071996406	2	11	6	NaN	2	4	0.191111655185609	1	1	NaN	268	5	16	1	121	221	321	NaN	521	1.4037523267325	2	1	NaN	1363664.2702051	NaN	1363665.25359	1363665.77014387
18	18	0	0	90	36.1581920903955	36.241610738255	14	0.466711727995425	2	10	5	NaN	2	5	0.191111655185609	1	1	NaN	269	5	17	1	121	221	321	NaN	521	0.0710096268448979	2	1	NaN	1363667.9872146	NaN	1363668.9706099	1363669.48716827
18	18	0	0	90	36.1581920903955	36.241610738255	14	0.466711727995425	2	5	5	NaN	1	4	0.191111655185609	1	1	NaN	270	5	18	1	121	221	321	NaN	521	0.0103973268996924	1	1	NaN	1363670.370661	NaN	1363671.3541763	1363671.87074137
18	18	0	0	90	36.1581920903955	36.241610738255	0	0	1	10	4	NaN	2	4	0.191111655185609	1	1	NaN	271	5	19	1	111	211	311	NaN	511	0.930437274742872	2	1	NaN	1363672.6875653	NaN	1363673.6710724	1363674.18763193
18	18	0	0	90	36.1581920903955	36.241610738255	12	0.400038623996079	2	2	5	NaN	1	3	0.191111655185609	1	1	NaN	272	5	20	1	121	221	321	NaN	521	0.376146026654169	1	1	NaN	1363675.9378701	NaN	1363676.9213991	1363677.43795527
18	18	0	0	90	36.1581920903955	36.241610738255	19	0.633394487993792	2	6	3	NaN	1	5	0.191111655185609	1	1	NaN	273	5	21	1	121	221	321	NaN	521	0.0845944790635258	1	1	NaN	1363678.6214713	NaN	1363679.604989	1363680.12155502
18	18	0	0	90	36.1581920903955	36.241610738255	21	0.700067591993138	2	12	1	NaN	2	3	0.191111655185609	1	1	NaN	274	5	22	1	121	221	321	NaN	521	1.35665542678908	2	1	NaN	1363681.021832	NaN	1363682.005236	1363682.52178287
18	18	0	0	90	36.1581920903955	36.241610738255	6	0.200019311998039	2	8	1	NaN	2	4	0.191111655185609	1	1	NaN	275	5	23	1	121	221	321	NaN	521	0.329231639625505	2	1	NaN	1363684.6887462	NaN	1363685.6722534	1363686.18881756
18	18	0	0	90	36.1581920903955	36.241610738255	25	0.833413799991831	2	2	3	NaN	1	3	0.191111655185609	1	1	NaN	276	5	24	1	121	221	321	NaN	521	0.0471619917079806	1	1	NaN	1363687.3391101	NaN	1363688.3225539	1363688.83906941
18	18	0	0	90	36.1581920903955	36.241610738255	16	0.533384831994772	2	3	4	NaN	1	5	0.191111655185609	1	1	NaN	277	5	25	1	121	221	321	NaN	521	0.0104032747913152	1	1	NaN	1363689.706003	NaN	1363690.6894123	1363691.20596853
18	18	0	0	90	36.1581920903955	36.241610738255	14	0.466711727995425	2	3	4	NaN	1	4	0.191111655185609	1	1	NaN	278	5	26	1	121	221	321	NaN	521	0.163331474643201	1	1	NaN	1363692.0229092	NaN	1363693.0063228	1363693.52285803
18	18	0	0	90	36.1581920903955	36.241610738255	24	0.800077247992158	2	1	1	NaN	1	5	0.191111655185609	1	1	NaN	279	5	27	1	121	221	321	NaN	521	0.535822574747726	1	1	NaN	1363694.5064275	NaN	1363695.4897999	1363696.00643543
18	18	0	0	90	36.1581920903955	36.241610738255	11	0.366702071996406	2	7	3	NaN	2	4	0.191111655185609	1	1	NaN	280	5	28	1	121	221	321	NaN	521	0.0456038268748671	2	1	NaN	1363697.3566413	NaN	1363698.340219	1363698.85672507
18	18	0	0	90	36.1581920903955	36.241610738255	16	0.533384831994772	2	5	5	NaN	1	3	0.191111655185609	1	1	NaN	281	5	29	1	121	221	321	NaN	521	0.422860474791378	1	1	NaN	1363699.7236821	NaN	1363700.7070541	1363701.22361393
18	18	0	0	90	36.1581920903955	36.241610738255	15	0.500048279995099	2	5	1	NaN	1	3	0.191111655185609	1	1	NaN	282	5	30	1	121	221	321	NaN	521	0.0104043746832758	1	1	NaN	1363702.457257	NaN	1363703.440675	1363703.95722453
18	18	0	0	90	36.1581920903955	36.241610738255	14	0.466711727995425	2	3	4	NaN	1	4	0.191111655185609	1	1	NaN	283	5	31	1	121	221	321	NaN	521	0.748017326695845	1	1	NaN	1363704.7741755	NaN	1363705.7575661	1363706.27411907
18	18	0	0	90	36.1581920903955	36.241610738255	14	0.466711727995425	2	8	2	NaN	2	4	0.191111655185609	1	1	NaN	284	5	32	1	121	221	321	NaN	521	0.010395827004686	2	1	NaN	1363707.841118	NaN	1363708.8245326	1363709.34108987
18	18	0	0	90	36.1581920903955	36.241610738255	22	0.733404143992811	2	7	2	NaN	2	4	0.191111655185609	1	1	NaN	285	5	33	1	121	221	321	NaN	521	0.0104062268510461	2	1	NaN	1363710.1580269	NaN	1363711.1414275	1363711.65797977
18	18	0	0	90	36.1581920903955	36.241610738255	11	0.366702071996406	2	12	6	NaN	2	5	0.191111655185609	1	1	NaN	286	5	34	1	121	221	321	NaN	521	0.263475274667144	2	1	NaN	1363712.4750163	NaN	1363713.4583248	1363713.97486583
18	18	0	0	90	36.1581920903955	36.241610738255	8	0.266692415997386	2	5	2	NaN	1	5	0.191111655185609	1	1	NaN	287	5	35	1	121	221	321	NaN	521	0.2967372268904	1	1	NaN	1363715.0418402	NaN	1363716.025279	1363716.54179767
18	18	0	0	90	36.1581920903955	36.241610738255	23	0.766740695992485	2	8	6	NaN	2	3	0.191111655185609	1	1	NaN	288	5	36	1	121	221	321	NaN	521	0.271746126934886	2	1	NaN	1363717.6586303	NaN	1363718.6421652	1363719.15871677
18	18	0	0	90	36.1581920903955	36.241610738255	13	0.433375175995752	2	1	4	NaN	1	4	0.191111655185609	1	1	NaN	289	5	37	1	121	221	321	NaN	521	0.487889674725011	1	1	NaN	1363720.2423478	NaN	1363721.225745	1363721.74230233
18	18	0	0	90	36.1581920903955	36.241610738255	6	0.200019311998039	2	7	1	NaN	2	5	0.191111655185609	1	1	NaN	290	5	38	1	121	221	321	NaN	521	0.335597574710846	2	1	NaN	1363723.042614	NaN	1363724.026052	1363724.54256993
18	18	0	0	90	36.1581920903955	36.241610738255	6	0.200019311998039	2	5	2	NaN	1	3	0.191111655185609	1	1	NaN	291	5	39	1	121	221	321	NaN	521	0.477393274661154	1	1	NaN	1363725.6929298	NaN	1363726.6762912	1363727.19283533
18	18	0	0	90	36.1581920903955	36.241610738255	11	0.366702071996406	2	2	4	NaN	1	4	0.191111655185609	1	1	NaN	292	5	40	1	121	221	321	NaN	521	0.509856674587354	1	1	NaN	1363728.4764148	NaN	1363729.4597983	1363729.97643953
18	18	0	0	90	36.1581920903955	36.241610738255	11	0.366702071996406	2	12	3	NaN	2	4	0.191111655185609	1	1	NaN	293	5	41	1	121	221	321	NaN	521	0.0103904267307371	2	1	NaN	1363731.3099363	NaN	1363732.2934896	1363732.81004867
18	18	0	0	90	36.1581920903955	36.241610738255	14	0.466711727995425	2	11	2	NaN	2	3	0.191111655185609	1	1	NaN	294	5	42	1	121	221	321	NaN	521	1.35885877464898	2	1	NaN	1363733.6436679	NaN	1363734.6270704	1363735.14361963
18	18	0	0	90	36.1581920903955	36.241610738255	13	0.433375175995752	2	12	4	NaN	2	4	0.191111655185609	1	1	NaN	295	5	43	1	121	221	321	NaN	521	0.395493674557656	2	1	NaN	1363737.3106887	NaN	1363738.2940961	1363738.81064683
18	18	0	0	90	36.1581920903955	36.241610738255	24	0.800077247992158	2	9	1	NaN	2	4	0.191111655185609	1	1	NaN	296	5	44	1	121	221	321	NaN	521	0.0104334228672087	2	1	NaN	1363740.0109575	NaN	1363740.9943652	1363741.51090188
18	18	0	0	90	36.1581920903955	36.241610738255	18	0.600057935994118	2	12	4	NaN	2	4	0.191111655185609	1	1	NaN	297	5	45	1	121	221	321	NaN	521	0.83452617470175	2	1	NaN	1363742.327858	NaN	1363743.3112385	1363743.82780293
18	18	0	0	90	36.1581920903955	36.241610738255	18	0.600057935994118	2	2	5	NaN	1	3	0.191111655185609	1	1	NaN	298	5	46	1	121	221	321	NaN	521	0.0104087747167796	1	1	NaN	1363745.4781742	NaN	1363746.4614527	1363746.97810873
18	18	0	0	90	36.1581920903955	36.241610738255	13	0.433375175995752	2	7	2	NaN	2	4	0.191111655185609	1	1	NaN	299	5	47	1	121	221	321	NaN	521	1.1914834745694	2	1	NaN	1363747.7950593	NaN	1363748.7784484	1363749.29500903
18	18	0	0	90	36.1581920903955	36.241610738255	22	0.733404143992811	2	9	3	NaN	2	4	0.191111655185609	1	1	NaN	300	5	48	1	121	221	321	NaN	521	1.64284647465684	2	1	NaN	1363751.2954013	NaN	1363752.2787795	1363752.79534863
18	18	0	0	90	36.1581920903955	36.241610738255	15	0.500048279995099	2	1	2	NaN	1	3	0.191111655185609	1	1	NaN	301	5	49	1	121	221	321	NaN	521	0.0919532745610923	1	1	NaN	1363755.2624616	NaN	1363756.2458602	1363756.76240353
18	18	0	0	90	36.1581920903955	36.241610738255	11	0.366702071996406	2	4	1	NaN	1	4	0.191111655185609	1	1	NaN	302	5	50	1	121	221	321	NaN	521	0.283666535047814	1	1	NaN	1363757.6627117	NaN	1363758.646097	1363759.16264756
18	18	0	0	90	36.1581920903955	36.241610738255	20	0.666731039993465	2	1	3	NaN	1	5	0.191111655185609	1	1	NaN	303	5	51	1	121	221	321	NaN	521	0.251618278911337	1	1	NaN	1363760.2629501	NaN	1363761.2463413	1363761.76289442
18	18	0	0	90	36.1581920903955	36.241610738255	15	0.500048279995099	2	7	5	NaN	2	3	0.191111655185609	1	1	NaN	304	5	52	1	121	221	321	NaN	521	0.244757374748588	2	1	NaN	1363762.8298801	NaN	1363763.8133001	1363764.32981253
18	18	0	0	90	36.1581920903955	36.241610738255	7	0.233355863997713	2	9	4	NaN	2	4	0.191111655185609	1	1	NaN	305	5	53	1	121	221	321	NaN	521	0.254419274628162	2	1	NaN	1363765.3801596	NaN	1363766.3635087	1363766.88006993
18	18	0	0	90	36.1581920903955	36.241610738255	25	0.833413799991831	2	6	4	NaN	1	4	0.191111655185609	1	1	NaN	306	5	54	1	121	221	321	NaN	521	1.15961657464504	1	1	NaN	1363767.9470749	NaN	1363768.9304311	1363769.44699783
18	18	0	0	90	36.1581920903955	36.241610738255	15	0.500048279995099	2	3	6	NaN	1	5	0.191111655185609	1	1	NaN	307	5	55	1	121	221	321	NaN	521	0.683714974671602	1	1	NaN	1363771.4307246	NaN	1363772.4141161	1363772.93066943
18	18	0	0	90	36.1581920903955	36.241610738255	0	0	1	7	5	NaN	2	3	0.191111655185609	1	1	NaN	308	5	56	1	111	211	311	NaN	511	0.745352026773617	2	1	NaN	1363774.4808886	NaN	1363775.4644176	1363775.98096917
18	18	0	0	90	36.1581920903955	36.241610738255	12	0.400038623996079	2	7	6	NaN	2	4	0.191111655185609	1	1	NaN	309	5	57	1	121	221	321	NaN	521	0.0104228747077286	2	1	NaN	1363777.5311847	NaN	1363778.5147157	1363779.03126333
18	18	0	0	90	36.1581920903955	36.241610738255	16	0.533384831994772	2	6	2	NaN	1	4	0.191111655185609	1	1	NaN	310	5	58	1	121	221	321	NaN	521	0.0103966267779469	1	1	NaN	1363779.8482046	NaN	1363780.8315969	1363781.34816227
18	18	0	0	90	36.1581920903955	36.241610738255	17	0.566721383994445	2	5	1	NaN	1	4	0.191111655185609	1	1	NaN	311	5	59	1	121	221	321	NaN	521	0.0104083747137338	1	1	NaN	1363782.1650956	NaN	1363783.1485002	1363783.66505483
18	18	0	0	90	36.1581920903955	36.241610738255	25	0.833413799991831	2	7	5	NaN	2	3	0.191111655185609	1	1	NaN	312	5	60	1	121	221	321	NaN	521	0.456499074585736	2	1	NaN	1363784.4820369	NaN	1363785.4654034	1363785.98193953
18	18	0	0	90	36.1581920903955	36.241610738255	11	0.366702071996406	2	8	3	NaN	2	4	0.191111655185609	1	1	NaN	313	5	61	1	121	221	321	NaN	521	0.0654965746216476	2	1	NaN	1363787.2488387	NaN	1363788.2323264	1363788.74887933
18	18	0	0	90	36.1581920903955	36.241610738255	7	0.233355863997713	2	6	1	NaN	1	4	0.191111655185609	1	1	NaN	314	5	62	1	121	221	321	NaN	521	0.0104023267049342	1	1	NaN	1363789.6323724	NaN	1363790.6158997	1363791.13245677
18	18	0	0	90	36.1581920903955	36.241610738255	11	0.366702071996406	2	3	6	NaN	1	4	0.191111655185609	1	1	NaN	315	5	63	1	121	221	321	NaN	521	0.38061057892628	1	1	NaN	1363791.9660595	NaN	1363792.9494643	1363793.46601372
18	18	0	0	90	36.1581920903955	36.241610738255	21	0.700067591993138	2	12	1	NaN	2	4	0.191111655185609	1	1	NaN	316	6	1	1	121	221	321	NaN	521	0.974696626886725	2	1	NaN	1363815.8517213	NaN	1363816.835146	1363817.35169737
18	18	0	0	90	36.1581920903955	36.241610738255	17	0.566721383994445	2	12	5	NaN	2	4	0.191111655185609	1	1	NaN	317	6	2	1	121	221	321	NaN	521	0.587304374435917	2	1	NaN	1363819.1352752	NaN	1363820.1188235	1363820.63534803
18	18	0	0	90	36.1581920903955	36.241610738255	18	0.600057935994118	2	8	4	NaN	2	4	0.191111655185609	1	1	NaN	318	6	3	1	121	221	321	NaN	521	0.0103885268326849	2	1	NaN	1363822.0357281	NaN	1363823.0191771	1363823.53563607
18	18	0	0	90	36.1581920903955	36.241610738255	7	0.233355863997713	2	7	3	NaN	2	4	0.191111655185609	1	1	NaN	319	6	4	1	121	221	321	NaN	521	0.0651570747140795	2	1	NaN	1363824.3692425	NaN	1363825.3526583	1363825.86918853
18	18	0	0	90	36.1581920903955	36.241610738255	23	0.766740695992485	2	10	3	NaN	2	5	0.191111655185609	1	1	NaN	320	6	5	1	121	221	321	NaN	521	1.39378277468495	2	1	NaN	1363826.7528425	NaN	1363827.7362344	1363828.25276563
18	18	0	0	90	36.1581920903955	36.241610738255	9	0.300028967997059	2	5	6	NaN	1	3	0.191111655185609	1	1	NaN	321	6	6	1	121	221	321	NaN	521	0.0104108746163547	1	1	NaN	1363830.4532073	NaN	1363831.43657	1363831.95313313
18	18	0	0	90	36.1581920903955	36.241610738255	23	0.766740695992485	2	9	5	NaN	2	3	0.191111655185609	1	1	NaN	322	6	7	1	121	221	321	NaN	521	0.223582574632019	2	1	NaN	1363832.7867365	NaN	1363833.7701262	1363834.28668953
18	18	0	0	90	36.1581920903955	36.241610738255	17	0.566721383994445	2	6	5	NaN	1	5	0.191111655185609	1	1	NaN	323	6	8	1	121	221	321	NaN	521	0.434370974777266	1	1	NaN	1363835.3202155	NaN	1363836.3037273	1363836.82026653
18	18	0	0	90	36.1581920903955	36.241610738255	18	0.600057935994118	2	7	6	NaN	2	3	0.191111655185609	1	1	NaN	324	6	9	1	121	221	321	NaN	521	1.37161107477732	2	1	NaN	1363838.0705932	NaN	1363839.0540004	1363839.57054053
18	18	0	0	90	36.1581920903955	36.241610738255	7	0.233355863997713	2	1	6	NaN	1	4	0.191111655185609	1	1	NaN	325	6	10	1	121	221	321	NaN	521	0.11239222669974	1	1	NaN	1363841.7542937	NaN	1363842.7376881	1363843.25425897
18	18	0	0	90	36.1581920903955	36.241610738255	9	0.300028967997059	2	7	2	NaN	2	3	0.191111655185609	1	1	NaN	326	6	11	1	121	221	321	NaN	521	0.010412274627015	2	1	NaN	1363844.1877383	NaN	1363845.1713445	1363845.68780693
18	18	0	0	90	36.1581920903955	36.241610738255	17	0.566721383994445	2	3	6	NaN	1	4	0.191111655185609	1	1	NaN	327	6	12	1	121	221	321	NaN	521	0.513506883289665	1	1	NaN	1363846.5046973	NaN	1363847.4881467	1363848.00472772
18	18	0	0	90	36.1581920903955	36.241610738255	13	0.433375175995752	2	8	4	NaN	2	4	0.191111655185609	1	1	NaN	328	6	13	1	121	221	321	NaN	521	1.40043857460842	2	1	NaN	1363849.3383623	NaN	1363850.3217556	1363850.83831113
18	18	0	0	90	36.1581920903955	36.241610738255	20	0.666731039993465	2	4	4	NaN	1	3	0.191111655185609	1	1	NaN	329	6	14	1	121	221	321	NaN	521	0.0103791789151728	1	1	NaN	1363853.0554024	NaN	1363854.0387985	1363854.55535312
18	18	0	0	90	36.1581920903955	36.241610738255	14	0.466711727995425	2	6	2	NaN	1	5	0.191111655185609	1	1	NaN	330	6	15	1	121	221	321	NaN	521	0.126047326950356	1	1	NaN	1363855.3721337	NaN	1363856.3556809	1363856.87223937
18	18	0	0	90	36.1581920903955	36.241610738255	6	0.200019311998039	2	11	5	NaN	2	4	0.191111655185609	1	1	NaN	331	6	16	1	121	221	321	NaN	521	0.0103901268448681	2	1	NaN	1363857.8225579	NaN	1363858.8059348	1363859.32248527
18	18	0	0	90	36.1581920903955	36.241610738255	0	0	1	11	2	NaN	2	3	0.191111655185609	1	1	NaN	332	6	17	1	111	211	311	NaN	511	1.07130352687091	2	1	NaN	1363860.1394226	NaN	1363861.1228253	1363861.63938087
18	18	0	0	90	36.1581920903955	36.241610738255	8	0.266692415997386	2	1	2	NaN	1	4	0.191111655185609	1	1	NaN	333	6	18	1	121	221	321	NaN	521	0.183401326881722	1	1	NaN	1363863.523094	NaN	1363864.5064934	1363865.02304067
18	18	0	0	90	36.1581920903955	36.241610738255	24	0.800077247992158	2	8	4	NaN	2	4	0.191111655185609	1	1	NaN	334	6	19	1	121	221	321	NaN	521	0.0103971266653389	2	1	NaN	1363866.0233784	NaN	1363867.0067395	1363867.52328927
18	18	0	0	90	36.1581920903955	36.241610738255	9	0.300028967997059	2	8	1	NaN	2	4	0.191111655185609	1	1	NaN	335	6	20	1	121	221	321	NaN	521	0.398237274494022	2	1	NaN	1363868.3402407	NaN	1363869.3236232	1363869.84017563
18	18	0	0	90	36.1581920903955	36.241610738255	16	0.533384831994772	2	7	4	NaN	2	3	0.191111655185609	1	1	NaN	336	6	21	1	121	221	321	NaN	521	1.86579647450708	2	1	NaN	1363871.0404076	NaN	1363872.0239325	1363872.54044213
18	18	0	0	90	36.1581920903955	36.241610738255	22	0.733404143992811	2	6	2	NaN	1	3	0.191111655185609	1	1	NaN	337	6	22	1	121	221	321	NaN	521	0.226063678972423	1	1	NaN	1363875.2241849	NaN	1363876.2076455	1363876.72419852
18	18	0	0	90	36.1581920903955	36.241610738255	22	0.733404143992811	2	11	6	NaN	2	3	0.191111655185609	1	1	NaN	338	6	23	1	121	221	321	NaN	521	0.0103956267703325	2	1	NaN	1363877.7744962	NaN	1363878.7578874	1363879.27444427
18	18	0	0	90	36.1581920903955	36.241610738255	8	0.266692415997386	2	12	6	NaN	2	3	0.191111655185609	1	1	NaN	339	6	24	1	121	221	321	NaN	521	0.0104112746194005	1	0	NaN	1363880.0913782	NaN	1363881.0747818	1363881.59133093
18	18	0	0	90	36.1581920903955	36.241610738255	24	0.800077247992158	2	8	1	NaN	2	4	0.191111655185609	1	1	NaN	340	6	25	1	121	221	321	NaN	521	1.3781156744808	2	1	NaN	1363882.4083205	NaN	1363883.3916662	1363883.90822833
18	18	0	0	90	36.1581920903955	36.241610738255	25	0.833413799991831	2	5	6	NaN	1	3	0.191111655185609	1	1	NaN	341	6	26	1	121	221	321	NaN	521	0.0104010268114507	1	1	NaN	1363886.0919856	NaN	1363887.0753673	1363887.59193107
18	18	0	0	90	36.1581920903955	36.241610738255	24	0.800077247992158	2	6	2	NaN	1	4	0.191111655185609	1	1	NaN	342	6	27	1	121	221	321	NaN	521	0.0104031746741384	1	1	NaN	1363888.4255441	NaN	1363889.4089355	1363889.92548423
18	18	0	0	90	36.1581920903955	36.241610738255	13	0.433375175995752	2	3	5	NaN	1	5	0.191111655185609	1	1	NaN	343	6	28	1	121	221	321	NaN	521	0.0104057267308235	1	1	NaN	1363890.7424177	NaN	1363891.7258261	1363892.24238837
18	18	0	0	90	36.1581920903955	36.241610738255	8	0.266692415997386	2	4	6	NaN	1	4	0.191111655185609	1	1	NaN	344	6	29	1	121	221	321	NaN	521	0.614689526846632	2	0	NaN	1363893.076006	NaN	1363894.0594013	1363894.57594717
18	18	0	0	90	36.1581920903955	36.241610738255	10	0.333365519996732	2	6	1	NaN	1	4	0.191111655185609	1	1	NaN	345	6	30	1	121	221	321	NaN	521	0.0255309746135026	1	1	NaN	1363895.9929335	NaN	1363896.976344	1363897.49289323
18	18	0	0	90	36.1581920903955	36.241610738255	0	0	1	2	3	NaN	1	5	0.191111655185609	1	1	NaN	346	6	31	1	111	211	311	NaN	511	0.275950726820156	1	1	NaN	1363898.3265061	NaN	1363899.3099032	1363899.82646487
18	18	0	0	90	36.1581920903955	36.241610738255	24	0.800077247992158	2	2	2	NaN	1	4	0.191111655185609	1	1	NaN	347	6	32	1	121	221	321	NaN	521	0.340289274696261	1	1	NaN	1363900.9101068	NaN	1363901.8935016	1363902.41004103
18	18	0	0	90	36.1581920903955	36.241610738255	24	0.800077247992158	2	4	1	NaN	1	5	0.191111655185609	1	1	NaN	348	6	33	1	121	221	321	NaN	521	0.0104813745710999	1	1	NaN	1363903.5603624	NaN	1363904.5437443	1363905.06031873
18	18	0	0	90	36.1581920903955	36.241610738255	20	0.666731039993465	2	3	2	NaN	1	4	0.191111655185609	1	1	NaN	349	6	34	1	121	221	321	NaN	521	0.485296626808122	1	1	NaN	1363905.8771159	NaN	1363906.8606533	1363907.37720957
18	18	0	0	90	36.1581920903955	36.241610738255	14	0.466711727995425	2	2	3	NaN	1	4	0.191111655185609	1	1	NaN	350	6	35	1	121	221	321	NaN	521	0.597242274787277	1	1	NaN	1363908.6775364	NaN	1363909.6609261	1363910.17748423
18	18	0	0	90	36.1581920903955	36.241610738255	8	0.266692415997386	2	9	3	NaN	2	4	0.191111655185609	1	1	NaN	351	6	36	1	121	221	321	NaN	521	0.0103940267581493	1	0	NaN	1363911.7444929	NaN	1363912.7278961	1363913.24445087
18	18	0	0	90	36.1581920903955	36.241610738255	19	0.633394487993792	2	8	5	NaN	2	4	0.191111655185609	1	1	NaN	352	6	37	1	121	221	321	NaN	521	1.02093602251261	2	1	NaN	1363914.0613942	NaN	1363915.0447801	1363915.56133538
18	18	0	0	90	36.1581920903955	36.241610738255	25	0.833413799991831	2	9	6	NaN	2	5	0.191111655185609	1	1	NaN	353	6	38	1	121	221	321	NaN	521	0.010416274657473	2	1	NaN	1363917.3949289	NaN	1363918.3784483	1363918.89499273
18	18	0	0	90	36.1581920903955	36.241610738255	24	0.800077247992158	2	4	4	NaN	1	3	0.191111655185609	1	1	NaN	354	6	39	1	121	221	321	NaN	521	0.130892126820982	1	1	NaN	1363919.7118197	NaN	1363920.6953384	1363921.21190117
18	18	0	0	90	36.1581920903955	36.241610738255	19	0.633394487993792	2	10	2	NaN	2	4	0.191111655185609	1	1	NaN	355	6	40	1	121	221	321	NaN	521	0.625373874790967	2	1	NaN	1363922.1455155	NaN	1363923.1289166	1363923.64546193
18	18	0	0	90	36.1581920903955	36.241610738255	16	0.533384831994772	2	2	2	NaN	1	4	0.191111655185609	1	1	NaN	356	6	41	1	121	221	321	NaN	521	0.531222387216985	1	1	NaN	1363925.0790188	NaN	1363926.0625323	1363926.57909741
18	18	0	0	90	36.1581920903955	36.241610738255	8	0.266692415997386	2	7	1	NaN	2	4	0.191111655185609	1	1	NaN	357	6	42	1	121	221	321	NaN	521	0.161796170519665	2	1	NaN	1363927.9126352	NaN	1363928.896139	1363929.41269563
18	18	0	0	90	36.1581920903955	36.241610738255	15	0.500048279995099	2	9	2	NaN	2	4	0.191111655185609	1	1	NaN	358	6	43	1	121	221	321	NaN	521	0.118894295534119	2	1	NaN	1363930.3796582	NaN	1363931.3630533	1363931.8796303
18	18	0	0	90	36.1581920903955	36.241610738255	10	0.333365519996732	2	5	2	NaN	1	4	0.191111655185609	1	1	NaN	359	6	44	1	121	221	321	NaN	521	0.965243874816224	1	1	NaN	1363932.8132196	NaN	1363933.7966161	1363934.31318663
18	18	0	0	90	36.1581920903955	36.241610738255	6	0.200019311998039	2	3	3	NaN	1	3	0.191111655185609	1	1	NaN	360	6	45	1	121	221	321	NaN	521	0.0103770790155977	1	1	NaN	1363936.080148	NaN	1363937.0636134	1363937.58017092
18	18	0	0	90	36.1581920903955	36.241610738255	23	0.766740695992485	2	4	6	NaN	1	3	0.191111655185609	1	1	NaN	361	6	46	1	121	221	321	NaN	521	0.0104005744215101	1	1	NaN	1363938.3969961	NaN	1363939.3805138	1363939.89705823
18	18	0	0	90	36.1581920903955	36.241610738255	14	0.466711727995425	2	6	6	NaN	1	5	0.191111655185609	1	1	NaN	362	6	47	1	121	221	321	NaN	521	0.256165926810354	1	1	NaN	1363940.730668	NaN	1363941.7140679	1363942.23062257
18	18	0	0	90	36.1581920903955	36.241610738255	23	0.766740695992485	2	1	3	NaN	1	5	0.191111655185609	1	1	NaN	363	6	48	1	121	221	321	NaN	521	0.241222074721009	1	1	NaN	1363943.2975963	NaN	1363944.2809949	1363944.79754283
18	18	0	0	90	36.1581920903955	36.241610738255	16	0.533384831994772	2	12	3	NaN	2	5	0.191111655185609	1	1	NaN	364	6	49	1	121	221	321	NaN	521	0.426908274646848	2	1	NaN	1363945.8478564	NaN	1363946.8312468	1363947.34779343
18	18	0	0	90	36.1581920903955	36.241610738255	17	0.566721383994445	2	5	1	NaN	1	3	0.191111655185609	1	1	NaN	365	6	50	1	121	221	321	NaN	521	0.141471774782985	1	1	NaN	1363948.581422	NaN	1363949.56485	1363950.08139083
18	18	0	0	90	36.1581920903955	36.241610738255	25	0.833413799991831	2	3	3	NaN	1	5	0.191111655185609	1	1	NaN	366	6	51	1	121	221	321	NaN	521	0.0104075747076422	1	1	NaN	1363951.031692	NaN	1363952.0150942	1363952.53163573
18	18	0	0	90	36.1581920903955	36.241610738255	16	0.533384831994772	2	9	4	NaN	2	5	0.191111655185609	1	1	NaN	367	6	52	1	121	221	321	NaN	521	0.134001074591652	2	1	NaN	1363953.3485474	NaN	1363954.3319823	1363954.84852443
18	18	0	0	90	36.1581920903955	36.241610738255	15	0.500048279995099	2	12	4	NaN	2	5	0.191111655185609	1	1	NaN	368	6	53	1	121	221	321	NaN	521	0.195796822663397	2	1	NaN	1363955.7988254	NaN	1363956.7822028	1363957.29876568
18	18	0	0	90	36.1581920903955	36.241610738255	12	0.400038623996079	2	9	5	NaN	2	5	0.191111655185609	1	1	NaN	369	6	54	1	121	221	321	NaN	521	0.0104060268495232	2	1	NaN	1363958.315739	NaN	1363959.2991301	1363959.81568987
18	18	0	0	90	36.1581920903955	36.241610738255	6	0.200019311998039	2	5	6	NaN	1	4	0.191111655185609	1	1	NaN	370	6	55	1	121	221	321	NaN	521	0.449817222543061	1	1	NaN	1363960.6326392	NaN	1363961.6160246	1363962.13257478
18	18	0	0	90	36.1581920903955	36.241610738255	15	0.500048279995099	2	8	1	NaN	2	4	0.191111655185609	1	1	NaN	371	6	56	1	121	221	321	NaN	521	0.387601274764165	2	1	NaN	1363963.3827685	NaN	1363964.3662923	1363964.88284323
18	18	0	0	90	36.1581920903955	36.241610738255	6	0.200019311998039	2	4	2	NaN	1	4	0.191111655185609	1	1	NaN	372	6	57	1	121	221	321	NaN	521	1.22352582681924	2	0	NaN	1363966.0831961	NaN	1363967.0665484	1363967.58311197
18	18	0	0	90	36.1581920903955	36.241610738255	12	0.400038623996079	2	2	6	NaN	1	4	0.191111655185609	1	1	NaN	373	6	58	1	121	221	321	NaN	521	0.0577492266893387	1	1	NaN	1363969.6168511	NaN	1363970.6002504	1363971.11680207
18	18	0	0	90	36.1581920903955	36.241610738255	21	0.700067591993138	2	5	6	NaN	1	3	0.191111655185609	1	1	NaN	374	6	59	1	121	221	321	NaN	521	0.227307274704799	1	1	NaN	1363971.9837492	NaN	1363972.967137	1363973.48368923
18	18	0	0	90	36.1581920903955	36.241610738255	13	0.433375175995752	2	2	1	NaN	1	4	0.191111655185609	1	1	NaN	375	6	60	1	121	221	321	NaN	521	0.14076952682808	1	1	NaN	1363974.5340092	NaN	1363975.5174029	1363976.03394887
18	18	0	0	90	36.1581920903955	36.241610738255	20	0.666731039993465	2	2	1	NaN	1	5	0.191111655185609	1	1	NaN	376	6	61	1	121	221	321	NaN	521	2.11465557455085	1	1	NaN	1363976.9841174	NaN	1363977.9676337	1363978.48418433
18	18	0	0	90	36.1581920903955	36.241610738255	9	0.300028967997059	2	1	4	NaN	1	5	0.191111655185609	1	1	NaN	377	6	62	1	121	221	321	NaN	521	0.240801074542105	1	1	NaN	1363981.4180128	NaN	1363982.4013992	1363982.91795433
18	18	0	0	90	36.1581920903955	36.241610738255	11	0.366702071996406	2	8	2	NaN	2	4	0.191111655185609	1	1	NaN	378	6	63	1	121	221	321	NaN	521	0.674218174535781	2	1	NaN	1363983.9682679	NaN	1363984.9516452	1363985.46820503
18	18	0	0	90	36.1581920903955	36.241610738255	8	0.266692415997386	2	2	2	NaN	1	5	0.191111655185609	1	1	NaN	379	7	1	1	121	221	321	NaN	521	0.78781564370729	1	1	NaN	1364005.4870632	NaN	1364006.4703447	1364006.98699226
18	18	0	0	90	36.1581920903955	36.241610738255	6	0.200019311998039	2	12	4	NaN	2	3	0.191111655185609	1	1	NaN	380	7	2	1	121	221	321	NaN	521	0.0103752790018916	2	1	NaN	1364008.5873368	NaN	1364009.5707451	1364010.08729752
18	18	0	0	90	36.1581920903955	36.241610738255	19	0.633394487993792	2	5	6	NaN	1	5	0.191111655185609	1	1	NaN	381	7	3	1	121	221	321	NaN	521	0.27376162679866	1	1	NaN	1364010.9208427	NaN	1364011.9042836	1364012.42084957
18	18	0	0	90	36.1581920903955	36.241610738255	25	0.833413799991831	2	2	4	NaN	1	3	0.191111655185609	1	1	NaN	382	7	4	1	121	221	321	NaN	521	1.27444717474282	1	1	NaN	1364013.5044973	NaN	1364014.4879006	1364015.00443313
18	18	0	0	90	36.1581920903955	36.241610738255	7	0.233355863997713	2	12	1	NaN	2	5	0.191111655185609	1	1	NaN	383	7	5	1	121	221	321	NaN	521	0.0103929268661886	2	1	NaN	1364017.088174	NaN	1364018.0715684	1364018.58812587
18	18	0	0	90	36.1581920903955	36.241610738255	14	0.466711727995425	2	9	3	NaN	2	3	0.191111655185609	1	1	NaN	384	7	6	1	121	221	321	NaN	521	0.0104420706629753	2	1	NaN	1364019.4217314	NaN	1364020.4051444	1364020.92168693
18	18	0	0	90	36.1581920903955	36.241610738255	16	0.533384831994772	2	3	1	NaN	1	3	0.191111655185609	1	1	NaN	385	7	7	1	121	221	321	NaN	521	0.232018143869936	1	1	NaN	1364021.7386368	NaN	1364022.7220554	1364023.23858756
18	18	0	0	90	36.1581920903955	36.241610738255	25	0.833413799991831	2	3	3	NaN	1	4	0.191111655185609	1	1	NaN	386	7	8	1	121	221	321	NaN	521	0.233656474621966	1	1	NaN	1364024.2888665	NaN	1364025.2722854	1364025.78882583
18	18	0	0	90	36.1581920903955	36.241610738255	8	0.266692415997386	2	1	3	NaN	1	3	0.191111655185609	1	1	NaN	387	7	9	1	121	221	321	NaN	521	0.0104026265908033	1	1	NaN	1364026.8392433	NaN	1364027.8225234	1364028.33908297
18	18	0	0	90	36.1581920903955	36.241610738255	7	0.233355863997713	2	7	6	NaN	2	4	0.191111655185609	1	1	NaN	388	7	10	1	121	221	321	NaN	521	0.0104018747806549	2	1	NaN	1364029.3227005	NaN	1364030.3060826	1364030.82265253
18	18	0	0	90	36.1581920903955	36.241610738255	15	0.500048279995099	2	7	6	NaN	2	4	0.191111655185609	1	1	NaN	389	7	11	1	121	221	321	NaN	521	0.114469326799735	2	1	NaN	1364031.6562704	NaN	1364032.6396783	1364033.15621797
18	18	0	0	90	36.1581920903955	36.241610738255	10	0.333365519996732	2	11	3	NaN	2	5	0.191111655185609	1	1	NaN	390	7	12	1	121	221	321	NaN	521	0.0414022747427225	2	1	NaN	1364034.0731686	NaN	1364035.0565933	1364035.57312053
18	18	0	0	90	36.1581920903955	36.241610738255	21	0.700067591993138	2	8	5	NaN	2	4	0.191111655185609	1	1	NaN	391	7	13	1	121	221	321	NaN	521	0.947173326741904	2	1	NaN	1364036.4233991	NaN	1364037.4068009	1364037.92335987
18	18	0	0	90	36.1581920903955	36.241610738255	23	0.766740695992485	2	4	5	NaN	1	4	0.191111655185609	1	1	NaN	392	7	14	1	121	221	321	NaN	521	0.401160674635321	1	1	NaN	1364039.6737519	NaN	1364040.6571126	1364041.17367093
18	18	0	0	90	36.1581920903955	36.241610738255	23	0.766740695992485	2	10	6	NaN	2	3	0.191111655185609	1	1	NaN	393	7	15	1	121	221	321	NaN	521	1.12389312684536	1	0	NaN	1364042.3906664	NaN	1364043.3740572	1364043.89061377
18	18	0	0	90	36.1581920903955	36.241610738255	24	0.800077247992158	2	7	5	NaN	2	4	0.191111655185609	1	1	NaN	394	7	16	1	121	221	321	NaN	521	0.978430770570412	2	1	NaN	1364045.8243423	NaN	1364046.8077312	1364047.32427863
18	18	0	0	90	36.1581920903955	36.241610738255	9	0.300028967997059	2	12	5	NaN	2	5	0.191111655185609	1	1	NaN	395	7	17	1	121	221	321	NaN	521	1.57482297462411	2	1	NaN	1364049.1078816	NaN	1364050.0913798	1364050.60793983
18	18	0	0	90	36.1581920903955	36.241610738255	17	0.566721383994445	2	10	1	NaN	2	3	0.191111655185609	1	1	NaN	396	7	18	1	121	221	321	NaN	521	0.0911254747770727	2	1	NaN	1364052.9917098	NaN	1364053.975109	1364054.49164383
18	18	0	0	90	36.1581920903955	36.241610738255	23	0.766740695992485	2	3	3	NaN	1	3	0.191111655185609	1	1	NaN	397	7	19	1	121	221	321	NaN	521	0.330845178803429	1	1	NaN	1364055.3919552	NaN	1364056.3753377	1364056.89188452
18	18	0	0	90	36.1581920903955	36.241610738255	9	0.300028967997059	2	11	5	NaN	2	3	0.191111655185609	1	1	NaN	398	7	20	1	121	221	321	NaN	521	0.112521274713799	2	1	NaN	1364058.0421902	NaN	1364059.0256088	1364059.54214973
18	18	0	0	90	36.1581920903955	36.241610738255	25	0.833413799991831	2	12	6	NaN	2	4	0.191111655185609	1	1	NaN	399	7	21	1	121	221	321	NaN	521	0.031013174680993	2	1	NaN	1364060.4757805	NaN	1364061.4591587	1364061.97571723
18	18	0	0	90	36.1581920903955	36.241610738255	22	0.733404143992811	2	1	2	NaN	1	5	0.191111655185609	1	1	NaN	400	7	22	1	121	221	321	NaN	521	0.0103010395541787	1	1	NaN	1364062.8259874	NaN	1364063.8093989	1364064.32595406
18	18	0	0	90	36.1581920903955	36.241610738255	9	0.300028967997059	2	1	2	NaN	1	4	0.191111655185609	1	1	NaN	401	7	23	1	121	221	321	NaN	521	0.0102816915605217	1	1	NaN	1364065.1429052	NaN	1364066.1262791	1364066.64284971
18	18	0	0	90	36.1581920903955	36.241610738255	24	0.800077247992158	2	6	3	NaN	1	5	0.191111655185609	1	1	NaN	402	7	24	1	121	221	321	NaN	521	0.0103900267276913	1	1	NaN	1364067.4597894	NaN	1364068.4431973	1364068.95974297
18	18	0	0	90	36.1581920903955	36.241610738255	15	0.500048279995099	2	4	6	NaN	1	4	0.191111655185609	1	1	NaN	403	7	25	1	121	221	321	NaN	521	0.0103002395480871	1	1	NaN	1364069.7767015	NaN	1364070.7600757	1364071.27663516
18	18	0	0	90	36.1581920903955	36.241610738255	24	0.800077247992158	2	9	2	NaN	2	4	0.191111655185609	1	1	NaN	404	7	26	1	121	221	321	NaN	521	0.0104100746102631	2	1	NaN	1364072.0935885	NaN	1364073.0769836	1364073.59352013
18	18	0	0	90	36.1581920903955	36.241610738255	22	0.733404143992811	2	4	4	NaN	1	4	0.191111655185609	1	1	NaN	405	7	27	1	121	221	321	NaN	521	0.472285674652085	2	0	NaN	1364074.4104657	NaN	1364075.3938749	1364075.91041973
18	18	0	0	90	36.1581920903955	36.241610738255	25	0.833413799991831	2	6	1	NaN	1	5	0.191111655185609	1	1	NaN	406	7	28	1	121	221	321	NaN	521	0.0966152746696025	1	1	NaN	1364077.1940937	NaN	1364078.1774809	1364078.69402033
18	18	0	0	90	36.1581920903955	36.241610738255	15	0.500048279995099	2	10	5	NaN	2	5	0.191111655185609	1	1	NaN	407	7	29	1	121	221	321	NaN	521	0.0103948267642409	2	1	NaN	1364079.5943343	NaN	1364080.5777057	1364081.09426787
18	18	0	0	90	36.1581920903955	36.241610738255	18	0.600057935994118	2	11	2	NaN	2	4	0.191111655185609	1	1	NaN	408	7	30	1	121	221	321	NaN	521	0.403502295725048	1	0	NaN	1364081.9112157	NaN	1364082.8946088	1364083.4111647
18	18	0	0	90	36.1581920903955	36.241610738255	16	0.533384831994772	2	1	4	NaN	1	4	0.191111655185609	1	1	NaN	409	7	31	1	121	221	321	NaN	521	1.0146484747529	1	1	NaN	1364084.6279931	NaN	1364085.6115244	1364086.12808973
18	18	0	0	90	36.1581920903955	36.241610738255	22	0.733404143992811	2	12	1	NaN	2	5	0.191111655185609	1	1	NaN	410	7	32	1	121	221	321	NaN	521	0.16175342281349	2	1	NaN	1364087.9451335	NaN	1364088.9285354	1364089.44508758
18	18	0	0	90	36.1581920903955	36.241610738255	8	0.266692415997386	2	6	5	NaN	1	5	0.191111655185609	1	1	NaN	411	7	33	1	121	221	321	NaN	521	1.151115631219	2	0	NaN	1364090.4119206	NaN	1364091.3954326	1364091.91199407
18	18	0	0	90	36.1581920903955	36.241610738255	19	0.633394487993792	2	12	4	NaN	2	3	0.191111655185609	1	1	NaN	412	7	34	1	121	221	321	NaN	521	0.0678287269547582	2	1	NaN	1364093.8790569	NaN	1364094.8624559	1364095.37900487
18	18	0	0	90	36.1581920903955	36.241610738255	16	0.533384831994772	2	11	6	NaN	2	4	0.191111655185609	1	1	NaN	413	7	35	1	121	221	321	NaN	521	1.54842602671124	2	1	NaN	1364096.2626137	NaN	1364097.2460253	1364097.76256957
18	18	0	0	90	36.1581920903955	36.241610738255	9	0.300028967997059	2	2	2	NaN	1	5	0.191111655185609	1	1	NaN	414	7	36	1	121	221	321	NaN	521	0.48943372676149	1	1	NaN	1364100.1296703	NaN	1364101.1130593	1364101.62962117
18	18	0	0	90	36.1581920903955	36.241610738255	9	0.300028967997059	2	4	5	NaN	1	5	0.191111655185609	1	1	NaN	415	7	37	1	121	221	321	NaN	521	0.576852574711666	1	1	NaN	1364102.9299561	NaN	1364103.9133287	1364104.42989653
18	18	0	0	90	36.1581920903955	36.241610738255	23	0.766740695992485	2	6	5	NaN	1	3	0.191111655185609	1	1	NaN	416	7	38	1	121	221	321	NaN	521	0.0103760787751526	1	1	NaN	1364105.8302265	NaN	1364106.8136292	1364107.33018492
18	18	0	0	90	36.1581920903955	36.241610738255	15	0.500048279995099	2	11	6	NaN	2	4	0.191111655185609	1	1	NaN	417	7	39	1	121	221	321	NaN	521	1.35927027463913	2	1	NaN	1364108.1637921	NaN	1364109.1471903	1364109.66373423
18	18	0	0	90	36.1581920903955	36.241610738255	15	0.500048279995099	2	4	3	NaN	1	5	0.191111655185609	1	1	NaN	418	7	40	1	121	221	321	NaN	521	0.451829874655232	1	1	NaN	1364111.8308153	NaN	1364112.8142176	1364113.33076263
18	18	0	0	90	36.1581920903955	36.241610738255	10	0.333365519996732	2	1	6	NaN	1	4	0.191111655185609	1	1	NaN	419	7	41	1	121	221	321	NaN	521	0.221028374508023	1	1	NaN	1364114.5977675	NaN	1364115.5811415	1364116.09770103
18	18	0	0	90	36.1581920903955	36.241610738255	10	0.333365519996732	2	7	6	NaN	2	3	0.191111655185609	1	1	NaN	420	7	42	1	121	221	321	NaN	521	0.399421518435702	2	1	NaN	1364117.1311939	NaN	1364118.1147337	1364118.63127628
18	18	0	0	90	36.1581920903955	36.241610738255	12	0.400038623996079	2	3	2	NaN	1	3	0.191111655185609	1	1	NaN	421	7	43	1	121	221	321	NaN	521	0.482408322859555	1	1	NaN	1364119.8482585	NaN	1364120.8316593	1364121.34821258
18	18	0	0	90	36.1581920903955	36.241610738255	14	0.466711727995425	2	7	4	NaN	2	4	0.191111655185609	1	1	NaN	422	7	44	1	121	221	321	NaN	521	0.0103471833281219	2	1	NaN	1364122.6485528	NaN	1364123.6319649	1364124.14849072
18	18	0	0	90	36.1581920903955	36.241610738255	20	0.666731039993465	2	7	3	NaN	2	5	0.191111655185609	1	1	NaN	423	7	45	1	121	221	321	NaN	521	0.0104352226480842	2	1	NaN	1364124.9655219	NaN	1364125.9488267	1364126.46538488
18	18	0	0	90	36.1581920903955	36.241610738255	22	0.733404143992811	2	11	5	NaN	2	3	0.191111655185609	1	1	NaN	424	7	46	1	121	221	321	NaN	521	0.168766174698249	2	1	NaN	1364127.2823264	NaN	1364128.2657221	1364128.78227323
18	18	0	0	90	36.1581920903955	36.241610738255	25	0.833413799991831	2	7	1	NaN	2	3	0.191111655185609	1	1	NaN	425	7	47	1	121	221	321	NaN	521	1.25290897465311	2	1	NaN	1364129.765898	NaN	1364130.7493251	1364131.26585923
18	18	0	0	90	36.1581920903955	36.241610738255	0	0	1	9	5	NaN	2	4	0.191111655185609	1	1	NaN	426	7	48	1	111	211	311	NaN	511	0.270198426907882	2	1	NaN	1364133.3329353	NaN	1364134.3163279	1364134.83288157
18	18	0	0	90	36.1581920903955	36.241610738255	21	0.700067591993138	2	8	3	NaN	2	3	0.191111655185609	1	1	NaN	427	7	49	1	121	221	321	NaN	521	1.38228432275355	2	1	NaN	1364135.9166018	NaN	1364136.8999159	1364137.41645328
18	18	0	0	90	36.1581920903955	36.241610738255	13	0.433375175995752	2	1	5	NaN	1	4	0.191111655185609	1	1	NaN	428	7	50	1	121	221	321	NaN	521	0.0104107747320086	1	1	NaN	1364139.6168983	NaN	1364140.600279	1364141.11682663
18	18	0	0	90	36.1581920903955	36.241610738255	10	0.333365519996732	2	10	1	NaN	2	4	0.191111655185609	1	1	NaN	429	7	51	1	121	221	321	NaN	521	0.21328829578124	2	1	NaN	1364141.9338633	NaN	1364142.91717	1364143.4337256
18	18	0	0	90	36.1581920903955	36.241610738255	22	0.733404143992811	2	2	3	NaN	1	3	0.191111655185609	1	1	NaN	430	7	52	1	121	221	321	NaN	521	0.479491274803877	1	1	NaN	1364144.467358	NaN	1364145.450763	1364145.96729683
18	18	0	0	90	36.1581920903955	36.241610738255	23	0.766740695992485	2	11	3	NaN	2	4	0.191111655185609	1	1	NaN	431	7	53	1	121	221	321	NaN	521	0.471281778998673	2	1	NaN	1364147.267631	NaN	1364148.2510164	1364148.76757022
18	18	0	0	90	36.1581920903955	36.241610738255	18	0.600057935994118	2	11	1	NaN	2	4	0.191111655185609	1	1	NaN	432	7	54	1	121	221	321	NaN	521	0.0103779789060354	2	1	NaN	1364150.0512342	NaN	1364151.0345294	1364151.55119062
18	18	0	0	90	36.1581920903955	36.241610738255	8	0.266692415997386	2	4	1	NaN	1	3	0.191111655185609	1	1	NaN	433	7	55	1	121	221	321	NaN	521	1.74663944356143	1	1	NaN	1364152.3681375	NaN	1364153.35152	1364153.86808766
18	18	0	0	90	36.1581920903955	36.241610738255	21	0.700067591993138	2	7	2	NaN	2	3	0.191111655185609	1	1	NaN	434	7	56	1	121	221	321	NaN	521	0.0316500745248049	2	1	NaN	1364156.4352014	NaN	1364157.4185804	1364157.93513673
18	18	0	0	90	36.1581920903955	36.241610738255	13	0.433375175995752	2	5	1	NaN	1	3	0.191111655185609	1	1	NaN	435	7	57	1	121	221	321	NaN	521	0.0104010268114507	1	1	NaN	1364158.7854289	NaN	1364159.7688622	1364160.28537997
18	18	0	0	90	36.1581920903955	36.241610738255	23	0.766740695992485	2	11	3	NaN	2	4	0.191111655185609	1	1	NaN	436	7	58	1	121	221	321	NaN	521	0.628913395572454	1	0	NaN	1364161.1023188	NaN	1364162.0857282	1364162.6022736
18	18	0	0	90	36.1581920903955	36.241610738255	17	0.566721383994445	2	11	5	NaN	2	4	0.191111655185609	1	1	NaN	437	7	59	1	121	221	321	NaN	521	0.35422607883811	1	0	NaN	1364164.1526219	NaN	1364165.1360212	1364165.65257022
18	18	0	0	90	36.1581920903955	36.241610738255	19	0.633394487993792	2	3	4	NaN	1	5	0.191111655185609	1	1	NaN	438	7	60	1	121	221	321	NaN	521	1.71139232674614	1	1	NaN	1364166.8195502	NaN	1364167.8029319	1364168.31950337
18	18	0	0	90	36.1581920903955	36.241610738255	12	0.400038623996079	2	11	4	NaN	2	5	0.191111655185609	1	1	NaN	439	7	61	1	121	221	321	NaN	521	0.238299526739866	2	1	NaN	1364170.8366013	NaN	1364171.8200028	1364172.33656187
18	18	0	0	90	36.1581920903955	36.241610738255	9	0.300028967997059	2	3	5	NaN	1	5	0.191111655185609	1	1	NaN	440	7	62	1	121	221	321	NaN	521	1.71245717885904	2	0	NaN	1364173.3868326	NaN	1364174.3702565	1364174.88681332
18	18	0	0	90	36.1581920903955	36.241610738255	24	0.800077247992158	2	12	5	NaN	2	5	0.191111655185609	1	1	NaN	441	7	63	1	121	221	321	NaN	521	0.0103975266683847	1	0	NaN	1364177.4205834	NaN	1364178.4039873	1364178.92053277
18	18	0	0	90	36.1581920903955	36.241610738255	9	0.300028967997059	2	2	5	NaN	1	4	0.191111655185609	1	1	NaN	442	8	1	1	121	221	321	NaN	521	0.848517622798681	1	1	NaN	1364199.1227342	NaN	1364200.106098	1364200.62266188
18	18	0	0	90	36.1581920903955	36.241610738255	9	0.300028967997059	2	10	4	NaN	2	5	0.191111655185609	1	1	NaN	443	8	2	1	121	221	321	NaN	521	0.0103903790004551	2	1	NaN	1364202.2730319	NaN	1364203.2564248	1364203.77297082
18	18	0	0	90	36.1581920903955	36.241610738255	21	0.700067591993138	2	11	2	NaN	2	5	0.191111655185609	1	1	NaN	444	8	3	1	121	221	321	NaN	521	0.010410274611786	2	1	NaN	1364204.5898649	NaN	1364205.5733182	1364206.08987273
18	18	0	0	90	36.1581920903955	36.241610738255	15	0.500048279995099	2	9	2	NaN	2	3	0.191111655185609	1	1	NaN	445	8	4	1	121	221	321	NaN	521	0.0104068745858967	2	1	NaN	1364206.9234784	NaN	1364207.9068735	1364208.42343923
18	18	0	0	90	36.1581920903955	36.241610738255	8	0.266692415997386	2	8	6	NaN	2	3	0.191111655185609	1	1	NaN	446	8	5	1	121	221	321	NaN	521	1.1062530267518	2	1	NaN	1364209.2569363	NaN	1364210.2404361	1364210.75699347
18	18	0	0	90	36.1581920903955	36.241610738255	6	0.200019311998039	2	9	4	NaN	2	5	0.191111655185609	1	1	NaN	447	8	6	1	121	221	321	NaN	521	0.576764922821894	1	0	NaN	1364212.6740515	NaN	1364213.6574441	1364214.17399038
18	18	0	0	90	36.1581920903955	36.241610738255	11	0.366702071996406	2	6	3	NaN	1	5	0.191111655185609	1	1	NaN	448	8	7	1	121	221	321	NaN	521	0.27731152693741	1	1	NaN	1364215.5576696	NaN	1364216.5410621	1364217.05761167
18	18	0	0	90	36.1581920903955	36.241610738255	21	0.700067591993138	2	10	3	NaN	2	3	0.191111655185609	1	1	NaN	449	8	8	1	121	221	321	NaN	521	1.68503907462582	2	1	NaN	1364218.1579591	NaN	1364219.1413336	1364219.65786483
18	18	0	0	90	36.1581920903955	36.241610738255	17	0.566721383994445	2	2	2	NaN	1	3	0.191111655185609	1	1	NaN	450	8	9	1	121	221	321	NaN	521	0.0104040268342942	1	1	NaN	1364222.1583134	NaN	1364223.1417054	1364223.65826757
18	18	0	0	90	36.1581920903955	36.241610738255	17	0.566721383994445	2	10	3	NaN	2	5	0.191111655185609	1	1	NaN	451	8	10	1	121	221	321	NaN	521	0.263699174625799	2	1	NaN	1364224.4752156	NaN	1364225.4586055	1364225.97515143
18	18	0	0	90	36.1581920903955	36.241610738255	20	0.666731039993465	2	8	6	NaN	2	5	0.191111655185609	1	1	NaN	452	8	11	1	121	221	321	NaN	521	0.264855774585158	2	1	NaN	1364227.0421315	NaN	1364228.0255307	1364228.54207523
18	18	0	0	90	36.1581920903955	36.241610738255	18	0.600057935994118	2	4	2	NaN	1	4	0.191111655185609	1	1	NaN	453	8	12	1	121	221	321	NaN	521	0.473384126788005	2	0	NaN	1364229.6257025	NaN	1364230.6091144	1364231.12567027
18	18	0	0	90	36.1581920903955	36.241610738255	9	0.300028967997059	2	11	6	NaN	2	3	0.191111655185609	1	1	NaN	454	8	13	1	121	221	321	NaN	521	0.0896164746955037	1	0	NaN	1364232.4091947	NaN	1364233.3927187	1364233.90926733
18	18	0	0	90	36.1581920903955	36.241610738255	18	0.600057935994118	2	7	5	NaN	2	3	0.191111655185609	1	1	NaN	455	8	14	1	121	221	321	NaN	521	1.39370337454602	2	1	NaN	1364234.8094367	NaN	1364235.7929935	1364236.30950013
18	18	0	0	90	36.1581920903955	36.241610738255	8	0.266692415997386	2	11	5	NaN	2	4	0.191111655185609	1	1	NaN	456	8	15	1	121	221	321	NaN	521	0.453362726606429	2	1	NaN	1364238.5100182	NaN	1364239.4932812	1364240.00987107
18	18	0	0	90	36.1581920903955	36.241610738255	0	0	1	3	6	NaN	1	4	0.191111655185609	1	1	NaN	457	8	16	1	111	211	311	NaN	511	0.342454874655232	1	1	NaN	1364241.2767435	NaN	1364242.2602704	1364242.77680233
18	18	0	0	90	36.1581920903955	36.241610738255	0	0	1	2	6	NaN	1	5	0.191111655185609	1	1	NaN	458	8	17	1	111	211	311	NaN	511	0.395856174640357	1	1	NaN	1364243.9270943	NaN	1364244.9105226	1364245.42706823
18	18	0	0	90	36.1581920903955	36.241610738255	18	0.600057935994118	2	3	5	NaN	1	4	0.191111655185609	1	1	NaN	459	8	18	1	121	221	321	NaN	521	0.010450474685058	1	1	NaN	1364246.6440665	NaN	1364247.6274457	1364248.14400203
