subjno	age	gender	isPractice	viewdist	CmToPixX	CmToPixY	SOA_frm	SOA_time	targNum	targID	targExample	targRace	targGender	firstTargPos	contrast	familiarity	curr_staircase	iStair	TrialNum	BlockNum	blktrl	sessionNum	TC_FIXATION	TC_RSVP_START	TC_RSVP_END	TC_BLANK	TC_RESPONSE_ONSET	RT2afc	resp_2afc	acc	RSVPOnsetVBL	RSVPOnsetTime	RSVPOffsetVBL	RSVPOffsetTime	startrt_2afc
12	18	1	0	90	36.1581920903955	36.241610738255	23	0.766718984041363	2	4	2	NaN	1	3	0.211735715598392	0	1	NaN	1	1	1	2	120	220	320	NaN	520	0.523868327029049	1	1	NaN	1796613.2389226	NaN	1796614.2221925	1796614.75534817
12	18	1	0	90	36.1581920903955	36.241610738255	11	0.366691688019782	2	10	2	NaN	2	3	0.211735715598392	0	1	NaN	2	1	2	2	120	220	320	NaN	520	0.42390887462534	1	0	NaN	1796616.1392504	NaN	1796617.1225211	1796617.65562993
12	18	1	0	90	36.1581920903955	36.241610738255	6	0.20001364801079	2	2	5	NaN	1	5	0.211735715598392	0	1	NaN	3	1	3	2	120	220	320	NaN	520	0.31320797954686	1	1	NaN	1796618.9059756	NaN	1796619.8893376	1796620.40589462
12	18	1	0	90	36.1581920903955	36.241610738255	15	0.500034120026976	2	10	6	NaN	2	4	0.211735715598392	0	1	NaN	4	1	4	2	120	220	320	NaN	520	0.27195777464658	2	1	NaN	1796621.539551	NaN	1796622.5229645	1796623.03948703
12	18	1	0	90	36.1581920903955	36.241610738255	19	0.633376552034169	2	5	1	NaN	1	5	0.211735715598392	0	1	NaN	5	1	5	2	120	220	320	NaN	520	0.239318821812049	1	1	NaN	1796624.1397948	NaN	1796625.1231982	1796625.63974578
12	18	1	0	90	36.1581920903955	36.241610738255	21	0.700047768037766	2	2	1	NaN	1	5	0.211735715598392	0	1	NaN	6	1	6	2	120	220	320	NaN	520	0.280678922077641	1	1	NaN	1796626.7067022	NaN	1796627.690098	1796628.20666018
12	18	1	0	90	36.1581920903955	36.241610738255	12	0.400027296021581	2	9	2	NaN	2	5	0.211735715598392	0	1	NaN	7	1	7	2	120	220	320	NaN	520	0.280367721803486	2	1	NaN	1796629.3069051	NaN	1796630.2903985	1796630.80691548
12	18	1	0	90	36.1581920903955	36.241610738255	13	0.433362904023379	2	1	5	NaN	1	5	0.211735715598392	0	1	NaN	8	1	8	2	120	220	320	NaN	520	0.311991674592718	2	0	NaN	1796631.9071095	NaN	1796632.8906187	1796633.40718003
12	18	1	0	90	36.1581920903955	36.241610738255	13	0.433362904023379	2	6	2	NaN	1	4	0.211735715598392	0	1	NaN	9	1	9	2	120	220	320	NaN	520	0.254222217015922	1	1	NaN	1796634.5406988	NaN	1796635.5242086	1796636.04076378
12	18	1	0	90	36.1581920903955	36.241610738255	20	0.666712160035968	2	12	2	NaN	2	5	0.211735715598392	0	1	NaN	10	1	10	2	120	220	320	NaN	520	0.255479916930199	2	1	NaN	1796637.1077271	NaN	1796638.0911167	1796638.60767958
12	18	1	0	90	36.1581920903955	36.241610738255	6	0.20001364801079	2	10	5	NaN	2	3	0.211735715598392	0	1	NaN	11	1	11	2	120	220	320	NaN	520	0.255809769500047	1	0	NaN	1796639.691321	NaN	1796640.6747228	1796641.19127313
12	18	1	0	90	36.1581920903955	36.241610738255	21	0.700047768037766	2	6	4	NaN	1	4	0.211735715598392	0	1	NaN	12	1	12	2	120	220	320	NaN	520	0.256612122058868	1	1	NaN	1796642.2749005	NaN	1796643.258308	1796643.77485768
12	18	1	0	90	36.1581920903955	36.241610738255	0	0	1	1	5	NaN	1	5	0.211735715598392	0	1	NaN	13	1	13	2	110	210	310	NaN	510	0.536637621931732	1	1	NaN	1796644.858497	NaN	1796645.8418884	1796646.35844788
12	18	1	0	90	36.1581920903955	36.241610738255	12	0.400027296021581	2	6	5	NaN	1	3	0.211735715598392	0	1	NaN	14	1	14	2	120	220	320	NaN	520	0.23052549501881	1	1	NaN	1796647.7087855	NaN	1796648.6921686	1796649.20873231
12	18	1	0	90	36.1581920903955	36.241610738255	22	0.733383376039565	2	6	5	NaN	1	3	0.211735715598392	0	1	NaN	15	1	15	2	120	220	320	NaN	520	0.256531069520861	1	1	NaN	1796650.2590481	NaN	1796651.2424104	1796651.75897963
12	18	1	0	90	36.1581920903955	36.241610738255	25	0.83339020004496	2	8	6	NaN	2	5	0.211735715598392	0	1	NaN	16	1	16	2	120	220	320	NaN	520	0.400415321812034	2	1	NaN	1796652.8426078	NaN	1796653.8259952	1796654.34256118
12	18	1	0	90	36.1581920903955	36.241610738255	12	0.400027296021581	2	3	4	NaN	1	3	0.211735715598392	0	1	NaN	17	1	17	2	120	220	320	NaN	520	0.435641769552603	2	0	NaN	1796655.5595187	NaN	1796656.5429472	1796657.05950063
12	18	1	0	90	36.1581920903955	36.241610738255	0	0	1	6	4	NaN	1	4	0.211735715598392	0	1	NaN	18	1	18	2	110	210	310	NaN	510	0.245618821820244	1	1	NaN	1796658.3098125	NaN	1796659.2932016	1796659.80976068
12	18	1	0	90	36.1581920903955	36.241610738255	16	0.533369728028774	2	4	3	NaN	1	5	0.211735715598392	0	1	NaN	19	1	19	2	120	220	320	NaN	520	0.2709036169108	1	1	NaN	1796660.8767285	NaN	1796661.8601264	1796662.37667888
12	18	1	0	90	36.1581920903955	36.241610738255	11	0.366691688019782	2	3	6	NaN	1	3	0.211735715598392	0	1	NaN	20	1	20	2	120	220	320	NaN	520	0.247298121917993	1	1	NaN	1796663.4603152	NaN	1796664.4437075	1796664.96026658
12	18	1	0	90	36.1581920903955	36.241610738255	12	0.400027296021581	2	5	4	NaN	1	3	0.211735715598392	0	1	NaN	21	1	21	2	120	220	320	NaN	520	0.288093917071819	1	1	NaN	1796666.0272449	NaN	1796667.0106858	1796667.52718778
12	18	1	0	90	36.1581920903955	36.241610738255	17	0.566705336030573	2	3	2	NaN	1	5	0.211735715598392	0	1	NaN	22	1	22	2	120	220	320	NaN	520	0.23972242185846	1	1	NaN	1796668.6275125	NaN	1796669.6108941	1796670.12744208
12	18	1	0	90	36.1581920903955	36.241610738255	10	0.333356080017984	2	9	2	NaN	2	5	0.211735715598392	0	1	NaN	23	1	23	2	120	220	320	NaN	520	0.249528569402173	2	1	NaN	1796671.1777645	NaN	1796672.1611896	1796672.67769853
12	18	1	0	90	36.1581920903955	36.241610738255	23	0.766718984041363	2	3	1	NaN	1	3	0.211735715598392	0	1	NaN	24	1	24	2	120	220	320	NaN	520	0.170884616905823	1	1	NaN	1796673.7446571	NaN	1796674.7280711	1796675.24461198
12	18	1	0	90	36.1581920903955	36.241610738255	10	0.333356080017984	2	12	4	NaN	2	3	0.211735715598392	0	1	NaN	25	1	25	2	120	220	320	NaN	520	0.319212622009218	1	0	NaN	1796676.2282381	NaN	1796677.2116896	1796677.72819638
12	18	1	0	90	36.1581920903955	36.241610738255	16	0.533369728028774	2	6	6	NaN	1	4	0.211735715598392	0	1	NaN	26	1	26	2	120	220	320	NaN	520	0.357554321875796	1	1	NaN	1796678.8617101	NaN	1796679.8452321	1796680.36178058
12	18	1	0	90	36.1581920903955	36.241610738255	0	0	1	3	6	NaN	1	3	0.211735715598392	0	1	NaN	27	1	27	2	110	210	310	NaN	510	0.570051869377494	1	1	NaN	1796681.5454262	NaN	1796682.5288266	1796683.04538563
12	18	1	0	90	36.1581920903955	36.241610738255	21	0.700047768037766	2	4	4	NaN	1	3	0.211735715598392	0	1	NaN	28	1	28	2	120	220	320	NaN	520	0.533501874655485	1	1	NaN	1796684.4457135	NaN	1796685.4291189	1796685.94566443
12	18	1	0	90	36.1581920903955	36.241610738255	9	0.300020472016186	2	2	1	NaN	1	4	0.211735715598392	0	1	NaN	29	1	29	2	120	220	320	NaN	520	0.48336191708222	1	1	NaN	1796687.2959856	NaN	1796688.2794032	1796688.79594348
12	18	1	0	90	36.1581920903955	36.241610738255	0	0	1	11	6	NaN	2	4	0.211735715598392	0	1	NaN	30	1	30	2	110	210	310	NaN	510	0.267027021851391	2	1	NaN	1796690.0962656	NaN	1796691.0796806	1796691.59621998
12	18	1	0	90	36.1581920903955	36.241610738255	10	0.333356080017984	2	2	4	NaN	1	4	0.211735715598392	0	1	NaN	31	1	31	2	120	220	320	NaN	520	0.171324369497597	1	1	NaN	1796692.6797331	NaN	1796693.663288	1796694.17981073
12	18	1	0	90	36.1581920903955	36.241610738255	9	0.300020472016186	2	3	6	NaN	1	3	0.211735715598392	0	1	NaN	32	1	32	2	120	220	320	NaN	520	0.59105646959506	1	1	NaN	1796695.1801883	NaN	1796696.1635094	1796696.68005743
12	18	1	0	90	36.1581920903955	36.241610738255	16	0.533369728028774	2	10	4	NaN	2	5	0.211735715598392	0	1	NaN	33	1	33	2	120	220	320	NaN	520	0.282631916925311	2	1	NaN	1796698.0969283	NaN	1796699.080457	1796699.59700098
12	18	1	0	90	36.1581920903955	36.241610738255	24	0.800054592043161	2	10	5	NaN	2	4	0.211735715598392	0	1	NaN	34	1	34	2	120	220	320	NaN	520	0.241933842422441	1	0	NaN	1796700.6974086	NaN	1796701.6806965	1796702.19726466
12	18	1	0	90	36.1581920903955	36.241610738255	16	0.533369728028774	2	7	6	NaN	2	5	0.211735715598392	0	1	NaN	35	1	35	2	120	220	320	NaN	520	0.275994169292971	2	1	NaN	1796703.2475825	NaN	1796704.2309533	1796704.74752053
12	18	1	0	90	36.1581920903955	36.241610738255	19	0.633376552034169	2	2	6	NaN	1	4	0.211735715598392	0	1	NaN	36	1	36	2	120	220	320	NaN	520	0.259347927058116	2	0	NaN	1796705.8478362	NaN	1796706.8312739	1796707.34776617
12	18	1	0	90	36.1581920903955	36.241610738255	15	0.500034120026976	2	10	1	NaN	2	5	0.211735715598392	0	1	NaN	37	1	37	2	120	220	320	NaN	520	0.316096721915528	2	1	NaN	1796708.4314115	NaN	1796709.4147973	1796709.93136328
12	18	1	0	90	36.1581920903955	36.241610738255	18	0.600040944032371	2	5	3	NaN	1	3	0.211735715598392	0	1	NaN	38	1	38	2	120	220	320	NaN	520	0.35460102185607	1	1	NaN	1796711.0650291	NaN	1796712.048401	1796712.56495158
12	18	1	0	90	36.1581920903955	36.241610738255	24	0.800054592043161	2	12	1	NaN	2	4	0.211735715598392	0	1	NaN	39	1	39	2	120	220	320	NaN	520	0.191525669535622	1	0	NaN	1796713.731908	NaN	1796714.7153347	1796715.23188193
12	18	1	0	90	36.1581920903955	36.241610738255	9	0.300020472016186	2	10	1	NaN	2	4	0.211735715598392	0	1	NaN	40	1	40	2	120	220	320	NaN	520	0.387133474461734	2	1	NaN	1796716.2321728	NaN	1796717.2155737	1796717.73212843
12	18	1	0	90	36.1581920903955	36.241610738255	19	0.633376552034169	2	1	5	NaN	1	5	0.211735715598392	0	1	NaN	41	1	41	2	120	220	320	NaN	520	0.718698621727526	1	1	NaN	1796718.9324353	NaN	1796719.9158248	1796720.43239148
12	18	1	0	90	36.1581920903955	36.241610738255	0	0	1	3	2	NaN	1	5	0.211735715598392	0	1	NaN	42	1	42	2	110	210	310	NaN	510	0.35708612180315	1	1	NaN	1796721.9660771	NaN	1796722.949473	1796723.46601448
12	18	1	0	90	36.1581920903955	36.241610738255	12	0.400027296021581	2	3	3	NaN	1	3	0.211735715598392	0	1	NaN	43	1	43	2	120	220	320	NaN	520	0.378466021968052	1	1	NaN	1796724.6329795	NaN	1796725.6163869	1796726.13295418
12	18	1	0	90	36.1581920903955	36.241610738255	20	0.666712160035968	2	8	6	NaN	2	5	0.211735715598392	0	1	NaN	44	1	44	2	120	220	320	NaN	520	0.494004874490201	1	0	NaN	1796727.3332569	NaN	1796728.3166519	1796728.83322103
12	18	1	0	90	36.1581920903955	36.241610738255	14	0.466698512025177	2	8	1	NaN	2	3	0.211735715598392	0	1	NaN	45	1	45	2	120	220	320	NaN	520	0.245561369461939	1	0	NaN	1796730.1500667	NaN	1796731.1336489	1796731.65016053
12	18	1	0	90	36.1581920903955	36.241610738255	7	0.233349256012589	2	6	1	NaN	1	4	0.211735715598392	0	1	NaN	46	1	46	2	120	220	320	NaN	520	0.278726506745443	1	1	NaN	1796732.7003495	NaN	1796733.6838467	1796734.20040739
12	18	1	0	90	36.1581920903955	36.241610738255	25	0.83339020004496	2	2	1	NaN	1	5	0.211735715598392	0	1	NaN	47	1	47	2	120	220	320	NaN	520	0.32698516943492	2	0	NaN	1796735.3007042	NaN	1796736.2841085	1796736.80065653
12	18	1	0	90	36.1581920903955	36.241610738255	18	0.600040944032371	2	4	1	NaN	1	3	0.211735715598392	0	1	NaN	48	1	48	2	120	220	320	NaN	520	0.293364295037463	1	1	NaN	1796737.934321	NaN	1796738.9177046	1796739.4342672
12	18	1	0	90	36.1581920903955	36.241610738255	17	0.566705336030573	2	4	6	NaN	1	3	0.211735715598392	0	1	NaN	49	1	49	2	120	220	320	NaN	520	0.284628527238965	1	1	NaN	1796740.5345829	NaN	1796741.517952	1796742.03451627
12	18	1	0	90	36.1581920903955	36.241610738255	7	0.233349256012589	2	8	4	NaN	2	3	0.211735715598392	0	1	NaN	50	1	50	2	120	220	320	NaN	520	0.0104040696751326	1	0	NaN	1796743.1348353	NaN	1796744.1182058	1796744.63475873
12	18	1	0	90	36.1581920903955	36.241610738255	19	0.633376552034169	2	10	3	NaN	2	3	0.211735715598392	0	1	NaN	51	1	51	2	120	220	320	NaN	520	0.303736194968224	2	1	NaN	1796745.4516874	NaN	1796746.435098	1796746.95166951
12	18	1	0	90	36.1581920903955	36.241610738255	6	0.20001364801079	2	5	1	NaN	1	3	0.211735715598392	0	1	NaN	52	1	52	2	120	220	320	NaN	520	0.183020774507895	2	0	NaN	1796748.0685288	NaN	1796749.0520196	1796749.56859063
12	18	1	0	90	36.1581920903955	36.241610738255	10	0.333356080017984	2	7	2	NaN	2	5	0.211735715598392	0	1	NaN	53	1	53	2	120	220	320	NaN	520	0.290397195145488	2	1	NaN	1796750.5688876	NaN	1796751.5522542	1796752.0688392
12	18	1	0	90	36.1581920903955	36.241610738255	8	0.266684864014387	2	1	6	NaN	1	4	0.211735715598392	0	1	NaN	54	1	54	2	120	220	320	NaN	520	0.0500676219817251	1	1	NaN	1796753.1690113	NaN	1796754.1525262	1796754.66907858
12	18	1	0	90	36.1581920903955	36.241610738255	14	0.466698512025177	2	2	5	NaN	1	4	0.211735715598392	0	1	NaN	55	1	55	2	120	220	320	NaN	520	0.275633322075009	1	1	NaN	1796755.5360272	NaN	1796756.5194303	1796757.03599148
12	18	1	0	90	36.1581920903955	36.241610738255	10	0.333356080017984	2	10	1	NaN	2	4	0.211735715598392	0	1	NaN	56	1	56	2	120	220	320	NaN	520	0.299562816973776	2	1	NaN	1796758.1196369	NaN	1796759.1030088	1796759.61956858
12	18	1	0	90	36.1581920903955	36.241610738255	23	0.766718984041363	2	4	3	NaN	1	5	0.211735715598392	0	1	NaN	57	1	57	2	120	220	320	NaN	520	0.339134269626811	1	1	NaN	1796760.7365565	NaN	1796761.7199361	1796762.23649903
12	18	1	0	90	36.1581920903955	36.241610738255	16	0.533369728028774	2	3	3	NaN	1	3	0.211735715598392	0	1	NaN	58	1	58	2	120	220	320	NaN	520	0.280548221897334	1	1	NaN	1796763.3868181	NaN	1796764.3702011	1796764.88675898
12	18	1	0	90	36.1581920903955	36.241610738255	21	0.700047768037766	2	5	6	NaN	1	3	0.211735715598392	0	1	NaN	59	1	59	2	120	220	320	NaN	520	0.496882669627666	1	1	NaN	1796765.970426	NaN	1796766.9537825	1796767.47034513
12	18	1	0	90	36.1581920903955	36.241610738255	14	0.466698512025177	2	4	5	NaN	1	5	0.211735715598392	0	1	NaN	60	1	60	2	120	220	320	NaN	520	0.328748269472271	1	1	NaN	1796768.7705404	NaN	1796769.7540651	1796770.27061853
12	18	1	0	90	36.1581920903955	36.241610738255	12	0.400027296021581	2	2	2	NaN	1	3	0.211735715598392	0	1	NaN	61	1	61	2	120	220	320	NaN	520	0.310732774669304	1	1	NaN	1796771.4209528	NaN	1796772.4043234	1796772.92088333
12	18	1	0	90	36.1581920903955	36.241610738255	25	0.83339020004496	2	9	4	NaN	2	4	0.211735715598392	0	1	NaN	62	1	62	2	120	220	320	NaN	520	0.853132521966472	1	0	NaN	1796774.0545455	NaN	1796775.0378987	1796775.55447598
12	18	1	0	90	36.1581920903955	36.241610738255	22	0.733383376039565	2	12	4	NaN	2	5	0.211735715598392	0	1	NaN	63	1	63	2	120	220	320	NaN	520	0.493816321948543	1	0	NaN	1796777.2215514	NaN	1796778.2048834	1796778.72144588
12	18	1	0	90	36.1581920903955	36.241610738255	22	0.733383376039565	2	8	2	NaN	2	3	0.211735715598392	0	1	NaN	64	2	1	2	120	220	320	NaN	520	0.137488769367337	2	1	NaN	1796798.4902325	NaN	1796799.4736402	1796799.99020693
12	18	1	0	90	36.1581920903955	36.241610738255	9	0.300020472016186	2	8	3	NaN	2	5	0.211735715598392	0	1	NaN	65	2	2	2	120	220	320	NaN	520	0.241921816952527	2	1	NaN	1796801.0738414	NaN	1796802.0572294	1796802.57380158
12	18	1	0	90	36.1581920903955	36.241610738255	6	0.20001364801079	2	4	6	NaN	1	5	0.211735715598392	0	1	NaN	66	2	3	2	120	220	320	NaN	520	0.0104091693647206	1	1	NaN	1796803.6240768	NaN	1796804.6074832	1796805.12404353
12	18	1	0	90	36.1581920903955	36.241610738255	7	0.233349256012589	2	1	1	NaN	1	4	0.211735715598392	0	1	NaN	67	2	4	2	120	220	320	NaN	520	0.181725269416347	1	1	NaN	1796805.9576428	NaN	1796806.9410342	1796807.45760233
12	18	1	0	90	36.1581920903955	36.241610738255	7	0.233349256012589	2	12	5	NaN	2	3	0.211735715598392	0	1	NaN	68	2	5	2	120	220	320	NaN	520	0.057513669366017	2	1	NaN	1796808.4579043	NaN	1796809.4412897	1796809.95785173
12	18	1	0	90	36.1581920903955	36.241610738255	12	0.400027296021581	2	10	2	NaN	2	5	0.211735715598392	0	1	NaN	69	2	6	2	120	220	320	NaN	520	0.290963721927255	1	0	NaN	1796810.8246633	NaN	1796811.8081884	1796812.32474678
12	18	1	0	90	36.1581920903955	36.241610738255	14	0.466698512025177	2	3	2	NaN	1	3	0.211735715598392	0	1	NaN	70	2	7	2	120	220	320	NaN	520	0.610768169397488	1	1	NaN	1796813.4250597	NaN	1796814.4084357	1796814.92500753
12	18	1	0	90	36.1581920903955	36.241610738255	15	0.500034120026976	2	2	2	NaN	1	5	0.211735715598392	0	1	NaN	71	2	8	2	120	220	320	NaN	520	0.268657106673345	2	0	NaN	1796816.3586909	NaN	1796817.3420543	1796817.85862629
12	18	1	0	90	36.1581920903955	36.241610738255	18	0.600040944032371	2	3	5	NaN	1	4	0.211735715598392	0	1	NaN	72	2	9	2	120	220	320	NaN	520	0.437137289671227	2	0	NaN	1796818.9422686	NaN	1796819.9256471	1796820.44221281
12	18	1	0	90	36.1581920903955	36.241610738255	24	0.800054592043161	2	4	4	NaN	1	3	0.211735715598392	0	1	NaN	73	2	10	2	120	220	320	NaN	520	0.241135032149032	2	0	NaN	1796821.84253	NaN	1796822.8259324	1796823.34249877
12	18	1	0	90	36.1581920903955	36.241610738255	13	0.433362904023379	2	11	3	NaN	2	4	0.211735715598392	0	1	NaN	74	2	11	2	120	220	320	NaN	520	0.274713021935895	2	1	NaN	1796824.3927245	NaN	1796825.3761943	1796825.89275958
12	18	1	0	90	36.1581920903955	36.241610738255	15	0.500034120026976	2	6	6	NaN	1	3	0.211735715598392	0	1	NaN	75	2	12	2	120	220	320	NaN	520	0.283009874634445	1	1	NaN	1796826.9763973	NaN	1796827.9597641	1796828.47634063
12	18	1	0	90	36.1581920903955	36.241610738255	9	0.300020472016186	2	7	5	NaN	2	3	0.211735715598392	0	1	NaN	76	2	13	2	120	220	320	NaN	520	0.347101969644427	2	1	NaN	1796829.5766426	NaN	1796830.5600249	1796831.07659533
12	18	1	0	90	36.1581920903955	36.241610738255	20	0.666712160035968	2	10	5	NaN	2	3	0.211735715598392	0	1	NaN	77	2	14	2	120	220	320	NaN	520	0.215928174555302	1	0	NaN	1796832.2435788	NaN	1796833.227005	1796833.74352213
12	18	1	0	90	36.1581920903955	36.241610738255	22	0.733383376039565	2	5	2	NaN	1	5	0.211735715598392	0	1	NaN	78	2	15	2	120	220	320	NaN	520	0.226641521789134	1	1	NaN	1796834.7771343	NaN	1796835.7605407	1796836.27710438
12	18	1	0	90	36.1581920903955	36.241610738255	0	0	1	4	2	NaN	1	5	0.211735715598392	0	1	NaN	79	2	16	2	110	210	310	NaN	510	0.356374274706468	1	1	NaN	1796837.3273922	NaN	1796838.3108024	1796838.82734653
12	18	1	0	90	36.1581920903955	36.241610738255	7	0.233349256012589	2	2	2	NaN	1	4	0.211735715598392	0	1	NaN	80	2	17	2	120	220	320	NaN	520	0.345457422081381	1	1	NaN	1796839.9942548	NaN	1796840.9777184	1796841.49428508
12	18	1	0	90	36.1581920903955	36.241610738255	11	0.366691688019782	2	9	1	NaN	2	3	0.211735715598392	0	1	NaN	81	2	18	2	120	220	320	NaN	520	1.23029157449491	1	0	NaN	1796842.6612774	NaN	1796843.644668	1796844.16121283
12	18	1	0	90	36.1581920903955	36.241610738255	0	0	1	12	1	NaN	2	3	0.211735715598392	0	1	NaN	82	2	19	2	110	210	310	NaN	510	0.567838212009519	2	1	NaN	1796846.2116182	NaN	1796847.1949545	1796847.71155679
12	18	1	0	90	36.1581920903955	36.241610738255	7	0.233349256012589	2	11	2	NaN	2	4	0.211735715598392	0	1	NaN	83	2	20	2	120	220	320	NaN	520	0.308216021861881	2	1	NaN	1796849.0952427	NaN	1796850.0786089	1796850.59517328
12	18	1	0	90	36.1581920903955	36.241610738255	9	0.300020472016186	2	5	2	NaN	1	3	0.211735715598392	0	1	NaN	84	2	21	2	120	220	320	NaN	520	0.331590421963483	2	0	NaN	1796851.7121549	NaN	1796852.6955552	1796853.21210408
12	18	1	0	90	36.1581920903955	36.241610738255	13	0.433362904023379	2	4	6	NaN	1	4	0.211735715598392	0	1	NaN	85	2	22	2	120	220	320	NaN	520	0.602054721908644	2	0	NaN	1796854.3456126	NaN	1796855.3291364	1796855.84568458
12	18	1	0	90	36.1581920903955	36.241610738255	25	0.83339020004496	2	5	1	NaN	1	3	0.211735715598392	0	1	NaN	86	2	23	2	120	220	320	NaN	520	0.468950216891244	1	1	NaN	1796857.2626771	NaN	1796858.246084	1796858.76263508
12	18	1	0	90	36.1581920903955	36.241610738255	10	0.333356080017984	2	4	3	NaN	1	4	0.211735715598392	0	1	NaN	87	2	24	2	120	220	320	NaN	520	0.269202221883461	1	1	NaN	1796860.0464043	NaN	1796861.0296845	1796861.54624628
12	18	1	0	90	36.1581920903955	36.241610738255	16	0.533369728028774	2	11	6	NaN	2	3	0.211735715598392	0	1	NaN	88	2	25	2	120	220	320	NaN	520	0.43803406949155	1	0	NaN	1796862.6297733	NaN	1796863.6132762	1796864.12984303
12	18	1	0	90	36.1581920903955	36.241610738255	18	0.600040944032371	2	6	1	NaN	1	4	0.211735715598392	0	1	NaN	89	2	26	2	120	220	320	NaN	520	0.839364569401368	1	1	NaN	1796865.3800343	NaN	1796866.3635367	1796866.88011003
12	18	1	0	90	36.1581920903955	36.241610738255	8	0.266684864014387	2	5	4	NaN	1	3	0.211735715598392	0	1	NaN	90	2	27	2	120	220	320	NaN	520	0.272981569403782	1	1	NaN	1796868.530447	NaN	1796869.5138553	1796870.03041953
12	18	1	0	90	36.1581920903955	36.241610738255	25	0.83339020004496	2	11	2	NaN	2	3	0.211735715598392	0	1	NaN	91	2	28	2	120	220	320	NaN	520	0.281782721867785	2	1	NaN	1796871.1139324	NaN	1796872.0974612	1796872.61401008
12	18	1	0	90	36.1581920903955	36.241610738255	10	0.333356080017984	2	3	1	NaN	1	5	0.211735715598392	0	1	NaN	92	2	29	2	120	220	320	NaN	520	0.433541969396174	1	1	NaN	1796873.7143139	NaN	1796874.6977277	1796875.21425803
12	18	1	0	90	36.1581920903955	36.241610738255	21	0.700047768037766	2	8	6	NaN	2	5	0.211735715598392	0	1	NaN	93	2	30	2	120	220	320	NaN	520	0.378985969582573	2	1	NaN	1796876.4645761	NaN	1796877.4479533	1796877.96452523
12	18	1	0	90	36.1581920903955	36.241610738255	18	0.600040944032371	2	11	4	NaN	2	4	0.211735715598392	0	1	NaN	94	2	31	2	120	220	320	NaN	520	0.286843521986157	2	1	NaN	1796879.1648301	NaN	1796880.1482456	1796880.66479898
12	18	1	0	90	36.1581920903955	36.241610738255	23	0.766718984041363	2	7	2	NaN	2	4	0.211735715598392	0	1	NaN	95	2	32	2	120	220	320	NaN	520	0.518291617045179	1	0	NaN	1796881.7650951	NaN	1796882.7484834	1796883.26506408
12	18	1	0	90	36.1581920903955	36.241610738255	19	0.633376552034169	2	9	1	NaN	2	4	0.211735715598392	0	1	NaN	96	2	33	2	120	220	320	NaN	520	0.24489062698558	2	1	NaN	1796884.5987041	NaN	1796885.5821864	1796886.09866197
12	18	1	0	90	36.1581920903955	36.241610738255	10	0.333356080017984	2	6	5	NaN	1	4	0.211735715598392	0	1	NaN	97	2	34	2	120	220	320	NaN	520	1.76636851695366	1	1	NaN	1796887.148824	NaN	1796888.1323631	1796888.64890708
12	18	1	0	90	36.1581920903955	36.241610738255	13	0.433362904023379	2	7	5	NaN	2	3	0.211735715598392	0	1	NaN	98	2	35	2	120	220	320	NaN	520	0.490960364229977	2	1	NaN	1796891.2326831	NaN	1796892.2160868	1796892.73265364
12	18	1	0	90	36.1581920903955	36.241610738255	22	0.733383376039565	2	10	1	NaN	2	5	0.211735715598392	0	1	NaN	99	2	36	2	120	220	320	NaN	520	0.469468442257494	2	1	NaN	1796894.1663316	NaN	1796895.149705	1796895.66628316
12	18	1	0	90	36.1581920903955	36.241610738255	16	0.533369728028774	2	9	1	NaN	2	3	0.211735715598392	0	1	NaN	100	2	37	2	120	220	320	NaN	520	0.397348269587383	2	1	NaN	1796896.9499126	NaN	1796897.933328	1796898.44986903
12	18	1	0	90	36.1581920903955	36.241610738255	8	0.266684864014387	2	7	1	NaN	2	3	0.211735715598392	0	1	NaN	101	2	38	2	120	220	320	NaN	520	0.192641922039911	1	0	NaN	1796899.6669436	NaN	1796900.6502633	1796901.16680148
12	18	1	0	90	36.1581920903955	36.241610738255	0	0	1	11	5	NaN	2	4	0.211735715598392	0	1	NaN	102	2	39	2	110	210	310	NaN	510	0.391374169616029	1	0	NaN	1796902.900488	NaN	1796903.883904	1796904.40045483
12	18	1	0	90	36.1581920903955	36.241610738255	17	0.566705336030573	2	10	4	NaN	2	3	0.211735715598392	0	1	NaN	103	2	40	2	120	220	320	NaN	520	0.0188763218466192	2	1	NaN	1796905.6007955	NaN	1796906.5841467	1796907.10072198
12	18	1	0	90	36.1581920903955	36.241610738255	7	0.233349256012589	2	7	6	NaN	2	4	0.211735715598392	0	1	NaN	104	2	41	2	120	220	320	NaN	520	0.301265721907839	1	0	NaN	1796907.9342136	NaN	1796908.9177294	1796909.43429028
12	18	1	0	90	36.1581920903955	36.241610738255	11	0.366691688019782	2	2	3	NaN	1	4	0.211735715598392	0	1	NaN	105	2	42	2	120	220	320	NaN	520	0.301201422000304	1	1	NaN	1796910.5345906	NaN	1796911.5180289	1796912.03454478
12	18	1	0	90	36.1581920903955	36.241610738255	10	0.333356080017984	2	10	3	NaN	2	4	0.211735715598392	0	1	NaN	106	2	43	2	120	220	320	NaN	520	0.51611902192235	1	0	NaN	1796913.1515062	NaN	1796914.1349109	1796914.65146688
12	18	1	0	90	36.1581920903955	36.241610738255	17	0.566705336030573	2	11	4	NaN	2	3	0.211735715598392	0	1	NaN	107	2	44	2	120	220	320	NaN	520	0.298754069488496	1	0	NaN	1796915.985126	NaN	1796916.9685201	1796917.48507153
12	18	1	0	90	36.1581920903955	36.241610738255	8	0.266684864014387	2	11	2	NaN	2	4	0.211735715598392	0	1	NaN	108	2	45	2	120	220	320	NaN	520	0.433813421986997	1	0	NaN	1796918.6020358	NaN	1796919.5855004	1796920.10200468
12	18	1	0	90	36.1581920903955	36.241610738255	6	0.20001364801079	2	8	4	NaN	2	5	0.211735715598392	0	1	NaN	109	2	46	2	120	220	320	NaN	520	0.0104429642669857	1	0	NaN	1796921.3523169	NaN	1796922.335719	1796922.85226444
12	18	1	0	90	36.1581920903955	36.241610738255	11	0.366691688019782	2	7	4	NaN	2	4	0.211735715598392	0	1	NaN	110	2	47	2	120	220	320	NaN	520	0.35839786962606	1	0	NaN	1796923.6692063	NaN	1796924.6526018	1796925.16916863
12	18	1	0	90	36.1581920903955	36.241610738255	6	0.20001364801079	2	1	3	NaN	1	3	0.211735715598392	0	1	NaN	111	2	48	2	120	220	320	NaN	520	0.283352974569425	2	0	NaN	1796926.3361554	NaN	1796927.3195444	1796927.83609433
12	18	1	0	90	36.1581920903955	36.241610738255	21	0.700047768037766	2	2	6	NaN	1	4	0.211735715598392	0	1	NaN	112	2	49	2	120	220	320	NaN	520	0.267769869416952	1	1	NaN	1796928.9197177	NaN	1796929.9031597	1796930.41968343
12	18	1	0	90	36.1581920903955	36.241610738255	21	0.700047768037766	2	1	3	NaN	1	3	0.211735715598392	0	1	NaN	113	2	50	2	120	220	320	NaN	520	0.468249574536458	1	1	NaN	1796931.5033443	NaN	1796932.4867019	1796933.00327423
12	18	1	0	90	36.1581920903955	36.241610738255	11	0.366691688019782	2	1	1	NaN	1	4	0.211735715598392	0	1	NaN	114	2	51	2	120	220	320	NaN	520	0.63697866955772	2	0	NaN	1796934.2869131	NaN	1796935.270318	1796935.78687833
12	18	1	0	90	36.1581920903955	36.241610738255	18	0.600040944032371	2	9	3	NaN	2	3	0.211735715598392	0	1	NaN	115	2	52	2	120	220	320	NaN	520	2.31081676948816	1	0	NaN	1796937.2372054	NaN	1796938.2206089	1796938.73716623
12	18	1	0	90	36.1581920903955	36.241610738255	11	0.366691688019782	2	1	2	NaN	1	4	0.211735715598392	0	1	NaN	116	2	53	2	120	220	320	NaN	520	0.293246116954833	1	1	NaN	1796941.8543303	NaN	1796942.8377323	1796943.35428918
12	18	1	0	90	36.1581920903955	36.241610738255	16	0.533369728028774	2	8	6	NaN	2	4	0.211735715598392	0	1	NaN	117	2	54	2	120	220	320	NaN	520	0.293367121834308	1	0	NaN	1796944.4545985	NaN	1796945.4379884	1796945.95453738
12	18	1	0	90	36.1581920903955	36.241610738255	12	0.400027296021581	2	8	5	NaN	2	5	0.211735715598392	0	1	NaN	118	2	55	2	120	220	320	NaN	520	0.260137364268303	2	1	NaN	1796947.0715193	NaN	1796948.0549132	1796948.57145504
12	18	1	0	90	36.1581920903955	36.241610738255	8	0.266684864014387	2	6	5	NaN	1	3	0.211735715598392	0	1	NaN	119	2	56	2	120	220	320	NaN	520	0.220836274558678	1	1	NaN	1796949.6550931	NaN	1796950.6385026	1796951.15505723
12	18	1	0	90	36.1581920903955	36.241610738255	14	0.466698512025177	2	5	5	NaN	1	3	0.211735715598392	0	1	NaN	120	2	57	2	120	220	320	NaN	520	0.279356342507526	2	0	NaN	1796952.188668	NaN	1796953.1720699	1796953.68864446
12	18	1	0	90	36.1581920903955	36.241610738255	25	0.83339020004496	2	3	3	NaN	1	4	0.211735715598392	0	1	NaN	121	2	58	2	120	220	320	NaN	520	0.478909621946514	1	1	NaN	1796954.7889355	NaN	1796955.7723985	1796956.28888698
12	18	1	0	90	36.1581920903955	36.241610738255	11	0.366691688019782	2	4	2	NaN	1	3	0.211735715598392	0	1	NaN	122	2	59	2	120	220	320	NaN	520	0.335216169478372	1	1	NaN	1796957.572566	NaN	1796958.5559564	1796959.07249483
12	18	1	0	90	36.1581920903955	36.241610738255	7	0.233349256012589	2	5	5	NaN	1	3	0.211735715598392	0	1	NaN	123	2	60	2	120	220	320	NaN	520	0.404803674668074	1	1	NaN	1796960.2228202	NaN	1796961.2061878	1796961.72276183
12	18	1	0	90	36.1581920903955	36.241610738255	19	0.633376552034169	2	7	6	NaN	2	5	0.211735715598392	0	1	NaN	124	2	61	2	120	220	320	NaN	520	0.399919369490817	2	1	NaN	1796962.9397451	NaN	1796963.9231281	1796964.43969363
12	18	1	0	90	36.1581920903955	36.241610738255	21	0.700047768037766	2	8	2	NaN	2	3	0.211735715598392	0	1	NaN	125	2	62	2	120	220	320	NaN	520	0.371274169534445	2	1	NaN	1796965.6566778	NaN	1796966.640049	1796967.15661703
12	18	1	0	90	36.1581920903955	36.241610738255	16	0.533369728028774	2	8	2	NaN	2	3	0.211735715598392	0	1	NaN	126	2	63	2	120	220	320	NaN	520	0.57521281670779	2	1	NaN	1796968.340148	NaN	1796969.323667	1796969.84021248
12	18	1	0	90	36.1581920903955	36.241610738255	15	0.500034120026976	2	5	6	NaN	1	4	0.211735715598392	0	1	NaN	127	3	1	2	120	220	320	NaN	520	0.389084169408306	1	1	NaN	1797010.3110872	NaN	1797011.2944507	1797011.81100003
12	18	1	0	90	36.1581920903955	36.241610738255	25	0.83339020004496	2	7	6	NaN	2	4	0.211735715598392	0	1	NaN	128	3	2	2	120	220	320	NaN	520	0.272270621731877	1	0	NaN	1797013.0113431	NaN	1797013.9948	1797014.51127308
12	18	1	0	90	36.1581920903955	36.241610738255	21	0.700047768037766	2	11	5	NaN	2	3	0.211735715598392	0	1	NaN	129	3	3	2	120	220	320	NaN	520	0.800486469408497	1	0	NaN	1797015.5949442	NaN	1797016.5782932	1797017.09486453
12	18	1	0	90	36.1581920903955	36.241610738255	24	0.800054592043161	2	1	3	NaN	1	5	0.211735715598392	0	1	NaN	130	3	4	2	120	220	320	NaN	520	0.299865022068843	1	1	NaN	1797018.7118801	NaN	1797019.6952641	1797020.21182738
12	18	1	0	90	36.1581920903955	36.241610738255	19	0.633376552034169	2	8	5	NaN	2	5	0.211735715598392	0	1	NaN	131	3	5	2	120	220	320	NaN	520	0.0589856372680515	2	1	NaN	1797021.328792	NaN	1797022.3122057	1797022.82875736
12	18	1	0	90	36.1581920903955	36.241610738255	6	0.20001364801079	2	6	2	NaN	1	5	0.211735715598392	0	1	NaN	132	3	6	2	120	220	320	NaN	520	0.372464221902192	1	1	NaN	1797023.6956286	NaN	1797024.6790981	1797025.19564888
12	18	1	0	90	36.1581920903955	36.241610738255	25	0.83339020004496	2	12	3	NaN	2	5	0.211735715598392	0	1	NaN	133	3	7	2	120	220	320	NaN	520	0.224419321864843	2	1	NaN	1797026.3793056	NaN	1797027.3627038	1797027.87925658
12	18	1	0	90	36.1581920903955	36.241610738255	9	0.300020472016186	2	1	1	NaN	1	4	0.211735715598392	0	1	NaN	134	3	8	2	120	220	320	NaN	520	0.771134469425306	1	1	NaN	1797028.9129021	NaN	1797029.8962899	1797030.41283533
12	18	1	0	90	36.1581920903955	36.241610738255	13	0.433362904023379	2	12	4	NaN	2	4	0.211735715598392	0	1	NaN	135	3	9	2	120	220	320	NaN	520	0.319061921909451	1	0	NaN	1797031.9965278	NaN	1797032.9799171	1797033.49647378
12	18	1	0	90	36.1581920903955	36.241610738255	13	0.433362904023379	2	10	3	NaN	2	5	0.211735715598392	0	1	NaN	136	3	10	2	120	220	320	NaN	520	0.229937321972102	1	0	NaN	1797034.6301291	NaN	1797035.6134995	1797036.13006418
12	18	1	0	90	36.1581920903955	36.241610738255	0	0	1	5	5	NaN	1	3	0.211735715598392	0	1	NaN	137	3	11	2	110	210	310	NaN	510	0.223442821996287	1	1	NaN	1797037.1803695	NaN	1797038.163662	1797038.68031588
12	18	1	0	90	36.1581920903955	36.241610738255	11	0.366691688019782	2	11	1	NaN	2	3	0.211735715598392	0	1	NaN	138	3	12	2	120	220	320	NaN	520	0.010395921766758	2	1	NaN	1797039.713943	NaN	1797040.6973655	1797041.21388918
12	18	1	0	90	36.1581920903955	36.241610738255	25	0.83339020004496	2	2	6	NaN	1	3	0.211735715598392	0	1	NaN	139	3	13	2	120	220	320	NaN	520	0.220921469619498	2	0	NaN	1797042.030822	NaN	1797043.0142608	1797043.53079513
12	18	1	0	90	36.1581920903955	36.241610738255	20	0.666712160035968	2	7	6	NaN	2	3	0.211735715598392	0	1	NaN	140	3	14	2	120	220	320	NaN	520	0.135358021827415	2	1	NaN	1797044.564448	NaN	1797045.5478723	1797046.06436718
12	18	1	0	90	36.1581920903955	36.241610738255	15	0.500034120026976	2	8	1	NaN	2	4	0.211735715598392	0	1	NaN	141	3	15	2	120	220	320	NaN	520	0.101043917005882	2	1	NaN	1797047.0146416	NaN	1797047.998069	1797048.51460968
12	18	1	0	90	36.1581920903955	36.241610738255	22	0.733383376039565	2	3	1	NaN	1	4	0.211735715598392	0	1	NaN	142	3	16	2	120	220	320	NaN	520	0.108321422012523	2	0	NaN	1797049.4315396	NaN	1797050.4149473	1797050.93151348
12	18	1	0	90	36.1581920903955	36.241610738255	17	0.566705336030573	2	5	4	NaN	1	3	0.211735715598392	0	1	NaN	143	3	17	2	120	220	320	NaN	520	0.283194327028468	1	1	NaN	1797051.8483434	NaN	1797052.8318598	1797053.34842197
12	18	1	0	90	36.1581920903955	36.241610738255	20	0.666712160035968	2	9	6	NaN	2	5	0.211735715598392	0	1	NaN	144	3	18	2	120	220	320	NaN	520	0.123018221929669	2	1	NaN	1797054.4487111	NaN	1797055.4321313	1797055.94867728
12	18	1	0	90	36.1581920903955	36.241610738255	18	0.600040944032371	2	7	3	NaN	2	5	0.211735715598392	0	1	NaN	145	3	19	2	120	220	320	NaN	520	0.425553721841425	2	1	NaN	1797056.882363	NaN	1797057.8656896	1797058.38225338
12	18	1	0	90	36.1581920903955	36.241610738255	7	0.233349256012589	2	5	1	NaN	1	4	0.211735715598392	0	1	NaN	146	3	20	2	120	220	320	NaN	520	0.395831821952015	1	1	NaN	1797059.6159003	NaN	1797060.599288	1797061.11584388
12	18	1	0	90	36.1581920903955	36.241610738255	23	0.766718984041363	2	9	6	NaN	2	5	0.211735715598392	0	1	NaN	147	3	21	2	120	220	320	NaN	520	0.278757521882653	2	1	NaN	1797062.3328227	NaN	1797063.3162293	1797063.83278928
12	18	1	0	90	36.1581920903955	36.241610738255	23	0.766718984041363	2	7	3	NaN	2	5	0.211735715598392	0	1	NaN	148	3	22	2	120	220	320	NaN	520	0.102416974492371	2	1	NaN	1797064.9330863	NaN	1797065.9164784	1797066.43304563
12	18	1	0	90	36.1581920903955	36.241610738255	7	0.233349256012589	2	9	4	NaN	2	5	0.211735715598392	0	1	NaN	149	3	23	2	120	220	320	NaN	520	0.302124769426882	1	0	NaN	1797067.3499824	NaN	1797068.3333901	1797068.84994853
12	18	1	0	90	36.1581920903955	36.241610738255	12	0.400027296021581	2	5	4	NaN	1	4	0.211735715598392	0	1	NaN	150	3	24	2	120	220	320	NaN	520	0.0103859219234437	2	0	NaN	1797069.9669355	NaN	1797070.9503468	1797071.46686468
12	18	1	0	90	36.1581920903955	36.241610738255	16	0.533369728028774	2	12	2	NaN	2	3	0.211735715598392	0	1	NaN	151	3	25	2	120	220	320	NaN	520	0.264267616905272	2	1	NaN	1797072.2838119	NaN	1797073.2672548	1797073.78375778
12	18	1	0	90	36.1581920903955	36.241610738255	8	0.266684864014387	2	5	6	NaN	1	4	0.211735715598392	0	1	NaN	152	3	26	2	120	220	320	NaN	520	0.224488169420511	1	1	NaN	1797074.8674153	NaN	1797075.8507106	1797076.36735213
12	18	1	0	90	36.1581920903955	36.241610738255	7	0.233349256012589	2	10	4	NaN	2	5	0.211735715598392	0	1	NaN	153	3	27	2	120	220	320	NaN	520	0.426765369484201	2	1	NaN	1797077.4009804	NaN	1797078.3843758	1797078.90093653
12	18	1	0	90	36.1581920903955	36.241610738255	12	0.400027296021581	2	1	5	NaN	1	3	0.211735715598392	0	1	NaN	154	3	28	2	120	220	320	NaN	520	0.700475821970031	1	1	NaN	1797080.1512707	NaN	1797081.1346529	1797081.65119638
12	18	1	0	90	36.1581920903955	36.241610738255	0	0	1	7	2	NaN	2	4	0.211735715598392	0	1	NaN	155	3	29	2	110	210	310	NaN	510	0.699600621825084	1	0	NaN	1797083.168095	NaN	1797084.1516143	1797084.66816978
12	18	1	0	90	36.1581920903955	36.241610738255	22	0.733383376039565	2	2	2	NaN	1	3	0.211735715598392	0	1	NaN	156	3	30	2	120	220	320	NaN	520	0.114491921849549	1	1	NaN	1797086.1851667	NaN	1797087.1685565	1797087.68512718
12	18	1	0	90	36.1581920903955	36.241610738255	7	0.233349256012589	2	4	6	NaN	1	5	0.211735715598392	0	1	NaN	157	3	31	2	120	220	320	NaN	520	0.0570869168732315	2	0	NaN	1797088.618741	NaN	1797089.6021265	1797090.11869718
12	18	1	0	90	36.1581920903955	36.241610738255	8	0.266684864014387	2	10	1	NaN	2	3	0.211735715598392	0	1	NaN	158	3	32	2	120	220	320	NaN	520	0.322294521844015	2	1	NaN	1797090.9856776	NaN	1797091.9690287	1797092.48559598
12	18	1	0	90	36.1581920903955	36.241610738255	9	0.300020472016186	2	1	2	NaN	1	4	0.211735715598392	0	1	NaN	159	3	33	2	120	220	320	NaN	520	0.12852526945062	1	1	NaN	1797093.6192285	NaN	1797094.6026398	1797095.11919003
12	18	1	0	90	36.1581920903955	36.241610738255	25	0.83339020004496	2	1	1	NaN	1	5	0.211735715598392	0	1	NaN	160	3	34	2	120	220	320	NaN	520	0.110325474524871	1	1	NaN	1797096.0694612	NaN	1797097.05288	1797097.56943743
12	18	1	0	90	36.1581920903955	36.241610738255	23	0.766718984041363	2	2	3	NaN	1	4	0.211735715598392	0	1	NaN	161	3	35	2	120	220	320	NaN	520	0.445723121752962	1	1	NaN	1797098.4864089	NaN	1797099.4697796	1797099.98634058
12	18	1	0	90	36.1581920903955	36.241610738255	11	0.366691688019782	2	8	4	NaN	2	3	0.211735715598392	0	1	NaN	162	3	36	2	120	220	320	NaN	520	0.0302424745168537	2	1	NaN	1797101.2533348	NaN	1797102.2367298	1797102.75328063
12	18	1	0	90	36.1581920903955	36.241610738255	17	0.566705336030573	2	8	5	NaN	2	3	0.211735715598392	0	1	NaN	163	3	37	2	120	220	320	NaN	520	0.0103838795330375	2	1	NaN	1797103.6035567	NaN	1797104.5870161	1797105.10350212
12	18	1	0	90	36.1581920903955	36.241610738255	23	0.766718984041363	2	2	2	NaN	1	4	0.211735715598392	0	1	NaN	164	3	38	2	120	220	320	NaN	520	0.251732421806082	1	1	NaN	1797105.9204772	NaN	1797106.9038453	1797107.42039068
12	18	1	0	90	36.1581920903955	36.241610738255	25	0.83339020004496	2	9	2	NaN	2	4	0.211735715598392	0	1	NaN	165	3	39	2	120	220	320	NaN	520	0.172458769520745	2	1	NaN	1797108.4873752	NaN	1797109.4707454	1797109.98732673
12	18	1	0	90	36.1581920903955	36.241610738255	17	0.566705336030573	2	7	6	NaN	2	4	0.211735715598392	0	1	NaN	166	3	40	2	120	220	320	NaN	520	0.712850821902975	2	1	NaN	1797110.9710073	NaN	1797111.9544394	1797112.47089428
12	18	1	0	90	36.1581920903955	36.241610738255	21	0.700047768037766	2	12	6	NaN	2	3	0.211735715598392	0	1	NaN	167	3	41	2	120	220	320	NaN	520	0.167259316891432	2	1	NaN	1797114.0045642	NaN	1797114.9879791	1797115.50452748
12	18	1	0	90	36.1581920903955	36.241610738255	22	0.733383376039565	2	11	4	NaN	2	5	0.211735715598392	0	1	NaN	168	3	42	2	120	220	320	NaN	520	0.299525222042575	2	1	NaN	1797116.4881643	NaN	1797117.4715342	1797117.98809898
12	18	1	0	90	36.1581920903955	36.241610738255	16	0.533369728028774	2	3	6	NaN	1	5	0.211735715598392	0	1	NaN	169	3	43	2	120	220	320	NaN	520	0.210839721839875	2	0	NaN	1797119.1050628	NaN	1797120.0884809	1797120.60503098
12	18	1	0	90	36.1581920903955	36.241610738255	19	0.633376552034169	2	12	5	NaN	2	4	0.211735715598392	0	1	NaN	170	3	44	2	120	220	320	NaN	520	0.133635421982035	2	1	NaN	1797121.6386759	NaN	1797122.6220431	1797123.13861108
12	18	1	0	90	36.1581920903955	36.241610738255	25	0.83339020004496	2	6	4	NaN	1	5	0.211735715598392	0	1	NaN	171	3	45	2	120	220	320	NaN	520	0.0104162169154733	1	1	NaN	1797124.0888947	NaN	1797125.0723152	1797125.58884658
12	18	1	0	90	36.1581920903955	36.241610738255	7	0.233349256012589	2	4	2	NaN	1	5	0.211735715598392	0	1	NaN	172	3	46	2	120	220	320	NaN	520	0.269731669686735	1	1	NaN	1797126.4224753	NaN	1797127.4058629	1797127.92240943
12	18	1	0	90	36.1581920903955	36.241610738255	7	0.233349256012589	2	7	5	NaN	2	3	0.211735715598392	0	1	NaN	173	3	47	2	120	220	320	NaN	520	0.26971686957404	2	1	NaN	1797129.0060623	NaN	1797129.9894441	1797130.50599183
12	18	1	0	90	36.1581920903955	36.241610738255	0	0	1	12	6	NaN	2	5	0.211735715598392	0	1	NaN	174	3	48	2	110	210	310	NaN	510	0.158114774618298	2	1	NaN	1797131.5896306	NaN	1797132.5730394	1797133.08959303
12	18	1	0	90	36.1581920903955	36.241610738255	22	0.733383376039565	2	7	3	NaN	2	3	0.211735715598392	0	1	NaN	175	3	49	2	120	220	320	NaN	520	0.067443321691826	1	0	NaN	1797134.056416	NaN	1797135.0399563	1797135.55650228
12	18	1	0	90	36.1581920903955	36.241610738255	23	0.766718984041363	2	9	3	NaN	2	3	0.211735715598392	0	1	NaN	176	3	50	2	120	220	320	NaN	520	0.203795321984217	1	0	NaN	1797136.4401075	NaN	1797137.4234932	1797137.94006498
12	18	1	0	90	36.1581920903955	36.241610738255	19	0.633376552034169	2	11	1	NaN	2	3	0.211735715598392	0	1	NaN	177	3	51	2	120	220	320	NaN	520	0.255241521866992	2	1	NaN	1797138.9570386	NaN	1797139.9404457	1797140.45698168
12	18	1	0	90	36.1581920903955	36.241610738255	20	0.666712160035968	2	12	6	NaN	2	3	0.211735715598392	0	1	NaN	178	3	52	2	120	220	320	NaN	520	0.759996469598264	2	1	NaN	1797141.523972	NaN	1797142.5073321	1797143.02389663
12	18	1	0	90	36.1581920903955	36.241610738255	25	0.83339020004496	2	10	2	NaN	2	5	0.211735715598392	0	1	NaN	179	3	53	2	120	220	320	NaN	520	0.0104097696021199	1	0	NaN	1797144.5909045	NaN	1797145.5743061	1797146.09086903
12	18	1	0	90	36.1581920903955	36.241610738255	10	0.333356080017984	2	8	3	NaN	2	4	0.211735715598392	0	1	NaN	180	3	54	2	120	220	320	NaN	520	1.88019764237106	2	1	NaN	1797146.9078258	NaN	1797147.8911907	1797148.40776506
12	18	1	0	90	36.1581920903955	36.241610738255	14	0.466698512025177	2	9	5	NaN	2	4	0.211735715598392	0	1	NaN	181	3	55	2	120	220	320	NaN	520	0.0883649217430502	2	1	NaN	1797151.0915447	NaN	1797152.0749471	1797152.59150608
12	18	1	0	90	36.1581920903955	36.241610738255	17	0.566705336030573	2	4	1	NaN	1	4	0.211735715598392	0	1	NaN	182	3	56	2	120	220	320	NaN	520	0.010523916920647	1	1	NaN	1797153.4916634	NaN	1797154.4751861	1797154.99173438
12	18	1	0	90	36.1581920903955	36.241610738255	23	0.766718984041363	2	6	1	NaN	1	5	0.211735715598392	0	1	NaN	183	3	57	2	120	220	320	NaN	520	1.34662472177297	1	1	NaN	1797155.825354	NaN	1797156.8087573	1797157.32530728
12	18	1	0	90	36.1581920903955	36.241610738255	18	0.600040944032371	2	2	4	NaN	1	3	0.211735715598392	0	1	NaN	184	3	58	2	120	220	320	NaN	520	0.0103891219478101	1	1	NaN	1797159.4757243	NaN	1797160.4590892	1797160.97565478
12	18	1	0	90	36.1581920903955	36.241610738255	10	0.333356080017984	2	5	4	NaN	1	4	0.211735715598392	0	1	NaN	185	3	59	2	120	220	320	NaN	520	0.363624721998349	1	1	NaN	1797161.7925946	NaN	1797162.7759835	1797163.29255698
12	18	1	0	90	36.1581920903955	36.241610738255	12	0.400027296021581	2	7	2	NaN	2	5	0.211735715598392	0	1	NaN	186	3	60	2	120	220	320	NaN	520	0.0102544950786978	1	0	NaN	1797164.4595484	NaN	1797165.4428192	1797165.95948671
12	18	1	0	90	36.1581920903955	36.241610738255	23	0.766718984041363	2	12	3	NaN	2	3	0.211735715598392	0	1	NaN	187	3	61	2	120	220	320	NaN	520	0.139416669495404	1	0	NaN	1797166.7764893	NaN	1797167.7598239	1797168.27637943
12	18	1	0	90	36.1581920903955	36.241610738255	17	0.566705336030573	2	7	1	NaN	2	5	0.211735715598392	0	1	NaN	188	3	62	2	120	220	320	NaN	520	0.0104065693449229	2	1	NaN	1797169.2266635	NaN	1797170.2100637	1797170.72662063
12	18	1	0	90	36.1581920903955	36.241610738255	16	0.533369728028774	2	10	6	NaN	2	3	0.211735715598392	0	1	NaN	189	3	63	2	120	220	320	NaN	520	0.15570482192561	2	1	NaN	1797171.5602154	NaN	1797172.5436155	1797173.06018258
12	18	1	0	90	36.1581920903955	36.241610738255	23	0.766718984041363	2	5	3	NaN	1	4	0.211735715598392	0	1	NaN	190	4	1	2	120	220	320	NaN	520	0.0103881219401956	1	1	NaN	1797177.3441282	NaN	1797178.3275173	1797178.84408138
12	18	1	0	90	36.1581920903955	36.241610738255	12	0.400027296021581	2	7	4	NaN	2	4	0.211735715598392	0	1	NaN	191	4	2	2	120	220	320	NaN	520	1.91870707459748	1	0	NaN	1797179.6610241	NaN	1797180.6444185	1797181.16097323
12	18	1	0	90	36.1581920903955	36.241610738255	22	0.733383376039565	2	9	6	NaN	2	3	0.211735715598392	0	1	NaN	192	4	3	2	120	220	320	NaN	520	0.0104246169794351	2	1	NaN	1797183.8947551	NaN	1797184.8781736	1797185.39471468
12	18	1	0	90	36.1581920903955	36.241610738255	18	0.600040944032371	2	1	5	NaN	1	3	0.211735715598392	0	1	NaN	193	4	4	2	120	220	320	NaN	520	1.15188442193903	1	1	NaN	1797186.2283337	NaN	1797187.2117288	1797187.72828218
12	18	1	0	90	36.1581920903955	36.241610738255	19	0.633376552034169	2	3	4	NaN	1	3	0.211735715598392	0	1	NaN	194	4	5	2	120	220	320	NaN	520	0.0104056694544852	2	0	NaN	1797189.6952523	NaN	1797190.678747	1797191.19529423
12	18	1	0	90	36.1581920903955	36.241610738255	0	0	1	8	4	NaN	2	4	0.211735715598392	0	1	NaN	195	4	6	2	110	210	310	NaN	510	0.311730674700812	1	0	NaN	1797192.0122491	NaN	1797192.9956437	1797193.51218713
12	18	1	0	90	36.1581920903955	36.241610738255	25	0.83339020004496	2	10	2	NaN	2	3	0.211735715598392	0	1	NaN	196	4	7	2	120	220	320	NaN	520	0.334457769524306	1	0	NaN	1797194.6458154	NaN	1797195.6292125	1797196.14578203
12	18	1	0	90	36.1581920903955	36.241610738255	14	0.466698512025177	2	4	1	NaN	1	3	0.211735715598392	0	1	NaN	197	4	8	2	120	220	320	NaN	520	0.331907164305449	1	1	NaN	1797197.2961892	NaN	1797198.2794953	1797198.79604214
12	18	1	0	90	36.1581920903955	36.241610738255	23	0.766718984041363	2	10	5	NaN	2	3	0.211735715598392	0	1	NaN	198	4	9	2	120	220	320	NaN	520	0.30561091681011	2	1	NaN	1797199.9463413	NaN	1797200.9297481	1797201.44630318
12	18	1	0	90	36.1581920903955	36.241610738255	10	0.333356080017984	2	1	1	NaN	1	5	0.211735715598392	0	1	NaN	199	4	10	2	120	220	320	NaN	520	0.232537821866572	1	1	NaN	1797202.5632945	NaN	1797203.5466588	1797204.06322828
12	18	1	0	90	36.1581920903955	36.241610738255	14	0.466698512025177	2	11	1	NaN	2	3	0.211735715598392	0	1	NaN	200	4	11	2	120	220	320	NaN	520	0.0264394374098629	2	1	NaN	1797205.1135175	NaN	1797206.0969269	1797206.61347866
12	18	1	0	90	36.1581920903955	36.241610738255	10	0.333356080017984	2	3	3	NaN	1	5	0.211735715598392	0	1	NaN	201	4	12	2	120	220	320	NaN	520	0.148527221754193	1	1	NaN	1797207.4637604	NaN	1797208.4471446	1797208.96370248
12	18	1	0	90	36.1581920903955	36.241610738255	16	0.533369728028774	2	2	2	NaN	1	4	0.211735715598392	0	1	NaN	202	4	13	2	120	220	320	NaN	520	0.22559682186693	1	1	NaN	1797209.9306791	NaN	1797210.9140551	1797211.43061878
12	18	1	0	90	36.1581920903955	36.241610738255	17	0.566705336030573	2	6	2	NaN	1	3	0.211735715598392	0	1	NaN	203	4	14	2	120	220	320	NaN	520	0.348046216880903	1	1	NaN	1797212.4642931	NaN	1797213.4476331	1797213.96420288
12	18	1	0	90	36.1581920903955	36.241610738255	21	0.700047768037766	2	10	3	NaN	2	4	0.211735715598392	0	1	NaN	204	4	15	2	120	220	320	NaN	520	0.28917997982353	2	1	NaN	1797215.1311601	NaN	1797216.1145527	1797216.63112272
12	18	1	0	90	36.1581920903955	36.241610738255	8	0.266684864014387	2	2	4	NaN	1	3	0.211735715598392	0	1	NaN	205	4	16	2	120	220	320	NaN	520	0.208470521960407	1	1	NaN	1797217.7314277	NaN	1797218.71481	1797219.23137538
12	18	1	0	90	36.1581920903955	36.241610738255	19	0.633376552034169	2	8	3	NaN	2	3	0.211735715598392	0	1	NaN	206	4	17	2	120	220	320	NaN	520	0.523781421827152	1	0	NaN	1797220.2483425	NaN	1797221.2317303	1797221.74829078
12	18	1	0	90	36.1581920903955	36.241610738255	0	0	1	8	4	NaN	2	3	0.211735715598392	0	1	NaN	207	4	18	2	110	210	310	NaN	510	0.242406974546611	2	1	NaN	1797223.0819725	NaN	1797224.0653589	1797224.58190473
12	18	1	0	90	36.1581920903955	36.241610738255	15	0.500034120026976	2	4	5	NaN	1	5	0.211735715598392	0	1	NaN	208	4	19	2	120	220	320	NaN	520	0.203689016867429	1	1	NaN	1797225.6321854	NaN	1797226.6155983	1797227.13214878
12	18	1	0	90	36.1581920903955	36.241610738255	20	0.666712160035968	2	3	6	NaN	1	3	0.211735715598392	0	1	NaN	209	4	20	2	120	220	320	NaN	520	0.247224769555032	1	1	NaN	1797228.1491361	NaN	1797229.1325017	1797229.64906203
12	18	1	0	90	36.1581920903955	36.241610738255	11	0.366691688019782	2	12	4	NaN	2	5	0.211735715598392	0	1	NaN	210	4	21	2	120	220	320	NaN	520	0.183880469528958	2	1	NaN	1797230.716048	NaN	1797231.6994173	1797232.21599283
12	18	1	0	90	36.1581920903955	36.241610738255	20	0.666712160035968	2	2	3	NaN	1	5	0.211735715598392	0	1	NaN	211	4	22	2	120	220	320	NaN	520	0.0917235694359988	1	1	NaN	1797233.2162898	NaN	1797234.1996727	1797234.71622633
12	18	1	0	90	36.1581920903955	36.241610738255	20	0.666712160035968	2	8	2	NaN	2	4	0.211735715598392	0	1	NaN	212	4	23	2	120	220	320	NaN	520	0.259310721885413	2	1	NaN	1797235.6165114	NaN	1797236.5999284	1797237.11646588
12	18	1	0	90	36.1581920903955	36.241610738255	14	0.466698512025177	2	7	4	NaN	2	4	0.211735715598392	0	1	NaN	213	4	24	2	120	220	320	NaN	520	0.404640521854162	2	1	NaN	1797238.1834633	NaN	1797239.1668284	1797239.68338968
12	18	1	0	90	36.1581920903955	36.241610738255	11	0.366691688019782	2	8	4	NaN	2	4	0.211735715598392	0	1	NaN	214	4	25	2	120	220	320	NaN	520	0.311621816828847	2	1	NaN	1797240.9003926	NaN	1797241.8837491	1797242.40032688
12	18	1	0	90	36.1581920903955	36.241610738255	9	0.300020472016186	2	12	2	NaN	2	5	0.211735715598392	0	1	NaN	215	4	26	2	120	220	320	NaN	520	0.206073495093733	1	0	NaN	1797243.5339846	NaN	1797244.5173711	1797245.03392601
12	18	1	0	90	36.1581920903955	36.241610738255	10	0.333356080017984	2	12	3	NaN	2	3	0.211735715598392	0	1	NaN	216	4	27	2	120	220	320	NaN	520	0.0650121897924691	2	1	NaN	1797246.0508756	NaN	1797247.0342709	1797247.55083561
12	18	1	0	90	36.1581920903955	36.241610738255	12	0.400027296021581	2	11	5	NaN	2	4	0.211735715598392	0	1	NaN	217	4	28	2	120	220	320	NaN	520	0.249939821893349	2	1	NaN	1797248.4343486	NaN	1797249.4178259	1797249.93439668
12	18	1	0	90	36.1581920903955	36.241610738255	22	0.733383376039565	2	12	1	NaN	2	3	0.211735715598392	0	1	NaN	218	4	29	2	120	220	320	NaN	520	0.195050069596618	2	1	NaN	1797251.0013616	NaN	1797251.9847421	1797252.50131673
12	18	1	0	90	36.1581920903955	36.241610738255	23	0.766718984041363	2	8	3	NaN	2	3	0.211735715598392	0	1	NaN	219	4	30	2	120	220	320	NaN	520	0.0104304170235991	2	1	NaN	1797253.5016229	NaN	1797254.484984	1797255.00155878
12	18	1	0	90	36.1581920903955	36.241610738255	13	0.433362904023379	2	3	1	NaN	1	5	0.211735715598392	0	1	NaN	220	4	31	2	120	220	320	NaN	520	0.0102714423555881	2	0	NaN	1797255.8184956	NaN	1797256.8019263	1797257.31845236
12	18	1	0	90	36.1581920903955	36.241610738255	25	0.83339020004496	2	1	2	NaN	1	5	0.211735715598392	0	1	NaN	221	4	32	2	120	220	320	NaN	520	0.0103894746862352	1	1	NaN	1797258.1520759	NaN	1797259.1354521	1797259.65201533
12	18	1	0	90	36.1581920903955	36.241610738255	24	0.800054592043161	2	2	1	NaN	1	4	0.211735715598392	0	1	NaN	222	4	33	2	120	220	320	NaN	520	0.21546261687763	1	1	NaN	1797260.4689422	NaN	1797261.4523414	1797261.96890288
12	18	1	0	90	36.1581920903955	36.241610738255	10	0.333356080017984	2	5	6	NaN	1	5	0.211735715598392	0	1	NaN	223	4	34	2	120	220	320	NaN	520	0.90559732192196	1	1	NaN	1797263.0025605	NaN	1797263.9859261	1797264.50249148
12	18	1	0	90	36.1581920903955	36.241610738255	17	0.566705336030573	2	9	2	NaN	2	4	0.211735715598392	0	1	NaN	224	4	35	2	120	220	320	NaN	520	0.104290421819314	2	1	NaN	1797266.219524	NaN	1797267.2029084	1797267.71948008
12	18	1	0	90	36.1581920903955	36.241610738255	11	0.366691688019782	2	6	6	NaN	1	3	0.211735715598392	0	1	NaN	225	4	36	2	120	220	320	NaN	520	0.0103958218824118	1	1	NaN	1797268.636502	NaN	1797269.6198378	1797270.13638238
12	18	1	0	90	36.1581920903955	36.241610738255	18	0.600040944032371	2	8	1	NaN	2	3	0.211735715598392	0	1	NaN	226	4	37	2	120	220	320	NaN	520	0.290460816817358	2	1	NaN	1797270.9532004	NaN	1797271.9367114	1797272.45327228
12	18	1	0	90	36.1581920903955	36.241610738255	23	0.766718984041363	2	6	1	NaN	1	3	0.211735715598392	0	1	NaN	227	4	38	2	120	220	320	NaN	520	0.226450421847403	1	1	NaN	1797273.5536029	NaN	1797274.5370042	1797275.05353458
12	18	1	0	90	36.1581920903955	36.241610738255	18	0.600040944032371	2	10	3	NaN	2	4	0.211735715598392	0	1	NaN	228	4	39	2	120	220	320	NaN	520	0.0443116168025881	2	1	NaN	1797276.1038374	NaN	1797277.0872066	1797277.60377468
12	18	1	0	90	36.1581920903955	36.241610738255	6	0.20001364801079	2	11	6	NaN	2	3	0.211735715598392	0	1	NaN	229	4	40	2	120	220	320	NaN	520	0.278325321851298	2	1	NaN	1797278.4540776	NaN	1797279.4374606	1797279.95401418
12	18	1	0	90	36.1581920903955	36.241610738255	17	0.566705336030573	2	5	2	NaN	1	4	0.211735715598392	0	1	NaN	230	4	41	2	120	220	320	NaN	520	0.246164669515565	1	1	NaN	1797281.0543056	NaN	1797282.0377253	1797282.55426773
12	18	1	0	90	36.1581920903955	36.241610738255	19	0.633376552034169	2	4	1	NaN	1	4	0.211735715598392	0	1	NaN	231	4	42	2	120	220	320	NaN	520	0.199008269468322	1	1	NaN	1797283.6212283	NaN	1797284.6046389	1797285.12118343
12	18	1	0	90	36.1581920903955	36.241610738255	7	0.233349256012589	2	12	4	NaN	2	5	0.211735715598392	0	1	NaN	232	4	43	2	120	220	320	NaN	520	0.676120774587616	1	0	NaN	1797286.4880531	NaN	1797287.4715739	1797287.98813883
12	18	1	0	90	36.1581920903955	36.241610738255	11	0.366691688019782	2	6	3	NaN	1	4	0.211735715598392	0	1	NaN	233	4	44	2	120	220	320	NaN	520	0.347525321878493	1	1	NaN	1797289.4884964	NaN	1797290.4718565	1797290.98842978
12	18	1	0	90	36.1581920903955	36.241610738255	23	0.766718984041363	2	5	2	NaN	1	5	0.211735715598392	0	1	NaN	234	4	45	2	120	220	320	NaN	520	0.352861216990277	2	0	NaN	1797292.1554136	NaN	1797293.1388146	1797293.65534698
12	18	1	0	90	36.1581920903955	36.241610738255	12	0.400027296021581	2	2	3	NaN	1	3	0.211735715598392	0	1	NaN	235	4	46	2	120	220	320	NaN	520	0.245838969480246	2	0	NaN	1797294.8223403	NaN	1797295.8057254	1797296.32228133
12	18	1	0	90	36.1581920903955	36.241610738255	16	0.533369728028774	2	12	5	NaN	2	5	0.211735715598392	0	1	NaN	236	4	47	2	120	220	320	NaN	520	0.270826921798289	2	1	NaN	1797297.3892444	NaN	1797298.3726261	1797298.88920728
12	18	1	0	90	36.1581920903955	36.241610738255	18	0.600040944032371	2	6	6	NaN	1	5	0.211735715598392	0	1	NaN	237	4	48	2	120	220	320	NaN	520	0.191416469635442	1	1	NaN	1797299.9727066	NaN	1797300.9562274	1797301.47278713
12	18	1	0	90	36.1581920903955	36.241610738255	7	0.233349256012589	2	6	4	NaN	1	5	0.211735715598392	0	1	NaN	238	4	49	2	120	220	320	NaN	520	0.434961121762171	1	1	NaN	1797302.4730697	NaN	1797303.456469	1797303.97304018
12	18	1	0	90	36.1581920903955	36.241610738255	21	0.700047768037766	2	10	3	NaN	2	4	0.211735715598392	0	1	NaN	239	4	50	2	120	220	320	NaN	520	0.0103781744837761	2	1	NaN	1797305.2232289	NaN	1797306.2067466	1797306.72330963
12	18	1	0	90	36.1581920903955	36.241610738255	18	0.600040944032371	2	4	3	NaN	1	4	0.211735715598392	0	1	NaN	240	4	51	2	120	220	320	NaN	520	0.287454369477928	2	0	NaN	1797307.5569169	NaN	1797308.5403101	1797309.05686763
12	18	1	0	90	36.1581920903955	36.241610738255	19	0.633376552034169	2	7	5	NaN	2	4	0.211735715598392	0	1	NaN	241	4	52	2	120	220	320	NaN	520	0.279090469470248	2	1	NaN	1797310.1570381	NaN	1797311.1405522	1797311.65712273
12	18	1	0	90	36.1581920903955	36.241610738255	18	0.600040944032371	2	9	3	NaN	2	4	0.211735715598392	0	1	NaN	242	4	53	2	120	220	320	NaN	520	0.406643616734073	2	1	NaN	1797312.7574282	NaN	1797313.7408112	1797314.25737928
12	18	1	0	90	36.1581920903955	36.241610738255	21	0.700047768037766	2	1	6	NaN	1	4	0.211735715598392	0	1	NaN	243	4	54	2	120	220	320	NaN	520	0.473898721858859	2	0	NaN	1797315.4744	NaN	1797316.4577414	1797316.97431438
12	18	1	0	90	36.1581920903955	36.241610738255	8	0.266684864014387	2	11	4	NaN	2	5	0.211735715598392	0	1	NaN	244	4	55	2	120	220	320	NaN	520	0.146082869498059	2	1	NaN	1797318.2579708	NaN	1797319.241362	1797319.75792283
12	18	1	0	90	36.1581920903955	36.241610738255	10	0.333356080017984	2	1	4	NaN	1	3	0.211735715598392	0	1	NaN	245	4	56	2	120	220	320	NaN	520	0.287603421835229	2	0	NaN	1797320.724879	NaN	1797321.7082788	1797322.22482758
12	18	1	0	90	36.1581920903955	36.241610738255	11	0.366691688019782	2	12	6	NaN	2	5	0.211735715598392	0	1	NaN	246	4	57	2	120	220	320	NaN	520	0.0104325169231743	1	0	NaN	1797323.3251139	NaN	1797324.3085252	1797324.82507328
12	18	1	0	90	36.1581920903955	36.241610738255	9	0.300020472016186	2	7	3	NaN	2	4	0.211735715598392	0	1	NaN	247	4	58	2	120	220	320	NaN	520	0.666045321850106	1	0	NaN	1797325.6419224	NaN	1797326.6254352	1797327.14197538
12	18	1	0	90	36.1581920903955	36.241610738255	11	0.366691688019782	2	5	6	NaN	1	5	0.211735715598392	0	1	NaN	248	4	59	2	120	220	320	NaN	520	0.338408421957865	2	0	NaN	1797328.6256485	NaN	1797329.6090379	1797330.12560558
12	18	1	0	90	36.1581920903955	36.241610738255	24	0.800054592043161	2	6	4	NaN	1	4	0.211735715598392	0	1	NaN	249	4	60	2	120	220	320	NaN	520	0.384549021953717	1	1	NaN	1797331.2759114	NaN	1797332.2593143	1797332.77586398
12	18	1	0	90	36.1581920903955	36.241610738255	0	0	1	9	4	NaN	2	5	0.211735715598392	0	1	NaN	250	4	61	2	110	210	310	NaN	510	0.956282221945003	1	0	NaN	1797333.9761842	NaN	1797334.959567	1797335.47613168
12	18	1	0	90	36.1581920903955	36.241610738255	20	0.666712160035968	2	4	4	NaN	1	5	0.211735715598392	0	1	NaN	251	4	62	2	120	220	320	NaN	520	0.312949721934274	1	1	NaN	1797337.2431683	NaN	1797338.2265568	1797338.74311598
12	18	1	0	90	36.1581920903955	36.241610738255	24	0.800054592043161	2	10	6	NaN	2	5	0.211735715598392	0	1	NaN	252	4	63	2	120	220	320	NaN	520	0.367662316886708	2	1	NaN	1797339.8767366	NaN	1797340.8601662	1797341.37670328
12	18	1	0	90	36.1581920903955	36.241610738255	23	0.766718984041363	2	8	6	NaN	2	3	0.211735715598392	0	1	NaN	253	5	1	2	120	220	320	NaN	520	0.0103943217545748	1	0	NaN	1797365.5792797	NaN	1797366.5626844	1797367.07923498
12	18	1	0	90	36.1581920903955	36.241610738255	14	0.466698512025177	2	1	2	NaN	1	5	0.211735715598392	0	1	NaN	254	5	2	2	120	220	320	NaN	520	0.155653974507004	1	1	NaN	1797367.9128577	NaN	1797368.8962456	1797369.41279963
12	18	1	0	90	36.1581920903955	36.241610738255	24	0.800054592043161	2	8	1	NaN	2	4	0.211735715598392	0	1	NaN	255	5	3	2	120	220	320	NaN	520	0.0961547219194472	1	0	NaN	1797370.379804	NaN	1797371.3631469	1797371.87970558
12	18	1	0	90	36.1581920903955	36.241610738255	15	0.500034120026976	2	8	5	NaN	2	4	0.211735715598392	0	1	NaN	256	5	4	2	120	220	320	NaN	520	0.584460121812299	2	1	NaN	1797372.7799896	NaN	1797373.7634339	1797374.27994118
12	18	1	0	90	36.1581920903955	36.241610738255	15	0.500034120026976	2	3	4	NaN	1	4	0.211735715598392	0	1	NaN	257	5	5	2	120	220	320	NaN	520	0.107982616871595	2	0	NaN	1797375.6802768	NaN	1797376.6636705	1797377.18021518
12	18	1	0	90	36.1581920903955	36.241610738255	17	0.566705336030573	2	1	6	NaN	1	3	0.211735715598392	0	1	NaN	258	5	6	2	120	220	320	NaN	520	1.05143871693872	2	0	NaN	1797378.0970829	NaN	1797379.0806168	1797379.59712398
12	18	1	0	90	36.1581920903955	36.241610738255	0	0	1	4	2	NaN	1	3	0.211735715598392	0	1	NaN	259	5	7	2	110	210	310	NaN	510	0.804376516956836	1	1	NaN	1797381.464063	NaN	1797382.447566	1797382.96411978
12	18	1	0	90	36.1581920903955	36.241610738255	18	0.600040944032371	2	1	2	NaN	1	5	0.211735715598392	0	1	NaN	260	5	8	2	120	220	320	NaN	520	0.98308217455633	1	1	NaN	1797384.5811482	NaN	1797385.5645335	1797386.08110043
12	18	1	0	90	36.1581920903955	36.241610738255	22	0.733383376039565	2	1	1	NaN	1	4	0.211735715598392	0	1	NaN	261	5	9	2	120	220	320	NaN	520	0.274768169503659	1	1	NaN	1797387.8813561	NaN	1797388.8648976	1797389.38141393
12	18	1	0	90	36.1581920903955	36.241610738255	18	0.600040944032371	2	5	5	NaN	1	4	0.211735715598392	0	1	NaN	262	5	10	2	120	220	320	NaN	520	0.259126216871664	1	1	NaN	1797390.4650727	NaN	1797391.4484427	1797391.96500238
12	18	1	0	90	36.1581920903955	36.241610738255	14	0.466698512025177	2	2	5	NaN	1	3	0.211735715598392	0	1	NaN	263	5	11	2	120	220	320	NaN	520	0.275663969572634	1	1	NaN	1797393.0486602	NaN	1797394.0320313	1797394.54860733
12	18	1	0	90	36.1581920903955	36.241610738255	6	0.20001364801079	2	1	6	NaN	1	5	0.211735715598392	0	1	NaN	264	5	12	2	120	220	320	NaN	520	0.276388069381937	1	1	NaN	1797395.6322431	NaN	1797396.6156343	1797397.13217993
12	18	1	0	90	36.1581920903955	36.241610738255	11	0.366691688019782	2	2	6	NaN	1	3	0.211735715598392	0	1	NaN	265	5	13	2	120	220	320	NaN	520	0.916252542519942	1	1	NaN	1797398.2157988	NaN	1797399.1992153	1797399.71577656
12	18	1	0	90	36.1581920903955	36.241610738255	24	0.800054592043161	2	9	3	NaN	2	5	0.211735715598392	0	1	NaN	266	5	14	2	120	220	320	NaN	520	0.346714216750115	1	0	NaN	1797401.4494926	NaN	1797402.4328726	1797402.94941658
12	18	1	0	90	36.1581920903955	36.241610738255	8	0.266684864014387	2	6	4	NaN	1	5	0.211735715598392	0	1	NaN	267	5	15	2	120	220	320	NaN	520	0.456440069712698	1	1	NaN	1797404.0997115	NaN	1797405.0831221	1797405.59968053
12	18	1	0	90	36.1581920903955	36.241610738255	6	0.20001364801079	2	4	4	NaN	1	5	0.211735715598392	0	1	NaN	268	5	16	2	120	220	320	NaN	520	0.321520774392411	1	1	NaN	1797406.8666783	NaN	1797407.8500649	1797408.36662433
12	18	1	0	90	36.1581920903955	36.241610738255	0	0	1	2	5	NaN	1	5	0.211735715598392	0	1	NaN	269	5	17	2	110	210	310	NaN	510	0.288034116849303	1	1	NaN	1797409.5003017	NaN	1797410.483656	1797411.00020688
12	18	1	0	90	36.1581920903955	36.241610738255	23	0.766718984041363	2	12	6	NaN	2	3	0.211735715598392	0	1	NaN	270	5	18	2	120	220	320	NaN	520	0.23213024251163	2	1	NaN	1797412.100397	NaN	1797413.0838974	1797413.60047726
12	18	1	0	90	36.1581920903955	36.241610738255	17	0.566705336030573	2	2	6	NaN	1	5	0.211735715598392	0	1	NaN	271	5	19	2	120	220	320	NaN	520	0.233500174479559	2	0	NaN	1797414.6506441	NaN	1797415.6341866	1797416.15070983
12	18	1	0	90	36.1581920903955	36.241610738255	10	0.333356080017984	2	4	3	NaN	1	3	0.211735715598392	0	1	NaN	272	5	20	2	120	220	320	NaN	520	0.323402121895924	1	1	NaN	1797417.2010113	NaN	1797418.1844232	1797418.70096638
12	18	1	0	90	36.1581920903955	36.241610738255	17	0.566705336030573	2	11	1	NaN	2	5	0.211735715598392	0	1	NaN	273	5	21	2	120	220	320	NaN	520	0.16161916940473	2	1	NaN	1797419.8346033	NaN	1797420.8180069	1797421.33456193
12	18	1	0	90	36.1581920903955	36.241610738255	24	0.800054592043161	2	8	1	NaN	2	4	0.211735715598392	0	1	NaN	274	5	22	2	120	220	320	NaN	520	0.446060274494812	2	1	NaN	1797422.3181798	NaN	1797423.3015837	1797423.81814293
12	18	1	0	90	36.1581920903955	36.241610738255	20	0.666712160035968	2	6	6	NaN	1	4	0.211735715598392	0	1	NaN	275	5	23	2	120	220	320	NaN	520	0.263707621954381	1	1	NaN	1797425.0684484	NaN	1797426.0518494	1797426.56840618
12	18	1	0	90	36.1581920903955	36.241610738255	17	0.566705336030573	2	2	6	NaN	1	3	0.211735715598392	0	1	NaN	276	5	24	2	120	220	320	NaN	520	0.728234122041613	1	1	NaN	1797427.6520677	NaN	1797428.635431	1797429.15200948
12	18	1	0	90	36.1581920903955	36.241610738255	15	0.500034120026976	2	6	3	NaN	1	4	0.211735715598392	0	1	NaN	277	5	25	2	120	220	320	NaN	520	0.366631569573656	1	1	NaN	1797430.6856272	NaN	1797431.6690667	1797432.18562863
12	18	1	0	90	36.1581920903955	36.241610738255	13	0.433362904023379	2	5	6	NaN	1	5	0.211735715598392	0	1	NaN	278	5	26	2	120	220	320	NaN	520	0.234960416797549	1	1	NaN	1797433.3692749	NaN	1797434.3526538	1797434.86921578
12	18	1	0	90	36.1581920903955	36.241610738255	24	0.800054592043161	2	4	4	NaN	1	5	0.211735715598392	0	1	NaN	279	5	27	2	120	220	320	NaN	520	0.301176816923544	1	1	NaN	1797435.9195213	NaN	1797436.9029156	1797437.41946438
12	18	1	0	90	36.1581920903955	36.241610738255	19	0.633376552034169	2	6	3	NaN	1	5	0.211735715598392	0	1	NaN	280	5	28	2	120	220	320	NaN	520	0.252131721936166	1	1	NaN	1797438.5364624	NaN	1797439.5197375	1797440.03639828
12	18	1	0	90	36.1581920903955	36.241610738255	9	0.300020472016186	2	8	5	NaN	2	5	0.211735715598392	0	1	NaN	281	5	29	2	120	220	320	NaN	520	0.469063817057759	1	0	NaN	1797441.103369	NaN	1797442.0867623	1797442.60330668
12	18	1	0	90	36.1581920903955	36.241610738255	15	0.500034120026976	2	11	4	NaN	2	4	0.211735715598392	0	1	NaN	282	5	30	2	120	220	320	NaN	520	0.253391774604097	2	1	NaN	1797443.886846	NaN	1797444.8703748	1797445.38692453
12	18	1	0	90	36.1581920903955	36.241610738255	18	0.600040944032371	2	12	6	NaN	2	3	0.211735715598392	0	1	NaN	283	5	31	2	120	220	320	NaN	520	0.30231502186507	2	1	NaN	1797446.4538839	NaN	1797447.4372859	1797447.95384608
12	18	1	0	90	36.1581920903955	36.241610738255	22	0.733383376039565	2	11	3	NaN	2	4	0.211735715598392	0	1	NaN	284	5	32	2	120	220	320	NaN	520	0.253923521842808	2	1	NaN	1797449.070893	NaN	1797450.0542138	1797450.57076058
12	18	1	0	90	36.1581920903955	36.241610738255	14	0.466698512025177	2	6	1	NaN	1	3	0.211735715598392	0	1	NaN	285	5	33	2	120	220	320	NaN	520	0.310916821705177	1	1	NaN	1797451.6377681	NaN	1797452.6211659	1797453.13768428
12	18	1	0	90	36.1581920903955	36.241610738255	21	0.700047768037766	2	3	4	NaN	1	3	0.211735715598392	0	1	NaN	286	5	34	2	120	220	320	NaN	520	0.397669221973047	1	1	NaN	1797454.254571	NaN	1797455.2381221	1797455.75460458
12	18	1	0	90	36.1581920903955	36.241610738255	15	0.500034120026976	2	12	5	NaN	2	3	0.211735715598392	0	1	NaN	287	5	35	2	120	220	320	NaN	520	1.16915222187527	1	0	NaN	1797456.9715878	NaN	1797457.954979	1797458.47154368
12	18	1	0	90	36.1581920903955	36.241610738255	0	0	1	10	5	NaN	2	4	0.211735715598392	0	1	NaN	288	5	36	2	110	210	310	NaN	510	0.437153874663636	1	0	NaN	1797460.4552834	NaN	1797461.438658	1797461.95521993
12	18	1	0	90	36.1581920903955	36.241610738255	16	0.533369728028774	2	7	6	NaN	2	4	0.211735715598392	0	1	NaN	289	5	37	2	120	220	320	NaN	520	0.318757421802729	2	1	NaN	1797463.2055427	NaN	1797464.1889257	1797464.70549118
12	18	1	0	90	36.1581920903955	36.241610738255	17	0.566705336030573	2	12	4	NaN	2	5	0.211735715598392	0	1	NaN	290	5	38	2	120	220	320	NaN	520	0.476822774624452	2	1	NaN	1797465.8557643	NaN	1797466.8391792	1797467.35574983
12	18	1	0	90	36.1581920903955	36.241610738255	22	0.733383376039565	2	6	2	NaN	1	4	0.211735715598392	0	1	NaN	291	5	39	2	120	220	320	NaN	520	0.0769569694530219	1	1	NaN	1797468.6393961	NaN	1797469.6227895	1797470.13935393
12	18	1	0	90	36.1581920903955	36.241610738255	9	0.300020472016186	2	5	5	NaN	1	3	0.211735715598392	0	1	NaN	292	5	40	2	120	220	320	NaN	520	0.237518821842968	2	0	NaN	1797471.022868	NaN	1797472.0064066	1797472.52291378
12	18	1	0	90	36.1581920903955	36.241610738255	14	0.466698512025177	2	11	6	NaN	2	4	0.211735715598392	0	1	NaN	293	5	41	2	120	220	320	NaN	520	0.35107373748906	2	1	NaN	1797473.5732833	NaN	1797474.5566025	1797475.07316846
12	18	1	0	90	36.1581920903955	36.241610738255	24	0.800054592043161	2	1	5	NaN	1	3	0.211735715598392	0	1	NaN	294	5	42	2	120	220	320	NaN	520	0.316224521957338	1	1	NaN	1797476.2401107	NaN	1797477.2235491	1797477.74010128
12	18	1	0	90	36.1581920903955	36.241610738255	20	0.666712160035968	2	2	4	NaN	1	5	0.211735715598392	0	1	NaN	295	5	43	2	120	220	320	NaN	520	0.602597979828715	1	1	NaN	1797478.8737261	NaN	1797479.8571192	1797480.37369152
12	18	1	0	90	36.1581920903955	36.241610738255	22	0.733383376039565	2	4	5	NaN	1	3	0.211735715598392	0	1	NaN	296	5	44	2	120	220	320	NaN	520	1.11774087464437	2	0	NaN	1797481.7907059	NaN	1797482.7740885	1797483.29064483
12	18	1	0	90	36.1581920903955	36.241610738255	18	0.600040944032371	2	2	1	NaN	1	4	0.211735715598392	0	1	NaN	297	5	45	2	120	220	320	NaN	520	0.564320222008973	1	1	NaN	1797485.2243701	NaN	1797486.2077672	1797486.72431908
12	18	1	0	90	36.1581920903955	36.241610738255	8	0.266684864014387	2	10	4	NaN	2	4	0.211735715598392	0	1	NaN	298	5	46	2	120	220	320	NaN	520	0.280495721846819	2	1	NaN	1797488.1080024	NaN	1797489.0913884	1797489.60793288
12	18	1	0	90	36.1581920903955	36.241610738255	11	0.366691688019782	2	3	3	NaN	1	3	0.211735715598392	0	1	NaN	299	5	47	2	120	220	320	NaN	520	0.010429416783154	1	1	NaN	1797490.7082349	NaN	1797491.69162	1797492.20818128
12	18	1	0	90	36.1581920903955	36.241610738255	7	0.233349256012589	2	2	5	NaN	1	3	0.211735715598392	0	1	NaN	300	5	48	2	120	220	320	NaN	520	0.178579721832648	2	0	NaN	1797493.0417846	NaN	1797494.0251862	1797494.54174518
12	18	1	0	90	36.1581920903955	36.241610738255	19	0.633376552034169	2	10	4	NaN	2	5	0.211735715598392	0	1	NaN	301	5	49	2	120	220	320	NaN	520	0.973702921997756	2	1	NaN	1797496.3588036	NaN	1797497.3422046	1797497.85874508
12	18	1	0	90	36.1581920903955	36.241610738255	21	0.700047768037766	2	4	4	NaN	1	5	0.211735715598392	0	1	NaN	302	5	50	2	120	220	320	NaN	520	0.249895616900176	1	1	NaN	1797499.642453	NaN	1797500.6258375	1797501.14239158
12	18	1	0	90	36.1581920903955	36.241610738255	19	0.633376552034169	2	3	2	NaN	1	4	0.211735715598392	0	1	NaN	303	5	51	2	120	220	320	NaN	520	0.258953021839261	1	1	NaN	1797502.2094052	NaN	1797503.1927527	1797503.70932008
12	18	1	0	90	36.1581920903955	36.241610738255	8	0.266684864014387	2	3	3	NaN	1	5	0.211735715598392	0	1	NaN	304	5	52	2	120	220	320	NaN	520	0.308281474513933	1	1	NaN	1797504.7762811	NaN	1797505.7596663	1797506.27624013
12	18	1	0	90	36.1581920903955	36.241610738255	6	0.20001364801079	2	3	5	NaN	1	4	0.211735715598392	0	1	NaN	305	5	53	2	120	220	320	NaN	520	0.419499427312985	1	1	NaN	1797507.3930731	NaN	1797508.3766502	1797508.89316497
12	18	1	0	90	36.1581920903955	36.241610738255	12	0.400027296021581	2	12	3	NaN	2	5	0.211735715598392	0	1	NaN	306	5	54	2	120	220	320	NaN	520	0.421889321878552	2	1	NaN	1797510.1267995	NaN	1797511.1102171	1797511.62675588
12	18	1	0	90	36.1581920903955	36.241610738255	8	0.266684864014387	2	7	4	NaN	2	3	0.211735715598392	0	1	NaN	307	5	55	2	120	220	320	NaN	520	0.416402427246794	2	1	NaN	1797512.8603871	NaN	1797513.8438066	1797514.36036437
12	18	1	0	90	36.1581920903955	36.241610738255	23	0.766718984041363	2	3	5	NaN	1	3	0.211735715598392	0	1	NaN	308	5	56	2	120	220	320	NaN	520	0.306689721997827	1	1	NaN	1797515.5940097	NaN	1797516.5773941	1797517.09396608
12	18	1	0	90	36.1581920903955	36.241610738255	7	0.233349256012589	2	10	6	NaN	2	5	0.211735715598392	0	1	NaN	309	5	57	2	120	220	320	NaN	520	0.35866262181662	2	1	NaN	1797518.4775306	NaN	1797519.4610213	1797519.97758538
12	18	1	0	90	36.1581920903955	36.241610738255	6	0.20001364801079	2	10	6	NaN	2	5	0.211735715598392	0	1	NaN	310	5	58	2	120	220	320	NaN	520	0.396077721845359	2	1	NaN	1797521.1445539	NaN	1797522.1279546	1797522.64450458
12	18	1	0	90	36.1581920903955	36.241610738255	14	0.466698512025177	2	3	5	NaN	1	5	0.211735715598392	0	1	NaN	311	5	59	2	120	220	320	NaN	520	0.462951969355345	2	0	NaN	1797523.8615032	NaN	1797524.8448704	1797525.36144513
12	18	1	0	90	36.1581920903955	36.241610738255	7	0.233349256012589	2	3	4	NaN	1	5	0.211735715598392	0	1	NaN	312	5	60	2	120	220	320	NaN	520	0.463954574661329	1	1	NaN	1797526.628418	NaN	1797527.6118615	1797528.12838653
12	18	1	0	90	36.1581920903955	36.241610738255	14	0.466698512025177	2	8	2	NaN	2	5	0.211735715598392	0	1	NaN	313	5	61	2	120	220	320	NaN	520	0.28028531675227	2	1	NaN	1797529.4118881	NaN	1797530.395479	1797530.91197828
12	18	1	0	90	36.1581920903955	36.241610738255	8	0.266684864014387	2	1	4	NaN	1	4	0.211735715598392	0	1	NaN	314	5	62	2	120	220	320	NaN	520	0.448150421958417	2	0	NaN	1797532.0121865	NaN	1797532.9956924	1797533.51223628
12	18	1	0	90	36.1581920903955	36.241610738255	9	0.300020472016186	2	6	3	NaN	1	5	0.211735715598392	0	1	NaN	315	5	63	2	120	220	320	NaN	520	0.257176569430158	1	1	NaN	1797534.7791347	NaN	1797535.7626139	1797536.27918123
12	18	1	0	90	36.1581920903955	36.241610738255	9	0.300020472016186	2	6	6	NaN	1	4	0.211735715598392	0	1	NaN	316	6	1	2	120	220	320	NaN	520	0.141364774666727	1	1	NaN	1797605.1194261	NaN	1797606.1028582	1797606.61942213
12	18	1	0	90	36.1581920903955	36.241610738255	0	0	1	1	5	NaN	1	5	0.211735715598392	0	1	NaN	317	6	2	2	110	210	310	NaN	510	0.258652521995828	1	1	NaN	1797607.5697116	NaN	1797608.5530656	1797609.06965948
12	18	1	0	90	36.1581920903955	36.241610738255	6	0.20001364801079	2	12	1	NaN	2	4	0.211735715598392	0	1	NaN	318	6	3	2	120	220	320	NaN	520	0.0104015695396811	2	1	NaN	1797610.1366518	NaN	1797611.1200296	1797611.63658153
12	18	1	0	90	36.1581920903955	36.241610738255	14	0.466698512025177	2	12	3	NaN	2	3	0.211735715598392	0	1	NaN	319	6	4	2	120	220	320	NaN	520	0.206991921877488	2	1	NaN	1797612.4535271	NaN	1797613.4369056	1797613.95347768
12	18	1	0	90	36.1581920903955	36.241610738255	0	0	1	9	4	NaN	2	5	0.211735715598392	0	1	NaN	320	6	5	2	110	210	310	NaN	510	0.154062569607049	2	1	NaN	1797614.9704219	NaN	1797615.9538106	1797616.47037933
12	18	1	0	90	36.1581920903955	36.241610738255	6	0.20001364801079	2	7	1	NaN	2	3	0.211735715598392	0	1	NaN	321	6	6	2	120	220	320	NaN	520	0.0103973220102489	1	0	NaN	1797617.4372269	NaN	1797618.4207427	1797618.93730078
12	18	1	0	90	36.1581920903955	36.241610738255	7	0.233349256012589	2	11	2	NaN	2	3	0.211735715598392	0	1	NaN	322	6	7	2	120	220	320	NaN	520	0.234275774564594	2	1	NaN	1797619.7542191	NaN	1797620.7376407	1797621.25419223
12	18	1	0	90	36.1581920903955	36.241610738255	25	0.83339020004496	2	3	2	NaN	1	5	0.211735715598392	0	1	NaN	323	6	8	2	120	220	320	NaN	520	0.908424021676183	1	1	NaN	1797622.3045047	NaN	1797623.2878966	1797623.80444098
12	18	1	0	90	36.1581920903955	36.241610738255	13	0.433362904023379	2	3	1	NaN	1	5	0.211735715598392	0	1	NaN	324	6	9	2	120	220	320	NaN	520	0.76144182193093	1	1	NaN	1797625.7714869	NaN	1797626.7548745	1797627.27145338
12	18	1	0	90	36.1581920903955	36.241610738255	7	0.233349256012589	2	8	5	NaN	2	3	0.211735715598392	0	1	NaN	325	6	10	2	120	220	320	NaN	520	0.0103883219417185	2	1	NaN	1797628.8551494	NaN	1797629.8385102	1797630.35508338
12	18	1	0	90	36.1581920903955	36.241610738255	15	0.500034120026976	2	11	5	NaN	2	4	0.211735715598392	0	1	NaN	326	6	11	2	120	220	320	NaN	520	0.448882569558918	2	1	NaN	1797631.1720118	NaN	1797632.15542	1797632.67198303
12	18	1	0	90	36.1581920903955	36.241610738255	24	0.800054592043161	2	3	2	NaN	1	5	0.211735715598392	0	1	NaN	327	6	12	2	120	220	320	NaN	520	0.113766816910356	1	1	NaN	1797633.9389806	NaN	1797634.9223496	1797635.43892498
12	18	1	0	90	36.1581920903955	36.241610738255	15	0.500034120026976	2	7	2	NaN	2	5	0.211735715598392	0	1	NaN	328	6	13	2	120	220	320	NaN	520	0.368077469523996	2	1	NaN	1797636.3725289	NaN	1797637.3559355	1797637.87250213
12	18	1	0	90	36.1581920903955	36.241610738255	17	0.566705336030573	2	1	6	NaN	1	3	0.211735715598392	0	1	NaN	329	6	14	2	120	220	320	NaN	520	0.140370621811599	2	0	NaN	1797639.0561426	NaN	1797640.0395143	1797640.55608938
12	18	1	0	90	36.1581920903955	36.241610738255	7	0.233349256012589	2	1	4	NaN	1	3	0.211735715598392	0	1	NaN	330	6	15	2	120	220	320	NaN	520	0.314449169673026	2	0	NaN	1797641.506394	NaN	1797642.4897648	1797643.00633213
12	18	1	0	90	36.1581920903955	36.241610738255	10	0.333356080017984	2	9	5	NaN	2	4	0.211735715598392	0	1	NaN	331	6	16	2	120	220	320	NaN	520	0.656905516749248	2	1	NaN	1797644.1399864	NaN	1797645.1233703	1797645.63991498
12	18	1	0	90	36.1581920903955	36.241610738255	15	0.500034120026976	2	9	4	NaN	2	4	0.211735715598392	0	1	NaN	332	6	17	2	120	220	320	NaN	520	0.154002516996115	1	0	NaN	1797647.1067942	NaN	1797648.0903116	1797648.60686958
12	18	1	0	90	36.1581920903955	36.241610738255	13	0.433362904023379	2	9	2	NaN	2	4	0.211735715598392	0	1	NaN	333	6	18	2	120	220	320	NaN	520	0.278843395179138	2	1	NaN	1797649.5738332	NaN	1797650.5572385	1797651.073788
12	18	1	0	90	36.1581920903955	36.241610738255	12	0.400027296021581	2	1	1	NaN	1	4	0.211735715598392	0	1	NaN	334	6	19	2	120	220	320	NaN	520	0.191633969312534	1	1	NaN	1797652.1573001	NaN	1797653.1407956	1797653.65737773
12	18	1	0	90	36.1581920903955	36.241610738255	17	0.566705336030573	2	6	4	NaN	1	4	0.211735715598392	0	1	NaN	335	6	20	2	120	220	320	NaN	520	0.187059769406915	1	1	NaN	1797654.6576655	NaN	1797655.6411242	1797656.15761373
12	18	1	0	90	36.1581920903955	36.241610738255	20	0.666712160035968	2	4	2	NaN	1	5	0.211735715598392	0	1	NaN	336	6	21	2	120	220	320	NaN	520	0.319068321958184	1	1	NaN	1797657.1579245	NaN	1797658.1413169	1797658.65786798
12	18	1	0	90	36.1581920903955	36.241610738255	23	0.766718984041363	2	1	3	NaN	1	4	0.211735715598392	0	1	NaN	337	6	22	2	120	220	320	NaN	520	0.21305222180672	1	1	NaN	1797659.7915393	NaN	1797660.7749164	1797661.29146088
12	18	1	0	90	36.1581920903955	36.241610738255	21	0.700047768037766	2	11	6	NaN	2	3	0.211735715598392	0	1	NaN	338	6	23	2	120	220	320	NaN	520	0.263870216906071	2	1	NaN	1797662.325095	NaN	1797663.3084698	1797663.82503308
12	18	1	0	90	36.1581920903955	36.241610738255	8	0.266684864014387	2	3	5	NaN	1	3	0.211735715598392	0	1	NaN	339	6	24	2	120	220	320	NaN	520	0.263915621908382	1	1	NaN	1797664.9086816	NaN	1797665.8920625	1797666.40862298
12	18	1	0	90	36.1581920903955	36.241610738255	24	0.800054592043161	2	6	3	NaN	1	3	0.211735715598392	0	1	NaN	340	6	25	2	120	220	320	NaN	520	0.28912793728523	1	1	NaN	1797667.4756041	NaN	1797668.4590009	1797668.97554906
12	18	1	0	90	36.1581920903955	36.241610738255	9	0.300020472016186	2	9	3	NaN	2	5	0.211735715598392	0	1	NaN	341	6	26	2	120	220	320	NaN	520	0.72917542187497	2	1	NaN	1797670.0757212	NaN	1797671.0592532	1797671.57580268
12	18	1	0	90	36.1581920903955	36.241610738255	13	0.433362904023379	2	8	1	NaN	2	3	0.211735715598392	0	1	NaN	342	6	27	2	120	220	320	NaN	520	0.31909076939337	2	1	NaN	1797673.1094794	NaN	1797674.0928742	1797674.60943313
12	18	1	0	90	36.1581920903955	36.241610738255	20	0.666712160035968	2	5	4	NaN	1	4	0.211735715598392	0	1	NaN	343	6	28	2	120	220	320	NaN	520	0.293283222010359	2	0	NaN	1797675.7430866	NaN	1797676.7264613	1797677.24301638
12	18	1	0	90	36.1581920903955	36.241610738255	17	0.566705336030573	2	8	2	NaN	2	3	0.211735715598392	0	1	NaN	344	6	29	2	120	220	320	NaN	520	0.41479171696119	2	1	NaN	1797678.7099262	NaN	1797679.6934647	1797680.20997318
12	18	1	0	90	36.1581920903955	36.241610738255	12	0.400027296021581	2	4	6	NaN	1	3	0.211735715598392	0	1	NaN	345	6	30	2	120	220	320	NaN	520	0.601178464246914	2	0	NaN	1797681.4435042	NaN	1797682.4270191	1797682.94357294
12	18	1	0	90	36.1581920903955	36.241610738255	21	0.700047768037766	2	6	1	NaN	1	4	0.211735715598392	0	1	NaN	346	6	31	2	120	220	320	NaN	520	1.1160051424522	2	0	NaN	1797684.3605757	NaN	1797685.3439739	1797685.86053396
12	18	1	0	90	36.1581920903955	36.241610738255	20	0.666712160035968	2	7	5	NaN	2	5	0.211735715598392	0	1	NaN	347	6	32	2	120	220	320	NaN	520	0.30677352193743	2	1	NaN	1797687.7942704	NaN	1797688.7776357	1797689.29421798
12	18	1	0	90	36.1581920903955	36.241610738255	8	0.266684864014387	2	4	3	NaN	1	4	0.211735715598392	0	1	NaN	348	6	33	2	120	220	320	NaN	520	0.0103992219083011	1	1	NaN	1797690.4111954	NaN	1797691.3945672	1797691.91113618
12	18	1	0	90	36.1581920903955	36.241610738255	19	0.633376552034169	2	6	5	NaN	1	4	0.211735715598392	0	1	NaN	349	6	34	2	120	220	320	NaN	520	0.0766249217558652	2	0	NaN	1797692.7280813	NaN	1797693.7115105	1797694.22802578
12	18	1	0	90	36.1581920903955	36.241610738255	13	0.433362904023379	2	8	2	NaN	2	3	0.211735715598392	0	1	NaN	350	6	35	2	120	220	320	NaN	520	0.172900827135891	2	1	NaN	1797695.111643	NaN	1797696.0950236	1797696.61159727
12	18	1	0	90	36.1581920903955	36.241610738255	0	0	1	2	6	NaN	1	3	0.211735715598392	0	1	NaN	351	6	36	2	110	210	310	NaN	510	0.321512221824378	2	0	NaN	1797697.5952296	NaN	1797698.5786149	1797699.09516338
12	18	1	0	90	36.1581920903955	36.241610738255	20	0.666712160035968	2	1	2	NaN	1	3	0.211735715598392	0	1	NaN	352	6	37	2	120	220	320	NaN	520	0.232100117020309	2	0	NaN	1797700.2288032	NaN	1797701.2122182	1797701.72875158
12	18	1	0	90	36.1581920903955	36.241610738255	24	0.800054592043161	2	7	4	NaN	2	4	0.211735715598392	0	1	NaN	353	6	38	2	120	220	320	NaN	520	0.114373821765184	2	1	NaN	1797702.7624044	NaN	1797703.7457767	1797704.26234188
12	18	1	0	90	36.1581920903955	36.241610738255	16	0.533369728028774	2	2	1	NaN	1	5	0.211735715598392	0	1	NaN	354	6	39	2	120	220	320	NaN	520	0.0807559168897569	1	1	NaN	1797705.1959747	NaN	1797706.1793569	1797706.69590728
12	18	1	0	90	36.1581920903955	36.241610738255	14	0.466698512025177	2	7	1	NaN	2	4	0.211735715598392	0	1	NaN	355	6	40	2	120	220	320	NaN	520	0.0167390694841743	2	1	NaN	1797707.5961897	NaN	1797708.5795953	1797709.09614503
12	18	1	0	90	36.1581920903955	36.241610738255	24	0.800054592043161	2	5	1	NaN	1	3	0.211735715598392	0	1	NaN	356	6	41	2	120	220	320	NaN	520	0.122902016853914	2	0	NaN	1797709.9297611	NaN	1797710.9131589	1797711.42970798
12	18	1	0	90	36.1581920903955	36.241610738255	19	0.633376552034169	2	4	5	NaN	1	5	0.211735715598392	0	1	NaN	357	6	42	2	120	220	320	NaN	520	1.25732094235718	2	0	NaN	1797712.3633483	NaN	1797713.3468261	1797713.86329156
12	18	1	0	90	36.1581920903955	36.241610738255	6	0.20001364801079	2	3	1	NaN	1	3	0.211735715598392	0	1	NaN	358	6	43	2	120	220	320	NaN	520	0.306333821965382	2	0	NaN	1797715.9303633	NaN	1797716.9137453	1797717.43030178
12	18	1	0	90	36.1581920903955	36.241610738255	16	0.533369728028774	2	5	2	NaN	1	4	0.211735715598392	0	1	NaN	359	6	44	2	120	220	320	NaN	520	0.257451242301613	1	1	NaN	1797718.547285	NaN	1797719.5306665	1797720.04723466
12	18	1	0	90	36.1581920903955	36.241610738255	21	0.700047768037766	2	7	3	NaN	2	4	0.211735715598392	0	1	NaN	360	6	45	2	120	220	320	NaN	520	0.162730769487098	2	1	NaN	1797721.1141913	NaN	1797722.0975897	1797722.61414603
12	18	1	0	90	36.1581920903955	36.241610738255	25	0.83339020004496	2	5	2	NaN	1	3	0.211735715598392	0	1	NaN	361	6	46	2	120	220	320	NaN	520	0.295254921773449	1	1	NaN	1797723.5976456	NaN	1797724.5811762	1797725.09771928
12	18	1	0	90	36.1581920903955	36.241610738255	24	0.800054592043161	2	11	4	NaN	2	3	0.211735715598392	0	1	NaN	362	6	47	2	120	220	320	NaN	520	0.263021016959101	2	1	NaN	1797726.1980081	NaN	1797727.1814541	1797727.69797158
12	18	1	0	90	36.1581920903955	36.241610738255	19	0.633376552034169	2	11	2	NaN	2	4	0.211735715598392	0	1	NaN	363	6	48	2	120	220	320	NaN	520	0.143389821751043	2	1	NaN	1797728.7816188	NaN	1797729.7650094	1797730.28156678
12	18	1	0	90	36.1581920903955	36.241610738255	12	0.400027296021581	2	10	3	NaN	2	4	0.211735715598392	0	1	NaN	364	6	49	2	120	220	320	NaN	520	0.0606332693714648	1	0	NaN	1797731.2318602	NaN	1797732.215241	1797732.73180903
12	18	1	0	90	36.1581920903955	36.241610738255	8	0.266684864014387	2	9	6	NaN	2	5	0.211735715598392	0	1	NaN	365	6	50	2	120	220	320	NaN	520	0.0700184218585491	2	1	NaN	1797733.598769	NaN	1797734.5821822	1797735.09869918
12	18	1	0	90	36.1581920903955	36.241610738255	9	0.300020472016186	2	11	1	NaN	2	5	0.211735715598392	0	1	NaN	366	6	51	2	120	220	320	NaN	520	0.0104208169505	2	1	NaN	1797735.9822019	NaN	1797736.9657034	1797737.48227378
12	18	1	0	90	36.1581920903955	36.241610738255	17	0.566705336030573	2	3	2	NaN	1	4	0.211735715598392	0	1	NaN	367	6	52	2	120	220	320	NaN	520	0.0734485951252282	2	0	NaN	1797738.2992067	NaN	1797739.2826029	1797739.7991736
12	18	1	0	90	36.1581920903955	36.241610738255	13	0.433362904023379	2	10	5	NaN	2	3	0.211735715598392	0	1	NaN	368	6	53	2	120	220	320	NaN	520	0.251529522007331	1	0	NaN	1797740.8493356	NaN	1797741.8328463	1797742.34941928
12	18	1	0	90	36.1581920903955	36.241610738255	22	0.733383376039565	2	10	5	NaN	2	4	0.211735715598392	0	1	NaN	369	6	54	2	120	220	320	NaN	520	0.284585821907967	1	0	NaN	1797743.4164008	NaN	1797744.3997749	1797744.91632778
12	18	1	0	90	36.1581920903955	36.241610738255	23	0.766718984041363	2	11	5	NaN	2	4	0.211735715598392	0	1	NaN	370	6	55	2	120	220	320	NaN	520	0.180291732074693	2	1	NaN	1797746.0166812	NaN	1797747.0000254	1797747.51658767
12	18	1	0	90	36.1581920903955	36.241610738255	24	0.800054592043161	2	11	3	NaN	2	4	0.211735715598392	0	1	NaN	371	6	56	2	120	220	320	NaN	520	0.295808889670298	2	1	NaN	1797748.5169053	NaN	1797749.500272	1797750.01683271
12	18	1	0	90	36.1581920903955	36.241610738255	11	0.366691688019782	2	7	5	NaN	2	3	0.211735715598392	0	1	NaN	372	6	57	2	120	220	320	NaN	520	0.476896522101015	2	1	NaN	1797751.1837953	NaN	1797752.1672092	1797752.68376988
12	18	1	0	90	36.1581920903955	36.241610738255	13	0.433362904023379	2	11	1	NaN	2	4	0.211735715598392	0	1	NaN	373	6	58	2	120	220	320	NaN	520	0.445213821716607	2	1	NaN	1797753.9674191	NaN	1797754.9508189	1797755.46737028
12	18	1	0	90	36.1581920903955	36.241610738255	24	0.800054592043161	2	3	4	NaN	1	3	0.211735715598392	0	1	NaN	374	6	59	2	120	220	320	NaN	520	0.447446321835741	2	0	NaN	1797756.7176818	NaN	1797757.7011	1797758.21764688
12	18	1	0	90	36.1581920903955	36.241610738255	12	0.400027296021581	2	9	3	NaN	2	3	0.211735715598392	0	1	NaN	375	6	60	2	120	220	320	NaN	520	0.344245242420584	2	1	NaN	1797759.484647	NaN	1797760.4680193	1797760.98457966
12	18	1	0	90	36.1581920903955	36.241610738255	6	0.20001364801079	2	6	5	NaN	1	4	0.211735715598392	0	1	NaN	376	6	61	2	120	220	320	NaN	520	0.437027789885178	2	0	NaN	1797762.1515439	NaN	1797763.1349669	1797763.65151331
12	18	1	0	90	36.1581920903955	36.241610738255	19	0.633376552034169	2	12	4	NaN	2	4	0.211735715598392	0	1	NaN	377	6	62	2	120	220	320	NaN	520	0.415173916844651	2	1	NaN	1797764.9018468	NaN	1797765.8852508	1797766.40177198
12	18	1	0	90	36.1581920903955	36.241610738255	22	0.733383376039565	2	1	4	NaN	1	5	0.211735715598392	0	1	NaN	378	6	63	2	120	220	320	NaN	520	0.321386069525033	1	1	NaN	1797767.6354138	NaN	1797768.6188236	1797769.13538293
12	18	1	0	90	36.1581920903955	36.241610738255	8	0.266684864014387	2	9	6	NaN	2	3	0.211735715598392	0	1	NaN	379	7	1	2	120	220	320	NaN	520	0.44625942199491	2	1	NaN	1797776.6864062	NaN	1797777.6697119	1797778.18626698
12	18	1	0	90	36.1581920903955	36.241610738255	20	0.666712160035968	2	3	3	NaN	1	3	0.211735715598392	0	1	NaN	380	7	2	2	120	220	320	NaN	520	0.255520121892914	1	1	NaN	1797779.4532718	NaN	1797780.4366402	1797780.95320588
12	18	1	0	90	36.1581920903955	36.241610738255	9	0.300020472016186	2	4	3	NaN	1	3	0.211735715598392	0	1	NaN	381	7	3	2	120	220	320	NaN	520	0.720551454462111	1	1	NaN	1797782.0201598	NaN	1797783.0035717	1797783.52011845
12	18	1	0	90	36.1581920903955	36.241610738255	13	0.433362904023379	2	4	4	NaN	1	4	0.211735715598392	0	1	NaN	382	7	4	2	120	220	320	NaN	520	0.295028521912172	1	1	NaN	1797785.0538095	NaN	1797786.0371925	1797786.55375088
12	18	1	0	90	36.1581920903955	36.241610738255	16	0.533369728028774	2	9	5	NaN	2	4	0.211735715598392	0	1	NaN	383	7	5	2	120	220	320	NaN	520	0.343025169568136	1	0	NaN	1797787.6540513	NaN	1797788.6374612	1797789.15401613
12	18	1	0	90	36.1581920903955	36.241610738255	19	0.633376552034169	2	1	3	NaN	1	4	0.211735715598392	0	1	NaN	384	7	6	2	120	220	320	NaN	520	0.0999394219834358	2	0	NaN	1797790.3209942	NaN	1797791.3043755	1797791.82094098
12	18	1	0	90	36.1581920903955	36.241610738255	25	0.83339020004496	2	11	3	NaN	2	5	0.211735715598392	0	1	NaN	385	7	7	2	120	220	320	NaN	520	0.202816321980208	2	1	NaN	1797792.737883	NaN	1797793.7212861	1797794.23784778
12	18	1	0	90	36.1581920903955	36.241610738255	0	0	1	5	1	NaN	1	4	0.211735715598392	0	1	NaN	386	7	8	2	110	210	310	NaN	510	0.198031021747738	1	1	NaN	1797795.2548194	NaN	1797796.2382118	1797796.75475808
12	18	1	0	90	36.1581920903955	36.241610738255	14	0.466698512025177	2	1	2	NaN	1	5	0.211735715598392	0	1	NaN	387	7	9	2	120	220	320	NaN	520	0.265163169475272	1	1	NaN	1797797.7717155	NaN	1797798.7551262	1797799.27167563
12	18	1	0	90	36.1581920903955	36.241610738255	24	0.800054592043161	2	2	3	NaN	1	4	0.211735715598392	0	1	NaN	388	7	10	2	120	220	320	NaN	520	0.281469721812755	1	1	NaN	1797800.3553151	NaN	1797801.3386971	1797801.85526038
12	18	1	0	90	36.1581920903955	36.241610738255	21	0.700047768037766	2	9	3	NaN	2	3	0.211735715598392	0	1	NaN	389	7	11	2	120	220	320	NaN	520	0.296521769603714	1	0	NaN	1797802.972235	NaN	1797803.9556273	1797804.47218593
12	18	1	0	90	36.1581920903955	36.241610738255	10	0.333356080017984	2	11	5	NaN	2	5	0.211735715598392	0	1	NaN	390	7	12	2	120	220	320	NaN	520	0.536029979586601	2	1	NaN	1797805.5891683	NaN	1797806.5725781	1797807.08911282
12	18	1	0	90	36.1581920903955	36.241610738255	14	0.466698512025177	2	12	6	NaN	2	3	0.211735715598392	0	1	NaN	391	7	13	2	120	220	320	NaN	520	0.565265369601548	2	1	NaN	1797808.4394245	NaN	1797809.422827	1797809.93939143
12	18	1	0	90	36.1581920903955	36.241610738255	15	0.500034120026976	2	4	5	NaN	1	5	0.211735715598392	0	1	NaN	392	7	14	2	120	220	320	NaN	520	1.08980012172833	2	0	NaN	1797811.3230529	NaN	1797812.306441	1797812.82300058
12	18	1	0	90	36.1581920903955	36.241610738255	13	0.433362904023379	2	1	3	NaN	1	4	0.211735715598392	0	1	NaN	393	7	15	2	120	220	320	NaN	520	0.681681069545448	2	0	NaN	1797814.7233885	NaN	1797815.7067873	1797816.22333923
12	18	1	0	90	36.1581920903955	36.241610738255	8	0.266684864014387	2	12	3	NaN	2	4	0.211735715598392	0	1	NaN	394	7	16	2	120	220	320	NaN	520	1.36952742189169	2	1	NaN	1797817.7236764	NaN	1797818.7070864	1797819.22362998
12	18	1	0	90	36.1581920903955	36.241610738255	25	0.83339020004496	2	4	5	NaN	1	3	0.211735715598392	0	1	NaN	395	7	17	2	120	220	320	NaN	520	0.181568269617856	1	1	NaN	1797821.4073535	NaN	1797822.3907765	1797822.90732833
12	18	1	0	90	36.1581920903955	36.241610738255	15	0.500034120026976	2	1	4	NaN	1	5	0.211735715598392	0	1	NaN	396	7	18	2	120	220	320	NaN	520	0.281163574429229	1	1	NaN	1797823.9076318	NaN	1797824.8910232	1797825.40757763
12	18	1	0	90	36.1581920903955	36.241610738255	16	0.533369728028774	2	4	1	NaN	1	4	0.211735715598392	0	1	NaN	397	7	19	2	120	220	320	NaN	520	0.329434999963269	1	1	NaN	1797826.5078876	NaN	1797827.4912643	1797828.0078254
12	18	1	0	90	36.1581920903955	36.241610738255	8	0.266684864014387	2	2	3	NaN	1	5	0.211735715598392	0	1	NaN	398	7	20	2	120	220	320	NaN	520	0.16766792209819	1	1	NaN	1797829.141477	NaN	1797830.1248551	1797830.64142028
12	18	1	0	90	36.1581920903955	36.241610738255	9	0.300020472016186	2	2	4	NaN	1	3	0.211735715598392	0	1	NaN	399	7	21	2	120	220	320	NaN	520	0.475922195008025	2	0	NaN	1797831.6250681	NaN	1797832.6084445	1797833.1250082
12	18	1	0	90	36.1581920903955	36.241610738255	11	0.366691688019782	2	9	1	NaN	2	5	0.211735715598392	0	1	NaN	400	7	22	2	120	220	320	NaN	520	0.475837021833286	2	1	NaN	1797834.4253152	NaN	1797835.4087451	1797835.92526718
12	18	1	0	90	36.1581920903955	36.241610738255	9	0.300020472016186	2	11	1	NaN	2	5	0.211735715598392	0	1	NaN	401	7	23	2	120	220	320	NaN	520	0.660055116983131	2	1	NaN	1797837.2087827	NaN	1797838.1923334	1797838.70887418
12	18	1	0	90	36.1581920903955	36.241610738255	6	0.20001364801079	2	11	3	NaN	2	4	0.211735715598392	0	1	NaN	402	7	24	2	120	220	320	NaN	520	0.27717437967658	2	1	NaN	1797840.1757811	NaN	1797841.159275	1797841.67583122
12	18	1	0	90	36.1581920903955	36.241610738255	0	0	1	10	2	NaN	2	3	0.211735715598392	0	1	NaN	403	7	25	2	110	210	310	NaN	510	0.205366817070171	1	0	NaN	1797842.7594759	NaN	1797843.742863	1797844.25942018
12	18	1	0	90	36.1581920903955	36.241610738255	14	0.466698512025177	2	5	2	NaN	1	3	0.211735715598392	0	1	NaN	404	7	26	2	120	220	320	NaN	520	0.176564884837717	1	1	NaN	1797845.2764103	NaN	1797846.2597735	1797846.77633922
12	18	1	0	90	36.1581920903955	36.241610738255	9	0.300020472016186	2	12	2	NaN	2	4	0.211735715598392	0	1	NaN	405	7	27	2	120	220	320	NaN	520	0.268972269492224	1	0	NaN	1797847.7599588	NaN	1797848.7433401	1797849.25991733
12	18	1	0	90	36.1581920903955	36.241610738255	15	0.500034120026976	2	2	3	NaN	1	5	0.211735715598392	0	1	NaN	406	7	28	2	120	220	320	NaN	520	0.301333774579689	1	1	NaN	1797850.343548	NaN	1797851.3269549	1797851.84350683
12	18	1	0	90	36.1581920903955	36.241610738255	22	0.733383376039565	2	5	3	NaN	1	3	0.211735715598392	0	1	NaN	407	7	29	2	120	220	320	NaN	520	0.565423869527876	1	1	NaN	1797852.9438177	NaN	1797853.9272146	1797854.44377523
12	18	1	0	90	36.1581920903955	36.241610738255	10	0.333356080017984	2	7	1	NaN	2	5	0.211735715598392	0	1	NaN	408	7	30	2	120	220	320	NaN	520	0.0103908218443394	2	1	NaN	1797855.8274457	NaN	1797856.8108096	1797857.32737148
12	18	1	0	90	36.1581920903955	36.241610738255	9	0.300020472016186	2	9	1	NaN	2	3	0.211735715598392	0	1	NaN	409	7	31	2	120	220	320	NaN	520	0.548608416924253	2	1	NaN	1797858.1442994	NaN	1797859.1277048	1797859.64426478
12	18	1	0	90	36.1581920903955	36.241610738255	13	0.433362904023379	2	6	2	NaN	1	5	0.211735715598392	0	1	NaN	410	7	32	2	120	220	320	NaN	520	0.385896421736106	1	1	NaN	1797861.0112536	NaN	1797861.994689	1797862.51121328
12	18	1	0	90	36.1581920903955	36.241610738255	18	0.600040944032371	2	12	2	NaN	2	4	0.211735715598392	0	1	NaN	411	7	33	2	120	220	320	NaN	520	0.437464574584737	1	0	NaN	1797863.7114256	NaN	1797864.6949416	1797865.21147623
12	18	1	0	90	36.1581920903955	36.241610738255	11	0.366691688019782	2	4	6	NaN	1	4	0.211735715598392	0	1	NaN	412	7	34	2	120	220	320	NaN	520	0.239054122008383	1	1	NaN	1797866.4618099	NaN	1797867.4452916	1797867.96175228
12	18	1	0	90	36.1581920903955	36.241610738255	6	0.20001364801079	2	5	4	NaN	1	4	0.211735715598392	0	1	NaN	413	7	35	2	120	220	320	NaN	520	0.112980116857216	1	1	NaN	1797869.0119259	NaN	1797869.9954955	1797870.51199358
12	18	1	0	90	36.1581920903955	36.241610738255	20	0.666712160035968	2	5	3	NaN	1	4	0.211735715598392	0	1	NaN	414	7	36	2	120	220	320	NaN	520	0.216183022130281	1	1	NaN	1797871.4289507	NaN	1797872.4123628	1797872.92890608
12	18	1	0	90	36.1581920903955	36.241610738255	16	0.533369728028774	2	1	6	NaN	1	4	0.211735715598392	0	1	NaN	415	7	37	2	120	220	320	NaN	520	0.547372321831062	2	0	NaN	1797873.9458624	NaN	1797874.9292698	1797875.44582568
12	18	1	0	90	36.1581920903955	36.241610738255	13	0.433362904023379	2	2	5	NaN	1	3	0.211735715598392	0	1	NaN	416	7	38	2	120	220	320	NaN	520	0.368044706527144	1	1	NaN	1797876.8128376	NaN	1797877.7962006	1797878.31276339
12	18	1	0	90	36.1581920903955	36.241610738255	19	0.633376552034169	2	5	5	NaN	1	3	0.211735715598392	0	1	NaN	417	7	39	2	120	220	320	NaN	520	0.348379999864846	1	1	NaN	1797879.4964536	NaN	1797880.4798001	1797880.9963847
12	18	1	0	90	36.1581920903955	36.241610738255	16	0.533369728028774	2	1	6	NaN	1	5	0.211735715598392	0	1	NaN	418	7	40	2	120	220	320	NaN	520	0.265496795065701	1	1	NaN	1797882.1633415	NaN	1797883.1467319	1797883.66329901
12	18	1	0	90	36.1581920903955	36.241610738255	8	0.266684864014387	2	4	6	NaN	1	3	0.211735715598392	0	1	NaN	419	7	41	2	120	220	320	NaN	520	0.194049469660968	1	1	NaN	1797884.7469327	NaN	1797885.7303279	1797886.24688253
12	18	1	0	90	36.1581920903955	36.241610738255	11	0.366691688019782	2	11	6	NaN	2	5	0.211735715598392	0	1	NaN	420	7	42	2	120	220	320	NaN	520	0.36630776966922	2	1	NaN	1797887.2471724	NaN	1797888.2306009	1797888.74712833
12	18	1	0	90	36.1581920903955	36.241610738255	14	0.466698512025177	2	10	1	NaN	2	4	0.211735715598392	0	1	NaN	421	7	43	2	120	220	320	NaN	520	0.418414289830253	2	1	NaN	1797889.9306385	NaN	1797890.9141605	1797891.43073011
12	18	1	0	90	36.1581920903955	36.241610738255	25	0.83339020004496	2	12	1	NaN	2	4	0.211735715598392	0	1	NaN	422	7	44	2	120	220	320	NaN	520	0.324515221873298	1	0	NaN	1797892.6643814	NaN	1797893.6477815	1797894.16432158
12	18	1	0	90	36.1581920903955	36.241610738255	20	0.666712160035968	2	11	2	NaN	2	5	0.211735715598392	0	1	NaN	423	7	45	2	120	220	320	NaN	520	0.969972079619765	1	0	NaN	1797895.3312984	NaN	1797896.3146948	1797896.83125082
12	18	1	0	90	36.1581920903955	36.241610738255	22	0.733383376039565	2	8	3	NaN	2	3	0.211735715598392	0	1	NaN	424	7	46	2	120	220	320	NaN	520	0.598043216858059	1	0	NaN	1797898.6148424	NaN	1797899.5983605	1797900.11490388
12	18	1	0	90	36.1581920903955	36.241610738255	22	0.733383376039565	2	7	5	NaN	2	3	0.211735715598392	0	1	NaN	425	7	47	2	120	220	320	NaN	520	0.242089722072706	2	1	NaN	1797901.5152248	NaN	1797902.4986492	1797903.01519568
12	18	1	0	90	36.1581920903955	36.241610738255	23	0.766718984041363	2	11	5	NaN	2	5	0.211735715598392	0	1	NaN	426	7	48	2	120	220	320	NaN	520	0.23588156956248	2	1	NaN	1797904.0655018	NaN	1797905.0488796	1797905.56543833
12	18	1	0	90	36.1581920903955	36.241610738255	13	0.433362904023379	2	9	1	NaN	2	4	0.211735715598392	0	1	NaN	427	7	49	2	120	220	320	NaN	520	0.397599369520321	2	1	NaN	1797906.6157722	NaN	1797907.5991611	1797908.11569463
12	18	1	0	90	36.1581920903955	36.241610738255	15	0.500034120026976	2	12	2	NaN	2	5	0.211735715598392	0	1	NaN	428	7	50	2	120	220	320	NaN	520	0.2330524220597	2	1	NaN	1797909.3160191	NaN	1797910.2994104	1797910.81595388
12	18	1	0	90	36.1581920903955	36.241610738255	22	0.733383376039565	2	4	2	NaN	1	5	0.211735715598392	0	1	NaN	429	7	51	2	120	220	320	NaN	520	0.18673887453042	1	1	NaN	1797911.8662419	NaN	1797912.8496374	1797913.36620403
12	18	1	0	90	36.1581920903955	36.241610738255	13	0.433362904023379	2	12	1	NaN	2	4	0.211735715598392	0	1	NaN	430	7	52	2	120	220	320	NaN	520	0.382413374492899	2	1	NaN	1797914.3664675	NaN	1797915.3498871	1797915.86645993
12	18	1	0	90	36.1581920903955	36.241610738255	15	0.500034120026976	2	5	6	NaN	1	4	0.211735715598392	0	1	NaN	431	7	53	2	120	220	320	NaN	520	0.250523464288563	1	1	NaN	1797917.0667775	NaN	1797918.0501672	1797918.56671564
12	18	1	0	90	36.1581920903955	36.241610738255	15	0.500034120026976	2	3	5	NaN	1	3	0.211735715598392	0	1	NaN	432	7	54	2	120	220	320	NaN	520	0.331222042208537	1	1	NaN	1797919.6336844	NaN	1797920.6170702	1797921.13364486
12	18	1	0	90	36.1581920903955	36.241610738255	15	0.500034120026976	2	1	4	NaN	1	5	0.211735715598392	0	1	NaN	433	7	55	2	120	220	320	NaN	520	0.0104023695457727	1	1	NaN	1797922.2839058	NaN	1797923.2673413	1797923.78390113
12	18	1	0	90	36.1581920903955	36.241610738255	18	0.600040944032371	2	11	4	NaN	2	4	0.211735715598392	0	1	NaN	434	7	56	2	120	220	320	NaN	520	0.132165974471718	2	1	NaN	1797924.6008413	NaN	1797925.5842309	1797926.10079583
12	18	1	0	90	36.1581920903955	36.241610738255	14	0.466698512025177	2	10	2	NaN	2	3	0.211735715598392	0	1	NaN	435	7	57	2	120	220	320	NaN	520	0.0103960218839347	1	0	NaN	1797927.0510791	NaN	1797928.0344638	1797928.55103098
12	18	1	0	90	36.1581920903955	36.241610738255	9	0.300020472016186	2	10	6	NaN	2	5	0.211735715598392	0	1	NaN	436	7	58	2	120	220	320	NaN	520	0.060462869470939	1	0	NaN	1797929.3845338	NaN	1797930.3680291	1797930.88459793
12	18	1	0	90	36.1581920903955	36.241610738255	20	0.666712160035968	2	1	4	NaN	1	4	0.211735715598392	0	1	NaN	437	7	59	2	120	220	320	NaN	520	0.464740616967902	1	1	NaN	1797932.4681996	NaN	1797933.4516657	1797933.96823288
12	18	1	0	90	36.1581920903955	36.241610738255	12	0.400027296021581	2	12	5	NaN	2	5	0.211735715598392	0	1	NaN	438	7	60	2	120	220	320	NaN	520	0.0103722745552659	1	0	NaN	1797935.2518881	NaN	1797936.2352929	1797936.75184443
12	18	1	0	90	36.1581920903955	36.241610738255	24	0.800054592043161	2	9	5	NaN	2	3	0.211735715598392	0	1	NaN	439	7	61	2	120	220	320	NaN	520	0.268554132198915	2	1	NaN	1797937.5687729	NaN	1797938.552238	1797939.06872997
12	18	1	0	90	36.1581920903955	36.241610738255	7	0.233349256012589	2	3	5	NaN	1	3	0.211735715598392	0	1	NaN	440	7	62	2	120	220	320	NaN	520	1.12467212183401	2	0	NaN	1797940.1523877	NaN	1797941.1357742	1797941.65231838
12	18	1	0	90	36.1581920903955	36.241610738255	22	0.733383376039565	2	2	5	NaN	1	3	0.211735715598392	0	1	NaN	441	7	63	2	120	220	320	NaN	520	0.0103894218336791	1	1	NaN	1797943.585917	NaN	1797944.5694327	1797945.08599458
12	18	1	0	90	36.1581920903955	36.241610738255	24	0.800054592043161	2	5	3	NaN	1	4	0.211735715598392	0	1	NaN	442	8	1	2	120	220	320	NaN	520	0.175134422024712	1	1	NaN	1797991.9741553	NaN	1797992.957539	1797993.47407368
12	18	1	0	90	36.1581920903955	36.241610738255	18	0.600040944032371	2	8	5	NaN	2	5	0.211735715598392	0	1	NaN	443	8	2	2	120	220	320	NaN	520	0.0267325220629573	2	1	NaN	1797994.4744002	NaN	1797995.4577683	1797995.97431788
12	18	1	0	90	36.1581920903955	36.241610738255	23	0.766718984041363	2	1	3	NaN	1	5	0.211735715598392	0	1	NaN	444	8	3	2	120	220	320	NaN	520	0.258482916979119	2	0	NaN	1797997.2745589	NaN	1797998.2580445	1797998.77458918
12	18	1	0	90	36.1581920903955	36.241610738255	21	0.700047768037766	2	7	3	NaN	2	3	0.211735715598392	0	1	NaN	445	8	4	2	120	220	320	NaN	520	0.22740582190454	2	1	NaN	1797999.841557	NaN	1798000.8249644	1798001.34151398
12	18	1	0	90	36.1581920903955	36.241610738255	24	0.800054592043161	2	12	2	NaN	2	4	0.211735715598392	0	1	NaN	446	8	5	2	120	220	320	NaN	520	0.710111216874793	1	0	NaN	1798002.3750268	NaN	1798003.3585388	1798003.87508628
12	18	1	0	90	36.1581920903955	36.241610738255	21	0.700047768037766	2	12	5	NaN	2	5	0.211735715598392	0	1	NaN	447	8	6	2	120	220	320	NaN	520	0.189373721834272	1	0	NaN	1798005.3921204	NaN	1798006.3755129	1798006.89205948
12	18	1	0	90	36.1581920903955	36.241610738255	10	0.333356080017984	2	11	3	NaN	2	3	0.211735715598392	0	1	NaN	448	8	7	2	120	220	320	NaN	520	0.441224721958861	2	1	NaN	1798007.8924303	NaN	1798008.8757435	1798009.39230728
12	18	1	0	90	36.1581920903955	36.241610738255	6	0.20001364801079	2	9	6	NaN	2	5	0.211735715598392	0	1	NaN	449	8	8	2	120	220	320	NaN	520	0.130386321805418	2	1	NaN	1798010.6426138	NaN	1798011.626028	1798012.14257228
12	18	1	0	90	36.1581920903955	36.241610738255	13	0.433362904023379	2	5	5	NaN	1	5	0.211735715598392	0	1	NaN	450	8	9	2	120	220	320	NaN	520	0.536212489940226	2	0	NaN	1798013.0928631	NaN	1798014.0762587	1798014.59282181
12	18	1	0	90	36.1581920903955	36.241610738255	6	0.20001364801079	2	7	3	NaN	2	3	0.211735715598392	0	1	NaN	451	8	10	2	120	220	320	NaN	520	0.118086921982467	1	0	NaN	1798015.9431556	NaN	1798016.9266113	1798017.44309548
12	18	1	0	90	36.1581920903955	36.241610738255	6	0.20001364801079	2	9	5	NaN	2	4	0.211735715598392	0	1	NaN	452	8	11	2	120	220	320	NaN	520	0.0103999217972159	2	1	NaN	1798018.3600817	NaN	1798019.3434384	1798019.86000228
12	18	1	0	90	36.1581920903955	36.241610738255	25	0.83339020004496	2	6	2	NaN	1	3	0.211735715598392	0	1	NaN	453	8	12	2	120	220	320	NaN	520	0.288095189724118	1	1	NaN	1798020.6769557	NaN	1798021.6603402	1798022.17689821
12	18	1	0	90	36.1581920903955	36.241610738255	15	0.500034120026976	2	9	6	NaN	2	3	0.211735715598392	0	1	NaN	454	8	13	2	120	220	320	NaN	520	0.383798222057521	1	0	NaN	1798023.2771829	NaN	1798024.2605931	1798024.77715348
12	18	1	0	90	36.1581920903955	36.241610738255	24	0.800054592043161	2	7	4	NaN	2	4	0.211735715598392	0	1	NaN	455	8	14	2	120	220	320	NaN	520	0.195720321731642	1	0	NaN	1798025.9773335	NaN	1798026.9608491	1798027.47741138
12	18	1	0	90	36.1581920903955	36.241610738255	6	0.20001364801079	2	2	4	NaN	1	5	0.211735715598392	0	1	NaN	456	8	15	2	120	220	320	NaN	520	0.23111071693711	1	1	NaN	1798028.4943741	NaN	1798029.4777662	1798029.99431888
12	18	1	0	90	36.1581920903955	36.241610738255	12	0.400027296021581	2	8	3	NaN	2	3	0.211735715598392	0	1	NaN	457	8	16	2	120	220	320	NaN	520	0.320868422044441	2	1	NaN	1798031.044645	NaN	1798032.0280151	1798032.54457238
12	18	1	0	90	36.1581920903955	36.241610738255	25	0.83339020004496	2	8	6	NaN	2	3	0.211735715598392	0	1	NaN	458	8	17	2	120	220	320	NaN	520	0.19931656960398	2	1	NaN	1798033.678315	NaN	1798034.6616208	1798035.17817233
12	18	1	0	90	36.1581920903955	36.241610738255	20	0.666712160035968	2	11	2	NaN	2	4	0.211735715598392	0	1	NaN	459	8	18	2	120	220	320	NaN	520	0.21841686964035	2	1	NaN	1798036.1951265	NaN	1798037.178515	1798037.69508373
12	18	1	0	90	36.1581920903955	36.241610738255	8	0.266684864014387	2	12	5	NaN	2	5	0.211735715598392	0	1	NaN	460	8	19	2	120	220	320	NaN	520	0.0845529218204319	2	1	NaN	1798038.728586	NaN	1798039.7121117	1798040.22866828
