subjno	age	gender	isPractice	viewdist	CmToPixX	CmToPixY	SOA_frm	SOA_time	targNum	targID	targExample	targRace	targGender	firstTargPos	contrast	familiarity	curr_staircase	iStair	TrialNum	BlockNum	blktrl	sessionNum	TC_FIXATION	TC_RSVP_START	TC_RSVP_END	TC_BLANK	TC_RESPONSE_ONSET	RT2afc	resp_2afc	acc	RSVPOnsetVBL	RSVPOnsetTime	RSVPOffsetVBL	RSVPOffsetTime	startrt_2afc
21	19	0	0	90	36.1581920903955	36.241610738255	21	0.700059191733599	2	3	1	NaN	1	5	0.229749065224915	0	1	NaN	1	1	1	1	120	220	320	NaN	520	0.129288877360523	1	1	NaN	4385675.3712912	NaN	4385676.3545674	4385676.88770382
21	19	0	0	90	36.1581920903955	36.241610738255	19	0.63338688775897	2	11	5	NaN	2	5	0.229749065224915	0	1	NaN	2	1	2	1	120	220	320	NaN	520	6.52471362985671	2	1	NaN	4385677.871612	NaN	4385678.8548146	4385679.38794987
21	19	0	0	90	36.1581920903955	36.241610738255	24	0.800067647695541	2	2	5	NaN	1	3	0.229749065224915	0	1	NaN	3	1	3	1	120	220	320	NaN	520	0.705833072774112	1	1	NaN	4385686.7388646	NaN	4385687.7222562	4385688.23880773
21	19	0	0	90	36.1581920903955	36.241610738255	12	0.400033823847771	2	12	1	NaN	2	4	0.229749065224915	0	1	NaN	4	1	4	1	120	220	320	NaN	520	0.567255534231663	1	0	NaN	4385690.0058899	NaN	4385690.9892468	4385691.50580617
21	19	0	0	90	36.1581920903955	36.241610738255	22	0.733395343720913	2	1	6	NaN	1	4	0.229749065224915	0	1	NaN	5	1	5	1	120	220	320	NaN	520	0.739341763779521	1	1	NaN	4385692.8894754	NaN	4385693.8728724	4385694.38941694
21	19	0	0	90	36.1581920903955	36.241610738255	17	0.566714583784342	2	8	3	NaN	2	3	0.229749065224915	0	1	NaN	6	1	6	1	120	220	320	NaN	520	0.58440887182951	2	1	NaN	4385695.9564546	NaN	4385696.9399318	4385697.45637933
21	19	0	0	90	36.1581920903955	36.241610738255	8	0.266689215898514	2	7	6	NaN	2	5	0.229749065224915	0	1	NaN	7	1	7	1	120	220	320	NaN	520	0.771201720461249	2	1	NaN	4385698.8733822	NaN	4385699.856789	4385700.37333998
21	19	0	0	90	36.1581920903955	36.241610738255	18	0.600050735771656	2	2	3	NaN	1	5	0.229749065224915	0	1	NaN	8	1	8	1	120	220	320	NaN	520	0.703853772953153	1	1	NaN	4385701.9569047	NaN	4385702.9404122	4385703.45697623
21	19	0	0	90	36.1581920903955	36.241610738255	15	0.500042279809713	2	6	2	NaN	1	3	0.229749065224915	0	1	NaN	9	1	9	1	120	220	320	NaN	520	0.455185143277049	2	0	NaN	4385704.9739838	NaN	4385705.9573989	4385706.47395216
21	19	0	0	90	36.1581920903955	36.241610738255	10	0.333361519873142	2	2	4	NaN	1	4	0.229749065224915	0	1	NaN	10	1	10	1	120	220	320	NaN	520	1.51967847254127	1	1	NaN	4385707.7409361	NaN	4385708.7242551	4385709.24089413
21	19	0	0	90	36.1581920903955	36.241610738255	9	0.300025367885828	2	4	1	NaN	1	3	0.229749065224915	0	1	NaN	11	1	11	1	120	220	320	NaN	520	1.76590157207102	1	1	NaN	4385711.5913068	NaN	4385712.5747023	4385713.09125133
21	19	0	0	90	36.1581920903955	36.241610738255	19	0.63338688775897	2	11	5	NaN	2	4	0.229749065224915	0	1	NaN	12	1	12	1	120	220	320	NaN	520	2.24171352013946	2	1	NaN	4385715.6750036	NaN	4385716.6584491	4385717.17498608
21	19	0	0	90	36.1581920903955	36.241610738255	23	0.766731495708227	2	7	5	NaN	2	4	0.229749065224915	0	1	NaN	13	1	13	1	120	220	320	NaN	520	1.13919657282531	1	0	NaN	4385720.2254568	NaN	4385721.208895	4385721.72543753
21	19	0	0	90	36.1581920903955	36.241610738255	12	0.400033823847771	2	7	3	NaN	2	3	0.229749065224915	0	1	NaN	14	1	14	1	120	220	320	NaN	520	0.568621871992946	2	1	NaN	4385723.6924947	NaN	4385724.6759052	4385725.19245253
21	19	0	0	90	36.1581920903955	36.241610738255	0	0	1	1	6	NaN	1	5	0.229749065224915	0	1	NaN	15	1	15	1	110	210	310	NaN	510	1.90068137738854	2	0	NaN	4385726.5761462	NaN	4385727.5595183	4385728.07607022
21	19	0	0	90	36.1581920903955	36.241610738255	12	0.400033823847771	2	9	5	NaN	2	3	0.229749065224915	0	1	NaN	16	1	16	1	120	220	320	NaN	520	0.772080509923398	1	0	NaN	4385730.7932009	NaN	4385731.7764891	4385732.29314979
21	19	0	0	90	36.1581920903955	36.241610738255	11	0.366697671860456	2	3	1	NaN	1	3	0.229749065224915	0	1	NaN	17	1	17	1	120	220	320	NaN	520	0.82371437177062	2	0	NaN	4385733.8934953	NaN	4385734.8768969	4385735.39344723
21	19	0	0	90	36.1581920903955	36.241610738255	0	0	1	5	2	NaN	1	4	0.229749065224915	0	1	NaN	18	1	18	1	110	210	310	NaN	510	0.56089351978153	1	1	NaN	4385737.0438085	NaN	4385738.027209	4385738.54375308
21	19	0	0	90	36.1581920903955	36.241610738255	6	0.200016911923885	2	4	4	NaN	1	3	0.229749065224915	0	1	NaN	19	1	19	1	120	220	320	NaN	520	0.669333071447909	1	1	NaN	4385739.9274691	NaN	4385740.9108938	4385741.42737523
21	19	0	0	90	36.1581920903955	36.241610738255	0	0	1	9	6	NaN	2	5	0.229749065224915	0	1	NaN	20	1	20	1	110	210	310	NaN	510	1.09363196790218	1	0	NaN	4385742.9110857	NaN	4385743.8944578	4385744.41099583
21	19	0	0	90	36.1581920903955	36.241610738255	22	0.733395343720913	2	5	3	NaN	1	5	0.229749065224915	0	1	NaN	21	1	21	1	120	220	320	NaN	520	0.469105119816959	1	1	NaN	4385746.3280552	NaN	4385747.3114583	4385747.82801338
21	19	0	0	90	36.1581920903955	36.241610738255	7	0.2333530639112	2	8	4	NaN	2	5	0.229749065224915	0	1	NaN	22	1	22	1	120	220	320	NaN	520	0.373163471929729	2	1	NaN	4385749.1116564	NaN	4385750.0950674	4385750.61161083
21	19	0	0	90	36.1581920903955	36.241610738255	8	0.266689215898514	2	1	5	NaN	1	4	0.229749065224915	0	1	NaN	23	1	23	1	120	220	320	NaN	520	1.96881807222962	2	0	NaN	4385751.8117988	NaN	4385752.7953329	4385753.31189523
21	19	0	0	90	36.1581920903955	36.241610738255	6	0.200016911923885	2	10	6	NaN	2	3	0.229749065224915	0	1	NaN	24	1	24	1	120	220	320	NaN	520	3.46105762012303	2	1	NaN	4385756.0955502	NaN	4385757.0790593	4385757.59563368
21	19	0	0	90	36.1581920903955	36.241610738255	23	0.766731495708227	2	3	6	NaN	1	5	0.229749065224915	0	1	NaN	25	1	25	1	120	220	320	NaN	520	0.719668372534215	2	0	NaN	4385762.0296122	NaN	4385763.0130019	4385763.52954473
21	19	0	0	90	36.1581920903955	36.241610738255	23	0.766731495708227	2	11	4	NaN	2	3	0.229749065224915	0	1	NaN	26	1	26	1	120	220	320	NaN	520	0.461389471776783	2	1	NaN	4385765.0632282	NaN	4385766.0466299	4385766.56318823
21	19	0	0	90	36.1581920903955	36.241610738255	17	0.566714583784342	2	6	5	NaN	1	4	0.229749065224915	0	1	NaN	27	1	27	1	120	220	320	NaN	520	0.638000573031604	1	1	NaN	4385767.846808	NaN	4385768.8302409	4385769.34679043
21	19	0	0	90	36.1581920903955	36.241610738255	16	0.533378431797028	2	1	4	NaN	1	4	0.229749065224915	0	1	NaN	28	1	28	1	120	220	320	NaN	520	1.65574257262051	1	1	NaN	4385770.7971428	NaN	4385771.7805014	4385772.29708443
21	19	0	0	90	36.1581920903955	36.241610738255	20	0.666723039746284	2	11	3	NaN	2	4	0.229749065224915	0	1	NaN	29	1	29	1	120	220	320	NaN	520	1.06463106814772	2	1	NaN	4385774.764199	NaN	4385775.7475913	4385776.26412963
21	19	0	0	90	36.1581920903955	36.241610738255	18	0.600050735771656	2	5	5	NaN	1	3	0.229749065224915	0	1	NaN	30	1	30	1	120	220	320	NaN	520	2.05705267190933	1	1	NaN	4385778.1478609	NaN	4385779.1312549	4385779.64780103
21	19	0	0	90	36.1581920903955	36.241610738255	9	0.300025367885828	2	7	2	NaN	2	5	0.229749065224915	0	1	NaN	31	1	31	1	120	220	320	NaN	520	0.703144324012101	2	1	NaN	4385782.7816509	NaN	4385783.7650417	4385784.28159608
21	19	0	0	90	36.1581920903955	36.241610738255	16	0.533378431797028	2	2	2	NaN	1	5	0.229749065224915	0	1	NaN	32	1	32	1	120	220	320	NaN	520	0.86265117302537	2	0	NaN	4385785.7985981	NaN	4385786.7820127	4385787.29855673
21	19	0	0	90	36.1581920903955	36.241610738255	7	0.2333530639112	2	4	2	NaN	1	4	0.229749065224915	0	1	NaN	33	1	33	1	120	220	320	NaN	520	0.542709824629128	1	1	NaN	4385788.9822447	NaN	4385789.9656591	4385790.48220608
21	19	0	0	90	36.1581920903955	36.241610738255	18	0.600050735771656	2	8	4	NaN	2	5	0.229749065224915	0	1	NaN	34	1	34	1	120	220	320	NaN	520	2.94002882018685	1	0	NaN	4385791.8492077	NaN	4385792.8325899	4385793.34914528
21	19	0	0	90	36.1581920903955	36.241610738255	8	0.266689215898514	2	3	6	NaN	1	5	0.229749065224915	0	1	NaN	35	1	35	1	120	220	320	NaN	520	2.84056437201798	2	0	NaN	4385797.1163969	NaN	4385798.0997918	4385798.61632933
21	19	0	0	90	36.1581920903955	36.241610738255	11	0.366697671860456	2	1	3	NaN	1	4	0.229749065224915	0	1	NaN	36	1	36	1	120	220	320	NaN	520	0.737985372543335	2	0	NaN	4385802.2669063	NaN	4385803.2502899	4385803.76684333
21	19	0	0	90	36.1581920903955	36.241610738255	22	0.733395343720913	2	2	1	NaN	1	5	0.229749065224915	0	1	NaN	37	1	37	1	120	220	320	NaN	520	2.50375197269022	1	1	NaN	4385805.3172986	NaN	4385806.3005913	4385806.81714223
21	19	0	0	90	36.1581920903955	36.241610738255	7	0.2333530639112	2	9	2	NaN	2	4	0.229749065224915	0	1	NaN	38	1	38	1	120	220	320	NaN	520	0.982513573020697	2	1	NaN	4385810.1343239	NaN	4385811.1177319	4385811.63428523
21	19	0	0	90	36.1581920903955	36.241610738255	13	0.433369975835085	2	6	4	NaN	1	5	0.229749065224915	0	1	NaN	39	1	39	1	120	220	320	NaN	520	1.17831012420356	1	1	NaN	4385813.4346638	NaN	4385814.4180841	4385814.93461258
21	19	0	0	90	36.1581920903955	36.241610738255	11	0.366697671860456	2	10	2	NaN	2	5	0.229749065224915	0	1	NaN	40	1	40	1	120	220	320	NaN	520	1.15718077216297	1	0	NaN	4385817.3516853	NaN	4385818.335089	4385818.85166173
21	19	0	0	90	36.1581920903955	36.241610738255	19	0.63338688775897	2	8	5	NaN	2	4	0.229749065224915	0	1	NaN	41	1	41	1	120	220	320	NaN	520	3.69807442463934	2	1	NaN	4385820.8187266	NaN	4385821.8021081	4385822.31867168
21	19	0	0	90	36.1581920903955	36.241610738255	6	0.200016911923885	2	4	6	NaN	1	3	0.229749065224915	0	1	NaN	42	1	42	1	120	220	320	NaN	520	0.673018320463598	1	1	NaN	4385826.8359483	NaN	4385827.8193825	4385828.33591718
21	19	0	0	90	36.1581920903955	36.241610738255	0	0	1	7	6	NaN	2	5	0.229749065224915	0	1	NaN	43	1	43	1	110	210	310	NaN	510	1.05700987204909	2	1	NaN	4385829.8362983	NaN	4385830.8196727	4385831.33621633
21	19	0	0	90	36.1581920903955	36.241610738255	8	0.266689215898514	2	11	1	NaN	2	5	0.229749065224915	0	1	NaN	44	1	44	1	120	220	320	NaN	520	0.401723572984338	2	1	NaN	4385833.2032509	NaN	4385834.1866937	4385834.70322193
21	19	0	0	90	36.1581920903955	36.241610738255	18	0.600050735771656	2	1	5	NaN	1	3	0.229749065224915	0	1	NaN	45	1	45	1	120	220	320	NaN	520	0.884549872018397	2	0	NaN	4385835.9200584	NaN	4385836.9036	4385837.42014303
21	19	0	0	90	36.1581920903955	36.241610738255	15	0.500042279809713	2	4	4	NaN	1	3	0.229749065224915	0	1	NaN	46	1	46	1	120	220	320	NaN	520	11.0044602723792	2	0	NaN	4385839.1205226	NaN	4385840.1039192	4385840.62046993
21	19	0	0	90	36.1581920903955	36.241610738255	22	0.733395343720913	2	4	6	NaN	1	4	0.229749065224915	0	1	NaN	47	1	47	1	120	220	320	NaN	520	0.492484872229397	1	1	NaN	4385852.4884657	NaN	4385853.471913	4385853.98844413
21	19	0	0	90	36.1581920903955	36.241610738255	6	0.200016911923885	2	3	5	NaN	1	4	0.229749065224915	0	1	NaN	48	1	48	1	120	220	320	NaN	520	0.622123071923852	2	0	NaN	4385869.806877	NaN	4385870.7902756	4385871.30681133
21	19	0	0	90	36.1581920903955	36.241610738255	9	0.300025367885828	2	5	2	NaN	1	3	0.229749065224915	0	1	NaN	49	1	49	1	120	220	320	NaN	520	0.536799520254135	2	0	NaN	4385872.7404881	NaN	4385873.7238901	4385874.24042898
21	19	0	0	90	36.1581920903955	36.241610738255	22	0.733395343720913	2	12	5	NaN	2	3	0.229749065224915	0	1	NaN	50	1	50	1	120	220	320	NaN	520	0.454273929819465	2	1	NaN	4385875.5907793	NaN	4385876.5741624	4385877.09071377
21	19	0	0	90	36.1581920903955	36.241610738255	17	0.566714583784342	2	5	6	NaN	1	4	0.229749065224915	0	1	NaN	51	1	51	1	120	220	320	NaN	520	0.311350372619927	1	1	NaN	4385878.3577033	NaN	4385879.3411061	4385879.85765883
21	19	0	0	90	36.1581920903955	36.241610738255	16	0.533378431797028	2	5	3	NaN	1	5	0.229749065224915	0	1	NaN	52	1	52	1	120	220	320	NaN	520	1.38157072011381	1	1	NaN	4385880.9913068	NaN	4385881.97474	4385882.49124398
21	19	0	0	90	36.1581920903955	36.241610738255	22	0.733395343720913	2	11	6	NaN	2	4	0.229749065224915	0	1	NaN	53	1	53	1	120	220	320	NaN	520	0.35330967232585	2	1	NaN	4385884.6916797	NaN	4385885.675099	4385886.19161553
21	19	0	0	90	36.1581920903955	36.241610738255	23	0.766731495708227	2	12	6	NaN	2	4	0.229749065224915	0	1	NaN	54	1	54	1	120	220	320	NaN	520	0.606916723772883	1	0	NaN	4385887.3584709	NaN	4385888.3419884	4385888.85854838
21	19	0	0	90	36.1581920903955	36.241610738255	6	0.200016911923885	2	7	1	NaN	2	5	0.229749065224915	0	1	NaN	55	1	55	1	120	220	320	NaN	520	0.0104058729484677	2	1	NaN	4385890.3255706	NaN	4385891.3089564	4385891.82550533
21	19	0	0	90	36.1581920903955	36.241610738255	18	0.600050735771656	2	3	1	NaN	1	4	0.229749065224915	0	1	NaN	56	1	56	1	120	220	320	NaN	520	0.84868817217648	2	0	NaN	4385893.09239	NaN	4385894.0758797	4385894.59243673
21	19	0	0	90	36.1581920903955	36.241610738255	25	0.833403799682856	2	6	1	NaN	1	3	0.229749065224915	0	1	NaN	57	1	57	1	120	220	320	NaN	520	0.609927319921553	1	1	NaN	4385896.2594644	NaN	4385897.2428617	4385897.75940778
21	19	0	0	90	36.1581920903955	36.241610738255	15	0.500042279809713	2	11	4	NaN	2	5	0.229749065224915	0	1	NaN	58	1	58	1	120	220	320	NaN	520	0.949191824533045	2	1	NaN	4385899.5597725	NaN	4385900.5431989	4385901.05974238
21	19	0	0	90	36.1581920903955	36.241610738255	9	0.300025367885828	2	4	2	NaN	1	3	0.229749065224915	0	1	NaN	59	1	59	1	120	220	320	NaN	520	1.53812352009118	1	1	NaN	4385902.8266903	NaN	4385903.8102571	4385904.32672868
21	19	0	0	90	36.1581920903955	36.241610738255	12	0.400033823847771	2	11	5	NaN	2	4	0.229749065224915	0	1	NaN	60	1	60	1	120	220	320	NaN	520	0.5198724726215	2	1	NaN	4385906.6771671	NaN	4385907.6605644	4385908.17710043
21	19	0	0	90	36.1581920903955	36.241610738255	20	0.666723039746284	2	10	5	NaN	2	3	0.229749065224915	0	1	NaN	61	1	61	1	120	220	320	NaN	520	1.61419247183949	1	0	NaN	4385909.5107769	NaN	4385910.4941688	4385911.01071993
21	19	0	0	90	36.1581920903955	36.241610738255	21	0.700059191733599	2	8	2	NaN	2	3	0.229749065224915	0	1	NaN	62	1	62	1	120	220	320	NaN	520	0.472711224108934	2	1	NaN	4385913.4444971	NaN	4385914.4279053	4385914.94444338
21	19	0	0	90	36.1581920903955	36.241610738255	16	0.533378431797028	2	10	6	NaN	2	3	0.229749065224915	0	1	NaN	63	1	63	1	120	220	320	NaN	520	2.28095867298543	2	1	NaN	4385916.2280986	NaN	4385917.2114792	4385917.72804563
21	19	0	0	90	36.1581920903955	36.241610738255	11	0.366697671860456	2	6	5	NaN	1	4	0.229749065224915	0	1	NaN	64	2	1	1	120	220	320	NaN	520	0.828825923614204	1	1	NaN	4385929.8960475	NaN	4385930.8795114	4385931.39606318
21	19	0	0	90	36.1581920903955	36.241610738255	16	0.533378431797028	2	8	2	NaN	2	5	0.229749065224915	0	1	NaN	65	2	2	1	120	220	320	NaN	520	0.422752620652318	1	0	NaN	4385933.0464153	NaN	4385934.0298189	4385934.54636528
21	19	0	0	90	36.1581920903955	36.241610738255	15	0.500042279809713	2	8	6	NaN	2	3	0.229749065224915	0	1	NaN	66	2	3	1	120	220	320	NaN	520	0.400968020781875	2	1	NaN	4385935.7800149	NaN	4385936.7634215	4385937.27996238
21	19	0	0	90	36.1581920903955	36.241610738255	24	0.800067647695541	2	1	3	NaN	1	4	0.229749065224915	0	1	NaN	67	2	4	1	120	220	320	NaN	520	0.700206272304058	1	1	NaN	4385938.4969447	NaN	4385939.4803522	4385939.99690653
21	19	0	0	90	36.1581920903955	36.241610738255	18	0.600050735771656	2	11	2	NaN	2	4	0.229749065224915	0	1	NaN	68	2	5	1	120	220	320	NaN	520	0.539083272218704	2	1	NaN	4385941.5139188	NaN	4385942.49729	4385943.01386663
21	19	0	0	90	36.1581920903955	36.241610738255	21	0.700059191733599	2	6	3	NaN	1	3	0.229749065224915	0	1	NaN	69	2	6	1	120	220	320	NaN	520	2.68891711998731	1	1	NaN	4385944.3642095	NaN	4385945.3475955	4385945.86413618
21	19	0	0	90	36.1581920903955	36.241610738255	11	0.366697671860456	2	5	1	NaN	1	4	0.229749065224915	0	1	NaN	70	2	7	1	120	220	320	NaN	520	1.57637422066182	1	1	NaN	4385949.3646893	NaN	4385950.3482155	4385950.86463468
21	19	0	0	90	36.1581920903955	36.241610738255	0	0	1	10	4	NaN	2	5	0.229749065224915	0	1	NaN	71	2	8	1	110	210	310	NaN	510	0.548741323873401	1	0	NaN	4385953.248394	NaN	4385954.2318013	4385954.74834758
21	19	0	0	90	36.1581920903955	36.241610738255	24	0.800067647695541	2	10	4	NaN	2	4	0.229749065224915	0	1	NaN	72	2	9	1	120	220	320	NaN	520	1.13016802072525	1	0	NaN	4385956.1153583	NaN	4385957.0987429	4385957.61529348
21	19	0	0	90	36.1581920903955	36.241610738255	15	0.500042279809713	2	2	4	NaN	1	3	0.229749065224915	0	1	NaN	73	2	10	1	120	220	320	NaN	520	0.744127424433827	2	0	NaN	4385959.5490127	NaN	4385960.5324862	4385961.04897618
21	19	0	0	90	36.1581920903955	36.241610738255	9	0.300025367885828	2	11	4	NaN	2	3	0.229749065224915	0	1	NaN	74	2	11	1	120	220	320	NaN	520	2.88569711986929	2	1	NaN	4385962.5991693	NaN	4385963.5827239	4385964.09926398
21	19	0	0	90	36.1581920903955	36.241610738255	8	0.266689215898514	2	4	5	NaN	1	3	0.229749065224915	0	1	NaN	75	2	12	1	120	220	320	NaN	520	1.14977867249399	1	1	NaN	4385967.7998444	NaN	4385968.7832375	4385969.29977933
21	19	0	0	90	36.1581920903955	36.241610738255	15	0.500042279809713	2	10	4	NaN	2	3	0.229749065224915	0	1	NaN	76	2	13	1	120	220	320	NaN	520	1.61833417229354	2	1	NaN	4385971.2668332	NaN	4385972.2502275	4385972.76679273
21	19	0	0	90	36.1581920903955	36.241610738255	7	0.2333530639112	2	5	6	NaN	1	4	0.229749065224915	0	1	NaN	77	2	14	1	120	220	320	NaN	520	0.845047724433243	1	1	NaN	4385975.2005758	NaN	4385976.1839627	4385976.70050998
21	19	0	0	90	36.1581920903955	36.241610738255	25	0.833403799682856	2	3	2	NaN	1	5	0.229749065224915	0	1	NaN	78	2	15	1	120	220	320	NaN	520	0.838198771700263	1	1	NaN	4385978.3508768	NaN	4385979.3342582	4385979.85081983
21	19	0	0	90	36.1581920903955	36.241610738255	12	0.400033823847771	2	2	1	NaN	1	4	0.229749065224915	0	1	NaN	79	2	16	1	120	220	320	NaN	520	0.383860671892762	2	0	NaN	4385981.5012058	NaN	4385982.4845837	4385983.00112193
21	19	0	0	90	36.1581920903955	36.241610738255	13	0.433369975835085	2	7	1	NaN	2	5	0.229749065224915	0	1	NaN	80	2	17	1	120	220	320	NaN	520	0.907776872627437	1	0	NaN	4385984.2014507	NaN	4385985.1848426	4385985.70139463
21	19	0	0	90	36.1581920903955	36.241610738255	7	0.2333530639112	2	2	6	NaN	1	5	0.229749065224915	0	1	NaN	81	2	18	1	120	220	320	NaN	520	1.68261957261711	1	1	NaN	4385987.4184349	NaN	4385988.4018283	4385988.91837453
21	19	0	0	90	36.1581920903955	36.241610738255	7	0.2333530639112	2	12	2	NaN	2	4	0.229749065224915	0	1	NaN	82	2	19	1	120	220	320	NaN	520	0.60227327235043	2	1	NaN	4385991.4188425	NaN	4385992.402214	4385992.91876213
21	19	0	0	90	36.1581920903955	36.241610738255	23	0.766731495708227	2	6	3	NaN	1	5	0.229749065224915	0	1	NaN	83	2	20	1	120	220	320	NaN	520	0.645308789797127	1	1	NaN	4385994.3357795	NaN	4385995.3192131	4385995.83572731
21	19	0	0	90	36.1581920903955	36.241610738255	25	0.833403799682856	2	10	2	NaN	2	5	0.229749065224915	0	1	NaN	84	2	21	1	120	220	320	NaN	520	1.75839307252318	1	0	NaN	4385997.3027279	NaN	4385998.2861338	4385998.80268263
21	19	0	0	90	36.1581920903955	36.241610738255	15	0.500042279809713	2	3	1	NaN	1	4	0.229749065224915	0	1	NaN	85	2	22	1	120	220	320	NaN	520	0.443293072283268	2	0	NaN	4386001.3698398	NaN	4386002.3531949	4386002.86974323
21	19	0	0	90	36.1581920903955	36.241610738255	22	0.733395343720913	2	6	1	NaN	1	5	0.229749065224915	0	1	NaN	86	2	23	1	120	220	320	NaN	520	0.708965672180057	1	1	NaN	4386004.1200713	NaN	4386005.1033553	4386005.62002253
21	19	0	0	90	36.1581920903955	36.241610738255	17	0.566714583784342	2	4	1	NaN	1	3	0.229749065224915	0	1	NaN	87	2	24	1	120	220	320	NaN	520	2.70568734314293	1	1	NaN	4386007.4037385	NaN	4386008.3871328	4386008.90368376
21	19	0	0	90	36.1581920903955	36.241610738255	8	0.266689215898514	2	12	1	NaN	2	4	0.229749065224915	0	1	NaN	88	2	25	1	120	220	320	NaN	520	0.800268072634935	1	0	NaN	4386012.4208758	NaN	4386013.4042871	4386013.92082673
21	19	0	0	90	36.1581920903955	36.241610738255	23	0.766731495708227	2	9	5	NaN	2	4	0.229749065224915	0	1	NaN	89	2	26	1	120	220	320	NaN	520	0.819674676284194	2	1	NaN	4386015.5378676	NaN	4386016.5212654	4386017.03781512
21	19	0	0	90	36.1581920903955	36.241610738255	25	0.833403799682856	2	4	4	NaN	1	3	0.229749065224915	0	1	NaN	90	2	27	1	120	220	320	NaN	520	4.60563211981207	2	0	NaN	4386018.6715424	NaN	4386019.6548964	4386020.17145078
21	19	0	0	90	36.1581920903955	36.241610738255	16	0.533378431797028	2	1	2	NaN	1	4	0.229749065224915	0	1	NaN	91	2	28	1	120	220	320	NaN	520	1.0882856240496	1	1	NaN	4386025.5888495	NaN	4386026.5722447	4386027.08880128
21	19	0	0	90	36.1581920903955	36.241610738255	6	0.200016911923885	2	3	6	NaN	1	5	0.229749065224915	0	1	NaN	92	2	29	1	120	220	320	NaN	520	2.21644367277622	2	0	NaN	4386028.9891753	NaN	4386029.972576	4386030.48913273
21	19	0	0	90	36.1581920903955	36.241610738255	24	0.800067647695541	2	3	3	NaN	1	5	0.229749065224915	0	1	NaN	93	2	30	1	120	220	320	NaN	520	1.84214607253671	1	1	NaN	4386033.5229614	NaN	4386034.5063525	4386035.02290133
21	19	0	0	90	36.1581920903955	36.241610738255	19	0.63338688775897	2	5	4	NaN	1	5	0.229749065224915	0	1	NaN	94	2	31	1	120	220	320	NaN	520	0.636283972300589	1	1	NaN	4386037.6732569	NaN	4386038.6567519	4386039.17331923
21	19	0	0	90	36.1581920903955	36.241610738255	10	0.333361519873142	2	3	1	NaN	1	4	0.229749065224915	0	1	NaN	95	2	32	1	120	220	320	NaN	520	1.01388722378761	2	0	NaN	4386040.6236597	NaN	4386041.6070605	4386042.12361238
21	19	0	0	90	36.1581920903955	36.241610738255	19	0.63338688775897	2	7	2	NaN	2	3	0.229749065224915	0	1	NaN	96	2	33	1	120	220	320	NaN	520	0.34398306813091	2	1	NaN	4386043.9573336	NaN	4386044.9407103	4386045.45726033
21	19	0	0	90	36.1581920903955	36.241610738255	21	0.700059191733599	2	8	3	NaN	2	5	0.229749065224915	0	1	NaN	97	2	34	1	120	220	320	NaN	520	0.885001773014665	2	1	NaN	4386046.6242537	NaN	4386047.6076544	4386048.12418963
21	19	0	0	90	36.1581920903955	36.241610738255	19	0.63338688775897	2	9	3	NaN	2	5	0.229749065224915	0	1	NaN	98	2	35	1	120	220	320	NaN	520	0.252712972462177	2	1	NaN	4386049.8244189	NaN	4386050.8079545	4386051.32451343
21	19	0	0	90	36.1581920903955	36.241610738255	17	0.566714583784342	2	3	2	NaN	1	3	0.229749065224915	0	1	NaN	99	2	36	1	120	220	320	NaN	520	0.573663071729243	2	0	NaN	4386052.3915025	NaN	4386053.3748834	4386053.89142573
21	19	0	0	90	36.1581920903955	36.241610738255	23	0.766731495708227	2	10	3	NaN	2	3	0.229749065224915	0	1	NaN	100	2	37	1	120	220	320	NaN	520	0.410066120326519	1	0	NaN	4386055.2750939	NaN	4386056.258477	4386056.77503798
21	19	0	0	90	36.1581920903955	36.241610738255	18	0.600050735771656	2	1	6	NaN	1	5	0.229749065224915	0	1	NaN	101	2	38	1	120	220	320	NaN	520	0.674446272663772	2	0	NaN	4386058.2586945	NaN	4386059.2421353	4386059.75867233
21	19	0	0	90	36.1581920903955	36.241610738255	8	0.266689215898514	2	6	2	NaN	1	4	0.229749065224915	0	1	NaN	102	2	39	1	120	220	320	NaN	520	0.299300219863653	1	1	NaN	4386061.2423865	NaN	4386062.2257443	4386062.74229158
21	19	0	0	90	36.1581920903955	36.241610738255	18	0.600050735771656	2	4	5	NaN	1	3	0.229749065224915	0	1	NaN	103	2	40	1	120	220	320	NaN	520	0.40248366817832	1	1	NaN	4386063.8424756	NaN	4386064.8259947	4386065.34254703
21	19	0	0	90	36.1581920903955	36.241610738255	10	0.333361519873142	2	9	1	NaN	2	3	0.229749065224915	0	1	NaN	104	2	41	1	120	220	320	NaN	520	0.382088519632816	1	0	NaN	4386066.5595393	NaN	4386067.5429348	4386068.05948708
21	19	0	0	90	36.1581920903955	36.241610738255	13	0.433369975835085	2	1	4	NaN	1	4	0.229749065224915	0	1	NaN	105	2	42	1	120	220	320	NaN	520	0.678605024702847	1	1	NaN	4386069.3430158	NaN	4386070.3265867	4386070.84309938
21	19	0	0	90	36.1581920903955	36.241610738255	17	0.566714583784342	2	12	3	NaN	2	3	0.229749065224915	0	1	NaN	106	2	43	1	120	220	320	NaN	520	0.310213472694159	2	1	NaN	4386072.3434446	NaN	4386073.3268294	4386073.84339413
21	19	0	0	90	36.1581920903955	36.241610738255	22	0.733395343720913	2	10	6	NaN	2	5	0.229749065224915	0	1	NaN	107	2	44	1	120	220	320	NaN	520	1.48429702408612	1	0	NaN	4386074.9770417	NaN	4386075.9604328	4386076.47698868
21	19	0	0	90	36.1581920903955	36.241610738255	18	0.600050735771656	2	9	3	NaN	2	3	0.229749065224915	0	1	NaN	108	2	45	1	120	220	320	NaN	520	0.595785890705884	1	0	NaN	4386078.7774023	NaN	4386079.7608003	4386080.27735981
21	19	0	0	90	36.1581920903955	36.241610738255	16	0.533378431797028	2	4	6	NaN	1	5	0.229749065224915	0	1	NaN	109	2	46	1	120	220	320	NaN	520	0.479335430078208	1	1	NaN	4386081.6942955	NaN	4386082.6777655	4386083.19431217
21	19	0	0	90	36.1581920903955	36.241610738255	12	0.400033823847771	2	1	2	NaN	1	5	0.229749065224915	0	1	NaN	110	2	47	1	120	220	320	NaN	520	0.927473819814622	2	0	NaN	4386084.8778704	NaN	4386085.8614024	4386086.37795808
21	19	0	0	90	36.1581920903955	36.241610738255	15	0.500042279809713	2	5	2	NaN	1	3	0.229749065224915	0	1	NaN	111	2	48	1	120	220	320	NaN	520	4.61358077265322	1	1	NaN	4386088.1116547	NaN	4386089.0950632	4386089.61160353
21	19	0	0	90	36.1581920903955	36.241610738255	7	0.2333530639112	2	1	1	NaN	1	5	0.229749065224915	0	1	NaN	112	2	49	1	120	220	320	NaN	520	0.471591576002538	1	1	NaN	4386095.0456831	NaN	4386096.0290731	4386096.54562742
21	19	0	0	90	36.1581920903955	36.241610738255	10	0.333361519873142	2	7	5	NaN	2	4	0.229749065224915	0	1	NaN	113	2	50	1	120	220	320	NaN	520	2.26450332440436	2	1	NaN	4386097.8291292	NaN	4386098.8126797	4386099.32923158
21	19	0	0	90	36.1581920903955	36.241610738255	25	0.833403799682856	2	8	1	NaN	2	4	0.229749065224915	0	1	NaN	114	2	51	1	120	220	320	NaN	520	0.464887672103941	1	0	NaN	4386102.3964263	NaN	4386103.3797933	4386103.89634633
21	19	0	0	90	36.1581920903955	36.241610738255	14	0.466706127822399	2	7	5	NaN	2	5	0.229749065224915	0	1	NaN	115	2	52	1	120	220	320	NaN	520	0.409379524178803	2	1	NaN	4386105.180021	NaN	4386106.163397	4386106.67995538
21	19	0	0	90	36.1581920903955	36.241610738255	12	0.400033823847771	2	3	2	NaN	1	3	0.229749065224915	0	1	NaN	116	2	53	1	120	220	320	NaN	520	2.11681007314473	2	0	NaN	4386107.8969411	NaN	4386108.8803284	4386109.39688473
21	19	0	0	90	36.1581920903955	36.241610738255	17	0.566714583784342	2	8	4	NaN	2	3	0.229749065224915	0	1	NaN	117	2	54	1	120	220	320	NaN	520	0.298522324301302	2	1	NaN	4386112.3307045	NaN	4386113.3141033	4386113.83066088
21	19	0	0	90	36.1581920903955	36.241610738255	14	0.466706127822399	2	5	1	NaN	1	5	0.229749065224915	0	1	NaN	118	2	55	1	120	220	320	NaN	520	0.482526272535324	2	0	NaN	4386114.9309908	NaN	4386115.9143472	4386116.43091423
21	19	0	0	90	36.1581920903955	36.241610738255	8	0.266689215898514	2	7	4	NaN	2	3	0.229749065224915	0	1	NaN	119	2	56	1	120	220	320	NaN	520	0.362229072488844	1	0	NaN	4386117.7312334	NaN	4386118.714635	4386119.23117903
21	19	0	0	90	36.1581920903955	36.241610738255	9	0.300025367885828	2	6	3	NaN	1	4	0.229749065224915	0	1	NaN	120	2	57	1	120	220	320	NaN	520	3.66343437228352	1	1	NaN	4386120.3981863	NaN	4386121.3815645	4386121.89811823
21	19	0	0	90	36.1581920903955	36.241610738255	13	0.433369975835085	2	12	1	NaN	2	4	0.229749065224915	0	1	NaN	121	2	58	1	120	220	320	NaN	520	0.623206872493029	2	1	NaN	4386126.3820712	NaN	4386127.3654993	4386127.88203393
21	19	0	0	90	36.1581920903955	36.241610738255	0	0	1	2	3	NaN	1	4	0.229749065224915	0	1	NaN	122	2	59	1	110	210	310	NaN	510	0.457921472378075	1	1	NaN	4386129.3157084	NaN	4386130.2991025	4386130.81565773
21	19	0	0	90	36.1581920903955	36.241610738255	20	0.666723039746284	2	7	3	NaN	2	5	0.229749065224915	0	1	NaN	123	2	60	1	120	220	320	NaN	520	1.21076657250524	2	1	NaN	4386132.0825252	NaN	4386133.0660413	4386133.58259493
21	19	0	0	90	36.1581920903955	36.241610738255	12	0.400033823847771	2	10	1	NaN	2	3	0.229749065224915	0	1	NaN	124	2	61	1	120	220	320	NaN	520	3.21322066802531	2	1	NaN	4386135.6163264	NaN	4386136.5997579	4386137.11627583
21	19	0	0	90	36.1581920903955	36.241610738255	17	0.566714583784342	2	6	5	NaN	1	4	0.229749065224915	0	1	NaN	125	2	62	1	120	220	320	NaN	520	2.00717419572175	1	1	NaN	4386141.1502032	NaN	4386142.133599	4386142.6501611
21	19	0	0	90	36.1581920903955	36.241610738255	24	0.800067647695541	2	9	4	NaN	2	5	0.229749065224915	0	1	NaN	126	2	63	1	120	220	320	NaN	520	0.474013272672892	2	1	NaN	4386145.4673103	NaN	4386146.4506965	4386146.96724613
21	19	0	0	90	36.1581920903955	36.241610738255	7	0.2333530639112	2	2	4	NaN	1	3	0.229749065224915	0	1	NaN	127	3	1	1	120	220	320	NaN	520	0.685461272485554	2	0	NaN	4386158.7519551	NaN	4386159.7353896	4386160.25188173
21	19	0	0	90	36.1581920903955	36.241610738255	23	0.766731495708227	2	9	1	NaN	2	3	0.229749065224915	0	1	NaN	128	3	2	1	120	220	320	NaN	520	0.325205024331808	2	1	NaN	4386161.7522283	NaN	4386162.7356358	4386163.25217778
21	19	0	0	90	36.1581920903955	36.241610738255	12	0.400033823847771	2	12	3	NaN	2	5	0.229749065224915	0	1	NaN	129	3	3	1	120	220	320	NaN	520	0.835338972508907	2	1	NaN	4386164.402471	NaN	4386165.3858856	4386165.90244023
21	19	0	0	90	36.1581920903955	36.241610738255	19	0.63338688775897	2	4	3	NaN	1	4	0.229749065224915	0	1	NaN	130	3	4	1	120	220	320	NaN	520	0.485042572021484	1	1	NaN	4386167.5528141	NaN	4386168.5362018	4386169.05274223
21	19	0	0	90	36.1581920903955	36.241610738255	14	0.466706127822399	2	12	5	NaN	2	4	0.229749065224915	0	1	NaN	131	3	5	1	120	220	320	NaN	520	0.332353372126818	2	1	NaN	4386170.35306	NaN	4386171.336475	4386171.85301513
21	19	0	0	90	36.1581920903955	36.241610738255	22	0.733395343720913	2	7	1	NaN	2	5	0.229749065224915	0	1	NaN	132	3	6	1	120	220	320	NaN	520	1.15402567200363	2	1	NaN	4386173.0033272	NaN	4386173.9867374	4386174.50327573
21	19	0	0	90	36.1581920903955	36.241610738255	20	0.666723039746284	2	3	4	NaN	1	5	0.229749065224915	0	1	NaN	133	3	7	1	120	220	320	NaN	520	0.471116020344198	1	1	NaN	4386176.4702228	NaN	4386177.4537426	4386177.97028748
21	19	0	0	90	36.1581920903955	36.241610738255	23	0.766731495708227	2	12	4	NaN	2	5	0.229749065224915	0	1	NaN	134	3	8	1	120	220	320	NaN	520	0.479856072925031	1	0	NaN	4386179.2539549	NaN	4386180.2373563	4386180.75388943
21	19	0	0	90	36.1581920903955	36.241610738255	14	0.466706127822399	2	10	2	NaN	2	4	0.229749065224915	0	1	NaN	135	3	9	1	120	220	320	NaN	520	0.376128172501922	1	0	NaN	4386182.0375648	NaN	4386183.0209486	4386183.53750833
21	19	0	0	90	36.1581920903955	36.241610738255	6	0.200016911923885	2	9	5	NaN	2	5	0.229749065224915	0	1	NaN	136	3	10	1	120	220	320	NaN	520	12.8366094250232	2	1	NaN	4386184.7210587	NaN	4386185.7045308	4386186.22110458
21	19	0	0	90	36.1581920903955	36.241610738255	10	0.333361519873142	2	5	2	NaN	1	5	0.229749065224915	0	1	NaN	137	3	11	1	120	220	320	NaN	520	0.4932821681723	1	1	NaN	4386199.8726508	NaN	4386200.8560466	4386201.37258113
21	19	0	0	90	36.1581920903955	36.241610738255	25	0.833403799682856	2	12	3	NaN	2	3	0.229749065224915	0	1	NaN	138	3	12	1	120	220	320	NaN	520	0.419737520627677	2	1	NaN	4386202.6895981	NaN	4386203.6729846	4386204.18953398
21	19	0	0	90	36.1581920903955	36.241610738255	23	0.766731495708227	2	1	3	NaN	1	4	0.229749065224915	0	1	NaN	139	3	13	1	120	220	320	NaN	520	0.398295738734305	1	1	NaN	4386205.4231848	NaN	4386206.4065704	4386206.92314656
21	19	0	0	90	36.1581920903955	36.241610738255	17	0.566714583784342	2	7	3	NaN	2	4	0.229749065224915	0	1	NaN	140	3	14	1	120	220	320	NaN	520	0.569431624375284	2	1	NaN	4386208.1401301	NaN	4386209.1235424	4386209.64006858
21	19	0	0	90	36.1581920903955	36.241610738255	9	0.300025367885828	2	3	6	NaN	1	3	0.229749065224915	0	1	NaN	141	3	15	1	120	220	320	NaN	520	0.869715220294893	1	1	NaN	4386211.0237321	NaN	4386212.0071383	4386212.52367928
21	19	0	0	90	36.1581920903955	36.241610738255	9	0.300025367885828	2	3	4	NaN	1	3	0.229749065224915	0	1	NaN	142	3	16	1	120	220	320	NaN	520	0.819136390462518	2	0	NaN	4386214.4907629	NaN	4386215.4741545	4386215.99069301
21	19	0	0	90	36.1581920903955	36.241610738255	0	0	1	6	3	NaN	1	3	0.229749065224915	0	1	NaN	143	3	17	1	110	210	310	NaN	510	0.517056919634342	1	1	NaN	4386217.6242803	NaN	4386218.6077833	4386219.12433698
21	19	0	0	90	36.1581920903955	36.241610738255	11	0.366697671860456	2	9	2	NaN	2	3	0.229749065224915	0	1	NaN	144	3	18	1	120	220	320	NaN	520	1.83579472452402	2	1	NaN	4386220.4580052	NaN	4386221.4414299	4386221.95795228
21	19	0	0	90	36.1581920903955	36.241610738255	23	0.766731495708227	2	1	1	NaN	1	5	0.229749065224915	0	1	NaN	145	3	19	1	120	220	320	NaN	520	0.528417924419045	1	1	NaN	4386224.7249728	NaN	4386225.7084643	4386226.22503548
21	19	0	0	90	36.1581920903955	36.241610738255	25	0.833403799682856	2	11	1	NaN	2	4	0.229749065224915	0	1	NaN	146	3	20	1	120	220	320	NaN	520	0.622002623975277	2	1	NaN	4386227.5753653	NaN	4386228.5587996	4386229.07531858
21	19	0	0	90	36.1581920903955	36.241610738255	19	0.63338688775897	2	5	1	NaN	1	3	0.229749065224915	0	1	NaN	147	3	21	1	120	220	320	NaN	520	0.744677620008588	1	1	NaN	4386230.5090042	NaN	4386231.4922834	4386232.00893288
21	19	0	0	90	36.1581920903955	36.241610738255	8	0.266689215898514	2	10	1	NaN	2	3	0.229749065224915	0	1	NaN	148	3	22	1	120	220	320	NaN	520	2.08550692442805	2	1	NaN	4386233.5759459	NaN	4386234.5593554	4386235.07590698
21	19	0	0	90	36.1581920903955	36.241610738255	25	0.833403799682856	2	5	3	NaN	1	3	0.229749065224915	0	1	NaN	149	3	23	1	120	220	320	NaN	520	1.1731861717999	1	1	NaN	4386237.9764014	NaN	4386238.9597875	4386239.47633853
21	19	0	0	90	36.1581920903955	36.241610738255	0	0	1	5	5	NaN	1	4	0.229749065224915	0	1	NaN	150	3	24	1	110	210	310	NaN	510	0.425775872543454	1	1	NaN	4386241.4601604	NaN	4386242.4434933	4386242.96000843
21	19	0	0	90	36.1581920903955	36.241610738255	15	0.500042279809713	2	11	3	NaN	2	3	0.229749065224915	0	1	NaN	151	3	25	1	120	220	320	NaN	520	0.715703472495079	2	1	NaN	4386244.1936975	NaN	4386245.177058	4386245.69361593
21	19	0	0	90	36.1581920903955	36.241610738255	17	0.566714583784342	2	11	3	NaN	2	3	0.229749065224915	0	1	NaN	152	3	26	1	120	220	320	NaN	520	0.426408820785582	2	1	NaN	4386247.2272997	NaN	4386248.210698	4386248.72723728
21	19	0	0	90	36.1581920903955	36.241610738255	19	0.63338688775897	2	2	4	NaN	1	3	0.229749065224915	0	1	NaN	153	3	27	1	120	220	320	NaN	520	0.459774971939623	2	0	NaN	4386249.9775621	NaN	4386250.9610035	4386251.47751823
21	19	0	0	90	36.1581920903955	36.241610738255	0	0	1	12	2	NaN	2	4	0.229749065224915	0	1	NaN	154	3	28	1	110	210	310	NaN	510	0.300978572107852	2	1	NaN	4386252.7443727	NaN	4386253.7279098	4386254.24446233
21	19	0	0	90	36.1581920903955	36.241610738255	21	0.700059191733599	2	5	5	NaN	1	5	0.229749065224915	0	1	NaN	155	3	29	1	120	220	320	NaN	520	0.394145571626723	1	1	NaN	4386255.4114073	NaN	4386256.3948442	4386256.91138683
21	19	0	0	90	36.1581920903955	36.241610738255	24	0.800067647695541	2	1	4	NaN	1	4	0.229749065224915	0	1	NaN	156	3	30	1	120	220	320	NaN	520	0.309772124513984	2	0	NaN	4386258.1117051	NaN	4386259.0951038	4386259.61165178
21	19	0	0	90	36.1581920903955	36.241610738255	7	0.2333530639112	2	11	4	NaN	2	3	0.229749065224915	0	1	NaN	157	3	31	1	120	220	320	NaN	520	0.0104145724326372	2	1	NaN	4386260.7286315	NaN	4386261.7120492	4386262.22857063
21	19	0	0	90	36.1581920903955	36.241610738255	11	0.366697671860456	2	8	4	NaN	2	5	0.229749065224915	0	1	NaN	158	3	32	1	120	220	320	NaN	520	6.5358543721959	2	1	NaN	4386263.045555	NaN	4386264.0289151	4386264.54546943
21	19	0	0	90	36.1581920903955	36.241610738255	12	0.400033823847771	2	3	6	NaN	1	4	0.229749065224915	0	1	NaN	159	3	33	1	120	220	320	NaN	520	0.333205424249172	1	1	NaN	4386271.8963918	NaN	4386272.8797899	4386273.39633908
21	19	0	0	90	36.1581920903955	36.241610738255	18	0.600050735771656	2	9	4	NaN	2	4	0.229749065224915	0	1	NaN	160	3	34	1	120	220	320	NaN	520	2.24303797166795	1	0	NaN	4386274.5466439	NaN	4386275.5300457	4386276.04659123
21	19	0	0	90	36.1581920903955	36.241610738255	15	0.500042279809713	2	12	1	NaN	2	4	0.229749065224915	0	1	NaN	161	3	35	1	120	220	320	NaN	520	0.300343723967671	2	1	NaN	4386279.0971152	NaN	4386280.0804761	4386280.59704838
21	19	0	0	90	36.1581920903955	36.241610738255	23	0.766731495708227	2	4	2	NaN	1	5	0.229749065224915	0	1	NaN	162	3	36	1	120	220	320	NaN	520	0.411495272070169	1	1	NaN	4386281.7140307	NaN	4386282.6974164	4386283.21396473
21	19	0	0	90	36.1581920903955	36.241610738255	18	0.600050735771656	2	6	6	NaN	1	3	0.229749065224915	0	1	NaN	163	3	37	1	120	220	320	NaN	520	0.582003524526954	1	1	NaN	4386284.4476364	NaN	4386285.4310106	4386285.94757468
21	19	0	0	90	36.1581920903955	36.241610738255	8	0.266689215898514	2	12	6	NaN	2	3	0.229749065224915	0	1	NaN	164	3	38	1	120	220	320	NaN	520	5.62574632000178	2	1	NaN	4386287.3480194	NaN	4386288.3313027	4386288.84785958
21	19	0	0	90	36.1581920903955	36.241610738255	12	0.400033823847771	2	6	2	NaN	1	3	0.229749065224915	0	1	NaN	165	3	39	1	120	220	320	NaN	520	0.492061072960496	1	1	NaN	4386295.2819189	NaN	4386296.2654305	4386296.78195973
21	19	0	0	90	36.1581920903955	36.241610738255	11	0.366697671860456	2	7	1	NaN	2	5	0.229749065224915	0	1	NaN	166	3	40	1	120	220	320	NaN	520	0.298530024476349	2	1	NaN	4386298.0989725	NaN	4386299.0823711	4386299.59891548
21	19	0	0	90	36.1581920903955	36.241610738255	10	0.333361519873142	2	1	3	NaN	1	3	0.229749065224915	0	1	NaN	167	3	41	1	120	220	320	NaN	520	0.657649572938681	2	0	NaN	4386300.7158867	NaN	4386301.6993303	4386302.21583983
21	19	0	0	90	36.1581920903955	36.241610738255	8	0.266689215898514	2	2	5	NaN	1	5	0.229749065224915	0	1	NaN	168	3	42	1	120	220	320	NaN	520	0.32285082526505	1	1	NaN	4386303.682789	NaN	4386304.6662429	4386305.18278428
21	19	0	0	90	36.1581920903955	36.241610738255	0	0	1	12	5	NaN	2	4	0.229749065224915	0	1	NaN	169	3	43	1	110	210	310	NaN	510	0.489131172187626	2	1	NaN	4386306.3164415	NaN	4386307.2998361	4386307.81638743
21	19	0	0	90	36.1581920903955	36.241610738255	25	0.833403799682856	2	7	2	NaN	2	3	0.229749065224915	0	1	NaN	170	3	44	1	120	220	320	NaN	520	0.520901872776449	2	1	NaN	4386309.1167182	NaN	4386310.1001215	4386310.61665133
21	19	0	0	90	36.1581920903955	36.241610738255	19	0.63338688775897	2	1	1	NaN	1	5	0.229749065224915	0	1	NaN	171	3	45	1	120	220	320	NaN	520	0.367117120884359	1	1	NaN	4386311.9503542	NaN	4386312.933712	4386313.45027128
21	19	0	0	90	36.1581920903955	36.241610738255	14	0.466706127822399	2	7	6	NaN	2	5	0.229749065224915	0	1	NaN	172	3	46	1	120	220	320	NaN	520	0.323700972832739	2	1	NaN	4386314.6339268	NaN	4386315.6173221	4386316.13386803
21	19	0	0	90	36.1581920903955	36.241610738255	19	0.63338688775897	2	3	4	NaN	1	5	0.229749065224915	0	1	NaN	173	3	47	1	120	220	320	NaN	520	0.738375471904874	1	1	NaN	4386317.2674588	NaN	4386318.2509154	4386318.76746233
21	19	0	0	90	36.1581920903955	36.241610738255	0	0	1	10	2	NaN	2	5	0.229749065224915	0	1	NaN	174	3	48	1	110	210	310	NaN	510	0.408213072456419	1	0	NaN	4386320.3178102	NaN	4386321.3012093	4386321.81776873
21	19	0	0	90	36.1581920903955	36.241610738255	21	0.700059191733599	2	2	1	NaN	1	3	0.229749065224915	0	1	NaN	175	3	49	1	120	220	320	NaN	520	1.49093007203192	1	1	NaN	4386323.0347539	NaN	4386324.0181448	4386324.53469033
21	19	0	0	90	36.1581920903955	36.241610738255	23	0.766731495708227	2	3	2	NaN	1	5	0.229749065224915	0	1	NaN	176	3	50	1	120	220	320	NaN	520	0.369776072911918	1	1	NaN	4386326.8517925	NaN	4386327.8352157	4386328.35173083
21	19	0	0	90	36.1581920903955	36.241610738255	10	0.333361519873142	2	12	5	NaN	2	5	0.229749065224915	0	1	NaN	177	3	51	1	120	220	320	NaN	520	1.4221042720601	1	0	NaN	4386329.5353789	NaN	4386330.5187891	4386331.03533493
21	19	0	0	90	36.1581920903955	36.241610738255	14	0.466706127822399	2	4	6	NaN	1	3	0.229749065224915	0	1	NaN	178	3	52	1	120	220	320	NaN	520	0.360491423867643	1	1	NaN	4386333.2691115	NaN	4386334.2525	4386334.76903988
21	19	0	0	90	36.1581920903955	36.241610738255	14	0.466706127822399	2	3	4	NaN	1	4	0.229749065224915	0	1	NaN	179	3	53	1	120	220	320	NaN	520	1.70947817247361	1	1	NaN	4386335.9360158	NaN	4386336.9194448	4386337.43596613
21	19	0	0	90	36.1581920903955	36.241610738255	6	0.200016911923885	2	2	3	NaN	1	5	0.229749065224915	0	1	NaN	180	3	54	1	120	220	320	NaN	520	1.02888177148998	1	1	NaN	4386339.9530733	NaN	4386340.9364687	4386341.45301943
21	19	0	0	90	36.1581920903955	36.241610738255	12	0.400033823847771	2	11	2	NaN	2	5	0.229749065224915	0	1	NaN	181	3	55	1	120	220	320	NaN	520	0.870952525176108	2	1	NaN	4386343.2866323	NaN	4386344.2701467	4386344.78668948
21	19	0	0	90	36.1581920903955	36.241610738255	6	0.200016911923885	2	5	1	NaN	1	5	0.229749065224915	0	1	NaN	182	3	56	1	120	220	320	NaN	520	0.535229395143688	1	1	NaN	4386346.470398	NaN	4386347.4537941	4386347.9703383
21	19	0	0	90	36.1581920903955	36.241610738255	17	0.566714583784342	2	5	6	NaN	1	3	0.229749065224915	0	1	NaN	183	3	57	1	120	220	320	NaN	520	0.405390120111406	1	1	NaN	4386349.3206311	NaN	4386350.3040593	4386350.82060808
21	19	0	0	90	36.1581920903955	36.241610738255	22	0.733395343720913	2	7	6	NaN	2	3	0.229749065224915	0	1	NaN	184	3	58	1	120	220	320	NaN	520	0.319969824515283	2	1	NaN	4386352.0376099	NaN	4386353.0209781	4386353.53755008
21	19	0	0	90	36.1581920903955	36.241610738255	14	0.466706127822399	2	9	6	NaN	2	4	0.229749065224915	0	1	NaN	185	3	59	1	120	220	320	NaN	520	0.40638632979244	2	1	NaN	4386354.6711891	NaN	4386355.6545862	4386356.17113397
21	19	0	0	90	36.1581920903955	36.241610738255	13	0.433369975835085	2	8	5	NaN	2	4	0.229749065224915	0	1	NaN	186	3	60	1	120	220	320	NaN	520	0.377618924714625	2	1	NaN	4386357.3881315	NaN	4386358.3716054	4386358.88807528
21	19	0	0	90	36.1581920903955	36.241610738255	16	0.533378431797028	2	2	3	NaN	1	5	0.229749065224915	0	1	NaN	187	3	61	1	120	220	320	NaN	520	1.47776717320085	1	1	NaN	4386360.0882555	NaN	4386361.0718005	4386361.58833843
21	19	0	0	90	36.1581920903955	36.241610738255	25	0.833403799682856	2	1	6	NaN	1	5	0.229749065224915	0	1	NaN	188	3	62	1	120	220	320	NaN	520	0.444821590557694	2	0	NaN	4386363.8888583	NaN	4386364.8721584	4386365.38871171
21	19	0	0	90	36.1581920903955	36.241610738255	24	0.800067647695541	2	12	2	NaN	2	5	0.229749065224915	0	1	NaN	189	3	63	1	120	220	320	NaN	520	1.24595817178488	2	1	NaN	4386366.6556887	NaN	4386367.6390885	4386368.15565963
21	19	0	0	90	36.1581920903955	36.241610738255	22	0.733395343720913	2	9	5	NaN	2	4	0.229749065224915	0	1	NaN	190	4	1	1	120	220	320	NaN	520	1.06687442027032	2	1	NaN	4386377.506733	NaN	4386378.4901154	4386379.00671568
21	19	0	0	90	36.1581920903955	36.241610738255	17	0.566714583784342	2	2	2	NaN	1	4	0.229749065224915	0	1	NaN	191	4	2	1	120	220	320	NaN	520	0.467177772894502	1	1	NaN	4386380.8904213	NaN	4386381.8738265	4386382.39038383
21	19	0	0	90	36.1581920903955	36.241610738255	24	0.800067647695541	2	7	1	NaN	2	5	0.229749065224915	0	1	NaN	192	4	3	1	120	220	320	NaN	520	0.403700772672892	2	1	NaN	4386383.6741011	NaN	4386384.6574373	4386385.17398513
21	19	0	0	90	36.1581920903955	36.241610738255	11	0.366697671860456	2	2	6	NaN	1	5	0.229749065224915	0	1	NaN	193	4	4	1	120	220	320	NaN	520	0.399123472161591	2	0	NaN	4386386.3909804	NaN	4386387.3743772	4386387.89091803
21	19	0	0	90	36.1581920903955	36.241610738255	10	0.333361519873142	2	8	1	NaN	2	4	0.229749065224915	0	1	NaN	194	4	5	1	120	220	320	NaN	520	0.785800072364509	2	1	NaN	4386389.107912	NaN	4386390.0913008	4386390.60784863
21	19	0	0	90	36.1581920903955	36.241610738255	0	0	1	1	3	NaN	1	4	0.229749065224915	0	1	NaN	195	4	6	1	110	210	310	NaN	510	0.349627972580492	2	0	NaN	4386392.2082009	NaN	4386393.1916068	4386393.70815833
21	19	0	0	90	36.1581920903955	36.241610738255	9	0.300025367885828	2	1	3	NaN	1	3	0.229749065224915	0	1	NaN	196	4	7	1	120	220	320	NaN	520	0.810609320178628	2	0	NaN	4386394.8751305	NaN	4386395.8585285	4386396.37508158
21	19	0	0	90	36.1581920903955	36.241610738255	22	0.733395343720913	2	2	2	NaN	1	4	0.229749065224915	0	1	NaN	197	4	8	1	120	220	320	NaN	520	0.4139355244115	1	1	NaN	4386397.9919854	NaN	4386398.9755321	4386399.49206358
21	19	0	0	90	36.1581920903955	36.241610738255	22	0.733395343720913	2	10	6	NaN	2	4	0.229749065224915	0	1	NaN	198	4	9	1	120	220	320	NaN	520	0.439901819452643	1	0	NaN	4386400.7256809	NaN	4386401.7091146	4386402.22566648
21	19	0	0	90	36.1581920903955	36.241610738255	20	0.666723039746284	2	3	5	NaN	1	4	0.229749065224915	0	1	NaN	199	4	10	1	120	220	320	NaN	520	2.16970389056951	1	1	NaN	4386403.475952	NaN	4386404.4593883	4386404.97593451
21	19	0	0	90	36.1581920903955	36.241610738255	13	0.433369975835085	2	10	2	NaN	2	3	0.229749065224915	0	1	NaN	200	4	11	1	120	220	320	NaN	520	0.805962820537388	1	0	NaN	4386407.9597561	NaN	4386408.9431428	4386409.45970088
21	19	0	0	90	36.1581920903955	36.241610738255	17	0.566714583784342	2	10	5	NaN	2	3	0.229749065224915	0	1	NaN	201	4	12	1	120	220	320	NaN	520	0.905354373157024	1	0	NaN	4386411.0767262	NaN	4386412.0601781	4386412.57667593
21	19	0	0	90	36.1581920903955	36.241610738255	0	0	1	8	1	NaN	2	4	0.229749065224915	0	1	NaN	202	4	13	1	110	210	310	NaN	510	0.871985024772584	2	1	NaN	4386414.2937778	NaN	4386415.2770889	4386415.79366538
21	19	0	0	90	36.1581920903955	36.241610738255	7	0.2333530639112	2	1	4	NaN	1	3	0.229749065224915	0	1	NaN	203	4	14	1	120	220	320	NaN	520	0.663096671923995	2	0	NaN	4386417.5106797	NaN	4386418.4941096	4386419.01063663
21	19	0	0	90	36.1581920903955	36.241610738255	15	0.500042279809713	2	4	3	NaN	1	3	0.229749065224915	0	1	NaN	204	4	15	1	120	220	320	NaN	520	0.591481820680201	1	1	NaN	4386420.4943143	NaN	4386421.477741	4386421.99428458
21	19	0	0	90	36.1581920903955	36.241610738255	10	0.333361519873142	2	6	1	NaN	1	3	0.229749065224915	0	1	NaN	205	4	16	1	120	220	320	NaN	520	0.44362907204777	1	1	NaN	4386423.394672	NaN	4386424.3780402	4386424.89454903
21	19	0	0	90	36.1581920903955	36.241610738255	20	0.666723039746284	2	10	1	NaN	2	3	0.229749065224915	0	1	NaN	206	4	17	1	120	220	320	NaN	520	5.82088169548661	2	1	NaN	4386426.1447551	NaN	4386427.1282563	4386427.6448339
21	19	0	0	90	36.1581920903955	36.241610738255	20	0.666723039746284	2	9	3	NaN	2	4	0.229749065224915	0	1	NaN	207	4	18	1	120	220	320	NaN	520	0.326783124357462	2	1	NaN	4386434.2790231	NaN	4386435.2624168	4386435.77896048
21	19	0	0	90	36.1581920903955	36.241610738255	8	0.266689215898514	2	8	4	NaN	2	3	0.229749065224915	0	1	NaN	208	4	19	1	120	220	320	NaN	520	0.51701002009213	2	1	NaN	4386436.929233	NaN	4386437.9126849	4386438.42921708
21	19	0	0	90	36.1581920903955	36.241610738255	20	0.666723039746284	2	1	5	NaN	1	4	0.229749065224915	0	1	NaN	209	4	20	1	120	220	320	NaN	520	1.76286417245865	1	1	NaN	4386439.7628916	NaN	4386440.7462833	4386441.26282493
21	19	0	0	90	36.1581920903955	36.241610738255	10	0.333361519873142	2	5	4	NaN	1	5	0.229749065224915	0	1	NaN	210	4	21	1	120	220	320	NaN	520	0.527807920239866	1	1	NaN	4386443.8300023	NaN	4386444.8133498	4386445.32988878
21	19	0	0	90	36.1581920903955	36.241610738255	25	0.833403799682856	2	2	5	NaN	1	5	0.229749065224915	0	1	NaN	211	4	22	1	120	220	320	NaN	520	1.04669687245041	2	0	NaN	4386446.6634567	NaN	4386447.6470102	4386448.16350483
21	19	0	0	90	36.1581920903955	36.241610738255	11	0.366697671860456	2	8	6	NaN	2	3	0.229749065224915	0	1	NaN	212	4	23	1	120	220	320	NaN	520	1.25520807225257	1	0	NaN	4386450.0305679	NaN	4386451.0139628	4386451.53050963
21	19	0	0	90	36.1581920903955	36.241610738255	16	0.533378431797028	2	8	1	NaN	2	4	0.229749065224915	0	1	NaN	213	4	24	1	120	220	320	NaN	520	2.16821967251599	2	1	NaN	4386453.5975799	NaN	4386454.5810365	4386455.09751783
21	19	0	0	90	36.1581920903955	36.241610738255	17	0.566714583784342	2	12	2	NaN	2	4	0.229749065224915	0	1	NaN	214	4	25	1	120	220	320	NaN	520	1.40479107294232	2	1	NaN	4386458.0813553	NaN	4386459.0647434	4386459.58129023
21	19	0	0	90	36.1581920903955	36.241610738255	20	0.666723039746284	2	5	2	NaN	1	4	0.229749065224915	0	1	NaN	215	4	26	1	120	220	320	NaN	520	0.471951386891305	2	0	NaN	4386461.7983843	NaN	4386462.7817811	4386463.29833271
21	19	0	0	90	36.1581920903955	36.241610738255	25	0.833403799682856	2	5	3	NaN	1	3	0.229749065224915	0	1	NaN	216	4	27	1	120	220	320	NaN	520	2.57607687171549	2	0	NaN	4386464.5819804	NaN	4386465.5652802	4386466.08194003
21	19	0	0	90	36.1581920903955	36.241610738255	21	0.700059191733599	2	7	2	NaN	2	4	0.229749065224915	0	1	NaN	217	4	28	1	120	220	320	NaN	520	1.48401537258178	2	1	NaN	4386469.4658961	NaN	4386470.4490891	4386470.96575083
21	19	0	0	90	36.1581920903955	36.241610738255	0	0	1	4	6	NaN	1	3	0.229749065224915	0	1	NaN	218	4	29	1	110	210	310	NaN	510	1.2997182244435	1	1	NaN	4386473.2662113	NaN	4386474.2496042	4386474.76612708
21	19	0	0	90	36.1581920903955	36.241610738255	15	0.500042279809713	2	6	4	NaN	1	3	0.229749065224915	0	1	NaN	219	4	30	1	120	220	320	NaN	520	0.38768957182765	1	1	NaN	4386476.8665542	NaN	4386477.8499266	4386478.36646783
21	19	0	0	90	36.1581920903955	36.241610738255	7	0.2333530639112	2	7	1	NaN	2	4	0.229749065224915	0	1	NaN	220	4	31	1	120	220	320	NaN	520	0.575062472373247	2	1	NaN	4386479.5667886	NaN	4386480.5501842	4386481.06674303
21	19	0	0	90	36.1581920903955	36.241610738255	20	0.666723039746284	2	12	3	NaN	2	4	0.229749065224915	0	1	NaN	221	4	32	1	120	220	320	NaN	520	1.26787212397903	1	0	NaN	4386482.450285	NaN	4386483.4338305	4386483.95035468
21	19	0	0	90	36.1581920903955	36.241610738255	15	0.500042279809713	2	9	5	NaN	2	5	0.229749065224915	0	1	NaN	222	4	33	1	120	220	320	NaN	520	0.356132920831442	2	1	NaN	4386486.0341142	NaN	4386487.0175101	4386487.53404678
21	19	0	0	90	36.1581920903955	36.241610738255	7	0.2333530639112	2	8	2	NaN	2	3	0.229749065224915	0	1	NaN	223	4	34	1	120	220	320	NaN	520	0.50492637231946	2	1	NaN	4386488.7010306	NaN	4386489.6844296	4386490.20096383
21	19	0	0	90	36.1581920903955	36.241610738255	12	0.400033823847771	2	8	6	NaN	2	5	0.229749065224915	0	1	NaN	224	4	35	1	120	220	320	NaN	520	0.680273124948144	1	0	NaN	4386491.5179787	NaN	4386492.5013581	4386493.01791728
21	19	0	0	90	36.1581920903955	36.241610738255	8	0.266689215898514	2	11	6	NaN	2	4	0.229749065224915	0	1	NaN	225	4	36	1	120	220	320	NaN	520	0.351950919255614	2	1	NaN	4386494.5182478	NaN	4386495.5016613	4386496.01820558
21	19	0	0	90	36.1581920903955	36.241610738255	24	0.800067647695541	2	2	1	NaN	1	3	0.229749065224915	0	1	NaN	226	4	37	1	120	220	320	NaN	520	0.364659672603011	2	0	NaN	4386497.1851321	NaN	4386498.1686396	4386498.68514213
21	19	0	0	90	36.1581920903955	36.241610738255	11	0.366697671860456	2	3	6	NaN	1	5	0.229749065224915	0	1	NaN	227	4	38	1	120	220	320	NaN	520	1.09746872447431	1	1	NaN	4386499.8687922	NaN	4386500.8521865	4386501.36873928
21	19	0	0	90	36.1581920903955	36.241610738255	19	0.63338688775897	2	4	4	NaN	1	5	0.229749065224915	0	1	NaN	228	4	39	1	120	220	320	NaN	520	0.336006672121584	1	1	NaN	4386503.2857876	NaN	4386504.2691858	4386504.78573763
21	19	0	0	90	36.1581920903955	36.241610738255	25	0.833403799682856	2	7	4	NaN	2	3	0.229749065224915	0	1	NaN	229	4	40	1	120	220	320	NaN	520	0.389748725108802	2	1	NaN	4386505.9360551	NaN	4386506.9194905	4386507.43600168
21	19	0	0	90	36.1581920903955	36.241610738255	17	0.566714583784342	2	10	5	NaN	2	5	0.229749065224915	0	1	NaN	230	4	41	1	120	220	320	NaN	520	0.353699772618711	1	0	NaN	4386508.6363064	NaN	4386509.6197189	4386510.13626763
21	19	0	0	90	36.1581920903955	36.241610738255	6	0.200016911923885	2	9	6	NaN	2	5	0.229749065224915	0	1	NaN	231	4	42	1	120	220	320	NaN	520	0.310633272863925	2	1	NaN	4386511.303234	NaN	4386512.2867001	4386512.80318733
21	19	0	0	90	36.1581920903955	36.241610738255	0	0	1	11	3	NaN	2	4	0.229749065224915	0	1	NaN	232	4	43	1	110	210	310	NaN	510	0.79009557235986	2	1	NaN	4386513.9200305	NaN	4386514.9035624	4386515.42012213
21	19	0	0	90	36.1581920903955	36.241610738255	11	0.366697671860456	2	2	4	NaN	1	5	0.229749065224915	0	1	NaN	233	4	44	1	120	220	320	NaN	520	0.497301772236824	1	1	NaN	4386517.0204778	NaN	4386518.0038626	4386518.52041873
21	19	0	0	90	36.1581920903955	36.241610738255	12	0.400033823847771	2	4	2	NaN	1	5	0.229749065224915	0	1	NaN	234	4	45	1	120	220	320	NaN	520	0.296842572279274	1	1	NaN	4386519.8372761	NaN	4386520.8208103	4386521.33735883
21	19	0	0	90	36.1581920903955	36.241610738255	6	0.200016911923885	2	11	5	NaN	2	3	0.229749065224915	0	1	NaN	235	4	46	1	120	220	320	NaN	520	0.311439420096576	2	1	NaN	4386522.4543422	NaN	4386523.4377411	4386523.95429268
21	19	0	0	90	36.1581920903955	36.241610738255	18	0.600050735771656	2	7	6	NaN	2	5	0.229749065224915	0	1	NaN	236	4	47	1	120	220	320	NaN	520	0.799088772386312	2	1	NaN	4386525.0712745	NaN	4386526.0546528	4386526.57120903
21	19	0	0	90	36.1581920903955	36.241610738255	6	0.200016911923885	2	2	1	NaN	1	4	0.229749065224915	0	1	NaN	237	4	48	1	120	220	320	NaN	520	0.369585848413408	1	1	NaN	4386528.1882453	NaN	4386529.1716252	4386529.68818645
21	19	0	0	90	36.1581920903955	36.241610738255	10	0.333361519873142	2	12	2	NaN	2	3	0.229749065224915	0	1	NaN	238	4	49	1	120	220	320	NaN	520	0.478020272217691	2	1	NaN	4386530.8718561	NaN	4386531.8552479	4386532.37178523
21	19	0	0	90	36.1581920903955	36.241610738255	24	0.800067647695541	2	8	5	NaN	2	4	0.229749065224915	0	1	NaN	239	4	50	1	120	220	320	NaN	520	1.69457742478698	1	0	NaN	4386533.6553058	NaN	4386534.6388544	4386535.15538668
21	19	0	0	90	36.1581920903955	36.241610738255	16	0.533378431797028	2	3	4	NaN	1	3	0.229749065224915	0	1	NaN	240	4	51	1	120	220	320	NaN	520	0.462110372260213	2	0	NaN	4386537.6557202	NaN	4386538.639225	4386539.15577503
21	19	0	0	90	36.1581920903955	36.241610738255	14	0.466706127822399	2	1	2	NaN	1	5	0.229749065224915	0	1	NaN	241	4	52	1	120	220	320	NaN	520	1.81484146788716	1	1	NaN	4386540.4394453	NaN	4386541.4228382	4386541.93938673
21	19	0	0	90	36.1581920903955	36.241610738255	22	0.733395343720913	2	1	6	NaN	1	3	0.229749065224915	0	1	NaN	242	4	53	1	120	220	320	NaN	520	1.32098987232894	2	0	NaN	4386544.5731726	NaN	4386545.5565778	4386546.07312133
21	19	0	0	90	36.1581920903955	36.241610738255	18	0.600050735771656	2	2	2	NaN	1	5	0.229749065224915	0	1	NaN	243	4	54	1	120	220	320	NaN	520	1.00689007248729	1	1	NaN	4386548.2068738	NaN	4386549.1902698	4386549.70681203
21	19	0	0	90	36.1581920903955	36.241610738255	23	0.766731495708227	2	5	4	NaN	1	4	0.229749065224915	0	1	NaN	244	4	55	1	120	220	320	NaN	520	0.682102272287011	2	0	NaN	4386551.5239064	NaN	4386552.5072432	4386553.02381443
21	19	0	0	90	36.1581920903955	36.241610738255	14	0.466706127822399	2	2	4	NaN	1	5	0.229749065224915	0	1	NaN	245	4	56	1	120	220	320	NaN	520	0.417815268039703	2	0	NaN	4386554.5241818	NaN	4386555.5075682	4386556.02409603
21	19	0	0	90	36.1581920903955	36.241610738255	11	0.366697671860456	2	9	6	NaN	2	4	0.229749065224915	0	1	NaN	246	4	57	1	120	220	320	NaN	520	0.364052971825004	2	1	NaN	4386557.2577691	NaN	4386558.2411643	4386558.75771173
21	19	0	0	90	36.1581920903955	36.241610738255	20	0.666723039746284	2	6	3	NaN	1	4	0.229749065224915	0	1	NaN	247	4	58	1	120	220	320	NaN	520	0.368562924675643	1	1	NaN	4386559.9413587	NaN	4386560.9247596	4386561.44130868
21	19	0	0	90	36.1581920903955	36.241610738255	20	0.666723039746284	2	7	5	NaN	2	3	0.229749065224915	0	1	NaN	248	4	59	1	120	220	320	NaN	520	0.325342172756791	2	1	NaN	4386562.6249565	NaN	4386563.6083438	4386564.12490763
21	19	0	0	90	36.1581920903955	36.241610738255	7	0.2333530639112	2	10	3	NaN	2	5	0.229749065224915	0	1	NaN	249	4	60	1	120	220	320	NaN	520	0.315263334661722	2	1	NaN	4386565.2585483	NaN	4386566.2419031	4386566.75849447
21	19	0	0	90	36.1581920903955	36.241610738255	16	0.533378431797028	2	3	1	NaN	1	4	0.229749065224915	0	1	NaN	250	4	61	1	120	220	320	NaN	520	0.850777772255242	1	1	NaN	4386567.8754645	NaN	4386568.858858	4386569.37542173
21	19	0	0	90	36.1581920903955	36.241610738255	9	0.300025367885828	2	8	4	NaN	2	5	0.229749065224915	0	1	NaN	251	4	62	1	120	220	320	NaN	520	0.379446224309504	2	1	NaN	4386571.0424456	NaN	4386572.0258528	4386572.54240028
21	19	0	0	90	36.1581920903955	36.241610738255	21	0.700059191733599	2	12	3	NaN	2	5	0.229749065224915	0	1	NaN	252	4	63	1	120	220	320	NaN	520	1.15115457307547	2	1	NaN	4386573.7427051	NaN	4386574.7261094	4386575.24266153
21	19	0	0	90	36.1581920903955	36.241610738255	13	0.433369975835085	2	10	6	NaN	2	3	0.229749065224915	0	1	NaN	253	5	1	1	120	220	320	NaN	520	0.307377372868359	2	1	NaN	4386583.427006	NaN	4386584.4103687	4386584.92695103
21	19	0	0	90	36.1581920903955	36.241610738255	6	0.200016911923885	2	6	5	NaN	1	5	0.229749065224915	0	1	NaN	254	5	2	1	120	220	320	NaN	520	0.345962624065578	1	1	NaN	4386586.0439089	NaN	4386587.0273251	4386587.54387168
21	19	0	0	90	36.1581920903955	36.241610738255	19	0.63338688775897	2	1	1	NaN	1	5	0.229749065224915	0	1	NaN	255	5	3	1	120	220	320	NaN	520	0.271610172465444	2	0	NaN	4386588.7108603	NaN	4386589.694258	4386590.21079083
21	19	0	0	90	36.1581920903955	36.241610738255	11	0.366697671860456	2	6	1	NaN	1	4	0.229749065224915	0	1	NaN	256	5	4	1	120	220	320	NaN	520	0.303538472391665	1	1	NaN	4386591.2944459	NaN	4386592.2778397	4386592.79437723
21	19	0	0	90	36.1581920903955	36.241610738255	9	0.300025367885828	2	2	6	NaN	1	5	0.229749065224915	0	1	NaN	257	5	5	1	120	220	320	NaN	520	1.3830697722733	1	1	NaN	4386593.9113835	NaN	4386594.8947351	4386595.41130103
21	19	0	0	90	36.1581920903955	36.241610738255	12	0.400033823847771	2	7	3	NaN	2	4	0.229749065224915	0	1	NaN	258	5	6	1	120	220	320	NaN	520	0.786208224482834	1	0	NaN	4386597.6117281	NaN	4386598.5951124	4386599.11167708
21	19	0	0	90	36.1581920903955	36.241610738255	19	0.63338688775897	2	8	3	NaN	2	4	0.229749065224915	0	1	NaN	259	5	7	1	120	220	320	NaN	520	2.39008422382176	1	0	NaN	4386600.7120219	NaN	4386601.6954348	4386602.21197328
21	19	0	0	90	36.1581920903955	36.241610738255	18	0.600050735771656	2	11	1	NaN	2	3	0.229749065224915	0	1	NaN	260	5	8	1	120	220	320	NaN	520	0.305440224707127	2	1	NaN	4386605.4124941	NaN	4386606.3958917	4386606.91244088
21	19	0	0	90	36.1581920903955	36.241610738255	11	0.366697671860456	2	5	6	NaN	1	4	0.229749065224915	0	1	NaN	261	5	9	1	120	220	320	NaN	520	0.456645620986819	1	1	NaN	4386608.0293743	NaN	4386609.0128096	4386609.52935308
21	19	0	0	90	36.1581920903955	36.241610738255	11	0.366697671860456	2	4	5	NaN	1	4	0.229749065224915	0	1	NaN	262	5	10	1	120	220	320	NaN	520	0.297527671791613	1	1	NaN	4386610.7962293	NaN	4386611.7797427	4386612.29629273
21	19	0	0	90	36.1581920903955	36.241610738255	14	0.466706127822399	2	12	5	NaN	2	5	0.229749065224915	0	1	NaN	263	5	11	1	120	220	320	NaN	520	7.46537457220256	2	1	NaN	4386613.3966092	NaN	4386614.3800028	4386614.89655903
21	19	0	0	90	36.1581920903955	36.241610738255	13	0.433369975835085	2	11	4	NaN	2	4	0.229749065224915	0	1	NaN	264	5	12	1	120	220	320	NaN	520	1.49751442391425	2	1	NaN	4386623.1809044	NaN	4386624.164297	4386624.68085138
21	19	0	0	90	36.1581920903955	36.241610738255	18	0.600050735771656	2	12	1	NaN	2	3	0.229749065224915	0	1	NaN	265	5	13	1	120	220	320	NaN	520	0.481221720576286	2	1	NaN	4386626.9812587	NaN	4386627.9646571	4386628.48121528
21	19	0	0	90	36.1581920903955	36.241610738255	25	0.833403799682856	2	9	1	NaN	2	3	0.229749065224915	0	1	NaN	266	5	14	1	120	220	320	NaN	520	0.281210171990097	2	1	NaN	4386629.7648801	NaN	4386630.7482876	4386631.26482673
21	19	0	0	90	36.1581920903955	36.241610738255	21	0.700059191733599	2	6	6	NaN	1	3	0.229749065224915	0	1	NaN	267	5	15	1	120	220	320	NaN	520	0.280941972509027	1	1	NaN	4386632.3649871	NaN	4386633.3485474	4386633.86508723
21	19	0	0	90	36.1581920903955	36.241610738255	11	0.366697671860456	2	1	4	NaN	1	4	0.229749065224915	0	1	NaN	268	5	16	1	120	220	320	NaN	520	0.390562725253403	1	1	NaN	4386635.0153883	NaN	4386635.9987979	4386636.51535018
21	19	0	0	90	36.1581920903955	36.241610738255	11	0.366697671860456	2	10	1	NaN	2	5	0.229749065224915	0	1	NaN	269	5	17	1	120	220	320	NaN	520	0.641644796356559	2	1	NaN	4386637.9323272	NaN	4386638.9157335	4386639.4323019
21	19	0	0	90	36.1581920903955	36.241610738255	19	0.63338688775897	2	7	4	NaN	2	5	0.229749065224915	0	1	NaN	270	5	18	1	120	220	320	NaN	520	0.507335525006056	2	1	NaN	4386640.882638	NaN	4386641.8660379	4386642.38259458
21	19	0	0	90	36.1581920903955	36.241610738255	10	0.333361519873142	2	4	2	NaN	1	5	0.229749065224915	0	1	NaN	271	5	19	1	120	220	320	NaN	520	0.386647272855043	1	1	NaN	4386643.6995928	NaN	4386644.6829932	4386645.19952963
21	19	0	0	90	36.1581920903955	36.241610738255	15	0.500042279809713	2	1	1	NaN	1	4	0.229749065224915	0	1	NaN	272	5	20	1	120	220	320	NaN	520	0.270240624435246	1	1	NaN	4386646.3998499	NaN	4386647.3832477	4386647.89980288
21	19	0	0	90	36.1581920903955	36.241610738255	8	0.266689215898514	2	4	6	NaN	1	3	0.229749065224915	0	1	NaN	273	5	21	1	120	220	320	NaN	520	0.2627281434834	1	1	NaN	4386648.9834397	NaN	4386649.9667577	4386650.48339266
21	19	0	0	90	36.1581920903955	36.241610738255	19	0.63338688775897	2	6	1	NaN	1	4	0.229749065224915	0	1	NaN	274	5	22	1	120	220	320	NaN	520	0.383448325097561	1	1	NaN	4386651.5670547	NaN	4386652.5504283	4386653.06696958
21	19	0	0	90	36.1581920903955	36.241610738255	17	0.566714583784342	2	2	1	NaN	1	4	0.229749065224915	0	1	NaN	275	5	23	1	120	220	320	NaN	520	0.547119972296059	1	1	NaN	4386654.2672974	NaN	4386655.2506936	4386655.76724333
21	19	0	0	90	36.1581920903955	36.241610738255	12	0.400033823847771	2	8	6	NaN	2	4	0.229749065224915	0	1	NaN	276	5	24	1	120	220	320	NaN	520	0.976319272071123	2	1	NaN	4386657.1342258	NaN	4386658.117641	4386658.63418123
21	19	0	0	90	36.1581920903955	36.241610738255	20	0.666723039746284	2	8	3	NaN	2	4	0.229749065224915	0	1	NaN	277	5	25	1	120	220	320	NaN	520	0.308202120475471	1	0	NaN	4386660.4178982	NaN	4386661.4013004	4386661.91783978
21	19	0	0	90	36.1581920903955	36.241610738255	25	0.833403799682856	2	12	4	NaN	2	5	0.229749065224915	0	1	NaN	278	5	26	1	120	220	320	NaN	520	0.499315972439945	2	1	NaN	4386663.0348205	NaN	4386664.0182175	4386664.53477143
21	19	0	0	90	36.1581920903955	36.241610738255	14	0.466706127822399	2	4	3	NaN	1	5	0.229749065224915	0	1	NaN	279	5	27	1	120	220	320	NaN	520	0.386320372112095	1	1	NaN	4386665.8517941	NaN	4386666.8351596	4386667.35170843
21	19	0	0	90	36.1581920903955	36.241610738255	16	0.533378431797028	2	4	6	NaN	1	5	0.229749065224915	0	1	NaN	280	5	28	1	120	220	320	NaN	520	0.358482324518263	1	1	NaN	4386668.5518907	NaN	4386669.5354347	4386670.05197548
21	19	0	0	90	36.1581920903955	36.241610738255	21	0.700059191733599	2	11	5	NaN	2	3	0.229749065224915	0	1	NaN	281	5	29	1	120	220	320	NaN	520	0.29108327254653	2	1	NaN	4386671.218955	NaN	4386672.2024091	4386672.71889703
21	19	0	0	90	36.1581920903955	36.241610738255	6	0.200016911923885	2	12	6	NaN	2	3	0.229749065224915	0	1	NaN	282	5	30	1	120	220	320	NaN	520	0.395313372835517	2	1	NaN	4386673.8192154	NaN	4386674.8026063	4386675.31915203
21	19	0	0	90	36.1581920903955	36.241610738255	21	0.700059191733599	2	4	5	NaN	1	5	0.229749065224915	0	1	NaN	283	5	31	1	120	220	320	NaN	520	0.335130772553384	1	1	NaN	4386676.5194999	NaN	4386677.5029195	4386678.01942563
21	19	0	0	90	36.1581920903955	36.241610738255	21	0.700059191733599	2	9	2	NaN	2	4	0.229749065224915	0	1	NaN	284	5	32	1	120	220	320	NaN	520	0.460224372334778	1	0	NaN	4386679.1697659	NaN	4386680.1531416	4386680.66968043
21	19	0	0	90	36.1581920903955	36.241610738255	9	0.300025367885828	2	9	2	NaN	2	5	0.229749065224915	0	1	NaN	285	5	33	1	120	220	320	NaN	520	0.309418572112918	1	0	NaN	4386681.9366713	NaN	4386682.9200712	4386683.43661543
21	19	0	0	90	36.1581920903955	36.241610738255	16	0.533378431797028	2	12	6	NaN	2	5	0.229749065224915	0	1	NaN	286	5	34	1	120	220	320	NaN	520	3.46899847220629	2	1	NaN	4386684.5536284	NaN	4386685.5370029	4386686.05354653
21	19	0	0	90	36.1581920903955	36.241610738255	13	0.433369975835085	2	6	1	NaN	1	5	0.229749065224915	0	1	NaN	287	5	35	1	120	220	320	NaN	520	0.276517524383962	1	1	NaN	4386690.3375019	NaN	4386691.320897	4386691.83744918
21	19	0	0	90	36.1581920903955	36.241610738255	21	0.700059191733599	2	9	6	NaN	2	3	0.229749065224915	0	1	NaN	288	5	36	1	120	220	320	NaN	520	0.341435076668859	1	0	NaN	4386692.9210136	NaN	4386693.9044822	4386694.42104072
21	19	0	0	90	36.1581920903955	36.241610738255	12	0.400033823847771	2	2	1	NaN	1	3	0.229749065224915	0	1	NaN	289	5	37	1	120	220	320	NaN	520	0.306851872242987	1	1	NaN	4386695.5713831	NaN	4386696.5547475	4386697.07129963
21	19	0	0	90	36.1581920903955	36.241610738255	23	0.766731495708227	2	10	3	NaN	2	3	0.229749065224915	0	1	NaN	290	5	38	1	120	220	320	NaN	520	0.418027724139392	1	0	NaN	4386698.1882899	NaN	4386699.1716738	4386699.68821188
21	19	0	0	90	36.1581920903955	36.241610738255	14	0.466706127822399	2	6	4	NaN	1	3	0.229749065224915	0	1	NaN	291	5	39	1	120	220	320	NaN	520	0.356339772231877	1	1	NaN	4386700.9218775	NaN	4386701.9052731	4386702.42182493
21	19	0	0	90	36.1581920903955	36.241610738255	10	0.333361519873142	2	11	1	NaN	2	4	0.229749065224915	0	1	NaN	292	5	40	1	120	220	320	NaN	520	0.393697724677622	2	1	NaN	4386703.5887967	NaN	4386704.5722004	4386705.08875528
21	19	0	0	90	36.1581920903955	36.241610738255	15	0.500042279809713	2	5	5	NaN	1	3	0.229749065224915	0	1	NaN	293	5	41	1	120	220	320	NaN	520	0.308505919761956	1	1	NaN	4386706.3057599	NaN	4386707.289134	4386707.80568128
21	19	0	0	90	36.1581920903955	36.241610738255	24	0.800067647695541	2	6	6	NaN	1	4	0.229749065224915	0	1	NaN	294	5	42	1	120	220	320	NaN	520	0.419471625238657	1	1	NaN	4386708.9226655	NaN	4386709.9061353	4386710.42261088
21	19	0	0	90	36.1581920903955	36.241610738255	13	0.433369975835085	2	11	5	NaN	2	4	0.229749065224915	0	1	NaN	295	5	43	1	120	220	320	NaN	520	0.358181620016694	2	1	NaN	4386711.6562746	NaN	4386712.6396584	4386713.15620448
21	19	0	0	90	36.1581920903955	36.241610738255	14	0.466706127822399	2	11	2	NaN	2	4	0.229749065224915	0	1	NaN	296	5	44	1	120	220	320	NaN	520	0.362955424003303	2	1	NaN	4386714.3231968	NaN	4386715.3065957	4386715.82314108
21	19	0	0	90	36.1581920903955	36.241610738255	10	0.333361519873142	2	2	3	NaN	1	3	0.229749065224915	0	1	NaN	297	5	45	1	120	220	320	NaN	520	0.327262219972908	1	1	NaN	4386717.0068824	NaN	4386717.9901899	4386718.50672848
21	19	0	0	90	36.1581920903955	36.241610738255	8	0.266689215898514	2	5	4	NaN	1	5	0.229749065224915	0	1	NaN	298	5	46	1	120	220	320	NaN	520	0.35822232440114	1	1	NaN	4386719.6402489	NaN	4386720.6238006	4386721.14032558
21	19	0	0	90	36.1581920903955	36.241610738255	10	0.333361519873142	2	10	6	NaN	2	5	0.229749065224915	0	1	NaN	299	5	47	1	120	220	320	NaN	520	0.31511702015996	2	1	NaN	4386722.3073081	NaN	4386723.2907006	4386723.80725118
21	19	0	0	90	36.1581920903955	36.241610738255	21	0.700059191733599	2	7	1	NaN	2	5	0.229749065224915	0	1	NaN	300	5	48	1	120	220	320	NaN	520	0.32970112003386	2	1	NaN	4386724.9409079	NaN	4386725.9242941	4386726.44084558
21	19	0	0	90	36.1581920903955	36.241610738255	21	0.700059191733599	2	11	6	NaN	2	3	0.229749065224915	0	1	NaN	301	5	49	1	120	220	320	NaN	520	0.383074420504272	2	1	NaN	4386727.5912621	NaN	4386728.5745537	4386729.09110518
21	19	0	0	90	36.1581920903955	36.241610738255	6	0.200016911923885	2	10	3	NaN	2	3	0.229749065224915	0	1	NaN	302	5	50	1	120	220	320	NaN	520	0.314608824439347	2	1	NaN	4386730.2914306	NaN	4386731.2748228	4386731.79137698
21	19	0	0	90	36.1581920903955	36.241610738255	14	0.466706127822399	2	9	1	NaN	2	5	0.229749065224915	0	1	NaN	303	5	51	1	120	220	320	NaN	520	0.354138419963419	2	1	NaN	4386732.9083516	NaN	4386733.891752	4386734.40829088
21	19	0	0	90	36.1581920903955	36.241610738255	9	0.300025367885828	2	11	6	NaN	2	3	0.229749065224915	0	1	NaN	304	5	52	1	120	220	320	NaN	520	0.31892232503742	2	1	NaN	4386735.5751421	NaN	4386736.5587152	4386737.07522628
21	19	0	0	90	36.1581920903955	36.241610738255	6	0.200016911923885	2	5	1	NaN	1	4	0.229749065224915	0	1	NaN	305	5	53	1	120	220	320	NaN	520	0.389340672641993	1	1	NaN	4386738.2088926	NaN	4386739.1922651	4386739.70881993
21	19	0	0	90	36.1581920903955	36.241610738255	13	0.433369975835085	2	4	4	NaN	1	5	0.229749065224915	0	1	NaN	306	5	54	1	120	220	320	NaN	520	1.62546492461115	2	0	NaN	4386740.9091355	NaN	4386741.8925217	4386742.40908648
21	19	0	0	90	36.1581920903955	36.241610738255	15	0.500042279809713	2	10	6	NaN	2	5	0.229749065224915	0	1	NaN	307	5	55	1	120	220	320	NaN	520	0.38726407289505	2	1	NaN	4386744.8428629	NaN	4386745.8262775	4386746.34280173
21	19	0	0	90	36.1581920903955	36.241610738255	18	0.600050735771656	2	8	6	NaN	2	4	0.229749065224915	0	1	NaN	308	5	56	1	120	220	320	NaN	520	0.311277324333787	2	1	NaN	4386747.543115	NaN	4386748.5265257	4386749.04307108
21	19	0	0	90	36.1581920903955	36.241610738255	22	0.733395343720913	2	12	5	NaN	2	3	0.229749065224915	0	1	NaN	309	5	57	1	120	220	320	NaN	520	0.31755602452904	1	0	NaN	4386750.1767205	NaN	4386751.1601157	4386751.67666128
21	19	0	0	90	36.1581920903955	36.241610738255	18	0.600050735771656	2	12	6	NaN	2	4	0.229749065224915	0	1	NaN	310	5	58	1	120	220	320	NaN	520	0.467915124259889	1	0	NaN	4386752.8103133	NaN	4386753.7937291	4386754.31025438
21	19	0	0	90	36.1581920903955	36.241610738255	14	0.466706127822399	2	3	3	NaN	1	4	0.229749065224915	0	1	NaN	311	5	59	1	120	220	320	NaN	520	0.300289872102439	1	1	NaN	4386755.5939208	NaN	4386756.5772872	4386757.09385503
21	19	0	0	90	36.1581920903955	36.241610738255	10	0.333361519873142	2	3	3	NaN	1	3	0.229749065224915	0	1	NaN	312	5	60	1	120	220	320	NaN	520	0.283413524739444	1	1	NaN	4386758.2108431	NaN	4386759.1942318	4386759.71078398
21	19	0	0	90	36.1581920903955	36.241610738255	7	0.2333530639112	2	9	1	NaN	2	5	0.229749065224915	0	1	NaN	313	5	61	1	120	220	320	NaN	520	0.299384173005819	1	0	NaN	4386760.811088	NaN	4386761.7944917	4386762.31103193
21	19	0	0	90	36.1581920903955	36.241610738255	14	0.466706127822399	2	11	6	NaN	2	3	0.229749065224915	0	1	NaN	314	5	62	1	120	220	320	NaN	520	0.226215071976185	2	1	NaN	4386763.4281066	NaN	4386764.4114452	4386764.92796613
21	19	0	0	90	36.1581920903955	36.241610738255	18	0.600050735771656	2	5	5	NaN	1	3	0.229749065224915	0	1	NaN	315	5	63	1	120	220	320	NaN	520	0.324643672443926	1	1	NaN	4386765.9615976	NaN	4386766.9449978	4386767.46154153
21	19	0	0	90	36.1581920903955	36.241610738255	19	0.63338688775897	2	12	3	NaN	2	4	0.229749065224915	0	1	NaN	316	6	1	1	120	220	320	NaN	520	0.31853727158159	2	1	NaN	4386773.6956899	NaN	4386774.6790793	4386775.19562863
21	19	0	0	90	36.1581920903955	36.241610738255	25	0.833403799682856	2	3	5	NaN	1	4	0.229749065224915	0	1	NaN	317	6	2	1	120	220	320	NaN	520	0.285278124734759	1	1	NaN	4386776.329268	NaN	4386777.3126761	4386777.82923258
21	19	0	0	90	36.1581920903955	36.241610738255	20	0.666723039746284	2	11	2	NaN	2	4	0.229749065224915	0	1	NaN	318	6	3	1	120	220	320	NaN	520	0.332607972435653	2	1	NaN	4386778.9295322	NaN	4386779.9129317	4386780.42947633
21	19	0	0	90	36.1581920903955	36.241610738255	9	0.300025367885828	2	10	2	NaN	2	5	0.229749065224915	0	1	NaN	319	6	4	1	120	220	320	NaN	520	0.242407772690058	1	0	NaN	4386781.5799378	NaN	4386782.5631921	4386783.07974413
21	19	0	0	90	36.1581920903955	36.241610738255	21	0.700059191733599	2	10	4	NaN	2	4	0.229749065224915	0	1	NaN	320	6	5	1	120	220	320	NaN	520	0.251913920044899	2	1	NaN	4386784.1467134	NaN	4386785.130108	4386785.64665958
21	19	0	0	90	36.1581920903955	36.241610738255	18	0.600050735771656	2	6	2	NaN	1	3	0.229749065224915	0	1	NaN	321	6	6	1	120	220	320	NaN	520	0.268640824593604	1	1	NaN	4386786.7136421	NaN	4386787.697034	4386788.21358708
21	19	0	0	90	36.1581920903955	36.241610738255	18	0.600050735771656	2	10	1	NaN	2	4	0.229749065224915	0	1	NaN	322	6	7	1	120	220	320	NaN	520	0.269394724629819	2	1	NaN	4386789.2972102	NaN	4386790.2806163	4386790.79718258
21	19	0	0	90	36.1581920903955	36.241610738255	21	0.700059191733599	2	4	5	NaN	1	5	0.229749065224915	0	1	NaN	323	6	8	1	120	220	320	NaN	520	0.349389272741973	1	1	NaN	4386791.8808307	NaN	4386792.8642032	4386793.38074973
21	19	0	0	90	36.1581920903955	36.241610738255	7	0.2333530639112	2	6	4	NaN	1	3	0.229749065224915	0	1	NaN	324	6	9	1	120	220	320	NaN	520	0.346548019908369	1	1	NaN	4386794.5477269	NaN	4386795.5311251	4386796.04767738
21	19	0	0	90	36.1581920903955	36.241610738255	17	0.566714583784342	2	4	2	NaN	1	4	0.229749065224915	0	1	NaN	325	6	10	1	120	220	320	NaN	520	0.255742624402046	1	1	NaN	4386797.2146601	NaN	4386798.1980643	4386798.71461888
21	19	0	0	90	36.1581920903955	36.241610738255	23	0.766731495708227	2	8	3	NaN	2	3	0.229749065224915	0	1	NaN	326	6	11	1	120	220	320	NaN	520	0.288792272098362	2	1	NaN	4386799.7815752	NaN	4386800.7650188	4386801.28152533
21	19	0	0	90	36.1581920903955	36.241610738255	23	0.766731495708227	2	5	3	NaN	1	3	0.229749065224915	0	1	NaN	327	6	12	1	120	220	320	NaN	520	0.280509567819536	2	0	NaN	4386802.3818464	NaN	4386803.3652418	4386803.88180843
21	19	0	0	90	36.1581920903955	36.241610738255	19	0.63338688775897	2	2	2	NaN	1	3	0.229749065224915	0	1	NaN	328	6	13	1	120	220	320	NaN	520	2.20063061546534	1	1	NaN	4386804.9820902	NaN	4386805.9654728	4386806.48203278
21	19	0	0	90	36.1581920903955	36.241610738255	23	0.766731495708227	2	6	1	NaN	1	3	0.229749065224915	0	1	NaN	329	6	14	1	120	220	320	NaN	520	0.259053524583578	1	1	NaN	4386809.4992155	NaN	4386810.4826038	4386810.99915658
21	19	0	0	90	36.1581920903955	36.241610738255	12	0.400033823847771	2	5	3	NaN	1	4	0.229749065224915	0	1	NaN	330	6	15	1	120	220	320	NaN	520	0.468567471951246	1	1	NaN	4386812.0661233	NaN	4386813.0495506	4386813.56606483
21	19	0	0	90	36.1581920903955	36.241610738255	24	0.800067647695541	2	11	2	NaN	2	5	0.229749065224915	0	1	NaN	331	6	16	1	120	220	320	NaN	520	0.612526524811983	2	1	NaN	4386814.8497363	NaN	4386815.8331367	4386816.34968298
21	19	0	0	90	36.1581920903955	36.241610738255	20	0.666723039746284	2	2	4	NaN	1	5	0.229749065224915	0	1	NaN	332	6	17	1	120	220	320	NaN	520	0.287336320616305	1	1	NaN	4386817.7833621	NaN	4386818.7667584	4386819.28329258
21	19	0	0	90	36.1581920903955	36.241610738255	18	0.600050735771656	2	3	4	NaN	1	5	0.229749065224915	0	1	NaN	333	6	18	1	120	220	320	NaN	520	0.574660724028945	2	0	NaN	4386820.3837051	NaN	4386821.3669062	4386821.88355978
21	19	0	0	90	36.1581920903955	36.241610738255	7	0.2333530639112	2	7	4	NaN	2	3	0.229749065224915	0	1	NaN	334	6	19	1	120	220	320	NaN	520	4.16327387280762	2	1	NaN	4386823.2671226	NaN	4386824.2506268	4386824.76717043
21	19	0	0	90	36.1581920903955	36.241610738255	23	0.766731495708227	2	11	1	NaN	2	5	0.229749065224915	0	1	NaN	335	6	20	1	120	220	320	NaN	520	0.279163872823119	2	1	NaN	4386829.7511878	NaN	4386830.7344874	4386831.25114293
21	19	0	0	90	36.1581920903955	36.241610738255	9	0.300025367885828	2	1	5	NaN	1	5	0.229749065224915	0	1	NaN	336	6	21	1	120	220	320	NaN	520	0.342704419977963	2	0	NaN	4386832.3514423	NaN	4386833.3348844	4386833.85140178
21	19	0	0	90	36.1581920903955	36.241610738255	11	0.366697671860456	2	11	3	NaN	2	4	0.229749065224915	0	1	NaN	337	6	22	1	120	220	320	NaN	520	0.268615529872477	2	1	NaN	4386835.0017024	NaN	4386835.9851184	4386836.50165367
21	19	0	0	90	36.1581920903955	36.241610738255	20	0.666723039746284	2	9	6	NaN	2	5	0.229749065224915	0	1	NaN	338	6	23	1	120	220	320	NaN	520	0.285045219585299	2	1	NaN	4386837.5853029	NaN	4386838.5686969	4386839.08523848
21	19	0	0	90	36.1581920903955	36.241610738255	13	0.433369975835085	2	2	6	NaN	1	3	0.229749065224915	0	1	NaN	339	6	24	1	120	220	320	NaN	520	0.284993124194443	1	1	NaN	4386840.185427	NaN	4386841.1689596	4386841.68549318
21	19	0	0	90	36.1581920903955	36.241610738255	15	0.500042279809713	2	12	2	NaN	2	4	0.229749065224915	0	1	NaN	340	6	25	1	120	220	320	NaN	520	0.276543219573796	1	0	NaN	4386842.7858172	NaN	4386843.7692022	4386844.28574788
21	19	0	0	90	36.1581920903955	36.241610738255	10	0.333361519873142	2	8	6	NaN	2	3	0.229749065224915	0	1	NaN	341	6	26	1	120	220	320	NaN	520	5.31686971988529	1	0	NaN	4386845.3694203	NaN	4386846.3528246	4386846.86933808
21	19	0	0	90	36.1581920903955	36.241610738255	21	0.700059191733599	2	5	3	NaN	1	4	0.229749065224915	0	1	NaN	342	6	27	1	120	220	320	NaN	520	0.682915572077036	1	1	NaN	4386853.0035014	NaN	4386853.9868722	4386854.50342923
21	19	0	0	90	36.1581920903955	36.241610738255	21	0.700059191733599	2	10	3	NaN	2	3	0.229749065224915	0	1	NaN	343	6	28	1	120	220	320	NaN	520	0.443309071473777	1	0	NaN	4386855.9871189	NaN	4386856.9705265	4386857.48705683
21	19	0	0	90	36.1581920903955	36.241610738255	22	0.733395343720913	2	4	3	NaN	1	5	0.229749065224915	0	1	NaN	344	6	29	1	120	220	320	NaN	520	0.684292072430253	1	1	NaN	4386858.7540396	NaN	4386859.7374324	4386860.25398353
21	19	0	0	90	36.1581920903955	36.241610738255	6	0.200016911923885	2	7	3	NaN	2	4	0.229749065224915	0	1	NaN	345	6	30	1	120	220	320	NaN	520	0.452155424281955	2	1	NaN	4386861.7543425	NaN	4386862.7377317	4386863.25428848
21	19	0	0	90	36.1581920903955	36.241610738255	22	0.733395343720913	2	8	2	NaN	2	4	0.229749065224915	0	1	NaN	346	6	31	1	120	220	320	NaN	520	0.357506119646132	2	1	NaN	4386864.5212809	NaN	4386865.5046741	4386866.02121598
21	19	0	0	90	36.1581920903955	36.241610738255	17	0.566714583784342	2	9	4	NaN	2	3	0.229749065224915	0	1	NaN	347	6	32	1	120	220	320	NaN	520	0.530122973024845	1	0	NaN	4386867.1882121	NaN	4386868.1716437	4386868.68815873
21	19	0	0	90	36.1581920903955	36.241610738255	10	0.333361519873142	2	9	5	NaN	2	5	0.229749065224915	0	1	NaN	348	6	33	1	120	220	320	NaN	520	0.216540120542049	2	1	NaN	4386870.0218283	NaN	4386871.0052204	4386871.52175558
21	19	0	0	90	36.1581920903955	36.241610738255	0	0	1	7	6	NaN	2	5	0.229749065224915	0	1	NaN	349	6	34	1	110	210	310	NaN	510	0.298988523893058	2	1	NaN	4386872.5552643	NaN	4386873.5387975	4386874.05534518
21	19	0	0	90	36.1581920903955	36.241610738255	24	0.800067647695541	2	8	1	NaN	2	5	0.229749065224915	0	1	NaN	350	6	35	1	120	220	320	NaN	520	0.32218037173152	2	1	NaN	4386875.1723379	NaN	4386876.1557297	4386876.67227023
21	19	0	0	90	36.1581920903955	36.241610738255	19	0.63338688775897	2	10	3	NaN	2	4	0.229749065224915	0	1	NaN	351	6	36	1	120	220	320	NaN	520	0.733527424745262	1	0	NaN	4386877.8891586	NaN	4386878.8726699	4386879.38920408
21	19	0	0	90	36.1581920903955	36.241610738255	24	0.800067647695541	2	5	4	NaN	1	5	0.229749065224915	0	1	NaN	352	6	37	1	120	220	320	NaN	520	4.1632867725566	2	0	NaN	4386880.9395508	NaN	4386881.9229574	4386882.43950213
21	19	0	0	90	36.1581920903955	36.241610738255	7	0.2333530639112	2	12	6	NaN	2	5	0.229749065224915	0	1	NaN	353	6	38	1	120	220	320	NaN	520	0.487324523739517	1	0	NaN	4386887.4235602	NaN	4386888.406929	4386888.92347178
21	19	0	0	90	36.1581920903955	36.241610738255	12	0.400033823847771	2	10	4	NaN	2	4	0.229749065224915	0	1	NaN	354	6	39	1	120	220	320	NaN	520	0.366633173078299	2	1	NaN	4386890.2238094	NaN	4386891.207192	4386891.72374833
21	19	0	0	90	36.1581920903955	36.241610738255	19	0.63338688775897	2	9	6	NaN	2	3	0.229749065224915	0	1	NaN	355	6	40	1	120	220	320	NaN	520	0.371076024137437	2	1	NaN	4386892.907389	NaN	4386893.8907934	4386894.40735008
21	19	0	0	90	36.1581920903955	36.241610738255	13	0.433369975835085	2	7	6	NaN	2	3	0.229749065224915	0	1	NaN	356	6	41	1	120	220	320	NaN	520	3.59143047221005	2	1	NaN	4386895.5909875	NaN	4386896.5743996	4386897.09094493
21	19	0	0	90	36.1581920903955	36.241610738255	21	0.700059191733599	2	12	1	NaN	2	3	0.229749065224915	0	1	NaN	357	6	42	1	120	220	320	NaN	520	0.346792024560273	1	0	NaN	4386901.4915807	NaN	4386902.4748718	4386902.99152628
21	19	0	0	90	36.1581920903955	36.241610738255	20	0.666723039746284	2	4	5	NaN	1	5	0.229749065224915	0	1	NaN	358	6	43	1	120	220	320	NaN	520	0.392281872220337	1	1	NaN	4386904.1584968	NaN	4386905.1418999	4386905.65845513
21	19	0	0	90	36.1581920903955	36.241610738255	22	0.733395343720913	2	8	5	NaN	2	3	0.229749065224915	0	1	NaN	359	6	44	1	120	220	320	NaN	520	0.531561871990561	2	1	NaN	4386906.8586679	NaN	4386907.8421638	4386908.35871763
21	19	0	0	90	36.1581920903955	36.241610738255	13	0.433369975835085	2	1	3	NaN	1	4	0.229749065224915	0	1	NaN	360	6	45	1	120	220	320	NaN	520	0.850418472662568	2	0	NaN	4386909.6922933	NaN	4386910.6757755	4386911.19233303
21	19	0	0	90	36.1581920903955	36.241610738255	0	0	1	11	3	NaN	2	3	0.229749065224915	0	1	NaN	361	6	46	1	110	210	310	NaN	510	0.251140790991485	2	1	NaN	4386912.8593527	NaN	4386913.8427516	4386914.35931671
21	19	0	0	90	36.1581920903955	36.241610738255	8	0.266689215898514	2	3	4	NaN	1	5	0.229749065224915	0	1	NaN	362	6	47	1	120	220	320	NaN	520	0.660165620036423	1	1	NaN	4386915.4262825	NaN	4386916.4095717	4386916.92621688
21	19	0	0	90	36.1581920903955	36.241610738255	13	0.433369975835085	2	5	5	NaN	1	5	0.229749065224915	0	1	NaN	363	6	48	1	120	220	320	NaN	520	0.301146924495697	1	1	NaN	4386918.3932367	NaN	4386919.3766257	4386919.89318528
21	19	0	0	90	36.1581920903955	36.241610738255	15	0.500042279809713	2	8	2	NaN	2	3	0.229749065224915	0	1	NaN	364	6	49	1	120	220	320	NaN	520	0.260649420320988	2	1	NaN	4386921.0101638	NaN	4386921.9935693	4386922.51010028
21	19	0	0	90	36.1581920903955	36.241610738255	13	0.433369975835085	2	4	3	NaN	1	4	0.229749065224915	0	1	NaN	365	6	50	1	120	220	320	NaN	520	0.468128924258053	1	1	NaN	4386924.0104313	NaN	4386924.9938615	4386925.51040198
21	19	0	0	90	36.1581920903955	36.241610738255	20	0.666723039746284	2	4	1	NaN	1	5	0.229749065224915	0	1	NaN	366	6	51	1	120	220	320	NaN	520	0.516472324728966	1	1	NaN	4386926.7940554	NaN	4386927.777464	4386928.29400858
21	19	0	0	90	36.1581920903955	36.241610738255	17	0.566714583784342	2	1	2	NaN	1	4	0.229749065224915	0	1	NaN	367	6	52	1	120	220	320	NaN	520	0.562957724556327	1	1	NaN	4386929.627678	NaN	4386930.6110714	4386931.12762498
21	19	0	0	90	36.1581920903955	36.241610738255	16	0.533378431797028	2	7	2	NaN	2	3	0.229749065224915	0	1	NaN	368	6	53	1	120	220	320	NaN	520	0.383597358129919	1	0	NaN	4386932.511286	NaN	4386933.4946828	4386934.01123574
21	19	0	0	90	36.1581920903955	36.241610738255	7	0.2333530639112	2	3	2	NaN	1	5	0.229749065224915	0	1	NaN	369	6	54	1	120	220	320	NaN	520	0.330875724554062	2	0	NaN	4386935.211537	NaN	4386936.1949537	4386936.71150478
21	19	0	0	90	36.1581920903955	36.241610738255	15	0.500042279809713	2	9	3	NaN	2	4	0.229749065224915	0	1	NaN	370	6	55	1	120	220	320	NaN	520	0.296992772258818	2	1	NaN	4386937.8618183	NaN	4386938.8451898	4386939.36176333
21	19	0	0	90	36.1581920903955	36.241610738255	9	0.300025367885828	2	8	4	NaN	2	5	0.229749065224915	0	1	NaN	371	6	56	1	120	220	320	NaN	520	0.495780520141125	1	0	NaN	4386940.4787312	NaN	4386941.4621305	4386941.97868338
21	19	0	0	90	36.1581920903955	36.241610738255	10	0.333361519873142	2	11	6	NaN	2	5	0.229749065224915	0	1	NaN	372	6	57	1	120	220	320	NaN	520	1.23080437164754	2	1	NaN	4386943.2956731	NaN	4386944.2791105	4386944.79562403
21	19	0	0	90	36.1581920903955	36.241610738255	20	0.666723039746284	2	1	1	NaN	1	5	0.229749065224915	0	1	NaN	373	6	58	1	120	220	320	NaN	520	0.400384524837136	1	1	NaN	4386946.8460369	NaN	4386947.8294189	4386948.34597998
21	19	0	0	90	36.1581920903955	36.241610738255	11	0.366697671860456	2	12	4	NaN	2	5	0.229749065224915	0	1	NaN	374	6	59	1	120	220	320	NaN	520	0.300303072668612	1	0	NaN	4386949.5462569	NaN	4386950.5296833	4386951.04624573
21	19	0	0	90	36.1581920903955	36.241610738255	10	0.333361519873142	2	7	5	NaN	2	4	0.229749065224915	0	1	NaN	375	6	60	1	120	220	320	NaN	520	0.371577524580061	2	1	NaN	4386952.1630841	NaN	4386953.1466181	4386953.66319008
21	19	0	0	90	36.1581920903955	36.241610738255	8	0.266689215898514	2	2	6	NaN	1	4	0.229749065224915	0	1	NaN	376	6	61	1	120	220	320	NaN	520	0.31974052451551	2	0	NaN	4386954.8468074	NaN	4386955.8302077	4386956.34675928
21	19	0	0	90	36.1581920903955	36.241610738255	25	0.833403799682856	2	9	3	NaN	2	5	0.229749065224915	0	1	NaN	377	6	62	1	120	220	320	NaN	520	0.478031571954489	2	1	NaN	4386957.4804075	NaN	4386958.4638122	4386958.98034633
21	19	0	0	90	36.1581920903955	36.241610738255	16	0.533378431797028	2	9	1	NaN	2	4	0.229749065224915	0	1	NaN	378	6	63	1	120	220	320	NaN	520	0.342517919838428	1	0	NaN	4386960.2640465	NaN	4386961.2474087	4386961.76395478
21	19	0	0	90	36.1581920903955	36.241610738255	20	0.666723039746284	2	5	5	NaN	1	4	0.229749065224915	0	1	NaN	379	7	1	1	120	220	320	NaN	520	0.4456328721717	1	1	NaN	4386968.0647819	NaN	4386969.0481907	4386969.56473063
21	19	0	0	90	36.1581920903955	36.241610738255	12	0.400033823847771	2	1	4	NaN	1	3	0.229749065224915	0	1	NaN	380	7	2	1	120	220	320	NaN	520	0.471139824017882	1	1	NaN	4386970.8317178	NaN	4386971.8151182	4386972.33167918
21	19	0	0	90	36.1581920903955	36.241610738255	23	0.766731495708227	2	8	5	NaN	2	4	0.229749065224915	0	1	NaN	381	7	3	1	120	220	320	NaN	520	0.303215272724628	2	1	NaN	4386973.6151685	NaN	4386974.5987731	4386975.11527603
21	19	0	0	90	36.1581920903955	36.241610738255	6	0.200016911923885	2	1	6	NaN	1	3	0.229749065224915	0	1	NaN	382	7	4	1	120	220	320	NaN	520	0.238327724859118	2	0	NaN	4386976.2323088	NaN	4386977.2156542	4386977.73220108
21	19	0	0	90	36.1581920903955	36.241610738255	9	0.300025367885828	2	12	4	NaN	2	4	0.229749065224915	0	1	NaN	383	7	5	1	120	220	320	NaN	520	0.539815437979996	2	1	NaN	4386978.8991737	NaN	4386979.8825787	4386980.39913336
21	19	0	0	90	36.1581920903955	36.241610738255	23	0.766731495708227	2	2	3	NaN	1	3	0.229749065224915	0	1	NaN	384	7	6	1	120	220	320	NaN	520	0.31345752440393	1	1	NaN	4386981.7494779	NaN	4386982.7328586	4386983.24941188
21	19	0	0	90	36.1581920903955	36.241610738255	0	0	1	2	5	NaN	1	3	0.229749065224915	0	1	NaN	385	7	7	1	110	210	310	NaN	510	0.271844372153282	2	0	NaN	4386984.3830854	NaN	4386985.3664597	4386985.88299883
21	19	0	0	90	36.1581920903955	36.241610738255	13	0.433369975835085	2	3	5	NaN	1	3	0.229749065224915	0	1	NaN	386	7	8	1	120	220	320	NaN	520	0.832097171805799	1	1	NaN	4386986.9666294	NaN	4386987.9500256	4386988.46658963
21	19	0	0	90	36.1581920903955	36.241610738255	7	0.2333530639112	2	5	6	NaN	1	4	0.229749065224915	0	1	NaN	387	7	9	1	120	220	320	NaN	520	0.514154681935906	2	0	NaN	4386990.1001464	NaN	4386991.0836726	4386991.60022012
21	19	0	0	90	36.1581920903955	36.241610738255	22	0.733395343720913	2	3	1	NaN	1	5	0.229749065224915	0	1	NaN	388	7	10	1	120	220	320	NaN	520	0.360765872523189	2	0	NaN	4386992.9338979	NaN	4386993.9173017	4386994.43383113
21	19	0	0	90	36.1581920903955	36.241610738255	0	0	1	6	2	NaN	1	3	0.229749065224915	0	1	NaN	389	7	11	1	110	210	310	NaN	510	0.373588372021914	1	1	NaN	4386995.617451	NaN	4386996.6008813	4386997.11743443
21	19	0	0	90	36.1581920903955	36.241610738255	7	0.2333530639112	2	11	2	NaN	2	3	0.229749065224915	0	1	NaN	390	7	12	1	120	220	320	NaN	520	0.329386720433831	2	1	NaN	4386998.3010877	NaN	4386999.2844859	4386999.80103258
21	19	0	0	90	36.1581920903955	36.241610738255	13	0.433369975835085	2	5	4	NaN	1	3	0.229749065224915	0	1	NaN	391	7	13	1	120	220	320	NaN	520	0.615670572035015	2	0	NaN	4387000.9513338	NaN	4387001.9347564	4387002.45129033
21	19	0	0	90	36.1581920903955	36.241610738255	11	0.366697671860456	2	7	4	NaN	2	5	0.229749065224915	0	1	NaN	392	7	14	1	120	220	320	NaN	520	0.401460324414074	2	1	NaN	4387003.8848244	NaN	4387004.8683608	4387005.38491788
21	19	0	0	90	36.1581920903955	36.241610738255	13	0.433369975835085	2	9	4	NaN	2	4	0.229749065224915	0	1	NaN	393	7	15	1	120	220	320	NaN	520	0.613070672377944	2	1	NaN	4387006.6018998	NaN	4387007.5852958	4387008.10184263
21	19	0	0	90	36.1581920903955	36.241610738255	24	0.800067647695541	2	12	4	NaN	2	5	0.229749065224915	0	1	NaN	394	7	16	1	120	220	320	NaN	520	0.534989172592759	2	1	NaN	4387009.5355279	NaN	4387010.5189231	4387011.03546353
21	19	0	0	90	36.1581920903955	36.241610738255	14	0.466706127822399	2	2	5	NaN	1	5	0.229749065224915	0	1	NaN	395	7	17	1	120	220	320	NaN	520	0.316976272501051	2	0	NaN	4387012.3857018	NaN	4387013.3692406	4387013.88574633
21	19	0	0	90	36.1581920903955	36.241610738255	6	0.200016911923885	2	6	6	NaN	1	5	0.229749065224915	0	1	NaN	396	7	18	1	120	220	320	NaN	520	0.323219472542405	1	1	NaN	4387015.0194023	NaN	4387016.0027884	4387016.51933193
21	19	0	0	90	36.1581920903955	36.241610738255	19	0.63338688775897	2	6	5	NaN	1	5	0.229749065224915	0	1	NaN	397	7	19	1	120	220	320	NaN	520	0.249519572593272	1	1	NaN	4387017.6529813	NaN	4387018.6363819	4387019.15293433
21	19	0	0	90	36.1581920903955	36.241610738255	25	0.833403799682856	2	1	2	NaN	1	5	0.229749065224915	0	1	NaN	398	7	20	1	120	220	320	NaN	520	3.53883052431047	1	1	NaN	4387020.2199126	NaN	4387021.2033038	4387021.71985388
21	19	0	0	90	36.1581920903955	36.241610738255	20	0.666723039746284	2	12	4	NaN	2	4	0.229749065224915	0	1	NaN	399	7	21	1	120	220	320	NaN	520	0.384153172373772	2	1	NaN	4387026.0704767	NaN	4387027.0538744	4387027.57042893
21	19	0	0	90	36.1581920903955	36.241610738255	25	0.833403799682856	2	6	4	NaN	1	5	0.229749065224915	0	1	NaN	400	7	22	1	120	220	320	NaN	520	1.0839008204639	1	1	NaN	4387028.7707256	NaN	4387029.7541641	4387030.27069018
21	19	0	0	90	36.1581920903955	36.241610738255	24	0.800067647695541	2	4	1	NaN	1	4	0.229749065224915	0	1	NaN	401	7	23	1	120	220	320	NaN	520	0.371423072181642	1	1	NaN	4387032.1710633	NaN	4387033.1544693	4387033.67102893
21	19	0	0	90	36.1581920903955	36.241610738255	21	0.700059191733599	2	3	2	NaN	1	4	0.229749065224915	0	1	NaN	402	7	24	1	120	220	320	NaN	520	0.360273772850633	1	1	NaN	4387034.8546766	NaN	4387035.8380754	4387036.35462113
21	19	0	0	90	36.1581920903955	36.241610738255	25	0.833403799682856	2	8	2	NaN	2	4	0.229749065224915	0	1	NaN	403	7	25	1	120	220	320	NaN	520	1.60499707236886	2	1	NaN	4387037.521593	NaN	4387038.5049868	4387039.02155053
21	19	0	0	90	36.1581920903955	36.241610738255	11	0.366697671860456	2	11	3	NaN	2	3	0.229749065224915	0	1	NaN	404	7	26	1	120	220	320	NaN	520	0.24811692442745	2	1	NaN	4387041.4386409	NaN	4387042.4220611	4387042.93860708
21	19	0	0	90	36.1581920903955	36.241610738255	25	0.833403799682856	2	11	5	NaN	2	3	0.229749065224915	0	1	NaN	405	7	27	1	120	220	320	NaN	520	0.465084472671151	2	1	NaN	4387044.0055643	NaN	4387044.988981	4387045.50551563
21	19	0	0	90	36.1581920903955	36.241610738255	12	0.400033823847771	2	5	2	NaN	1	4	0.229749065224915	0	1	NaN	406	7	28	1	120	220	320	NaN	520	0.36176882404834	1	1	NaN	4387046.7891752	NaN	4387047.772579	4387048.28912798
21	19	0	0	90	36.1581920903955	36.241610738255	12	0.400033823847771	2	4	4	NaN	1	4	0.229749065224915	0	1	NaN	407	7	29	1	120	220	320	NaN	520	0.254915072582662	1	1	NaN	4387049.456109	NaN	4387050.4396428	4387050.95605933
21	19	0	0	90	36.1581920903955	36.241610738255	22	0.733395343720913	2	5	4	NaN	1	3	0.229749065224915	0	1	NaN	408	7	30	1	120	220	320	NaN	520	0.295936872251332	2	0	NaN	4387052.0230395	NaN	4387053.0064109	4387053.52296783
21	19	0	0	90	36.1581920903955	36.241610738255	9	0.300025367885828	2	9	1	NaN	2	3	0.229749065224915	0	1	NaN	409	7	31	1	120	220	320	NaN	520	0.439073423855007	1	0	NaN	4387054.6399701	NaN	4387055.6233425	4387056.13990258
21	19	0	0	90	36.1581920903955	36.241610738255	20	0.666723039746284	2	6	3	NaN	1	4	0.229749065224915	0	1	NaN	410	7	32	1	120	220	320	NaN	520	0.344427172094584	1	1	NaN	4387057.3902336	NaN	4387058.3736247	4387058.89016223
21	19	0	0	90	36.1581920903955	36.241610738255	21	0.700059191733599	2	1	5	NaN	1	3	0.229749065224915	0	1	NaN	411	7	33	1	120	220	320	NaN	520	0.309489372186363	2	0	NaN	4387060.0571456	NaN	4387061.0405535	4387061.55710033
21	19	0	0	90	36.1581920903955	36.241610738255	24	0.800067647695541	2	6	4	NaN	1	5	0.229749065224915	0	1	NaN	412	7	34	1	120	220	320	NaN	520	1.2209422243759	1	1	NaN	4387062.6740656	NaN	4387063.6574854	4387064.17402548
21	19	0	0	90	36.1581920903955	36.241610738255	18	0.600050735771656	2	7	4	NaN	2	3	0.229749065224915	0	1	NaN	413	7	35	1	120	220	320	NaN	520	0.287145839072764	2	1	NaN	4387066.2077635	NaN	4387067.1911323	4387067.70770256
21	19	0	0	90	36.1581920903955	36.241610738255	17	0.566714583784342	2	11	2	NaN	2	4	0.229749065224915	0	1	NaN	414	7	36	1	120	220	320	NaN	520	0.415024924091995	2	1	NaN	4387068.8080154	NaN	4387069.7914028	4387070.30795778
21	19	0	0	90	36.1581920903955	36.241610738255	13	0.433369975835085	2	3	3	NaN	1	3	0.229749065224915	0	1	NaN	415	7	37	1	120	220	320	NaN	520	0.401437171734869	1	1	NaN	4387071.5416369	NaN	4387072.5250649	4387073.04155413
21	19	0	0	90	36.1581920903955	36.241610738255	10	0.333361519873142	2	4	3	NaN	1	4	0.229749065224915	0	1	NaN	416	7	38	1	120	220	320	NaN	520	0.38800582382828	2	0	NaN	4387074.258417	NaN	4387075.2419622	4387075.75849398
21	19	0	0	90	36.1581920903955	36.241610738255	20	0.666723039746284	2	2	6	NaN	1	4	0.229749065224915	0	1	NaN	417	7	39	1	120	220	320	NaN	520	0.34379842504859	1	1	NaN	4387076.9588642	NaN	4387077.9422248	4387078.45876088
21	19	0	0	90	36.1581920903955	36.241610738255	16	0.533378431797028	2	9	2	NaN	2	4	0.229749065224915	0	1	NaN	418	7	40	1	120	220	320	NaN	520	0.318051024340093	2	1	NaN	4387079.6090719	NaN	4387080.5925244	4387081.10901878
21	19	0	0	90	36.1581920903955	36.241610738255	15	0.500042279809713	2	7	3	NaN	2	5	0.229749065224915	0	1	NaN	419	7	41	1	120	220	320	NaN	520	0.364004568196833	2	1	NaN	4387082.242679	NaN	4387083.2260598	4387083.74260783
21	19	0	0	90	36.1581920903955	36.241610738255	10	0.333361519873142	2	6	3	NaN	1	4	0.229749065224915	0	1	NaN	420	7	42	1	120	220	320	NaN	520	0.416929325088859	1	1	NaN	4387084.9262481	NaN	4387085.9096498	4387086.42620828
21	19	0	0	90	36.1581920903955	36.241610738255	9	0.300025367885828	2	12	6	NaN	2	4	0.229749065224915	0	1	NaN	421	7	43	1	120	220	320	NaN	520	0.315284771844745	2	1	NaN	4387087.6598528	NaN	4387088.6432777	4387089.15981163
21	19	0	0	90	36.1581920903955	36.241610738255	17	0.566714583784342	2	3	3	NaN	1	4	0.229749065224915	0	1	NaN	422	7	44	1	120	220	320	NaN	520	0.409258272498846	1	1	NaN	4387090.2934605	NaN	4387091.2768445	4387091.79339053
21	19	0	0	90	36.1581920903955	36.241610738255	17	0.566714583784342	2	9	4	NaN	2	4	0.229749065224915	0	1	NaN	423	7	45	1	120	220	320	NaN	520	1.20480282511562	2	1	NaN	4387093.0103179	NaN	4387093.993779	4387094.51033738
21	19	0	0	90	36.1581920903955	36.241610738255	13	0.433369975835085	2	8	1	NaN	2	5	0.229749065224915	0	1	NaN	424	7	46	1	120	220	320	NaN	520	0.719185267575085	1	0	NaN	4387096.5274025	NaN	4387097.5107932	4387098.02734003
21	19	0	0	90	36.1581920903955	36.241610738255	15	0.500042279809713	2	3	5	NaN	1	3	0.229749065224915	0	1	NaN	425	7	47	1	120	220	320	NaN	520	0.485544320195913	2	0	NaN	4387099.5610464	NaN	4387100.5444288	4387101.06096828
21	19	0	0	90	36.1581920903955	36.241610738255	21	0.700059191733599	2	2	2	NaN	1	3	0.229749065224915	0	1	NaN	426	7	48	1	120	220	320	NaN	520	0.301352572627366	1	1	NaN	4387102.3612021	NaN	4387103.3446932	4387103.86124533
21	19	0	0	90	36.1581920903955	36.241610738255	19	0.63338688775897	2	3	6	NaN	1	4	0.229749065224915	0	1	NaN	427	7	49	1	120	220	320	NaN	520	0.604487972334027	1	1	NaN	4387104.9782285	NaN	4387105.9616263	4387106.47817263
21	19	0	0	90	36.1581920903955	36.241610738255	9	0.300025367885828	2	10	3	NaN	2	5	0.229749065224915	0	1	NaN	428	7	50	1	120	220	320	NaN	520	1.66126927174628	2	1	NaN	4387108.3618627	NaN	4387109.3453362	4387109.86183483
21	19	0	0	90	36.1581920903955	36.241610738255	22	0.733395343720913	2	11	4	NaN	2	5	0.229749065224915	0	1	NaN	429	7	51	1	120	220	320	NaN	520	0.262120420113206	2	1	NaN	4387112.3290403	NaN	4387113.312352	4387113.82889578
21	19	0	0	90	36.1581920903955	36.241610738255	23	0.766731495708227	2	4	1	NaN	1	4	0.229749065224915	0	1	NaN	430	7	52	1	120	220	320	NaN	520	0.366638272069395	1	1	NaN	4387114.912556	NaN	4387115.8959884	4387116.41247813
21	19	0	0	90	36.1581920903955	36.241610738255	0	0	1	3	3	NaN	1	3	0.229749065224915	0	1	NaN	431	7	53	1	110	210	310	NaN	510	0.338542610406876	1	1	NaN	4387117.5961277	NaN	4387118.5795328	4387119.09608289
21	19	0	0	90	36.1581920903955	36.241610738255	7	0.2333530639112	2	6	6	NaN	1	3	0.229749065224915	0	1	NaN	432	7	54	1	120	220	320	NaN	520	0.436420776881278	1	1	NaN	4387120.3462698	NaN	4387121.3297944	4387121.84635542
21	19	0	0	90	36.1581920903955	36.241610738255	16	0.533378431797028	2	11	4	NaN	2	3	0.229749065224915	0	1	NaN	433	7	55	1	120	220	320	NaN	520	0.342007643543184	2	1	NaN	4387123.0966721	NaN	4387124.0800664	4387124.59662096
21	19	0	0	90	36.1581920903955	36.241610738255	7	0.2333530639112	2	3	5	NaN	1	5	0.229749065224915	0	1	NaN	434	7	56	1	120	220	320	NaN	520	0.355879524722695	1	1	NaN	4387125.7468825	NaN	4387126.7303586	4387127.24687938
21	19	0	0	90	36.1581920903955	36.241610738255	17	0.566714583784342	2	7	2	NaN	2	5	0.229749065224915	0	1	NaN	435	7	57	1	120	220	320	NaN	520	0.344829172827303	1	0	NaN	4387128.4138492	NaN	4387129.3972941	4387129.91380103
21	19	0	0	90	36.1581920903955	36.241610738255	14	0.466706127822399	2	6	2	NaN	1	5	0.229749065224915	0	1	NaN	436	7	58	1	120	220	320	NaN	520	0.309940320439637	2	0	NaN	4387131.0807911	NaN	4387132.0641907	4387132.58073758
21	19	0	0	90	36.1581920903955	36.241610738255	14	0.466706127822399	2	8	5	NaN	2	3	0.229749065224915	0	1	NaN	437	7	59	1	120	220	320	NaN	520	0.644412872381508	2	1	NaN	4387133.7144149	NaN	4387134.6977887	4387135.21433363
21	19	0	0	90	36.1581920903955	36.241610738255	8	0.266689215898514	2	5	1	NaN	1	3	0.229749065224915	0	1	NaN	438	7	60	1	120	220	320	NaN	520	0.526514071971178	1	1	NaN	4387136.6646584	NaN	4387137.6480752	4387138.16461283
21	19	0	0	90	36.1581920903955	36.241610738255	11	0.366697671860456	2	4	1	NaN	1	5	0.229749065224915	0	1	NaN	439	7	61	1	120	220	320	NaN	520	0.30838727299124	1	1	NaN	4387139.498284	NaN	4387140.481683	4387140.99822943
21	19	0	0	90	36.1581920903955	36.241610738255	9	0.300025367885828	2	2	2	NaN	1	4	0.229749065224915	0	1	NaN	440	7	62	1	120	220	320	NaN	520	1.72350077237934	1	1	NaN	4387142.1151942	NaN	4387143.0986099	4387143.61515973
21	19	0	0	90	36.1581920903955	36.241610738255	8	0.266689215898514	2	6	4	NaN	1	4	0.229749065224915	0	1	NaN	441	7	63	1	120	220	320	NaN	520	0.297888333909214	1	1	NaN	4387146.149025	NaN	4387147.1323309	4387147.64888917
21	19	0	0	90	36.1581920903955	36.241610738255	24	0.800067647695541	2	5	6	NaN	1	5	0.229749065224915	0	1	NaN	442	8	1	1	120	220	320	NaN	520	0.433660872280598	1	1	NaN	4387159.533637	NaN	4387160.5169808	4387161.03352393
21	19	0	0	90	36.1581920903955	36.241610738255	0	0	1	4	2	NaN	1	4	0.229749065224915	0	1	NaN	443	8	2	1	110	210	310	NaN	510	0.3233672240749	1	1	NaN	4387162.2838528	NaN	4387163.267242	4387163.78380738
21	19	0	0	90	36.1581920903955	36.241610738255	16	0.533378431797028	2	11	1	NaN	2	5	0.229749065224915	0	1	NaN	444	8	3	1	120	220	320	NaN	520	0.297383372671902	2	1	NaN	4387164.9174465	NaN	4387165.900911	4387166.41739493
21	19	0	0	90	36.1581920903955	36.241610738255	7	0.2333530639112	2	10	1	NaN	2	3	0.229749065224915	0	1	NaN	445	8	4	1	120	220	320	NaN	520	0.216520224697888	2	1	NaN	4387167.5343886	NaN	4387168.517777	4387169.03432218
21	19	0	0	90	36.1581920903955	36.241610738255	24	0.800067647695541	2	4	4	NaN	1	4	0.229749065224915	0	1	NaN	446	8	5	1	120	220	320	NaN	520	0.346813072450459	1	1	NaN	4387170.0678288	NaN	4387171.0513562	4387171.56790263
21	19	0	0	90	36.1581920903955	36.241610738255	24	0.800067647695541	2	10	4	NaN	2	4	0.229749065224915	0	1	NaN	447	8	6	1	120	220	320	NaN	520	0.352286424487829	2	1	NaN	4387172.7348675	NaN	4387173.718242	4387174.23483218
21	19	0	0	90	36.1581920903955	36.241610738255	23	0.766731495708227	2	2	3	NaN	1	3	0.229749065224915	0	1	NaN	448	8	7	1	120	220	320	NaN	520	0.612913472577929	1	1	NaN	4387175.4017997	NaN	4387176.3852026	4387176.90175423
21	19	0	0	90	36.1581920903955	36.241610738255	6	0.200016911923885	2	1	4	NaN	1	3	0.229749065224915	0	1	NaN	449	8	8	1	120	220	320	NaN	520	0.272468672133982	2	0	NaN	4387178.3186255	NaN	4387179.3021583	4387179.81870183
21	19	0	0	90	36.1581920903955	36.241610738255	23	0.766731495708227	2	7	5	NaN	2	5	0.229749065224915	0	1	NaN	450	8	9	1	120	220	320	NaN	520	0.296449972316623	2	1	NaN	4387180.9022233	NaN	4387181.8857784	4387182.40229683
21	19	0	0	90	36.1581920903955	36.241610738255	21	0.700059191733599	2	1	5	NaN	1	5	0.229749065224915	0	1	NaN	451	8	10	1	120	220	320	NaN	520	0.415949124842882	1	1	NaN	4387183.5191306	NaN	4387184.5026814	4387185.01922738
21	19	0	0	90	36.1581920903955	36.241610738255	16	0.533378431797028	2	6	6	NaN	1	3	0.229749065224915	0	1	NaN	452	8	11	1	120	220	320	NaN	520	0.162675938569009	1	1	NaN	4387186.2362175	NaN	4387187.2195951	4387187.73616106
21	19	0	0	90	36.1581920903955	36.241610738255	14	0.466706127822399	2	8	3	NaN	2	3	0.229749065224915	0	1	NaN	453	8	12	1	120	220	320	NaN	520	0.552168372087181	2	1	NaN	4387188.7031282	NaN	4387189.6865164	4387190.20306873
21	19	0	0	90	36.1581920903955	36.241610738255	20	0.666723039746284	2	8	3	NaN	2	5	0.229749065224915	0	1	NaN	454	8	13	1	120	220	320	NaN	520	0.404953472316265	2	1	NaN	4387191.5700859	NaN	4387192.5533805	4387193.07000563
21	19	0	0	90	36.1581920903955	36.241610738255	15	0.500042279809713	2	2	6	NaN	1	3	0.229749065224915	0	1	NaN	455	8	14	1	120	220	320	NaN	520	0.35227807238698	1	1	NaN	4387194.2868445	NaN	4387195.2704405	4387195.78693903
21	19	0	0	90	36.1581920903955	36.241610738255	13	0.433369975835085	2	9	4	NaN	2	3	0.229749065224915	0	1	NaN	456	8	15	1	120	220	320	NaN	520	3.32495357189327	2	1	NaN	4387196.9539244	NaN	4387197.9373215	4387198.45387193
21	19	0	0	90	36.1581920903955	36.241610738255	25	0.833403799682856	2	4	3	NaN	1	3	0.229749065224915	0	1	NaN	457	8	16	1	120	220	320	NaN	520	0.410951524972916	1	1	NaN	4387202.5877995	NaN	4387203.5712099	4387204.08775898
21	19	0	0	90	36.1581920903955	36.241610738255	9	0.300025367885828	2	7	5	NaN	2	4	0.229749065224915	0	1	NaN	458	8	17	1	120	220	320	NaN	520	1.00629392080009	2	1	NaN	4387205.3046277	NaN	4387206.2881227	4387206.80469258
21	19	0	0	90	36.1581920903955	36.241610738255	8	0.266689215898514	2	8	6	NaN	2	4	0.229749065224915	0	1	NaN	459	8	18	1	120	220	320	NaN	520	0.425181672908366	1	0	NaN	4387208.621745	NaN	4387209.6051463	4387210.12167883
21	19	0	0	90	36.1581920903955	36.241610738255	8	0.266689215898514	2	1	1	NaN	1	3	0.229749065224915	0	1	NaN	460	8	19	1	120	220	320	NaN	520	0.291575471870601	1	1	NaN	4387211.3553361	NaN	4387212.3387394	4387212.85528793
