subjno	age	gender	isPractice	viewdist	CmToPixX	CmToPixY	SOA_frm	SOA_time	targNum	targID	targExample	targRace	targGender	firstTargPos	contrast	familiarity	curr_staircase	iStair	TrialNum	BlockNum	blktrl	sessionNum	TC_FIXATION	TC_RSVP_START	TC_RSVP_END	TC_BLANK	TC_RESPONSE_ONSET	RT2afc	resp_2afc	acc	RSVPOnsetVBL	RSVPOnsetTime	RSVPOffsetVBL	RSVPOffsetTime	startrt_2afc
14	20	0	0	90	36.1581920903955	36.241610738255	25	0.83339439984411	2	12	5	NaN	2	4	0.0534935379151947	1	1	NaN	1	1	1	1	121	221	321	NaN	521	1.02536667603999	2	1	NaN	4472267.8966014	NaN	4472268.8798377	4472269.41294912
14	20	0	0	90	36.1581920903955	36.241610738255	24	0.800058623850346	2	9	3	NaN	2	4	0.0534935379151947	1	1	NaN	2	1	2	1	121	221	321	NaN	521	0.729835275560617	1	0	NaN	4472271.2801929	NaN	4472272.2634781	4472272.79661032
14	20	0	0	90	36.1581920903955	36.241610738255	16	0.53337241590023	2	9	2	NaN	2	5	0.0534935379151947	1	1	NaN	3	1	3	1	121	221	321	NaN	521	0.967430017888546	2	1	NaN	4472274.3469594	NaN	4472275.3303645	4472275.84691278
14	20	0	0	90	36.1581920903955	36.241610738255	15	0.500036639906466	2	1	1	NaN	1	4	0.0534935379151947	1	1	NaN	4	1	4	1	121	221	321	NaN	521	0.403178490698338	1	1	NaN	4472277.6472908	NaN	4472278.6306914	4472279.14723831
14	20	0	0	90	36.1581920903955	36.241610738255	16	0.53337241590023	2	2	2	NaN	1	4	0.0534935379151947	1	1	NaN	5	1	5	1	121	221	321	NaN	521	0.949233469553292	1	1	NaN	4472280.3808985	NaN	4472281.3642965	4472281.88084873
14	20	0	0	90	36.1581920903955	36.241610738255	13	0.433365087918937	2	1	5	NaN	1	4	0.0534935379151947	1	1	NaN	6	1	6	1	121	221	321	NaN	521	1.7062287228182	1	1	NaN	4472283.6478791	NaN	4472284.6312756	4472285.14782988
14	20	0	0	90	36.1581920903955	36.241610738255	6	0.200014655962586	2	10	3	NaN	2	4	0.0534935379151947	1	1	NaN	7	1	7	1	121	221	321	NaN	521	0.456844537518919	2	1	NaN	4472287.6814851	NaN	4472288.6650088	4472289.18156446
14	20	0	0	90	36.1581920903955	36.241610738255	21	0.700051295869052	2	12	1	NaN	2	4	0.0534935379151947	1	1	NaN	8	1	8	1	121	221	321	NaN	521	0.43284607026726	2	1	NaN	4472290.4652282	NaN	4472291.4486038	4472291.96516033
14	20	0	0	90	36.1581920903955	36.241610738255	20	0.666715519875288	2	4	1	NaN	1	4	0.0534935379151947	1	1	NaN	9	1	9	1	121	221	321	NaN	521	0.586607065051794	1	1	NaN	4472293.2154922	NaN	4472294.1988859	4472294.71542783
14	20	0	0	90	36.1581920903955	36.241610738255	19	0.633379743881524	2	4	3	NaN	1	4	0.0534935379151947	1	1	NaN	10	1	10	1	121	221	321	NaN	521	0.71767992246896	1	1	NaN	4472296.1324454	NaN	4472297.1158304	4472297.63239368
14	20	0	0	90	36.1581920903955	36.241610738255	12	0.400029311925173	2	6	6	NaN	1	3	0.0534935379151947	1	1	NaN	11	1	11	1	121	221	321	NaN	521	0.419844718649983	1	1	NaN	4472299.1660729	NaN	4472300.1494811	4472300.66601598
14	20	0	0	90	36.1581920903955	36.241610738255	15	0.500036639906466	2	4	4	NaN	1	4	0.0534935379151947	1	1	NaN	12	1	12	1	121	221	321	NaN	521	0.814880770631135	2	0	NaN	4472301.8996935	NaN	4472302.8830715	4472303.39962153
14	20	0	0	90	36.1581920903955	36.241610738255	9	0.30002198394388	2	11	2	NaN	2	3	0.0534935379151947	1	1	NaN	13	1	13	1	121	221	321	NaN	521	1.48108317982405	2	1	NaN	4472305.0333154	NaN	4472306.0167144	4472306.53326262
14	20	0	0	90	36.1581920903955	36.241610738255	23	0.766722847856581	2	2	4	NaN	1	5	0.0534935379151947	1	1	NaN	14	1	14	1	121	221	321	NaN	521	4.13655260298401	1	1	NaN	4472308.8337005	NaN	4472309.8170933	4472310.3336326
14	20	0	0	90	36.1581920903955	36.241610738255	17	0.566708191893995	2	5	4	NaN	1	3	0.0534935379151947	1	1	NaN	15	1	15	1	121	221	321	NaN	521	0.398136470466852	1	1	NaN	4472315.2843237	NaN	4472316.2677619	4472316.78427703
14	20	0	0	90	36.1581920903955	36.241610738255	12	0.400029311925173	2	3	1	NaN	1	4	0.0534935379151947	1	1	NaN	16	1	16	1	121	221	321	NaN	521	0.877161770127714	1	1	NaN	4472318.1012803	NaN	4472319.0846431	4472319.60121063
14	20	0	0	90	36.1581920903955	36.241610738255	9	0.30002198394388	2	12	5	NaN	2	4	0.0534935379151947	1	1	NaN	17	1	17	1	121	221	321	NaN	521	0.556464922614396	1	0	NaN	4472321.3015844	NaN	4472322.2849964	4472322.80153148
14	20	0	0	90	36.1581920903955	36.241610738255	24	0.800058623850346	2	12	5	NaN	2	3	0.0534935379151947	1	1	NaN	18	1	18	1	121	221	321	NaN	521	0.424890923313797	2	1	NaN	4472324.185211	NaN	4472325.168586	4472325.68515078
14	20	0	0	90	36.1581920903955	36.241610738255	0	0	1	3	1	NaN	1	5	0.0534935379151947	1	1	NaN	19	1	19	1	111	211	311	NaN	511	1.05142381880432	1	1	NaN	4472326.9187917	NaN	4472327.9021972	4472328.41874708
14	20	0	0	90	36.1581920903955	36.241610738255	25	0.83339439984411	2	1	4	NaN	1	5	0.0534935379151947	1	1	NaN	20	1	20	1	121	221	321	NaN	521	0.580364369787276	1	1	NaN	4472330.2858049	NaN	4472331.2691779	4472331.78573903
14	20	0	0	90	36.1581920903955	36.241610738255	14	0.466700863912702	2	8	5	NaN	2	3	0.0534935379151947	1	1	NaN	21	1	21	1	121	221	321	NaN	521	0.496363918296993	2	1	NaN	4472333.1860788	NaN	4472334.1694753	4472334.68602308
14	20	0	0	90	36.1581920903955	36.241610738255	25	0.83339439984411	2	5	1	NaN	1	5	0.0534935379151947	1	1	NaN	22	1	22	1	121	221	321	NaN	521	0.519464721903205	1	1	NaN	4472336.0029875	NaN	4472336.9864193	4472337.50298058
14	20	0	0	90	36.1581920903955	36.241610738255	10	0.333357759937644	2	1	2	NaN	1	3	0.0534935379151947	1	1	NaN	23	1	23	1	121	221	321	NaN	521	2.26181307993829	1	1	NaN	4472338.8366381	NaN	4472339.820035	4472340.33658642
14	20	0	0	90	36.1581920903955	36.241610738255	8	0.266686207950115	2	1	1	NaN	1	4	0.0534935379151947	1	1	NaN	24	1	24	1	121	221	321	NaN	521	0.781864670105278	1	1	NaN	4472343.4204635	NaN	4472344.4038394	4472344.92037363
14	20	0	0	90	36.1581920903955	36.241610738255	23	0.766722847856581	2	1	1	NaN	1	3	0.0534935379151947	1	1	NaN	25	1	25	1	121	221	321	NaN	521	0.625649064779282	1	1	NaN	4472346.5207151	NaN	4472347.5041409	4472348.02066683
14	20	0	0	90	36.1581920903955	36.241610738255	20	0.666715519875288	2	6	3	NaN	1	4	0.0534935379151947	1	1	NaN	26	1	26	1	121	221	321	NaN	521	1.17939077038318	1	1	NaN	4472349.4710166	NaN	4472350.4544088	4472350.97095803
14	20	0	0	90	36.1581920903955	36.241610738255	24	0.800058623850346	2	1	6	NaN	1	3	0.0534935379151947	1	1	NaN	27	1	27	1	121	221	321	NaN	521	0.519210970960557	1	1	NaN	4472352.9713695	NaN	4472353.9547517	4472354.47130833
14	20	0	0	90	36.1581920903955	36.241610738255	21	0.700051295869052	2	10	5	NaN	2	5	0.0534935379151947	1	1	NaN	28	1	28	1	121	221	321	NaN	521	0.429319522343576	2	1	NaN	4472355.8050004	NaN	4472356.7883732	4472357.30492698
14	20	0	0	90	36.1581920903955	36.241610738255	21	0.700051295869052	2	6	5	NaN	1	5	0.0534935379151947	1	1	NaN	29	1	29	1	121	221	321	NaN	521	0.65494632255286	1	1	NaN	4472358.5551907	NaN	4472359.5386448	4472360.05519298
14	20	0	0	90	36.1581920903955	36.241610738255	10	0.333357759937644	2	12	5	NaN	2	4	0.0534935379151947	1	1	NaN	30	1	30	1	121	221	321	NaN	521	0.864098922349513	2	1	NaN	4472361.5222102	NaN	4472362.5055875	4472363.02215398
14	20	0	0	90	36.1581920903955	36.241610738255	18	0.600043967887759	2	1	3	NaN	1	3	0.0534935379151947	1	1	NaN	31	1	31	1	121	221	321	NaN	521	0.360053618438542	1	1	NaN	4472364.7058398	NaN	4472365.6892232	4472366.20579168
14	20	0	0	90	36.1581920903955	36.241610738255	19	0.633379743881524	2	2	2	NaN	1	4	0.0534935379151947	1	1	NaN	32	1	32	1	121	221	321	NaN	521	0.852788608521223	1	1	NaN	4472367.3893149	NaN	4472368.3728423	4472368.88938999
14	20	0	0	90	36.1581920903955	36.241610738255	15	0.500036639906466	2	8	3	NaN	2	4	0.0534935379151947	1	1	NaN	33	1	33	1	121	221	321	NaN	521	0.302099875174463	2	1	NaN	4472370.5564193	NaN	4472371.5398315	4472372.05636872
14	20	0	0	90	36.1581920903955	36.241610738255	6	0.200014655962586	2	1	4	NaN	1	5	0.0534935379151947	1	1	NaN	34	1	34	1	121	221	321	NaN	521	0.581113371066749	1	1	NaN	4472373.1732417	NaN	4472374.1567394	4472374.67328683
14	20	0	0	90	36.1581920903955	36.241610738255	0	0	1	9	3	NaN	2	5	0.0534935379151947	1	1	NaN	35	1	35	1	111	211	311	NaN	511	0.448440770618618	2	1	NaN	4472376.0736288	NaN	4472377.0570229	4472377.57357633
14	20	0	0	90	36.1581920903955	36.241610738255	12	0.400029311925173	2	10	6	NaN	2	3	0.0534935379151947	1	1	NaN	36	1	36	1	121	221	321	NaN	521	2.12948812264949	2	1	NaN	4472378.8405806	NaN	4472379.82397	4472380.34051118
14	20	0	0	90	36.1581920903955	36.241610738255	22	0.733387071862817	2	9	6	NaN	2	5	0.0534935379151947	1	1	NaN	37	1	37	1	121	221	321	NaN	521	0.407168655656278	2	1	NaN	4472383.2909913	NaN	4472384.2744193	4472384.79094674
14	20	0	0	90	36.1581920903955	36.241610738255	9	0.30002198394388	2	8	5	NaN	2	4	0.0534935379151947	1	1	NaN	38	1	38	1	121	221	321	NaN	521	0.618112722411752	2	1	NaN	4472386.0079566	NaN	4472386.9913398	4472387.50789238
14	20	0	0	90	36.1581920903955	36.241610738255	10	0.333357759937644	2	5	6	NaN	1	3	0.0534935379151947	1	1	NaN	39	1	39	1	121	221	321	NaN	521	0.397033118642867	1	1	NaN	4472388.9415628	NaN	4472389.9249762	4472390.44150328
14	20	0	0	90	36.1581920903955	36.241610738255	19	0.633379743881524	2	6	6	NaN	1	4	0.0534935379151947	1	1	NaN	40	1	40	1	121	221	321	NaN	521	0.600117918103933	1	1	NaN	4472391.6585013	NaN	4472392.6418779	4472393.15844218
14	20	0	0	90	36.1581920903955	36.241610738255	6	0.200014655962586	2	11	3	NaN	2	5	0.0534935379151947	1	1	NaN	41	1	41	1	121	221	321	NaN	521	0.611197670921683	2	1	NaN	4472394.5754737	NaN	4472395.5588455	4472396.07539523
14	20	0	0	90	36.1581920903955	36.241610738255	22	0.733387071862817	2	6	1	NaN	1	4	0.0534935379151947	1	1	NaN	42	1	42	1	121	221	321	NaN	521	1.21323753334582	1	1	NaN	4472397.5090701	NaN	4472398.4924699	4472399.00902807
14	20	0	0	90	36.1581920903955	36.241610738255	7	0.233350431956351	2	3	4	NaN	1	3	0.0534935379151947	1	1	NaN	43	1	43	1	121	221	321	NaN	521	0.743402318097651	1	1	NaN	4472401.0427645	NaN	4472402.0261671	4472402.54269238
14	20	0	0	90	36.1581920903955	36.241610738255	14	0.466700863912702	2	2	2	NaN	1	3	0.0534935379151947	1	1	NaN	44	1	44	1	121	221	321	NaN	521	0.45312622282654	1	1	NaN	4472404.0930692	NaN	4472405.076445	4472405.59300508
14	20	0	0	90	36.1581920903955	36.241610738255	15	0.500036639906466	2	2	3	NaN	1	4	0.0534935379151947	1	1	NaN	45	1	45	1	121	221	321	NaN	521	0.518662270158529	1	1	NaN	4472406.8599954	NaN	4472407.8433907	4472408.35993843
14	20	0	0	90	36.1581920903955	36.241610738255	21	0.700051295869052	2	9	2	NaN	2	5	0.0534935379151947	1	1	NaN	46	1	46	1	121	221	321	NaN	521	0.652651290409267	2	1	NaN	4472409.6936064	NaN	4472410.6769936	4472411.19354661
14	20	0	0	90	36.1581920903955	36.241610738255	15	0.500036639906466	2	11	2	NaN	2	3	0.0534935379151947	1	1	NaN	47	1	47	1	121	221	321	NaN	521	0.406056275591254	2	1	NaN	4472412.6605536	NaN	4472413.6439637	4472414.16051042
14	20	0	0	90	36.1581920903955	36.241610738255	15	0.500036639906466	2	1	6	NaN	1	5	0.0534935379151947	1	1	NaN	48	1	48	1	121	221	321	NaN	521	0.616769164800644	1	1	NaN	4472415.3773497	NaN	4472416.3608804	4472416.87743373
14	20	0	0	90	36.1581920903955	36.241610738255	6	0.200014655962586	2	5	6	NaN	1	5	0.0534935379151947	1	1	NaN	49	1	49	1	121	221	321	NaN	521	0.307202517986298	1	1	NaN	4472418.3111154	NaN	4472419.2945146	4472419.81106398
14	20	0	0	90	36.1581920903955	36.241610738255	20	0.666715519875288	2	2	4	NaN	1	3	0.0534935379151947	1	1	NaN	50	1	50	1	121	221	321	NaN	521	0.442163728177547	1	1	NaN	4472420.9280399	NaN	4472421.9114271	4472422.42798747
14	20	0	0	90	36.1581920903955	36.241610738255	16	0.53337241590023	2	11	3	NaN	2	5	0.0534935379151947	1	1	NaN	51	1	51	1	121	221	321	NaN	521	3.25219652801752	2	1	NaN	4472423.6783072	NaN	4472424.6617063	4472425.17826097
14	20	0	0	90	36.1581920903955	36.241610738255	13	0.433365087918937	2	6	4	NaN	1	3	0.0534935379151947	1	1	NaN	52	1	52	1	121	221	321	NaN	521	0.597073370590806	1	1	NaN	4472429.2455448	NaN	4472430.2289212	4472430.74546873
14	20	0	0	90	36.1581920903955	36.241610738255	20	0.666715519875288	2	3	1	NaN	1	5	0.0534935379151947	1	1	NaN	53	1	53	1	121	221	321	NaN	521	0.817978817969561	1	1	NaN	4472432.3123674	NaN	4472433.2958869	4472433.81243388
14	20	0	0	90	36.1581920903955	36.241610738255	24	0.800058623850346	2	4	4	NaN	1	5	0.0534935379151947	1	1	NaN	54	1	54	1	121	221	321	NaN	521	1.17207681853324	1	1	NaN	4472435.4461404	NaN	4472436.4295215	4472436.94607248
14	20	0	0	90	36.1581920903955	36.241610738255	18	0.600043967887759	2	6	6	NaN	1	3	0.0534935379151947	1	1	NaN	55	1	55	1	121	221	321	NaN	521	0.440983870998025	1	1	NaN	4472438.9298078	NaN	4472439.9131854	4472440.42975583
14	20	0	0	90	36.1581920903955	36.241610738255	18	0.600043967887759	2	4	1	NaN	1	5	0.0534935379151947	1	1	NaN	56	1	56	1	121	221	321	NaN	521	0.522310817614198	1	1	NaN	4472441.6801167	NaN	4472442.6634846	4472443.18002078
14	20	0	0	90	36.1581920903955	36.241610738255	9	0.30002198394388	2	11	5	NaN	2	3	0.0534935379151947	1	1	NaN	57	1	57	1	121	221	321	NaN	521	0.584651722572744	2	1	NaN	4472444.5136887	NaN	4472445.497093	4472446.01364058
14	20	0	0	90	36.1581920903955	36.241610738255	7	0.233350431956351	2	11	5	NaN	2	5	0.0534935379151947	1	1	NaN	58	1	58	1	121	221	321	NaN	521	0.38038216996938	2	1	NaN	4472447.4140753	NaN	4472448.3973615	4472448.91391663
14	20	0	0	90	36.1581920903955	36.241610738255	23	0.766722847856581	2	10	2	NaN	2	5	0.0534935379151947	1	1	NaN	59	1	59	1	121	221	321	NaN	521	0.367996118031442	2	1	NaN	4472450.1142414	NaN	4472451.0976338	4472451.61418458
14	20	0	0	90	36.1581920903955	36.241610738255	20	0.666715519875288	2	12	1	NaN	2	4	0.0534935379151947	1	1	NaN	60	1	60	1	121	221	321	NaN	521	0.541821017861366	2	1	NaN	4472452.9644009	NaN	4472453.9479216	4472454.46446368
14	20	0	0	90	36.1581920903955	36.241610738255	17	0.566708191893995	2	11	6	NaN	2	5	0.0534935379151947	1	1	NaN	61	1	61	1	121	221	321	NaN	521	0.619816680438817	1	0	NaN	4472455.814799	NaN	4472456.7981786	4472457.31475182
14	20	0	0	90	36.1581920903955	36.241610738255	6	0.200014655962586	2	9	3	NaN	2	3	0.0534935379151947	1	1	NaN	62	1	62	1	121	221	321	NaN	521	0.702155523002148	2	1	NaN	4472458.7485003	NaN	4472459.7318199	4472460.24837228
14	20	0	0	90	36.1581920903955	36.241610738255	19	0.633379743881524	2	4	5	NaN	1	5	0.0534935379151947	1	1	NaN	63	1	63	1	121	221	321	NaN	521	2.00518146995455	1	1	NaN	4472461.7653844	NaN	4472462.7487883	4472463.26533593
14	20	0	0	90	36.1581920903955	36.241610738255	25	0.83339439984411	2	5	1	NaN	1	3	0.0534935379151947	1	1	NaN	64	2	1	1	121	221	321	NaN	521	0.939373170025647	1	1	NaN	4472474.7832881	NaN	4472475.7667107	4472476.28328413
14	20	0	0	90	36.1581920903955	36.241610738255	11	0.366693535931408	2	5	5	NaN	1	3	0.0534935379151947	1	1	NaN	65	2	2	1	121	221	321	NaN	521	0.696984270587564	2	0	NaN	4472478.033653	NaN	4472479.0171071	4472479.53359863
14	20	0	0	90	36.1581920903955	36.241610738255	23	0.766722847856581	2	8	2	NaN	2	5	0.0534935379151947	1	1	NaN	66	2	3	1	121	221	321	NaN	521	0.672346740961075	2	1	NaN	4472481.033945	NaN	4472482.017345	4472482.53388316
14	20	0	0	90	36.1581920903955	36.241610738255	16	0.53337241590023	2	10	5	NaN	2	3	0.0534935379151947	1	1	NaN	67	2	4	1	121	221	321	NaN	521	0.42494891770184	2	1	NaN	4472484.0176128	NaN	4472485.0009812	4472485.51751398
14	20	0	0	90	36.1581920903955	36.241610738255	13	0.433365087918937	2	1	2	NaN	1	5	0.0534935379151947	1	1	NaN	68	2	5	1	121	221	321	NaN	521	0.539428589865565	1	1	NaN	4472486.7511738	NaN	4472487.7345677	4472488.25112821
14	20	0	0	90	36.1581920903955	36.241610738255	16	0.53337241590023	2	8	3	NaN	2	3	0.0534935379151947	1	1	NaN	69	2	6	1	121	221	321	NaN	521	0.353291071020067	2	1	NaN	4472489.6014903	NaN	4472490.5848433	4472491.10139193
14	20	0	0	90	36.1581920903955	36.241610738255	10	0.333357759937644	2	2	1	NaN	1	5	0.0534935379151947	1	1	NaN	70	2	7	1	121	221	321	NaN	521	1.27002347074449	1	1	NaN	4472492.2683975	NaN	4472493.2517658	4472493.76832953
14	20	0	0	90	36.1581920903955	36.241610738255	19	0.633379743881524	2	3	3	NaN	1	5	0.0534935379151947	1	1	NaN	71	2	8	1	121	221	321	NaN	521	0.558659221976995	1	1	NaN	4472495.8521279	NaN	4472496.8354471	4472497.35201648
14	20	0	0	90	36.1581920903955	36.241610738255	24	0.800058623850346	2	5	4	NaN	1	4	0.0534935379151947	1	1	NaN	72	2	9	1	121	221	321	NaN	521	0.515759917907417	1	1	NaN	4472498.7190257	NaN	4472499.7024128	4472500.21895768
14	20	0	0	90	36.1581920903955	36.241610738255	20	0.666715519875288	2	11	3	NaN	2	5	0.0534935379151947	1	1	NaN	73	2	10	1	121	221	321	NaN	521	0.417758489958942	2	1	NaN	4472501.5526369	NaN	4472502.5360252	4472503.05257421
14	20	0	0	90	36.1581920903955	36.241610738255	14	0.466700863912702	2	4	2	NaN	1	5	0.0534935379151947	1	1	NaN	74	2	11	1	121	221	321	NaN	521	0.444210818037391	1	1	NaN	4472504.2862301	NaN	4472505.2696237	4472505.78617368
14	20	0	0	90	36.1581920903955	36.241610738255	6	0.200014655962586	2	2	5	NaN	1	3	0.0534935379151947	1	1	NaN	75	2	12	1	121	221	321	NaN	521	0.542042970657349	1	1	NaN	4472507.0365147	NaN	4472508.0198817	4472508.53645293
14	20	0	0	90	36.1581920903955	36.241610738255	8	0.266686207950115	2	3	2	NaN	1	5	0.0534935379151947	1	1	NaN	76	2	13	1	121	221	321	NaN	521	0.403578870929778	1	1	NaN	4472509.8867696	NaN	4472510.8701681	4472511.38672283
14	20	0	0	90	36.1581920903955	36.241610738255	19	0.633379743881524	2	11	3	NaN	2	5	0.0534935379151947	1	1	NaN	77	2	14	1	121	221	321	NaN	521	0.935036870650947	1	0	NaN	4472512.6037265	NaN	4472513.5871059	4472514.10366393
14	20	0	0	90	36.1581920903955	36.241610738255	22	0.733387071862817	2	1	6	NaN	1	3	0.0534935379151947	1	1	NaN	78	2	15	1	121	221	321	NaN	521	0.348491065204144	1	1	NaN	4472515.8540298	NaN	4472516.8374255	4472517.35397653
14	20	0	0	90	36.1581920903955	36.241610738255	18	0.600043967887759	2	1	4	NaN	1	4	0.0534935379151947	1	1	NaN	79	2	16	1	121	221	321	NaN	521	0.465733670629561	2	0	NaN	4472518.5209677	NaN	4472519.5043467	4472520.02090093
14	20	0	0	90	36.1581920903955	36.241610738255	7	0.233350431956351	2	6	2	NaN	1	5	0.0534935379151947	1	1	NaN	80	2	17	1	121	221	321	NaN	521	0.426134523004293	1	1	NaN	4472521.3045547	NaN	4472522.287965	4472522.80451798
14	20	0	0	90	36.1581920903955	36.241610738255	18	0.600043967887759	2	9	1	NaN	2	5	0.0534935379151947	1	1	NaN	81	2	18	1	121	221	321	NaN	521	0.396523470059037	1	0	NaN	4472524.0381762	NaN	4472525.0215612	4472525.53810983
14	20	0	0	90	36.1581920903955	36.241610738255	14	0.466700863912702	2	6	4	NaN	1	4	0.0534935379151947	1	1	NaN	82	2	19	1	121	221	321	NaN	521	0.471992422826588	1	1	NaN	4472526.738431	NaN	4472527.7218455	4472528.23838658
14	20	0	0	90	36.1581920903955	36.241610738255	20	0.666715519875288	2	3	5	NaN	1	3	0.0534935379151947	1	1	NaN	83	2	20	1	121	221	321	NaN	521	1.64045587088913	1	1	NaN	4472529.5220588	NaN	4472530.5054222	4472531.02198223
14	20	0	0	90	36.1581920903955	36.241610738255	9	0.30002198394388	2	4	3	NaN	1	5	0.0534935379151947	1	1	NaN	84	2	21	1	121	221	321	NaN	521	0.402010322548449	1	1	NaN	4472533.4724134	NaN	4472534.4559326	4472534.97238078
14	20	0	0	90	36.1581920903955	36.241610738255	11	0.366693535931408	2	1	1	NaN	1	4	0.0534935379151947	1	1	NaN	85	2	22	1	121	221	321	NaN	521	0.365455070510507	1	1	NaN	4472536.1893845	NaN	4472537.1727524	4472537.68930963
14	20	0	0	90	36.1581920903955	36.241610738255	19	0.633379743881524	2	7	2	NaN	2	3	0.0534935379151947	1	1	NaN	86	2	23	1	121	221	321	NaN	521	2.29726236965507	2	1	NaN	4472538.8729522	NaN	4472539.8564008	4472540.37291063
14	20	0	0	90	36.1581920903955	36.241610738255	11	0.366693535931408	2	12	3	NaN	2	4	0.0534935379151947	1	1	NaN	87	2	24	1	121	221	321	NaN	521	0.304348123259842	2	1	NaN	4472543.4900741	NaN	4472544.4734651	4472544.99002878
14	20	0	0	90	36.1581920903955	36.241610738255	8	0.266686207950115	2	4	2	NaN	1	3	0.0534935379151947	1	1	NaN	88	2	25	1	121	221	321	NaN	521	0.431592222303152	1	1	NaN	4472546.1068663	NaN	4472547.0904122	4472547.60694458
14	20	0	0	90	36.1581920903955	36.241610738255	0	0	1	12	6	NaN	2	3	0.0534935379151947	1	1	NaN	89	2	26	1	111	211	311	NaN	511	0.449180870316923	2	1	NaN	4472548.8572821	NaN	4472549.8406509	4472550.35722423
14	20	0	0	90	36.1581920903955	36.241610738255	11	0.366693535931408	2	11	6	NaN	2	4	0.0534935379151947	1	1	NaN	90	2	27	1	121	221	321	NaN	521	0.618257522583008	2	1	NaN	4472551.6242207	NaN	4472552.6076162	4472553.12416118
14	20	0	0	90	36.1581920903955	36.241610738255	19	0.633379743881524	2	9	6	NaN	2	5	0.0534935379151947	1	1	NaN	91	2	28	1	121	221	321	NaN	521	0.477121169678867	2	1	NaN	4472554.5578398	NaN	4472555.5412489	4472556.05777743
14	20	0	0	90	36.1581920903955	36.241610738255	21	0.700051295869052	2	4	6	NaN	1	3	0.0534935379151947	1	1	NaN	92	2	29	1	121	221	321	NaN	521	1.7490017907694	2	0	NaN	4472557.3414287	NaN	4472558.3248272	4472558.84139101
14	20	0	0	90	36.1581920903955	36.241610738255	0	0	1	7	5	NaN	2	3	0.0534935379151947	1	1	NaN	93	2	30	1	111	211	311	NaN	511	0.522356175817549	2	1	NaN	4472561.4084969	NaN	4472562.3919012	4472562.90845492
14	20	0	0	90	36.1581920903955	36.241610738255	18	0.600043967887759	2	5	4	NaN	1	5	0.0534935379151947	1	1	NaN	94	2	31	1	121	221	321	NaN	521	0.32843698002398	1	1	NaN	4472564.2421486	NaN	4472565.2254952	4472565.74206162
14	20	0	0	90	36.1581920903955	36.241610738255	23	0.766722847856581	2	3	6	NaN	1	3	0.0534935379151947	1	1	NaN	95	2	32	1	121	221	321	NaN	521	0.29397402331233	1	1	NaN	4472566.8923771	NaN	4472567.875767	4472568.39233288
14	20	0	0	90	36.1581920903955	36.241610738255	23	0.766722847856581	2	10	1	NaN	2	4	0.0534935379151947	1	1	NaN	96	2	33	1	121	221	321	NaN	521	0.382045222446322	2	1	NaN	4472569.4926215	NaN	4472570.4760602	4472570.99258728
14	20	0	0	90	36.1581920903955	36.241610738255	17	0.566708191893995	2	2	3	NaN	1	5	0.0534935379151947	1	1	NaN	97	2	34	1	121	221	321	NaN	521	0.513665670529008	1	1	NaN	4472572.1928986	NaN	4472573.1762836	4472573.69284773
14	20	0	0	90	36.1581920903955	36.241610738255	7	0.233350431956351	2	3	2	NaN	1	5	0.0534935379151947	1	1	NaN	98	2	35	1	121	221	321	NaN	521	0.408836671151221	1	1	NaN	4472575.0098486	NaN	4472575.9932388	4472576.50978423
14	20	0	0	90	36.1581920903955	36.241610738255	7	0.233350431956351	2	12	6	NaN	2	3	0.0534935379151947	1	1	NaN	99	2	36	1	121	221	321	NaN	521	0.308047622442245	2	1	NaN	4472577.7267929	NaN	4472578.7101698	4472579.22672508
14	20	0	0	90	36.1581920903955	36.241610738255	25	0.83339439984411	2	1	1	NaN	1	4	0.0534935379151947	1	1	NaN	100	2	37	1	121	221	321	NaN	521	0.275143970735371	1	1	NaN	4472580.3436988	NaN	4472581.3270997	4472581.84364503
14	20	0	0	90	36.1581920903955	36.241610738255	12	0.400029311925173	2	4	3	NaN	1	4	0.0534935379151947	1	1	NaN	101	2	38	1	121	221	321	NaN	521	0.434672370553017	1	1	NaN	4472582.9439645	NaN	4472583.9273424	4472584.44390163
14	20	0	0	90	36.1581920903955	36.241610738255	18	0.600043967887759	2	11	1	NaN	2	3	0.0534935379151947	1	1	NaN	102	2	39	1	121	221	321	NaN	521	0.348608770407736	2	1	NaN	4472585.6942197	NaN	4472586.6776248	4472587.19416583
14	20	0	0	90	36.1581920903955	36.241610738255	24	0.800058623850346	2	6	6	NaN	1	3	0.0534935379151947	1	1	NaN	103	2	40	1	121	221	321	NaN	521	0.417815970256925	1	1	NaN	4472588.3445055	NaN	4472589.3278761	4472589.84443243
14	20	0	0	90	36.1581920903955	36.241610738255	24	0.800058623850346	2	6	5	NaN	1	3	0.0534935379151947	1	1	NaN	104	2	41	1	121	221	321	NaN	521	0.484317370690405	1	1	NaN	4472591.0780889	NaN	4472592.0614641	4472592.57804023
14	20	0	0	90	36.1581920903955	36.241610738255	14	0.466700863912702	2	7	3	NaN	2	3	0.0534935379151947	1	1	NaN	105	2	42	1	121	221	321	NaN	521	1.55627901758999	1	0	NaN	4472593.8783614	NaN	4472594.861759	4472595.37830298
14	20	0	0	90	36.1581920903955	36.241610738255	22	0.733387071862817	2	3	4	NaN	1	3	0.0534935379151947	1	1	NaN	106	2	43	1	121	221	321	NaN	521	0.321244423277676	1	1	NaN	4472597.7454926	NaN	4472598.7288129	4472599.24536418
14	20	0	0	90	36.1581920903955	36.241610738255	18	0.600043967887759	2	4	4	NaN	1	3	0.0534935379151947	1	1	NaN	107	2	44	1	121	221	321	NaN	521	0.447708622552454	1	1	NaN	4472600.3790072	NaN	4472601.3623949	4472601.87894538
14	20	0	0	90	36.1581920903955	36.241610738255	15	0.500036639906466	2	9	1	NaN	2	5	0.0534935379151947	1	1	NaN	108	2	45	1	121	221	321	NaN	521	0.248520570807159	2	1	NaN	4472603.1459564	NaN	4472604.1293378	4472604.64589023
14	20	0	0	90	36.1581920903955	36.241610738255	17	0.566708191893995	2	7	6	NaN	2	5	0.0534935379151947	1	1	NaN	109	2	46	1	121	221	321	NaN	521	0.402033470571041	2	1	NaN	4472605.7128414	NaN	4472606.6961527	4472607.21280083
14	20	0	0	90	36.1581920903955	36.241610738255	24	0.800058623850346	2	4	6	NaN	1	4	0.0534935379151947	1	1	NaN	110	2	47	1	121	221	321	NaN	521	0.580566742457449	2	0	NaN	4472608.429804	NaN	4472609.413176	4472609.92973986
14	20	0	0	90	36.1581920903955	36.241610738255	13	0.433365087918937	2	11	4	NaN	2	3	0.0534935379151947	1	1	NaN	111	2	48	1	121	221	321	NaN	521	0.641402622684836	1	0	NaN	4472611.3134024	NaN	4472612.2967998	4472612.81335848
14	20	0	0	90	36.1581920903955	36.241610738255	0	0	1	1	6	NaN	1	4	0.0534935379151947	1	1	NaN	112	2	49	1	111	211	311	NaN	511	0.314917271025479	2	0	NaN	4472614.2636965	NaN	4472615.2470975	4472615.76364643
14	20	0	0	90	36.1581920903955	36.241610738255	8	0.266686207950115	2	8	4	NaN	2	3	0.0534935379151947	1	1	NaN	113	2	50	1	121	221	321	NaN	521	0.553548870608211	2	1	NaN	4472616.8972881	NaN	4472617.8806776	4472618.39723483
14	20	0	0	90	36.1581920903955	36.241610738255	6	0.200014655962586	2	9	4	NaN	2	4	0.0534935379151947	1	1	NaN	114	2	51	1	121	221	321	NaN	521	0.270529970526695	2	1	NaN	4472619.7642938	NaN	4472620.7476422	4472621.26418233
14	20	0	0	90	36.1581920903955	36.241610738255	21	0.700051295869052	2	8	5	NaN	2	5	0.0534935379151947	1	1	NaN	115	2	52	1	121	221	321	NaN	521	0.366768222302198	2	1	NaN	4472622.3477203	NaN	4472623.3312195	4472623.84777768
14	20	0	0	90	36.1581920903955	36.241610738255	13	0.433365087918937	2	6	4	NaN	1	5	0.0534935379151947	1	1	NaN	116	2	53	1	121	221	321	NaN	521	0.667150970548391	1	1	NaN	4472625.031415	NaN	4472626.0148143	4472626.53136843
14	20	0	0	90	36.1581920903955	36.241610738255	0	0	1	5	2	NaN	1	5	0.0534935379151947	1	1	NaN	117	2	54	1	111	211	311	NaN	511	0.275695022195578	1	1	NaN	4472628.0150507	NaN	4472628.9984435	4472629.51499528
14	20	0	0	90	36.1581920903955	36.241610738255	13	0.433365087918937	2	11	3	NaN	2	4	0.0534935379151947	1	1	NaN	118	2	55	1	121	221	321	NaN	521	2.29977607075125	1	0	NaN	4472630.5986307	NaN	4472631.5820423	4472632.09858313
14	20	0	0	90	36.1581920903955	36.241610738255	13	0.433365087918937	2	3	2	NaN	1	5	0.0534935379151947	1	1	NaN	119	2	56	1	121	221	321	NaN	521	0.275119571015239	1	1	NaN	4472635.2157629	NaN	4472636.1991467	4472636.71570033
14	20	0	0	90	36.1581920903955	36.241610738255	6	0.200014655962586	2	1	3	NaN	1	4	0.0534935379151947	1	1	NaN	120	2	57	1	121	221	321	NaN	521	0.195485018193722	1	1	NaN	4472637.7993302	NaN	4472638.7827417	4472639.29928878
14	20	0	0	90	36.1581920903955	36.241610738255	25	0.83339439984411	2	9	1	NaN	2	5	0.0534935379151947	1	1	NaN	121	2	58	1	121	221	321	NaN	521	0.406594970263541	1	0	NaN	4472640.3162662	NaN	4472641.299648	4472641.81620333
14	20	0	0	90	36.1581920903955	36.241610738255	24	0.800058623850346	2	3	1	NaN	1	3	0.0534935379151947	1	1	NaN	122	2	59	1	121	221	321	NaN	521	0.673383218236268	1	1	NaN	4472643.0332033	NaN	4472644.0165952	4472644.53314088
14	20	0	0	90	36.1581920903955	36.241610738255	25	0.83339439984411	2	2	6	NaN	1	5	0.0534935379151947	1	1	NaN	123	2	60	1	121	221	321	NaN	521	0.505644170567393	1	1	NaN	4472646.0168228	NaN	4472647.0002147	4472647.51675993
14	20	0	0	90	36.1581920903955	36.241610738255	24	0.800058623850346	2	2	5	NaN	1	4	0.0534935379151947	1	1	NaN	124	2	61	1	121	221	321	NaN	521	0.434381322935224	1	1	NaN	4472649.200346	NaN	4472650.1838608	4472650.70041058
14	20	0	0	90	36.1581920903955	36.241610738255	17	0.566708191893995	2	3	3	NaN	1	3	0.0534935379151947	1	1	NaN	125	2	62	1	121	221	321	NaN	521	0.340043822303414	1	1	NaN	4472651.9507514	NaN	4472652.9341095	4472653.45068608
14	20	0	0	90	36.1581920903955	36.241610738255	20	0.666715519875288	2	5	6	NaN	1	3	0.0534935379151947	1	1	NaN	126	2	63	1	121	221	321	NaN	521	0.401830670423806	1	1	NaN	4472654.6009926	NaN	4472655.5843898	4472656.10093963
14	20	0	0	90	36.1581920903955	36.241610738255	25	0.83339439984411	2	11	4	NaN	2	3	0.0534935379151947	1	1	NaN	127	3	1	1	121	221	321	NaN	521	1.46926347631961	2	1	NaN	4472668.0856721	NaN	4472669.0690606	4472669.58560062
14	20	0	0	90	36.1581920903955	36.241610738255	21	0.700051295869052	2	4	1	NaN	1	4	0.0534935379151947	1	1	NaN	128	3	2	1	121	221	321	NaN	521	0.0104091698303819	1	1	NaN	4472671.8694424	NaN	4472672.8527562	4472673.36930173
14	20	0	0	90	36.1581920903955	36.241610738255	18	0.600043967887759	2	2	1	NaN	1	4	0.0534935379151947	1	1	NaN	129	3	3	1	121	221	321	NaN	521	0.544429470784962	1	1	NaN	4472674.1862695	NaN	4472675.1696513	4472675.68620263
14	20	0	0	90	36.1581920903955	36.241610738255	21	0.700051295869052	2	5	2	NaN	1	3	0.0534935379151947	1	1	NaN	130	3	4	1	121	221	321	NaN	521	0.438393222168088	1	1	NaN	4472677.0365519	NaN	4472678.0199506	4472678.53648348
14	20	0	0	90	36.1581920903955	36.241610738255	8	0.266686207950115	2	12	4	NaN	2	3	0.0534935379151947	1	1	NaN	131	3	5	1	121	221	321	NaN	521	0.308359822258353	1	0	NaN	4472680.0701654	NaN	4472681.0535665	4472681.57011018
14	20	0	0	90	36.1581920903955	36.241610738255	6	0.200014655962586	2	12	2	NaN	2	3	0.0534935379151947	1	1	NaN	132	3	6	1	121	221	321	NaN	521	0.85985567048192	1	0	NaN	4472682.6870947	NaN	4472683.6705255	4472684.18703123
14	20	0	0	90	36.1581920903955	36.241610738255	11	0.366693535931408	2	8	3	NaN	2	5	0.0534935379151947	1	1	NaN	133	3	7	1	121	221	321	NaN	521	0.796492222696543	2	1	NaN	4472685.8540748	NaN	4472686.8374448	4472687.35401508
14	20	0	0	90	36.1581920903955	36.241610738255	23	0.766722847856581	2	11	6	NaN	2	3	0.0534935379151947	1	1	NaN	134	3	8	1	121	221	321	NaN	521	0.552658517844975	2	1	NaN	4472688.9543754	NaN	4472689.9377693	4472690.45431168
14	20	0	0	90	36.1581920903955	36.241610738255	18	0.600043967887759	2	3	6	NaN	1	5	0.0534935379151947	1	1	NaN	135	3	9	1	121	221	321	NaN	521	0.525242370553315	1	1	NaN	4472691.8212705	NaN	4472692.8047191	4472693.32126253
14	20	0	0	90	36.1581920903955	36.241610738255	10	0.333357759937644	2	2	5	NaN	1	3	0.0534935379151947	1	1	NaN	136	3	10	1	121	221	321	NaN	521	0.531673571094871	1	1	NaN	4472694.6549406	NaN	4472695.6383217	4472696.15486933
14	20	0	0	90	36.1581920903955	36.241610738255	14	0.466700863912702	2	10	2	NaN	2	4	0.0534935379151947	1	1	NaN	137	3	11	1	121	221	321	NaN	521	0.32982811331749	2	1	NaN	4472697.5052082	NaN	4472698.4886145	4472699.00515099
14	20	0	0	90	36.1581920903955	36.241610738255	10	0.333357759937644	2	4	2	NaN	1	3	0.0534935379151947	1	1	NaN	138	3	12	1	121	221	321	NaN	521	5.71934942249209	1	1	NaN	4472700.1554718	NaN	4472701.1388829	4472701.65542028
14	20	0	0	90	36.1581920903955	36.241610738255	22	0.733387071862817	2	3	2	NaN	1	4	0.0534935379151947	1	1	NaN	139	3	13	1	121	221	321	NaN	521	1.65298397000879	1	1	NaN	4472708.1895294	NaN	4472709.1729918	4472709.68953863
14	20	0	0	90	36.1581920903955	36.241610738255	8	0.266686207950115	2	1	3	NaN	1	4	0.0534935379151947	1	1	NaN	140	3	14	1	121	221	321	NaN	521	0.47013337071985	1	1	NaN	4472712.1566261	NaN	4472713.1400892	4472713.65659013
14	20	0	0	90	36.1581920903955	36.241610738255	11	0.366693535931408	2	4	3	NaN	1	3	0.0534935379151947	1	1	NaN	141	3	15	1	121	221	321	NaN	521	0.3507508225739	1	1	NaN	4472714.9402698	NaN	4472715.9236557	4472716.44020888
14	20	0	0	90	36.1581920903955	36.241610738255	7	0.233350431956351	2	10	5	NaN	2	5	0.0534935379151947	1	1	NaN	142	3	16	1	121	221	321	NaN	521	0.443777364678681	2	1	NaN	4472717.6071847	NaN	4472718.5906409	4472719.10712413
14	20	0	0	90	36.1581920903955	36.241610738255	0	0	1	2	3	NaN	1	5	0.0534935379151947	1	1	NaN	143	3	17	1	111	211	311	NaN	511	0.541144170798361	1	1	NaN	4472720.3574473	NaN	4472721.3408517	4472721.85739943
14	20	0	0	90	36.1581920903955	36.241610738255	13	0.433365087918937	2	10	5	NaN	2	4	0.0534935379151947	1	1	NaN	144	3	18	1	121	221	321	NaN	521	0.2749292422086	2	1	NaN	4472723.2077453	NaN	4472724.1911077	4472724.70769246
14	20	0	0	90	36.1581920903955	36.241610738255	0	0	1	10	4	NaN	2	3	0.0534935379151947	1	1	NaN	145	3	19	1	111	211	311	NaN	511	0.362619018182158	2	1	NaN	4472725.8079831	NaN	4472726.7913731	4472727.30793368
14	20	0	0	90	36.1581920903955	36.241610738255	7	0.233350431956351	2	4	6	NaN	1	3	0.0534935379151947	1	1	NaN	146	3	20	1	121	221	321	NaN	521	0.391033970750868	1	1	NaN	4472728.4915854	NaN	4472729.4749875	4472729.99152933
14	20	0	0	90	36.1581920903955	36.241610738255	25	0.83339439984411	2	3	6	NaN	1	4	0.0534935379151947	1	1	NaN	147	3	21	1	121	221	321	NaN	521	0.842926970683038	1	1	NaN	4472731.1918415	NaN	4472732.1751344	4472732.69180223
14	20	0	0	90	36.1581920903955	36.241610738255	18	0.600043967887759	2	10	3	NaN	2	5	0.0534935379151947	1	1	NaN	148	3	22	1	121	221	321	NaN	521	0.556631033308804	2	1	NaN	4472734.3422793	NaN	4472735.325551	4472735.84211757
14	20	0	0	90	36.1581920903955	36.241610738255	13	0.433365087918937	2	9	6	NaN	2	3	0.0534935379151947	1	1	NaN	149	3	23	1	121	221	321	NaN	521	0.361892823129892	2	1	NaN	4472737.2091204	NaN	4472738.1924269	4472738.70906078
14	20	0	0	90	36.1581920903955	36.241610738255	20	0.666715519875288	2	4	1	NaN	1	3	0.0534935379151947	1	1	NaN	150	3	24	1	121	221	321	NaN	521	0.301963522098958	1	1	NaN	4472739.8927127	NaN	4472740.8761096	4472741.39264938
14	20	0	0	90	36.1581920903955	36.241610738255	7	0.233350431956351	2	1	2	NaN	1	3	0.0534935379151947	1	1	NaN	151	3	25	1	121	221	321	NaN	521	0.261089018546045	1	1	NaN	4472742.5096305	NaN	4472743.4930289	4472744.00957458
14	20	0	0	90	36.1581920903955	36.241610738255	7	0.233350431956351	2	5	6	NaN	1	5	0.0534935379151947	1	1	NaN	152	3	26	1	121	221	321	NaN	521	0.318566870875657	1	1	NaN	4472745.0765711	NaN	4472746.0599271	4472746.57649283
14	20	0	0	90	36.1581920903955	36.241610738255	19	0.633379743881524	2	3	4	NaN	1	4	0.0534935379151947	1	1	NaN	153	3	27	1	121	221	321	NaN	521	0.412933913059533	1	1	NaN	4472747.7101412	NaN	4472748.6935446	4472749.21008159
14	20	0	0	90	36.1581920903955	36.241610738255	25	0.83339439984411	2	4	5	NaN	1	5	0.0534935379151947	1	1	NaN	154	3	28	1	121	221	321	NaN	521	0.462917070835829	1	1	NaN	4472750.4437473	NaN	4472751.4271814	4472751.94368853
14	20	0	0	90	36.1581920903955	36.241610738255	6	0.200014655962586	2	10	3	NaN	2	4	0.0534935379151947	1	1	NaN	155	3	29	1	121	221	321	NaN	521	0.935279822908342	2	1	NaN	4472753.227387	NaN	4472754.2107496	4472754.72729218
14	20	0	0	90	36.1581920903955	36.241610738255	9	0.30002198394388	2	1	3	NaN	1	3	0.0534935379151947	1	1	NaN	156	3	30	1	121	221	321	NaN	521	0.461379271000624	1	1	NaN	4472756.4775483	NaN	4472757.4610828	4472757.97761593
14	20	0	0	90	36.1581920903955	36.241610738255	15	0.500036639906466	2	10	3	NaN	2	5	0.0534935379151947	1	1	NaN	157	3	31	1	121	221	321	NaN	521	0.326147270388901	2	1	NaN	4472759.2446179	NaN	4472760.2279881	4472760.74455633
14	20	0	0	90	36.1581920903955	36.241610738255	0	0	1	5	5	NaN	1	5	0.0534935379151947	1	1	NaN	158	3	32	1	111	211	311	NaN	511	1.83618112187833	1	1	NaN	4472761.8948778	NaN	4472762.8782623	4472763.39480898
14	20	0	0	90	36.1581920903955	36.241610738255	8	0.266686207950115	2	6	1	NaN	1	3	0.0534935379151947	1	1	NaN	159	3	33	1	121	221	321	NaN	521	0.341473218053579	1	1	NaN	4472766.0451434	NaN	4472767.0286903	4472767.54521838
14	20	0	0	90	36.1581920903955	36.241610738255	10	0.333357759937644	2	3	5	NaN	1	4	0.0534935379151947	1	1	NaN	160	3	34	1	121	221	321	NaN	521	0.539715970866382	1	1	NaN	4472768.6955449	NaN	4472769.6789439	4472770.19548283
14	20	0	0	90	36.1581920903955	36.241610738255	9	0.30002198394388	2	10	5	NaN	2	5	0.0534935379151947	1	1	NaN	161	3	35	1	121	221	321	NaN	521	0.520984536968172	2	1	NaN	4472771.5457441	NaN	4472772.5292189	4472773.04576776
14	20	0	0	90	36.1581920903955	36.241610738255	20	0.666715519875288	2	11	1	NaN	2	5	0.0534935379151947	1	1	NaN	162	3	36	1	121	221	321	NaN	521	0.431591022759676	2	1	NaN	4472774.3794395	NaN	4472775.3628213	4472775.87937018
14	20	0	0	90	36.1581920903955	36.241610738255	0	0	1	6	4	NaN	1	3	0.0534935379151947	1	1	NaN	163	3	37	1	111	211	311	NaN	511	0.297043917700648	1	1	NaN	4472777.1296937	NaN	4472778.1131009	4472778.62965078
14	20	0	0	90	36.1581920903955	36.241610738255	11	0.366693535931408	2	11	3	NaN	2	5	0.0534935379151947	1	1	NaN	164	3	38	1	121	221	321	NaN	521	2.05693506542593	2	1	NaN	4472779.7299629	NaN	4472780.7133481	4472781.22989483
14	20	0	0	90	36.1581920903955	36.241610738255	20	0.666715519875288	2	12	3	NaN	2	5	0.0534935379151947	1	1	NaN	165	3	39	1	121	221	321	NaN	521	0.834106517955661	1	0	NaN	4472784.0970047	NaN	4472785.0804391	4472785.59700338
14	20	0	0	90	36.1581920903955	36.241610738255	8	0.266686207950115	2	6	5	NaN	1	4	0.0534935379151947	1	1	NaN	166	3	40	1	121	221	321	NaN	521	0.42744002211839	1	1	NaN	4472787.2473622	NaN	4472788.2307566	4472788.74731148
14	20	0	0	90	36.1581920903955	36.241610738255	20	0.666715519875288	2	10	2	NaN	2	5	0.0534935379151947	1	1	NaN	167	3	41	1	121	221	321	NaN	521	0.533072071149945	2	1	NaN	4472789.9976148	NaN	4472790.9810031	4472791.49757943
14	20	0	0	90	36.1581920903955	36.241610738255	9	0.30002198394388	2	10	6	NaN	2	5	0.0534935379151947	1	1	NaN	168	3	42	1	121	221	321	NaN	521	0.362842170521617	1	0	NaN	4472792.8479167	NaN	4472793.8313598	4472794.34785483
14	20	0	0	90	36.1581920903955	36.241610738255	7	0.233350431956351	2	1	2	NaN	1	5	0.0534935379151947	1	1	NaN	169	3	43	1	121	221	321	NaN	521	0.383341022767127	1	1	NaN	4472795.5314901	NaN	4472796.5149009	4472797.03144778
14	20	0	0	90	36.1581920903955	36.241610738255	17	0.566708191893995	2	11	1	NaN	2	5	0.0534935379151947	1	1	NaN	170	3	44	1	121	221	321	NaN	521	1.52339414227754	2	1	NaN	4472798.2317658	NaN	4472799.2152032	4472799.73172166
14	20	0	0	90	36.1581920903955	36.241610738255	12	0.400029311925173	2	9	4	NaN	2	5	0.0534935379151947	1	1	NaN	171	3	45	1	121	221	321	NaN	521	0.31336721777916	2	1	NaN	4472802.0654807	NaN	4472803.0488619	4472803.56543148
14	20	0	0	90	36.1581920903955	36.241610738255	0	0	1	10	4	NaN	2	5	0.0534935379151947	1	1	NaN	172	3	46	1	111	211	311	NaN	511	2.73559782281518	2	1	NaN	4472804.6990844	NaN	4472805.6824694	4472806.19901808
14	20	0	0	90	36.1581920903955	36.241610738255	19	0.633379743881524	2	6	5	NaN	1	3	0.0534935379151947	1	1	NaN	173	3	47	1	121	221	321	NaN	521	0.253345365636051	1	1	NaN	4472809.7495703	NaN	4472810.7329695	4472811.24950953
14	20	0	0	90	36.1581920903955	36.241610738255	13	0.433365087918937	2	8	1	NaN	2	3	0.0534935379151947	1	1	NaN	174	3	48	1	121	221	321	NaN	521	0.398232842795551	2	1	NaN	4472812.3164937	NaN	4472813.2998903	4472813.81643896
14	20	0	0	90	36.1581920903955	36.241610738255	23	0.766722847856581	2	12	3	NaN	2	4	0.0534935379151947	1	1	NaN	175	3	49	1	121	221	321	NaN	521	0.401790622621775	2	1	NaN	4472815.0334145	NaN	4472816.0168177	4472816.53337178
14	20	0	0	90	36.1581920903955	36.241610738255	14	0.466700863912702	2	12	2	NaN	2	5	0.0534935379151947	1	1	NaN	176	3	50	1	121	221	321	NaN	521	2.97256212309003	2	1	NaN	4472817.7502223	NaN	4472818.7337408	4472819.25030698
14	20	0	0	90	36.1581920903955	36.241610738255	22	0.733387071862817	2	8	2	NaN	2	3	0.0534935379151947	1	1	NaN	177	3	51	1	121	221	321	NaN	521	0.512521822936833	2	1	NaN	4472823.0342061	NaN	4472824.0176123	4472824.53415058
14	20	0	0	90	36.1581920903955	36.241610738255	0	0	1	2	1	NaN	1	4	0.0534935379151947	1	1	NaN	178	3	52	1	111	211	311	NaN	511	1.30292312335223	2	0	NaN	4472825.8678221	NaN	4472826.8512092	4472827.36777108
14	20	0	0	90	36.1581920903955	36.241610738255	0	0	1	4	2	NaN	1	4	0.0534935379151947	1	1	NaN	179	3	53	1	111	211	311	NaN	511	0.93392797652632	1	1	NaN	4472829.4848419	NaN	4472830.4682373	4472830.98479682
14	20	0	0	90	36.1581920903955	36.241610738255	10	0.333357759937644	2	7	4	NaN	2	5	0.0534935379151947	1	1	NaN	180	3	54	1	121	221	321	NaN	521	0.507876423187554	2	1	NaN	4472832.7351517	NaN	4472833.7185555	4472834.23510208
14	20	0	0	90	36.1581920903955	36.241610738255	25	0.83339439984411	2	6	2	NaN	1	5	0.0534935379151947	1	1	NaN	181	3	55	1	121	221	321	NaN	521	0.338974270038307	1	1	NaN	4472835.5521003	NaN	4472836.535496	4472837.05204843
14	20	0	0	90	36.1581920903955	36.241610738255	21	0.700051295869052	2	7	2	NaN	2	4	0.0534935379151947	1	1	NaN	182	3	56	1	121	221	321	NaN	521	0.376375670544803	2	1	NaN	4472838.2022284	NaN	4472839.1857621	4472839.70232103
14	20	0	0	90	36.1581920903955	36.241610738255	15	0.500036639906466	2	12	2	NaN	2	4	0.0534935379151947	1	1	NaN	183	3	57	1	121	221	321	NaN	521	0.52528047002852	2	1	NaN	4472840.885861	NaN	4472841.8693648	4472842.38590783
14	20	0	0	90	36.1581920903955	36.241610738255	20	0.666715519875288	2	5	1	NaN	1	4	0.0534935379151947	1	1	NaN	184	3	58	1	121	221	321	NaN	521	0.355258470401168	1	1	NaN	4472843.7195697	NaN	4472844.7029578	4472845.21951243
14	20	0	0	90	36.1581920903955	36.241610738255	18	0.600043967887759	2	12	6	NaN	2	3	0.0534935379151947	1	1	NaN	185	3	59	1	121	221	321	NaN	521	0.352715970017016	2	1	NaN	4472846.3865092	NaN	4472847.3697924	4472847.88644903
14	20	0	0	90	36.1581920903955	36.241610738255	21	0.700051295869052	2	1	6	NaN	1	4	0.0534935379151947	1	1	NaN	186	3	60	1	121	221	321	NaN	521	1.42136152274907	1	1	NaN	4472849.0534327	NaN	4472850.0368628	4472850.55337888
14	20	0	0	90	36.1581920903955	36.241610738255	23	0.766722847856581	2	7	4	NaN	2	4	0.0534935379151947	1	1	NaN	187	3	61	1	121	221	321	NaN	521	0.271685875020921	2	1	NaN	4472852.7871268	NaN	4472853.7705483	4472854.28707862
14	20	0	0	90	36.1581920903955	36.241610738255	0	0	1	11	2	NaN	2	5	0.0534935379151947	1	1	NaN	188	3	62	1	111	211	311	NaN	511	0.296076822094619	2	1	NaN	4472855.3707351	NaN	4472856.3541341	4472856.87066918
14	20	0	0	90	36.1581920903955	36.241610738255	9	0.30002198394388	2	9	5	NaN	2	3	0.0534935379151947	1	1	NaN	189	3	63	1	121	221	321	NaN	521	0.167586070485413	2	1	NaN	4472857.9877059	NaN	4472858.9710385	4472859.48759213
14	20	0	0	90	36.1581920903955	36.241610738255	19	0.633379743881524	2	5	3	NaN	1	3	0.0534935379151947	1	1	NaN	190	4	1	1	121	221	321	NaN	521	0.67717557027936	1	1	NaN	4472872.2057013	NaN	4472873.1891041	4472873.70565273
14	20	0	0	90	36.1581920903955	36.241610738255	16	0.53337241590023	2	2	6	NaN	1	5	0.0534935379151947	1	1	NaN	191	4	2	1	121	221	321	NaN	521	0.413561370223761	1	1	NaN	4472875.1893354	NaN	4472876.1727862	4472876.68927033
14	20	0	0	90	36.1581920903955	36.241610738255	25	0.83339439984411	2	8	4	NaN	2	3	0.0534935379151947	1	1	NaN	192	4	3	1	121	221	321	NaN	521	0.408326618373394	2	1	NaN	4472877.9229499	NaN	4472878.9063174	4472879.42287408
14	20	0	0	90	36.1581920903955	36.241610738255	22	0.733387071862817	2	7	1	NaN	2	5	0.0534935379151947	1	1	NaN	193	4	4	1	121	221	321	NaN	521	0.3951425710693	2	1	NaN	4472880.6397332	NaN	4472881.6232694	4472882.13980983
14	20	0	0	90	36.1581920903955	36.241610738255	8	0.266686207950115	2	5	2	NaN	1	3	0.0534935379151947	1	1	NaN	194	4	5	1	121	221	321	NaN	521	0.598455027677119	1	1	NaN	4472883.3568081	NaN	4472884.340201	4472884.85674727
14	20	0	0	90	36.1581920903955	36.241610738255	22	0.733387071862817	2	5	1	NaN	1	3	0.0534935379151947	1	1	NaN	195	4	6	1	121	221	321	NaN	521	0.345110922120512	1	1	NaN	4472886.2737463	NaN	4472887.2571457	4472887.77369758
14	20	0	0	90	36.1581920903955	36.241610738255	7	0.233350431956351	2	2	2	NaN	1	5	0.0534935379151947	1	1	NaN	196	4	7	1	121	221	321	NaN	521	0.726110770367086	1	1	NaN	4472888.940695	NaN	4472889.924079	4472890.44062713
14	20	0	0	90	36.1581920903955	36.241610738255	7	0.233350431956351	2	10	2	NaN	2	3	0.0534935379151947	1	1	NaN	197	4	8	1	121	221	321	NaN	521	0.388260522857308	2	1	NaN	4472891.9909856	NaN	4472892.9743531	4472893.49094348
14	20	0	0	90	36.1581920903955	36.241610738255	17	0.566708191893995	2	7	5	NaN	2	4	0.0534935379151947	1	1	NaN	198	4	9	1	121	221	321	NaN	521	0.46359836962074	2	1	NaN	4472894.6912361	NaN	4472895.6746257	4472896.19119123
14	20	0	0	90	36.1581920903955	36.241610738255	14	0.466700863912702	2	11	5	NaN	2	3	0.0534935379151947	1	1	NaN	199	4	10	1	121	221	321	NaN	521	0.560241318307817	1	0	NaN	4472897.4748591	NaN	4472898.4582537	4472898.97479488
14	20	0	0	90	36.1581920903955	36.241610738255	9	0.30002198394388	2	12	6	NaN	2	3	0.0534935379151947	1	1	NaN	200	4	11	1	121	221	321	NaN	521	0.421292318031192	2	1	NaN	4472900.3418541	NaN	4472901.3252319	4472901.84173848
14	20	0	0	90	36.1581920903955	36.241610738255	8	0.266686207950115	2	8	6	NaN	2	4	0.0534935379151947	1	1	NaN	201	4	12	1	121	221	321	NaN	521	0.439933721907437	2	1	NaN	4472903.0754163	NaN	4472904.0587934	4472904.57536988
14	20	0	0	90	36.1581920903955	36.241610738255	18	0.600043967887759	2	9	4	NaN	2	5	0.0534935379151947	1	1	NaN	202	4	13	1	121	221	321	NaN	521	1.40134586580098	2	1	NaN	4472905.8256667	NaN	4472906.8090741	4472907.32561233
14	20	0	0	90	36.1581920903955	36.241610738255	0	0	1	8	3	NaN	2	3	0.0534935379151947	1	1	NaN	203	4	14	1	111	211	311	NaN	511	0.556246969848871	2	1	NaN	4472909.542576	NaN	4472910.5260943	4472911.04264763
14	20	0	0	90	36.1581920903955	36.241610738255	13	0.433365087918937	2	7	3	NaN	2	4	0.0534935379151947	1	1	NaN	204	4	15	1	121	221	321	NaN	521	1.54542667046189	2	1	NaN	4472912.4096504	NaN	4472913.3930516	4472913.90959893
14	20	0	0	90	36.1581920903955	36.241610738255	11	0.366693535931408	2	12	6	NaN	2	4	0.0534935379151947	1	1	NaN	205	4	16	1	121	221	321	NaN	521	0.622302637435496	2	1	NaN	4472916.2765682	NaN	4472917.2600979	4472917.77664886
14	20	0	0	90	36.1581920903955	36.241610738255	0	0	1	4	3	NaN	1	3	0.0534935379151947	1	1	NaN	206	4	17	1	111	211	311	NaN	511	0.240993942134082	1	1	NaN	4472919.2103243	NaN	4472920.1937153	4472920.71027316
14	20	0	0	90	36.1581920903955	36.241610738255	24	0.800058623850346	2	1	3	NaN	1	4	0.0534935379151947	1	1	NaN	207	4	18	1	121	221	321	NaN	521	0.0904228705912828	1	1	NaN	4472921.7605834	NaN	4472922.7438622	4472923.26051253
14	20	0	0	90	36.1581920903955	36.241610738255	6	0.200014655962586	2	2	3	NaN	1	4	0.0534935379151947	1	1	NaN	208	4	19	1	121	221	321	NaN	521	1.0901750177145	1	1	NaN	4472924.1608062	NaN	4472925.1442091	4472925.66074758
14	20	0	0	90	36.1581920903955	36.241610738255	10	0.333357759937644	2	12	2	NaN	2	3	0.0534935379151947	1	1	NaN	209	4	20	1	121	221	321	NaN	521	0.898246370255947	2	1	NaN	4472927.5611529	NaN	4472928.5445395	4472929.06108133
14	20	0	0	90	36.1581920903955	36.241610738255	13	0.433365087918937	2	9	2	NaN	2	3	0.0534935379151947	1	1	NaN	210	4	21	1	121	221	321	NaN	521	0.736866518855095	2	1	NaN	4472930.7780041	NaN	4472931.7615206	4472932.27806248
14	20	0	0	90	36.1581920903955	36.241610738255	6	0.200014655962586	2	6	3	NaN	1	5	0.0534935379151947	1	1	NaN	211	4	22	1	121	221	321	NaN	521	0.487002560868859	1	1	NaN	4472933.8284273	NaN	4472934.8118087	4472935.32836104
14	20	0	0	90	36.1581920903955	36.241610738255	24	0.800058623850346	2	8	1	NaN	2	4	0.0534935379151947	1	1	NaN	212	4	23	1	121	221	321	NaN	521	0.50224157050252	2	1	NaN	4472936.6287024	NaN	4472937.6121509	4472938.12864413
14	20	0	0	90	36.1581920903955	36.241610738255	9	0.30002198394388	2	2	4	NaN	1	3	0.0534935379151947	1	1	NaN	213	4	24	1	121	221	321	NaN	521	0.557446641847491	1	1	NaN	4472939.4456479	NaN	4472940.429038	4472940.94558916
14	20	0	0	90	36.1581920903955	36.241610738255	0	0	1	8	1	NaN	2	3	0.0534935379151947	1	1	NaN	214	4	25	1	111	211	311	NaN	511	0.370371118187904	2	1	NaN	4472942.3125906	NaN	4472943.2959764	4472943.81252738
14	20	0	0	90	36.1581920903955	36.241610738255	25	0.83339439984411	2	4	6	NaN	1	5	0.0534935379151947	1	1	NaN	215	4	26	1	121	221	321	NaN	521	0.590947670862079	1	1	NaN	4472944.9961923	NaN	4472945.9795688	4472946.49612723
14	20	0	0	90	36.1581920903955	36.241610738255	18	0.600043967887759	2	8	6	NaN	2	3	0.0534935379151947	1	1	NaN	216	4	27	1	121	221	321	NaN	521	0.658891670405865	2	1	NaN	4472947.8964707	NaN	4472948.879859	4472949.39642713
14	20	0	0	90	36.1581920903955	36.241610738255	13	0.433365087918937	2	4	4	NaN	1	3	0.0534935379151947	1	1	NaN	217	4	28	1	121	221	321	NaN	521	0.450960622169077	1	1	NaN	4472950.8801149	NaN	4472951.8634826	4472952.38004808
14	20	0	0	90	36.1581920903955	36.241610738255	9	0.30002198394388	2	3	5	NaN	1	3	0.0534935379151947	1	1	NaN	218	4	29	1	121	221	321	NaN	521	0.300076370127499	1	1	NaN	4472953.6470288	NaN	4472954.6304724	4472955.14698203
14	20	0	0	90	36.1581920903955	36.241610738255	9	0.30002198394388	2	8	4	NaN	2	4	0.0534935379151947	1	1	NaN	219	4	30	1	121	221	321	NaN	521	0.195037771016359	2	1	NaN	4472956.2639749	NaN	4472957.2473489	4472957.76390413
14	20	0	0	90	36.1581920903955	36.241610738255	14	0.466700863912702	2	11	1	NaN	2	4	0.0534935379151947	1	1	NaN	220	4	31	1	121	221	321	NaN	521	0.366810837760568	2	1	NaN	4472958.7642322	NaN	4472959.7476005	4472960.26415656
14	20	0	0	90	36.1581920903955	36.241610738255	13	0.433365087918937	2	12	2	NaN	2	5	0.0534935379151947	1	1	NaN	221	4	32	1	121	221	321	NaN	521	0.315360070206225	2	1	NaN	4472961.4477908	NaN	4472962.4311874	4472962.94774513
14	20	0	0	90	36.1581920903955	36.241610738255	19	0.633379743881524	2	1	4	NaN	1	5	0.0534935379151947	1	1	NaN	222	4	33	1	121	221	321	NaN	521	0.330110075883567	1	1	NaN	4472964.0647291	NaN	4472965.0481109	4472965.56466972
14	20	0	0	90	36.1581920903955	36.241610738255	17	0.566708191893995	2	2	5	NaN	1	5	0.0534935379151947	1	1	NaN	223	4	34	1	121	221	321	NaN	521	0.391987469978631	1	1	NaN	4472966.7149912	NaN	4472967.698379	4472968.21492763
14	20	0	0	90	36.1581920903955	36.241610738255	16	0.53337241590023	2	6	1	NaN	1	4	0.0534935379151947	1	1	NaN	224	4	35	1	121	221	321	NaN	521	0.292084670625627	1	1	NaN	4472969.4152253	NaN	4472970.3986519	4472970.91519703
14	20	0	0	90	36.1581920903955	36.241610738255	20	0.666715519875288	2	9	5	NaN	2	4	0.0534935379151947	1	1	NaN	225	4	36	1	121	221	321	NaN	521	0.115553770214319	2	1	NaN	4472972.0155167	NaN	4472972.9989003	4472973.51544983
14	20	0	0	90	36.1581920903955	36.241610738255	17	0.566708191893995	2	3	5	NaN	1	4	0.0534935379151947	1	1	NaN	226	4	37	1	121	221	321	NaN	521	0.289971690624952	1	1	NaN	4472974.4490802	NaN	4472975.4324737	4472975.94903381
14	20	0	0	90	36.1581920903955	36.241610738255	23	0.766722847856581	2	8	4	NaN	2	5	0.0534935379151947	1	1	NaN	227	4	38	1	121	221	321	NaN	521	0.0737450225278735	2	1	NaN	4472977.0493419	NaN	4472978.0327184	4472978.54928788
14	20	0	0	90	36.1581920903955	36.241610738255	19	0.633379743881524	2	5	3	NaN	1	4	0.0534935379151947	1	1	NaN	228	4	39	1	121	221	321	NaN	521	0.333085690625012	1	1	NaN	4472979.7661499	NaN	4472980.749679	4472981.26622201
14	20	0	0	90	36.1581920903955	36.241610738255	16	0.53337241590023	2	9	6	NaN	2	4	0.0534935379151947	1	1	NaN	229	4	40	1	121	221	321	NaN	521	0.370495904237032	2	1	NaN	4472982.4165441	NaN	4472983.3999199	4472983.9164691
14	20	0	0	90	36.1581920903955	36.241610738255	6	0.200014655962586	2	5	5	NaN	1	4	0.0534935379151947	1	1	NaN	230	4	41	1	121	221	321	NaN	521	0.343052775599062	1	1	NaN	4472985.1001212	NaN	4472986.0835269	4472986.60007702
14	20	0	0	90	36.1581920903955	36.241610738255	20	0.666715519875288	2	9	2	NaN	2	3	0.0534935379151947	1	1	NaN	231	4	42	1	121	221	321	NaN	521	2.41296851821244	2	1	NaN	4472987.7503927	NaN	4472988.7337817	4472989.25033138
14	20	0	0	90	36.1581920903955	36.241610738255	16	0.53337241590023	2	1	5	NaN	1	5	0.0534935379151947	1	1	NaN	232	4	43	1	121	221	321	NaN	521	0.327820926904678	2	0	NaN	4472992.4673994	NaN	4472993.4509533	4472993.96746407
14	20	0	0	90	36.1581920903955	36.241610738255	15	0.500036639906466	2	10	4	NaN	2	4	0.0534935379151947	1	1	NaN	233	4	44	1	121	221	321	NaN	521	1.00618557631969	2	1	NaN	4472995.100986	NaN	4472996.0845105	4472996.60105802
14	20	0	0	90	36.1581920903955	36.241610738255	20	0.666715519875288	2	6	1	NaN	1	5	0.0534935379151947	1	1	NaN	234	4	45	1	121	221	321	NaN	521	0.392825818620622	1	1	NaN	4472998.4180981	NaN	4472999.4015019	4472999.91803748
14	20	0	0	90	36.1581920903955	36.241610738255	22	0.733387071862817	2	8	5	NaN	2	3	0.0534935379151947	1	1	NaN	235	4	46	1	121	221	321	NaN	521	0.508390170522034	2	1	NaN	4473001.1350587	NaN	4473002.1184497	4473002.63497623
14	20	0	0	90	36.1581920903955	36.241610738255	16	0.53337241590023	2	11	2	NaN	2	3	0.0534935379151947	1	1	NaN	236	4	47	1	121	221	321	NaN	521	0.979223918169737	2	1	NaN	4473003.9519745	NaN	4473004.9353785	4473005.45193048
14	20	0	0	90	36.1581920903955	36.241610738255	8	0.266686207950115	2	7	2	NaN	2	5	0.0534935379151947	1	1	NaN	237	4	48	1	121	221	321	NaN	521	0.335089570842683	2	1	NaN	4473007.2522911	NaN	4473008.2356938	4473008.75224793
14	20	0	0	90	36.1581920903955	36.241610738255	11	0.366693535931408	2	9	5	NaN	2	4	0.0534935379151947	1	1	NaN	238	4	49	1	121	221	321	NaN	521	0.324715975672007	2	1	NaN	4473009.9025456	NaN	4473010.8859953	4473011.40250762
14	20	0	0	90	36.1581920903955	36.241610738255	8	0.266686207950115	2	5	2	NaN	1	4	0.0534935379151947	1	1	NaN	239	4	50	1	121	221	321	NaN	521	0.363138070330024	1	1	NaN	4473012.5361481	NaN	4473013.5195475	4473014.03609413
14	20	0	0	90	36.1581920903955	36.241610738255	23	0.766722847856581	2	7	5	NaN	2	3	0.0534935379151947	1	1	NaN	240	4	51	1	121	221	321	NaN	521	0.27237509470433	2	1	NaN	4473015.2029614	NaN	4473016.1864931	4473016.7030311
14	20	0	0	90	36.1581920903955	36.241610738255	10	0.333357759937644	2	11	4	NaN	2	4	0.0534935379151947	1	1	NaN	241	4	52	1	121	221	321	NaN	521	1.36052769050002	1	0	NaN	4473017.7866648	NaN	4473018.7700481	4473019.28661401
14	20	0	0	90	36.1581920903955	36.241610738255	25	0.83339439984411	2	3	1	NaN	1	4	0.0534935379151947	1	1	NaN	242	4	53	1	121	221	321	NaN	521	0.117431270889938	1	1	NaN	4473021.4536824	NaN	4473022.437094	4473022.95363693
14	20	0	0	90	36.1581920903955	36.241610738255	24	0.800058623850346	2	9	3	NaN	2	4	0.0534935379151947	1	1	NaN	243	4	54	1	121	221	321	NaN	521	0.0919187217950821	2	1	NaN	4473023.8872679	NaN	4473024.8706542	4473025.38721348
14	20	0	0	90	36.1581920903955	36.241610738255	15	0.500036639906466	2	7	2	NaN	2	4	0.0534935379151947	1	1	NaN	244	4	55	1	121	221	321	NaN	521	0.308078123256564	2	1	NaN	4473026.2875315	NaN	4473027.2708874	4473027.78745618
14	20	0	0	90	36.1581920903955	36.241610738255	25	0.83339439984411	2	7	6	NaN	2	4	0.0534935379151947	1	1	NaN	245	4	56	1	121	221	321	NaN	521	0.690851771272719	1	0	NaN	4473028.9044374	NaN	4473029.8878248	4473030.40436583
14	20	0	0	90	36.1581920903955	36.241610738255	7	0.233350431956351	2	11	6	NaN	2	4	0.0534935379151947	1	1	NaN	246	4	57	1	121	221	321	NaN	521	1.15468456968665	2	1	NaN	4473031.9047156	NaN	4473032.8881201	4473033.40468123
14	20	0	0	90	36.1581920903955	36.241610738255	23	0.766722847856581	2	9	2	NaN	2	5	0.0534935379151947	1	1	NaN	247	4	58	1	121	221	321	NaN	521	0.423412242904305	2	1	NaN	4473035.3717364	NaN	4473036.3551271	4473036.87167436
14	20	0	0	90	36.1581920903955	36.241610738255	11	0.366693535931408	2	10	1	NaN	2	5	0.0534935379151947	1	1	NaN	248	4	59	1	121	221	321	NaN	521	0.474201071076095	2	1	NaN	4473038.1053195	NaN	4473039.0887225	4473039.60527453
14	20	0	0	90	36.1581920903955	36.241610738255	12	0.400029311925173	2	4	5	NaN	1	3	0.0534935379151947	1	1	NaN	249	4	60	1	121	221	321	NaN	521	0.72254156973213	1	1	NaN	4473040.8889345	NaN	4473041.8723282	4473042.38888013
14	20	0	0	90	36.1581920903955	36.241610738255	13	0.433365087918937	2	8	4	NaN	2	4	0.0534935379151947	1	1	NaN	250	4	61	1	121	221	321	NaN	521	0.592885070480406	2	1	NaN	4473043.92256	NaN	4473044.9059667	4473045.42250993
14	20	0	0	90	36.1581920903955	36.241610738255	18	0.600043967887759	2	7	1	NaN	2	3	0.0534935379151947	1	1	NaN	251	4	62	1	121	221	321	NaN	521	0.444326742552221	2	1	NaN	4473046.8228616	NaN	4473047.8062471	4473048.32280896
14	20	0	0	90	36.1581920903955	36.241610738255	8	0.266686207950115	2	12	1	NaN	2	4	0.0534935379151947	1	1	NaN	252	4	63	1	121	221	321	NaN	521	0.342137822881341	1	0	NaN	4473049.5731515	NaN	4473050.5565426	4473051.07307038
14	20	0	0	90	36.1581920903955	36.241610738255	14	0.466700863912702	2	1	5	NaN	1	5	0.0534935379151947	1	1	NaN	253	5	1	1	121	221	321	NaN	521	0.362625970505178	1	1	NaN	4473063.8245253	NaN	4473064.8079223	4473065.32446133
14	20	0	0	90	36.1581920903955	36.241610738255	16	0.53337241590023	2	3	3	NaN	1	5	0.0534935379151947	1	1	NaN	254	5	2	1	121	221	321	NaN	521	0.647720670327544	1	1	NaN	4473066.4914601	NaN	4473067.4748385	4473067.99139683
14	20	0	0	90	36.1581920903955	36.241610738255	21	0.700051295869052	2	6	5	NaN	1	5	0.0534935379151947	1	1	NaN	255	5	3	1	121	221	321	NaN	521	0.440967418253422	1	1	NaN	4473069.4582869	NaN	4473070.4418095	4473070.95835398
14	20	0	0	90	36.1581920903955	36.241610738255	12	0.400029311925173	2	6	3	NaN	1	3	0.0534935379151947	1	1	NaN	256	5	4	1	121	221	321	NaN	521	0.673221670091152	1	1	NaN	4473072.6420695	NaN	4473073.6254399	4473074.14200303
14	20	0	0	90	36.1581920903955	36.241610738255	19	0.633379743881524	2	9	1	NaN	2	4	0.0534935379151947	1	1	NaN	257	5	5	1	121	221	321	NaN	521	3.69785909447819	2	1	NaN	4473075.6256631	NaN	4473076.6090732	4473077.12563801
14	20	0	0	90	36.1581920903955	36.241610738255	24	0.800058623850346	2	3	5	NaN	1	5	0.0534935379151947	1	1	NaN	258	5	6	1	121	221	321	NaN	521	0.424294118769467	1	1	NaN	4473081.6429331	NaN	4473082.6263281	4473083.14287978
14	20	0	0	90	36.1581920903955	36.241610738255	16	0.53337241590023	2	7	1	NaN	2	4	0.0534935379151947	1	1	NaN	259	5	7	1	121	221	321	NaN	521	0.402575323358178	1	0	NaN	4473084.3765442	NaN	4473085.3599227	4473085.87648288
14	20	0	0	90	36.1581920903955	36.241610738255	16	0.53337241590023	2	4	5	NaN	1	3	0.0534935379151947	1	1	NaN	260	5	8	1	121	221	321	NaN	521	0.557728470303118	1	1	NaN	4473087.0934729	NaN	4473088.076875	4473088.59341743
14	20	0	0	90	36.1581920903955	36.241610738255	7	0.233350431956351	2	2	6	NaN	1	4	0.0534935379151947	1	1	NaN	261	5	9	1	121	221	321	NaN	521	0.378684623166919	1	1	NaN	4473089.9604284	NaN	4473090.9438037	4473091.46036808
14	20	0	0	90	36.1581920903955	36.241610738255	9	0.30002198394388	2	7	2	NaN	2	3	0.0534935379151947	1	1	NaN	262	5	10	1	121	221	321	NaN	521	0.401549418456852	2	1	NaN	4473092.7939291	NaN	4473093.7774279	4473094.29397528
14	20	0	0	90	36.1581920903955	36.241610738255	21	0.700051295869052	2	5	3	NaN	1	3	0.0534935379151947	1	1	NaN	263	5	11	1	121	221	321	NaN	521	0.484586570411921	1	1	NaN	4473095.5109647	NaN	4473096.4943796	4473097.01091143
14	20	0	0	90	36.1581920903955	36.241610738255	19	0.633379743881524	2	11	2	NaN	2	3	0.0534935379151947	1	1	NaN	264	5	12	1	121	221	321	NaN	521	0.524444170296192	2	1	NaN	4473098.3112075	NaN	4473099.2946383	4473099.81118393
14	20	0	0	90	36.1581920903955	36.241610738255	14	0.466700863912702	2	6	3	NaN	1	5	0.0534935379151947	1	1	NaN	265	5	13	1	121	221	321	NaN	521	0.474563922733068	1	1	NaN	4473101.1448486	NaN	4473102.128244	4473102.64480628
14	20	0	0	90	36.1581920903955	36.241610738255	25	0.83339439984411	2	9	4	NaN	2	3	0.0534935379151947	1	1	NaN	266	5	14	1	121	221	321	NaN	521	0.0429779225960374	2	1	NaN	4473103.9284665	NaN	4473104.9119144	4473105.42840578
14	20	0	0	90	36.1581920903955	36.241610738255	16	0.53337241590023	2	4	3	NaN	1	5	0.0534935379151947	1	1	NaN	267	5	15	1	121	221	321	NaN	521	1.1643884703517	1	1	NaN	4473106.278626	NaN	4473107.2620949	4473107.77863583
14	20	0	0	90	36.1581920903955	36.241610738255	12	0.400029311925173	2	2	4	NaN	1	4	0.0534935379151947	1	1	NaN	268	5	16	1	121	221	321	NaN	521	0.392808380536735	1	1	NaN	4473109.7623116	NaN	4473110.7457613	4473111.26230842
14	20	0	0	90	36.1581920903955	36.241610738255	12	0.400029311925173	2	11	5	NaN	2	5	0.0534935379151947	1	1	NaN	269	5	17	1	121	221	321	NaN	521	2.2449260186404	2	1	NaN	4473112.4625833	NaN	4473113.4460304	4473113.96257648
14	20	0	0	90	36.1581920903955	36.241610738255	16	0.53337241590023	2	3	5	NaN	1	3	0.0534935379151947	1	1	NaN	270	5	18	1	121	221	321	NaN	521	0.405340822413564	1	1	NaN	4473117.0297492	NaN	4473118.0131668	4473118.52969708
14	20	0	0	90	36.1581920903955	36.241610738255	10	0.333357759937644	2	7	3	NaN	2	4	0.0534935379151947	1	1	NaN	271	5	19	1	121	221	321	NaN	521	0.44088932313025	2	1	NaN	4473119.7465481	NaN	4473120.7300779	4473121.24663198
14	20	0	0	90	36.1581920903955	36.241610738255	17	0.566708191893995	2	10	4	NaN	2	3	0.0534935379151947	1	1	NaN	272	5	20	1	121	221	321	NaN	521	1.21827377099544	2	1	NaN	4473122.4969498	NaN	4473123.4803462	4473123.99689713
14	20	0	0	90	36.1581920903955	36.241610738255	12	0.400029311925173	2	7	6	NaN	2	4	0.0534935379151947	1	1	NaN	273	5	21	1	121	221	321	NaN	521	0.700634770095348	2	1	NaN	4473126.0306317	NaN	4473127.0140328	4473127.53057463
14	20	0	0	90	36.1581920903955	36.241610738255	16	0.53337241590023	2	1	2	NaN	1	4	0.0534935379151947	1	1	NaN	274	5	22	1	121	221	321	NaN	521	1.59608512278646	1	1	NaN	4473129.0475935	NaN	4473130.0309875	4473130.54753768
14	20	0	0	90	36.1581920903955	36.241610738255	22	0.733387071862817	2	9	6	NaN	2	4	0.0534935379151947	1	1	NaN	275	5	23	1	121	221	321	NaN	521	0.431293622590601	2	1	NaN	4473132.9479841	NaN	4473133.9313773	4473134.44791978
14	20	0	0	90	36.1581920903955	36.241610738255	12	0.400029311925173	2	1	1	NaN	1	5	0.0534935379151947	1	1	NaN	276	5	24	1	121	221	321	NaN	521	0.265398422256112	1	1	NaN	4473135.6981054	NaN	4473136.6816443	4473137.19819848
14	20	0	0	90	36.1581920903955	36.241610738255	17	0.566708191893995	2	12	3	NaN	2	4	0.0534935379151947	1	1	NaN	277	5	25	1	121	221	321	NaN	521	2.21009091846645	2	1	NaN	4473138.2651705	NaN	4473139.2485648	4473139.76510458
14	20	0	0	90	36.1581920903955	36.241610738255	7	0.233350431956351	2	12	1	NaN	2	4	0.0534935379151947	1	1	NaN	278	5	26	1	121	221	321	NaN	521	0.413120670244098	2	1	NaN	4473142.7823439	NaN	4473143.7656695	4473144.28221613
14	20	0	0	90	36.1581920903955	36.241610738255	18	0.600043967887759	2	12	4	NaN	2	3	0.0534935379151947	1	1	NaN	279	5	27	1	121	221	321	NaN	521	0.688229169696569	2	1	NaN	4473145.4992178	NaN	4473146.4825878	4473146.99914883
14	20	0	0	90	36.1581920903955	36.241610738255	17	0.566708191893995	2	6	1	NaN	1	5	0.0534935379151947	1	1	NaN	280	5	28	1	121	221	321	NaN	521	0.343948421999812	1	1	NaN	4473148.4995112	NaN	4473149.4829195	4473149.99944888
14	20	0	0	90	36.1581920903955	36.241610738255	8	0.266686207950115	2	2	2	NaN	1	4	0.0534935379151947	1	1	NaN	281	5	29	1	121	221	321	NaN	521	0.29336807038635	1	1	NaN	4473151.1497617	NaN	4473152.133167	4473152.64970953
14	20	0	0	90	36.1581920903955	36.241610738255	23	0.766722847856581	2	6	3	NaN	1	3	0.0534935379151947	1	1	NaN	282	5	30	1	121	221	321	NaN	521	0.468760622665286	1	1	NaN	4473153.7666113	NaN	4473154.75008	4473155.26663448
14	20	0	0	90	36.1581920903955	36.241610738255	7	0.233350431956351	2	7	4	NaN	2	3	0.0534935379151947	1	1	NaN	283	5	31	1	121	221	321	NaN	521	0.372922769747674	2	1	NaN	4473156.5502977	NaN	4473157.5336937	4473158.05024233
14	20	0	0	90	36.1581920903955	36.241610738255	13	0.433365087918937	2	5	5	NaN	1	5	0.0534935379151947	1	1	NaN	284	5	32	1	121	221	321	NaN	521	0.361408275552094	1	1	NaN	4473159.2338046	NaN	4473160.2172827	4473160.73384432
14	20	0	0	90	36.1581920903955	36.241610738255	11	0.366693535931408	2	9	3	NaN	2	5	0.0534935379151947	1	1	NaN	285	5	33	1	121	221	321	NaN	521	0.510424518957734	1	0	NaN	4473161.9008948	NaN	4473162.8842051	4473163.40075988
14	20	0	0	90	36.1581920903955	36.241610738255	23	0.766722847856581	2	1	6	NaN	1	3	0.0534935379151947	1	1	NaN	286	5	34	1	121	221	321	NaN	521	0.3929149704054	1	1	NaN	4473165.0344334	NaN	4473166.0178959	4473166.53441113
14	20	0	0	90	36.1581920903955	36.241610738255	14	0.466700863912702	2	5	3	NaN	1	4	0.0534935379151947	1	1	NaN	287	5	35	1	121	221	321	NaN	521	0.37294827029109	1	1	NaN	4473167.7347257	NaN	4473168.7181229	4473169.23467343
14	20	0	0	90	36.1581920903955	36.241610738255	25	0.83339439984411	2	12	1	NaN	2	3	0.0534935379151947	1	1	NaN	288	5	36	1	121	221	321	NaN	521	0.257026017643511	2	1	NaN	4473170.4183288	NaN	4473171.4017158	4473171.91827068
14	20	0	0	90	36.1581920903955	36.241610738255	10	0.333357759937644	2	6	2	NaN	1	4	0.0534935379151947	1	1	NaN	289	5	37	1	121	221	321	NaN	521	0.426056970842183	1	1	NaN	4473172.9852486	NaN	4473173.9686189	4473174.48518873
14	20	0	0	90	36.1581920903955	36.241610738255	24	0.800058623850346	2	5	6	NaN	1	4	0.0534935379151947	1	1	NaN	290	5	38	1	121	221	321	NaN	521	0.0104068703949451	1	1	NaN	4473175.7188619	NaN	4473176.7022348	4473177.21880133
14	20	0	0	90	36.1581920903955	36.241610738255	0	0	1	3	3	NaN	1	3	0.0534935379151947	1	1	NaN	291	5	39	1	111	211	311	NaN	511	0.2397744897753	1	1	NaN	4473178.0357646	NaN	4473179.019196	4473179.53569661
14	20	0	0	90	36.1581920903955	36.241610738255	17	0.566708191893995	2	4	4	NaN	1	3	0.0534935379151947	1	1	NaN	292	5	40	1	121	221	321	NaN	521	0.521693822927773	1	1	NaN	4473180.5859819	NaN	4473181.5693683	4473182.08593518
14	20	0	0	90	36.1581920903955	36.241610738255	25	0.83339439984411	2	2	2	NaN	1	5	0.0534935379151947	1	1	NaN	293	5	41	1	121	221	321	NaN	521	0.407626271247864	1	1	NaN	4473183.4196416	NaN	4473184.4030608	4473184.91955013
14	20	0	0	90	36.1581920903955	36.241610738255	14	0.466700863912702	2	12	3	NaN	2	4	0.0534935379151947	1	1	NaN	294	5	42	1	121	221	321	NaN	521	1.60290711838752	2	1	NaN	4473186.1365315	NaN	4473187.1199254	4473187.63648138
14	20	0	0	90	36.1581920903955	36.241610738255	0	0	1	9	6	NaN	2	4	0.0534935379151947	1	1	NaN	295	5	43	1	111	211	311	NaN	511	0.318069170229137	2	1	NaN	4473190.0535564	NaN	4473191.0369678	4473191.55352843
14	20	0	0	90	36.1581920903955	36.241610738255	14	0.466700863912702	2	1	3	NaN	1	5	0.0534935379151947	1	1	NaN	296	5	44	1	121	221	321	NaN	521	0.332255170680583	1	1	NaN	4473192.6870598	NaN	4473193.6706477	4473194.18712703
14	20	0	0	90	36.1581920903955	36.241610738255	25	0.83339439984411	2	10	3	NaN	2	4	0.0534935379151947	1	1	NaN	297	5	45	1	121	221	321	NaN	521	0.838735870085657	2	1	NaN	4473195.4207495	NaN	4473196.4041831	4473196.92072393
14	20	0	0	90	36.1581920903955	36.241610738255	22	0.733387071862817	2	7	5	NaN	2	5	0.0534935379151947	1	1	NaN	298	5	46	1	121	221	321	NaN	521	1.62426531780511	2	1	NaN	4473198.5710898	NaN	4473199.5545858	4473200.07102778
14	20	0	0	90	36.1581920903955	36.241610738255	11	0.366693535931408	2	10	1	NaN	2	3	0.0534935379151947	1	1	NaN	299	5	47	1	121	221	321	NaN	521	0.43484196998179	1	0	NaN	4473202.5048178	NaN	4473203.4881926	4473204.00475143
14	20	0	0	90	36.1581920903955	36.241610738255	9	0.30002198394388	2	5	6	NaN	1	3	0.0534935379151947	1	1	NaN	300	5	48	1	121	221	321	NaN	521	0.492496917955577	1	1	NaN	4473205.2550808	NaN	4473206.2385402	4473206.75501958
14	20	0	0	90	36.1581920903955	36.241610738255	16	0.53337241590023	2	8	5	NaN	2	5	0.0534935379151947	1	1	NaN	301	5	49	1	121	221	321	NaN	521	0.531392870470881	2	1	NaN	4473208.0720364	NaN	4473209.0554191	4473209.57196743
14	20	0	0	90	36.1581920903955	36.241610738255	20	0.666715519875288	2	7	3	NaN	2	3	0.0534935379151947	1	1	NaN	302	5	50	1	121	221	321	NaN	521	0.721028123050928	2	1	NaN	4473210.9223049	NaN	4473211.9056873	4473212.42224928
14	20	0	0	90	36.1581920903955	36.241610738255	18	0.600043967887759	2	3	2	NaN	1	3	0.0534935379151947	1	1	NaN	303	5	51	1	121	221	321	NaN	521	0.975699669681489	1	1	NaN	4473213.9559357	NaN	4473214.9393222	4473215.45587713
14	20	0	0	90	36.1581920903955	36.241610738255	20	0.666715519875288	2	2	3	NaN	1	5	0.0534935379151947	1	1	NaN	304	5	52	1	121	221	321	NaN	521	1.9561382709071	1	1	NaN	4473217.2395664	NaN	4473218.2229832	4473218.73953313
14	20	0	0	90	36.1581920903955	36.241610738255	15	0.500036639906466	2	6	6	NaN	1	5	0.0534935379151947	1	1	NaN	305	5	53	1	121	221	321	NaN	521	0.408712975680828	1	1	NaN	4473221.5066762	NaN	4473222.4900715	4473223.00662282
14	20	0	0	90	36.1581920903955	36.241610738255	8	0.266686207950115	2	11	4	NaN	2	5	0.0534935379151947	1	1	NaN	306	5	54	1	121	221	321	NaN	521	0.540084612555802	2	1	NaN	4473224.2236235	NaN	4473225.2069974	4473225.72355459
14	20	0	0	90	36.1581920903955	36.241610738255	16	0.53337241590023	2	10	4	NaN	2	4	0.0534935379151947	1	1	NaN	307	5	55	1	121	221	321	NaN	521	0.329588670283556	2	1	NaN	4473227.0738861	NaN	4473228.0572851	4473228.57383523
14	20	0	0	90	36.1581920903955	36.241610738255	8	0.266686207950115	2	10	5	NaN	2	3	0.0534935379151947	1	1	NaN	308	5	56	1	121	221	321	NaN	521	0.383137076161802	2	1	NaN	4473229.7241505	NaN	4473230.7075351	4473231.22410152
14	20	0	0	90	36.1581920903955	36.241610738255	9	0.30002198394388	2	9	5	NaN	2	5	0.0534935379151947	1	1	NaN	309	5	57	1	121	221	321	NaN	521	0.282800017856061	2	1	NaN	4473232.4243939	NaN	4473233.4078163	4473233.92437038
14	20	0	0	90	36.1581920903955	36.241610738255	12	0.400029311925173	2	12	4	NaN	2	3	0.0534935379151947	1	1	NaN	310	5	58	1	121	221	321	NaN	521	0.963081570342183	1	0	NaN	4473235.0246739	NaN	4473236.0080889	4473236.52461233
14	20	0	0	90	36.1581920903955	36.241610738255	21	0.700051295869052	2	2	1	NaN	1	4	0.0534935379151947	1	1	NaN	311	5	59	1	121	221	321	NaN	521	0.319335469976068	1	1	NaN	4473238.3083225	NaN	4473239.2917313	4473239.80827053
14	20	0	0	90	36.1581920903955	36.241610738255	13	0.433365087918937	2	2	4	NaN	1	4	0.0534935379151947	1	1	NaN	312	5	60	1	121	221	321	NaN	521	0.333631864748895	1	1	NaN	4473240.9419151	NaN	4473241.9253002	4473242.44185873
14	20	0	0	90	36.1581920903955	36.241610738255	22	0.733387071862817	2	6	5	NaN	1	4	0.0534935379151947	1	1	NaN	313	5	61	1	121	221	321	NaN	521	0.387328818440437	1	1	NaN	4473243.5920495	NaN	4473244.5755788	4473245.09213938
14	20	0	0	90	36.1581920903955	36.241610738255	13	0.433365087918937	2	7	6	NaN	2	3	0.0534935379151947	1	1	NaN	314	5	62	1	121	221	321	NaN	521	0.519181165844202	2	1	NaN	4473246.2924291	NaN	4473247.2758544	4473247.79238073
14	20	0	0	90	36.1581920903955	36.241610738255	21	0.700051295869052	2	12	1	NaN	2	5	0.0534935379151947	1	1	NaN	315	5	63	1	121	221	321	NaN	521	0.301417970098555	2	1	NaN	4473249.1260635	NaN	4473250.109453	4473250.62599683
14	20	0	0	90	36.1581920903955	36.241610738255	10	0.333357759937644	2	6	1	NaN	1	4	0.0534935379151947	1	1	NaN	316	6	1	1	121	221	321	NaN	521	0.468816670589149	1	1	NaN	4473263.5108587	NaN	4473264.4941938	4473265.01074533
14	20	0	0	90	36.1581920903955	36.241610738255	12	0.400029311925173	2	5	2	NaN	1	3	0.0534935379151947	1	1	NaN	317	6	2	1	121	221	321	NaN	521	0.356286870315671	1	1	NaN	4473266.3110589	NaN	4473267.2944623	4473267.81102103
14	20	0	0	90	36.1581920903955	36.241610738255	0	0	1	1	5	NaN	1	3	0.0534935379151947	1	1	NaN	318	6	3	1	111	211	311	NaN	511	0.0975896706804633	2	0	NaN	4473268.9779965	NaN	4473269.9614035	4473270.47795253
14	20	0	0	90	36.1581920903955	36.241610738255	15	0.500036639906466	2	3	4	NaN	1	4	0.0534935379151947	1	1	NaN	319	6	4	1	121	221	321	NaN	521	0.304692817851901	1	1	NaN	4473271.3948798	NaN	4473272.3783059	4473272.89484438
14	20	0	0	90	36.1581920903955	36.241610738255	13	0.433365087918937	2	5	5	NaN	1	3	0.0534935379151947	1	1	NaN	320	6	5	1	121	221	321	NaN	521	0.327973818406463	1	1	NaN	4473274.0118284	NaN	4473274.9952349	4473275.51176798
14	20	0	0	90	36.1581920903955	36.241610738255	15	0.500036639906466	2	6	2	NaN	1	3	0.0534935379151947	1	1	NaN	321	6	6	1	121	221	321	NaN	521	0.293354422785342	1	1	NaN	4473276.6620109	NaN	4473277.6454798	4473278.16203448
14	20	0	0	90	36.1581920903955	36.241610738255	21	0.700051295869052	2	3	4	NaN	1	4	0.0534935379151947	1	1	NaN	322	6	7	1	121	221	321	NaN	521	0.485320590436459	1	1	NaN	4473279.262345	NaN	4473280.245742	4473280.76228931
14	20	0	0	90	36.1581920903955	36.241610738255	23	0.766722847856581	2	4	5	NaN	1	4	0.0534935379151947	1	1	NaN	323	6	8	1	121	221	321	NaN	521	0.324847523123026	1	1	NaN	4473282.0626127	NaN	4473283.0460146	4473283.56256668
14	20	0	0	90	36.1581920903955	36.241610738255	23	0.766722847856581	2	2	5	NaN	1	3	0.0534935379151947	1	1	NaN	324	6	9	1	121	221	321	NaN	521	0.259159570559859	1	1	NaN	4473284.6962083	NaN	4473285.6796122	4473286.19615793
14	20	0	0	90	36.1581920903955	36.241610738255	6	0.200014655962586	2	4	2	NaN	1	4	0.0534935379151947	1	1	NaN	325	6	10	1	121	221	321	NaN	521	0.372590132988989	1	1	NaN	4473287.2630035	NaN	4473288.246523	4473288.76308617
14	20	0	0	90	36.1581920903955	36.241610738255	14	0.466700863912702	2	7	4	NaN	2	5	0.0534935379151947	1	1	NaN	326	6	11	1	121	221	321	NaN	521	0.19314132258296	2	1	NaN	4473289.9466213	NaN	4473290.9301351	4473291.44667948
14	20	0	0	90	36.1581920903955	36.241610738255	8	0.266686207950115	2	4	3	NaN	1	4	0.0534935379151947	1	1	NaN	327	6	12	1	121	221	321	NaN	521	0.468566718511283	2	0	NaN	4473292.4469879	NaN	4473293.4304648	4473293.94693818
14	20	0	0	90	36.1581920903955	36.241610738255	11	0.366693535931408	2	5	5	NaN	1	3	0.0534935379151947	1	1	NaN	328	6	13	1	121	221	321	NaN	521	0.0103547424077988	1	1	NaN	4473295.2305604	NaN	4473296.2140136	4473296.73054926
14	20	0	0	90	36.1581920903955	36.241610738255	15	0.500036639906466	2	5	4	NaN	1	5	0.0534935379151947	1	1	NaN	329	6	14	1	121	221	321	NaN	521	0.343258561566472	1	1	NaN	4473297.5641454	NaN	4473298.5475406	4473299.06408304
14	20	0	0	90	36.1581920903955	36.241610738255	25	0.83339439984411	2	11	4	NaN	2	4	0.0534935379151947	1	1	NaN	330	6	15	1	121	221	321	NaN	521	0.580694770440459	2	1	NaN	4473300.2310781	NaN	4473301.2144742	4473301.73101083
14	20	0	0	90	36.1581920903955	36.241610738255	6	0.200014655962586	2	6	4	NaN	1	5	0.0534935379151947	1	1	NaN	331	6	16	1	121	221	321	NaN	521	0.624105470255017	1	1	NaN	4473303.1313848	NaN	4473304.1147539	4473304.63129733
14	20	0	0	90	36.1581920903955	36.241610738255	22	0.733387071862817	2	10	4	NaN	2	3	0.0534935379151947	1	1	NaN	332	6	17	1	121	221	321	NaN	521	0.954623769968748	1	0	NaN	4473306.0650478	NaN	4473307.0483653	4473307.56491653
14	20	0	0	90	36.1581920903955	36.241610738255	7	0.233350431956351	2	7	6	NaN	2	3	0.0534935379151947	1	1	NaN	333	6	18	1	121	221	321	NaN	521	0.0636042701080441	2	1	NaN	4473309.3319649	NaN	4473310.315359	4473310.83190613
14	20	0	0	90	36.1581920903955	36.241610738255	11	0.366693535931408	2	6	1	NaN	1	4	0.0534935379151947	1	1	NaN	334	6	19	1	121	221	321	NaN	521	0.464341818355024	1	1	NaN	4473311.715399	NaN	4473312.6989275	4473313.21547058
14	20	0	0	90	36.1581920903955	36.241610738255	12	0.400029311925173	2	9	4	NaN	2	3	0.0534935379151947	1	1	NaN	335	6	20	1	121	221	321	NaN	521	3.35241361800581	2	1	NaN	4473314.499154	NaN	4473315.4825423	4473315.99908658
14	20	0	0	90	36.1581920903955	36.241610738255	24	0.800058623850346	2	11	1	NaN	2	4	0.0534935379151947	1	1	NaN	336	6	21	1	121	221	321	NaN	521	0.709284822456539	2	1	NaN	4473320.1663721	NaN	4473321.1497767	4473321.66631258
14	20	0	0	90	36.1581920903955	36.241610738255	11	0.366693535931408	2	2	3	NaN	1	4	0.0534935379151947	1	1	NaN	337	6	22	1	121	221	321	NaN	521	0.652511570602655	1	1	NaN	4473323.1833295	NaN	4473324.1667516	4473324.68327783
14	20	0	0	90	36.1581920903955	36.241610738255	14	0.466700863912702	2	8	2	NaN	2	4	0.0534935379151947	1	1	NaN	338	6	23	1	121	221	321	NaN	521	0.381282621994615	2	1	NaN	4473326.1502834	NaN	4473327.1336581	4473327.65023018
14	20	0	0	90	36.1581920903955	36.241610738255	21	0.700051295869052	2	11	5	NaN	2	3	0.0534935379151947	1	1	NaN	339	6	24	1	121	221	321	NaN	521	0.312952122651041	2	1	NaN	4473328.8505616	NaN	4473329.8339421	4473330.35049518
14	20	0	0	90	36.1581920903955	36.241610738255	17	0.566708191893995	2	9	1	NaN	2	5	0.0534935379151947	1	1	NaN	340	6	25	1	121	221	321	NaN	521	0.439863170497119	2	1	NaN	4473331.4673394	NaN	4473332.4508695	4473332.96742193
14	20	0	0	90	36.1581920903955	36.241610738255	21	0.700051295869052	2	3	5	NaN	1	5	0.0534935379151947	1	1	NaN	341	6	26	1	121	221	321	NaN	521	0.273831022903323	1	1	NaN	4473334.2177605	NaN	4473335.2011353	4473335.71769258
14	20	0	0	90	36.1581920903955	36.241610738255	19	0.633379743881524	2	10	2	NaN	2	3	0.0534935379151947	1	1	NaN	342	6	27	1	121	221	321	NaN	521	0.618249669671059	2	1	NaN	4473336.8013417	NaN	4473337.7847313	4473338.30126963
14	20	0	0	90	36.1581920903955	36.241610738255	24	0.800058623850346	2	8	4	NaN	2	4	0.0534935379151947	1	1	NaN	343	6	28	1	121	221	321	NaN	521	0.564918970689178	2	1	NaN	4473339.7349593	NaN	4473340.7183446	4473341.23490233
14	20	0	0	90	36.1581920903955	36.241610738255	10	0.333357759937644	2	9	1	NaN	2	4	0.0534935379151947	1	1	NaN	344	6	29	1	121	221	321	NaN	521	0.345223770476878	2	1	NaN	4473342.6185854	NaN	4473343.6019972	4473344.11851393
14	20	0	0	90	36.1581920903955	36.241610738255	7	0.233350431956351	2	8	3	NaN	2	4	0.0534935379151947	1	1	NaN	345	6	30	1	121	221	321	NaN	521	0.246169618330896	2	1	NaN	4473345.2855383	NaN	4473346.2688852	4473346.78544238
14	20	0	0	90	36.1581920903955	36.241610738255	22	0.733387071862817	2	4	2	NaN	1	3	0.0534935379151947	1	1	NaN	346	6	31	1	121	221	321	NaN	521	2.25546677038074	1	1	NaN	4473347.8523986	NaN	4473348.8358216	4473349.35236163
14	20	0	0	90	36.1581920903955	36.241610738255	12	0.400029311925173	2	2	6	NaN	1	3	0.0534935379151947	1	1	NaN	347	6	32	1	121	221	321	NaN	521	0.336377917788923	1	1	NaN	4473352.4195398	NaN	4473353.4029678	4473353.91947518
14	20	0	0	90	36.1581920903955	36.241610738255	25	0.83339439984411	2	7	1	NaN	2	3	0.0534935379151947	1	1	NaN	348	6	33	1	121	221	321	NaN	521	0.221893169917166	2	1	NaN	4473355.069762	NaN	4473356.0531631	4473356.56973203
14	20	0	0	90	36.1581920903955	36.241610738255	18	0.600043967887759	2	8	5	NaN	2	4	0.0534935379151947	1	1	NaN	349	6	34	1	121	221	321	NaN	521	0.256369770504534	2	1	NaN	4473357.603503	NaN	4473358.5867651	4473359.10331543
14	20	0	0	90	36.1581920903955	36.241610738255	22	0.733387071862817	2	10	3	NaN	2	3	0.0534935379151947	1	1	NaN	350	6	35	1	121	221	321	NaN	521	0.289671503007412	1	0	NaN	4473360.1701547	NaN	4473361.1536654	4473361.670231
14	20	0	0	90	36.1581920903955	36.241610738255	7	0.233350431956351	2	8	1	NaN	2	3	0.0534935379151947	1	1	NaN	351	6	36	1	121	221	321	NaN	521	0.344832570292056	2	1	NaN	4473362.7705528	NaN	4473363.7539267	4473364.27049673
14	20	0	0	90	36.1581920903955	36.241610738255	7	0.233350431956351	2	5	3	NaN	1	4	0.0534935379151947	1	1	NaN	352	6	37	1	121	221	321	NaN	521	0.318371322005987	1	1	NaN	4473365.4373541	NaN	4473366.4208706	4473366.93742698
14	20	0	0	90	36.1581920903955	36.241610738255	21	0.700051295869052	2	2	4	NaN	1	5	0.0534935379151947	1	1	NaN	353	6	38	1	121	221	321	NaN	521	0.348565369844437	1	1	NaN	4473368.0710773	NaN	4473369.0544639	4473369.57100653
14	20	0	0	90	36.1581920903955	36.241610738255	15	0.500036639906466	2	2	5	NaN	1	4	0.0534935379151947	1	1	NaN	354	6	39	1	121	221	321	NaN	521	0.385921870358288	1	1	NaN	4473370.7380222	NaN	4473371.7213895	4473372.23793933
14	20	0	0	90	36.1581920903955	36.241610738255	19	0.633379743881524	2	8	1	NaN	2	3	0.0534935379151947	1	1	NaN	355	6	40	1	121	221	321	NaN	521	0.333123665302992	2	1	NaN	4473373.4382697	NaN	4473374.4216608	4473374.93819883
14	20	0	0	90	36.1581920903955	36.241610738255	19	0.633379743881524	2	10	6	NaN	2	3	0.0534935379151947	1	1	NaN	356	6	41	1	121	221	321	NaN	521	0.403185722418129	2	1	NaN	4473376.0885087	NaN	4473377.0719178	4473377.58847078
14	20	0	0	90	36.1581920903955	36.241610738255	10	0.333357759937644	2	11	2	NaN	2	4	0.0534935379151947	1	1	NaN	357	6	42	1	121	221	321	NaN	521	0.0781803792342544	2	1	NaN	4473378.8054472	NaN	4473379.7888652	4473380.30539682
14	20	0	0	90	36.1581920903955	36.241610738255	21	0.700051295869052	2	10	1	NaN	2	5	0.0534935379151947	1	1	NaN	358	6	43	1	121	221	321	NaN	521	0.366978922858834	2	1	NaN	4473381.1890054	NaN	4473382.1724571	4473382.68897548
14	20	0	0	90	36.1581920903955	36.241610738255	0	0	1	12	4	NaN	2	3	0.0534935379151947	1	1	NaN	359	6	44	1	111	211	311	NaN	511	0.0104210702702403	2	1	NaN	4473383.872662	NaN	4473384.8560065	4473385.37256573
14	20	0	0	90	36.1581920903955	36.241610738255	12	0.400029311925173	2	10	1	NaN	2	4	0.0534935379151947	1	1	NaN	360	6	45	1	121	221	321	NaN	521	0.30216286983341	2	1	NaN	4473386.1895122	NaN	4473387.172909	4473387.68945763
14	20	0	0	90	36.1581920903955	36.241610738255	24	0.800058623850346	2	10	6	NaN	2	5	0.0534935379151947	1	1	NaN	361	6	46	1	121	221	321	NaN	521	0.405500123277307	2	1	NaN	4473388.8064723	NaN	4473389.7898289	4473390.30638338
14	20	0	0	90	36.1581920903955	36.241610738255	21	0.700051295869052	2	8	3	NaN	2	3	0.0534935379151947	1	1	NaN	362	6	47	1	121	221	321	NaN	521	1.27231937088072	1	0	NaN	4473391.5233821	NaN	4473392.5067477	4473393.02331443
14	20	0	0	90	36.1581920903955	36.241610738255	12	0.400029311925173	2	3	3	NaN	1	3	0.0534935379151947	1	1	NaN	363	6	48	1	121	221	321	NaN	521	0.400592370890081	1	1	NaN	4473395.1070524	NaN	4473396.0904684	4473396.60699633
14	20	0	0	90	36.1581920903955	36.241610738255	6	0.200014655962586	2	11	4	NaN	2	4	0.0534935379151947	1	1	NaN	364	6	49	1	121	221	321	NaN	521	0.484596090391278	1	0	NaN	4473397.8073102	NaN	4473398.790712	4473399.30726431
14	20	0	0	90	36.1581920903955	36.241610738255	8	0.266686207950115	2	2	2	NaN	1	5	0.0534935379151947	1	1	NaN	365	6	50	1	121	221	321	NaN	521	0.324137270450592	1	1	NaN	4473400.6076019	NaN	4473401.5909848	4473402.10753813
14	20	0	0	90	36.1581920903955	36.241610738255	17	0.566708191893995	2	1	5	NaN	1	4	0.0534935379151947	1	1	NaN	366	6	51	1	121	221	321	NaN	521	2.25848512258381	1	1	NaN	4473403.2411772	NaN	4473404.2245892	4473404.74114068
14	20	0	0	90	36.1581920903955	36.241610738255	9	0.30002198394388	2	3	3	NaN	1	4	0.0534935379151947	1	1	NaN	367	6	52	1	121	221	321	NaN	521	0.355408370494843	1	1	NaN	4473407.808308	NaN	4473408.7916914	4473409.30824763
14	20	0	0	90	36.1581920903955	36.241610738255	18	0.600043967887759	2	11	3	NaN	2	4	0.0534935379151947	1	1	NaN	368	6	53	1	121	221	321	NaN	521	0.952776670455933	2	1	NaN	4473410.4752165	NaN	4473411.4586258	4473411.97517543
14	20	0	0	90	36.1581920903955	36.241610738255	22	0.733387071862817	2	12	3	NaN	2	4	0.0534935379151947	1	1	NaN	369	6	54	1	121	221	321	NaN	521	0.629502722993493	2	1	NaN	4473413.7422361	NaN	4473414.7256324	4473415.24216308
14	20	0	0	90	36.1581920903955	36.241610738255	24	0.800058623850346	2	7	5	NaN	2	5	0.0534935379151947	1	1	NaN	370	6	55	1	121	221	321	NaN	521	0.375377071090043	1	0	NaN	4473416.6925237	NaN	4473417.6759102	4473418.19245263
14	20	0	0	90	36.1581920903955	36.241610738255	17	0.566708191893995	2	12	5	NaN	2	3	0.0534935379151947	1	1	NaN	371	6	56	1	121	221	321	NaN	521	1.42696542292833	2	1	NaN	4473419.3927789	NaN	4473420.3761707	4473420.89272668
14	20	0	0	90	36.1581920903955	36.241610738255	13	0.433365087918937	2	12	1	NaN	2	3	0.0534935379151947	1	1	NaN	372	6	57	1	121	221	321	NaN	521	0.348861170932651	2	1	NaN	4473423.1431523	NaN	4473424.126538	4473424.64308443
14	20	0	0	90	36.1581920903955	36.241610738255	21	0.700051295869052	2	1	5	NaN	1	5	0.0534935379151947	1	1	NaN	373	6	58	1	121	221	321	NaN	521	0.137778670527041	1	1	NaN	4473425.8100795	NaN	4473426.793464	4473427.31001463
14	20	0	0	90	36.1581920903955	36.241610738255	15	0.500036639906466	2	9	5	NaN	2	4	0.0534935379151947	1	1	NaN	374	6	59	1	121	221	321	NaN	521	0.119618618860841	2	1	NaN	4473428.2603238	NaN	4473429.2437105	4473429.76026178
14	20	0	0	90	36.1581920903955	36.241610738255	13	0.433365087918937	2	4	1	NaN	1	5	0.0534935379151947	1	1	NaN	375	6	60	1	121	221	321	NaN	521	0.0299166226759553	1	1	NaN	4473430.6938196	NaN	4473431.6772807	4473432.19383318
14	20	0	0	90	36.1581920903955	36.241610738255	19	0.633379743881524	2	12	2	NaN	2	5	0.0534935379151947	1	1	NaN	376	6	61	1	121	221	321	NaN	521	0.143662255257368	2	1	NaN	4473433.0441086	NaN	4473434.0274973	4473434.54405774
14	20	0	0	90	36.1581920903955	36.241610738255	11	0.366693535931408	2	6	4	NaN	1	3	0.0534935379151947	1	1	NaN	377	6	62	1	121	221	321	NaN	521	0.293416233733296	1	1	NaN	4473435.4943193	NaN	4473436.4777471	4473436.99430247
14	20	0	0	90	36.1581920903955	36.241610738255	23	0.766722847856581	2	12	6	NaN	2	5	0.0534935379151947	1	1	NaN	378	6	63	1	121	221	321	NaN	521	0.236416569910944	2	1	NaN	4473438.1111509	NaN	4473439.0946799	4473439.61122273
14	20	0	0	90	36.1581920903955	36.241610738255	22	0.733387071862817	2	4	1	NaN	1	4	0.0534935379151947	1	1	NaN	379	7	1	1	121	221	321	NaN	521	0.411324570886791	1	1	NaN	4473461.0802174	NaN	4473462.0636084	4473462.58016053
14	20	0	0	90	36.1581920903955	36.241610738255	14	0.466700863912702	2	9	3	NaN	2	4	0.0534935379151947	1	1	NaN	380	7	2	1	121	221	321	NaN	521	0.638452670536935	2	1	NaN	4473463.7970037	NaN	4473464.7805503	4473465.29707633
14	20	0	0	90	36.1581920903955	36.241610738255	8	0.266686207950115	2	9	4	NaN	2	3	0.0534935379151947	1	1	NaN	381	7	3	1	121	221	321	NaN	521	0.472632970660925	2	1	NaN	4473466.7474486	NaN	4473467.7308232	4473468.24736613
14	20	0	0	90	36.1581920903955	36.241610738255	22	0.733387071862817	2	11	6	NaN	2	5	0.0534935379151947	1	1	NaN	382	7	4	1	121	221	321	NaN	521	0.329054770059884	1	0	NaN	4473469.5310403	NaN	4473470.5144078	4473471.03097233
14	20	0	0	90	36.1581920903955	36.241610738255	11	0.366693535931408	2	2	1	NaN	1	5	0.0534935379151947	1	1	NaN	383	7	5	1	121	221	321	NaN	521	0.33435807004571	1	1	NaN	4473472.1812861	NaN	4473473.1646863	4473473.68124113
14	20	0	0	90	36.1581920903955	36.241610738255	17	0.566708191893995	2	10	6	NaN	2	4	0.0534935379151947	1	1	NaN	384	7	6	1	121	221	321	NaN	521	0.724535395391285	2	1	NaN	4473474.8315483	NaN	4473475.8149374	4473476.3315019
14	20	0	0	90	36.1581920903955	36.241610738255	6	0.200014655962586	2	7	5	NaN	2	4	0.0534935379151947	1	1	NaN	385	7	7	1	121	221	321	NaN	521	0.722942818887532	2	1	NaN	4473477.8651802	NaN	4473478.8485787	4473479.36512428
14	20	0	0	90	36.1581920903955	36.241610738255	23	0.766722847856581	2	11	4	NaN	2	5	0.0534935379151947	1	1	NaN	386	7	8	1	121	221	321	NaN	521	0.897345422767103	2	1	NaN	4473480.8988241	NaN	4473481.8822025	4473482.39875918
14	20	0	0	90	36.1581920903955	36.241610738255	9	0.30002198394388	2	4	6	NaN	1	5	0.0534935379151947	1	1	NaN	387	7	9	1	121	221	321	NaN	521	0.0160893220454454	1	1	NaN	4473484.1157933	NaN	4473485.099081	4473485.61574108
14	20	0	0	90	36.1581920903955	36.241610738255	25	0.83339439984411	2	6	6	NaN	1	4	0.0534935379151947	1	1	NaN	388	7	10	1	121	221	321	NaN	521	0.562489570118487	1	1	NaN	4473486.4493758	NaN	4473487.432655	4473487.94930263
14	20	0	0	90	36.1581920903955	36.241610738255	20	0.666715519875288	2	1	3	NaN	1	3	0.0534935379151947	1	1	NaN	389	7	11	1	121	221	321	NaN	521	0.319053737446666	1	1	NaN	4473489.3329881	NaN	4473490.316374	4473490.83293176
14	20	0	0	90	36.1581920903955	36.241610738255	14	0.466700863912702	2	10	1	NaN	2	4	0.0534935379151947	1	1	NaN	390	7	12	1	121	221	321	NaN	521	0.381497770547867	2	1	NaN	4473491.9665734	NaN	4473492.9499608	4473493.46651163
14	20	0	0	90	36.1581920903955	36.241610738255	8	0.266686207950115	2	10	2	NaN	2	4	0.0534935379151947	1	1	NaN	391	7	13	1	121	221	321	NaN	521	0.394007517956197	2	1	NaN	4473494.650159	NaN	4473495.6336028	4473496.15010228
14	20	0	0	90	36.1581920903955	36.241610738255	16	0.53337241590023	2	5	1	NaN	1	5	0.0534935379151947	1	1	NaN	392	7	14	1	121	221	321	NaN	521	0.316872670315206	1	1	NaN	4473497.3670876	NaN	4473498.3504852	4473498.86704033
14	20	0	0	90	36.1581920903955	36.241610738255	12	0.400029311925173	2	11	6	NaN	2	5	0.0534935379151947	1	1	NaN	393	7	15	1	121	221	321	NaN	521	0.275230018422008	2	1	NaN	4473500.0006777	NaN	4473500.9840854	4473501.50062798
14	20	0	0	90	36.1581920903955	36.241610738255	19	0.633379743881524	2	1	4	NaN	1	5	0.0534935379151947	1	1	NaN	394	7	16	1	121	221	321	NaN	521	0.179440522566438	1	1	NaN	4473502.5842799	NaN	4473503.5676639	4473504.08422168
14	20	0	0	90	36.1581920903955	36.241610738255	8	0.266686207950115	2	11	6	NaN	2	4	0.0534935379151947	1	1	NaN	395	7	17	1	121	221	321	NaN	521	0.25595791824162	2	1	NaN	4473505.0678464	NaN	4473506.0513013	4473506.56779358
14	20	0	0	90	36.1581920903955	36.241610738255	15	0.500036639906466	2	12	5	NaN	2	5	0.0534935379151947	1	1	NaN	396	7	18	1	121	221	321	NaN	521	0.408708122558892	2	1	NaN	4473507.6348154	NaN	4473508.6181602	4473509.13472428
14	20	0	0	90	36.1581920903955	36.241610738255	10	0.333357759937644	2	5	2	NaN	1	3	0.0534935379151947	1	1	NaN	397	7	19	1	121	221	321	NaN	521	0.308127869851887	1	1	NaN	4473510.3517017	NaN	4473511.3350995	4473511.85165843
14	20	0	0	90	36.1581920903955	36.241610738255	20	0.666715519875288	2	10	3	NaN	2	5	0.0534935379151947	1	1	NaN	398	7	20	1	121	221	321	NaN	521	0.371344676241279	2	1	NaN	4473512.9686464	NaN	4473513.952019	4473514.46857632
14	20	0	0	90	36.1581920903955	36.241610738255	10	0.333357759937644	2	1	4	NaN	1	3	0.0534935379151947	1	1	NaN	399	7	21	1	121	221	321	NaN	521	0.33588011842221	1	1	NaN	4473515.6523136	NaN	4473516.6356277	4473517.15216898
14	20	0	0	90	36.1581920903955	36.241610738255	19	0.633379743881524	2	7	6	NaN	2	3	0.0534935379151947	1	1	NaN	400	7	22	1	121	221	321	NaN	521	0.181382422335446	2	1	NaN	4473518.3024679	NaN	4473519.2858833	4473519.80242838
14	20	0	0	90	36.1581920903955	36.241610738255	7	0.233350431956351	2	4	4	NaN	1	3	0.0534935379151947	1	1	NaN	401	7	23	1	121	221	321	NaN	521	0.273371569812298	1	1	NaN	4473520.8026964	NaN	4473521.7861315	4473522.30267643
14	20	0	0	90	36.1581920903955	36.241610738255	13	0.433365087918937	2	2	1	NaN	1	5	0.0534935379151947	1	1	NaN	402	7	24	1	121	221	321	NaN	521	0.257580422796309	1	1	NaN	4473523.3863253	NaN	4473524.3697308	4473524.88626258
14	20	0	0	90	36.1581920903955	36.241610738255	11	0.366693535931408	2	8	6	NaN	2	4	0.0534935379151947	1	1	NaN	403	7	25	1	121	221	321	NaN	521	0.122885121963918	2	1	NaN	4473525.9532325	NaN	4473526.9366786	4473527.45318538
14	20	0	0	90	36.1581920903955	36.241610738255	12	0.400029311925173	2	8	2	NaN	2	3	0.0534935379151947	1	1	NaN	404	7	26	1	121	221	321	NaN	521	0.345524022355676	2	1	NaN	4473528.386822	NaN	4473529.3701955	4473529.88676348
14	20	0	0	90	36.1581920903955	36.241610738255	6	0.200014655962586	2	3	2	NaN	1	5	0.0534935379151947	1	1	NaN	405	7	27	1	121	221	321	NaN	521	0.535333070904016	1	1	NaN	4473531.0369456	NaN	4473532.0204481	4473532.53702273
14	20	0	0	90	36.1581920903955	36.241610738255	18	0.600043967887759	2	10	4	NaN	2	5	0.0534935379151947	1	1	NaN	406	7	28	1	121	221	321	NaN	521	0.324749664403498	2	1	NaN	4473533.8873553	NaN	4473534.8707627	4473535.38728904
14	20	0	0	90	36.1581920903955	36.241610738255	21	0.700051295869052	2	11	5	NaN	2	3	0.0534935379151947	1	1	NaN	407	7	29	1	121	221	321	NaN	521	0.546859136782587	2	1	NaN	4473536.5209564	NaN	4473537.504219	4473538.02089776
14	20	0	0	90	36.1581920903955	36.241610738255	11	0.366693535931408	2	3	1	NaN	1	5	0.0534935379151947	1	1	NaN	408	7	30	1	121	221	321	NaN	521	0.92030275054276	1	1	NaN	4473539.3879584	NaN	4473540.3712872	4473540.88782835
14	20	0	0	90	36.1581920903955	36.241610738255	17	0.566708191893995	2	9	2	NaN	2	5	0.0534935379151947	1	1	NaN	409	7	31	1	121	221	321	NaN	521	0.342188817448914	1	0	NaN	4473542.621529	NaN	4473543.6049268	4473544.12148598
14	20	0	0	90	36.1581920903955	36.241610738255	19	0.633379743881524	2	2	1	NaN	1	4	0.0534935379151947	1	1	NaN	410	7	32	1	121	221	321	NaN	521	0.308443770743906	1	1	NaN	4473545.2717992	NaN	4473546.2551972	4473546.77174683
14	20	0	0	90	36.1581920903955	36.241610738255	6	0.200014655962586	2	7	1	NaN	2	3	0.0534935379151947	1	1	NaN	411	7	33	1	121	221	321	NaN	521	0.0104086706414819	2	1	NaN	4473547.8887209	NaN	4473548.8721184	4473549.38866693
14	20	0	0	90	36.1581920903955	36.241610738255	6	0.200014655962586	2	8	1	NaN	2	4	0.0534935379151947	1	1	NaN	412	7	34	1	121	221	321	NaN	521	0.43056276999414	2	1	NaN	4473550.2056307	NaN	4473551.1890114	4473551.70556213
14	20	0	0	90	36.1581920903955	36.241610738255	17	0.566708191893995	2	8	6	NaN	2	4	0.0534935379151947	1	1	NaN	413	7	35	1	121	221	321	NaN	521	1.02367647085339	2	1	NaN	4473552.9557719	NaN	4473553.9392869	4473554.45583343
14	20	0	0	90	36.1581920903955	36.241610738255	17	0.566708191893995	2	6	2	NaN	1	3	0.0534935379151947	1	1	NaN	414	7	36	1	121	221	321	NaN	521	0.266724570654333	1	1	NaN	4473556.2895698	NaN	4473557.2729432	4473557.78949123
14	20	0	0	90	36.1581920903955	36.241610738255	24	0.800058623850346	2	12	4	NaN	2	5	0.0534935379151947	1	1	NaN	415	7	37	1	121	221	321	NaN	521	0.634570171125233	1	0	NaN	4473558.8731621	NaN	4473559.8565338	4473560.37308773
14	20	0	0	90	36.1581920903955	36.241610738255	11	0.366693535931408	2	1	2	NaN	1	4	0.0534935379151947	1	1	NaN	416	7	38	1	121	221	321	NaN	521	0.396385970525444	1	1	NaN	4473561.8234311	NaN	4473562.8068463	4473563.32337173
14	20	0	0	90	36.1581920903955	36.241610738255	11	0.366693535931408	2	7	3	NaN	2	4	0.0534935379151947	1	1	NaN	417	7	39	1	121	221	321	NaN	521	0.855522221885622	2	1	NaN	4473564.5403735	NaN	4473565.5237554	4473566.04030198
14	20	0	0	90	36.1581920903955	36.241610738255	22	0.733387071862817	2	5	4	NaN	1	5	0.0534935379151947	1	1	NaN	418	7	40	1	121	221	321	NaN	521	0.672712970525026	1	1	NaN	4473567.7073374	NaN	4473568.6907334	4473569.20728473
14	20	0	0	90	36.1581920903955	36.241610738255	17	0.566708191893995	2	8	6	NaN	2	5	0.0534935379151947	1	1	NaN	419	7	41	1	121	221	321	NaN	521	2.24111527018249	2	1	NaN	4473570.6908469	NaN	4473571.6743617	4473572.19091103
14	20	0	0	90	36.1581920903955	36.241610738255	18	0.600043967887759	2	7	4	NaN	2	5	0.0534935379151947	1	1	NaN	420	7	42	1	121	221	321	NaN	521	0.602590871043503	2	1	NaN	4473575.2414225	NaN	4473576.2247893	4473576.74135043
14	20	0	0	90	36.1581920903955	36.241610738255	10	0.333357759937644	2	9	4	NaN	2	3	0.0534935379151947	1	1	NaN	421	7	43	1	121	221	321	NaN	521	0.101704770699143	2	1	NaN	4473578.158234	NaN	4473579.1417343	4473579.65831383
14	20	0	0	90	36.1581920903955	36.241610738255	9	0.30002198394388	2	6	2	NaN	1	4	0.0534935379151947	1	1	NaN	422	7	44	1	121	221	321	NaN	521	0.317022270523012	1	1	NaN	4473580.5751447	NaN	4473581.5586616	4473582.07520833
14	20	0	0	90	36.1581920903955	36.241610738255	16	0.53337241590023	2	12	6	NaN	2	5	0.0534935379151947	1	1	NaN	423	7	45	1	121	221	321	NaN	521	0.371401869691908	2	1	NaN	4473583.2088564	NaN	4473584.1923447	4473584.70880643
14	20	0	0	90	36.1581920903955	36.241610738255	8	0.266686207950115	2	3	4	NaN	1	4	0.0534935379151947	1	1	NaN	424	7	46	1	121	221	321	NaN	521	0.327776870690286	1	1	NaN	4473585.8924661	NaN	4473586.8758487	4473587.39239723
14	20	0	0	90	36.1581920903955	36.241610738255	9	0.30002198394388	2	7	4	NaN	2	3	0.0534935379151947	1	1	NaN	425	7	47	1	121	221	321	NaN	521	0.23753606993705	2	1	NaN	4473588.5427015	NaN	4473589.5261128	4473590.04266823
14	20	0	0	90	36.1581920903955	36.241610738255	14	0.466700863912702	2	5	4	NaN	1	4	0.0534935379151947	1	1	NaN	426	7	48	1	121	221	321	NaN	521	3.64692816976458	1	1	NaN	4473591.0929653	NaN	4473592.0763565	4473592.59290923
14	20	0	0	90	36.1581920903955	36.241610738255	14	0.466700863912702	2	3	1	NaN	1	5	0.0534935379151947	1	1	NaN	427	7	49	1	121	221	321	NaN	521	0.384348819032311	1	1	NaN	4473597.0434229	NaN	4473598.0269473	4473598.54349188
14	20	0	0	90	36.1581920903955	36.241610738255	25	0.83339439984411	2	8	5	NaN	2	5	0.0534935379151947	1	1	NaN	428	7	50	1	121	221	321	NaN	521	0.340510422363877	2	1	NaN	4473599.7438145	NaN	4473600.7272209	4473601.24377048
14	20	0	0	90	36.1581920903955	36.241610738255	7	0.233350431956351	2	9	3	NaN	2	5	0.0534935379151947	1	1	NaN	429	7	51	1	121	221	321	NaN	521	0.242101170122623	2	1	NaN	4473602.3941098	NaN	4473603.3774528	4473603.89402653
14	20	0	0	90	36.1581920903955	36.241610738255	16	0.53337241590023	2	12	2	NaN	2	3	0.0534935379151947	1	1	NaN	430	7	52	1	121	221	321	NaN	521	0.523429227992892	2	1	NaN	4473604.9443603	NaN	4473605.9277032	4473606.44427437
14	20	0	0	90	36.1581920903955	36.241610738255	7	0.233350431956351	2	9	5	NaN	2	5	0.0534935379151947	1	1	NaN	431	7	53	1	121	221	321	NaN	521	0.3703876696527	2	1	NaN	4473607.7780215	NaN	4473608.761335	4473609.27788213
14	20	0	0	90	36.1581920903955	36.241610738255	23	0.766722847856581	2	6	3	NaN	1	3	0.0534935379151947	1	1	NaN	432	7	54	1	121	221	321	NaN	521	0.270549822598696	1	1	NaN	4473610.4615425	NaN	4473611.4449313	4473611.96148928
14	20	0	0	90	36.1581920903955	36.241610738255	21	0.700051295869052	2	7	2	NaN	2	3	0.0534935379151947	1	1	NaN	433	7	55	1	121	221	321	NaN	521	0.639082722365856	2	1	NaN	4473613.0451269	NaN	4473614.0285179	4473614.54507088
14	20	0	0	90	36.1581920903955	36.241610738255	17	0.566708191893995	2	1	4	NaN	1	3	0.0534935379151947	1	1	NaN	434	7	56	1	121	221	321	NaN	521	0.784817576408386	1	1	NaN	4473615.9954202	NaN	4473616.9788046	4473617.49535852
14	20	0	0	90	36.1581920903955	36.241610738255	11	0.366693535931408	2	7	6	NaN	2	3	0.0534935379151947	1	1	NaN	435	7	57	1	121	221	321	NaN	521	0.308269917964935	1	0	NaN	4473619.0957136	NaN	4473620.0791104	4473620.59566068
14	20	0	0	90	36.1581920903955	36.241610738255	23	0.766722847856581	2	3	6	NaN	1	5	0.0534935379151947	1	1	NaN	436	7	58	1	121	221	321	NaN	521	0.339625369757414	1	1	NaN	4473621.7126492	NaN	4473622.6960342	4473623.21258673
14	20	0	0	90	36.1581920903955	36.241610738255	0	0	1	6	5	NaN	1	3	0.0534935379151947	1	1	NaN	437	7	59	1	111	211	311	NaN	511	0.593266818672419	2	0	NaN	4473624.3628911	NaN	4473625.3462864	4473625.86284708
14	20	0	0	90	36.1581920903955	36.241610738255	15	0.500036639906466	2	11	1	NaN	2	4	0.0534935379151947	1	1	NaN	438	7	60	1	121	221	321	NaN	521	0.612841137684882	2	1	NaN	4473627.263196	NaN	4473628.2465874	4473628.76313796
14	20	0	0	90	36.1581920903955	36.241610738255	9	0.30002198394388	2	2	6	NaN	1	5	0.0534935379151947	1	1	NaN	439	7	61	1	121	221	321	NaN	521	0.352114371024072	1	1	NaN	4473630.1800698	NaN	4473631.1635355	4473631.68008483
14	20	0	0	90	36.1581920903955	36.241610738255	20	0.666715519875288	2	8	2	NaN	2	4	0.0534935379151947	1	1	NaN	440	7	62	1	121	221	321	NaN	521	0.805185423232615	2	1	NaN	4473632.8470699	NaN	4473633.8304586	4473634.34701248
14	20	0	0	90	36.1581920903955	36.241610738255	12	0.400029311925173	2	5	1	NaN	1	5	0.0534935379151947	1	1	NaN	441	7	63	1	121	221	321	NaN	521	0.408242870122194	1	1	NaN	4473635.9639034	NaN	4473636.9474782	4473637.46398773
14	20	0	0	90	36.1581920903955	36.241610738255	24	0.800058623850346	2	7	1	NaN	2	4	0.0534935379151947	1	1	NaN	442	8	1	1	121	221	321	NaN	521	0.475621370598674	2	1	NaN	4473656.2327364	NaN	4473657.2159953	4473657.73264393
14	20	0	0	90	36.1581920903955	36.241610738255	15	0.500036639906466	2	5	5	NaN	1	5	0.0534935379151947	1	1	NaN	443	8	2	1	121	221	321	NaN	521	0.355842422693968	1	1	NaN	4473659.0162332	NaN	4473659.9997011	4473660.51624918
14	20	0	0	90	36.1581920903955	36.241610738255	22	0.733387071862817	2	11	1	NaN	2	4	0.0534935379151947	1	1	NaN	444	8	3	1	121	221	321	NaN	521	0.296810670755804	2	1	NaN	4473661.6831192	NaN	4473662.6666268	4473663.18317813
14	20	0	0	90	36.1581920903955	36.241610738255	22	0.733387071862817	2	1	1	NaN	1	3	0.0534935379151947	1	1	NaN	445	8	4	1	121	221	321	NaN	521	0.480093822814524	1	1	NaN	4473664.3001679	NaN	4473665.2835494	4473665.80010078
14	20	0	0	90	36.1581920903955	36.241610738255	10	0.333357759937644	2	10	2	NaN	2	5	0.0534935379151947	1	1	NaN	446	8	5	1	121	221	321	NaN	521	0.391470618546009	2	1	NaN	4473667.1004205	NaN	4473668.0837821	4473668.60037498
14	20	0	0	90	36.1581920903955	36.241610738255	25	0.83339439984411	2	10	5	NaN	2	4	0.0534935379151947	1	1	NaN	447	8	6	1	121	221	321	NaN	521	0.531767622567713	2	1	NaN	4473669.8007294	NaN	4473670.7840836	4473671.30064868
14	20	0	0	90	36.1581920903955	36.241610738255	19	0.633379743881524	2	12	4	NaN	2	5	0.0534935379151947	1	1	NaN	448	8	7	1	121	221	321	NaN	521	0.953231965191662	2	1	NaN	4473672.6509586	NaN	4473673.6343723	4473674.15091483
14	20	0	0	90	36.1581920903955	36.241610738255	9	0.30002198394388	2	6	3	NaN	1	3	0.0534935379151947	1	1	NaN	449	8	8	1	121	221	321	NaN	521	0.414160970598459	1	1	NaN	4473675.9179687	NaN	4473676.901364	4473677.41790563
14	20	0	0	90	36.1581920903955	36.241610738255	15	0.500036639906466	2	3	6	NaN	1	5	0.0534935379151947	1	1	NaN	450	8	9	1	121	221	321	NaN	521	0.889052470214665	1	1	NaN	4473678.634772	NaN	4473679.6183581	4473680.13484103
14	20	0	0	90	36.1581920903955	36.241610738255	6	0.200014655962586	2	12	4	NaN	2	3	0.0534935379151947	1	1	NaN	451	8	10	1	121	221	321	NaN	521	0.513324870727956	2	1	NaN	4473681.8352207	NaN	4473682.8186118	4473683.33515533
14	20	0	0	90	36.1581920903955	36.241610738255	10	0.333357759937644	2	10	1	NaN	2	4	0.0534935379151947	1	1	NaN	452	8	11	1	121	221	321	NaN	521	0.31948471814394	2	1	NaN	4473684.6688167	NaN	4473685.6521931	4473686.16876918
14	20	0	0	90	36.1581920903955	36.241610738255	8	0.266686207950115	2	9	1	NaN	2	4	0.0534935379151947	1	1	NaN	453	8	12	1	121	221	321	NaN	521	0.294001170434058	2	1	NaN	4473687.3023837	NaN	4473688.2858047	4473688.80236063
14	20	0	0	90	36.1581920903955	36.241610738255	18	0.600043967887759	2	5	1	NaN	1	3	0.0534935379151947	1	1	NaN	454	8	13	1	121	221	321	NaN	521	0.301348170265555	1	1	NaN	4473689.9026698	NaN	4473690.8860678	4473691.40262243
14	20	0	0	90	36.1581920903955	36.241610738255	15	0.500036639906466	2	4	5	NaN	1	4	0.0534935379151947	1	1	NaN	455	8	14	1	121	221	321	NaN	521	0.29269537050277	1	1	NaN	4473692.5195979	NaN	4473693.5029922	4473694.01954483
14	20	0	0	90	36.1581920903955	36.241610738255	12	0.400029311925173	2	12	5	NaN	2	4	0.0534935379151947	1	1	NaN	456	8	15	1	121	221	321	NaN	521	0.275778170675039	2	1	NaN	4473695.1365156	NaN	4473696.1199014	4473696.63646213
14	20	0	0	90	36.1581920903955	36.241610738255	6	0.200014655962586	2	3	4	NaN	1	5	0.0534935379151947	1	1	NaN	457	8	16	1	121	221	321	NaN	521	0.275341670960188	1	1	NaN	4473697.7367812	NaN	4473698.7201548	4473699.23671953
14	20	0	0	90	36.1581920903955	36.241610738255	6	0.200014655962586	2	8	2	NaN	2	5	0.0534935379151947	1	1	NaN	458	8	17	1	121	221	321	NaN	521	0.539194569922984	2	1	NaN	4473700.3370395	NaN	4473701.3204276	4473701.83697523
