subjno	age	gender	isPractice	viewdist	CmToPixX	CmToPixY	SOA_frm	SOA_time	targNum	targID	targExample	targRace	targGender	firstTargPos	contrast	familiarity	curr_staircase	iStair	TrialNum	BlockNum	blktrl	sessionNum	TC_FIXATION	TC_RSVP_START	TC_RSVP_END	TC_BLANK	TC_RESPONSE_ONSET	RT2afc	resp_2afc	acc	RSVPOnsetVBL	RSVPOnsetTime	RSVPOffsetVBL	RSVPOffsetTime	startrt_2afc
73	19	0	0	90	36.1581920903955	36.241610738255	14	0.466699632033706	2	6	5	NaN	1	3	0.0224140145070856	0	1	NaN	1	1	1	1	120	220	320	NaN	520	0.785943974740803	1	1	NaN	4563331.1950118	NaN	4563332.178283	4563332.71140472
73	19	0	0	90	36.1581920903955	36.241610738255	18	0.600042384043336	2	5	3	NaN	1	4	0.0224140145070856	0	1	NaN	2	1	2	1	120	220	320	NaN	520	1.4827895751223	1	1	NaN	4563334.3619457	NaN	4563335.3452639	4563335.87837833
73	19	0	0	90	36.1581920903955	36.241610738255	21	0.700049448050559	2	1	2	NaN	1	4	0.0224140145070856	0	1	NaN	3	1	3	1	120	220	320	NaN	520	0.969949774444103	2	0	NaN	4563338.1786688	NaN	4563339.1622179	4563339.69542713
73	19	0	0	90	36.1581920903955	36.241610738255	25	0.833392200060189	2	1	6	NaN	1	5	0.0224140145070856	0	1	NaN	4	1	4	1	120	220	320	NaN	520	3.22968107461929	2	0	NaN	4563341.4957856	NaN	4563342.4791991	4563342.99575223
73	19	0	0	90	36.1581920903955	36.241610738255	18	0.600042384043336	2	9	5	NaN	2	5	0.0224140145070856	0	1	NaN	5	1	5	1	120	220	320	NaN	520	2.2551087224856	1	0	NaN	4563347.0462124	NaN	4563348.0297452	4563348.54629708
73	19	0	0	90	36.1581920903955	36.241610738255	13	0.433363944031298	2	10	3	NaN	2	3	0.0224140145070856	0	1	NaN	6	1	6	1	120	220	320	NaN	520	3.47915816958994	2	1	NaN	4563351.6301395	NaN	4563352.6135249	4563353.13007843
73	19	0	0	90	36.1581920903955	36.241610738255	0	0	1	3	3	NaN	1	3	0.0224140145070856	0	1	NaN	7	1	7	1	110	210	310	NaN	510	1.13477302249521	1	1	NaN	4563357.4306815	NaN	4563358.414097	4563358.93064208
73	19	0	0	90	36.1581920903955	36.241610738255	11	0.366692568026483	2	8	5	NaN	2	3	0.0224140145070856	0	1	NaN	8	1	8	1	120	220	320	NaN	520	2.98052517510951	2	1	NaN	4563360.8809255	NaN	4563361.8644254	4563362.38099212
73	19	0	0	90	36.1581920903955	36.241610738255	11	0.366692568026483	2	10	3	NaN	2	4	0.0224140145070856	0	1	NaN	9	1	9	1	120	220	320	NaN	520	1.88031522277743	2	1	NaN	4563366.1814618	NaN	4563367.1648438	4563367.68150868
73	19	0	0	90	36.1581920903955	36.241610738255	21	0.700049448050559	2	3	2	NaN	1	4	0.0224140145070856	0	1	NaN	10	1	10	1	120	220	320	NaN	520	1.03978416975588	1	1	NaN	4563370.3819487	NaN	4563371.3653881	4563371.88192223
73	19	0	0	90	36.1581920903955	36.241610738255	14	0.466699632033706	2	4	6	NaN	1	4	0.0224140145070856	0	1	NaN	11	1	11	1	120	220	320	NaN	520	1.67250106949359	1	1	NaN	4563373.948878	NaN	4563374.9323898	4563375.44893433
73	19	0	0	90	36.1581920903955	36.241610738255	25	0.833392200060189	2	2	2	NaN	1	5	0.0224140145070856	0	1	NaN	12	1	12	1	120	220	320	NaN	520	1.00842386949807	1	1	NaN	4563377.9493723	NaN	4563378.9327722	4563379.44933273
73	19	0	0	90	36.1581920903955	36.241610738255	0	0	1	9	4	NaN	2	3	0.0224140145070856	0	1	NaN	13	1	13	1	110	210	310	NaN	510	1.58626092318445	1	0	NaN	4563381.2830519	NaN	4563382.2664456	4563382.78298728
73	19	0	0	90	36.1581920903955	36.241610738255	15	0.500035320036113	2	5	4	NaN	1	3	0.0224140145070856	0	1	NaN	14	1	14	1	120	220	320	NaN	520	2.17437842302024	1	1	NaN	4563385.1834503	NaN	4563386.1668244	4563386.68337088
73	19	0	0	90	36.1581920903955	36.241610738255	0	0	1	3	1	NaN	1	3	0.0224140145070856	0	1	NaN	15	1	15	1	110	210	310	NaN	510	3.83445632271469	1	1	NaN	4563389.667071	NaN	4563390.6506481	4563391.16714518
73	19	0	0	90	36.1581920903955	36.241610738255	8	0.26668550401926	2	10	4	NaN	2	3	0.0224140145070856	0	1	NaN	16	1	16	1	120	220	320	NaN	520	1.45982787013054	2	1	NaN	4563395.8178193	NaN	4563396.801199	4563397.31774233
73	19	0	0	90	36.1581920903955	36.241610738255	6	0.200014128014445	2	5	6	NaN	1	5	0.0224140145070856	0	1	NaN	17	1	17	1	120	220	320	NaN	520	0.667815142311156	1	1	NaN	4563399.6014901	NaN	4563400.5849053	4563401.10146376
73	19	0	0	90	36.1581920903955	36.241610738255	23	0.766720824055374	2	6	1	NaN	1	3	0.0224140145070856	0	1	NaN	18	1	18	1	120	220	320	NaN	520	0.780227517709136	1	1	NaN	4563402.5851497	NaN	4563403.568565	4563404.08507668
73	19	0	0	90	36.1581920903955	36.241610738255	11	0.366692568026483	2	11	2	NaN	2	3	0.0224140145070856	0	1	NaN	19	1	19	1	120	220	320	NaN	520	1.01585461199284	1	0	NaN	4563405.6854343	NaN	4563406.6688513	4563407.18537509
73	19	0	0	90	36.1581920903955	36.241610738255	18	0.600042384043336	2	2	4	NaN	1	5	0.0224140145070856	0	1	NaN	20	1	20	1	120	220	320	NaN	520	2.87441206909716	2	0	NaN	4563409.0189889	NaN	4563410.0024934	4563410.51904343
73	19	0	0	90	36.1581920903955	36.241610738255	14	0.466699632033706	2	4	4	NaN	1	5	0.0224140145070856	0	1	NaN	21	1	21	1	120	220	320	NaN	520	4.91388142295182	1	1	NaN	4563414.2196878	NaN	4563415.2030079	4563415.71955988
73	19	0	0	90	36.1581920903955	36.241610738255	25	0.833392200060189	2	4	4	NaN	1	3	0.0224140145070856	0	1	NaN	22	1	22	1	120	220	320	NaN	520	1.94411776959896	1	1	NaN	4563421.4536844	NaN	4563422.4370476	4563422.95359773
73	19	0	0	90	36.1581920903955	36.241610738255	21	0.700049448050559	2	8	6	NaN	2	5	0.0224140145070856	0	1	NaN	23	1	23	1	120	220	320	NaN	520	2.37309876549989	2	1	NaN	4563425.7207292	NaN	4563426.7041414	4563427.22068253
73	19	0	0	90	36.1581920903955	36.241610738255	15	0.500035320036113	2	9	1	NaN	2	3	0.0224140145070856	0	1	NaN	24	1	24	1	120	220	320	NaN	520	2.21619456913322	2	1	NaN	4563430.4212007	NaN	4563431.4046043	4563431.92114633
73	19	0	0	90	36.1581920903955	36.241610738255	0	0	1	1	2	NaN	1	5	0.0224140145070856	0	1	NaN	25	1	25	1	110	210	310	NaN	510	2.37080761697143	2	0	NaN	4563434.954973	NaN	4563435.9383799	4563436.45491998
73	19	0	0	90	36.1581920903955	36.241610738255	25	0.833392200060189	2	3	1	NaN	1	4	0.0224140145070856	0	1	NaN	26	1	26	1	120	220	320	NaN	520	1.89505256991833	1	1	NaN	4563439.6387673	NaN	4563440.6221554	4563441.13872423
73	19	0	0	90	36.1581920903955	36.241610738255	20	0.666713760048151	2	9	6	NaN	2	5	0.0224140145070856	0	1	NaN	27	1	27	1	120	220	320	NaN	520	3.02185476943851	2	1	NaN	4563443.8558543	NaN	4563444.8393019	4563445.35580283
73	19	0	0	90	36.1581920903955	36.241610738255	12	0.400028256028891	2	6	3	NaN	1	5	0.0224140145070856	0	1	NaN	28	1	28	1	120	220	320	NaN	520	4.22337892185897	2	0	NaN	4563449.2064108	NaN	4563450.1897764	4563450.70633088
73	19	0	0	90	36.1581920903955	36.241610738255	9	0.300021192021668	2	1	5	NaN	1	3	0.0224140145070856	0	1	NaN	29	1	29	1	120	220	320	NaN	520	1.08947576954961	2	0	NaN	4563455.7403464	NaN	4563456.7237628	4563457.24030253
73	19	0	0	90	36.1581920903955	36.241610738255	18	0.600042384043336	2	11	2	NaN	2	3	0.0224140145070856	0	1	NaN	30	1	30	1	120	220	320	NaN	520	1.63286679424345	2	1	NaN	4563459.1406734	NaN	4563460.1240863	4563460.64064481
73	19	0	0	90	36.1581920903955	36.241610738255	6	0.200014128014445	2	8	3	NaN	2	5	0.0224140145070856	0	1	NaN	31	1	31	1	120	220	320	NaN	520	4.87452002242208	2	1	NaN	4563463.0910695	NaN	4563464.0744713	4563464.59102888
73	19	0	0	90	36.1581920903955	36.241610738255	16	0.533371008038521	2	1	2	NaN	1	3	0.0224140145070856	0	1	NaN	32	1	32	1	120	220	320	NaN	520	3.04198241792619	1	1	NaN	4563470.2917914	NaN	4563471.2751848	4563471.79172398
73	19	0	0	90	36.1581920903955	36.241610738255	20	0.666713760048151	2	1	5	NaN	1	3	0.0224140145070856	0	1	NaN	33	1	33	1	120	220	320	NaN	520	1.20280971750617	1	1	NaN	4563475.6589422	NaN	4563476.6423777	4563477.15891628
73	19	0	0	90	36.1581920903955	36.241610738255	21	0.700049448050559	2	7	1	NaN	2	5	0.0224140145070856	0	1	NaN	34	1	34	1	120	220	320	NaN	520	3.52936306968331	2	1	NaN	4563479.4760101	NaN	4563480.4594107	4563480.97595733
73	19	0	0	90	36.1581920903955	36.241610738255	10	0.333356880024075	2	7	6	NaN	2	4	0.0224140145070856	0	1	NaN	35	1	35	1	120	220	320	NaN	520	2.71925932262093	2	1	NaN	4563485.3265895	NaN	4563486.3100154	4563486.82654348
73	19	0	0	90	36.1581920903955	36.241610738255	23	0.766720824055374	2	7	2	NaN	2	3	0.0224140145070856	0	1	NaN	36	1	36	1	120	220	320	NaN	520	2.30103386938572	2	1	NaN	4563490.3604523	NaN	4563491.3438256	4563491.86037223
73	19	0	0	90	36.1581920903955	36.241610738255	20	0.666713760048151	2	7	6	NaN	2	3	0.0224140145070856	0	1	NaN	37	1	37	1	120	220	320	NaN	520	0.916291518136859	1	0	NaN	4563494.9775332	NaN	4563495.9609476	4563496.47747998
73	19	0	0	90	36.1581920903955	36.241610738255	20	0.666713760048151	2	4	6	NaN	1	4	0.0224140145070856	0	1	NaN	38	1	38	1	120	220	320	NaN	520	1.09028116986156	1	1	NaN	4563498.2111318	NaN	4563499.1945349	4563499.71114183
73	19	0	0	90	36.1581920903955	36.241610738255	20	0.666713760048151	2	7	2	NaN	2	4	0.0224140145070856	0	1	NaN	39	1	39	1	120	220	320	NaN	520	2.00183672271669	1	0	NaN	4563501.6115236	NaN	4563502.5949087	4563503.11147688
73	19	0	0	90	36.1581920903955	36.241610738255	11	0.366692568026483	2	9	6	NaN	2	5	0.0224140145070856	0	1	NaN	40	1	40	1	120	220	320	NaN	520	0.581262089312077	1	0	NaN	4563505.9286633	NaN	4563506.9120171	4563507.42856011
73	19	0	0	90	36.1581920903955	36.241610738255	23	0.766720824055374	2	10	3	NaN	2	4	0.0224140145070856	0	1	NaN	41	1	41	1	120	220	320	NaN	520	0.728966169990599	2	1	NaN	4563508.8288937	NaN	4563509.8122999	4563510.32884803
73	19	0	0	90	36.1581920903955	36.241610738255	22	0.733385136052966	2	3	1	NaN	1	4	0.0224140145070856	0	1	NaN	42	1	42	1	120	220	320	NaN	520	0.751373469829559	1	1	NaN	4563511.8625469	NaN	4563512.8459254	4563513.36247743
73	19	0	0	90	36.1581920903955	36.241610738255	20	0.666713760048151	2	3	3	NaN	1	4	0.0224140145070856	0	1	NaN	43	1	43	1	120	220	320	NaN	520	0.636082422919571	1	1	NaN	4563514.9294957	NaN	4563515.912898	4563516.42945778
73	19	0	0	90	36.1581920903955	36.241610738255	0	0	1	6	6	NaN	1	5	0.0224140145070856	0	1	NaN	44	1	44	1	110	210	310	NaN	510	0.62199086882174	1	1	NaN	4563517.8797811	NaN	4563518.8631846	4563519.37974633
73	19	0	0	90	36.1581920903955	36.241610738255	24	0.800056512057781	2	3	4	NaN	1	5	0.0224140145070856	0	1	NaN	45	1	45	1	120	220	320	NaN	520	0.608201265335083	2	0	NaN	4563520.8134942	NaN	4563521.7968148	4563522.31335703
73	19	0	0	90	36.1581920903955	36.241610738255	17	0.566706696040928	2	5	4	NaN	1	3	0.0224140145070856	0	1	NaN	46	1	46	1	120	220	320	NaN	520	1.92321021761745	2	0	NaN	4563523.7303595	NaN	4563524.7137621	4563525.23030578
73	19	0	0	90	36.1581920903955	36.241610738255	25	0.833392200060189	2	1	2	NaN	1	4	0.0224140145070856	0	1	NaN	47	1	47	1	120	220	320	NaN	520	0.68178762216121	1	1	NaN	4563527.964107	NaN	4563528.9475169	4563529.46406078
73	19	0	0	90	36.1581920903955	36.241610738255	25	0.833392200060189	2	5	5	NaN	1	5	0.0224140145070856	0	1	NaN	48	1	48	1	120	220	320	NaN	520	1.80378936976194	1	1	NaN	4563531.0977442	NaN	4563532.0811433	4563532.59770333
73	19	0	0	90	36.1581920903955	36.241610738255	17	0.566706696040928	2	2	4	NaN	1	3	0.0224140145070856	0	1	NaN	49	1	49	1	120	220	320	NaN	520	1.91119987983257	1	1	NaN	4563535.2148323	NaN	4563536.1982074	4563536.71477982
73	19	0	0	90	36.1581920903955	36.241610738255	18	0.600042384043336	2	3	5	NaN	1	5	0.0224140145070856	0	1	NaN	50	1	50	1	120	220	320	NaN	520	1.67705766949803	1	1	NaN	4563539.6479243	NaN	4563540.6319895	4563541.14853403
73	19	0	0	90	36.1581920903955	36.241610738255	24	0.800056512057781	2	9	3	NaN	2	5	0.0224140145070856	0	1	NaN	51	1	51	1	120	220	320	NaN	520	1.27641307003796	1	0	NaN	4563543.8489773	NaN	4563544.8324043	4563545.34895323
73	19	0	0	90	36.1581920903955	36.241610738255	25	0.833392200060189	2	5	1	NaN	1	5	0.0224140145070856	0	1	NaN	52	1	52	1	120	220	320	NaN	520	1.47605778556317	1	1	NaN	4563547.4493784	NaN	4563548.4327601	4563548.94930581
73	19	0	0	90	36.1581920903955	36.241610738255	24	0.800056512057781	2	6	5	NaN	1	5	0.0224140145070856	0	1	NaN	53	1	53	1	120	220	320	NaN	520	0.668645022436976	1	1	NaN	4563551.2330662	NaN	4563552.2164637	4563552.73301068
73	19	0	0	90	36.1581920903955	36.241610738255	23	0.766720824055374	2	5	6	NaN	1	3	0.0224140145070856	0	1	NaN	54	1	54	1	120	220	320	NaN	520	2.7049836171791	1	1	NaN	4563554.3166742	NaN	4563555.3001023	4563555.81664508
73	19	0	0	90	36.1581920903955	36.241610738255	0	0	1	2	4	NaN	1	5	0.0224140145070856	0	1	NaN	55	1	55	1	110	210	310	NaN	510	1.69634912256151	1	1	NaN	4563559.5170981	NaN	4563560.5005984	4563561.01716488
73	19	0	0	90	36.1581920903955	36.241610738255	10	0.333356880024075	2	4	5	NaN	1	3	0.0224140145070856	0	1	NaN	56	1	56	1	120	220	320	NaN	520	0.959894569590688	1	1	NaN	4563563.5175926	NaN	4563564.500965	4563565.01755713
73	19	0	0	90	36.1581920903955	36.241610738255	17	0.566706696040928	2	8	1	NaN	2	4	0.0224140145070856	0	1	NaN	57	1	57	1	120	220	320	NaN	520	0.228589469566941	2	1	NaN	4563566.8012575	NaN	4563567.7846665	4563568.30120473
73	19	0	0	90	36.1581920903955	36.241610738255	17	0.566706696040928	2	10	6	NaN	2	5	0.0224140145070856	0	1	NaN	58	1	58	1	120	220	320	NaN	520	1.1667131697759	1	0	NaN	4563569.3348301	NaN	4563570.3182411	4563570.83478443
73	19	0	0	90	36.1581920903955	36.241610738255	12	0.400028256028891	2	8	1	NaN	2	5	0.0224140145070856	0	1	NaN	59	1	59	1	120	220	320	NaN	520	0.467360022477806	2	1	NaN	4563572.818525	NaN	4563573.801933	4563574.31846898
73	19	0	0	90	36.1581920903955	36.241610738255	12	0.400028256028891	2	9	6	NaN	2	5	0.0224140145070856	0	1	NaN	60	1	60	1	120	220	320	NaN	520	1.57985856942832	2	1	NaN	4563575.6021225	NaN	4563576.5855282	4563577.10206653
73	19	0	0	90	36.1581920903955	36.241610738255	6	0.200014128014445	2	5	1	NaN	1	3	0.0224140145070856	0	1	NaN	61	1	61	1	120	220	320	NaN	520	0.599594922736287	1	1	NaN	4563579.5025082	NaN	4563580.4859479	4563581.00245128
73	19	0	0	90	36.1581920903955	36.241610738255	15	0.500035320036113	2	5	1	NaN	1	5	0.0224140145070856	0	1	NaN	62	1	62	1	120	220	320	NaN	520	0.771159969270229	1	1	NaN	4563582.4026658	NaN	4563583.3861944	4563583.90273783
73	19	0	0	90	36.1581920903955	36.241610738255	8	0.26668550401926	2	7	1	NaN	2	4	0.0224140145070856	0	1	NaN	63	1	63	1	120	220	320	NaN	520	2.03967656940222	2	1	NaN	4563585.4864384	NaN	4563586.4698289	4563586.98637563
73	19	0	0	90	36.1581920903955	36.241610738255	12	0.400028256028891	2	12	3	NaN	2	3	0.0224140145070856	0	1	NaN	64	2	1	1	120	220	320	NaN	520	1.14956291764975	2	1	NaN	4563604.2882463	NaN	4563605.2716717	4563605.78826798
73	19	0	0	90	36.1581920903955	36.241610738255	12	0.400028256028891	2	4	1	NaN	1	5	0.0224140145070856	0	1	NaN	65	2	2	1	120	220	320	NaN	520	3.44270536955446	2	0	NaN	4563607.7553366	NaN	4563608.7386791	4563609.25523483
73	19	0	0	90	36.1581920903955	36.241610738255	0	0	1	7	2	NaN	2	3	0.0224140145070856	0	1	NaN	66	2	3	1	110	210	310	NaN	510	1.13213826902211	1	0	NaN	4563613.505838	NaN	4563614.4892378	4563615.00579983
73	19	0	0	90	36.1581920903955	36.241610738255	13	0.433363944031298	2	9	5	NaN	2	3	0.0224140145070856	0	1	NaN	67	2	4	1	120	220	320	NaN	520	1.67380072269589	1	0	NaN	4563616.9561746	NaN	4563617.9395619	4563618.45613678
73	19	0	0	90	36.1581920903955	36.241610738255	11	0.366692568026483	2	3	5	NaN	1	3	0.0224140145070856	0	1	NaN	68	2	5	1	120	220	320	NaN	520	0.129876222461462	1	1	NaN	4563620.9399361	NaN	4563621.9233718	4563622.43986518
73	19	0	0	90	36.1581920903955	36.241610738255	16	0.533371008038521	2	10	4	NaN	2	4	0.0224140145070856	0	1	NaN	69	2	6	1	120	220	320	NaN	520	0.549514369107783	2	1	NaN	4563623.4401444	NaN	4563624.4235491	4563624.94010623
73	19	0	0	90	36.1581920903955	36.241610738255	15	0.500035320036113	2	10	4	NaN	2	3	0.0224140145070856	0	1	NaN	70	2	7	1	120	220	320	NaN	520	1.77849291730672	2	1	NaN	4563626.3070915	NaN	4563627.2905008	4563627.80705288
73	19	0	0	90	36.1581920903955	36.241610738255	23	0.766720824055374	2	9	6	NaN	2	4	0.0224140145070856	0	1	NaN	71	2	8	1	120	220	320	NaN	520	1.67878672201186	1	0	NaN	4563630.390924	NaN	4563631.3742383	4563631.89079198
73	19	0	0	90	36.1581920903955	36.241610738255	19	0.633378072045743	2	2	6	NaN	1	3	0.0224140145070856	0	1	NaN	72	2	9	1	120	220	320	NaN	520	1.10272877011448	2	0	NaN	4563634.3912395	NaN	4563635.3746297	4563635.89118163
73	19	0	0	90	36.1581920903955	36.241610738255	17	0.566706696040928	2	1	4	NaN	1	3	0.0224140145070856	0	1	NaN	73	2	10	1	120	220	320	NaN	520	0.325881669297814	1	1	NaN	4563637.8082174	NaN	4563638.7916234	4563639.30818243
73	19	0	0	90	36.1581920903955	36.241610738255	11	0.366692568026483	2	9	1	NaN	2	3	0.0224140145070856	0	1	NaN	74	2	11	1	120	220	320	NaN	520	2.01902182213962	2	1	NaN	4563640.4584913	NaN	4563641.4418753	4563641.95844298
73	19	0	0	90	36.1581920903955	36.241610738255	20	0.666713760048151	2	5	3	NaN	1	5	0.0224140145070856	0	1	NaN	75	2	12	1	120	220	320	NaN	520	3.91763714235276	1	1	NaN	4563644.7922498	NaN	4563645.7756501	4563646.29220166
73	19	0	0	90	36.1581920903955	36.241610738255	16	0.533371008038521	2	4	4	NaN	1	4	0.0224140145070856	0	1	NaN	76	2	13	1	120	220	320	NaN	520	4.24449092242867	1	1	NaN	4563651.2095275	NaN	4563652.1929494	4563652.70950158
73	19	0	0	90	36.1581920903955	36.241610738255	6	0.200014128014445	2	3	2	NaN	1	4	0.0224140145070856	0	1	NaN	77	2	14	1	120	220	320	NaN	520	0.80678432341665	1	1	NaN	4563657.9268281	NaN	4563658.9102766	4563659.42682008
73	19	0	0	90	36.1581920903955	36.241610738255	24	0.800056512057781	2	4	6	NaN	1	5	0.0224140145070856	0	1	NaN	78	2	15	1	120	220	320	NaN	520	0.930251223035157	2	0	NaN	4563661.0438456	NaN	4563662.027228	4563662.54380038
73	19	0	0	90	36.1581920903955	36.241610738255	0	0	1	5	2	NaN	1	3	0.0224140145070856	0	1	NaN	79	2	16	1	110	210	310	NaN	510	0.198597418144345	1	1	NaN	4563664.52746	NaN	4563665.5109225	4563666.02747508
73	19	0	0	90	36.1581920903955	36.241610738255	9	0.300021192021668	2	8	6	NaN	2	5	0.0224140145070856	0	1	NaN	80	2	17	1	120	220	320	NaN	520	1.17799182236195	2	1	NaN	4563667.0277678	NaN	4563668.0112201	4563668.52771798
73	19	0	0	90	36.1581920903955	36.241610738255	17	0.566706696040928	2	11	1	NaN	2	3	0.0224140145070856	0	1	NaN	81	2	18	1	120	220	320	NaN	520	0.654333769343793	1	0	NaN	4563670.5114319	NaN	4563671.4948458	4563672.01138843
73	19	0	0	90	36.1581920903955	36.241610738255	16	0.533371008038521	2	11	1	NaN	2	4	0.0224140145070856	0	1	NaN	82	2	19	1	120	220	320	NaN	520	0.687436622567475	2	1	NaN	4563673.4783847	NaN	4563674.4618033	4563674.97835428
73	19	0	0	90	36.1581920903955	36.241610738255	22	0.733385136052966	2	9	1	NaN	2	5	0.0224140145070856	0	1	NaN	83	2	20	1	120	220	320	NaN	520	0.615057769231498	1	0	NaN	4563676.47857	NaN	4563677.4620974	4563677.97864713
73	19	0	0	90	36.1581920903955	36.241610738255	18	0.600042384043336	2	4	5	NaN	1	3	0.0224140145070856	0	1	NaN	84	2	21	1	120	220	320	NaN	520	1.21855636499822	1	1	NaN	4563679.395649	NaN	4563680.3790507	4563680.89559004
73	19	0	0	90	36.1581920903955	36.241610738255	19	0.633378072045743	2	7	6	NaN	2	4	0.0224140145070856	0	1	NaN	85	2	22	1	120	220	320	NaN	520	1.07640512287617	2	1	NaN	4563682.9293246	NaN	4563683.9127286	4563684.42928508
73	19	0	0	90	36.1581920903955	36.241610738255	17	0.566706696040928	2	12	2	NaN	2	4	0.0224140145070856	0	1	NaN	86	2	23	1	120	220	320	NaN	520	0.4449258223176	1	0	NaN	4563686.5129908	NaN	4563687.4964178	4563688.01296778
73	19	0	0	90	36.1581920903955	36.241610738255	12	0.400028256028891	2	3	6	NaN	1	4	0.0224140145070856	0	1	NaN	87	2	24	1	120	220	320	NaN	520	0.781758417375386	2	0	NaN	4563689.2799588	NaN	4563690.2633702	4563690.77990158
73	19	0	0	90	36.1581920903955	36.241610738255	12	0.400028256028891	2	7	1	NaN	2	3	0.0224140145070856	0	1	NaN	88	2	25	1	120	220	320	NaN	520	1.67362632323056	2	1	NaN	4563692.380253	NaN	4563693.3636461	4563693.88021018
73	19	0	0	90	36.1581920903955	36.241610738255	19	0.633378072045743	2	12	2	NaN	2	4	0.0224140145070856	0	1	NaN	89	2	26	1	120	220	320	NaN	520	0.304526417516172	1	0	NaN	4563696.5973156	NaN	4563697.5807359	4563698.09728798
73	19	0	0	90	36.1581920903955	36.241610738255	14	0.466699632033706	2	2	1	NaN	1	3	0.0224140145070856	0	1	NaN	90	2	27	1	120	220	320	NaN	520	0.575573317706585	1	1	NaN	4563699.2142738	NaN	4563700.1976848	4563700.71421148
73	19	0	0	90	36.1581920903955	36.241610738255	24	0.800056512057781	2	1	4	NaN	1	5	0.0224140145070856	0	1	NaN	91	2	28	1	120	220	320	NaN	520	1.82724862266332	2	0	NaN	4563702.314546	NaN	4563703.2979755	4563703.81451618
73	19	0	0	90	36.1581920903955	36.241610738255	7	0.233349816016853	2	5	4	NaN	1	5	0.0224140145070856	0	1	NaN	92	2	29	1	120	220	320	NaN	520	1.31755612231791	1	1	NaN	4563706.4483025	NaN	4563707.4316954	4563707.94825708
73	19	0	0	90	36.1581920903955	36.241610738255	12	0.400028256028891	2	4	1	NaN	1	3	0.0224140145070856	0	1	NaN	93	2	30	1	120	220	320	NaN	520	0.579887874424458	1	1	NaN	4563710.0820597	NaN	4563711.0653846	4563711.58194823
73	19	0	0	90	36.1581920903955	36.241610738255	9	0.300021192021668	2	4	2	NaN	1	3	0.0224140145070856	0	1	NaN	94	2	31	1	120	220	320	NaN	520	0.903437122702599	2	0	NaN	4563712.9821842	NaN	4563713.9656838	4563714.48223448
73	19	0	0	90	36.1581920903955	36.241610738255	13	0.433363944031298	2	8	4	NaN	2	5	0.0224140145070856	0	1	NaN	95	2	32	1	120	220	320	NaN	520	1.62928296905011	1	0	NaN	4563716.4325932	NaN	4563717.4159961	4563717.93257193
73	19	0	0	90	36.1581920903955	36.241610738255	17	0.566706696040928	2	7	4	NaN	2	5	0.0224140145070856	0	1	NaN	96	2	33	1	120	220	320	NaN	520	4.66283722221851	1	0	NaN	4563720.3830207	NaN	4563721.3664088	4563721.88296208
73	19	0	0	90	36.1581920903955	36.241610738255	7	0.233349816016853	2	4	2	NaN	1	3	0.0224140145070856	0	1	NaN	97	2	34	1	120	220	320	NaN	520	0.903101422823966	2	0	NaN	4563727.3670308	NaN	4563728.3504051	4563728.86697378
73	19	0	0	90	36.1581920903955	36.241610738255	14	0.466699632033706	2	12	6	NaN	2	5	0.0224140145070856	0	1	NaN	98	2	35	1	120	220	320	NaN	520	0.981858822517097	2	1	NaN	4563730.5838762	NaN	4563731.5674095	4563732.08396438
73	19	0	0	90	36.1581920903955	36.241610738255	22	0.733385136052966	2	12	1	NaN	2	5	0.0224140145070856	0	1	NaN	99	2	36	1	120	220	320	NaN	520	1.69760794285685	2	1	NaN	4563733.8843218	NaN	4563734.8677851	4563735.38429156
73	19	0	0	90	36.1581920903955	36.241610738255	0	0	1	12	2	NaN	2	5	0.0224140145070856	0	1	NaN	100	2	37	1	110	210	310	NaN	510	1.72948744241148	2	1	NaN	4563737.8847826	NaN	4563738.8681294	4563739.38468546
73	19	0	0	90	36.1581920903955	36.241610738255	11	0.366692568026483	2	11	2	NaN	2	3	0.0224140145070856	0	1	NaN	101	2	38	1	120	220	320	NaN	520	5.79104136954993	2	1	NaN	4563741.9351366	NaN	4563742.9185243	4563743.43507163
73	19	0	0	90	36.1581920903955	36.241610738255	9	0.300021192021668	2	4	2	NaN	1	3	0.0224140145070856	0	1	NaN	102	2	39	1	120	220	320	NaN	520	0.593813222832978	1	1	NaN	4563750.0359315	NaN	4563751.0192781	4563751.53587198
73	19	0	0	90	36.1581920903955	36.241610738255	7	0.233349816016853	2	1	5	NaN	1	4	0.0224140145070856	0	1	NaN	103	2	40	1	120	220	320	NaN	520	1.38107432238758	2	0	NaN	4563752.9528688	NaN	4563753.9362484	4563754.45282578
73	19	0	0	90	36.1581920903955	36.241610738255	7	0.233349816016853	2	9	5	NaN	2	5	0.0224140145070856	0	1	NaN	104	2	41	1	120	220	320	NaN	520	0.760594221763313	1	0	NaN	4563756.6532358	NaN	4563757.6366232	4563758.15317978
73	19	0	0	90	36.1581920903955	36.241610738255	8	0.26668550401926	2	8	3	NaN	2	5	0.0224140145070856	0	1	NaN	105	2	42	1	120	220	320	NaN	520	2.67837231699377	2	1	NaN	4563759.9031485	NaN	4563760.8869527	4563761.40350568
73	19	0	0	90	36.1581920903955	36.241610738255	0	0	1	1	1	NaN	1	4	0.0224140145070856	0	1	NaN	106	2	43	1	110	210	310	NaN	510	1.03013397473842	1	1	NaN	4563764.9040632	NaN	4563765.8874415	4563766.40399843
73	19	0	0	90	36.1581920903955	36.241610738255	21	0.700049448050559	2	4	1	NaN	1	4	0.0224140145070856	0	1	NaN	107	2	44	1	120	220	320	NaN	520	1.58701742254198	1	1	NaN	4563769.9711873	NaN	4563770.9546047	4563771.47115378
73	19	0	0	90	36.1581920903955	36.241610738255	12	0.400028256028891	2	3	6	NaN	1	3	0.0224140145070856	0	1	NaN	108	2	45	1	120	220	320	NaN	520	0.935695023275912	2	0	NaN	4563783.6224603	NaN	4563784.6059464	4563785.12249358
73	19	0	0	90	36.1581920903955	36.241610738255	8	0.26668550401926	2	4	1	NaN	1	4	0.0224140145070856	0	1	NaN	109	2	46	1	120	220	320	NaN	520	0.196908442303538	1	1	NaN	4563786.8728673	NaN	4563787.85626	4563788.37282716
73	19	0	0	90	36.1581920903955	36.241610738255	14	0.466699632033706	2	7	3	NaN	2	3	0.0224140145070856	0	1	NaN	110	2	47	1	120	220	320	NaN	520	0.855701969005167	1	0	NaN	4563790.4065572	NaN	4563791.3899539	4563791.90649593
73	19	0	0	90	36.1581920903955	36.241610738255	9	0.300021192021668	2	12	5	NaN	2	3	0.0224140145070856	0	1	NaN	111	2	48	1	120	220	320	NaN	520	1.20666402298957	1	0	NaN	4563793.8234234	NaN	4563794.8069542	4563795.32350248
73	19	0	0	90	36.1581920903955	36.241610738255	11	0.366692568026483	2	10	5	NaN	2	3	0.0224140145070856	0	1	NaN	112	2	49	1	120	220	320	NaN	520	1.98274706955999	1	0	NaN	4563797.8072558	NaN	4563798.7906782	4563799.30722043
73	19	0	0	90	36.1581920903955	36.241610738255	21	0.700049448050559	2	2	3	NaN	1	4	0.0224140145070856	0	1	NaN	113	2	50	1	120	220	320	NaN	520	1.11404176987708	1	1	NaN	4563802.1078186	NaN	4563803.0911026	4563803.60764613
73	19	0	0	90	36.1581920903955	36.241610738255	0	0	1	4	6	NaN	1	3	0.0224140145070856	0	1	NaN	114	2	51	1	110	210	310	NaN	510	0.78112876880914	1	1	NaN	4563806.6247919	NaN	4563807.608204	4563808.12475143
73	19	0	0	90	36.1581920903955	36.241610738255	6	0.200014128014445	2	10	1	NaN	2	3	0.0224140145070856	0	1	NaN	115	2	52	1	120	220	320	NaN	520	0.865271923132241	2	1	NaN	4563809.7251224	NaN	4563810.7085141	4563811.22506258
73	19	0	0	90	36.1581920903955	36.241610738255	12	0.400028256028891	2	5	2	NaN	1	4	0.0224140145070856	0	1	NaN	116	2	53	1	120	220	320	NaN	520	1.45870926976204	1	1	NaN	4563813.0754474	NaN	4563814.0588193	4563814.57538523
73	19	0	0	90	36.1581920903955	36.241610738255	17	0.566706696040928	2	2	3	NaN	1	4	0.0224140145070856	0	1	NaN	117	2	54	1	120	220	320	NaN	520	1.5306803220883	2	0	NaN	4563817.6758712	NaN	4563818.6593242	4563819.17583698
73	19	0	0	90	36.1581920903955	36.241610738255	13	0.433363944031298	2	1	5	NaN	1	5	0.0224140145070856	0	1	NaN	118	2	55	1	120	220	320	NaN	520	1.6264037694782	2	0	NaN	4563821.6595912	NaN	4563822.6430082	4563823.15956253
73	19	0	0	90	36.1581920903955	36.241610738255	24	0.800056512057781	2	5	4	NaN	1	5	0.0224140145070856	0	1	NaN	119	2	56	1	120	220	320	NaN	520	0.911482268944383	1	1	NaN	4563883.1988923	NaN	4563884.1824217	4563884.69894203
73	19	0	0	90	36.1581920903955	36.241610738255	10	0.333356880024075	2	4	1	NaN	1	3	0.0224140145070856	0	1	NaN	120	2	57	1	120	220	320	NaN	520	1.62950492277741	1	1	NaN	4563886.4326775	NaN	4563887.4160629	4563887.93259738
73	19	0	0	90	36.1581920903955	36.241610738255	21	0.700049448050559	2	6	4	NaN	1	4	0.0224140145070856	0	1	NaN	121	2	58	1	120	220	320	NaN	520	0.839072274975479	1	1	NaN	4563890.3830468	NaN	4563891.3664519	4563891.88300303
73	19	0	0	90	36.1581920903955	36.241610738255	10	0.333356880024075	2	9	2	NaN	2	3	0.0224140145070856	0	1	NaN	122	2	59	1	120	220	320	NaN	520	1.69616141729057	2	1	NaN	4563893.5500243	NaN	4563894.5334275	4563895.04995978
73	19	0	0	90	36.1581920903955	36.241610738255	20	0.666713760048151	2	9	4	NaN	2	4	0.0224140145070856	0	1	NaN	123	2	60	1	120	220	320	NaN	520	0.630980869755149	1	0	NaN	4563897.5670697	NaN	4563898.5504903	4563899.06702223
73	19	0	0	90	36.1581920903955	36.241610738255	14	0.466699632033706	2	2	5	NaN	1	4	0.0224140145070856	0	1	NaN	124	2	61	1	120	220	320	NaN	520	1.08093676529825	1	1	NaN	4563900.5172533	NaN	4563901.5006812	4563902.01731853
73	19	0	0	90	36.1581920903955	36.241610738255	24	0.800056512057781	2	2	1	NaN	1	4	0.0224140145070856	0	1	NaN	125	2	62	1	120	220	320	NaN	520	1.49682268965989	2	0	NaN	4563903.9176978	NaN	4563904.901114	4563905.41764551
73	19	0	0	90	36.1581920903955	36.241610738255	21	0.700049448050559	2	9	4	NaN	2	5	0.0224140145070856	0	1	NaN	126	2	63	1	120	220	320	NaN	520	1.27968174219131	1	0	NaN	4563907.734801	NaN	4563908.7181518	4563909.23469956
73	19	0	0	90	36.1581920903955	36.241610738255	13	0.433363944031298	2	1	1	NaN	1	5	0.0224140145070856	0	1	NaN	127	3	1	1	120	220	320	NaN	520	0.803299337625504	1	1	NaN	4563920.4026603	NaN	4563921.3860673	4563921.90260306
73	19	0	0	90	36.1581920903955	36.241610738255	16	0.533371008038521	2	8	2	NaN	2	3	0.0224140145070856	0	1	NaN	128	3	2	1	120	220	320	NaN	520	2.02248143684119	1	0	NaN	4563923.5195024	NaN	4563924.5030477	4563925.01958256
73	19	0	0	90	36.1581920903955	36.241610738255	6	0.200014128014445	2	12	5	NaN	2	5	0.0224140145070856	0	1	NaN	129	3	3	1	120	220	320	NaN	520	3.38445147965103	1	0	NaN	4563927.8700691	NaN	4563928.8535004	4563929.36999552
73	19	0	0	90	36.1581920903955	36.241610738255	19	0.633378072045743	2	10	4	NaN	2	5	0.0224140145070856	0	1	NaN	130	3	4	1	120	220	320	NaN	520	0.0510906651616096	2	1	NaN	4563933.5871828	NaN	4563934.5706561	4563935.08722003
73	19	0	0	90	36.1581920903955	36.241610738255	11	0.366692568026483	2	6	6	NaN	1	3	0.0224140145070856	0	1	NaN	131	3	5	1	120	220	320	NaN	520	0.580060317181051	1	1	NaN	4563935.9540648	NaN	4563936.9376569	4563937.45412788
73	19	0	0	90	36.1581920903955	36.241610738255	12	0.400028256028891	2	5	5	NaN	1	3	0.0224140145070856	0	1	NaN	132	3	6	1	120	220	320	NaN	520	1.47163667995483	1	1	NaN	4563938.8543397	NaN	4563939.8378712	4563940.35441402
73	19	0	0	90	36.1581920903955	36.241610738255	10	0.333356880024075	2	8	1	NaN	2	5	0.0224140145070856	0	1	NaN	133	3	7	1	120	220	320	NaN	520	2.98409367445856	1	0	NaN	4563942.6381671	NaN	4563943.62157	4563944.13812183
73	19	0	0	90	36.1581920903955	36.241610738255	9	0.300021192021668	2	7	5	NaN	2	3	0.0224140145070856	0	1	NaN	134	3	8	1	120	220	320	NaN	520	4.17170302197337	1	0	NaN	4563947.9387291	NaN	4563948.922105	4563949.43863468
73	19	0	0	90	36.1581920903955	36.241610738255	11	0.366692568026483	2	4	3	NaN	1	5	0.0224140145070856	0	1	NaN	135	3	9	1	120	220	320	NaN	520	2.97713616490364	1	1	NaN	4563954.5893321	NaN	4563955.5726791	4563956.08928814
73	19	0	0	90	36.1581920903955	36.241610738255	0	0	1	8	3	NaN	2	4	0.0224140145070856	0	1	NaN	136	3	10	1	110	210	310	NaN	510	1.65245011728257	2	1	NaN	4563959.8897427	NaN	4563960.873271	4563961.38980958
73	19	0	0	90	36.1581920903955	36.241610738255	14	0.466699632033706	2	8	5	NaN	2	3	0.0224140145070856	0	1	NaN	137	3	11	1	120	220	320	NaN	520	2.46062971744686	2	1	NaN	4563963.8736005	NaN	4563964.8570081	4563965.37353308
73	19	0	0	90	36.1581920903955	36.241610738255	19	0.633378072045743	2	3	2	NaN	1	4	0.0224140145070856	0	1	NaN	138	3	12	1	120	220	320	NaN	520	1.13272406999022	1	1	NaN	4563968.6573861	NaN	4563969.640802	4563970.15733703
73	19	0	0	90	36.1581920903955	36.241610738255	8	0.26668550401926	2	9	2	NaN	2	3	0.0224140145070856	0	1	NaN	139	3	13	1	120	220	320	NaN	520	2.29841862246394	1	0	NaN	4563972.1076768	NaN	4563973.0911471	4563973.60767018
73	19	0	0	90	36.1581920903955	36.241610738255	16	0.533371008038521	2	6	6	NaN	1	4	0.0224140145070856	0	1	NaN	140	3	14	1	120	220	320	NaN	520	1.68145386874676	1	1	NaN	4563976.7249511	NaN	4563977.7082825	4563978.22480213
73	19	0	0	90	36.1581920903955	36.241610738255	18	0.600042384043336	2	11	5	NaN	2	5	0.0224140145070856	0	1	NaN	141	3	15	1	120	220	320	NaN	520	1.38506467919797	2	1	NaN	4563980.7251252	NaN	4563981.7086387	4563982.22519342
73	19	0	0	90	36.1581920903955	36.241610738255	11	0.366692568026483	2	6	2	NaN	1	5	0.0224140145070856	0	1	NaN	142	3	16	1	120	220	320	NaN	520	2.00501371733844	1	1	NaN	4563984.425598	NaN	4563985.4090262	4563985.92555648
73	19	0	0	90	36.1581920903955	36.241610738255	20	0.666713760048151	2	3	4	NaN	1	3	0.0224140145070856	0	1	NaN	143	3	17	1	120	220	320	NaN	520	1.582858517766	2	0	NaN	4563988.7594217	NaN	4563989.7427811	4563990.25931088
73	19	0	0	90	36.1581920903955	36.241610738255	19	0.633378072045743	2	11	2	NaN	2	3	0.0224140145070856	0	1	NaN	144	3	18	1	120	220	320	NaN	520	1.51479991711676	1	0	NaN	4563992.6597514	NaN	4563993.6431606	4563994.15970028
73	19	0	0	90	36.1581920903955	36.241610738255	10	0.333356880024075	2	6	4	NaN	1	4	0.0224140145070856	0	1	NaN	145	3	19	1	120	220	320	NaN	520	1.23309906478971	1	1	NaN	4563996.4934489	NaN	4563997.4768991	4563997.99340014
73	19	0	0	90	36.1581920903955	36.241610738255	0	0	1	9	2	NaN	2	4	0.0224140145070856	0	1	NaN	146	3	20	1	110	210	310	NaN	510	2.70697037037462	1	0	NaN	4564000.0438191	NaN	4564001.0272211	4564001.54374493
73	19	0	0	90	36.1581920903955	36.241610738255	9	0.300021192021668	2	5	6	NaN	1	4	0.0224140145070856	0	1	NaN	147	3	21	1	120	220	320	NaN	520	2.4729601694271	1	1	NaN	4564005.0775112	NaN	4564006.0610342	4564006.57757343
73	19	0	0	90	36.1581920903955	36.241610738255	10	0.333356880024075	2	1	5	NaN	1	4	0.0224140145070856	0	1	NaN	148	3	22	1	120	220	320	NaN	520	1.08004971779883	1	1	NaN	4564009.8780064	NaN	4564010.8615171	4564011.37804418
73	19	0	0	90	36.1581920903955	36.241610738255	15	0.500035320036113	2	10	2	NaN	2	4	0.0224140145070856	0	1	NaN	149	3	23	1	120	220	320	NaN	520	4.81628192216158	2	1	NaN	4564013.2784501	NaN	4564014.2618559	4564014.77838668
73	19	0	0	90	36.1581920903955	36.241610738255	21	0.700049448050559	2	2	5	NaN	1	4	0.0224140145070856	0	1	NaN	150	3	24	1	120	220	320	NaN	520	1.21818539407104	1	1	NaN	4564020.4123612	NaN	4564021.395874	4564021.91243151
73	19	0	0	90	36.1581920903955	36.241610738255	18	0.600042384043336	2	7	2	NaN	2	4	0.0224140145070856	0	1	NaN	151	3	25	1	120	220	320	NaN	520	1.41804322227836	2	1	NaN	4564024.1960639	NaN	4564025.1795852	4564025.69612708
73	19	0	0	90	36.1581920903955	36.241610738255	18	0.600042384043336	2	10	6	NaN	2	3	0.0224140145070856	0	1	NaN	152	3	26	1	120	220	320	NaN	520	1.10853627417237	1	0	NaN	4564027.9299005	NaN	4564028.9132831	4564029.42982743
73	19	0	0	90	36.1581920903955	36.241610738255	16	0.533371008038521	2	3	3	NaN	1	5	0.0224140145070856	0	1	NaN	153	3	27	1	120	220	320	NaN	520	0.731089369393885	1	1	NaN	4564031.3635675	NaN	4564032.3469541	4564032.86348803
73	19	0	0	90	36.1581920903955	36.241610738255	6	0.200014128014445	2	1	6	NaN	1	4	0.0224140145070856	0	1	NaN	154	3	28	1	120	220	320	NaN	520	1.69421926978976	2	0	NaN	4564034.4638679	NaN	4564035.4472844	4564035.96381293
73	19	0	0	90	36.1581920903955	36.241610738255	0	0	1	11	6	NaN	2	3	0.0224140145070856	0	1	NaN	155	3	29	1	110	210	310	NaN	510	2.09367226902395	2	1	NaN	4564038.4809223	NaN	4564039.4643252	4564039.98086333
73	19	0	0	90	36.1581920903955	36.241610738255	9	0.300021192021668	2	7	3	NaN	2	5	0.0224140145070856	0	1	NaN	156	3	30	1	120	220	320	NaN	520	2.35646336525679	1	0	NaN	4564042.8980153	NaN	4564043.8813997	4564044.39795663
73	19	0	0	90	36.1581920903955	36.241610738255	24	0.800056512057781	2	12	5	NaN	2	4	0.0224140145070856	0	1	NaN	157	3	31	1	120	220	320	NaN	520	2.31292637996376	2	1	NaN	4564047.5818152	NaN	4564048.5652202	4564049.08174842
73	19	0	0	90	36.1581920903955	36.241610738255	24	0.800056512057781	2	9	3	NaN	2	3	0.0224140145070856	0	1	NaN	158	3	32	1	120	220	320	NaN	520	1.03866588976234	2	1	NaN	4564052.2155497	NaN	4564053.1990169	4564053.71554851
73	19	0	0	90	36.1581920903955	36.241610738255	13	0.433363944031298	2	4	5	NaN	1	4	0.0224140145070856	0	1	NaN	159	3	33	1	120	220	320	NaN	520	1.56760556902736	1	1	NaN	4564055.5826677	NaN	4564056.5660255	4564057.08254343
73	19	0	0	90	36.1581920903955	36.241610738255	22	0.733385136052966	2	7	5	NaN	2	4	0.0224140145070856	0	1	NaN	160	3	34	1	120	220	320	NaN	520	1.45205186866224	1	0	NaN	4564059.4663026	NaN	4564060.449763	4564060.96625333
73	19	0	0	90	36.1581920903955	36.241610738255	15	0.500035320036113	2	4	2	NaN	1	3	0.0224140145070856	0	1	NaN	161	3	35	1	120	220	320	NaN	520	2.12474516872317	1	1	NaN	4564063.2500042	NaN	4564064.2334518	4564064.74995213
73	19	0	0	90	36.1581920903955	36.241610738255	6	0.200014128014445	2	11	3	NaN	2	3	0.0224140145070856	0	1	NaN	162	3	36	1	120	220	320	NaN	520	1.01819806918502	2	1	NaN	4564067.7004478	NaN	4564068.6838567	4564069.20039263
73	19	0	0	90	36.1581920903955	36.241610738255	19	0.633378072045743	2	1	4	NaN	1	3	0.0224140145070856	0	1	NaN	163	3	37	1	120	220	320	NaN	520	1.82006567530334	1	1	NaN	4564071.0339818	NaN	4564072.0175134	4564072.53406102
73	19	0	0	90	36.1581920903955	36.241610738255	17	0.566706696040928	2	11	3	NaN	2	3	0.0224140145070856	0	1	NaN	164	3	38	1	120	220	320	NaN	520	0.870657869614661	2	1	NaN	4564075.1677258	NaN	4564076.1513006	4564076.66779453
73	19	0	0	90	36.1581920903955	36.241610738255	6	0.200014128014445	2	8	5	NaN	2	3	0.0224140145070856	0	1	NaN	165	3	39	1	120	220	320	NaN	520	2.29428171738982	2	1	NaN	4564078.3681844	NaN	4564079.3515939	4564079.86810088
73	19	0	0	90	36.1581920903955	36.241610738255	15	0.500035320036113	2	1	6	NaN	1	5	0.0224140145070856	0	1	NaN	166	3	40	1	120	220	320	NaN	520	1.15749296918511	2	0	NaN	4564082.9853359	NaN	4564083.9687371	4564084.48522653
73	19	0	0	90	36.1581920903955	36.241610738255	7	0.233349816016853	2	7	1	NaN	2	5	0.0224140145070856	0	1	NaN	167	3	41	1	120	220	320	NaN	520	1.53737821709365	1	0	NaN	4564086.4689835	NaN	4564087.4523678	4564087.96890508
73	19	0	0	90	36.1581920903955	36.241610738255	22	0.733385136052966	2	6	3	NaN	1	4	0.0224140145070856	0	1	NaN	168	3	42	1	120	220	320	NaN	520	0.615437865257263	1	1	NaN	4564090.3193287	NaN	4564091.3027231	4564091.81927323
73	19	0	0	90	36.1581920903955	36.241610738255	22	0.733385136052966	2	3	5	NaN	1	4	0.0224140145070856	0	1	NaN	169	3	43	1	120	220	320	NaN	520	0.953515089116991	2	0	NaN	4564093.2529593	NaN	4564094.2362838	4564094.75290111
73	19	0	0	90	36.1581920903955	36.241610738255	19	0.633378072045743	2	9	3	NaN	2	4	0.0224140145070856	0	1	NaN	170	3	44	1	120	220	320	NaN	520	0.645788789726794	1	0	NaN	4564096.5366097	NaN	4564097.5200289	4564098.03656851
73	19	0	0	90	36.1581920903955	36.241610738255	8	0.26668550401926	2	1	1	NaN	1	3	0.0224140145070856	0	1	NaN	171	3	45	1	120	220	320	NaN	520	0.966835922561586	1	1	NaN	4564099.5035891	NaN	4564100.4869856	4564101.00352338
73	19	0	0	90	36.1581920903955	36.241610738255	14	0.466699632033706	2	1	1	NaN	1	4	0.0224140145070856	0	1	NaN	172	3	46	1	120	220	320	NaN	520	0.987335169687867	1	1	NaN	4564102.7872205	NaN	4564103.7706468	4564104.28717023
73	19	0	0	90	36.1581920903955	36.241610738255	13	0.433363944031298	2	11	5	NaN	2	5	0.0224140145070856	0	1	NaN	173	3	47	1	120	220	320	NaN	520	0.606592974625528	2	1	NaN	4564106.1042291	NaN	4564107.0876518	4564107.60418162
73	19	0	0	90	36.1581920903955	36.241610738255	25	0.833392200060189	2	7	5	NaN	2	4	0.0224140145070856	0	1	NaN	174	3	48	1	120	220	320	NaN	520	0.824659965001047	1	0	NaN	4564109.03786	NaN	4564110.021247	4564110.53778064
73	19	0	0	90	36.1581920903955	36.241610738255	20	0.666713760048151	2	10	6	NaN	2	4	0.0224140145070856	0	1	NaN	175	3	49	1	120	220	320	NaN	520	0.690335022285581	1	0	NaN	4564112.1881474	NaN	4564113.171581	4564113.68809298
73	19	0	0	90	36.1581920903955	36.241610738255	20	0.666713760048151	2	10	2	NaN	2	3	0.0224140145070856	0	1	NaN	176	3	50	1	120	220	320	NaN	520	1.57736792229116	1	0	NaN	4564115.2051352	NaN	4564116.1885224	4564116.70506178
73	19	0	0	90	36.1581920903955	36.241610738255	10	0.333356880024075	2	12	3	NaN	2	3	0.0224140145070856	0	1	NaN	177	3	51	1	120	220	320	NaN	520	1.90123152267188	2	1	NaN	4564119.1053872	NaN	4564120.0889023	4564120.60544038
73	19	0	0	90	36.1581920903955	36.241610738255	0	0	1	6	4	NaN	1	5	0.0224140145070856	0	1	NaN	178	3	52	1	110	210	310	NaN	510	1.12389468494803	1	1	NaN	4564123.3225932	NaN	4564124.3060237	4564124.82252852
73	19	0	0	90	36.1581920903955	36.241610738255	0	0	1	2	1	NaN	1	3	0.0224140145070856	0	1	NaN	179	3	53	1	110	210	310	NaN	510	1.19360626954585	1	1	NaN	4564126.7729213	NaN	4564127.7563284	4564128.27286033
73	19	0	0	90	36.1581920903955	36.241610738255	24	0.800056512057781	2	7	3	NaN	2	5	0.0224140145070856	0	1	NaN	180	3	54	1	120	220	320	NaN	520	1.52450506947935	1	0	NaN	4564130.2898086	NaN	4564131.2733527	4564131.78986823
73	19	0	0	90	36.1581920903955	36.241610738255	7	0.233349816016853	2	3	6	NaN	1	4	0.0224140145070856	0	1	NaN	181	3	55	1	120	220	320	NaN	520	1.52219132333994	2	0	NaN	4564134.1403193	NaN	4564135.1237468	4564135.64025608
73	19	0	0	90	36.1581920903955	36.241610738255	16	0.533371008038521	2	1	2	NaN	1	5	0.0224140145070856	0	1	NaN	182	3	56	1	120	220	320	NaN	520	1.67960182297975	1	1	NaN	4564137.9907391	NaN	4564138.9741165	4564139.49062388
73	19	0	0	90	36.1581920903955	36.241610738255	17	0.566706696040928	2	9	4	NaN	2	5	0.0224140145070856	0	1	NaN	183	3	57	1	120	220	320	NaN	520	1.38350197486579	2	1	NaN	4564141.9910896	NaN	4564142.9744917	4564143.49102813
73	19	0	0	90	36.1581920903955	36.241610738255	13	0.433363944031298	2	12	5	NaN	2	3	0.0224140145070856	0	1	NaN	184	3	58	1	120	220	320	NaN	520	1.13807172235101	2	1	NaN	4564145.7081347	NaN	4564146.691519	4564147.20804888
73	19	0	0	90	36.1581920903955	36.241610738255	23	0.766720824055374	2	11	5	NaN	2	5	0.0224140145070856	0	1	NaN	185	3	59	1	120	220	320	NaN	520	1.17522202245891	2	1	NaN	4564149.1751018	NaN	4564150.1585286	4564150.67506288
73	19	0	0	90	36.1581920903955	36.241610738255	0	0	1	11	3	NaN	2	5	0.0224140145070856	0	1	NaN	186	3	60	1	110	210	310	NaN	510	1.04303021728992	1	0	NaN	4564152.6754555	NaN	4564153.6588694	4564154.17540248
73	19	0	0	90	36.1581920903955	36.241610738255	8	0.26668550401926	2	12	6	NaN	2	4	0.0224140145070856	0	1	NaN	187	3	61	1	120	220	320	NaN	520	4.65996646974236	2	1	NaN	4564156.0424615	NaN	4564157.0258457	4564157.54239843
73	19	0	0	90	36.1581920903955	36.241610738255	16	0.533371008038521	2	7	1	NaN	2	5	0.0224140145070856	0	1	NaN	188	3	62	1	120	220	320	NaN	520	2.99598926957697	1	0	NaN	4564163.0263521	NaN	4564164.0099062	4564164.52641703
73	19	0	0	90	36.1581920903955	36.241610738255	8	0.26668550401926	2	6	3	NaN	1	4	0.0224140145070856	0	1	NaN	189	3	63	1	120	220	320	NaN	520	4.0309947328642	1	1	NaN	4564168.3436822	NaN	4564169.3270738	4564169.84361767
73	19	0	0	90	36.1581920903955	36.241610738255	16	0.533371008038521	2	5	6	NaN	1	5	0.0224140145070856	0	1	NaN	190	4	1	1	120	220	320	NaN	520	1.25872609019279	2	0	NaN	4564182.6115971	NaN	4564183.5951272	4564184.11167661
73	19	0	0	90	36.1581920903955	36.241610738255	20	0.666713760048151	2	6	1	NaN	1	5	0.0224140145070856	0	1	NaN	191	4	2	1	120	220	320	NaN	520	2.07511506881565	1	1	NaN	4564186.1954425	NaN	4564187.1788222	4564187.69535873
73	19	0	0	90	36.1581920903955	36.241610738255	10	0.333356880024075	2	3	5	NaN	1	4	0.0224140145070856	0	1	NaN	192	4	3	1	120	220	320	NaN	520	1.32252439018339	2	0	NaN	4564190.5958592	NaN	4564191.5792625	4564192.09579741
73	19	0	0	90	36.1581920903955	36.241610738255	14	0.466699632033706	2	9	2	NaN	2	3	0.0224140145070856	0	1	NaN	193	4	4	1	120	220	320	NaN	520	2.02495893184096	1	0	NaN	4564194.2295427	NaN	4564195.2128323	4564195.72948887
73	19	0	0	90	36.1581920903955	36.241610738255	15	0.500035320036113	2	11	5	NaN	2	5	0.0224140145070856	0	1	NaN	194	4	5	1	120	220	320	NaN	520	2.2722237855196	2	1	NaN	4564198.846595	NaN	4564199.8300668	4564200.34661091
73	19	0	0	90	36.1581920903955	36.241610738255	21	0.700049448050559	2	12	4	NaN	2	3	0.0224140145070856	0	1	NaN	195	4	6	1	120	220	320	NaN	520	2.19184501748532	2	1	NaN	4564203.4471151	NaN	4564204.4305162	4564204.94705088
73	19	0	0	90	36.1581920903955	36.241610738255	25	0.833392200060189	2	2	2	NaN	1	3	0.0224140145070856	0	1	NaN	196	4	7	1	120	220	320	NaN	520	2.2983825225383	1	1	NaN	4564207.9641042	NaN	4564208.9476492	4564209.46416988
73	19	0	0	90	36.1581920903955	36.241610738255	6	0.200014128014445	2	12	2	NaN	2	3	0.0224140145070856	0	1	NaN	197	4	8	1	120	220	320	NaN	520	1.53726308979094	2	1	NaN	4564212.5814341	NaN	4564213.564788	4564214.08128621
73	19	0	0	90	36.1581920903955	36.241610738255	14	0.466699632033706	2	10	4	NaN	2	5	0.0224140145070856	0	1	NaN	198	4	9	1	120	220	320	NaN	520	1.48660822305828	1	0	NaN	4564216.4483966	NaN	4564217.4318731	4564217.94832688
73	19	0	0	90	36.1581920903955	36.241610738255	15	0.500035320036113	2	11	4	NaN	2	3	0.0224140145070856	0	1	NaN	199	4	10	1	120	220	320	NaN	520	1.72596510034055	2	1	NaN	4564220.2487724	NaN	4564221.2321576	4564221.7487199
73	19	0	0	90	36.1581920903955	36.241610738255	16	0.533371008038521	2	4	4	NaN	1	4	0.0224140145070856	0	1	NaN	200	4	11	1	120	220	320	NaN	520	2.86730371788144	2	0	NaN	4564224.2991829	NaN	4564225.2825672	4564225.79909798
73	19	0	0	90	36.1581920903955	36.241610738255	10	0.333356880024075	2	5	2	NaN	1	3	0.0224140145070856	0	1	NaN	201	4	12	1	120	220	320	NaN	520	0.826098780147731	1	1	NaN	4564229.716243	NaN	4564230.6997654	4564231.21630162
73	19	0	0	90	36.1581920903955	36.241610738255	23	0.766720824055374	2	3	3	NaN	1	5	0.0224140145070856	0	1	NaN	202	4	13	1	120	220	320	NaN	520	1.91625332273543	1	1	NaN	4564232.8666616	NaN	4564233.8500881	4564234.36661348
73	19	0	0	90	36.1581920903955	36.241610738255	0	0	1	12	1	NaN	2	3	0.0224140145070856	0	1	NaN	203	4	14	1	110	210	310	NaN	510	0.683991564437747	1	0	NaN	4564237.2504075	NaN	4564238.2338343	4564238.75036544
73	19	0	0	90	36.1581920903955	36.241610738255	23	0.766720824055374	2	1	6	NaN	1	5	0.0224140145070856	0	1	NaN	204	4	15	1	120	220	320	NaN	520	2.58779146522284	2	0	NaN	4564240.250731	NaN	4564241.2341572	4564241.75066403
73	19	0	0	90	36.1581920903955	36.241610738255	23	0.766720824055374	2	6	5	NaN	1	5	0.0224140145070856	0	1	NaN	205	4	16	1	120	220	320	NaN	520	1.38269357010722	1	1	NaN	4564245.1678932	NaN	4564246.1512629	4564246.66780873
73	19	0	0	90	36.1581920903955	36.241610738255	8	0.26668550401926	2	8	1	NaN	2	3	0.0224140145070856	0	1	NaN	206	4	17	1	120	220	320	NaN	520	1.4343854226172	2	1	NaN	4564248.868234	NaN	4564249.851641	4564250.36818588
73	19	0	0	90	36.1581920903955	36.241610738255	24	0.800056512057781	2	10	1	NaN	2	4	0.0224140145070856	0	1	NaN	207	4	18	1	120	220	320	NaN	520	2.80390616971999	1	0	NaN	4564252.6186006	NaN	4564253.6020307	4564254.11854173
73	19	0	0	90	36.1581920903955	36.241610738255	21	0.700049448050559	2	4	4	NaN	1	5	0.0224140145070856	0	1	NaN	208	4	19	1	120	220	320	NaN	520	1.67053236905485	2	0	NaN	4564257.7524514	NaN	4564258.7358687	4564259.25237983
73	19	0	0	90	36.1581920903955	36.241610738255	12	0.400028256028891	2	8	3	NaN	2	4	0.0224140145070856	0	1	NaN	209	4	20	1	120	220	320	NaN	520	2.27789208944887	2	1	NaN	4564261.7528596	NaN	4564262.7362371	4564263.25277401
73	19	0	0	90	36.1581920903955	36.241610738255	16	0.533371008038521	2	3	4	NaN	1	3	0.0224140145070856	0	1	NaN	210	4	21	1	120	220	320	NaN	520	2.46166347991675	2	0	NaN	4564266.3532683	NaN	4564267.3367086	4564267.85323172
73	19	0	0	90	36.1581920903955	36.241610738255	25	0.833392200060189	2	10	2	NaN	2	3	0.0224140145070856	0	1	NaN	211	4	22	1	120	220	320	NaN	520	0.613526317290962	1	0	NaN	4564271.137086	NaN	4564272.1204973	4564272.63702468
73	19	0	0	90	36.1581920903955	36.241610738255	18	0.600042384043336	2	6	4	NaN	1	3	0.0224140145070856	0	1	NaN	212	4	23	1	120	220	320	NaN	520	0.447998138144612	1	1	NaN	4564274.0706014	NaN	4564275.05412	4564275.57065386
73	19	0	0	90	36.1581920903955	36.241610738255	25	0.833392200060189	2	4	2	NaN	1	4	0.0224140145070856	0	1	NaN	213	4	24	1	120	220	320	NaN	520	0.536964668892324	1	1	NaN	4564276.8376456	NaN	4564277.8210494	4564278.33758533
73	19	0	0	90	36.1581920903955	36.241610738255	15	0.500035320036113	2	12	2	NaN	2	3	0.0224140145070856	0	1	NaN	214	4	25	1	120	220	320	NaN	520	1.57497692294419	1	0	NaN	4564279.6879166	NaN	4564280.671332	4564281.18786698
73	19	0	0	90	36.1581920903955	36.241610738255	19	0.633378072045743	2	12	6	NaN	2	4	0.0224140145070856	0	1	NaN	215	4	26	1	120	220	320	NaN	520	0.474724370054901	2	1	NaN	4564283.588253	NaN	4564284.5717922	4564285.08825183
73	19	0	0	90	36.1581920903955	36.241610738255	22	0.733385136052966	2	4	4	NaN	1	4	0.0224140145070856	0	1	NaN	216	4	27	1	120	220	320	NaN	520	0.378121589310467	1	1	NaN	4564286.3886171	NaN	4564287.3720198	4564287.88852801
73	19	0	0	90	36.1581920903955	36.241610738255	8	0.26668550401926	2	6	3	NaN	1	4	0.0224140145070856	0	1	NaN	217	4	28	1	120	220	320	NaN	520	4.00612947437912	2	0	NaN	4564289.0888717	NaN	4564290.0722481	4564290.58880053
73	19	0	0	90	36.1581920903955	36.241610738255	14	0.466699632033706	2	6	2	NaN	1	3	0.0224140145070856	0	1	NaN	218	4	29	1	120	220	320	NaN	520	1.19220997486264	1	1	NaN	4564295.4228154	NaN	4564296.4062169	4564296.92275483
73	19	0	0	90	36.1581920903955	36.241610738255	23	0.766720824055374	2	12	2	NaN	2	5	0.0224140145070856	0	1	NaN	219	4	30	1	120	220	320	NaN	520	0.964399517513812	1	0	NaN	4564301.6899568	NaN	4564302.6734915	4564303.19003028
73	19	0	0	90	36.1581920903955	36.241610738255	7	0.233349816016853	2	2	2	NaN	1	5	0.0224140145070856	0	1	NaN	220	4	31	1	120	220	320	NaN	520	1.091023969464	1	1	NaN	4564305.1230952	NaN	4564306.1071697	4564306.62369433
73	19	0	0	90	36.1581920903955	36.241610738255	23	0.766720824055374	2	5	3	NaN	1	5	0.0224140145070856	0	1	NaN	221	4	32	1	120	220	320	NaN	520	0.825874627567828	2	0	NaN	4564308.5407645	NaN	4564309.5241713	4564310.04070207
73	19	0	0	90	36.1581920903955	36.241610738255	16	0.533371008038521	2	6	3	NaN	1	5	0.0224140145070856	0	1	NaN	222	4	33	1	120	220	320	NaN	520	0.850375021807849	2	0	NaN	4564311.9244337	NaN	4564312.9078203	4564313.42436088
73	19	0	0	90	36.1581920903955	36.241610738255	23	0.766720824055374	2	12	4	NaN	2	5	0.0224140145070856	0	1	NaN	223	4	34	1	120	220	320	NaN	520	2.93077627476305	2	1	NaN	4564315.1080621	NaN	4564316.0915407	4564316.60802103
73	19	0	0	90	36.1581920903955	36.241610738255	24	0.800056512057781	2	6	2	NaN	1	3	0.0224140145070856	0	1	NaN	224	4	35	1	120	220	320	NaN	520	1.05656597018242	1	1	NaN	4564320.3586058	NaN	4564321.3419939	4564321.85853093
73	19	0	0	90	36.1581920903955	36.241610738255	9	0.300021192021668	2	11	2	NaN	2	4	0.0224140145070856	0	1	NaN	225	4	36	1	120	220	320	NaN	520	4.32861908059567	2	1	NaN	4564323.7422483	NaN	4564324.7256498	4564325.24220302
73	19	0	0	90	36.1581920903955	36.241610738255	13	0.433363944031298	2	3	6	NaN	1	5	0.0224140145070856	0	1	NaN	226	4	37	1	120	220	320	NaN	520	2.03012757468969	1	1	NaN	4564330.3929031	NaN	4564331.3763116	4564331.89285123
73	19	0	0	90	36.1581920903955	36.241610738255	20	0.666713760048151	2	8	2	NaN	2	5	0.0224140145070856	0	1	NaN	227	4	38	1	120	220	320	NaN	520	2.56730036903173	2	1	NaN	4564334.7433408	NaN	4564335.7267729	4564336.24327743
73	19	0	0	90	36.1581920903955	36.241610738255	17	0.566706696040928	2	1	6	NaN	1	3	0.0224140145070856	0	1	NaN	228	4	39	1	120	220	320	NaN	520	1.20372183714062	2	0	NaN	4564339.6270132	NaN	4564340.610573	4564341.12709636
73	19	0	0	90	36.1581920903955	36.241610738255	17	0.566706696040928	2	8	3	NaN	2	3	0.0224140145070856	0	1	NaN	229	4	40	1	120	220	320	NaN	520	0.958624669350684	2	1	NaN	4564343.1441355	NaN	4564344.1275796	4564344.64409193
73	19	0	0	90	36.1581920903955	36.241610738255	12	0.400028256028891	2	1	5	NaN	1	5	0.0224140145070856	0	1	NaN	230	4	41	1	120	220	320	NaN	520	0.8353685233742	2	0	NaN	4564346.4279064	NaN	4564347.4112308	4564347.92775998
73	19	0	0	90	36.1581920903955	36.241610738255	0	0	1	4	3	NaN	1	3	0.0224140145070856	0	1	NaN	231	4	42	1	110	210	310	NaN	510	0.500039922073483	1	1	NaN	4564349.5948029	NaN	4564350.578204	4564351.09472968
73	19	0	0	90	36.1581920903955	36.241610738255	10	0.333356880024075	2	2	2	NaN	1	4	0.0224140145070856	0	1	NaN	232	4	43	1	120	220	320	NaN	520	1.57905097026378	1	1	NaN	4564352.4117282	NaN	4564353.3951403	4564353.91166683
73	19	0	0	90	36.1581920903955	36.241610738255	9	0.300021192021668	2	12	5	NaN	2	4	0.0224140145070856	0	1	NaN	233	4	44	1	120	220	320	NaN	520	0.670505775138736	1	0	NaN	4564356.3121139	NaN	4564357.2955603	4564357.81207193
73	19	0	0	90	36.1581920903955	36.241610738255	9	0.300021192021668	2	11	1	NaN	2	4	0.0224140145070856	0	1	NaN	234	4	45	1	120	220	320	NaN	520	1.26255206484348	1	0	NaN	4564359.3124206	NaN	4564360.2958216	4564360.81235163
73	19	0	0	90	36.1581920903955	36.241610738255	20	0.666713760048151	2	11	4	NaN	2	5	0.0224140145070856	0	1	NaN	235	4	46	1	120	220	320	NaN	520	1.41477132774889	2	1	NaN	4564362.8960609	NaN	4564363.8795226	4564364.39603297
73	19	0	0	90	36.1581920903955	36.241610738255	15	0.500035320036113	2	8	1	NaN	2	4	0.0224140145070856	0	1	NaN	236	4	47	1	120	220	320	NaN	520	2.25689612235874	1	0	NaN	4564366.6297965	NaN	4564367.6132007	4564368.12973978
73	19	0	0	90	36.1581920903955	36.241610738255	6	0.200014128014445	2	2	6	NaN	1	3	0.0224140145070856	0	1	NaN	237	4	48	1	120	220	320	NaN	520	1.93757903762162	2	0	NaN	4564371.2135656	NaN	4564372.1969695	4564372.71353036
73	19	0	0	90	36.1581920903955	36.241610738255	10	0.333356880024075	2	6	4	NaN	1	4	0.0224140145070856	0	1	NaN	238	4	49	1	120	220	320	NaN	520	0.878460069186985	1	1	NaN	4564375.480689	NaN	4564376.4640669	4564376.98060823
73	19	0	0	90	36.1581920903955	36.241610738255	25	0.833392200060189	2	12	4	NaN	2	3	0.0224140145070856	0	1	NaN	239	4	50	1	120	220	320	NaN	520	1.99766081664711	2	1	NaN	4564378.6809295	NaN	4564379.6643574	4564380.18091798
73	19	0	0	90	36.1581920903955	36.241610738255	21	0.700049448050559	2	5	2	NaN	1	3	0.0224140145070856	0	1	NaN	240	4	51	1	120	220	320	NaN	520	1.46463572792709	1	1	NaN	4564382.998043	NaN	4564383.9814753	4564384.49801427
73	19	0	0	90	36.1581920903955	36.241610738255	13	0.433363944031298	2	2	6	NaN	1	3	0.0224140145070856	0	1	NaN	241	4	52	1	120	220	320	NaN	520	1.01703591737896	2	0	NaN	4564386.7816794	NaN	4564387.7651948	4564388.28171378
73	19	0	0	90	36.1581920903955	36.241610738255	24	0.800056512057781	2	7	4	NaN	2	3	0.0224140145070856	0	1	NaN	242	4	53	1	120	220	320	NaN	520	0.989459274336696	1	0	NaN	4564390.2654282	NaN	4564391.2488615	4564391.76539613
73	19	0	0	90	36.1581920903955	36.241610738255	14	0.466699632033706	2	9	6	NaN	2	3	0.0224140145070856	0	1	NaN	243	4	54	1	120	220	320	NaN	520	0.832938428036869	1	0	NaN	4564393.5656269	NaN	4564394.5491764	4564395.06570887
73	19	0	0	90	36.1581920903955	36.241610738255	14	0.466699632033706	2	3	2	NaN	1	5	0.0224140145070856	0	1	NaN	244	4	55	1	120	220	320	NaN	520	0.947121317498386	1	1	NaN	4564396.7160821	NaN	4564397.6994884	4564398.21602118
73	19	0	0	90	36.1581920903955	36.241610738255	20	0.666713760048151	2	11	4	NaN	2	3	0.0224140145070856	0	1	NaN	245	4	56	1	120	220	320	NaN	520	0.600126885809004	2	1	NaN	4564399.9830894	NaN	4564400.9664719	4564401.48300841
73	19	0	0	90	36.1581920903955	36.241610738255	9	0.300021192021668	2	9	6	NaN	2	5	0.0224140145070856	0	1	NaN	246	4	57	1	120	220	320	NaN	520	1.59514497499913	1	0	NaN	4564402.9000038	NaN	4564403.8834288	4564404.39996933
73	19	0	0	90	36.1581920903955	36.241610738255	11	0.366692568026483	2	2	5	NaN	1	5	0.0224140145070856	0	1	NaN	247	4	58	1	120	220	320	NaN	520	0.81299716886133	2	0	NaN	4564407.2336703	NaN	4564408.2171817	4564408.73371413
73	19	0	0	90	36.1581920903955	36.241610738255	13	0.433363944031298	2	5	2	NaN	1	5	0.0224140145070856	0	1	NaN	248	4	59	1	120	220	320	NaN	520	1.63948576990515	1	1	NaN	4564410.3674198	NaN	4564411.3508309	4564411.86736753
73	19	0	0	90	36.1581920903955	36.241610738255	25	0.833392200060189	2	11	1	NaN	2	5	0.0224140145070856	0	1	NaN	249	4	60	1	120	220	320	NaN	520	1.17646687012166	2	1	NaN	4564414.3343372	NaN	4564415.317877	4564415.83441333
73	19	0	0	90	36.1581920903955	36.241610738255	10	0.333356880024075	2	10	3	NaN	2	5	0.0224140145070856	0	1	NaN	250	4	61	1	120	220	320	NaN	520	0.931910569779575	1	0	NaN	4564417.8348243	NaN	4564418.8182397	4564419.33476593
73	19	0	0	90	36.1581920903955	36.241610738255	24	0.800056512057781	2	8	2	NaN	2	3	0.0224140145070856	0	1	NaN	251	4	62	1	120	220	320	NaN	520	0.625631369650364	1	0	NaN	4564421.0851457	NaN	4564422.0685631	4564422.58508453
73	19	0	0	90	36.1581920903955	36.241610738255	25	0.833392200060189	2	7	3	NaN	2	4	0.0224140145070856	0	1	NaN	252	4	63	1	120	220	320	NaN	520	2.43577607441694	1	0	NaN	4564424.0354309	NaN	4564425.0188386	4564425.53536643
73	19	0	0	90	36.1581920903955	36.241610738255	6	0.200014128014445	2	6	6	NaN	1	3	0.0224140145070856	0	1	NaN	253	5	1	1	120	220	320	NaN	520	1.70091766957194	2	0	NaN	4564442.553844	NaN	4564443.5373217	4564444.05385263
73	19	0	0	90	36.1581920903955	36.241610738255	14	0.466699632033706	2	5	3	NaN	1	3	0.0224140145070856	0	1	NaN	254	5	2	1	120	220	320	NaN	520	0.947609269060194	1	1	NaN	4564446.5876422	NaN	4564447.5711634	4564448.08757813
73	19	0	0	90	36.1581920903955	36.241610738255	24	0.800056512057781	2	10	2	NaN	2	4	0.0224140145070856	0	1	NaN	255	5	3	1	120	220	320	NaN	520	0.64070681668818	1	0	NaN	4564449.8546757	NaN	4564450.8380377	4564451.35456778
73	19	0	0	90	36.1581920903955	36.241610738255	21	0.700049448050559	2	6	4	NaN	1	4	0.0224140145070856	0	1	NaN	256	5	4	1	120	220	320	NaN	520	0.769130727276206	1	1	NaN	4564452.8216375	NaN	4564453.804992	4564454.32155267
73	19	0	0	90	36.1581920903955	36.241610738255	6	0.200014128014445	2	1	6	NaN	1	3	0.0224140145070856	0	1	NaN	257	5	5	1	120	220	320	NaN	520	1.34960023779422	2	0	NaN	4564455.9052407	NaN	4564456.8886162	4564457.40517326
73	19	0	0	90	36.1581920903955	36.241610738255	19	0.633378072045743	2	4	4	NaN	1	4	0.0224140145070856	0	1	NaN	258	5	6	1	120	220	320	NaN	520	1.1225225655362	1	1	NaN	4564459.5722381	NaN	4564460.5556867	4564461.07219173
73	19	0	0	90	36.1581920903955	36.241610738255	15	0.500035320036113	2	2	2	NaN	1	4	0.0224140145070856	0	1	NaN	259	5	7	1	120	220	320	NaN	520	1.66424971818924	1	1	NaN	4564463.0225638	NaN	4564464.0059985	4564464.52253018
73	19	0	0	90	36.1581920903955	36.241610738255	19	0.633378072045743	2	5	5	NaN	1	3	0.0224140145070856	0	1	NaN	260	5	8	1	120	220	320	NaN	520	1.5289626698941	1	1	NaN	4564467.0061637	NaN	4564467.9897205	4564468.50625723
73	19	0	0	90	36.1581920903955	36.241610738255	14	0.466699632033706	2	12	6	NaN	2	5	0.0224140145070856	0	1	NaN	261	5	9	1	120	220	320	NaN	520	1.78236806951463	2	1	NaN	4564470.8567013	NaN	4564471.8400987	4564472.35662743
73	19	0	0	90	36.1581920903955	36.241610738255	7	0.233349816016853	2	3	2	NaN	1	4	0.0224140145070856	0	1	NaN	262	5	10	1	120	220	320	NaN	520	1.55383894313127	1	1	NaN	4564474.9570879	NaN	4564475.9404972	4564476.45704336
73	19	0	0	90	36.1581920903955	36.241610738255	24	0.800056512057781	2	11	6	NaN	2	4	0.0224140145070856	0	1	NaN	263	5	11	1	120	220	320	NaN	520	1.4942648652941	2	1	NaN	4564478.8408011	NaN	4564479.8242139	4564480.34073993
73	19	0	0	90	36.1581920903955	36.241610738255	15	0.500035320036113	2	7	1	NaN	2	4	0.0224140145070856	0	1	NaN	264	5	12	1	120	220	320	NaN	520	1.61308058537543	1	0	NaN	4564482.6578403	NaN	4564483.6412429	4564484.15778891
73	19	0	0	90	36.1581920903955	36.241610738255	14	0.466699632033706	2	7	4	NaN	2	4	0.0224140145070856	0	1	NaN	265	5	13	1	120	220	320	NaN	520	2.9753307076171	2	1	NaN	4564486.591579	NaN	4564487.5750329	4564488.09151259
73	19	0	0	90	36.1581920903955	36.241610738255	0	0	1	5	4	NaN	1	5	0.0224140145070856	0	1	NaN	266	5	14	1	110	210	310	NaN	510	2.57130432780832	2	0	NaN	4564491.8920674	NaN	4564492.8754809	4564493.39202447
73	19	0	0	90	36.1581920903955	36.241610738255	12	0.400028256028891	2	7	6	NaN	2	4	0.0224140145070856	0	1	NaN	267	5	15	1	120	220	320	NaN	520	1.35871342848986	2	1	NaN	4564496.7925661	NaN	4564497.7759762	4564498.29251777
73	19	0	0	90	36.1581920903955	36.241610738255	8	0.26668550401926	2	10	5	NaN	2	5	0.0224140145070856	0	1	NaN	268	5	16	1	120	220	320	NaN	520	1.83475437480956	2	1	NaN	4564500.4761317	NaN	4564501.4596698	4564501.97621033
73	19	0	0	90	36.1581920903955	36.241610738255	21	0.700049448050559	2	7	2	NaN	2	4	0.0224140145070856	0	1	NaN	269	5	17	1	120	220	320	NaN	520	0.828420288860798	1	0	NaN	4564504.6264998	NaN	4564505.6100977	4564506.12662071
73	19	0	0	90	36.1581920903955	36.241610738255	23	0.766720824055374	2	2	4	NaN	1	5	0.0224140145070856	0	1	NaN	270	5	18	1	120	220	320	NaN	520	2.02198856882751	2	0	NaN	4564507.7769952	NaN	4564508.7603943	4564509.27692033
73	19	0	0	90	36.1581920903955	36.241610738255	14	0.466699632033706	2	1	4	NaN	1	3	0.0224140145070856	0	1	NaN	271	5	19	1	120	220	320	NaN	520	1.00803936459124	1	1	NaN	4564512.9108056	NaN	4564513.8942216	4564514.41075564
73	19	0	0	90	36.1581920903955	36.241610738255	14	0.466699632033706	2	10	4	NaN	2	4	0.0224140145070856	0	1	NaN	272	5	20	1	120	220	320	NaN	520	2.15450541768223	2	1	NaN	4564516.244488	NaN	4564517.2278635	4564517.74441568
73	19	0	0	90	36.1581920903955	36.241610738255	6	0.200014128014445	2	9	4	NaN	2	3	0.0224140145070856	0	1	NaN	273	5	21	1	120	220	320	NaN	520	1.05478588026017	2	1	NaN	4564520.7282618	NaN	4564521.7116549	4564522.22818802
73	19	0	0	90	36.1581920903955	36.241610738255	19	0.633378072045743	2	8	2	NaN	2	4	0.0224140145070856	0	1	NaN	274	5	22	1	120	220	320	NaN	520	1.6956927170977	2	1	NaN	4564524.0952724	NaN	4564525.0786497	4564525.59518628
73	19	0	0	90	36.1581920903955	36.241610738255	6	0.200014128014445	2	7	5	NaN	2	5	0.0224140145070856	0	1	NaN	275	5	23	1	120	220	320	NaN	520	0.486653322353959	1	0	NaN	4564528.1123194	NaN	4564529.0957263	4564529.61224878
73	19	0	0	90	36.1581920903955	36.241610738255	19	0.633378072045743	2	8	4	NaN	2	3	0.0224140145070856	0	1	NaN	276	5	24	1	120	220	320	NaN	520	1.89017421752214	2	1	NaN	4564531.2292646	NaN	4564532.2126845	4564532.72921948
73	19	0	0	90	36.1581920903955	36.241610738255	17	0.566706696040928	2	7	6	NaN	2	5	0.0224140145070856	0	1	NaN	277	5	25	1	120	220	320	NaN	520	2.14499938953668	1	0	NaN	4564535.4463674	NaN	4564536.4298012	4564536.94630341
73	19	0	0	90	36.1581920903955	36.241610738255	18	0.600042384043336	2	6	3	NaN	1	4	0.0224140145070856	0	1	NaN	278	5	26	1	120	220	320	NaN	520	0.781558569520712	1	1	NaN	4564539.9134814	NaN	4564540.89691	4564541.41340853
73	19	0	0	90	36.1581920903955	36.241610738255	6	0.200014128014445	2	10	3	NaN	2	4	0.0224140145070856	0	1	NaN	279	5	27	1	120	220	320	NaN	520	0.641255869530141	2	1	NaN	4564543.01378	NaN	4564543.9971741	4564544.51370873
73	19	0	0	90	36.1581920903955	36.241610738255	22	0.733385136052966	2	11	1	NaN	2	3	0.0224140145070856	0	1	NaN	280	5	28	1	120	220	320	NaN	520	1.71413156948984	2	1	NaN	4564545.9805964	NaN	4564546.964142	4564547.48066783
73	19	0	0	90	36.1581920903955	36.241610738255	22	0.733385136052966	2	10	6	NaN	2	5	0.0224140145070856	0	1	NaN	281	5	29	1	120	220	320	NaN	520	0.656580411829054	2	1	NaN	4564550.0144576	NaN	4564550.9978631	4564551.51439819
73	19	0	0	90	36.1581920903955	36.241610738255	7	0.233349816016853	2	5	5	NaN	1	4	0.0224140145070856	0	1	NaN	282	5	30	1	120	220	320	NaN	520	0.729696869850159	1	1	NaN	4564552.9814119	NaN	4564553.9648176	4564554.48135603
73	19	0	0	90	36.1581920903955	36.241610738255	22	0.733385136052966	2	9	3	NaN	2	3	0.0224140145070856	0	1	NaN	283	5	31	1	120	220	320	NaN	520	1.10371281765401	1	0	NaN	4564556.0317201	NaN	4564557.0151264	4564557.53165368
73	19	0	0	90	36.1581920903955	36.241610738255	8	0.26668550401926	2	2	1	NaN	1	4	0.0224140145070856	0	1	NaN	284	5	32	1	120	220	320	NaN	520	0.466599422506988	2	0	NaN	4564559.9487456	NaN	4564560.9321742	4564561.44870898
73	19	0	0	90	36.1581920903955	36.241610738255	15	0.500035320036113	2	3	2	NaN	1	5	0.0224140145070856	0	1	NaN	285	5	33	1	120	220	320	NaN	520	1.01868926919997	1	1	NaN	4564562.7323755	NaN	4564563.7157781	4564564.23231353
73	19	0	0	90	36.1581920903955	36.241610738255	22	0.733385136052966	2	12	3	NaN	2	5	0.0224140145070856	0	1	NaN	286	5	34	1	120	220	320	NaN	520	0.83619712293148	2	1	NaN	4564566.0826949	NaN	4564567.0661039	4564567.58266468
73	19	0	0	90	36.1581920903955	36.241610738255	18	0.600042384043336	2	12	6	NaN	2	4	0.0224140145070856	0	1	NaN	287	5	35	1	120	220	320	NaN	520	2.11052891239524	2	1	NaN	4564569.2328964	NaN	4564570.2164163	4564570.73294229
73	19	0	0	90	36.1581920903955	36.241610738255	14	0.466699632033706	2	3	6	NaN	1	3	0.0224140145070856	0	1	NaN	288	5	36	1	120	220	320	NaN	520	2.93243637494743	2	0	NaN	4564573.6667631	NaN	4564574.6501984	4564575.16671502
73	19	0	0	90	36.1581920903955	36.241610738255	15	0.500035320036113	2	6	5	NaN	1	5	0.0224140145070856	0	1	NaN	289	5	37	1	120	220	320	NaN	520	1.70612098090351	1	1	NaN	4564578.9173708	NaN	4564579.9006993	4564580.41724172
73	19	0	0	90	36.1581920903955	36.241610738255	25	0.833392200060189	2	8	2	NaN	2	4	0.0224140145070856	0	1	NaN	290	5	38	1	120	220	320	NaN	520	1.10398221760988	1	0	NaN	4564582.9509293	NaN	4564583.9344274	4564584.45096608
73	19	0	0	90	36.1581920903955	36.241610738255	20	0.666713760048151	2	8	4	NaN	2	5	0.0224140145070856	0	1	NaN	291	5	39	1	120	220	320	NaN	520	1.11837042216212	2	1	NaN	4564586.3846909	NaN	4564587.3681033	4564587.88463268
73	19	0	0	90	36.1581920903955	36.241610738255	22	0.733385136052966	2	8	4	NaN	2	5	0.0224140145070856	0	1	NaN	292	5	40	1	120	220	320	NaN	520	0.988555569201708	1	0	NaN	4564589.8182631	NaN	4564590.801655	4564591.31829963
73	19	0	0	90	36.1581920903955	36.241610738255	17	0.566706696040928	2	6	6	NaN	1	3	0.0224140145070856	0	1	NaN	293	5	41	1	120	220	320	NaN	520	0.640103465877473	1	1	NaN	4564593.1353653	NaN	4564594.1187632	4564594.63529663
73	19	0	0	90	36.1581920903955	36.241610738255	12	0.400028256028891	2	10	5	NaN	2	4	0.0224140145070856	0	1	NaN	294	5	42	1	120	220	320	NaN	520	1.03308102209121	1	0	NaN	4564596.1022987	NaN	4564597.0857517	4564597.60225438
73	19	0	0	90	36.1581920903955	36.241610738255	8	0.26668550401926	2	3	6	NaN	1	5	0.0224140145070856	0	1	NaN	295	5	43	1	120	220	320	NaN	520	0.834435369819403	2	0	NaN	4564599.4525138	NaN	4564600.436054	4564600.95257613
73	19	0	0	90	36.1581920903955	36.241610738255	25	0.833392200060189	2	3	2	NaN	1	5	0.0224140145070856	0	1	NaN	296	5	44	1	120	220	320	NaN	520	1.08446604199708	2	0	NaN	4564602.6029514	NaN	4564603.5863518	4564604.10290386
73	19	0	0	90	36.1581920903955	36.241610738255	13	0.433363944031298	2	9	2	NaN	2	5	0.0224140145070856	0	1	NaN	297	5	45	1	120	220	320	NaN	520	1.69181762263179	1	0	NaN	4564606.0032781	NaN	4564606.9866801	4564607.50322938
73	19	0	0	90	36.1581920903955	36.241610738255	23	0.766720824055374	2	11	6	NaN	2	5	0.0224140145070856	0	1	NaN	298	5	46	1	120	220	320	NaN	520	0.625816789455712	2	1	NaN	4564610.2537079	NaN	4564611.2370885	4564611.75365111
73	19	0	0	90	36.1581920903955	36.241610738255	13	0.433363944031298	2	7	6	NaN	2	3	0.0224140145070856	0	1	NaN	299	5	47	1	120	220	320	NaN	520	1.28331452235579	1	0	NaN	4564613.2039929	NaN	4564614.187403	4564614.70393498
73	19	0	0	90	36.1581920903955	36.241610738255	23	0.766720824055374	2	8	3	NaN	2	4	0.0224140145070856	0	1	NaN	300	5	48	1	120	220	320	NaN	520	1.56270256917924	2	1	NaN	4564616.804324	NaN	4564617.7877297	4564618.30428453
73	19	0	0	90	36.1581920903955	36.241610738255	12	0.400028256028891	2	6	2	NaN	1	3	0.0224140145070856	0	1	NaN	301	5	49	1	120	220	320	NaN	520	1.73538362234831	2	0	NaN	4564620.6880591	NaN	4564621.6714417	4564622.18800638
73	19	0	0	90	36.1581920903955	36.241610738255	15	0.500035320036113	2	8	5	NaN	2	5	0.0224140145070856	0	1	NaN	302	5	50	1	120	220	320	NaN	520	2.59609536454082	1	0	NaN	4564624.7550978	NaN	4564625.73853	4564626.25506104
73	19	0	0	90	36.1581920903955	36.241610738255	18	0.600042384043336	2	12	5	NaN	2	3	0.0224140145070856	0	1	NaN	303	5	51	1	120	220	320	NaN	520	0.342843822203577	2	1	NaN	4564629.6722726	NaN	4564630.6556839	4564631.17221678
73	19	0	0	90	36.1581920903955	36.241610738255	13	0.433363944031298	2	5	3	NaN	1	4	0.0224140145070856	0	1	NaN	304	5	52	1	120	220	320	NaN	520	1.99634786974639	2	0	NaN	4564632.3391189	NaN	4564633.3225384	4564633.83914353
73	19	0	0	90	36.1581920903955	36.241610738255	21	0.700049448050559	2	12	2	NaN	2	5	0.0224140145070856	0	1	NaN	305	5	53	1	120	220	320	NaN	520	1.8547147270292	2	1	NaN	4564636.6561673	NaN	4564637.6397032	4564638.15622977
73	19	0	0	90	36.1581920903955	36.241610738255	12	0.400028256028891	2	11	2	NaN	2	3	0.0224140145070856	0	1	NaN	306	5	54	1	120	220	320	NaN	520	2.99970931746066	2	1	NaN	4564640.8233823	NaN	4564641.8067739	4564642.32330898
73	19	0	0	90	36.1581920903955	36.241610738255	17	0.566706696040928	2	3	4	NaN	1	4	0.0224140145070856	0	1	NaN	307	5	55	1	120	220	320	NaN	520	0.130952769890428	1	1	NaN	4564646.1405495	NaN	4564647.1239697	4564647.64051673
73	19	0	0	90	36.1581920903955	36.241610738255	7	0.233349816016853	2	1	3	NaN	1	5	0.0224140145070856	0	1	NaN	308	5	56	1	120	220	320	NaN	520	0.760775469243526	1	1	NaN	4564648.5908564	NaN	4564649.574193	4564650.09073063
73	19	0	0	90	36.1581920903955	36.241610738255	23	0.766720824055374	2	7	2	NaN	2	4	0.0224140145070856	0	1	NaN	309	5	57	1	120	220	320	NaN	520	2.91644982248545	2	1	NaN	4564651.6744315	NaN	4564652.6578241	4564653.17436768
73	19	0	0	90	36.1581920903955	36.241610738255	19	0.633378072045743	2	9	5	NaN	2	3	0.0224140145070856	0	1	NaN	310	5	58	1	120	220	320	NaN	520	0.867214675061405	1	0	NaN	4564656.9084057	NaN	4564657.8916831	4564658.40822082
73	19	0	0	90	36.1581920903955	36.241610738255	19	0.633378072045743	2	3	3	NaN	1	4	0.0224140145070856	0	1	NaN	311	5	59	1	120	220	320	NaN	520	2.66757571697235	2	0	NaN	4564660.091927	NaN	4564661.0753584	4564661.59186808
73	19	0	0	90	36.1581920903955	36.241610738255	9	0.300021192021668	2	9	4	NaN	2	3	0.0224140145070856	0	1	NaN	312	5	60	1	120	220	320	NaN	520	0.867464822717011	1	0	NaN	4564665.0757504	NaN	4564666.0591538	4564666.57568538
73	19	0	0	90	36.1581920903955	36.241610738255	25	0.833392200060189	2	9	3	NaN	2	4	0.0224140145070856	0	1	NaN	313	5	61	1	120	220	320	NaN	520	0.955444169230759	2	1	NaN	4564668.2760171	NaN	4564669.2594712	4564669.77599833
73	19	0	0	90	36.1581920903955	36.241610738255	21	0.700049448050559	2	8	6	NaN	2	5	0.0224140145070856	0	1	NaN	314	5	62	1	120	220	320	NaN	520	0.631964712403715	1	0	NaN	4564671.559711	NaN	4564672.5431173	4564673.05965279
73	19	0	0	90	36.1581920903955	36.241610738255	22	0.733385136052966	2	2	5	NaN	1	3	0.0224140145070856	0	1	NaN	315	5	63	1	120	220	320	NaN	520	2.54510722775012	1	1	NaN	4564674.5100122	NaN	4564675.4934562	4564676.00994737
73	19	0	0	90	36.1581920903955	36.241610738255	9	0.300021192021668	2	3	1	NaN	1	5	0.0224140145070856	0	1	NaN	316	6	1	1	120	220	320	NaN	520	4.403977769427	2	0	NaN	4564705.1797484	NaN	4564706.1630922	4564706.67962233
73	19	0	0	90	36.1581920903955	36.241610738255	19	0.633378072045743	2	1	3	NaN	1	5	0.0224140145070856	0	1	NaN	317	6	2	1	120	220	320	NaN	520	2.86941396538168	2	0	NaN	4564711.9136725	NaN	4564712.8970628	4564713.41361133
73	19	0	0	90	36.1581920903955	36.241610738255	17	0.566706696040928	2	3	4	NaN	1	5	0.0224140145070856	0	1	NaN	318	6	3	1	120	220	320	NaN	520	3.08622716553509	2	0	NaN	4564717.0974082	NaN	4564718.0809714	4564718.59745963
73	19	0	0	90	36.1581920903955	36.241610738255	22	0.733385136052966	2	5	4	NaN	1	4	0.0224140145070856	0	1	NaN	319	6	4	1	120	220	320	NaN	520	2.900445680134	2	0	NaN	4564722.514601	NaN	4564723.4981739	4564724.01467452
73	19	0	0	90	36.1581920903955	36.241610738255	10	0.333356880024075	2	5	1	NaN	1	5	0.0224140145070856	0	1	NaN	320	6	5	1	120	220	320	NaN	520	1.81152453739196	2	0	NaN	4564727.7318134	NaN	4564728.7152066	4564729.23184426
73	19	0	0	90	36.1581920903955	36.241610738255	8	0.26668550401926	2	7	4	NaN	2	5	0.0224140145070856	0	1	NaN	321	6	6	1	120	220	320	NaN	520	2.43756596930325	1	0	NaN	4564731.8656309	NaN	4564732.8490306	4564733.36557263
73	19	0	0	90	36.1581920903955	36.241610738255	8	0.26668550401926	2	12	6	NaN	2	5	0.0224140145070856	0	1	NaN	322	6	7	1	120	220	320	NaN	520	3.48686176538467	2	1	NaN	4564736.632863	NaN	4564737.616083	4564738.13270533
73	19	0	0	90	36.1581920903955	36.241610738255	0	0	1	10	6	NaN	2	4	0.0224140145070856	0	1	NaN	323	6	8	1	110	210	310	NaN	510	0.981350765563548	2	1	NaN	4564742.4500243	NaN	4564743.4334118	4564743.94994473
73	19	0	0	90	36.1581920903955	36.241610738255	0	0	1	10	2	NaN	2	5	0.0224140145070856	0	1	NaN	324	6	9	1	110	210	310	NaN	510	1.9639095896855	2	1	NaN	4564745.8836732	NaN	4564746.8670896	4564747.38362321
73	19	0	0	90	36.1581920903955	36.241610738255	14	0.466699632033706	2	8	4	NaN	2	3	0.0224140145070856	0	1	NaN	325	6	10	1	120	220	320	NaN	520	4.41403596941382	2	1	NaN	4564751.4175453	NaN	4564752.4009448	4564752.91750183
73	19	0	0	90	36.1581920903955	36.241610738255	24	0.800056512057781	2	11	6	NaN	2	4	0.0224140145070856	0	1	NaN	326	6	11	1	120	220	320	NaN	520	1.65593216568232	2	1	NaN	4564758.1515613	NaN	4564759.1349541	4564759.65149453
73	19	0	0	90	36.1581920903955	36.241610738255	7	0.233349816016853	2	7	4	NaN	2	4	0.0224140145070856	0	1	NaN	327	6	12	1	120	220	320	NaN	520	0.935981075279415	1	0	NaN	4564762.1351865	NaN	4564763.1186736	4564763.63522342
73	19	0	0	90	36.1581920903955	36.241610738255	12	0.400028256028891	2	2	4	NaN	1	4	0.0224140145070856	0	1	NaN	328	6	13	1	120	220	320	NaN	520	0.750059822574258	2	0	NaN	4564765.3856312	NaN	4564766.3690156	4564766.88553588
73	19	0	0	90	36.1581920903955	36.241610738255	18	0.600042384043336	2	4	3	NaN	1	4	0.0224140145070856	0	1	NaN	329	6	14	1	120	220	320	NaN	520	0.419030216522515	2	0	NaN	4564768.4525423	NaN	4564769.4359556	4564769.95250768
73	19	0	0	90	36.1581920903955	36.241610738255	7	0.233349816016853	2	12	1	NaN	2	5	0.0224140145070856	0	1	NaN	330	6	15	1	120	220	320	NaN	520	0.492696622386575	2	1	NaN	4564771.2027579	NaN	4564772.1862357	4564772.70277358
73	19	0	0	90	36.1581920903955	36.241610738255	17	0.566706696040928	2	4	3	NaN	1	4	0.0224140145070856	0	1	NaN	331	6	16	1	120	220	320	NaN	520	0.555394123308361	1	1	NaN	4564774.0197823	NaN	4564775.0031803	4564775.51971298
73	19	0	0	90	36.1581920903955	36.241610738255	7	0.233349816016853	2	6	6	NaN	1	3	0.0224140145070856	0	1	NaN	332	6	17	1	120	220	320	NaN	520	0.288026022724807	1	1	NaN	4564776.9033716	NaN	4564777.8868006	4564778.40333098
73	19	0	0	90	36.1581920903955	36.241610738255	9	0.300021192021668	2	5	1	NaN	1	3	0.0224140145070856	0	1	NaN	333	6	18	1	120	220	320	NaN	520	0.655092317610979	1	1	NaN	4564779.5203254	NaN	4564780.5037185	4564781.02025778
73	19	0	0	90	36.1581920903955	36.241610738255	6	0.200014128014445	2	4	5	NaN	1	5	0.0224140145070856	0	1	NaN	334	6	19	1	120	220	320	NaN	520	1.84731054212898	1	1	NaN	4564782.503939	NaN	4564783.4873461	4564784.00388566
73	19	0	0	90	36.1581920903955	36.241610738255	18	0.600042384043336	2	7	2	NaN	2	5	0.0224140145070856	0	1	NaN	335	6	20	1	120	220	320	NaN	520	1.91215726919472	2	1	NaN	4564786.6710268	NaN	4564787.654424	4564788.17095513
73	19	0	0	90	36.1581920903955	36.241610738255	10	0.333356880024075	2	11	6	NaN	2	4	0.0224140145070856	0	1	NaN	336	6	21	1	120	220	320	NaN	520	1.37453362252563	2	1	NaN	4564790.9047629	NaN	4564791.8881771	4564792.40471058
73	19	0	0	90	36.1581920903955	36.241610738255	16	0.533371008038521	2	5	5	NaN	1	5	0.0224140145070856	0	1	NaN	337	6	22	1	120	220	320	NaN	520	0.458286427892745	1	1	NaN	4564794.6049884	NaN	4564795.5885338	4564796.10506447
73	19	0	0	90	36.1581920903955	36.241610738255	11	0.366692568026483	2	1	5	NaN	1	4	0.0224140145070856	0	1	NaN	338	6	23	1	120	220	320	NaN	520	1.85098442249	2	0	NaN	4564797.3887528	NaN	4564798.3721496	4564798.88868188
73	19	0	0	90	36.1581920903955	36.241610738255	22	0.733385136052966	2	2	6	NaN	1	3	0.0224140145070856	0	1	NaN	339	6	24	1	120	220	320	NaN	520	3.40321088954806	1	1	NaN	4564801.5724887	NaN	4564802.5559056	4564803.07243451
73	19	0	0	90	36.1581920903955	36.241610738255	19	0.633378072045743	2	10	5	NaN	2	5	0.0224140145070856	0	1	NaN	340	6	25	1	120	220	320	NaN	520	1.01312651764601	2	1	NaN	4564807.3062236	NaN	4564808.2897803	4564808.80631308
73	19	0	0	90	36.1581920903955	36.241610738255	13	0.433363944031298	2	6	5	NaN	1	3	0.0224140145070856	0	1	NaN	341	6	26	1	120	220	320	NaN	520	1.35596377030015	2	0	NaN	4564811.723455	NaN	4564812.7068447	4564813.22341533
73	19	0	0	90	36.1581920903955	36.241610738255	7	0.233349816016853	2	4	5	NaN	1	3	0.0224140145070856	0	1	NaN	342	6	27	1	120	220	320	NaN	520	5.72059527412057	1	1	NaN	4564815.4071992	NaN	4564816.3906209	4564816.90711763
73	19	0	0	90	36.1581920903955	36.241610738255	18	0.600042384043336	2	10	1	NaN	2	3	0.0224140145070856	0	1	NaN	343	6	28	1	120	220	320	NaN	520	2.34976412262768	2	1	NaN	4564823.4579962	NaN	4564824.4413993	4564824.95790318
73	19	0	0	90	36.1581920903955	36.241610738255	16	0.533371008038521	2	11	2	NaN	2	4	0.0224140145070856	0	1	NaN	344	6	29	1	120	220	320	NaN	520	2.06665831711143	2	1	NaN	4564828.1250932	NaN	4564829.108492	4564829.62502998
73	19	0	0	90	36.1581920903955	36.241610738255	24	0.800056512057781	2	12	3	NaN	2	4	0.0224140145070856	0	1	NaN	345	6	30	1	120	220	320	NaN	520	1.25894967000932	1	0	NaN	4564832.5088626	NaN	4564833.4922697	4564834.00878573
73	19	0	0	90	36.1581920903955	36.241610738255	11	0.366692568026483	2	7	6	NaN	2	4	0.0224140145070856	0	1	NaN	346	6	31	1	120	220	320	NaN	520	0.508049516938627	2	1	NaN	4564836.0758824	NaN	4564837.059238	4564837.57580558
73	19	0	0	90	36.1581920903955	36.241610738255	17	0.566706696040928	2	10	3	NaN	2	4	0.0224140145070856	0	1	NaN	347	6	32	1	120	220	320	NaN	520	2.69020076934248	2	1	NaN	4564838.909468	NaN	4564839.8928773	4564840.40942233
73	19	0	0	90	36.1581920903955	36.241610738255	16	0.533371008038521	2	2	6	NaN	1	5	0.0224140145070856	0	1	NaN	348	6	33	1	120	220	320	NaN	520	2.15276354923844	1	1	NaN	4564843.9265878	NaN	4564844.9100398	4564845.42657235
73	19	0	0	90	36.1581920903955	36.241610738255	25	0.833392200060189	2	10	2	NaN	2	4	0.0224140145070856	0	1	NaN	349	6	34	1	120	220	320	NaN	520	1.72571286931634	1	0	NaN	4564848.393625	NaN	4564849.3771489	4564849.89367873
73	19	0	0	90	36.1581920903955	36.241610738255	18	0.600042384043336	2	5	6	NaN	1	3	0.0224140145070856	0	1	NaN	350	6	35	1	120	220	320	NaN	520	1.26709192339331	1	1	NaN	4564852.4441253	NaN	4564853.4275441	4564853.94407558
73	19	0	0	90	36.1581920903955	36.241610738255	9	0.300021192021668	2	1	3	NaN	1	4	0.0224140145070856	0	1	NaN	351	6	36	1	120	220	320	NaN	520	1.02733576949686	1	1	NaN	4564856.0444909	NaN	4564857.0278945	4564857.54443063
73	19	0	0	90	36.1581920903955	36.241610738255	19	0.633378072045743	2	5	2	NaN	1	5	0.0224140145070856	0	1	NaN	352	6	37	1	120	220	320	NaN	520	0.676931380294263	2	0	NaN	4564859.3948669	NaN	4564860.3782375	4564860.89478312
73	19	0	0	90	36.1581920903955	36.241610738255	20	0.666713760048151	2	12	4	NaN	2	5	0.0224140145070856	0	1	NaN	353	6	38	1	120	220	320	NaN	520	0.577092869207263	1	0	NaN	4564862.4784349	NaN	4564863.4618584	4564863.97839803
73	19	0	0	90	36.1581920903955	36.241610738255	23	0.766720824055374	2	4	5	NaN	1	4	0.0224140145070856	0	1	NaN	354	6	39	1	120	220	320	NaN	520	0.780594216659665	1	1	NaN	4564865.3787515	NaN	4564866.3621701	4564866.87867528
73	19	0	0	90	36.1581920903955	36.241610738255	23	0.766720824055374	2	2	2	NaN	1	3	0.0224140145070856	0	1	NaN	355	6	40	1	120	220	320	NaN	520	1.59337728004903	1	1	NaN	4564868.662407	NaN	4564869.6457979	4564870.16234002
73	19	0	0	90	36.1581920903955	36.241610738255	9	0.300021192021668	2	6	1	NaN	1	5	0.0224140145070856	0	1	NaN	356	6	41	1	120	220	320	NaN	520	1.91627842839807	1	1	NaN	4564872.5794453	NaN	4564873.5628379	4564874.07938567
73	19	0	0	90	36.1581920903955	36.241610738255	24	0.800056512057781	2	1	2	NaN	1	5	0.0224140145070856	0	1	NaN	357	6	42	1	120	220	320	NaN	520	1.19468686915934	1	1	NaN	4564876.8130757	NaN	4564877.7965995	4564878.31314273
73	19	0	0	90	36.1581920903955	36.241610738255	18	0.600042384043336	2	1	1	NaN	1	3	0.0224140145070856	0	1	NaN	358	6	43	1	120	220	320	NaN	520	1.27732552215457	1	1	NaN	4564880.3302378	NaN	4564881.3136476	4564881.83015428
73	19	0	0	90	36.1581920903955	36.241610738255	12	0.400028256028891	2	12	3	NaN	2	3	0.0224140145070856	0	1	NaN	359	6	44	1	120	220	320	NaN	520	0.316919869743288	2	1	NaN	4564883.9305793	NaN	4564884.9139419	4564885.43050223
73	19	0	0	90	36.1581920903955	36.241610738255	10	0.333356880024075	2	11	4	NaN	2	3	0.0224140145070856	0	1	NaN	360	6	45	1	120	220	320	NaN	520	4.41979401744902	2	1	NaN	4564886.5641348	NaN	4564887.5475749	4564888.06409358
73	19	0	0	90	36.1581920903955	36.241610738255	15	0.500035320036113	2	7	5	NaN	2	5	0.0224140145070856	0	1	NaN	361	6	46	1	120	220	320	NaN	520	0.62908112257719	1	0	NaN	4564893.3148047	NaN	4564894.2982145	4564894.81475648
73	19	0	0	90	36.1581920903955	36.241610738255	22	0.733385136052966	2	7	4	NaN	2	4	0.0224140145070856	0	1	NaN	362	6	47	1	120	220	320	NaN	520	0.590434874407947	1	0	NaN	4564896.2651144	NaN	4564897.2485161	4564897.76505303
73	19	0	0	90	36.1581920903955	36.241610738255	9	0.300021192021668	2	2	4	NaN	1	4	0.0224140145070856	0	1	NaN	363	6	48	1	120	220	320	NaN	520	0.791308765299618	2	0	NaN	4564899.2320449	NaN	4564900.2154686	4564900.73199583
73	19	0	0	90	36.1581920903955	36.241610738255	10	0.333356880024075	2	7	4	NaN	2	5	0.0224140145070856	0	1	NaN	364	6	49	1	120	220	320	NaN	520	0.899292879737914	2	1	NaN	4564902.5323739	NaN	4564903.5157901	4564904.03233362
73	19	0	0	90	36.1581920903955	36.241610738255	13	0.433363944031298	2	4	3	NaN	1	3	0.0224140145070856	0	1	NaN	365	6	50	1	120	220	320	NaN	520	3.51240612287074	1	1	NaN	4564905.9993647	NaN	4564906.9828256	4564907.49933568
73	19	0	0	90	36.1581920903955	36.241610738255	20	0.666713760048151	2	1	3	NaN	1	3	0.0224140145070856	0	1	NaN	366	6	51	1	120	220	320	NaN	520	2.00935611780733	2	0	NaN	4564913.9502679	NaN	4564914.9335782	4564915.45011708
73	19	0	0	90	36.1581920903955	36.241610738255	10	0.333356880024075	2	10	2	NaN	2	5	0.0224140145070856	0	1	NaN	367	6	52	1	120	220	320	NaN	520	1.93927111756057	1	0	NaN	4564918.3006011	NaN	4564919.284003	4564919.80054568
73	19	0	0	90	36.1581920903955	36.241610738255	13	0.433363944031298	2	6	1	NaN	1	4	0.0224140145070856	0	1	NaN	368	6	53	1	120	220	320	NaN	520	1.03782356996089	1	1	NaN	4564933.8022356	NaN	4564934.7855278	4564935.30206323
73	19	0	0	90	36.1581920903955	36.241610738255	9	0.300021192021668	2	10	4	NaN	2	4	0.0224140145070856	0	1	NaN	369	6	54	1	120	220	320	NaN	520	0.527041669934988	1	0	NaN	4564937.1524689	NaN	4564938.135869	4564938.65239133
73	19	0	0	90	36.1581920903955	36.241610738255	20	0.666713760048151	2	5	1	NaN	1	3	0.0224140145070856	0	1	NaN	370	6	55	1	120	220	320	NaN	520	0.812848837114871	1	1	NaN	4564940.0027736	NaN	4564940.9861637	4564941.50267536
73	19	0	0	90	36.1581920903955	36.241610738255	17	0.566706696040928	2	12	5	NaN	2	5	0.0224140145070856	0	1	NaN	371	6	56	1	120	220	320	NaN	520	1.27902096509933	2	1	NaN	4564943.1363805	NaN	4564944.1197739	4564944.63630223
73	19	0	0	90	36.1581920903955	36.241610738255	7	0.233349816016853	2	8	4	NaN	2	4	0.0224140145070856	0	1	NaN	372	6	57	1	120	220	320	NaN	520	0.958690589293838	1	0	NaN	4564946.7367294	NaN	4564947.7201447	4564948.23667641
73	19	0	0	90	36.1581920903955	36.241610738255	8	0.26668550401926	2	11	4	NaN	2	4	0.0224140145070856	0	1	NaN	373	6	58	1	120	220	320	NaN	520	0.755885222926736	2	1	NaN	4564950.0035854	NaN	4564950.9870982	4564951.50365228
73	19	0	0	90	36.1581920903955	36.241610738255	25	0.833392200060189	2	6	1	NaN	1	3	0.0224140145070856	0	1	NaN	374	6	59	1	120	220	320	NaN	520	0.184194480068982	1	1	NaN	4564953.0873723	NaN	4564954.0708558	4564954.58728732
73	19	0	0	90	36.1581920903955	36.241610738255	16	0.533371008038521	2	8	5	NaN	2	4	0.0224140145070856	0	1	NaN	375	6	60	1	120	220	320	NaN	520	0.603629468940198	1	0	NaN	4564955.6042696	NaN	4564956.5876526	4564957.10419703
73	19	0	0	90	36.1581920903955	36.241610738255	18	0.600042384043336	2	8	1	NaN	2	3	0.0224140145070856	0	1	NaN	376	6	61	1	120	220	320	NaN	520	3.33408281765878	1	0	NaN	4564958.5379051	NaN	4564959.5212952	4564960.03782238
73	19	0	0	90	36.1581920903955	36.241610738255	11	0.366692568026483	2	1	4	NaN	1	3	0.0224140145070856	0	1	NaN	377	6	62	1	120	220	320	NaN	520	4.08288002293557	1	1	NaN	4564964.2049977	NaN	4564965.1885108	4564965.70504558
73	19	0	0	90	36.1581920903955	36.241610738255	14	0.466699632033706	2	5	5	NaN	1	3	0.0224140145070856	0	1	NaN	378	6	63	1	120	220	320	NaN	520	0.970149422995746	1	1	NaN	4564970.60569	NaN	4564971.589087	4564972.10566518
73	19	0	0	90	36.1581920903955	36.241610738255	18	0.600042384043336	2	3	1	NaN	1	4	0.0224140145070856	0	1	NaN	379	7	1	1	120	220	320	NaN	520	2.1748335165903	2	0	NaN	4564993.6245303	NaN	4564994.6080688	4564995.12460478
73	19	0	0	90	36.1581920903955	36.241610738255	19	0.633378072045743	2	11	1	NaN	2	3	0.0224140145070856	0	1	NaN	380	7	2	1	120	220	320	NaN	520	1.54634782299399	2	1	NaN	4564998.3251024	NaN	4564999.3085174	4564999.82505628
73	19	0	0	90	36.1581920903955	36.241610738255	12	0.400028256028891	2	11	3	NaN	2	3	0.0224140145070856	0	1	NaN	381	7	3	1	120	220	320	NaN	520	0.983677069656551	2	1	NaN	4565002.1921567	NaN	4565003.1755881	4565003.69210963
73	19	0	0	90	36.1581920903955	36.241610738255	25	0.833392200060189	2	9	3	NaN	2	5	0.0224140145070856	0	1	NaN	382	7	4	1	120	220	320	NaN	520	0.968795075081289	2	1	NaN	4565005.9590613	NaN	4565006.9425959	4565007.45914833
73	19	0	0	90	36.1581920903955	36.241610738255	6	0.200014128014445	2	3	6	NaN	1	3	0.0224140145070856	0	1	NaN	383	7	5	1	120	220	320	NaN	520	0.676437869668007	1	1	NaN	4565009.2593963	NaN	4565010.2429311	4565010.75946713
73	19	0	0	90	36.1581920903955	36.241610738255	16	0.533371008038521	2	2	1	NaN	1	3	0.0224140145070856	0	1	NaN	384	7	6	1	120	220	320	NaN	520	0.881437822245061	2	0	NaN	4565012.9265731	NaN	4565013.909961	4565014.42650008
73	19	0	0	90	36.1581920903955	36.241610738255	22	0.733385136052966	2	5	6	NaN	1	4	0.0224140145070856	0	1	NaN	385	7	7	1	120	220	320	NaN	520	1.78072661720216	1	1	NaN	4565120.3869683	NaN	4565121.3705891	4565121.88704408
73	19	0	0	90	36.1581920903955	36.241610738255	24	0.800056512057781	2	2	5	NaN	1	5	0.0224140145070856	0	1	NaN	386	7	8	1	120	220	320	NaN	520	1.62425241712481	1	1	NaN	4565124.487523	NaN	4565125.4708932	4565125.98743968
73	19	0	0	90	36.1581920903955	36.241610738255	12	0.400028256028891	2	1	1	NaN	1	5	0.0224140145070856	0	1	NaN	387	7	9	1	120	220	320	NaN	520	1.17777248006314	1	1	NaN	4565128.4378927	NaN	4565129.4213033	4565129.93783772
73	19	0	0	90	36.1581920903955	36.241610738255	15	0.500035320036113	2	9	2	NaN	2	5	0.0224140145070856	0	1	NaN	388	7	10	1	120	220	320	NaN	520	0.82154901791364	1	0	NaN	4565131.9382372	NaN	4565132.9216201	4565133.43816698
73	19	0	0	90	36.1581920903955	36.241610738255	10	0.333356880024075	2	9	6	NaN	2	5	0.0224140145070856	0	1	NaN	389	7	11	1	120	220	320	NaN	520	0.896305922418833	1	0	NaN	4565135.0718846	NaN	4565136.0553146	4565136.57182318
73	19	0	0	90	36.1581920903955	36.241610738255	21	0.700049448050559	2	11	1	NaN	2	5	0.0224140145070856	0	1	NaN	390	7	12	1	120	220	320	NaN	520	0.206964217126369	2	1	NaN	4565138.288924	NaN	4565139.2722355	4565139.78880258
73	19	0	0	90	36.1581920903955	36.241610738255	23	0.766720824055374	2	3	5	NaN	1	4	0.0224140145070856	0	1	NaN	391	7	13	1	120	220	320	NaN	520	2.18986041750759	1	1	NaN	4565140.9224458	NaN	4565141.9057867	4565142.42239348
73	19	0	0	90	36.1581920903955	36.241610738255	7	0.233349816016853	2	6	3	NaN	1	5	0.0224140145070856	0	1	NaN	392	7	14	1	120	220	320	NaN	520	1.00837301742285	1	1	NaN	4565145.439559	NaN	4565146.4229689	4565146.93949598
73	19	0	0	90	36.1581920903955	36.241610738255	12	0.400028256028891	2	9	5	NaN	2	5	0.0224140145070856	0	1	NaN	393	7	15	1	120	220	320	NaN	520	0.466965979896486	2	1	NaN	4565148.7732225	NaN	4565149.7566315	4565150.27318092
73	19	0	0	90	36.1581920903955	36.241610738255	24	0.800056512057781	2	4	2	NaN	1	3	0.0224140145070856	0	1	NaN	394	7	16	1	120	220	320	NaN	520	0.619372442364693	1	1	NaN	4565151.5566897	NaN	4565152.5402178	4565153.05677236
73	19	0	0	90	36.1581920903955	36.241610738255	24	0.800056512057781	2	8	5	NaN	2	5	0.0224140145070856	0	1	NaN	395	7	17	1	120	220	320	NaN	520	1.3493676232174	1	0	NaN	4565154.490453	NaN	4565155.4738608	4565155.99038528
73	19	0	0	90	36.1581920903955	36.241610738255	6	0.200014128014445	2	4	6	NaN	1	3	0.0224140145070856	0	1	NaN	396	7	18	1	120	220	320	NaN	520	0.482423874549568	1	1	NaN	4565158.1575037	NaN	4565159.1409018	4565159.65741963
73	19	0	0	90	36.1581920903955	36.241610738255	18	0.600042384043336	2	8	2	NaN	2	5	0.0224140145070856	0	1	NaN	397	7	19	1	120	220	320	NaN	520	0.802015479654074	2	1	NaN	4565160.9577385	NaN	4565161.9411389	4565162.45769072
73	19	0	0	90	36.1581920903955	36.241610738255	25	0.833392200060189	2	12	3	NaN	2	5	0.0224140145070856	0	1	NaN	398	7	20	1	120	220	320	NaN	520	0.436160837300122	1	0	NaN	4565164.0913965	NaN	4565165.0748134	4565165.59133756
73	19	0	0	90	36.1581920903955	36.241610738255	20	0.666713760048151	2	6	1	NaN	1	5	0.0224140145070856	0	1	NaN	399	7	21	1	120	220	320	NaN	520	0.75761148892343	2	0	NaN	4565166.8583244	NaN	4565167.8417406	4565168.35826711
73	19	0	0	90	36.1581920903955	36.241610738255	25	0.833392200060189	2	6	1	NaN	1	3	0.0224140145070856	0	1	NaN	400	7	22	1	120	220	320	NaN	520	0.0104655222967267	1	1	NaN	4565169.9420079	NaN	4565170.9253954	4565171.44192808
73	19	0	0	90	36.1581920903955	36.241610738255	19	0.633378072045743	2	6	5	NaN	1	3	0.0224140145070856	0	1	NaN	401	7	23	1	120	220	320	NaN	520	0.924067174084485	1	1	NaN	4565172.2754024	NaN	4565173.258962	4565173.77547413
73	19	0	0	90	36.1581920903955	36.241610738255	7	0.233349816016853	2	10	5	NaN	2	4	0.0224140145070856	0	1	NaN	402	7	24	1	120	220	320	NaN	520	2.18624686915427	1	0	NaN	4565175.5258386	NaN	4565176.5092563	4565177.02579013
73	19	0	0	90	36.1581920903955	36.241610738255	7	0.233349816016853	2	11	6	NaN	2	4	0.0224140145070856	0	1	NaN	403	7	25	1	120	220	320	NaN	520	3.004742722027	2	1	NaN	4565180.0429458	NaN	4565181.0263983	4565181.54290338
73	19	0	0	90	36.1581920903955	36.241610738255	19	0.633378072045743	2	6	5	NaN	1	5	0.0224140145070856	0	1	NaN	404	7	26	1	120	220	320	NaN	520	1.04739097412676	1	1	NaN	4565185.3768094	NaN	4565186.3602192	4565186.87675733
73	19	0	0	90	36.1581920903955	36.241610738255	9	0.300021192021668	2	3	4	NaN	1	3	0.0224140145070856	0	1	NaN	405	7	27	1	120	220	320	NaN	520	2.46408182196319	1	1	NaN	4565188.7438689	NaN	4565189.7272104	4565190.24375518
73	19	0	0	90	36.1581920903955	36.241610738255	13	0.433363944031298	2	11	4	NaN	2	4	0.0224140145070856	0	1	NaN	406	7	28	1	120	220	320	NaN	520	2.9043551273644	2	1	NaN	4565193.5274797	NaN	4565194.5110336	4565195.02755197
73	19	0	0	90	36.1581920903955	36.241610738255	8	0.26668550401926	2	5	2	NaN	1	5	0.0224140145070856	0	1	NaN	407	7	29	1	120	220	320	NaN	520	1.12646818906069	1	1	NaN	4565198.7613243	NaN	4565199.7448682	4565200.26140451
73	19	0	0	90	36.1581920903955	36.241610738255	25	0.833392200060189	2	8	6	NaN	2	5	0.0224140145070856	0	1	NaN	408	7	30	1	120	220	320	NaN	520	1.3562933690846	2	1	NaN	4565202.2118257	NaN	4565203.1952262	4565203.71176043
73	19	0	0	90	36.1581920903955	36.241610738255	6	0.200014128014445	2	6	6	NaN	1	4	0.0224140145070856	0	1	NaN	409	7	31	1	120	220	320	NaN	520	0.960415084846318	2	0	NaN	4565205.8954977	NaN	4565206.8789199	4565207.39543092
73	19	0	0	90	36.1581920903955	36.241610738255	13	0.433363944031298	2	7	3	NaN	2	3	0.0224140145070856	0	1	NaN	410	7	32	1	120	220	320	NaN	520	1.94876423291862	1	0	NaN	4565209.1791458	NaN	4565210.162567	4565210.67910217
73	19	0	0	90	36.1581920903955	36.241610738255	14	0.466699632033706	2	11	4	NaN	2	4	0.0224140145070856	0	1	NaN	411	7	33	1	120	220	320	NaN	520	2.02625708468258	2	1	NaN	4565213.4462613	NaN	4565214.429655	4565214.94617462
73	19	0	0	90	36.1581920903955	36.241610738255	23	0.766720824055374	2	8	6	NaN	2	5	0.0224140145070856	0	1	NaN	412	7	34	1	120	220	320	NaN	520	1.491449364461	2	1	NaN	4565217.7967304	NaN	4565218.7800466	4565219.29660624
73	19	0	0	90	36.1581920903955	36.241610738255	21	0.700049448050559	2	3	5	NaN	1	4	0.0224140145070856	0	1	NaN	413	7	35	1	120	220	320	NaN	520	0.162228116765618	2	0	NaN	4565221.6136879	NaN	4565222.5970962	4565223.11363818
73	19	0	0	90	36.1581920903955	36.241610738255	7	0.233349816016853	2	12	1	NaN	2	4	0.0224140145070856	0	1	NaN	414	7	36	1	120	220	320	NaN	520	2.42282866965979	2	1	NaN	4565224.097316	NaN	4565225.0806912	4565225.59721583
73	19	0	0	90	36.1581920903955	36.241610738255	11	0.366692568026483	2	4	2	NaN	1	4	0.0224140145070856	0	1	NaN	415	7	37	1	120	220	320	NaN	520	1.1440034173429	1	1	NaN	4565228.8476108	NaN	4565229.8311579	4565230.34774528
73	19	0	0	90	36.1581920903955	36.241610738255	16	0.533371008038521	2	9	2	NaN	2	4	0.0224140145070856	0	1	NaN	416	7	38	1	120	220	320	NaN	520	2.2535274233669	2	1	NaN	4565232.3146255	NaN	4565233.2981645	4565233.81468998
73	19	0	0	90	36.1581920903955	36.241610738255	22	0.733385136052966	2	6	2	NaN	1	4	0.0224140145070856	0	1	NaN	417	7	39	1	120	220	320	NaN	520	0.709463022649288	1	1	NaN	4565236.8984888	NaN	4565237.8819653	4565238.39847868
73	19	0	0	90	36.1581920903955	36.241610738255	7	0.233349816016853	2	9	1	NaN	2	5	0.0224140145070856	0	1	NaN	418	7	40	1	120	220	320	NaN	520	0.772198669612408	2	1	NaN	4565239.9321799	NaN	4565240.9155748	4565241.43210873
73	19	0	0	90	36.1581920903955	36.241610738255	15	0.500035320036113	2	1	4	NaN	1	4	0.0224140145070856	0	1	NaN	419	7	41	1	120	220	320	NaN	520	0.560192669741809	1	1	NaN	4565243.0156888	NaN	4565243.9992076	4565244.51573953
73	19	0	0	90	36.1581920903955	36.241610738255	8	0.26668550401926	2	11	3	NaN	2	5	0.0224140145070856	0	1	NaN	420	7	42	1	120	220	320	NaN	520	1.10057602263987	2	1	NaN	4565245.8994118	NaN	4565246.8828394	4565247.39935418
73	19	0	0	90	36.1581920903955	36.241610738255	21	0.700049448050559	2	11	3	NaN	2	5	0.0224140145070856	0	1	NaN	421	7	43	1	120	220	320	NaN	520	0.587413869798183	1	0	NaN	4565249.3164305	NaN	4565250.299852	4565250.81636143
73	19	0	0	90	36.1581920903955	36.241610738255	16	0.533371008038521	2	9	3	NaN	2	5	0.0224140145070856	0	1	NaN	422	7	44	1	120	220	320	NaN	520	0.966503469273448	1	0	NaN	4565252.2332477	NaN	4565253.2167788	4565253.73331353
73	19	0	0	90	36.1581920903955	36.241610738255	11	0.366692568026483	2	2	3	NaN	1	3	0.0224140145070856	0	1	NaN	423	7	45	1	120	220	320	NaN	520	1.39538649003953	1	1	NaN	4565255.5170366	NaN	4565256.5004225	4565257.01698321
73	19	0	0	90	36.1581920903955	36.241610738255	8	0.26668550401926	2	3	3	NaN	1	3	0.0224140145070856	0	1	NaN	424	7	46	1	120	220	320	NaN	520	0.80640087928623	1	1	NaN	4565259.2341009	NaN	4565260.217478	4565260.73401052
73	19	0	0	90	36.1581920903955	36.241610738255	19	0.633378072045743	2	2	3	NaN	1	4	0.0224140145070856	0	1	NaN	425	7	47	1	120	220	320	NaN	520	0.97618777025491	1	1	NaN	4565262.3677043	NaN	4565263.3509967	4565263.86763643
73	19	0	0	90	36.1581920903955	36.241610738255	8	0.26668550401926	2	4	3	NaN	1	4	0.0224140145070856	0	1	NaN	426	7	48	1	120	220	320	NaN	520	1.85991488024592	2	0	NaN	4565265.6680079	NaN	4565266.6514422	4565267.16796912
73	19	0	0	90	36.1581920903955	36.241610738255	6	0.200014128014445	2	9	1	NaN	2	4	0.0224140145070856	0	1	NaN	427	7	49	1	120	220	320	NaN	520	3.02856906503439	1	0	NaN	4565269.8517723	NaN	4565270.8351987	4565271.35171574
73	19	0	0	90	36.1581920903955	36.241610738255	12	0.400028256028891	2	2	5	NaN	1	3	0.0224140145070856	0	1	NaN	428	7	50	1	120	220	320	NaN	520	3.36582237947732	1	1	NaN	4565275.2022864	NaN	4565276.1857443	4565276.70223242
73	19	0	0	90	36.1581920903955	36.241610738255	15	0.500035320036113	2	4	1	NaN	1	5	0.0224140145070856	0	1	NaN	429	7	51	1	120	220	320	NaN	520	0.897844336926937	2	0	NaN	4565280.8861788	NaN	4565281.8696223	4565282.38612576
73	19	0	0	90	36.1581920903955	36.241610738255	17	0.566706696040928	2	6	2	NaN	1	3	0.0224140145070856	0	1	NaN	430	7	52	1	120	220	320	NaN	520	2.66628336999565	1	1	NaN	4565284.2698932	NaN	4565285.2532787	4565285.76979373
73	19	0	0	90	36.1581920903955	36.241610738255	20	0.666713760048151	2	2	6	NaN	1	3	0.0224140145070856	0	1	NaN	431	7	53	1	120	220	320	NaN	520	1.60271492227912	2	0	NaN	4565289.2536646	NaN	4565290.2371181	4565290.75361058
73	19	0	0	90	36.1581920903955	36.241610738255	8	0.26668550401926	2	1	3	NaN	1	3	0.0224140145070856	0	1	NaN	432	7	54	1	120	220	320	NaN	520	1.42062691785395	1	1	NaN	4565293.187417	NaN	4565294.1708001	4565294.68733238
73	19	0	0	90	36.1581920903955	36.241610738255	17	0.566706696040928	2	9	5	NaN	2	5	0.0224140145070856	0	1	NaN	433	7	55	1	120	220	320	NaN	520	2.15842167008668	2	1	NaN	4565296.9377852	NaN	4565297.9211661	4565298.43769603
73	19	0	0	90	36.1581920903955	36.241610738255	17	0.566706696040928	2	5	6	NaN	1	3	0.0224140145070856	0	1	NaN	434	7	56	1	120	220	320	NaN	520	1.8669309169054	1	1	NaN	4565301.4215829	NaN	4565302.4049177	4565302.92147468
73	19	0	0	90	36.1581920903955	36.241610738255	11	0.366692568026483	2	12	4	NaN	2	4	0.0224140145070856	0	1	NaN	435	7	57	1	120	220	320	NaN	520	0.677775022573769	2	1	NaN	4565307.1388012	NaN	4565308.1221841	4565308.63870328
73	19	0	0	90	36.1581920903955	36.241610738255	9	0.300021192021668	2	10	3	NaN	2	3	0.0224140145070856	0	1	NaN	436	7	58	1	120	220	320	NaN	520	3.17944111768156	1	0	NaN	4565310.5724111	NaN	4565311.5558406	4565312.07237378
73	19	0	0	90	36.1581920903955	36.241610738255	16	0.533371008038521	2	10	1	NaN	2	4	0.0224140145070856	0	1	NaN	437	7	59	1	120	220	320	NaN	520	3.27915637008846	1	0	NaN	4565316.0729765	NaN	4565317.0562813	4565317.57291113
73	19	0	0	90	36.1581920903955	36.241610738255	24	0.800056512057781	2	5	3	NaN	1	4	0.0224140145070856	0	1	NaN	438	7	60	1	120	220	320	NaN	520	0.742725328542292	2	0	NaN	4565321.6735127	NaN	4565322.6569296	4565323.17347027
73	19	0	0	90	36.1581920903955	36.241610738255	16	0.533371008038521	2	7	3	NaN	2	4	0.0224140145070856	0	1	NaN	439	7	61	1	120	220	320	NaN	520	1.76387847959995	2	1	NaN	4565324.7405561	NaN	4565325.7238949	4565326.24043392
73	19	0	0	90	36.1581920903955	36.241610738255	0	0	1	8	3	NaN	2	3	0.0224140145070856	0	1	NaN	440	7	62	1	110	210	310	NaN	510	1.43383072782308	1	0	NaN	4565329.9742981	NaN	4565330.9577619	4565331.47427957
73	19	0	0	90	36.1581920903955	36.241610738255	9	0.300021192021668	2	6	4	NaN	1	4	0.0224140145070856	0	1	NaN	441	7	63	1	120	220	320	NaN	520	1.7120982222259	2	0	NaN	4565334.2080708	NaN	4565335.1914961	4565335.70802928
73	19	0	0	90	36.1581920903955	36.241610738255	22	0.733385136052966	2	1	1	NaN	1	3	0.0224140145070856	0	1	NaN	442	8	1	1	120	220	320	NaN	520	3.40947621688247	2	0	NaN	4565362.1108465	NaN	4565363.0942289	4565363.61076018
73	19	0	0	90	36.1581920903955	36.241610738255	10	0.333356880024075	2	2	1	NaN	1	5	0.0224140145070856	0	1	NaN	443	8	2	1	120	220	320	NaN	520	0.879292816855013	2	0	NaN	4565368.5447821	NaN	4565369.528219	4565370.04472938
73	19	0	0	90	36.1581920903955	36.241610738255	16	0.533371008038521	2	12	4	NaN	2	3	0.0224140145070856	0	1	NaN	444	8	3	1	120	220	320	NaN	520	3.39114216528833	2	1	NaN	4565371.7450798	NaN	4565372.7285096	4565373.24504993
73	19	0	0	90	36.1581920903955	36.241610738255	10	0.333356880024075	2	12	3	NaN	2	3	0.0224140145070856	0	1	NaN	445	8	4	1	120	220	320	NaN	520	0.873840569518507	2	1	NaN	4565377.4623378	NaN	4565378.44576	4565378.96227113
73	19	0	0	90	36.1581920903955	36.241610738255	8	0.26668550401926	2	5	5	NaN	1	4	0.0224140145070856	0	1	NaN	446	8	5	1	120	220	320	NaN	520	0.489448317326605	1	1	NaN	4565380.6626429	NaN	4565381.6459645	4565382.16258688
73	19	0	0	90	36.1581920903955	36.241610738255	14	0.466699632033706	2	11	6	NaN	2	3	0.0224140145070856	0	1	NaN	447	8	6	1	120	220	320	NaN	520	0.568514365702868	2	1	NaN	4565383.4796547	NaN	4565384.4629898	4565384.97952233
73	19	0	0	90	36.1581920903955	36.241610738255	13	0.433363944031298	2	3	3	NaN	1	5	0.0224140145070856	0	1	NaN	448	8	7	1	120	220	320	NaN	520	0.140301021747291	1	1	NaN	4565386.3798763	NaN	4565387.3633026	4565387.87981898
73	19	0	0	90	36.1581920903955	36.241610738255	16	0.533371008038521	2	12	1	NaN	2	4	0.0224140145070856	0	1	NaN	449	8	8	1	120	220	320	NaN	520	3.05722776520997	2	1	NaN	4565388.8466645	NaN	4565389.830174	4565390.34671493
73	19	0	0	90	36.1581920903955	36.241610738255	11	0.366692568026483	2	8	2	NaN	2	5	0.0224140145070856	0	1	NaN	450	8	9	1	120	220	320	NaN	520	1.89747797511518	1	0	NaN	4565394.2306612	NaN	4565395.2140446	4565395.73059373
73	19	0	0	90	36.1581920903955	36.241610738255	6	0.200014128014445	2	2	1	NaN	1	5	0.0224140145070856	0	1	NaN	451	8	10	1	120	220	320	NaN	520	1.52039006538689	1	1	NaN	4565398.4477501	NaN	4565399.4311508	4565399.94766863
73	19	0	0	90	36.1581920903955	36.241610738255	9	0.300021192021668	2	2	3	NaN	1	4	0.0224140145070856	0	1	NaN	452	8	11	1	120	220	320	NaN	520	2.29417202249169	1	1	NaN	4565402.2980841	NaN	4565403.2815194	4565403.79804868
73	19	0	0	90	36.1581920903955	36.241610738255	7	0.233349816016853	2	11	5	NaN	2	5	0.0224140145070856	0	1	NaN	453	8	12	1	120	220	320	NaN	520	1.46092571690679	2	1	NaN	4565406.9152174	NaN	4565407.898705	4565408.41515638
73	19	0	0	90	36.1581920903955	36.241610738255	8	0.26668550401926	2	2	2	NaN	1	5	0.0224140145070856	0	1	NaN	454	8	13	1	120	220	320	NaN	520	0.525116564705968	1	1	NaN	4565410.6988191	NaN	4565411.6823552	4565412.19886034
73	19	0	0	90	36.1581920903955	36.241610738255	15	0.500035320036113	2	3	4	NaN	1	3	0.0224140145070856	0	1	NaN	455	8	14	1	120	220	320	NaN	520	1.18705647997558	2	0	NaN	4565413.5490745	NaN	4565414.532671	4565415.04914692
73	19	0	0	90	36.1581920903955	36.241610738255	8	0.26668550401926	2	9	1	NaN	2	5	0.0224140145070856	0	1	NaN	456	8	15	1	120	220	320	NaN	520	0.43008291721344	1	0	NaN	4565417.0662216	NaN	4565418.0496282	4565418.56615958
73	19	0	0	90	36.1581920903955	36.241610738255	23	0.766720824055374	2	9	4	NaN	2	5	0.0224140145070856	0	1	NaN	457	8	16	1	120	220	320	NaN	520	0.927586180157959	1	0	NaN	4565419.816521	NaN	4565420.7998967	4565421.31643752
73	19	0	0	90	36.1581920903955	36.241610738255	22	0.733385136052966	2	10	1	NaN	2	5	0.0224140145070856	0	1	NaN	458	8	17	1	120	220	320	NaN	520	0.10942579433322	2	1	NaN	4565423.0667964	NaN	4565424.0502795	4565424.56676691
73	19	0	0	90	36.1581920903955	36.241610738255	19	0.633378072045743	2	4	6	NaN	1	5	0.0224140145070856	0	1	NaN	459	8	18	1	120	220	320	NaN	520	0.291963637806475	1	1	NaN	4565425.500417	NaN	4565426.4838032	4565427.00033996
