subjno	age	gender	isPractice	viewdist	CmToPixX	CmToPixY	SOA_frm	SOA_time	targNum	targID	targExample	targRace	targGender	firstTargPos	contrast	familiarity	curr_staircase	iStair	TrialNum	BlockNum	blktrl	sessionNum	TC_FIXATION	TC_RSVP_START	TC_RSVP_END	TC_BLANK	TC_RESPONSE_ONSET	RT2afc	resp_2afc	acc	RSVPOnsetVBL	RSVPOnsetTime	RSVPOffsetVBL	RSVPOffsetTime	startrt_2afc
23	20	0	0	90	36.1581920903955	36.241610738255	22	0.733383376039565	2	12	4	NaN	2	3	0.0555282324327609	0	1	NaN	1	1	1	1	120	220	320	NaN	520	1.83727482706308	1	0	NaN	2409974.1427468	NaN	2409975.1260187	2409975.65915297
23	20	0	0	90	36.1581920903955	36.241610738255	13	0.433362904023379	2	2	1	NaN	1	3	0.0555282324327609	0	1	NaN	2	1	2	1	120	220	320	NaN	520	0.699571026489139	2	0	NaN	2409978.3597996	NaN	2409979.3431012	2409979.87623377
23	20	0	0	90	36.1581920903955	36.241610738255	11	0.366691688019782	2	12	4	NaN	2	3	0.0555282324327609	0	1	NaN	3	1	3	1	120	220	320	NaN	520	0.650227537378669	2	1	NaN	2409981.4099079	NaN	2409982.3932345	2409982.90986466
23	20	0	0	90	36.1581920903955	36.241610738255	24	0.800054592043161	2	3	6	NaN	1	5	0.0555282324327609	0	1	NaN	4	1	4	1	120	220	320	NaN	520	0.987034374848008	1	1	NaN	2409984.3768631	NaN	2409985.3602755	2409985.87682803
23	20	0	0	90	36.1581920903955	36.241610738255	7	0.233349256012589	2	1	6	NaN	1	4	0.0555282324327609	0	1	NaN	5	1	5	1	120	220	320	NaN	520	0.445903769694269	1	1	NaN	2409987.6937414	NaN	2409988.6772588	2409989.19380573
23	20	0	0	90	36.1581920903955	36.241610738255	18	0.600040944032371	2	9	1	NaN	2	4	0.0555282324327609	0	1	NaN	6	1	6	1	120	220	320	NaN	520	0.719096669461578	2	1	NaN	2409990.4607694	NaN	2409991.444204	2409991.96075463
23	20	0	0	90	36.1581920903955	36.241610738255	13	0.433362904023379	2	1	2	NaN	1	5	0.0555282324327609	0	1	NaN	7	1	7	1	120	220	320	NaN	520	0.293072622269392	1	1	NaN	2409993.5111094	NaN	2409994.4944482	2409995.01105848
23	20	0	0	90	36.1581920903955	36.241610738255	17	0.566705336030573	2	9	2	NaN	2	4	0.0555282324327609	0	1	NaN	8	1	8	1	120	220	320	NaN	520	0.363785369787365	2	1	NaN	2409996.1280179	NaN	2409997.1114348	2409997.62796983
23	20	0	0	90	36.1581920903955	36.241610738255	6	0.20001364801079	2	11	2	NaN	2	4	0.0555282324327609	0	1	NaN	9	1	9	1	120	220	320	NaN	520	0.880160522181541	1	0	NaN	2409998.8116158	NaN	2409999.795014	2410000.31157938
23	20	0	0	90	36.1581920903955	36.241610738255	14	0.466698512025177	2	1	4	NaN	1	5	0.0555282324327609	0	1	NaN	10	1	10	1	120	220	320	NaN	520	1.17595716426149	2	0	NaN	2410002.0120384	NaN	2410002.9953411	2410003.51187984
23	20	0	0	90	36.1581920903955	36.241610738255	17	0.566705336030573	2	10	2	NaN	2	4	0.0555282324327609	0	1	NaN	11	1	11	1	120	220	320	NaN	520	0.803545317146927	2	1	NaN	2410005.5121361	NaN	2410006.4956743	2410007.01223568
23	20	0	0	90	36.1581920903955	36.241610738255	6	0.20001364801079	2	1	6	NaN	1	3	0.0555282324327609	0	1	NaN	12	1	12	1	120	220	320	NaN	520	0.302871816791594	2	0	NaN	2410008.6292734	NaN	2410009.6126487	2410010.12920758
23	20	0	0	90	36.1581920903955	36.241610738255	24	0.800054592043161	2	9	4	NaN	2	3	0.0555282324327609	0	1	NaN	13	1	13	1	120	220	320	NaN	520	0.348938317038119	2	1	NaN	2410011.2628416	NaN	2410012.2462273	2410012.76280298
23	20	0	0	90	36.1581920903955	36.241610738255	12	0.400027296021581	2	7	4	NaN	2	3	0.0555282324327609	0	1	NaN	14	1	14	1	120	220	320	NaN	520	0.0104106697253883	2	1	NaN	2410013.9296412	NaN	2410014.9131788	2410015.42972533
23	20	0	0	90	36.1581920903955	36.241610738255	18	0.600040944032371	2	2	1	NaN	1	4	0.0555282324327609	0	1	NaN	15	1	15	1	120	220	320	NaN	520	0.284874721895903	2	0	NaN	2410016.2633459	NaN	2410017.2467389	2410017.76329538
23	20	0	0	90	36.1581920903955	36.241610738255	0	0	1	4	2	NaN	1	5	0.0555282324327609	0	1	NaN	16	1	16	1	110	210	310	NaN	510	0.428234716877341	1	1	NaN	2410018.8635196	NaN	2410019.8469991	2410020.36354538
23	20	0	0	90	36.1581920903955	36.241610738255	11	0.366691688019782	2	8	4	NaN	2	4	0.0555282324327609	0	1	NaN	17	1	17	1	120	220	320	NaN	520	0.286522063892335	2	1	NaN	2410021.6138804	NaN	2410022.5972596	2410023.11381204
23	20	0	0	90	36.1581920903955	36.241610738255	22	0.733383376039565	2	4	1	NaN	1	5	0.0555282324327609	0	1	NaN	18	1	18	1	120	220	320	NaN	520	0.301890417002141	1	1	NaN	2410024.2141168	NaN	2410025.1975231	2410025.71406518
23	20	0	0	90	36.1581920903955	36.241610738255	21	0.700047768037766	2	6	5	NaN	1	5	0.0555282324327609	0	1	NaN	19	1	19	1	120	220	320	NaN	520	0.32488702237606	2	0	NaN	2410026.8310546	NaN	2410027.8143463	2410028.33099988
23	20	0	0	90	36.1581920903955	36.241610738255	10	0.333356080017984	2	9	6	NaN	2	5	0.0555282324327609	0	1	NaN	20	1	20	1	120	220	320	NaN	520	0.306686616968364	2	1	NaN	2410029.4813125	NaN	2410030.464698	2410030.98125538
23	20	0	0	90	36.1581920903955	36.241610738255	25	0.83339020004496	2	9	3	NaN	2	5	0.0555282324327609	0	1	NaN	21	1	21	1	120	220	320	NaN	520	0.321581269614398	2	1	NaN	2410032.0982349	NaN	2410033.0816265	2410033.59817323
23	20	0	0	90	36.1581920903955	36.241610738255	24	0.800054592043161	2	2	3	NaN	1	4	0.0555282324327609	0	1	NaN	22	1	22	1	120	220	320	NaN	520	0.343715269584209	1	1	NaN	2410034.7485024	NaN	2410035.7319157	2410036.24843563
23	20	0	0	90	36.1581920903955	36.241610738255	9	0.300020472016186	2	8	5	NaN	2	5	0.0555282324327609	0	1	NaN	23	1	23	1	120	220	320	NaN	520	0.756414369679987	2	1	NaN	2410037.4154152	NaN	2410038.3988752	2410038.91536893
23	20	0	0	90	36.1581920903955	36.241610738255	11	0.366691688019782	2	4	1	NaN	1	3	0.0555282324327609	0	1	NaN	24	1	24	1	120	220	320	NaN	520	0.337564869783819	1	1	NaN	2410040.4822705	NaN	2410041.4657915	2410041.98234163
23	20	0	0	90	36.1581920903955	36.241610738255	7	0.233349256012589	2	7	1	NaN	2	4	0.0555282324327609	0	1	NaN	25	1	25	1	120	220	320	NaN	520	0.582558369729668	1	0	NaN	2410043.1493333	NaN	2410044.1326991	2410044.64926223
23	20	0	0	90	36.1581920903955	36.241610738255	18	0.600040944032371	2	9	5	NaN	2	5	0.0555282324327609	0	1	NaN	26	1	26	1	120	220	320	NaN	520	0.266599769704044	1	0	NaN	2410046.0496269	NaN	2410047.0328921	2410047.54954693
23	20	0	0	90	36.1581920903955	36.241610738255	7	0.233349256012589	2	8	4	NaN	2	5	0.0555282324327609	0	1	NaN	27	1	27	1	120	220	320	NaN	520	0.243074516765773	2	1	NaN	2410048.6332032	NaN	2410049.6165802	2410050.13313678
23	20	0	0	90	36.1581920903955	36.241610738255	7	0.233349256012589	2	10	6	NaN	2	3	0.0555282324327609	0	1	NaN	28	1	28	1	120	220	320	NaN	520	0.307789969723672	1	0	NaN	2410051.2001076	NaN	2410052.1835022	2410052.70005603
23	20	0	0	90	36.1581920903955	36.241610738255	15	0.500034120026976	2	1	2	NaN	1	4	0.0555282324327609	0	1	NaN	29	1	29	1	120	220	320	NaN	520	0.282932822126895	1	1	NaN	2410053.8170449	NaN	2410054.8004265	2410055.31699118
23	20	0	0	90	36.1581920903955	36.241610738255	7	0.233349256012589	2	8	4	NaN	2	5	0.0555282324327609	0	1	NaN	30	1	30	1	120	220	320	NaN	520	1.35443946952	2	1	NaN	2410056.4172942	NaN	2410057.4007084	2410057.91723593
23	20	0	0	90	36.1581920903955	36.241610738255	21	0.700047768037766	2	9	3	NaN	2	3	0.0555282324327609	0	1	NaN	31	1	31	1	120	220	320	NaN	520	1.05481532216072	1	0	NaN	2410060.1009945	NaN	2410061.0843881	2410061.60093758
23	20	0	0	90	36.1581920903955	36.241610738255	13	0.433362904023379	2	12	5	NaN	2	4	0.0555282324327609	0	1	NaN	32	1	32	1	120	220	320	NaN	520	0.0558657422661781	1	0	NaN	2410063.4680091	NaN	2410064.4513845	2410064.96794416
23	20	0	0	90	36.1581920903955	36.241610738255	16	0.533369728028774	2	2	6	NaN	1	4	0.0555282324327609	0	1	NaN	33	1	33	1	120	220	320	NaN	520	0.0103935222141445	1	1	NaN	2410065.8347629	NaN	2410066.8182831	2410067.33483938
23	20	0	0	90	36.1581920903955	36.241610738255	24	0.800054592043161	2	12	5	NaN	2	3	0.0555282324327609	0	1	NaN	34	1	34	1	120	220	320	NaN	520	0.107436622027308	1	0	NaN	2410068.1684535	NaN	2410069.1518474	2410069.66840118
23	20	0	0	90	36.1581920903955	36.241610738255	6	0.20001364801079	2	9	1	NaN	2	4	0.0555282324327609	0	1	NaN	35	1	35	1	120	220	320	NaN	520	0.505885922349989	2	1	NaN	2410070.6020326	NaN	2410071.5854062	2410072.10197378
23	20	0	0	90	36.1581920903955	36.241610738255	17	0.566705336030573	2	11	5	NaN	2	5	0.0555282324327609	0	1	NaN	36	1	36	1	120	220	320	NaN	520	1.51290121674538	1	0	NaN	2410073.4190047	NaN	2410074.4023656	2410074.91891318
23	20	0	0	90	36.1581920903955	36.241610738255	0	0	1	7	3	NaN	2	5	0.0555282324327609	0	1	NaN	37	1	37	1	110	210	310	NaN	510	2.3430591695942	2	1	NaN	2410077.2525475	NaN	2410078.236073	2410078.75261513
23	20	0	0	90	36.1581920903955	36.241610738255	8	0.266684864014387	2	10	3	NaN	2	3	0.0555282324327609	0	1	NaN	38	1	38	1	120	220	320	NaN	520	1.02009122213349	1	0	NaN	2410081.9199241	NaN	2410082.9031992	2410083.41975428
23	20	0	0	90	36.1581920903955	36.241610738255	19	0.633376552034169	2	3	5	NaN	1	4	0.0555282324327609	0	1	NaN	39	1	39	1	120	220	320	NaN	520	1.19830812187865	1	1	NaN	2410085.2535174	NaN	2410086.2368476	2410086.75341518
23	20	0	0	90	36.1581920903955	36.241610738255	22	0.733383376039565	2	11	3	NaN	2	5	0.0555282324327609	0	1	NaN	40	1	40	1	120	220	320	NaN	520	2.21746352221817	2	1	NaN	2410088.7704874	NaN	2410089.753878	2410090.27041418
23	20	0	0	90	36.1581920903955	36.241610738255	22	0.733383376039565	2	4	3	NaN	1	3	0.0555282324327609	0	1	NaN	41	1	41	1	120	220	320	NaN	520	1.09968206426129	1	1	NaN	2410093.3043234	NaN	2410094.2876514	2410094.80420484
23	20	0	0	90	36.1581920903955	36.241610738255	23	0.766718984041363	2	10	2	NaN	2	4	0.0555282324327609	0	1	NaN	42	1	42	1	120	220	320	NaN	520	0.722726222127676	2	1	NaN	2410096.7212498	NaN	2410097.7046593	2410098.22119978
23	20	0	0	90	36.1581920903955	36.241610738255	23	0.766718984041363	2	3	3	NaN	1	5	0.0555282324327609	0	1	NaN	43	1	43	1	120	220	320	NaN	520	0.584345022216439	1	1	NaN	2410099.7715495	NaN	2410100.7550137	2410101.27150278
23	20	0	0	90	36.1581920903955	36.241610738255	15	0.500034120026976	2	2	5	NaN	1	4	0.0555282324327609	0	1	NaN	44	1	44	1	120	220	320	NaN	520	1.54816362215206	2	0	NaN	2410102.671844	NaN	2410103.6552469	2410104.17179078
23	20	0	0	90	36.1581920903955	36.241610738255	20	0.666712160035968	2	11	6	NaN	2	5	0.0555282324327609	0	1	NaN	45	1	45	1	120	220	320	NaN	520	1.21749826986343	2	1	NaN	2410106.5388959	NaN	2410107.5222868	2410108.03883323
23	20	0	0	90	36.1581920903955	36.241610738255	19	0.633376552034169	2	10	5	NaN	2	4	0.0555282324327609	0	1	NaN	46	1	46	1	120	220	320	NaN	520	1.8352108169347	2	1	NaN	2410110.0725693	NaN	2410111.0559504	2410111.57251208
23	20	0	0	90	36.1581920903955	36.241610738255	7	0.233349256012589	2	5	5	NaN	1	5	0.0555282324327609	0	1	NaN	47	1	47	1	120	220	320	NaN	520	1.35687522217631	1	1	NaN	2410114.2229796	NaN	2410115.2063726	2410115.72292988
23	20	0	0	90	36.1581920903955	36.241610738255	18	0.600040944032371	2	3	1	NaN	1	5	0.0555282324327609	0	1	NaN	48	1	48	1	120	220	320	NaN	520	1.13799813762307	2	0	NaN	2410117.8900283	NaN	2410118.8734016	2410119.38994846
23	20	0	0	90	36.1581920903955	36.241610738255	21	0.700047768037766	2	3	2	NaN	1	5	0.0555282324327609	0	1	NaN	49	1	49	1	120	220	320	NaN	520	1.43972396943718	2	0	NaN	2410121.3403386	NaN	2410122.323736	2410122.84028323
23	20	0	0	90	36.1581920903955	36.241610738255	23	0.766718984041363	2	8	6	NaN	2	4	0.0555282324327609	0	1	NaN	50	1	50	1	120	220	320	NaN	520	1.26566216954961	2	1	NaN	2410125.0905737	NaN	2410126.0741045	2410126.59065153
23	20	0	0	90	36.1581920903955	36.241610738255	11	0.366691688019782	2	9	4	NaN	2	3	0.0555282324327609	0	1	NaN	51	1	51	1	120	220	320	NaN	520	1.06557511677966	2	1	NaN	2410128.6744073	NaN	2410129.6577797	2410130.17434238
23	20	0	0	90	36.1581920903955	36.241610738255	25	0.83339020004496	2	10	6	NaN	2	5	0.0555282324327609	0	1	NaN	52	1	52	1	120	220	320	NaN	520	1.72179881716147	2	1	NaN	2410132.0579341	NaN	2410133.04146	2410133.55802508
23	20	0	0	90	36.1581920903955	36.241610738255	16	0.533369728028774	2	4	3	NaN	1	4	0.0555282324327609	0	1	NaN	53	1	53	1	120	220	320	NaN	520	0.536626942455769	1	1	NaN	2410136.0918368	NaN	2410137.0751885	2410137.59175146
23	20	0	0	90	36.1581920903955	36.241610738255	18	0.600040944032371	2	12	6	NaN	2	4	0.0555282324327609	0	1	NaN	54	1	54	1	120	220	320	NaN	520	1.05425476981327	1	0	NaN	2410138.9420657	NaN	2410139.9255032	2410140.44201333
23	20	0	0	90	36.1581920903955	36.241610738255	21	0.700047768037766	2	5	5	NaN	1	4	0.0555282324327609	0	1	NaN	55	1	55	1	120	220	320	NaN	520	2.59932844247669	1	1	NaN	2410142.3089412	NaN	2410143.2925221	2410143.80902156
23	20	0	0	90	36.1581920903955	36.241610738255	12	0.400027296021581	2	8	2	NaN	2	5	0.0555282324327609	0	1	NaN	56	1	56	1	120	220	320	NaN	520	0.921723769512028	2	1	NaN	2410147.2261193	NaN	2410148.2096221	2410148.72616773
23	20	0	0	90	36.1581920903955	36.241610738255	22	0.733383376039565	2	8	6	NaN	2	4	0.0555282324327609	0	1	NaN	57	1	57	1	120	220	320	NaN	520	1.90422712219879	1	0	NaN	2410150.4599073	NaN	2410151.4432491	2410151.95982658
23	20	0	0	90	36.1581920903955	36.241610738255	25	0.83339020004496	2	6	4	NaN	1	5	0.0555282324327609	0	1	NaN	58	1	58	1	120	220	320	NaN	520	0.687112022191286	1	1	NaN	2410154.6768117	NaN	2410155.6603515	2410156.17690748
23	20	0	0	90	36.1581920903955	36.241610738255	9	0.300020472016186	2	6	1	NaN	1	3	0.0555282324327609	0	1	NaN	59	1	59	1	120	220	320	NaN	520	1.42313502216712	1	1	NaN	2410157.6772623	NaN	2410158.6606329	2410159.17719868
23	20	0	0	90	36.1581920903955	36.241610738255	17	0.566705336030573	2	3	5	NaN	1	3	0.0555282324327609	0	1	NaN	60	1	60	1	120	220	320	NaN	520	1.06489896960557	2	0	NaN	2410161.4108217	NaN	2410162.3943467	2410162.91089723
23	20	0	0	90	36.1581920903955	36.241610738255	25	0.83339020004496	2	12	2	NaN	2	3	0.0555282324327609	0	1	NaN	61	1	61	1	120	220	320	NaN	520	0.825734069570899	1	0	NaN	2410164.794624	NaN	2410165.777995	2410166.29456063
23	20	0	0	90	36.1581920903955	36.241610738255	12	0.400027296021581	2	9	6	NaN	2	5	0.0555282324327609	0	1	NaN	62	1	62	1	120	220	320	NaN	520	0.859671769663692	2	1	NaN	2410167.9282584	NaN	2410168.9116293	2410169.42821363
23	20	0	0	90	36.1581920903955	36.241610738255	13	0.433362904023379	2	10	5	NaN	2	4	0.0555282324327609	0	1	NaN	63	1	63	1	120	220	320	NaN	520	0.716825790237635	2	1	NaN	2410171.0952355	NaN	2410172.078623	2410172.59518041
23	20	0	0	90	36.1581920903955	36.241610738255	19	0.633376552034169	2	6	1	NaN	1	3	0.0555282324327609	0	1	NaN	64	2	1	1	120	220	320	NaN	520	1.10460367938504	1	1	NaN	2410181.3794463	NaN	2410182.3630076	2410182.87952792
23	20	0	0	90	36.1581920903955	36.241610738255	9	0.300020472016186	2	5	6	NaN	1	4	0.0555282324327609	0	1	NaN	65	2	2	1	120	220	320	NaN	520	0.66360186971724	1	1	NaN	2410184.7964446	NaN	2410185.7799792	2410186.29652853
23	20	0	0	90	36.1581920903955	36.241610738255	9	0.300020472016186	2	2	2	NaN	1	4	0.0555282324327609	0	1	NaN	66	2	3	1	120	220	320	NaN	520	0.592942169867456	1	1	NaN	2410187.7635446	NaN	2410188.7469296	2410189.26347913
23	20	0	0	90	36.1581920903955	36.241610738255	8	0.266684864014387	2	6	2	NaN	1	5	0.0555282324327609	0	1	NaN	67	2	4	1	120	220	320	NaN	520	0.484605569392443	1	1	NaN	2410190.6638201	NaN	2410191.6472153	2410192.16377313
23	20	0	0	90	36.1581920903955	36.241610738255	12	0.400027296021581	2	12	6	NaN	2	3	0.0555282324327609	0	1	NaN	68	2	5	1	120	220	320	NaN	520	0.403897426556796	2	1	NaN	2410193.4641934	NaN	2410194.4474997	2410194.96404937
23	20	0	0	90	36.1581920903955	36.241610738255	12	0.400027296021581	2	1	3	NaN	1	3	0.0555282324327609	0	1	NaN	69	2	6	1	120	220	320	NaN	520	0.12725731683895	1	1	NaN	2410196.1810461	NaN	2410197.164425	2410197.68098128
23	20	0	0	90	36.1581920903955	36.241610738255	11	0.366691688019782	2	10	1	NaN	2	5	0.0555282324327609	0	1	NaN	70	2	7	1	120	220	320	NaN	520	0.0103855319321156	2	1	NaN	2410198.631301	NaN	2410199.6146527	2410200.13122457
23	20	0	0	90	36.1581920903955	36.241610738255	10	0.333356080017984	2	7	1	NaN	2	3	0.0555282324327609	0	1	NaN	71	2	8	1	120	220	320	NaN	520	2.20030576921999	2	1	NaN	2410200.9481702	NaN	2410201.9315579	2410202.44811253
23	20	0	0	90	36.1581920903955	36.241610738255	10	0.333356080017984	2	6	6	NaN	1	4	0.0555282324327609	0	1	NaN	72	2	9	1	120	220	320	NaN	520	0.562995821703225	1	1	NaN	2410205.4652929	NaN	2410206.4486702	2410206.96523138
23	20	0	0	90	36.1581920903955	36.241610738255	15	0.500034120026976	2	3	6	NaN	1	5	0.0555282324327609	0	1	NaN	73	2	10	1	120	220	320	NaN	520	0.655601716600358	1	1	NaN	2410208.3488956	NaN	2410209.3322923	2410209.84883878
23	20	0	0	90	36.1581920903955	36.241610738255	11	0.366691688019782	2	2	4	NaN	1	3	0.0555282324327609	0	1	NaN	74	2	11	1	120	220	320	NaN	520	0.328186122234911	2	0	NaN	2410211.3158564	NaN	2410212.2992333	2410212.81580848
23	20	0	0	90	36.1581920903955	36.241610738255	11	0.366691688019782	2	6	3	NaN	1	4	0.0555282324327609	0	1	NaN	75	2	12	1	120	220	320	NaN	520	0.222757116891444	1	1	NaN	2410213.9494459	NaN	2410214.9328401	2410215.44938958
23	20	0	0	90	36.1581920903955	36.241610738255	25	0.83339020004496	2	11	3	NaN	2	5	0.0555282324327609	0	1	NaN	76	2	13	1	120	220	320	NaN	520	0.664922121912241	1	0	NaN	2410216.4830201	NaN	2410217.4664205	2410217.98297808
23	20	0	0	90	36.1581920903955	36.241610738255	10	0.333356080017984	2	7	5	NaN	2	5	0.0555282324327609	0	1	NaN	77	2	14	1	120	220	320	NaN	520	0.258153322152793	2	1	NaN	2410219.4499808	NaN	2410220.4334234	2410220.94994078
23	20	0	0	90	36.1581920903955	36.241610738255	7	0.233349256012589	2	3	2	NaN	1	4	0.0555282324327609	0	1	NaN	78	2	15	1	120	220	320	NaN	520	0.491259722039104	1	1	NaN	2410222.0167957	NaN	2410223.0002731	2410223.51686078
23	20	0	0	90	36.1581920903955	36.241610738255	15	0.500034120026976	2	1	5	NaN	1	4	0.0555282324327609	0	1	NaN	79	2	16	1	120	220	320	NaN	520	0.26718517486006	1	1	NaN	2410224.8170304	NaN	2410225.8006184	2410226.31713583
23	20	0	0	90	36.1581920903955	36.241610738255	8	0.266684864014387	2	9	3	NaN	2	5	0.0555282324327609	0	1	NaN	80	2	17	1	120	220	320	NaN	520	0.499299569521099	2	1	NaN	2410227.4007675	NaN	2410228.3841843	2410228.90071023
23	20	0	0	90	36.1581920903955	36.241610738255	6	0.20001364801079	2	1	3	NaN	1	4	0.0555282324327609	0	1	NaN	81	2	18	1	120	220	320	NaN	520	1.53845216939226	1	1	NaN	2410230.2177022	NaN	2410231.201163	2410231.71766143
23	20	0	0	90	36.1581920903955	36.241610738255	24	0.800054592043161	2	6	6	NaN	1	5	0.0555282324327609	0	1	NaN	82	2	19	1	120	220	320	NaN	520	0.679818737320602	1	1	NaN	2410234.068187	NaN	2410235.0514793	2410235.56804506
23	20	0	0	90	36.1581920903955	36.241610738255	10	0.333356080017984	2	3	1	NaN	1	4	0.0555282324327609	0	1	NaN	83	2	20	1	120	220	320	NaN	520	0.551967216655612	2	0	NaN	2410237.0683731	NaN	2410238.0517808	2410238.56833058
23	20	0	0	90	36.1581920903955	36.241610738255	8	0.266684864014387	2	2	3	NaN	1	3	0.0555282324327609	0	1	NaN	84	2	21	1	120	220	320	NaN	520	0.596694216597825	2	0	NaN	2410239.9353053	NaN	2410240.9187331	2410241.43527968
23	20	0	0	90	36.1581920903955	36.241610738255	20	0.666712160035968	2	2	2	NaN	1	3	0.0555282324327609	0	1	NaN	85	2	22	1	120	220	320	NaN	520	0.656552669592202	1	1	NaN	2410242.8356415	NaN	2410243.8190101	2410244.33557773
23	20	0	0	90	36.1581920903955	36.241610738255	22	0.733383376039565	2	10	4	NaN	2	3	0.0555282324327609	0	1	NaN	86	2	23	1	120	220	320	NaN	520	0.34559452207759	2	1	NaN	2410245.8024542	NaN	2410246.7859628	2410247.30253258
23	20	0	0	90	36.1581920903955	36.241610738255	20	0.666712160035968	2	4	2	NaN	1	4	0.0555282324327609	0	1	NaN	87	2	24	1	120	220	320	NaN	520	0.27902086917311	1	1	NaN	2410248.4695185	NaN	2410249.4529178	2410249.96945613
23	20	0	0	90	36.1581920903955	36.241610738255	7	0.233349256012589	2	5	6	NaN	1	4	0.0555282324327609	0	1	NaN	88	2	25	1	120	220	320	NaN	520	0.399077916983515	2	0	NaN	2410251.0531089	NaN	2410252.0364791	2410252.55303838
23	20	0	0	90	36.1581920903955	36.241610738255	8	0.266684864014387	2	10	4	NaN	2	5	0.0555282324327609	0	1	NaN	89	2	26	1	120	220	320	NaN	520	0.482095069251955	2	1	NaN	2410253.7700298	NaN	2410254.7534152	2410255.26996853
23	20	0	0	90	36.1581920903955	36.241610738255	11	0.366691688019782	2	7	2	NaN	2	4	0.0555282324327609	0	1	NaN	90	2	27	1	120	220	320	NaN	520	0.345954569522291	2	1	NaN	2410256.5703151	NaN	2410257.5537056	2410258.07025103
23	20	0	0	90	36.1581920903955	36.241610738255	17	0.566705336030573	2	12	6	NaN	2	4	0.0555282324327609	0	1	NaN	91	2	28	1	120	220	320	NaN	520	0.63993227481842	2	1	NaN	2410259.2205749	NaN	2410260.2039581	2410260.72051273
23	20	0	0	90	36.1581920903955	36.241610738255	7	0.233349256012589	2	6	4	NaN	1	4	0.0555282324327609	0	1	NaN	92	2	29	1	120	220	320	NaN	520	0.0104029695503414	1	1	NaN	2410262.1708597	NaN	2410263.1542465	2410263.67079433
23	20	0	0	90	36.1581920903955	36.241610738255	13	0.433362904023379	2	11	5	NaN	2	3	0.0555282324327609	0	1	NaN	93	2	30	1	120	220	320	NaN	520	0.188421169761568	2	1	NaN	2410264.4876226	NaN	2410265.4712721	2410265.98768873
23	20	0	0	90	36.1581920903955	36.241610738255	18	0.600040944032371	2	1	4	NaN	1	4	0.0555282324327609	0	1	NaN	94	2	31	1	120	220	320	NaN	520	0.624583627097309	2	0	NaN	2410266.9878726	NaN	2410267.9714444	2410268.48794967
23	20	0	0	90	36.1581920903955	36.241610738255	18	0.600040944032371	2	7	2	NaN	2	5	0.0555282324327609	0	1	NaN	95	2	32	1	120	220	320	NaN	520	0.77043932210654	1	0	NaN	2410269.9216119	NaN	2410270.9050185	2410271.42156828
23	20	0	0	90	36.1581920903955	36.241610738255	25	0.83339020004496	2	7	6	NaN	2	4	0.0555282324327609	0	1	NaN	96	2	33	1	120	220	320	NaN	520	0.695277922321111	2	1	NaN	2410273.0051266	NaN	2410273.9886521	2410274.50520098
23	20	0	0	90	36.1581920903955	36.241610738255	17	0.566705336030573	2	6	3	NaN	1	3	0.0555282324327609	0	1	NaN	97	2	34	1	120	220	320	NaN	520	0.374667975120246	1	1	NaN	2410276.0055335	NaN	2410276.9889473	2410277.50548843
23	20	0	0	90	36.1581920903955	36.241610738255	12	0.400027296021581	2	4	6	NaN	1	3	0.0555282324327609	0	1	NaN	98	2	35	1	120	220	320	NaN	520	0.427084421738982	1	1	NaN	2410278.689142	NaN	2410279.6725321	2410280.18909868
23	20	0	0	90	36.1581920903955	36.241610738255	20	0.666712160035968	2	11	2	NaN	2	5	0.0555282324327609	0	1	NaN	99	2	36	1	120	220	320	NaN	520	0.845472494605929	2	1	NaN	2410281.4227075	NaN	2410282.4061538	2410282.92269461
23	20	0	0	90	36.1581920903955	36.241610738255	8	0.266684864014387	2	8	3	NaN	2	5	0.0555282324327609	0	1	NaN	100	2	37	1	120	220	320	NaN	520	0.295625269878656	2	1	NaN	2410284.5731573	NaN	2410285.5564861	2410286.07300653
23	20	0	0	90	36.1581920903955	36.241610738255	16	0.533369728028774	2	10	1	NaN	2	3	0.0555282324327609	0	1	NaN	101	2	38	1	120	220	320	NaN	520	0.0104056694544852	2	1	NaN	2410287.1733237	NaN	2410288.15671	2410288.67325223
23	20	0	0	90	36.1581920903955	36.241610738255	13	0.433362904023379	2	8	6	NaN	2	3	0.0555282324327609	0	1	NaN	102	2	39	1	120	220	320	NaN	520	0.0104112694971263	2	1	NaN	2410289.5068665	NaN	2410290.490265	2410291.00681373
23	20	0	0	90	36.1581920903955	36.241610738255	21	0.700047768037766	2	12	3	NaN	2	5	0.0555282324327609	0	1	NaN	103	2	40	1	120	220	320	NaN	520	0.340582022443414	2	1	NaN	2410291.8237662	NaN	2410292.8071571	2410293.32372258
23	20	0	0	90	36.1581920903955	36.241610738255	0	0	1	9	2	NaN	2	3	0.0555282324327609	0	1	NaN	104	2	41	1	110	210	310	NaN	510	0.298163421917707	2	1	NaN	2410294.4740272	NaN	2410295.4574234	2410295.97397808
23	20	0	0	90	36.1581920903955	36.241610738255	25	0.83339020004496	2	1	4	NaN	1	4	0.0555282324327609	0	1	NaN	105	2	42	1	120	220	320	NaN	520	0.299618569202721	1	1	NaN	2410297.2409806	NaN	2410298.2243726	2410298.74091143
23	20	0	0	90	36.1581920903955	36.241610738255	9	0.300020472016186	2	10	1	NaN	2	3	0.0555282324327609	0	1	NaN	106	2	43	1	120	220	320	NaN	520	0.386358022224158	2	1	NaN	2410299.8578918	NaN	2410300.8412859	2410301.35783928
23	20	0	0	90	36.1581920903955	36.241610738255	19	0.633376552034169	2	12	2	NaN	2	5	0.0555282324327609	0	1	NaN	107	2	44	1	120	220	320	NaN	520	1.00619732216001	2	1	NaN	2410302.5580202	NaN	2410303.5415545	2410304.05810858
23	20	0	0	90	36.1581920903955	36.241610738255	19	0.633376552034169	2	5	1	NaN	1	5	0.0555282324327609	0	1	NaN	108	2	45	1	120	220	320	NaN	520	0.449185621924698	2	0	NaN	2410305.8751411	NaN	2410306.8585372	2410307.37510268
23	20	0	0	90	36.1581920903955	36.241610738255	22	0.733383376039565	2	5	6	NaN	1	4	0.0555282324327609	0	1	NaN	109	2	46	1	120	220	320	NaN	520	0.0104043697938323	2	0	NaN	2410308.642071	NaN	2410309.6254943	2410310.14203633
23	20	0	0	90	36.1581920903955	36.241610738255	7	0.233349256012589	2	7	4	NaN	2	3	0.0555282324327609	0	1	NaN	110	2	47	1	120	220	320	NaN	520	0.0104068694636226	2	1	NaN	2410310.9589741	NaN	2410311.9423752	2410312.45892533
23	20	0	0	90	36.1581920903955	36.241610738255	9	0.300020472016186	2	8	5	NaN	2	4	0.0555282324327609	0	1	NaN	111	2	48	1	120	220	320	NaN	520	0.253958616871387	2	1	NaN	2410313.5424398	NaN	2410314.5259668	2410315.04251278
23	20	0	0	90	36.1581920903955	36.241610738255	10	0.333356080017984	2	1	2	NaN	1	3	0.0555282324327609	0	1	NaN	112	2	49	1	120	220	320	NaN	520	0.461378722451627	2	0	NaN	2410316.5427401	NaN	2410317.5262546	2410318.04283188
23	20	0	0	90	36.1581920903955	36.241610738255	21	0.700047768037766	2	5	2	NaN	1	5	0.0555282324327609	0	1	NaN	113	2	50	1	120	220	320	NaN	520	0.206579769495875	1	1	NaN	2410319.3098034	NaN	2410320.2931924	2410320.80974503
23	20	0	0	90	36.1581920903955	36.241610738255	8	0.266684864014387	2	8	5	NaN	2	3	0.0555282324327609	0	1	NaN	114	2	51	1	120	220	320	NaN	520	0.625557422172278	2	1	NaN	2410321.8266342	NaN	2410322.8101121	2410323.32666778
23	20	0	0	90	36.1581920903955	36.241610738255	7	0.233349256012589	2	2	4	NaN	1	3	0.0555282324327609	0	1	NaN	115	2	52	1	120	220	320	NaN	520	0.316253437194973	2	0	NaN	2410324.7603369	NaN	2410325.743723	2410326.26028626
23	20	0	0	90	36.1581920903955	36.241610738255	12	0.400027296021581	2	1	2	NaN	1	5	0.0555282324327609	0	1	NaN	116	2	53	1	120	220	320	NaN	520	0.258375569712371	1	1	NaN	2410327.3939282	NaN	2410328.3773201	2410328.89387263
23	20	0	0	90	36.1581920903955	36.241610738255	18	0.600040944032371	2	4	4	NaN	1	4	0.0555282324327609	0	1	NaN	117	2	54	1	120	220	320	NaN	520	0.403378217015415	2	0	NaN	2410329.9608702	NaN	2410330.9442649	2410331.46079308
23	20	0	0	90	36.1581920903955	36.241610738255	20	0.666712160035968	2	5	5	NaN	1	4	0.0555282324327609	0	1	NaN	118	2	55	1	120	220	320	NaN	520	0.990465069655329	2	0	NaN	2410332.6778111	NaN	2410333.661241	2410334.17772373
23	20	0	0	90	36.1581920903955	36.241610738255	16	0.533369728028774	2	10	1	NaN	2	4	0.0555282324327609	0	1	NaN	119	2	56	1	120	220	320	NaN	520	0.354251322336495	2	1	NaN	2410335.9781403	NaN	2410336.9614924	2410337.47805208
23	20	0	0	90	36.1581920903955	36.241610738255	23	0.766718984041363	2	5	6	NaN	1	4	0.0555282324327609	0	1	NaN	120	2	57	1	120	220	320	NaN	520	0.479131042025983	2	0	NaN	2410338.6450427	NaN	2410339.6284068	2410340.14499706
23	20	0	0	90	36.1581920903955	36.241610738255	18	0.600040944032371	2	11	6	NaN	2	4	0.0555282324327609	0	1	NaN	121	2	58	1	120	220	320	NaN	520	0.535954669583589	2	1	NaN	2410341.4286891	NaN	2410342.4120411	2410342.92858543
23	20	0	0	90	36.1581920903955	36.241610738255	23	0.766718984041363	2	7	3	NaN	2	3	0.0555282324327609	0	1	NaN	122	2	59	1	120	220	320	NaN	520	0.301495669409633	2	1	NaN	2410344.2789324	NaN	2410345.262327	2410345.77886513
23	20	0	0	90	36.1581920903955	36.241610738255	16	0.533369728028774	2	7	1	NaN	2	5	0.0555282324327609	0	1	NaN	123	2	60	1	120	220	320	NaN	520	0.516884374897927	2	1	NaN	2410346.8958167	NaN	2410347.8792501	2410348.39579313
23	20	0	0	90	36.1581920903955	36.241610738255	24	0.800054592043161	2	12	4	NaN	2	4	0.0555282324327609	0	1	NaN	124	2	61	1	120	220	320	NaN	520	0.579249122180045	2	1	NaN	2410349.7294661	NaN	2410350.7128729	2410351.22940738
23	20	0	0	90	36.1581920903955	36.241610738255	15	0.500034120026976	2	5	5	NaN	1	3	0.0555282324327609	0	1	NaN	125	2	62	1	120	220	320	NaN	520	0.503628369420767	2	0	NaN	2410352.6130747	NaN	2410353.5964703	2410354.11302813
23	20	0	0	90	36.1581920903955	36.241610738255	8	0.266684864014387	2	4	3	NaN	1	4	0.0555282324327609	0	1	NaN	126	2	63	1	120	220	320	NaN	520	0.454721417278051	1	1	NaN	2410355.4300157	NaN	2410356.413406	2410356.92996218
23	20	0	0	90	36.1581920903955	36.241610738255	21	0.700047768037766	2	6	1	NaN	1	4	0.0555282324327609	0	1	NaN	127	3	1	1	120	220	320	NaN	520	0.405862869694829	1	1	NaN	2410366.4144879	NaN	2410367.3978131	2410367.91438053
23	20	0	0	90	36.1581920903955	36.241610738255	6	0.20001364801079	2	3	5	NaN	1	3	0.0555282324327609	0	1	NaN	128	3	2	1	120	220	320	NaN	520	0.47431056946516	2	0	NaN	2410369.6980831	NaN	2410370.6815092	2410371.19804093
23	20	0	0	90	36.1581920903955	36.241610738255	20	0.666712160035968	2	1	5	NaN	1	4	0.0555282324327609	0	1	NaN	129	3	3	1	120	220	320	NaN	520	0.458482721820474	2	0	NaN	2410372.4817126	NaN	2410373.4650911	2410373.98164988
23	20	0	0	90	36.1581920903955	36.241610738255	6	0.20001364801079	2	7	2	NaN	2	5	0.0555282324327609	0	1	NaN	130	3	4	1	120	220	320	NaN	520	0.260037569794804	2	1	NaN	2410375.2486334	NaN	2410376.232035	2410376.74858573
23	20	0	0	90	36.1581920903955	36.241610738255	24	0.800054592043161	2	11	2	NaN	2	3	0.0555282324327609	0	1	NaN	131	3	5	1	120	220	320	NaN	520	0.356785869691521	2	1	NaN	2410377.8154721	NaN	2410378.7989345	2410379.31549523
23	20	0	0	90	36.1581920903955	36.241610738255	12	0.400027296021581	2	5	1	NaN	1	5	0.0555282324327609	0	1	NaN	132	3	6	1	120	220	320	NaN	520	0.234166516922414	1	1	NaN	2410380.482482	NaN	2410381.4658757	2410381.98242328
23	20	0	0	90	36.1581920903955	36.241610738255	18	0.600040944032371	2	8	6	NaN	2	5	0.0555282324327609	0	1	NaN	133	3	7	1	120	220	320	NaN	520	0.0103913219645619	2	1	NaN	2410383.0327288	NaN	2410384.0161183	2410384.53268288
23	20	0	0	90	36.1581920903955	36.241610738255	17	0.566705336030573	2	1	1	NaN	1	4	0.0555282324327609	0	1	NaN	134	3	8	1	120	220	320	NaN	520	0.327085069380701	2	0	NaN	2410385.3496267	NaN	2410386.3330148	2410386.84957413
23	20	0	0	90	36.1581920903955	36.241610738255	8	0.266684864014387	2	7	6	NaN	2	3	0.0555282324327609	0	1	NaN	135	3	9	1	120	220	320	NaN	520	0.244728922378272	2	1	NaN	2410387.9998913	NaN	2410388.9832906	2410389.49983548
23	20	0	0	90	36.1581920903955	36.241610738255	23	0.766718984041363	2	5	3	NaN	1	5	0.0555282324327609	0	1	NaN	136	3	10	1	120	220	320	NaN	520	0.237644769251347	2	0	NaN	2410390.5668036	NaN	2410391.5502355	2410392.06675533
23	20	0	0	90	36.1581920903955	36.241610738255	6	0.20001364801079	2	5	6	NaN	1	4	0.0555282324327609	0	1	NaN	137	3	11	1	120	220	320	NaN	520	0.010378974955529	1	1	NaN	2410393.1170624	NaN	2410394.1004757	2410394.61700753
23	20	0	0	90	36.1581920903955	36.241610738255	12	0.400027296021581	2	3	2	NaN	1	3	0.0555282324327609	0	1	NaN	138	3	12	1	120	220	320	NaN	520	0.274384894873947	1	1	NaN	2410395.6339427	NaN	2410396.6174013	2410397.13392921
23	20	0	0	90	36.1581920903955	36.241610738255	9	0.300020472016186	2	2	1	NaN	1	3	0.0555282324327609	0	1	NaN	139	3	13	1	120	220	320	NaN	520	0.482797869481146	1	1	NaN	2410398.2174642	NaN	2410399.2009369	2410399.71750633
23	20	0	0	90	36.1581920903955	36.241610738255	19	0.633376552034169	2	8	5	NaN	2	3	0.0555282324327609	0	1	NaN	140	3	14	1	120	220	320	NaN	520	0.682370222173631	2	1	NaN	2410401.0178339	NaN	2410402.0012151	2410402.51778508
23	20	0	0	90	36.1581920903955	36.241610738255	21	0.700047768037766	2	11	5	NaN	2	5	0.0555282324327609	0	1	NaN	141	3	15	1	120	220	320	NaN	520	0.290522669441998	2	1	NaN	2410404.0181402	NaN	2410405.0015226	2410405.51807163
23	20	0	0	90	36.1581920903955	36.241610738255	11	0.366691688019782	2	8	3	NaN	2	4	0.0555282324327609	0	1	NaN	142	3	16	1	120	220	320	NaN	520	0.954197269398719	2	1	NaN	2410406.6183855	NaN	2410407.6017765	2410408.11832843
23	20	0	0	90	36.1581920903955	36.241610738255	23	0.766718984041363	2	6	6	NaN	1	4	0.0555282324327609	0	1	NaN	143	3	17	1	120	220	320	NaN	520	0.175097822211683	1	1	NaN	2410409.8854674	NaN	2410410.8687458	2410411.38532488
23	20	0	0	90	36.1581920903955	36.241610738255	21	0.700047768037766	2	7	6	NaN	2	5	0.0555282324327609	0	1	NaN	144	3	18	1	120	220	320	NaN	520	0.259698621928692	2	1	NaN	2410412.368939	NaN	2410413.3523512	2410413.86890448
23	20	0	0	90	36.1581920903955	36.241610738255	17	0.566705336030573	2	7	4	NaN	2	3	0.0555282324327609	0	1	NaN	145	3	19	1	120	220	320	NaN	520	0.436413622461259	2	1	NaN	2410414.9358773	NaN	2410415.9192497	2410416.43582138
23	20	0	0	90	36.1581920903955	36.241610738255	15	0.500034120026976	2	7	3	NaN	2	4	0.0555282324327609	0	1	NaN	146	3	20	1	120	220	320	NaN	520	0.0103931217454374	2	1	NaN	2410417.6861404	NaN	2410418.6695283	2410419.18609038
23	20	0	0	90	36.1581920903955	36.241610738255	13	0.433362904023379	2	3	6	NaN	1	4	0.0555282324327609	0	1	NaN	147	3	21	1	120	220	320	NaN	520	0.14573912229389	2	0	NaN	2410420.0029383	NaN	2410420.9864274	2410421.50298928
23	20	0	0	90	36.1581920903955	36.241610738255	21	0.700047768037766	2	9	2	NaN	2	3	0.0555282324327609	0	1	NaN	148	3	22	1	120	220	320	NaN	520	0.485025569330901	1	0	NaN	2410422.5032395	NaN	2410423.4866762	2410424.00322843
23	20	0	0	90	36.1581920903955	36.241610738255	10	0.333356080017984	2	8	5	NaN	2	4	0.0555282324327609	0	1	NaN	149	3	23	1	120	220	320	NaN	520	0.0103729795664549	2	1	NaN	2410425.3034378	NaN	2410426.2869435	2410426.80349762
23	20	0	0	90	36.1581920903955	36.241610738255	25	0.83339020004496	2	5	2	NaN	1	3	0.0555282324327609	0	1	NaN	150	3	24	1	120	220	320	NaN	520	0.485695469658822	2	0	NaN	2410427.6870856	NaN	2410428.6705579	2410429.18707413
23	20	0	0	90	36.1581920903955	36.241610738255	6	0.20001364801079	2	8	5	NaN	2	5	0.0555282324327609	0	1	NaN	151	3	25	1	120	220	320	NaN	520	0.0103889219462872	2	1	NaN	2410430.487401	NaN	2410431.4707879	2410431.98735188
23	20	0	0	90	36.1581920903955	36.241610738255	14	0.466698512025177	2	10	2	NaN	2	4	0.0555282324327609	0	1	NaN	152	3	26	1	120	220	320	NaN	520	0.0401843897998333	2	1	NaN	2410432.8043108	NaN	2410433.7876881	2410434.30424751
23	20	0	0	90	36.1581920903955	36.241610738255	9	0.300020472016186	2	6	1	NaN	1	3	0.0555282324327609	0	1	NaN	153	3	27	1	120	220	320	NaN	520	1.56180006964132	1	1	NaN	2410435.1543883	NaN	2410436.1379118	2410436.65447303
23	20	0	0	90	36.1581920903955	36.241610738255	6	0.20001364801079	2	10	4	NaN	2	5	0.0555282324327609	0	1	NaN	154	3	28	1	120	220	320	NaN	520	0.0104139694012702	2	1	NaN	2410439.0382359	NaN	2410440.0216422	2410440.53818573
23	20	0	0	90	36.1581920903955	36.241610738255	20	0.666712160035968	2	12	5	NaN	2	5	0.0555282324327609	0	1	NaN	155	3	29	1	120	220	320	NaN	520	1.2333634220995	2	1	NaN	2410441.3551695	NaN	2410442.3385541	2410442.85508428
23	20	0	0	90	36.1581920903955	36.241610738255	13	0.433362904023379	2	11	1	NaN	2	5	0.0555282324327609	0	1	NaN	156	3	30	1	120	220	320	NaN	520	0.131554969586432	2	1	NaN	2410444.8886918	NaN	2410445.8722116	2410446.38877763
23	20	0	0	90	36.1581920903955	36.241610738255	18	0.600040944032371	2	5	2	NaN	1	4	0.0555282324327609	0	1	NaN	157	3	31	1	120	220	320	NaN	520	0.233810522127897	2	0	NaN	2410447.3390673	NaN	2410448.3224461	2410448.83900178
23	20	0	0	90	36.1581920903955	36.241610738255	16	0.533369728028774	2	2	1	NaN	1	5	0.0555282324327609	0	1	NaN	158	3	32	1	120	220	320	NaN	520	0.0103930220939219	1	1	NaN	2410449.8893396	NaN	2410450.872693	2410451.38925898
23	20	0	0	90	36.1581920903955	36.241610738255	9	0.300020472016186	2	4	1	NaN	1	4	0.0555282324327609	0	1	NaN	159	3	33	1	120	220	320	NaN	520	0.278273521922529	1	1	NaN	2410452.2061389	NaN	2410453.189593	2410453.70614958
23	20	0	0	90	36.1581920903955	36.241610738255	6	0.20001364801079	2	10	5	NaN	2	5	0.0555282324327609	0	1	NaN	160	3	34	1	120	220	320	NaN	520	0.0104021695442498	1	0	NaN	2410454.7896492	NaN	2410455.7732359	2410456.28972583
23	20	0	0	90	36.1581920903955	36.241610738255	20	0.666712160035968	2	9	5	NaN	2	5	0.0555282324327609	0	1	NaN	161	3	35	1	120	220	320	NaN	520	0.185770622454584	1	0	NaN	2410457.1065533	NaN	2410458.0900655	2410458.60663098
23	20	0	0	90	36.1581920903955	36.241610738255	22	0.733383376039565	2	8	1	NaN	2	4	0.0555282324327609	0	1	NaN	162	3	36	1	120	220	320	NaN	520	0.085558669641614	2	1	NaN	2410459.607021	NaN	2410460.5903282	2410461.10687553
23	20	0	0	90	36.1581920903955	36.241610738255	7	0.233349256012589	2	9	3	NaN	2	5	0.0555282324327609	0	1	NaN	163	3	37	1	120	220	320	NaN	520	1.87777676945552	2	1	NaN	2410462.0070404	NaN	2410462.9905844	2410463.50710333
23	20	0	0	90	36.1581920903955	36.241610738255	16	0.533369728028774	2	8	3	NaN	2	3	0.0555282324327609	0	1	NaN	164	3	38	1	120	220	320	NaN	520	0.0104087693616748	1	0	NaN	2410466.2076516	NaN	2410467.1909494	2410467.70751803
23	20	0	0	90	36.1581920903955	36.241610738255	22	0.733383376039565	2	9	4	NaN	2	3	0.0555282324327609	0	1	NaN	165	3	39	1	120	220	320	NaN	520	0.010454869363457	2	1	NaN	2410468.5244595	NaN	2410469.5078515	2410470.02440943
23	20	0	0	90	36.1581920903955	36.241610738255	19	0.633376552034169	2	4	1	NaN	1	4	0.0555282324327609	0	1	NaN	166	3	40	1	120	220	320	NaN	520	0.1791508696042	1	1	NaN	2410470.8412275	NaN	2410471.8247611	2410472.34131183
23	20	0	0	90	36.1581920903955	36.241610738255	24	0.800054592043161	2	8	4	NaN	2	4	0.0555282324327609	0	1	NaN	167	3	41	1	120	220	320	NaN	520	0.27117282198742	1	0	NaN	2410473.3416175	NaN	2410474.3249995	2410474.84157488
23	20	0	0	90	36.1581920903955	36.241610738255	15	0.500034120026976	2	3	4	NaN	1	5	0.0555282324327609	0	1	NaN	168	3	42	1	120	220	320	NaN	520	0.103471069596708	1	1	NaN	2410475.9251933	NaN	2410476.9086309	2410477.42514503
23	20	0	0	90	36.1581920903955	36.241610738255	23	0.766718984041363	2	1	6	NaN	1	4	0.0555282324327609	0	1	NaN	169	3	43	1	120	220	320	NaN	520	0.0103911221958697	1	1	NaN	2410478.3421354	NaN	2410479.3254858	2410479.84205168
23	20	0	0	90	36.1581920903955	36.241610738255	9	0.300020472016186	2	7	3	NaN	2	3	0.0555282324327609	0	1	NaN	170	3	44	1	120	220	320	NaN	520	0.0894484221935272	2	1	NaN	2410480.6589846	NaN	2410481.6423854	2410482.15894578
23	20	0	0	90	36.1581920903955	36.241610738255	24	0.800054592043161	2	11	3	NaN	2	4	0.0555282324327609	0	1	NaN	171	3	45	1	120	220	320	NaN	520	0.0104284221306443	2	1	NaN	2410483.0590884	NaN	2410484.0426175	2410484.55918418
23	20	0	0	90	36.1581920903955	36.241610738255	19	0.633376552034169	2	9	4	NaN	2	5	0.0555282324327609	0	1	NaN	172	3	46	1	120	220	320	NaN	520	1.8443914372474	2	1	NaN	2410485.376121	NaN	2410486.3595169	2410486.87607976
23	20	0	0	90	36.1581920903955	36.241610738255	8	0.266684864014387	2	12	3	NaN	2	3	0.0555282324327609	0	1	NaN	173	3	47	1	120	220	320	NaN	520	0.0540411220863461	2	1	NaN	2410489.5265404	NaN	2410490.5099222	2410491.02648228
23	20	0	0	90	36.1581920903955	36.241610738255	14	0.466698512025177	2	12	1	NaN	2	3	0.0555282324327609	0	1	NaN	174	3	48	1	120	220	320	NaN	520	0.111089522019029	2	1	NaN	2410491.8933089	NaN	2410492.8768043	2410493.39338638
23	20	0	0	90	36.1581920903955	36.241610738255	20	0.666712160035968	2	8	4	NaN	2	3	0.0555282324327609	0	1	NaN	175	3	49	1	120	220	320	NaN	520	0.117635669652373	2	1	NaN	2410494.3270093	NaN	2410495.3104003	2410495.82694403
23	20	0	0	90	36.1581920903955	36.241610738255	23	0.766718984041363	2	9	4	NaN	2	5	0.0555282324327609	0	1	NaN	176	3	50	1	120	220	320	NaN	520	0.155981374904513	2	1	NaN	2410496.7605622	NaN	2410497.7439802	2410498.26051913
23	20	0	0	90	36.1581920903955	36.241610738255	24	0.800054592043161	2	10	3	NaN	2	3	0.0555282324327609	0	1	NaN	177	3	51	1	120	220	320	NaN	520	0.0103907221928239	1	0	NaN	2410499.227348	NaN	2410500.2108773	2410500.72743468
23	20	0	0	90	36.1581920903955	36.241610738255	14	0.466698512025177	2	8	2	NaN	2	4	0.0555282324327609	0	1	NaN	178	3	52	1	120	220	320	NaN	520	0.0103905219584703	1	0	NaN	2410501.5610533	NaN	2410502.5444488	2410503.06099878
23	20	0	0	90	36.1581920903955	36.241610738255	14	0.466698512025177	2	4	4	NaN	1	5	0.0555282324327609	0	1	NaN	179	3	53	1	120	220	320	NaN	520	0.462579569313675	2	0	NaN	2410503.8778174	NaN	2410504.8613925	2410505.37788273
23	20	0	0	90	36.1581920903955	36.241610738255	22	0.733383376039565	2	3	4	NaN	1	3	0.0555282324327609	0	1	NaN	180	3	54	1	120	220	320	NaN	520	0.0104118692688644	2	0	NaN	2410506.6615514	NaN	2410507.6449221	2410508.16149683
23	20	0	0	90	36.1581920903955	36.241610738255	12	0.400027296021581	2	2	6	NaN	1	3	0.0555282324327609	0	1	NaN	181	3	55	1	120	220	320	NaN	520	0.114069769624621	2	0	NaN	2410508.9784374	NaN	2410509.9618394	2410510.47838623
23	20	0	0	90	36.1581920903955	36.241610738255	21	0.700047768037766	2	12	1	NaN	2	3	0.0555282324327609	0	1	NaN	182	3	56	1	120	220	320	NaN	520	0.0103936223313212	2	1	NaN	2410511.4120218	NaN	2410512.3954124	2410512.91196998
23	20	0	0	90	36.1581920903955	36.241610738255	21	0.700047768037766	2	1	3	NaN	1	4	0.0555282324327609	0	1	NaN	183	3	57	1	120	220	320	NaN	520	0.236030521802604	1	1	NaN	2410513.7289083	NaN	2410514.7122933	2410515.22886138
23	20	0	0	90	36.1581920903955	36.241610738255	11	0.366691688019782	2	11	6	NaN	2	3	0.0555282324327609	0	1	NaN	184	3	58	1	120	220	320	NaN	520	0.0104229170829058	2	1	NaN	2410516.2790798	NaN	2410517.2625574	2410517.77910748
23	20	0	0	90	36.1581920903955	36.241610738255	7	0.233349256012589	2	11	2	NaN	2	3	0.0555282324327609	0	1	NaN	185	3	59	1	120	220	320	NaN	520	0.0104549168609083	2	1	NaN	2410518.6126107	NaN	2410519.5961525	2410520.11267328
23	20	0	0	90	36.1581920903955	36.241610738255	9	0.300020472016186	2	1	2	NaN	1	5	0.0555282324327609	0	1	NaN	186	3	60	1	120	220	320	NaN	520	0.0109461168758571	2	0	NaN	2410520.9294989	NaN	2410521.9130031	2410522.42956448
23	20	0	0	90	36.1581920903955	36.241610738255	0	0	1	5	4	NaN	1	5	0.0555282324327609	0	1	NaN	187	3	61	1	110	210	310	NaN	510	0.0103889219462872	2	0	NaN	2410523.263174	NaN	2410524.2465668	2410524.76312768
23	20	0	0	90	36.1581920903955	36.241610738255	23	0.766718984041363	2	9	2	NaN	2	5	0.0555282324327609	0	1	NaN	188	3	62	1	120	220	320	NaN	520	0.0804495695047081	2	1	NaN	2410525.5800708	NaN	2410526.5634713	2410527.08001923
23	20	0	0	90	36.1581920903955	36.241610738255	21	0.700047768037766	2	3	4	NaN	1	4	0.0555282324327609	0	1	NaN	189	3	63	1	120	220	320	NaN	520	0.0103924218565226	2	0	NaN	2410527.9637036	NaN	2410528.9470335	2410529.46359558
23	20	0	0	90	36.1581920903955	36.241610738255	20	0.666712160035968	2	10	3	NaN	2	4	0.0555282324327609	0	1	NaN	190	4	1	1	120	220	320	NaN	520	0.119642469566315	2	1	NaN	2410554.3329069	NaN	2410555.3162757	2410555.83284643
23	20	0	0	90	36.1581920903955	36.241610738255	17	0.566705336030573	2	6	4	NaN	1	5	0.0555282324327609	0	1	NaN	191	4	2	1	120	220	320	NaN	520	1.11849722219631	2	0	NaN	2410556.7664753	NaN	2410557.749826	2410558.26642018
23	20	0	0	90	36.1581920903955	36.241610738255	24	0.800054592043161	2	5	5	NaN	1	5	0.0555282324327609	0	1	NaN	192	4	3	1	120	220	320	NaN	520	1.53851444227621	1	1	NaN	2410560.4501746	NaN	2410561.4335607	2410561.95011636
23	20	0	0	90	36.1581920903955	36.241610738255	23	0.766718984041363	2	4	6	NaN	1	5	0.0555282324327609	0	1	NaN	193	4	4	1	120	220	320	NaN	520	0.272189869079739	1	1	NaN	2410564.3004793	NaN	2410565.2839446	2410565.80049613
23	20	0	0	90	36.1581920903955	36.241610738255	6	0.20001364801079	2	12	2	NaN	2	5	0.0555282324327609	0	1	NaN	194	4	5	1	120	220	320	NaN	520	0.0103973220102489	2	1	NaN	2410566.8841342	NaN	2410567.8675279	2410568.38408638
23	20	0	0	90	36.1581920903955	36.241610738255	9	0.300020472016186	2	9	1	NaN	2	3	0.0555282324327609	0	1	NaN	195	4	6	1	120	220	320	NaN	520	0.0104029695503414	2	1	NaN	2410569.2010216	NaN	2410570.1844267	2410570.70097123
23	20	0	0	90	36.1581920903955	36.241610738255	20	0.666712160035968	2	7	1	NaN	2	5	0.0555282324327609	0	1	NaN	196	4	7	1	120	220	320	NaN	520	1.47782252216712	2	1	NaN	2410571.5345913	NaN	2410572.5179849	2410573.03453758
23	20	0	0	90	36.1581920903955	36.241610738255	6	0.20001364801079	2	2	5	NaN	1	5	0.0555282324327609	0	1	NaN	197	4	8	1	120	220	320	NaN	520	0.010391722433269	2	0	NaN	2410575.31829	NaN	2410576.3017005	2410576.81825038
23	20	0	0	90	36.1581920903955	36.241610738255	11	0.366691688019782	2	12	1	NaN	2	4	0.0555282324327609	0	1	NaN	198	4	9	1	120	220	320	NaN	520	1.664837569464	2	1	NaN	2410577.6518818	NaN	2410578.6352562	2410579.15180413
23	20	0	0	90	36.1581920903955	36.241610738255	25	0.83339020004496	2	2	5	NaN	1	5	0.0555282324327609	0	1	NaN	199	4	10	1	120	220	320	NaN	520	0.816859121900052	2	0	NaN	2410581.6355477	NaN	2410582.618978	2410583.13553768
23	20	0	0	90	36.1581920903955	36.241610738255	10	0.333356080017984	2	12	6	NaN	2	5	0.0555282324327609	0	1	NaN	200	4	11	1	120	220	320	NaN	520	0.0103890220634639	2	1	NaN	2410584.7692256	NaN	2410585.752615	2410586.26917988
23	20	0	0	90	36.1581920903955	36.241610738255	22	0.733383376039565	2	3	3	NaN	1	5	0.0555282324327609	0	1	NaN	201	4	12	1	120	220	320	NaN	520	0.0104058692231774	1	1	NaN	2410587.202785	NaN	2410588.1861955	2410588.70273783
23	20	0	0	90	36.1581920903955	36.241610738255	25	0.83339020004496	2	11	2	NaN	2	4	0.0555282324327609	0	1	NaN	202	4	13	1	120	220	320	NaN	520	0.0103907221928239	2	1	NaN	2410589.5196987	NaN	2410590.5030937	2410591.01964708
23	20	0	0	90	36.1581920903955	36.241610738255	17	0.566705336030573	2	11	6	NaN	2	5	0.0555282324327609	0	1	NaN	203	4	14	1	120	220	320	NaN	520	1.06437887949869	2	1	NaN	2410591.8365785	NaN	2410592.8199882	2410593.33653562
23	20	0	0	90	36.1581920903955	36.241610738255	18	0.600040944032371	2	6	4	NaN	1	3	0.0555282324327609	0	1	NaN	204	4	15	1	120	220	320	NaN	520	0.401199594605714	1	1	NaN	2410595.2035782	NaN	2410596.1870078	2410596.70353841
23	20	0	0	90	36.1581920903955	36.241610738255	19	0.633376552034169	2	4	5	NaN	1	3	0.0555282324327609	0	1	NaN	205	4	16	1	120	220	320	NaN	520	0.77996671712026	2	0	NaN	2410597.9203824	NaN	2410598.9039161	2410599.42048038
23	20	0	0	90	36.1581920903955	36.241610738255	18	0.600040944032371	2	10	3	NaN	2	4	0.0555282324327609	0	1	NaN	206	4	17	1	120	220	320	NaN	520	0.375811826903373	1	0	NaN	2410601.0208445	NaN	2410602.0042348	2410602.52077887
23	20	0	0	90	36.1581920903955	36.241610738255	14	0.466698512025177	2	5	1	NaN	1	5	0.0555282324327609	0	1	NaN	207	4	18	1	120	220	320	NaN	520	0.0104095693677664	2	0	NaN	2410603.7044124	NaN	2410604.6878186	2410605.20437393
23	20	0	0	90	36.1581920903955	36.241610738255	17	0.566705336030573	2	2	4	NaN	1	3	0.0555282324327609	0	1	NaN	208	4	19	1	120	220	320	NaN	520	0.010408369358629	1	1	NaN	2410606.0213378	NaN	2410607.0047263	2410607.52125893
23	20	0	0	90	36.1581920903955	36.241610738255	14	0.466698512025177	2	7	6	NaN	2	5	0.0555282324327609	0	1	NaN	209	4	20	1	120	220	320	NaN	520	0.0103953219950199	2	1	NaN	2410608.3548802	NaN	2410609.3382729	2410609.85483008
23	20	0	0	90	36.1581920903955	36.241610738255	16	0.533369728028774	2	5	4	NaN	1	5	0.0555282324327609	0	1	NaN	210	4	21	1	120	220	320	NaN	520	0.0104390643537045	1	1	NaN	2410610.8051267	NaN	2410611.7885187	2410612.30506544
23	20	0	0	90	36.1581920903955	36.241610738255	10	0.333356080017984	2	10	6	NaN	2	5	0.0555282324327609	0	1	NaN	211	4	22	1	120	220	320	NaN	520	0.585996369831264	2	1	NaN	2410613.1387748	NaN	2410614.12209	2410614.63862453
23	20	0	0	90	36.1581920903955	36.241610738255	23	0.766718984041363	2	2	4	NaN	1	4	0.0555282324327609	0	1	NaN	212	4	23	1	120	220	320	NaN	520	0.749713669531047	1	1	NaN	2410616.0389504	NaN	2410617.0224006	2410617.53890793
23	20	0	0	90	36.1581920903955	36.241610738255	16	0.533369728028774	2	1	5	NaN	1	5	0.0555282324327609	0	1	NaN	213	4	24	1	120	220	320	NaN	520	0.818569969385862	2	0	NaN	2410619.1059308	NaN	2410620.0893311	2410620.60587343
23	20	0	0	90	36.1581920903955	36.241610738255	23	0.766718984041363	2	8	2	NaN	2	5	0.0555282324327609	0	1	NaN	214	4	25	1	120	220	320	NaN	520	0.502192569430918	2	1	NaN	2410622.2229965	NaN	2410623.2062932	2410623.72284733
23	20	0	0	90	36.1581920903955	36.241610738255	18	0.600040944032371	2	5	1	NaN	1	5	0.0555282324327609	0	1	NaN	215	4	26	1	120	220	320	NaN	520	0.648796469904482	1	1	NaN	2410625.3397749	NaN	2410626.3232686	2410626.83982133
23	20	0	0	90	36.1581920903955	36.241610738255	19	0.633376552034169	2	2	1	NaN	1	5	0.0555282324327609	0	1	NaN	216	4	27	1	120	220	320	NaN	520	0.512294969521463	2	0	NaN	2410628.3401693	NaN	2410629.3235516	2410629.84012253
23	20	0	0	90	36.1581920903955	36.241610738255	19	0.633376552034169	2	7	3	NaN	2	4	0.0555282324327609	0	1	NaN	217	4	28	1	120	220	320	NaN	520	0.592573469504714	2	1	NaN	2410631.5404507	NaN	2410632.5238686	2410633.04043853
23	20	0	0	90	36.1581920903955	36.241610738255	19	0.633376552034169	2	11	4	NaN	2	5	0.0555282324327609	0	1	NaN	218	4	29	1	120	220	320	NaN	520	0.26733922213316	2	1	NaN	2410634.8574572	NaN	2410635.8408682	2410636.35743568
23	20	0	0	90	36.1581920903955	36.241610738255	0	0	1	9	6	NaN	2	4	0.0555282324327609	0	1	NaN	219	4	30	1	110	210	310	NaN	510	0.0104224164970219	1	0	NaN	2410638.0077813	NaN	2410638.991237	2410639.50773388
23	20	0	0	90	36.1581920903955	36.241610738255	23	0.766718984041363	2	3	1	NaN	1	3	0.0555282324327609	0	1	NaN	220	4	31	1	120	220	320	NaN	520	0.0104025695472956	2	0	NaN	2410640.3246853	NaN	2410641.308063	2410641.82462873
23	20	0	0	90	36.1581920903955	36.241610738255	22	0.733383376039565	2	5	3	NaN	1	4	0.0555282324327609	0	1	NaN	221	4	32	1	120	220	320	NaN	520	0.0965062691830099	2	0	NaN	2410642.7082242	NaN	2410643.6916521	2410644.20819653
23	20	0	0	90	36.1581920903955	36.241610738255	20	0.666712160035968	2	8	3	NaN	2	4	0.0555282324327609	0	1	NaN	222	4	33	1	120	220	320	NaN	520	0.0104155694134533	1	0	NaN	2410645.2584853	NaN	2410646.2418963	2410646.75844303
23	20	0	0	90	36.1581920903955	36.241610738255	21	0.700047768037766	2	10	4	NaN	2	4	0.0555282324327609	0	1	NaN	223	4	34	1	120	220	320	NaN	520	0.317273469641805	1	0	NaN	2410647.5754023	NaN	2410648.5587973	2410649.07534583
23	20	0	0	90	36.1581920903955	36.241610738255	19	0.633376552034169	2	12	3	NaN	2	4	0.0555282324327609	0	1	NaN	224	4	35	1	120	220	320	NaN	520	0.0103303422220051	2	1	NaN	2410650.2089806	NaN	2410651.1923704	2410651.70893546
23	20	0	0	90	36.1581920903955	36.241610738255	18	0.600040944032371	2	10	3	NaN	2	5	0.0555282324327609	0	1	NaN	225	4	36	1	120	220	320	NaN	520	0.0709775695577264	2	1	NaN	2410652.5257739	NaN	2410653.50927	2410654.02582823
23	20	0	0	90	36.1581920903955	36.241610738255	6	0.20001364801079	2	6	4	NaN	1	4	0.0555282324327609	0	1	NaN	226	4	37	1	120	220	320	NaN	520	0.271337922196835	1	1	NaN	2410654.9093452	NaN	2410655.8927603	2410656.40940408
23	20	0	0	90	36.1581920903955	36.241610738255	6	0.20001364801079	2	4	1	NaN	1	3	0.0555282324327609	0	1	NaN	227	4	38	1	120	220	320	NaN	520	0.360086821950972	1	1	NaN	2410657.4929629	NaN	2410658.4764373	2410658.99299088
23	20	0	0	90	36.1581920903955	36.241610738255	16	0.533369728028774	2	6	2	NaN	1	3	0.0555282324327609	0	1	NaN	228	4	39	1	120	220	320	NaN	520	0.285215369425714	1	1	NaN	2410660.1599723	NaN	2410661.1433574	2410661.65990803
23	20	0	0	90	36.1581920903955	36.241610738255	10	0.333356080017984	2	9	1	NaN	2	3	0.0555282324327609	0	1	NaN	229	4	40	1	120	220	320	NaN	520	0.204855137038976	2	1	NaN	2410662.7602277	NaN	2410663.7436104	2410664.26016786
23	20	0	0	90	36.1581920903955	36.241610738255	14	0.466698512025177	2	11	4	NaN	2	5	0.0555282324327609	0	1	NaN	230	4	41	1	120	220	320	NaN	520	0.0103918220847845	2	1	NaN	2410665.2771431	NaN	2410666.2605535	2410666.77708978
23	20	0	0	90	36.1581920903955	36.241610738255	18	0.600040944032371	2	3	5	NaN	1	3	0.0555282324327609	0	1	NaN	231	4	42	1	120	220	320	NaN	520	0.138610216788948	1	1	NaN	2410667.5939321	NaN	2410668.5774376	2410669.09397278
23	20	0	0	90	36.1581920903955	36.241610738255	13	0.433362904023379	2	6	3	NaN	1	5	0.0555282324327609	0	1	NaN	232	4	43	1	120	220	320	NaN	520	0.264531169552356	1	1	NaN	2410670.0442423	NaN	2410671.0276575	2410671.54421253
23	20	0	0	90	36.1581920903955	36.241610738255	9	0.300020472016186	2	9	6	NaN	2	4	0.0555282324327609	0	1	NaN	233	4	44	1	120	220	320	NaN	520	0.0656215697526932	2	1	NaN	2410672.6110825	NaN	2410673.5945763	2410674.11115023
23	20	0	0	90	36.1581920903955	36.241610738255	15	0.500034120026976	2	12	5	NaN	2	4	0.0555282324327609	0	1	NaN	234	4	45	1	120	220	320	NaN	520	0.194101364351809	2	1	NaN	2410674.9947814	NaN	2410675.9781996	2410676.49469654
23	20	0	0	90	36.1581920903955	36.241610738255	13	0.433362904023379	2	1	1	NaN	1	3	0.0555282324327609	0	1	NaN	235	4	46	1	120	220	320	NaN	520	0.230199216865003	1	1	NaN	2410677.4950234	NaN	2410678.4784037	2410678.99494598
23	20	0	0	90	36.1581920903955	36.241610738255	24	0.800054592043161	2	9	3	NaN	2	4	0.0555282324327609	0	1	NaN	236	4	47	1	120	220	320	NaN	520	0.0395466224290431	2	1	NaN	2410680.0452642	NaN	2410681.0286775	2410681.54520598
23	20	0	0	90	36.1581920903955	36.241610738255	8	0.266684864014387	2	3	6	NaN	1	3	0.0555282324327609	0	1	NaN	237	4	48	1	120	220	320	NaN	520	0.0103680267930031	2	0	NaN	2410682.3954833	NaN	2410683.3788824	2410683.89543767
23	20	0	0	90	36.1581920903955	36.241610738255	22	0.733383376039565	2	9	2	NaN	2	4	0.0555282324327609	0	1	NaN	238	4	49	1	120	220	320	NaN	520	0.9325788221322	2	1	NaN	2410684.7123739	NaN	2410685.6958086	2410686.21233228
23	20	0	0	90	36.1581920903955	36.241610738255	0	0	1	3	5	NaN	1	5	0.0555282324327609	0	1	NaN	239	4	50	1	110	210	310	NaN	510	0.273998337332159	1	1	NaN	2410687.9625878	NaN	2410688.9460979	2410689.46265626
23	20	0	0	90	36.1581920903955	36.241610738255	24	0.800054592043161	2	4	4	NaN	1	5	0.0555282324327609	0	1	NaN	240	4	51	1	120	220	320	NaN	520	0.330975821707398	1	1	NaN	2410691.129688	NaN	2410692.113059	2410692.62962928
23	20	0	0	90	36.1581920903955	36.241610738255	19	0.633376552034169	2	7	5	NaN	2	3	0.0555282324327609	0	1	NaN	241	4	52	1	120	220	320	NaN	520	0.312969769351184	2	1	NaN	2410693.7798138	NaN	2410694.7633295	2410695.27988493
23	20	0	0	90	36.1581920903955	36.241610738255	19	0.633376552034169	2	9	5	NaN	2	3	0.0555282324327609	0	1	NaN	242	4	53	1	120	220	320	NaN	520	0.0104215168394148	1	0	NaN	2410696.6634295	NaN	2410697.6469493	2410698.16350268
23	20	0	0	90	36.1581920903955	36.241610738255	10	0.333356080017984	2	5	4	NaN	1	3	0.0555282324327609	0	1	NaN	243	4	54	1	120	220	320	NaN	520	0.0104121696203947	2	0	NaN	2410699.0804157	NaN	2410700.0638529	2410700.58040003
23	20	0	0	90	36.1581920903955	36.241610738255	17	0.566705336030573	2	7	2	NaN	2	3	0.0555282324327609	0	1	NaN	244	4	55	1	120	220	320	NaN	520	1.44678586954251	2	1	NaN	2410701.4140382	NaN	2410702.3974094	2410702.91396703
23	20	0	0	90	36.1581920903955	36.241610738255	20	0.666712160035968	2	9	5	NaN	2	3	0.0555282324327609	0	1	NaN	245	4	56	1	120	220	320	NaN	520	0.0104233170859516	2	1	NaN	2410705.1810547	NaN	2410706.1644638	2410706.68100818
23	20	0	0	90	36.1581920903955	36.241610738255	18	0.600040944032371	2	7	5	NaN	2	4	0.0555282324327609	0	1	NaN	246	4	57	1	120	220	320	NaN	520	1.82724236929789	2	1	NaN	2410707.4979432	NaN	2410708.4813303	2410708.99789083
23	20	0	0	90	36.1581920903955	36.241610738255	22	0.733383376039565	2	11	4	NaN	2	3	0.0555282324327609	0	1	NaN	247	4	58	1	120	220	320	NaN	520	0.0104223168455064	1	0	NaN	2410711.6483564	NaN	2410712.6317578	2410713.14830218
23	20	0	0	90	36.1581920903955	36.241610738255	22	0.733383376039565	2	7	1	NaN	2	4	0.0555282324327609	0	1	NaN	248	4	59	1	120	220	320	NaN	520	0.22290992224589	1	0	NaN	2410713.9817867	NaN	2410714.9653017	2410715.48187338
23	20	0	0	90	36.1581920903955	36.241610738255	16	0.533369728028774	2	5	1	NaN	1	4	0.0555282324327609	0	1	NaN	249	4	60	1	120	220	320	NaN	520	0.289920069742948	2	0	NaN	2410717.498911	NaN	2410718.482351	2410718.99887903
23	20	0	0	90	36.1581920903955	36.241610738255	9	0.300020472016186	2	11	3	NaN	2	4	0.0555282324327609	0	1	NaN	250	4	61	1	120	220	320	NaN	520	0.0104120695032179	2	1	NaN	2410720.0990736	NaN	2410721.0825781	2410721.59913513
23	20	0	0	90	36.1581920903955	36.241610738255	16	0.533369728028774	2	6	4	NaN	1	4	0.0555282324327609	0	1	NaN	251	4	62	1	120	220	320	NaN	520	0.109000069554895	1	1	NaN	2410722.4160245	NaN	2410723.399485	2410723.91602553
23	20	0	0	90	36.1581920903955	36.241610738255	10	0.333356080017984	2	12	6	NaN	2	5	0.0555282324327609	0	1	NaN	252	4	63	1	120	220	320	NaN	520	0.500165969599038	2	1	NaN	2410724.8329933	NaN	2410725.8163912	2410726.33292973
23	20	0	0	90	36.1581920903955	36.241610738255	11	0.366691688019782	2	5	4	NaN	1	5	0.0555282324327609	0	1	NaN	253	5	1	1	120	220	320	NaN	520	0.99427862232551	2	0	NaN	2410733.4504701	NaN	2410734.4338954	2410734.95045258
23	20	0	0	90	36.1581920903955	36.241610738255	8	0.266684864014387	2	6	5	NaN	1	4	0.0555282324327609	0	1	NaN	254	5	2	1	120	220	320	NaN	520	1.28127517504618	1	1	NaN	2410737.2675484	NaN	2410738.2509668	2410738.76748843
23	20	0	0	90	36.1581920903955	36.241610738255	15	0.500034120026976	2	11	4	NaN	2	3	0.0555282324327609	0	1	NaN	255	5	3	1	120	220	320	NaN	520	0.0331091219559312	2	1	NaN	2410740.8678998	NaN	2410741.8513137	2410742.36784978
23	20	0	0	90	36.1581920903955	36.241610738255	6	0.20001364801079	2	9	4	NaN	2	4	0.0555282324327609	0	1	NaN	256	5	4	1	120	220	320	NaN	520	1.77872186945751	2	1	NaN	2410743.2181223	NaN	2410744.2015344	2410744.71807043
23	20	0	0	90	36.1581920903955	36.241610738255	18	0.600040944032371	2	4	5	NaN	1	4	0.0555282324327609	0	1	NaN	257	5	5	1	120	220	320	NaN	520	0.0102674420922995	1	1	NaN	2410747.3185358	NaN	2410748.3018269	2410748.81848196
23	20	0	0	90	36.1581920903955	36.241610738255	0	0	1	5	3	NaN	1	3	0.0555282324327609	0	1	NaN	258	5	6	1	110	210	310	NaN	510	0.0103926220908761	2	0	NaN	2410749.6354195	NaN	2410750.6188489	2410751.13537558
23	20	0	0	90	36.1581920903955	36.241610738255	11	0.366691688019782	2	1	1	NaN	1	5	0.0555282324327609	0	1	NaN	259	5	7	1	120	220	320	NaN	520	0.284673117101192	1	1	NaN	2410751.9523391	NaN	2410752.9357118	2410753.45226328
23	20	0	0	90	36.1581920903955	36.241610738255	0	0	1	6	5	NaN	1	4	0.0555282324327609	0	1	NaN	260	5	8	1	110	210	310	NaN	510	0.419903769623488	2	0	NaN	2410754.9692823	NaN	2410755.9527196	2410756.46922113
23	20	0	0	90	36.1581920903955	36.241610738255	23	0.766718984041363	2	12	2	NaN	2	5	0.0555282324327609	0	1	NaN	261	5	9	1	120	220	320	NaN	520	0.469991722144186	1	0	NaN	2410757.702883	NaN	2410758.6862928	2410759.20283668
23	20	0	0	90	36.1581920903955	36.241610738255	12	0.400027296021581	2	3	4	NaN	1	3	0.0555282324327609	0	1	NaN	262	5	10	1	120	220	320	NaN	520	0.433571769855917	1	1	NaN	2410761.0032028	NaN	2410761.9866442	2410762.50314833
23	20	0	0	90	36.1581920903955	36.241610738255	22	0.733383376039565	2	6	3	NaN	1	4	0.0555282324327609	0	1	NaN	263	5	11	1	120	220	320	NaN	520	0.371575437486172	1	1	NaN	2410763.7534798	NaN	2410764.7368521	2410765.25343056
23	20	0	0	90	36.1581920903955	36.241610738255	13	0.433362904023379	2	9	1	NaN	2	4	0.0555282324327609	0	1	NaN	264	5	12	1	120	220	320	NaN	520	0.351770469453186	1	0	NaN	2410766.4369556	NaN	2410767.4204811	2410767.93701573
23	20	0	0	90	36.1581920903955	36.241610738255	6	0.20001364801079	2	11	1	NaN	2	5	0.0555282324327609	0	1	NaN	265	5	13	1	120	220	320	NaN	520	0.188827769365162	2	1	NaN	2410769.1040112	NaN	2410770.0873102	2410770.60394473
23	20	0	0	90	36.1581920903955	36.241610738255	8	0.266684864014387	2	11	6	NaN	2	4	0.0555282324327609	0	1	NaN	266	5	14	1	120	220	320	NaN	520	0.0487923696637154	2	1	NaN	2410771.6042318	NaN	2410772.5876415	2410773.10420263
23	20	0	0	90	36.1581920903955	36.241610738255	19	0.633376552034169	2	5	2	NaN	1	4	0.0555282324327609	0	1	NaN	267	5	15	1	120	220	320	NaN	520	0.263157369568944	1	1	NaN	2410774.0377901	NaN	2410775.0212016	2410775.53776173
23	20	0	0	90	36.1581920903955	36.241610738255	14	0.466698512025177	2	10	5	NaN	2	5	0.0555282324327609	0	1	NaN	268	5	16	1	120	220	320	NaN	520	0.911604122258723	1	0	NaN	2410776.6214167	NaN	2410777.6048004	2410778.12134888
23	20	0	0	90	36.1581920903955	36.241610738255	0	0	1	8	1	NaN	2	3	0.0555282324327609	0	1	NaN	269	5	17	1	110	210	310	NaN	510	0.297732922248542	1	0	NaN	2410780.5550223	NaN	2410781.5384316	2410782.05509168
23	20	0	0	90	36.1581920903955	36.241610738255	7	0.233349256012589	2	3	3	NaN	1	5	0.0555282324327609	0	1	NaN	270	5	18	1	120	220	320	NaN	520	0.344930169638246	1	1	NaN	2410783.1720681	NaN	2410784.1555006	2410784.67200233
23	20	0	0	90	36.1581920903955	36.241610738255	22	0.733383376039565	2	1	6	NaN	1	4	0.0555282324327609	0	1	NaN	271	5	19	1	120	220	320	NaN	520	0.350324169266969	2	0	NaN	2410785.8389818	NaN	2410786.8223778	2410787.33892983
23	20	0	0	90	36.1581920903955	36.241610738255	25	0.83339020004496	2	1	1	NaN	1	3	0.0555282324327609	0	1	NaN	272	5	20	1	120	220	320	NaN	520	0.563397622201592	1	1	NaN	2410788.5058979	NaN	2410789.4893489	2410790.00586168
23	20	0	0	90	36.1581920903955	36.241610738255	0	0	1	12	1	NaN	2	3	0.0555282324327609	0	1	NaN	273	5	21	1	110	210	310	NaN	510	0.248399721924216	2	1	NaN	2410791.9729143	NaN	2410792.9563045	2410793.47286618
23	20	0	0	90	36.1581920903955	36.241610738255	10	0.333356080017984	2	5	5	NaN	1	3	0.0555282324327609	0	1	NaN	274	5	22	1	120	220	320	NaN	520	0.252395407296717	1	1	NaN	2410794.6563846	NaN	2410795.6399095	2410796.15646329
23	20	0	0	90	36.1581920903955	36.241610738255	17	0.566705336030573	2	12	1	NaN	2	4	0.0555282324327609	0	1	NaN	275	5	23	1	120	220	320	NaN	520	0.571964422240853	2	1	NaN	2410797.4567687	NaN	2410798.4401797	2410798.95674118
23	20	0	0	90	36.1581920903955	36.241610738255	18	0.600040944032371	2	1	3	NaN	1	5	0.0555282324327609	0	1	NaN	276	5	24	1	120	220	320	NaN	520	0.264917116612196	1	1	NaN	2410800.3404271	NaN	2410801.3238027	2410801.84034788
23	20	0	0	90	36.1581920903955	36.241610738255	6	0.20001364801079	2	8	1	NaN	2	5	0.0555282324327609	0	1	NaN	277	5	25	1	120	220	320	NaN	520	0.329323121812195	2	1	NaN	2410802.9240042	NaN	2410803.9073875	2410804.42394418
23	20	0	0	90	36.1581920903955	36.241610738255	20	0.666712160035968	2	2	6	NaN	1	5	0.0555282324327609	0	1	NaN	278	5	26	1	120	220	320	NaN	520	0.503376969601959	1	1	NaN	2410805.5576129	NaN	2410806.540983	2410807.05752683
23	20	0	0	90	36.1581920903955	36.241610738255	15	0.500034120026976	2	5	2	NaN	1	3	0.0555282324327609	0	1	NaN	279	5	27	1	120	220	320	NaN	520	0.278815469238907	2	0	NaN	2410808.3745369	NaN	2410809.3579075	2410809.87446903
23	20	0	0	90	36.1581920903955	36.241610738255	9	0.300020472016186	2	4	3	NaN	1	3	0.0555282324327609	0	1	NaN	280	5	28	1	120	220	320	NaN	520	0.682176421862096	2	0	NaN	2410811.4748299	NaN	2410812.4582173	2410812.97478398
23	20	0	0	90	36.1581920903955	36.241610738255	14	0.466698512025177	2	9	4	NaN	2	4	0.0555282324327609	0	1	NaN	281	5	29	1	120	220	320	NaN	520	0.121945390012115	1	0	NaN	2410814.4751344	NaN	2410815.4585168	2410815.97507901
23	20	0	0	90	36.1581920903955	36.241610738255	6	0.20001364801079	2	3	6	NaN	1	3	0.0555282324327609	0	1	NaN	282	5	30	1	120	220	320	NaN	520	0.0498079219833016	1	1	NaN	2410817.475409	NaN	2410818.458815	2410818.97537258
23	20	0	0	90	36.1581920903955	36.241610738255	20	0.666712160035968	2	7	4	NaN	2	5	0.0555282324327609	0	1	NaN	283	5	31	1	120	220	320	NaN	520	1.52794216945767	2	1	NaN	2410820.5090307	NaN	2410821.4924374	2410822.00899303
23	20	0	0	90	36.1581920903955	36.241610738255	8	0.266684864014387	2	7	2	NaN	2	5	0.0555282324327609	0	1	NaN	284	5	32	1	120	220	320	NaN	520	0.0104192169383168	2	1	NaN	2410824.8094653	NaN	2410825.7928787	2410826.30941618
23	20	0	0	90	36.1581920903955	36.241610738255	17	0.566705336030573	2	3	4	NaN	1	3	0.0555282324327609	0	1	NaN	285	5	33	1	120	220	320	NaN	520	0.0958043220452964	2	0	NaN	2410828.4931513	NaN	2410829.4765522	2410829.99312348
23	20	0	0	90	36.1581920903955	36.241610738255	12	0.400027296021581	2	4	6	NaN	1	4	0.0555282324327609	0	1	NaN	286	5	34	1	120	220	320	NaN	520	1.59168026922271	2	0	NaN	2410830.8935034	NaN	2410831.8769148	2410832.39335913
23	20	0	0	90	36.1581920903955	36.241610738255	17	0.566705336030573	2	5	1	NaN	1	3	0.0555282324327609	0	1	NaN	287	5	35	1	120	220	320	NaN	520	0.523568274918944	2	0	NaN	2410834.7938397	NaN	2410835.7771817	2410836.29374243
23	20	0	0	90	36.1581920903955	36.241610738255	9	0.300020472016186	2	7	2	NaN	2	5	0.0555282324327609	0	1	NaN	288	5	36	1	120	220	320	NaN	520	0.473820516839623	2	1	NaN	2410837.6273982	NaN	2410838.6108055	2410839.12735078
23	20	0	0	90	36.1581920903955	36.241610738255	8	0.266684864014387	2	3	4	NaN	1	5	0.0555282324327609	0	1	NaN	289	5	37	1	120	220	320	NaN	520	0.378066922072321	1	1	NaN	2410840.4109798	NaN	2410841.3944022	2410841.91095388
23	20	0	0	90	36.1581920903955	36.241610738255	0	0	1	7	4	NaN	2	3	0.0555282324327609	0	1	NaN	290	5	38	1	110	210	310	NaN	510	0.326082922052592	2	1	NaN	2410843.1112532	NaN	2410844.0946838	2410844.61122518
23	20	0	0	90	36.1581920903955	36.241610738255	17	0.566705336030573	2	8	6	NaN	2	5	0.0555282324327609	0	1	NaN	291	5	39	1	120	220	320	NaN	520	0.35571066942066	1	0	NaN	2410845.7615674	NaN	2410846.7449705	2410847.26147403
23	20	0	0	90	36.1581920903955	36.241610738255	25	0.83339020004496	2	3	1	NaN	1	5	0.0555282324327609	0	1	NaN	292	5	40	1	120	220	320	NaN	520	1.00890182238072	2	0	NaN	2410848.428443	NaN	2410849.4118789	2410849.92840508
23	20	0	0	90	36.1581920903955	36.241610738255	11	0.366691688019782	2	9	3	NaN	2	5	0.0555282324327609	0	1	NaN	293	5	41	1	120	220	320	NaN	520	0.0102669419720769	2	1	NaN	2410851.7454595	NaN	2410852.728846	2410853.24541216
23	20	0	0	90	36.1581920903955	36.241610738255	14	0.466698512025177	2	1	5	NaN	1	3	0.0555282324327609	0	1	NaN	294	5	42	1	120	220	320	NaN	520	0.254625021945685	2	0	NaN	2410854.06224	NaN	2410855.0457506	2410855.56230038
23	20	0	0	90	36.1581920903955	36.241610738255	6	0.20001364801079	2	12	3	NaN	2	5	0.0555282324327609	0	1	NaN	295	5	43	1	120	220	320	NaN	520	1.29561678459868	2	1	NaN	2410856.6292665	NaN	2410857.6126755	2410858.12921812
23	20	0	0	90	36.1581920903955	36.241610738255	0	0	1	10	6	NaN	2	5	0.0555282324327609	0	1	NaN	296	5	44	1	110	210	310	NaN	510	0.0104774693027139	2	1	NaN	2410860.5629957	NaN	2410861.5463621	2410862.06293553
23	20	0	0	90	36.1581920903955	36.241610738255	15	0.500034120026976	2	12	6	NaN	2	4	0.0555282324327609	0	1	NaN	297	5	45	1	120	220	320	NaN	520	0.0103867221623659	1	0	NaN	2410862.8799226	NaN	2410863.863271	2410864.37982928
23	20	0	0	90	36.1581920903955	36.241610738255	9	0.300020472016186	2	1	1	NaN	1	3	0.0555282324327609	0	1	NaN	298	5	46	1	120	220	320	NaN	520	0.336324469186366	1	1	NaN	2410865.196673	NaN	2410866.1802131	2410866.69672403
23	20	0	0	90	36.1581920903955	36.241610738255	0	0	1	4	1	NaN	1	5	0.0555282324327609	0	1	NaN	299	5	47	1	110	210	310	NaN	510	0.390175264328718	2	0	NaN	2410867.8470621	NaN	2410868.8304187	2410869.34698224
23	20	0	0	90	36.1581920903955	36.241610738255	10	0.333356080017984	2	10	6	NaN	2	5	0.0555282324327609	0	1	NaN	300	5	48	1	120	220	320	NaN	520	0.298643222078681	2	1	NaN	2410870.7306503	NaN	2410871.7140474	2410872.23060338
23	20	0	0	90	36.1581920903955	36.241610738255	11	0.366691688019782	2	2	5	NaN	1	4	0.0555282324327609	0	1	NaN	301	5	49	1	120	220	320	NaN	520	0.281680069863796	2	0	NaN	2410873.3475792	NaN	2410874.3309766	2410874.84751623
23	20	0	0	90	36.1581920903955	36.241610738255	19	0.633376552034169	2	1	5	NaN	1	5	0.0555282324327609	0	1	NaN	302	5	50	1	120	220	320	NaN	520	0.856555822305381	2	0	NaN	2410876.3645349	NaN	2410877.3479549	2410877.86449248
23	20	0	0	90	36.1581920903955	36.241610738255	11	0.366691688019782	2	4	6	NaN	1	4	0.0555282324327609	0	1	NaN	303	5	51	1	120	220	320	NaN	520	0.209426822140813	2	0	NaN	2410879.5313939	NaN	2410880.5148918	2410881.03146678
23	20	0	0	90	36.1581920903955	36.241610738255	13	0.433362904023379	2	3	2	NaN	1	5	0.0555282324327609	0	1	NaN	304	5	52	1	120	220	320	NaN	520	0.180701800156385	1	1	NaN	2410882.0484641	NaN	2410883.0318563	2410883.5483983
23	20	0	0	90	36.1581920903955	36.241610738255	18	0.600040944032371	2	2	6	NaN	1	5	0.0555282324327609	0	1	NaN	305	5	53	1	120	220	320	NaN	520	0.911367690190673	2	0	NaN	2410884.7820474	NaN	2410885.765424	2410886.28199041
23	20	0	0	90	36.1581920903955	36.241610738255	16	0.533369728028774	2	8	4	NaN	2	4	0.0555282324327609	0	1	NaN	306	5	54	1	120	220	320	NaN	520	0.733990469481796	2	1	NaN	2410887.9990042	NaN	2410888.9824255	2410889.49895953
23	20	0	0	90	36.1581920903955	36.241610738255	0	0	1	2	2	NaN	1	3	0.0555282324327609	0	1	NaN	307	5	55	1	110	210	310	NaN	510	0.0104082697071135	1	1	NaN	2410891.0491681	NaN	2410892.032714	2410892.54925593
23	20	0	0	90	36.1581920903955	36.241610738255	12	0.400027296021581	2	6	3	NaN	1	3	0.0555282324327609	0	1	NaN	308	5	56	1	120	220	320	NaN	520	0.0104100694879889	1	1	NaN	2410893.3662353	NaN	2410894.3495999	2410894.86616883
23	20	0	0	90	36.1581920903955	36.241610738255	7	0.233349256012589	2	12	5	NaN	2	5	0.0555282324327609	0	1	NaN	309	5	57	1	120	220	320	NaN	520	0.0502662747167051	2	1	NaN	2410895.682998	NaN	2410896.6664991	2410897.18305363
23	20	0	0	90	36.1581920903955	36.241610738255	10	0.333356080017984	2	8	3	NaN	2	5	0.0555282324327609	0	1	NaN	310	5	58	1	120	220	320	NaN	520	0.586979169398546	2	1	NaN	2410898.0500007	NaN	2410899.0334072	2410899.54994593
23	20	0	0	90	36.1581920903955	36.241610738255	7	0.233349256012589	2	6	3	NaN	1	4	0.0555282324327609	0	1	NaN	311	5	59	1	120	220	320	NaN	520	0.311140117235482	1	1	NaN	2410900.9502965	NaN	2410901.9336807	2410902.45023718
23	20	0	0	90	36.1581920903955	36.241610738255	16	0.533369728028774	2	7	3	NaN	2	5	0.0555282324327609	0	1	NaN	312	5	60	1	120	220	320	NaN	520	0.301220921799541	1	0	NaN	2410903.5838668	NaN	2410904.5672762	2410905.08384468
23	20	0	0	90	36.1581920903955	36.241610738255	7	0.233349256012589	2	9	3	NaN	2	3	0.0555282324327609	0	1	NaN	313	5	61	1	120	220	320	NaN	520	0.188430622220039	2	1	NaN	2410906.2008069	NaN	2410907.1841947	2410907.70075608
23	20	0	0	90	36.1581920903955	36.241610738255	13	0.433362904023379	2	9	6	NaN	2	5	0.0555282324327609	0	1	NaN	314	5	62	1	120	220	320	NaN	520	0.256156869698316	2	1	NaN	2410908.7009052	NaN	2410909.684446	2410910.20098843
23	20	0	0	90	36.1581920903955	36.241610738255	15	0.500034120026976	2	4	4	NaN	1	5	0.0555282324327609	0	1	NaN	315	5	63	1	120	220	320	NaN	520	0.010410369373858	1	1	NaN	2410911.2679748	NaN	2410912.2513467	2410912.76791143
23	20	0	0	90	36.1581920903955	36.241610738255	0	0	1	6	5	NaN	1	3	0.0555282324327609	0	1	NaN	316	6	1	1	110	210	310	NaN	510	0.252597522456199	2	0	NaN	2410920.3688332	NaN	2410921.3522449	2410921.86880418
23	20	0	0	90	36.1581920903955	36.241610738255	12	0.400027296021581	2	6	1	NaN	1	5	0.0555282324327609	0	1	NaN	317	6	2	1	120	220	320	NaN	520	0.197646769694984	1	1	NaN	2410922.9357695	NaN	2410923.9191907	2410924.43572263
23	20	0	0	90	36.1581920903955	36.241610738255	0	0	1	8	3	NaN	2	5	0.0555282324327609	0	1	NaN	318	6	3	1	110	210	310	NaN	510	0.520351569633931	1	0	NaN	2410925.4525663	NaN	2410926.4360875	2410926.95264553
23	20	0	0	90	36.1581920903955	36.241610738255	13	0.433362904023379	2	4	6	NaN	1	4	0.0555282324327609	0	1	NaN	319	6	4	1	120	220	320	NaN	520	0.247059869579971	1	1	NaN	2410928.2862927	NaN	2410929.2696873	2410929.78624563
23	20	0	0	90	36.1581920903955	36.241610738255	8	0.266684864014387	2	1	5	NaN	1	5	0.0555282324327609	0	1	NaN	320	6	5	1	120	220	320	NaN	520	0.0104135693982244	2	0	NaN	2410930.8365601	NaN	2410931.8199499	2410932.33650793
23	20	0	0	90	36.1581920903955	36.241610738255	9	0.300020472016186	2	5	2	NaN	1	5	0.0555282324327609	0	1	NaN	321	6	6	1	120	220	320	NaN	520	0.0104135693982244	1	1	NaN	2410933.1701484	NaN	2410934.1535213	2410934.67007293
23	20	0	0	90	36.1581920903955	36.241610738255	17	0.566705336030573	2	10	5	NaN	2	4	0.0555282324327609	0	1	NaN	322	6	7	1	120	220	320	NaN	520	0.0103620267473161	1	0	NaN	2410935.5036968	NaN	2410936.4870554	2410937.00362887
23	20	0	0	90	36.1581920903955	36.241610738255	14	0.466698512025177	2	3	3	NaN	1	3	0.0555282324327609	0	1	NaN	323	6	8	1	120	220	320	NaN	520	0.184471269603819	1	1	NaN	2410937.8205668	NaN	2410938.80396	2410939.32052343
23	20	0	0	90	36.1581920903955	36.241610738255	14	0.466698512025177	2	6	2	NaN	1	4	0.0555282324327609	0	1	NaN	324	6	9	1	120	220	320	NaN	520	0.236345122102648	1	1	NaN	2410940.3208277	NaN	2410941.3042047	2410941.82076968
23	20	0	0	90	36.1581920903955	36.241610738255	18	0.600040944032371	2	8	2	NaN	2	4	0.0555282324327609	0	1	NaN	325	6	10	1	120	220	320	NaN	520	0.0103932218626142	1	0	NaN	2410942.8710709	NaN	2410943.8544719	2410944.37102348
23	20	0	0	90	36.1581920903955	36.241610738255	15	0.500034120026976	2	2	1	NaN	1	4	0.0555282324327609	0	1	NaN	326	6	11	1	120	220	320	NaN	520	0.785118321888149	1	1	NaN	2410945.1879521	NaN	2410946.1713635	2410946.68791668
23	20	0	0	90	36.1581920903955	36.241610738255	9	0.300020472016186	2	12	4	NaN	2	5	0.0555282324327609	0	1	NaN	327	6	12	1	120	220	320	NaN	520	0.0105108749121428	2	1	NaN	2410948.2882668	NaN	2410949.2716941	2410949.78822363
23	20	0	0	90	36.1581920903955	36.241610738255	16	0.533369728028774	2	12	3	NaN	2	4	0.0555282324327609	0	1	NaN	328	6	13	1	120	220	320	NaN	520	0.967258089687675	2	1	NaN	2410950.6218422	NaN	2410951.6052255	2410952.12178771
23	20	0	0	90	36.1581920903955	36.241610738255	22	0.733383376039565	2	7	3	NaN	2	3	0.0555282324327609	0	1	NaN	329	6	14	1	120	220	320	NaN	520	0.0104048694483936	2	1	NaN	2410953.9054898	NaN	2410954.8888859	2410955.40543743
23	20	0	0	90	36.1581920903955	36.241610738255	11	0.366691688019782	2	3	2	NaN	1	3	0.0555282324327609	0	1	NaN	330	6	15	1	120	220	320	NaN	520	0.551205422263592	1	1	NaN	2410956.2223758	NaN	2410957.2057812	2410957.72233258
23	20	0	0	90	36.1581920903955	36.241610738255	13	0.433362904023379	2	4	2	NaN	1	5	0.0555282324327609	0	1	NaN	331	6	16	1	120	220	320	NaN	520	0.427806126885116	1	1	NaN	2410959.089332	NaN	2410960.0727165	2410960.58929917
23	20	0	0	90	36.1581920903955	36.241610738255	23	0.766718984041363	2	1	5	NaN	1	3	0.0555282324327609	0	1	NaN	332	6	17	1	120	220	320	NaN	520	0.710160806775093	1	1	NaN	2410961.8229402	NaN	2410962.806317	2410963.32287749
23	20	0	0	90	36.1581920903955	36.241610738255	21	0.700047768037766	2	8	4	NaN	2	5	0.0555282324327609	0	1	NaN	333	6	18	1	120	220	320	NaN	520	0.542795269284397	2	1	NaN	2410965.2065626	NaN	2410966.1899861	2410966.70653813
23	20	0	0	90	36.1581920903955	36.241610738255	22	0.733383376039565	2	6	2	NaN	1	4	0.0555282324327609	0	1	NaN	334	6	19	1	120	220	320	NaN	520	0.438610522076488	1	1	NaN	2410968.4068892	NaN	2410969.3903134	2410969.90686718
23	20	0	0	90	36.1581920903955	36.241610738255	23	0.766718984041363	2	7	6	NaN	2	5	0.0555282324327609	0	1	NaN	335	6	20	1	120	220	320	NaN	520	0.421564169693738	1	0	NaN	2410971.2238708	NaN	2410972.207262	2410972.72380063
23	20	0	0	90	36.1581920903955	36.241610738255	14	0.466698512025177	2	5	2	NaN	1	3	0.0555282324327609	0	1	NaN	336	6	21	1	120	220	320	NaN	520	0.336073469370604	1	1	NaN	2410973.9573341	NaN	2410974.9408326	2410975.45739783
23	20	0	0	90	36.1581920903955	36.241610738255	0	0	1	3	1	NaN	1	3	0.0555282324327609	0	1	NaN	337	6	22	1	110	210	310	NaN	510	0.0103903217241168	1	1	NaN	2410976.607703	NaN	2410977.5911364	2410978.10766888
23	20	0	0	90	36.1581920903955	36.241610738255	11	0.366691688019782	2	10	2	NaN	2	5	0.0555282324327609	0	1	NaN	338	6	23	1	120	220	320	NaN	520	0.280802969820797	2	1	NaN	2410978.9246077	NaN	2410979.9080022	2410980.42455553
23	20	0	0	90	36.1581920903955	36.241610738255	0	0	1	2	5	NaN	1	3	0.0555282324327609	0	1	NaN	339	6	24	1	110	210	310	NaN	510	0.518591484986246	2	0	NaN	2410981.9748781	NaN	2410982.9583135	2410983.47486502
23	20	0	0	90	36.1581920903955	36.241610738255	24	0.800054592043161	2	1	6	NaN	1	5	0.0555282324327609	0	1	NaN	340	6	25	1	120	220	320	NaN	520	0.287906322162598	2	0	NaN	2410985.3252118	NaN	2410986.3086268	2410986.82519118
23	20	0	0	90	36.1581920903955	36.241610738255	10	0.333356080017984	2	2	3	NaN	1	5	0.0555282324327609	0	1	NaN	341	6	26	1	120	220	320	NaN	520	0.570445517078042	2	0	NaN	2410988.4588867	NaN	2410989.4422801	2410989.95882748
23	20	0	0	90	36.1581920903955	36.241610738255	21	0.700047768037766	2	10	6	NaN	2	5	0.0555282324327609	0	1	NaN	342	6	27	1	120	220	320	NaN	520	0.367077317088842	2	1	NaN	2410991.3424991	NaN	2410992.3258994	2410992.84244078
23	20	0	0	90	36.1581920903955	36.241610738255	16	0.533369728028774	2	11	6	NaN	2	3	0.0555282324327609	0	1	NaN	343	6	28	1	120	220	320	NaN	520	0.227217821869999	2	1	NaN	2410994.0260856	NaN	2410995.0094726	2410995.52604918
23	20	0	0	90	36.1581920903955	36.241610738255	9	0.300020472016186	2	12	4	NaN	2	5	0.0555282324327609	0	1	NaN	344	6	29	1	120	220	320	NaN	520	0.754299722146243	2	1	NaN	2410996.8429296	NaN	2410997.8264718	2410998.34299318
23	20	0	0	90	36.1581920903955	36.241610738255	21	0.700047768037766	2	2	2	NaN	1	4	0.0555282324327609	0	1	NaN	345	6	30	1	120	220	320	NaN	520	0.0104551697149873	1	1	NaN	2410999.9100053	NaN	2411000.8933802	2411001.40995583
23	20	0	0	90	36.1581920903955	36.241610738255	8	0.266684864014387	2	9	5	NaN	2	4	0.0555282324327609	0	1	NaN	346	6	31	1	120	220	320	NaN	520	0.769790622405708	2	1	NaN	2411002.2435691	NaN	2411003.2269659	2411003.74351878
23	20	0	0	90	36.1581920903955	36.241610738255	0	0	1	1	2	NaN	1	5	0.0555282324327609	0	1	NaN	347	6	32	1	110	210	310	NaN	510	0.278045269660652	1	1	NaN	2411005.3272198	NaN	2411006.3106004	2411006.82715663
23	20	0	0	90	36.1581920903955	36.241610738255	13	0.433362904023379	2	7	1	NaN	2	3	0.0555282324327609	0	1	NaN	348	6	33	1	120	220	320	NaN	520	0.918769479263574	2	1	NaN	2411007.9106724	NaN	2411008.894234	2411009.41074472
23	20	0	0	90	36.1581920903955	36.241610738255	15	0.500034120026976	2	8	6	NaN	2	3	0.0555282324327609	0	1	NaN	349	6	34	1	120	220	320	NaN	520	0.637260469608009	1	0	NaN	2411011.1444522	NaN	2411012.1278398	2411012.64438583
23	20	0	0	90	36.1581920903955	36.241610738255	7	0.233349256012589	2	12	1	NaN	2	4	0.0555282324327609	0	1	NaN	350	6	35	1	120	220	320	NaN	520	0.446302121970803	2	1	NaN	2411014.0948051	NaN	2411015.0781135	2411015.59468258
23	20	0	0	90	36.1581920903955	36.241610738255	20	0.666712160035968	2	6	2	NaN	1	5	0.0555282324327609	0	1	NaN	351	6	36	1	120	220	320	NaN	520	0.303938869852573	1	1	NaN	2411016.8616695	NaN	2411017.8450495	2411018.36162123
23	20	0	0	90	36.1581920903955	36.241610738255	17	0.566705336030573	2	8	6	NaN	2	5	0.0555282324327609	0	1	NaN	352	6	37	1	120	220	320	NaN	520	0.542591317091137	1	0	NaN	2411019.4784764	NaN	2411020.4619929	2411020.97853938
23	20	0	0	90	36.1581920903955	36.241610738255	21	0.700047768037766	2	7	1	NaN	2	4	0.0555282324327609	0	1	NaN	353	6	38	1	120	220	320	NaN	520	0.372394389938563	2	1	NaN	2411022.3288702	NaN	2411023.3122757	2411023.82883341
23	20	0	0	90	36.1581920903955	36.241610738255	22	0.733383376039565	2	10	3	NaN	2	5	0.0555282324327609	0	1	NaN	354	6	39	1	120	220	320	NaN	520	0.601172274909914	2	1	NaN	2411025.012472	NaN	2411025.9958708	2411026.51241603
23	20	0	0	90	36.1581920903955	36.241610738255	13	0.433362904023379	2	5	5	NaN	1	3	0.0555282324327609	0	1	NaN	355	6	40	1	120	220	320	NaN	520	0.283318094909191	1	1	NaN	2411027.9461071	NaN	2411028.9295058	2411029.44605021
23	20	0	0	90	36.1581920903955	36.241610738255	23	0.766718984041363	2	10	4	NaN	2	4	0.0555282324327609	0	1	NaN	356	6	41	1	120	220	320	NaN	520	0.107142821885645	2	1	NaN	2411030.5463567	NaN	2411031.5297462	2411032.04629978
23	20	0	0	90	36.1581920903955	36.241610738255	20	0.666712160035968	2	3	3	NaN	1	5	0.0555282324327609	0	1	NaN	357	6	42	1	120	220	320	NaN	520	0.010433669667691	1	1	NaN	2411032.9799176	NaN	2411033.9633201	2411034.47986103
23	20	0	0	90	36.1581920903955	36.241610738255	25	0.83339020004496	2	12	3	NaN	2	4	0.0555282324327609	0	1	NaN	358	6	43	1	120	220	320	NaN	520	0.0105024538934231	2	1	NaN	2411035.3134885	NaN	2411036.2969351	2411036.81342145
23	20	0	0	90	36.1581920903955	36.241610738255	24	0.800054592043161	2	5	4	NaN	1	4	0.0555282324327609	0	1	NaN	359	6	44	1	120	220	320	NaN	520	0.0103922220878303	1	1	NaN	2411038.3637512	NaN	2411039.3471794	2411039.86372438
23	20	0	0	90	36.1581920903955	36.241610738255	15	0.500034120026976	2	11	5	NaN	2	4	0.0555282324327609	0	1	NaN	360	6	45	1	120	220	320	NaN	520	1.37060382217169	2	1	NaN	2411040.9308145	NaN	2411041.9141176	2411042.43065478
23	20	0	0	90	36.1581920903955	36.241610738255	12	0.400027296021581	2	2	4	NaN	1	5	0.0555282324327609	0	1	NaN	361	6	46	1	120	220	320	NaN	520	1.62683871714398	2	0	NaN	2411044.7142789	NaN	2411045.6978003	2411046.21435218
23	20	0	0	90	36.1581920903955	36.241610738255	9	0.300020472016186	2	11	5	NaN	2	5	0.0555282324327609	0	1	NaN	362	6	47	1	120	220	320	NaN	520	0.419840222224593	2	1	NaN	2411049.0814254	NaN	2411050.0648983	2411050.58145408
23	20	0	0	90	36.1581920903955	36.241610738255	17	0.566705336030573	2	1	3	NaN	1	5	0.0555282324327609	0	1	NaN	363	6	48	1	120	220	320	NaN	520	0.830092169810086	1	1	NaN	2411051.8151026	NaN	2411052.798538	2411053.31504783
23	20	0	0	90	36.1581920903955	36.241610738255	12	0.400027296021581	2	10	2	NaN	2	4	0.0555282324327609	0	1	NaN	364	6	49	1	120	220	320	NaN	520	0.231959169264883	2	1	NaN	2411054.9654216	NaN	2411055.9488084	2411056.46535693
23	20	0	0	90	36.1581920903955	36.241610738255	6	0.20001364801079	2	2	3	NaN	1	4	0.0555282324327609	0	1	NaN	365	6	50	1	120	220	320	NaN	520	0.0104029695503414	1	1	NaN	2411057.5156763	NaN	2411058.4990538	2411059.01561333
23	20	0	0	90	36.1581920903955	36.241610738255	25	0.83339020004496	2	8	1	NaN	2	3	0.0555282324327609	0	1	NaN	366	6	51	1	120	220	320	NaN	520	0.0103899221867323	1	0	NaN	2411059.8492306	NaN	2411060.8326151	2411061.34918108
23	20	0	0	90	36.1581920903955	36.241610738255	20	0.666712160035968	2	5	3	NaN	1	5	0.0555282324327609	0	1	NaN	367	6	52	1	120	220	320	NaN	520	0.367061164230108	1	1	NaN	2411062.7660475	NaN	2411063.7495673	2411064.26612684
23	20	0	0	90	36.1581920903955	36.241610738255	17	0.566705336030573	2	2	6	NaN	1	3	0.0555282324327609	0	1	NaN	368	6	53	1	120	220	320	NaN	520	0.203639522194862	2	0	NaN	2411065.4497667	NaN	2411066.4331666	2411066.94972528
23	20	0	0	90	36.1581920903955	36.241610738255	7	0.233349256012589	2	4	6	NaN	1	4	0.0555282324327609	0	1	NaN	369	6	54	1	120	220	320	NaN	520	0.829664669465274	2	0	NaN	2411068.2000374	NaN	2411069.1834387	2411069.69999423
23	20	0	0	90	36.1581920903955	36.241610738255	16	0.533369728028774	2	3	5	NaN	1	4	0.0555282324327609	0	1	NaN	370	6	55	1	120	220	320	NaN	520	0.010396322235465	1	1	NaN	2411071.4003383	NaN	2411072.3837529	2411072.90030888
23	20	0	0	90	36.1581920903955	36.241610738255	22	0.733383376039565	2	1	4	NaN	1	5	0.0555282324327609	0	1	NaN	371	6	56	1	120	220	320	NaN	520	0.0104201165959239	1	1	NaN	2411073.7172569	NaN	2411074.7006539	2411075.21719898
23	20	0	0	90	36.1581920903955	36.241610738255	16	0.533369728028774	2	12	5	NaN	2	4	0.0555282324327609	0	1	NaN	372	6	57	1	120	220	320	NaN	520	0.0102702425792813	2	1	NaN	2411076.0341493	NaN	2411077.017546	2411077.53409536
23	20	0	0	90	36.1581920903955	36.241610738255	19	0.633376552034169	2	11	3	NaN	2	4	0.0555282324327609	0	1	NaN	373	6	58	1	120	220	320	NaN	520	0.0933506167493761	1	0	NaN	2411078.3677062	NaN	2411079.3510979	2411079.86765958
23	20	0	0	90	36.1581920903955	36.241610738255	23	0.766718984041363	2	12	3	NaN	2	5	0.0555282324327609	0	1	NaN	374	6	59	1	120	220	320	NaN	520	0.0103858220390975	1	0	NaN	2411080.7679547	NaN	2411081.751327	2411082.26789348
23	20	0	0	90	36.1581920903955	36.241610738255	25	0.83339020004496	2	10	2	NaN	2	5	0.0555282324327609	0	1	NaN	375	6	60	1	120	220	320	NaN	520	0.0104117691516876	2	1	NaN	2411083.0847193	NaN	2411084.0682365	2411084.58478663
23	20	0	0	90	36.1581920903955	36.241610738255	13	0.433362904023379	2	10	1	NaN	2	5	0.0555282324327609	0	1	NaN	376	6	61	1	120	220	320	NaN	520	0.02698421664536	2	1	NaN	2411085.4184132	NaN	2411086.4017945	2411086.91835448
23	20	0	0	90	36.1581920903955	36.241610738255	0	0	1	12	4	NaN	2	5	0.0555282324327609	0	1	NaN	377	6	62	1	110	210	310	NaN	510	0.0104062696918845	2	1	NaN	2411087.7684901	NaN	2411088.7520209	2411089.26858143
23	20	0	0	90	36.1581920903955	36.241610738255	10	0.333356080017984	2	4	5	NaN	1	3	0.0555282324327609	0	1	NaN	378	6	63	1	120	220	320	NaN	520	0.263818726874888	1	1	NaN	2411090.0854116	NaN	2411091.0689121	2411091.58548297
23	20	0	0	90	36.1581920903955	36.241610738255	6	0.20001364801079	2	6	2	NaN	1	4	0.0555282324327609	0	1	NaN	379	7	1	1	120	220	320	NaN	520	0.859429731965065	1	1	NaN	2411302.3063816	NaN	2411303.2897729	2411303.80633247
23	20	0	0	90	36.1581920903955	36.241610738255	8	0.266684864014387	2	2	2	NaN	1	4	0.0555282324327609	0	1	NaN	380	7	2	1	120	220	320	NaN	520	0.220091379713267	2	0	NaN	2411305.4900184	NaN	2411306.4734174	2411306.98996962
23	20	0	0	90	36.1581920903955	36.241610738255	24	0.800054592043161	2	6	6	NaN	1	3	0.0555282324327609	0	1	NaN	381	7	3	1	120	220	320	NaN	520	0.01044712215662	1	1	NaN	2411308.0234869	NaN	2411309.007116	2411309.52355638
23	20	0	0	90	36.1581920903955	36.241610738255	9	0.300020472016186	2	3	1	NaN	1	3	0.0555282324327609	0	1	NaN	382	7	4	1	120	220	320	NaN	520	0.0103366421535611	2	0	NaN	2411310.3571695	NaN	2411311.340577	2411311.85711566
23	20	0	0	90	36.1581920903955	36.241610738255	19	0.633376552034169	2	3	5	NaN	1	3	0.0555282324327609	0	1	NaN	383	7	5	1	120	220	320	NaN	520	0.291390069760382	2	0	NaN	2411312.6907526	NaN	2411313.6741304	2411314.19067023
23	20	0	0	90	36.1581920903955	36.241610738255	24	0.800054592043161	2	8	1	NaN	2	4	0.0555282324327609	0	1	NaN	384	7	6	1	120	220	320	NaN	520	0.386067922227085	2	1	NaN	2411315.3076544	NaN	2411316.2910991	2411316.80762368
23	20	0	0	90	36.1581920903955	36.241610738255	24	0.800054592043161	2	7	5	NaN	2	4	0.0555282324327609	0	1	NaN	385	7	7	1	120	220	320	NaN	520	0.261582111474127	2	1	NaN	2411318.0246031	NaN	2411319.007992	2411319.52453709
23	20	0	0	90	36.1581920903955	36.241610738255	25	0.83339020004496	2	6	1	NaN	1	4	0.0555282324327609	0	1	NaN	386	7	8	1	120	220	320	NaN	520	0.334800969343632	1	1	NaN	2411320.7748391	NaN	2411321.7582777	2411322.27480083
23	20	0	0	90	36.1581920903955	36.241610738255	13	0.433362904023379	2	5	3	NaN	1	5	0.0555282324327609	0	1	NaN	387	7	9	1	120	220	320	NaN	520	0.293008769862354	2	0	NaN	2411323.4251398	NaN	2411324.4084987	2411324.92508053
23	20	0	0	90	36.1581920903955	36.241610738255	11	0.366691688019782	2	5	4	NaN	1	3	0.0555282324327609	0	1	NaN	388	7	10	1	120	220	320	NaN	520	0.769257122185081	2	0	NaN	2411328.6922993	NaN	2411329.6757106	2411330.19227228
23	20	0	0	90	36.1581920903955	36.241610738255	10	0.333356080017984	2	11	4	NaN	2	5	0.0555282324327609	0	1	NaN	389	7	11	1	120	220	320	NaN	520	0.181793769355863	2	1	NaN	2411331.7759496	NaN	2411332.759347	2411333.27587933
23	20	0	0	90	36.1581920903955	36.241610738255	23	0.766718984041363	2	2	2	NaN	1	3	0.0555282324327609	0	1	NaN	390	7	12	1	120	220	320	NaN	520	0.329787441994995	1	1	NaN	2411334.2760825	NaN	2411335.2596012	2411335.77614486
23	20	0	0	90	36.1581920903955	36.241610738255	18	0.600040944032371	2	12	2	NaN	2	3	0.0555282324327609	0	1	NaN	391	7	13	1	120	220	320	NaN	520	0.293098516762257	2	1	NaN	2411337.1930273	NaN	2411338.1765314	2411338.69307718
23	20	0	0	90	36.1581920903955	36.241610738255	18	0.600040944032371	2	11	1	NaN	2	5	0.0555282324327609	0	1	NaN	392	7	14	1	120	220	320	NaN	520	0.210230121854693	2	1	NaN	2411341.6435805	NaN	2411342.6269909	2411343.14352798
23	20	0	0	90	36.1581920903955	36.241610738255	9	0.300020472016186	2	3	1	NaN	1	4	0.0555282324327609	0	1	NaN	393	7	15	1	120	220	320	NaN	520	0.379553222097456	2	0	NaN	2411344.6105152	NaN	2411345.5939384	2411346.11048418
23	20	0	0	90	36.1581920903955	36.241610738255	20	0.666712160035968	2	12	2	NaN	2	4	0.0555282324327609	0	1	NaN	394	7	16	1	120	220	320	NaN	520	0.0105058224871755	2	1	NaN	2411347.3106869	NaN	2411348.2942196	2411348.81075028
23	20	0	0	90	36.1581920903955	36.241610738255	25	0.83339020004496	2	2	1	NaN	1	3	0.0555282324327609	0	1	NaN	395	7	17	1	120	220	320	NaN	520	0.317738669458777	2	0	NaN	2411349.744274	NaN	2411350.7278063	2411351.24434073
23	20	0	0	90	36.1581920903955	36.241610738255	16	0.533369728028774	2	1	1	NaN	1	3	0.0555282324327609	0	1	NaN	396	7	18	1	120	220	320	NaN	520	0.17154412670061	2	0	NaN	2411352.3947472	NaN	2411353.3780297	2411353.89458037
23	20	0	0	90	36.1581920903955	36.241610738255	25	0.83339020004496	2	4	4	NaN	1	5	0.0555282324327609	0	1	NaN	397	7	19	1	120	220	320	NaN	520	0.806732632219791	2	0	NaN	2411354.8948885	NaN	2411355.8782871	2411356.39483087
23	20	0	0	90	36.1581920903955	36.241610738255	25	0.83339020004496	2	3	3	NaN	1	4	0.0555282324327609	0	1	NaN	398	7	20	1	120	220	320	NaN	520	0.0104046696797013	1	1	NaN	2411358.0285245	NaN	2411359.011959	2411359.52846123
23	20	0	0	90	36.1581920903955	36.241610738255	12	0.400027296021581	2	5	6	NaN	1	3	0.0555282324327609	0	1	NaN	399	7	21	1	120	220	320	NaN	520	0.17233404237777	2	0	NaN	2411360.34542	NaN	2411361.3288145	2411361.84537056
23	20	0	0	90	36.1581920903955	36.241610738255	22	0.733383376039565	2	2	5	NaN	1	3	0.0555282324327609	0	1	NaN	400	7	22	1	120	220	320	NaN	520	0.0102716418914497	1	1	NaN	2411362.828999	NaN	2411363.8124006	2411364.32895026
23	20	0	0	90	36.1581920903955	36.241610738255	21	0.700047768037766	2	8	2	NaN	2	4	0.0555282324327609	0	1	NaN	401	7	23	1	120	220	320	NaN	520	0.0104143694043159	2	1	NaN	2411365.1625685	NaN	2411366.146013	2411366.66251583
23	20	0	0	90	36.1581920903955	36.241610738255	23	0.766718984041363	2	4	3	NaN	1	5	0.0555282324327609	0	1	NaN	402	7	24	1	120	220	320	NaN	520	0.422064416576177	1	1	NaN	2411367.4959926	NaN	2411368.4795616	2411368.99606218
23	20	0	0	90	36.1581920903955	36.241610738255	24	0.800054592043161	2	4	5	NaN	1	5	0.0555282324327609	0	1	NaN	403	7	25	1	120	220	320	NaN	520	0.247447822242975	1	1	NaN	2411370.2464006	NaN	2411371.2297834	2411371.74633298
23	20	0	0	90	36.1581920903955	36.241610738255	19	0.633376552034169	2	6	3	NaN	1	4	0.0555282324327609	0	1	NaN	404	7	26	1	120	220	320	NaN	520	0.0104191219434142	1	1	NaN	2411372.8132112	NaN	2411373.7967186	2411374.31325328
23	20	0	0	90	36.1581920903955	36.241610738255	23	0.766718984041363	2	11	1	NaN	2	5	0.0555282324327609	0	1	NaN	405	7	27	1	120	220	320	NaN	520	0.0104085695929825	2	1	NaN	2411375.1468496	NaN	2411376.1302787	2411376.64681353
23	20	0	0	90	36.1581920903955	36.241610738255	11	0.366691688019782	2	6	6	NaN	1	3	0.0555282324327609	0	1	NaN	406	7	28	1	120	220	320	NaN	520	0.0104977749288082	1	1	NaN	2411377.4804435	NaN	2411378.4638453	2411378.98039543
23	20	0	0	90	36.1581920903955	36.241610738255	12	0.400027296021581	2	10	6	NaN	2	3	0.0555282324327609	0	1	NaN	407	7	29	1	120	220	320	NaN	520	0.248209264595062	2	1	NaN	2411379.8140029	NaN	2411380.7973969	2411381.31393164
23	20	0	0	90	36.1581920903955	36.241610738255	11	0.366691688019782	2	1	6	NaN	1	3	0.0555282324327609	0	1	NaN	408	7	30	1	120	220	320	NaN	520	1.14671503705904	2	0	NaN	2411382.7308029	NaN	2411383.7143656	2411384.23088936
23	20	0	0	90	36.1581920903955	36.241610738255	16	0.533369728028774	2	9	1	NaN	2	3	0.0555282324327609	0	1	NaN	409	7	31	1	120	220	320	NaN	520	0.943541721906513	1	0	NaN	2411386.1979665	NaN	2411387.1813746	2411387.69792048
23	20	0	0	90	36.1581920903955	36.241610738255	0	0	1	11	2	NaN	2	3	0.0555282324327609	0	1	NaN	410	7	32	1	110	210	310	NaN	510	0.052950669080019	2	1	NaN	2411389.4649437	NaN	2411390.4483883	2411390.96487693
23	20	0	0	90	36.1581920903955	36.241610738255	14	0.466698512025177	2	6	5	NaN	1	5	0.0555282324327609	0	1	NaN	411	7	33	1	120	220	320	NaN	520	0.283023722469807	1	1	NaN	2411393.0986652	NaN	2411394.0820424	2411394.59857448
23	20	0	0	90	36.1581920903955	36.241610738255	12	0.400027296021581	2	12	4	NaN	2	5	0.0555282324327609	0	1	NaN	412	7	34	1	120	220	320	NaN	520	0.507330722175539	2	1	NaN	2411395.6988975	NaN	2411396.682306	2411397.19882808
23	20	0	0	90	36.1581920903955	36.241610738255	7	0.233349256012589	2	4	3	NaN	1	3	0.0555282324327609	0	1	NaN	413	7	35	1	120	220	320	NaN	520	0.172802074812353	1	1	NaN	2411398.8492621	NaN	2411399.832594	2411400.34914903
23	20	0	0	90	36.1581920903955	36.241610738255	15	0.500034120026976	2	9	2	NaN	2	3	0.0555282324327609	0	1	NaN	414	7	36	1	120	220	320	NaN	520	0.350105321966112	1	0	NaN	2411401.6161093	NaN	2411402.5995299	2411403.11608228
23	20	0	0	90	36.1581920903955	36.241610738255	20	0.666712160035968	2	1	3	NaN	1	3	0.0555282324327609	0	1	NaN	415	7	37	1	120	220	320	NaN	520	0.226724221836776	2	0	NaN	2411404.2830169	NaN	2411405.2664705	2411405.78301358
23	20	0	0	90	36.1581920903955	36.241610738255	10	0.333356080017984	2	1	6	NaN	1	4	0.0555282324327609	0	1	NaN	416	7	38	1	120	220	320	NaN	520	0.0104217170737684	2	0	NaN	2411406.833323	NaN	2411407.8167157	2411408.33325008
23	20	0	0	90	36.1581920903955	36.241610738255	10	0.333356080017984	2	11	3	NaN	2	3	0.0555282324327609	0	1	NaN	417	7	39	1	120	220	320	NaN	520	0.0104257171042264	1	0	NaN	2411409.1668752	NaN	2411410.1502851	2411410.66681298
23	20	0	0	90	36.1581920903955	36.241610738255	14	0.466698512025177	2	2	3	NaN	1	5	0.0555282324327609	0	1	NaN	418	7	40	1	120	220	320	NaN	520	0.36946481699124	2	0	NaN	2411411.5004445	NaN	2411412.4838584	2411413.00038048
23	20	0	0	90	36.1581920903955	36.241610738255	12	0.400027296021581	2	11	6	NaN	2	5	0.0555282324327609	0	1	NaN	419	7	41	1	120	220	320	NaN	520	0.0104971169494092	2	1	NaN	2411414.2007167	NaN	2411415.1841052	2411415.70064258
23	20	0	0	90	36.1581920903955	36.241610738255	19	0.633376552034169	2	8	2	NaN	2	5	0.0555282324327609	0	1	NaN	420	7	42	1	120	220	320	NaN	520	0.0236154543235898	2	1	NaN	2411416.5343118	NaN	2411417.517682	2411418.03421005
23	20	0	0	90	36.1581920903955	36.241610738255	8	0.266684864014387	2	4	2	NaN	1	5	0.0555282324327609	0	1	NaN	421	7	43	1	120	220	320	NaN	520	0.189459564164281	1	1	NaN	2411419.9846272	NaN	2411420.9680157	2411421.48454314
23	20	0	0	90	36.1581920903955	36.241610738255	7	0.233349256012589	2	2	5	NaN	1	5	0.0555282324327609	0	1	NaN	422	7	44	1	120	220	320	NaN	520	0.896764042321593	2	0	NaN	2411422.501526	NaN	2411423.4849033	2411424.00148436
23	20	0	0	90	36.1581920903955	36.241610738255	24	0.800054592043161	2	10	5	NaN	2	5	0.0555282324327609	0	1	NaN	423	7	45	1	120	220	320	NaN	520	0.303774822037667	1	0	NaN	2411425.7184997	NaN	2411426.7019301	2411427.21844698
23	20	0	0	90	36.1581920903955	36.241610738255	13	0.433362904023379	2	6	2	NaN	1	5	0.0555282324327609	0	1	NaN	424	7	46	1	120	220	320	NaN	520	0.166131222154945	1	1	NaN	2411428.3521084	NaN	2411429.3354922	2411429.85204528
23	20	0	0	90	36.1581920903955	36.241610738255	25	0.83339020004496	2	5	3	NaN	1	4	0.0555282324327609	0	1	NaN	425	7	47	1	120	220	320	NaN	520	0.0104939169250429	1	1	NaN	2411430.8356572	NaN	2411431.819062	2411432.33560898
23	20	0	0	90	36.1581920903955	36.241610738255	21	0.700047768037766	2	1	1	NaN	1	3	0.0555282324327609	0	1	NaN	426	7	48	1	120	220	320	NaN	520	0.019369016867131	2	0	NaN	2411433.6024776	NaN	2411434.5859994	2411435.10254488
23	20	0	0	90	36.1581920903955	36.241610738255	15	0.500034120026976	2	10	1	NaN	2	4	0.0555282324327609	0	1	NaN	427	7	49	1	120	220	320	NaN	520	0.231349769514054	2	1	NaN	2411436.5028892	NaN	2411437.486304	2411438.00283513
23	20	0	0	90	36.1581920903955	36.241610738255	11	0.366691688019782	2	7	4	NaN	2	4	0.0555282324327609	0	1	NaN	428	7	50	1	120	220	320	NaN	520	0.904708169400692	1	0	NaN	2411439.0531438	NaN	2411440.0365329	2411440.55308223
23	20	0	0	90	36.1581920903955	36.241610738255	25	0.83339020004496	2	4	5	NaN	1	5	0.0555282324327609	0	1	NaN	429	7	51	1	120	220	320	NaN	520	0.294985021930188	1	1	NaN	2411442.2868118	NaN	2411443.2702004	2411443.78675788
23	20	0	0	90	36.1581920903955	36.241610738255	12	0.400027296021581	2	8	2	NaN	2	4	0.0555282324327609	0	1	NaN	430	7	52	1	120	220	320	NaN	520	0.26204771688208	2	1	NaN	2411444.9037471	NaN	2411445.8871493	2411446.40366398
23	20	0	0	90	36.1581920903955	36.241610738255	8	0.266684864014387	2	11	1	NaN	2	3	0.0555282324327609	0	1	NaN	431	7	53	1	120	220	320	NaN	520	0.350767327006906	2	1	NaN	2411447.4873115	NaN	2411448.4707072	2411448.98724627
23	20	0	0	90	36.1581920903955	36.241610738255	12	0.400027296021581	2	9	5	NaN	2	4	0.0555282324327609	0	1	NaN	432	7	54	1	120	220	320	NaN	520	0.259648569393903	2	1	NaN	2411450.154248	NaN	2411451.1376459	2411451.65419383
23	20	0	0	90	36.1581920903955	36.241610738255	15	0.500034120026976	2	6	5	NaN	1	3	0.0555282324327609	0	1	NaN	433	7	55	1	120	220	320	NaN	520	0.460347247775644	1	1	NaN	2411452.7378122	NaN	2411453.7212522	2411454.23777705
23	20	0	0	90	36.1581920903955	36.241610738255	6	0.20001364801079	2	7	5	NaN	2	4	0.0555282324327609	0	1	NaN	434	7	56	1	120	220	320	NaN	520	0.180239322129637	2	1	NaN	2411455.5214256	NaN	2411456.504813	2411457.02137328
23	20	0	0	90	36.1581920903955	36.241610738255	8	0.266684864014387	2	12	6	NaN	2	5	0.0555282324327609	0	1	NaN	435	7	57	1	120	220	320	NaN	520	0.0104575692676008	2	1	NaN	2411459.2217665	NaN	2411460.2051933	2411460.72172773
23	20	0	0	90	36.1581920903955	36.241610738255	0	0	1	1	4	NaN	1	4	0.0555282324327609	0	1	NaN	436	7	58	1	110	210	310	NaN	510	0.0103372423909605	2	0	NaN	2411461.5720581	NaN	2411462.5554308	2411463.07197366
23	20	0	0	90	36.1581920903955	36.241610738255	14	0.466698512025177	2	3	6	NaN	1	5	0.0555282324327609	0	1	NaN	437	7	59	1	120	220	320	NaN	520	0.180551869329065	1	1	NaN	2411463.9055933	NaN	2411464.8890134	2411465.40553063
23	20	0	0	90	36.1581920903955	36.241610738255	19	0.633376552034169	2	2	2	NaN	1	4	0.0555282324327609	0	1	NaN	438	7	60	1	120	220	320	NaN	520	0.232468032278121	1	1	NaN	2411466.4057109	NaN	2411467.3892217	2411467.90577727
23	20	0	0	90	36.1581920903955	36.241610738255	16	0.533369728028774	2	9	2	NaN	2	3	0.0555282324327609	0	1	NaN	439	7	61	1	120	220	320	NaN	520	0.0104100224561989	2	1	NaN	2411468.956065	NaN	2411469.9394817	2411470.45602768
23	20	0	0	90	36.1581920903955	36.241610738255	11	0.366691688019782	2	3	2	NaN	1	5	0.0555282324327609	0	1	NaN	440	7	62	1	120	220	320	NaN	520	0.188300817273557	1	1	NaN	2411471.2896536	NaN	2411472.273039	2411472.78958958
23	20	0	0	90	36.1581920903955	36.241610738255	16	0.533369728028774	2	11	3	NaN	2	5	0.0555282324327609	0	1	NaN	441	7	63	1	120	220	320	NaN	520	1.16733116935939	2	1	NaN	2411473.8065601	NaN	2411474.7899554	2411475.30649403
23	20	0	0	90	36.1581920903955	36.241610738255	19	0.633376552034169	2	1	3	NaN	1	5	0.0555282324327609	0	1	NaN	442	8	1	1	120	220	320	NaN	520	0.264406921807677	2	0	NaN	2411487.5578834	NaN	2411488.5413293	2411489.05785268
23	20	0	0	90	36.1581920903955	36.241610738255	22	0.733383376039565	2	2	6	NaN	1	4	0.0555282324327609	0	1	NaN	443	8	2	1	120	220	320	NaN	520	1.01505099469796	2	0	NaN	2411490.5748743	NaN	2411491.5582919	2411492.07482981
23	20	0	0	90	36.1581920903955	36.241610738255	7	0.233349256012589	2	11	5	NaN	2	5	0.0555282324327609	0	1	NaN	444	8	3	1	120	220	320	NaN	520	0.137483469210565	2	1	NaN	2411493.9085353	NaN	2411494.8919151	2411495.40847743
23	20	0	0	90	36.1581920903955	36.241610738255	0	0	1	11	1	NaN	2	5	0.0555282324327609	0	1	NaN	445	8	4	1	110	210	310	NaN	510	0.183290769346058	2	1	NaN	2411496.3587806	NaN	2411497.3421823	2411497.85871763
23	20	0	0	90	36.1581920903955	36.241610738255	16	0.533369728028774	2	4	2	NaN	1	3	0.0555282324327609	0	1	NaN	446	8	5	1	120	220	320	NaN	520	0.130954422056675	1	1	NaN	2411498.8590304	NaN	2411499.8425189	2411500.35895948
23	20	0	0	90	36.1581920903955	36.241610738255	15	0.500034120026976	2	8	3	NaN	2	3	0.0555282324327609	0	1	NaN	447	8	6	1	120	220	320	NaN	520	0.252706016879529	1	0	NaN	2411501.6092863	NaN	2411502.5926929	2411503.10924928
23	20	0	0	90	36.1581920903955	36.241610738255	10	0.333356080017984	2	2	6	NaN	1	4	0.0555282324327609	0	1	NaN	448	8	7	1	120	220	320	NaN	520	0.196328669786453	2	0	NaN	2411504.4094147	NaN	2411505.3929621	2411505.90949893
23	20	0	0	90	36.1581920903955	36.241610738255	18	0.600040944032371	2	6	1	NaN	1	5	0.0555282324327609	0	1	NaN	449	8	8	1	120	220	320	NaN	520	0.240499116946012	1	1	NaN	2411506.9097899	NaN	2411507.8932209	2411508.40975318
23	20	0	0	90	36.1581920903955	36.241610738255	20	0.666712160035968	2	3	3	NaN	1	3	0.0555282324327609	0	1	NaN	450	8	9	1	120	220	320	NaN	520	0.0979224694892764	1	1	NaN	2411509.4600895	NaN	2411510.4434618	2411510.96000903
23	20	0	0	90	36.1581920903955	36.241610738255	14	0.466698512025177	2	2	3	NaN	1	4	0.0555282324327609	0	1	NaN	451	8	10	1	120	220	320	NaN	520	0.712930932175368	2	0	NaN	2411511.8769682	NaN	2411512.8603589	2411513.37691457
23	20	0	0	90	36.1581920903955	36.241610738255	6	0.20001364801079	2	5	6	NaN	1	4	0.0555282324327609	0	1	NaN	452	8	11	1	120	220	320	NaN	520	0.320612011943012	2	0	NaN	2411516.4773537	NaN	2411517.4608738	2411517.97735749
23	20	0	0	90	36.1581920903955	36.241610738255	21	0.700047768037766	2	4	6	NaN	1	4	0.0555282324327609	0	1	NaN	453	8	12	1	120	220	320	NaN	520	0.203702416736633	1	1	NaN	2411519.7943655	NaN	2411520.7778062	2411521.29434498
23	20	0	0	90	36.1581920903955	36.241610738255	14	0.466698512025177	2	8	1	NaN	2	3	0.0555282324327609	0	1	NaN	454	8	13	1	120	220	320	NaN	520	0.191155469510704	2	1	NaN	2411522.3113439	NaN	2411523.2947185	2411523.81125733
23	20	0	0	90	36.1581920903955	36.241610738255	21	0.700047768037766	2	11	4	NaN	2	3	0.0555282324327609	0	1	NaN	455	8	14	1	120	220	320	NaN	520	0.71375066973269	2	1	NaN	2411524.8281257	NaN	2411525.8116439	2411526.32818403
23	20	0	0	90	36.1581920903955	36.241610738255	8	0.266684864014387	2	5	3	NaN	1	5	0.0555282324327609	0	1	NaN	456	8	15	1	120	220	320	NaN	520	0.76794117456302	2	0	NaN	2411527.8619197	NaN	2411528.8453396	2411529.36180573
23	20	0	0	90	36.1581920903955	36.241610738255	24	0.800054592043161	2	1	4	NaN	1	3	0.0555282324327609	0	1	NaN	457	8	16	1	120	220	320	NaN	520	0.0103885219432414	1	1	NaN	2411530.9454958	NaN	2411531.9289155	2411532.44544818
23	20	0	0	90	36.1581920903955	36.241610738255	12	0.400027296021581	2	7	5	NaN	2	5	0.0555282324327609	0	1	NaN	458	8	17	1	120	220	320	NaN	520	0.1590058747679	2	1	NaN	2411533.2791758	NaN	2411534.2624751	2411534.77900293
