subjno	age	gender	isPractice	viewdist	CmToPixX	CmToPixY	SOA_frm	SOA_time	targNum	targID	targExample	targRace	targGender	firstTargPos	contrast	familiarity	curr_staircase	iStair	TrialNum	BlockNum	blktrl	sessionNum	TC_FIXATION	TC_RSVP_START	TC_RSVP_END	TC_BLANK	TC_RESPONSE_ONSET	RT2afc	resp_2afc	acc	RSVPOnsetVBL	RSVPOnsetTime	RSVPOffsetVBL	RSVPOffsetTime	startrt_2afc
116	19	1	0	90	36.1581920903955	36.241610738255	21	0.700069524496794	2	8	4	NaN	2	3	0.245489495646974	1	1	NaN	1	1	1	1	121	221	321	NaN	521	0.418560979887843	2	1	NaN	5174885.9199054	NaN	5174886.9031607	5174887.43628642
116	19	1	0	90	36.1581920903955	36.241610738255	24	0.800079456567764	2	11	1	NaN	2	3	0.245489495646974	1	1	NaN	2	1	2	1	121	221	321	NaN	521	0.642215480096638	1	0	NaN	5174889.5202128	NaN	5174890.5035094	5174891.03663492
116	19	1	0	90	36.1581920903955	36.241610738255	19	0.63339623644948	2	10	5	NaN	2	3	0.245489495646974	1	1	NaN	3	1	3	1	121	221	321	NaN	521	0.259501291438937	1	0	NaN	5174892.5036397	NaN	5174893.4870373	5174894.00359241
116	19	1	0	90	36.1581920903955	36.241610738255	18	0.600059592425823	2	4	4	NaN	1	4	0.245489495646974	1	1	NaN	4	1	4	1	121	221	321	NaN	521	9.95211447961628	1	1	NaN	5174895.570608	NaN	5174896.5540087	5174897.07056632
116	19	1	0	90	36.1581920903955	36.241610738255	0	0	1	8	1	NaN	2	5	0.245489495646974	1	1	NaN	5	1	5	1	111	211	311	NaN	511	0.0103864800184965	1	0	NaN	5174911.1054937	NaN	5174912.0888723	5174912.60542832
116	19	1	0	90	36.1581920903955	36.241610738255	7	0.233356508165598	2	9	6	NaN	2	4	0.245489495646974	1	1	NaN	6	1	6	1	121	221	321	NaN	521	0.593899327330291	2	1	NaN	5174913.8890722	NaN	5174914.872347	5174915.38903177
116	19	1	0	90	36.1581920903955	36.241610738255	15	0.500049660354853	2	11	1	NaN	2	3	0.245489495646974	1	1	NaN	7	1	7	1	121	221	321	NaN	521	0.344692192040384	2	1	NaN	5174917.1060492	NaN	5174918.0894659	5174918.60601761
116	19	1	0	90	36.1581920903955	36.241610738255	17	0.566722948402166	2	7	3	NaN	2	3	0.245489495646974	1	1	NaN	8	1	8	1	121	221	321	NaN	521	0.327791027724743	2	1	NaN	5174920.3230258	NaN	5174921.3064252	5174921.82299707
116	19	1	0	90	36.1581920903955	36.241610738255	22	0.733406168520451	2	10	1	NaN	2	4	0.245489495646974	1	1	NaN	9	1	9	1	121	221	321	NaN	521	0.374139827676117	2	1	NaN	5174923.5565346	NaN	5174924.5400942	5174925.05664197
116	19	1	0	90	36.1581920903955	36.241610738255	20	0.666732880473137	2	11	6	NaN	2	5	0.245489495646974	1	1	NaN	10	1	10	1	121	221	321	NaN	521	0.419503475539386	1	0	NaN	5174926.8236616	NaN	5174927.8071268	5174928.32364232
116	19	1	0	90	36.1581920903955	36.241610738255	8	0.266693152189255	2	5	6	NaN	1	3	0.245489495646974	1	1	NaN	11	1	11	1	121	221	321	NaN	521	0.260154474526644	1	1	NaN	5174929.5906072	NaN	5174930.574017	5174931.09058793
116	19	1	0	90	36.1581920903955	36.241610738255	9	0.300029796212912	2	5	4	NaN	1	5	0.245489495646974	1	1	NaN	12	1	12	1	121	221	321	NaN	521	0.449110036715865	2	0	NaN	5174934.0575907	NaN	5174935.0411948	5174935.55767716
116	19	1	0	90	36.1581920903955	36.241610738255	11	0.366703084260225	2	2	5	NaN	1	4	0.245489495646974	1	1	NaN	13	1	13	1	121	221	321	NaN	521	0.303096675314009	1	1	NaN	5174937.1079082	NaN	5174938.0914299	5174938.60797532
116	19	1	0	90	36.1581920903955	36.241610738255	13	0.433376372307539	2	4	3	NaN	1	5	0.245489495646974	1	1	NaN	14	1	14	1	121	221	321	NaN	521	0.362785522826016	1	1	NaN	5174940.2083073	NaN	5174941.1918033	5174941.70828268
116	19	1	0	90	36.1581920903955	36.241610738255	11	0.366703084260225	2	6	1	NaN	1	4	0.245489495646974	1	1	NaN	15	1	15	1	121	221	321	NaN	521	0.158492443151772	1	1	NaN	5174943.3086382	NaN	5174944.2920409	5174944.80860306
116	19	1	0	90	36.1581920903955	36.241610738255	23	0.766742812544107	2	4	6	NaN	1	3	0.245489495646974	1	1	NaN	16	1	16	1	121	221	321	NaN	521	0.321574527770281	1	1	NaN	5174946.2255669	NaN	5174947.2089975	5174947.72554817
116	19	1	0	90	36.1581920903955	36.241610738255	9	0.300029796212912	2	4	5	NaN	1	4	0.245489495646974	1	1	NaN	17	1	17	1	121	221	321	NaN	521	0.274350622668862	1	1	NaN	5174949.3925507	NaN	5174950.3759709	5174950.89251688
116	19	1	0	90	36.1581920903955	36.241610738255	17	0.566722948402166	2	9	3	NaN	2	5	0.245489495646974	1	1	NaN	18	1	18	1	121	221	321	NaN	521	0.301252722740173	1	0	NaN	5174952.5095307	NaN	5174953.4929341	5174954.00949418
116	19	1	0	90	36.1581920903955	36.241610738255	25	0.833416100591421	2	6	4	NaN	1	5	0.245489495646974	1	1	NaN	19	1	19	1	121	221	321	NaN	521	0.495499975048006	1	1	NaN	5174956.243217	NaN	5174957.2266425	5174957.74319142
116	19	1	0	90	36.1581920903955	36.241610738255	8	0.266693152189255	2	4	4	NaN	1	5	0.245489495646974	1	1	NaN	20	1	20	1	121	221	321	NaN	521	0.366993223316967	1	1	NaN	5174961.8437772	NaN	5174962.8271974	5174963.34374668
116	19	1	0	90	36.1581920903955	36.241610738255	15	0.500049660354853	2	5	5	NaN	1	3	0.245489495646974	1	1	NaN	21	1	21	1	121	221	321	NaN	521	0.331466775387526	2	0	NaN	5174965.1273385	NaN	5174966.1108703	5174966.62739682
116	19	1	0	90	36.1581920903955	36.241610738255	11	0.366703084260225	2	12	3	NaN	2	5	0.245489495646974	1	1	NaN	22	1	22	1	121	221	321	NaN	521	0.302406527101994	2	1	NaN	5174968.2444012	NaN	5174969.2278287	5174969.74437177
116	19	1	0	90	36.1581920903955	36.241610738255	24	0.800079456567764	2	12	5	NaN	2	3	0.245489495646974	1	1	NaN	23	1	23	1	121	221	321	NaN	521	0.333934875205159	2	1	NaN	5174970.8612869	NaN	5174971.8447474	5174972.36129612
116	19	1	0	90	36.1581920903955	36.241610738255	17	0.566722948402166	2	8	2	NaN	2	3	0.245489495646974	1	1	NaN	24	1	24	1	121	221	321	NaN	521	0.251213375478983	1	0	NaN	5174973.5117234	NaN	5174974.4950276	5174975.01156642
116	19	1	0	90	36.1581920903955	36.241610738255	18	0.600059592425823	2	5	1	NaN	1	5	0.245489495646974	1	1	NaN	25	1	25	1	121	221	321	NaN	521	0.236324627883732	1	1	NaN	5174976.078569	NaN	5174977.0619075	5174977.57848377
116	19	1	0	90	36.1581920903955	36.241610738255	6	0.200019864141941	2	7	6	NaN	2	3	0.245489495646974	1	1	NaN	26	1	26	1	121	221	321	NaN	521	0.377961122430861	2	1	NaN	5174979.1288074	NaN	5174980.1122132	5174980.62877208
116	19	1	0	90	36.1581920903955	36.241610738255	10	0.333366440236568	2	2	4	NaN	1	5	0.245489495646974	1	1	NaN	27	1	27	1	121	221	321	NaN	521	0.238089427351952	1	1	NaN	5174981.8291228	NaN	5174982.8124867	5174983.32904837
116	19	1	0	90	36.1581920903955	36.241610738255	7	0.233356508165598	2	1	5	NaN	1	3	0.245489495646974	1	1	NaN	28	1	28	1	121	221	321	NaN	521	0.30366312712431	1	1	NaN	5174984.379443	NaN	5174985.3627524	5174985.87930097
116	19	1	0	90	36.1581920903955	36.241610738255	21	0.700069524496794	2	10	6	NaN	2	3	0.245489495646974	1	1	NaN	29	1	29	1	121	221	321	NaN	521	0.15527262724936	2	1	NaN	5174988.4797316	NaN	5174989.4631971	5174989.97970637
116	19	1	0	90	36.1581920903955	36.241610738255	6	0.200019864141941	2	6	5	NaN	1	5	0.245489495646974	1	1	NaN	30	1	30	1	121	221	321	NaN	521	0.38590662740171	1	1	NaN	5174991.8967406	NaN	5174992.8801596	5174993.39670087
116	19	1	0	90	36.1581920903955	36.241610738255	9	0.300029796212912	2	9	4	NaN	2	4	0.245489495646974	1	1	NaN	31	1	31	1	121	221	321	NaN	521	0.277891575358808	1	0	NaN	5174994.5970258	NaN	5174995.5804145	5174996.09697082
116	19	1	0	90	36.1581920903955	36.241610738255	0	0	1	10	6	NaN	2	4	0.245489495646974	1	1	NaN	32	1	32	1	111	211	311	NaN	511	0.525524526834488	2	1	NaN	5174998.1973424	NaN	5174999.1807819	5174999.69732297
116	19	1	0	90	36.1581920903955	36.241610738255	18	0.600059592425823	2	2	1	NaN	1	4	0.245489495646974	1	1	NaN	33	1	33	1	121	221	321	NaN	521	0.0104068266227841	1	1	NaN	5175001.047657	NaN	5175002.0310494	5175002.54760537
116	19	1	0	90	36.1581920903955	36.241610738255	17	0.566722948402166	2	7	2	NaN	2	5	0.245489495646974	1	1	NaN	34	1	34	1	121	221	321	NaN	521	0.0104122748598456	2	1	NaN	5175003.3812082	NaN	5175004.3646171	5175004.88115743
116	19	1	0	90	36.1581920903955	36.241610738255	8	0.266693152189255	2	1	5	NaN	1	5	0.245489495646974	1	1	NaN	35	1	35	1	121	221	321	NaN	521	0.51309222355485	2	0	NaN	5175006.098122	NaN	5175007.0815482	5175007.59810238
116	19	1	0	90	36.1581920903955	36.241610738255	16	0.53338630437851	2	8	1	NaN	2	4	0.245489495646974	1	1	NaN	36	1	36	1	121	221	321	NaN	521	0.0151954432949424	1	0	NaN	5175008.9317829	NaN	5175009.9151604	5175010.43171416
116	19	1	0	90	36.1581920903955	36.241610738255	0	0	1	12	6	NaN	2	3	0.245489495646974	1	1	NaN	37	1	37	1	111	211	311	NaN	511	0.271506475284696	1	0	NaN	5175011.9152693	NaN	5175012.8987704	5175013.41533102
116	19	1	0	90	36.1581920903955	36.241610738255	6	0.200019864141941	2	2	6	NaN	1	5	0.245489495646974	1	1	NaN	38	1	38	1	121	221	321	NaN	521	0.231928126886487	1	1	NaN	5175014.4989694	NaN	5175015.4823682	5175015.99892907
116	19	1	0	90	36.1581920903955	36.241610738255	21	0.700069524496794	2	7	5	NaN	2	4	0.245489495646974	1	1	NaN	39	1	39	1	121	221	321	NaN	521	0.0535844750702381	2	1	NaN	5175017.3492797	NaN	5175018.3326725	5175018.84920003
116	19	1	0	90	36.1581920903955	36.241610738255	23	0.766742812544107	2	8	5	NaN	2	3	0.245489495646974	1	1	NaN	40	1	40	1	121	221	321	NaN	521	0.0103613836690784	1	0	NaN	5175019.7161669	NaN	5175020.6995563	5175021.21610522
116	19	1	0	90	36.1581920903955	36.241610738255	25	0.833416100591421	2	8	3	NaN	2	5	0.245489495646974	1	1	NaN	41	1	41	1	121	221	321	NaN	521	3.32977623585612	1	0	NaN	5175022.033048	NaN	5175023.0164561	5175023.53300626
116	19	1	0	90	36.1581920903955	36.241610738255	7	0.233356508165598	2	2	1	NaN	1	4	0.245489495646974	1	1	NaN	42	1	42	1	121	221	321	NaN	521	0.0104507748037577	2	0	NaN	5175028.150188	NaN	5175029.1337263	5175029.65026422
116	19	1	0	90	36.1581920903955	36.241610738255	15	0.500049660354853	2	11	1	NaN	2	3	0.245489495646974	1	1	NaN	43	1	43	1	121	221	321	NaN	521	0.0103998268023133	1	0	NaN	5175030.4838939	NaN	5175031.4672789	5175031.98383027
116	19	1	0	90	36.1581920903955	36.241610738255	14	0.466713016331196	2	8	6	NaN	2	5	0.245489495646974	1	1	NaN	44	1	44	1	121	221	321	NaN	521	0.0103900274261832	2	1	NaN	5175032.8007784	NaN	5175033.7841788	5175034.30072897
116	19	1	0	90	36.1581920903955	36.241610738255	19	0.63339623644948	2	9	5	NaN	2	4	0.245489495646974	1	1	NaN	45	1	45	1	121	221	321	NaN	521	1.2852112269029	2	1	NaN	5175035.3176575	NaN	5175036.3010857	5175036.81763927
116	19	1	0	90	36.1581920903955	36.241610738255	14	0.466713016331196	2	9	4	NaN	2	5	0.245489495646974	1	1	NaN	46	1	46	1	121	221	321	NaN	521	0.196962727233768	2	1	NaN	5175038.9180421	NaN	5175039.9014295	5175040.41798717
116	19	1	0	90	36.1581920903955	36.241610738255	11	0.366703084260225	2	10	3	NaN	2	3	0.245489495646974	1	1	NaN	47	1	47	1	121	221	321	NaN	521	0.0103936269879341	1	0	NaN	5175041.4348138	NaN	5175042.418372	5175042.93491277
116	19	1	0	90	36.1581920903955	36.241610738255	17	0.566722948402166	2	12	4	NaN	2	5	0.245489495646974	1	1	NaN	48	1	48	1	121	221	321	NaN	521	0.100598527118564	2	1	NaN	5175043.9183773	NaN	5175044.9019395	5175045.41848447
116	19	1	0	90	36.1581920903955	36.241610738255	6	0.200019864141941	2	7	4	NaN	2	3	0.245489495646974	1	1	NaN	49	1	49	1	121	221	321	NaN	521	0.24341247510165	2	1	NaN	5175046.3354309	NaN	5175047.3188258	5175047.83538182
116	19	1	0	90	36.1581920903955	36.241610738255	10	0.333366440236568	2	4	1	NaN	1	5	0.245489495646974	1	1	NaN	50	1	50	1	121	221	321	NaN	521	0.19728072732687	1	1	NaN	5175048.8855691	NaN	5175049.8690733	5175050.38564147
116	19	1	0	90	36.1581920903955	36.241610738255	12	0.400039728283882	2	11	5	NaN	2	5	0.245489495646974	1	1	NaN	51	1	51	1	121	221	321	NaN	521	1.37069762684405	1	0	NaN	5175051.95272	NaN	5175052.9360659	5175053.45261297
116	19	1	0	90	36.1581920903955	36.241610738255	24	0.800079456567764	2	6	4	NaN	1	5	0.245489495646974	1	1	NaN	52	1	52	1	121	221	321	NaN	521	0.0104717230424285	1	1	NaN	5175055.6363633	NaN	5175056.6197422	5175057.13629928
116	19	1	0	90	36.1581920903955	36.241610738255	23	0.766742812544107	2	7	3	NaN	2	5	0.245489495646974	1	1	NaN	53	1	53	1	121	221	321	NaN	521	0.250188927166164	1	0	NaN	5175057.9533321	NaN	5175058.9366529	5175059.45319237
116	19	1	0	90	36.1581920903955	36.241610738255	19	0.63339623644948	2	2	3	NaN	1	4	0.245489495646974	1	1	NaN	54	1	54	1	121	221	321	NaN	521	0.299216674640775	1	1	NaN	5175060.5201909	NaN	5175061.5035924	5175062.02012093
116	19	1	0	90	36.1581920903955	36.241610738255	23	0.766742812544107	2	3	3	NaN	1	3	0.245489495646974	1	1	NaN	55	1	55	1	121	221	321	NaN	521	0.0103902276605368	1	1	NaN	5175063.1371335	NaN	5175064.1204883	5175064.63704397
116	19	1	0	90	36.1581920903955	36.241610738255	12	0.400039728283882	2	1	5	NaN	1	3	0.245489495646974	1	1	NaN	56	1	56	1	121	221	321	NaN	521	0.325481627136469	1	1	NaN	5175065.453888	NaN	5175066.4373812	5175066.95393647
116	19	1	0	90	36.1581920903955	36.241610738255	14	0.466713016331196	2	7	2	NaN	2	3	0.245489495646974	1	1	NaN	57	1	57	1	121	221	321	NaN	521	0.371772875078022	2	1	NaN	5175068.0874515	NaN	5175069.0709767	5175069.58751913
116	19	1	0	90	36.1581920903955	36.241610738255	8	0.266693152189255	2	7	3	NaN	2	4	0.245489495646974	1	1	NaN	58	1	58	1	121	221	321	NaN	521	0.36571937520057	2	1	NaN	5175071.0212217	NaN	5175072.0045892	5175072.52115212
116	19	1	0	90	36.1581920903955	36.241610738255	24	0.800079456567764	2	2	1	NaN	1	5	0.245489495646974	1	1	NaN	59	1	59	1	121	221	321	NaN	521	0.734935418702662	1	1	NaN	5175073.9880138	NaN	5175074.9715559	5175075.48810248
116	19	1	0	90	36.1581920903955	36.241610738255	10	0.333366440236568	2	1	3	NaN	1	5	0.245489495646974	1	1	NaN	60	1	60	1	121	221	321	NaN	521	0.420376275666058	2	0	NaN	5175077.038447	NaN	5175078.0218639	5175078.53840902
116	19	1	0	90	36.1581920903955	36.241610738255	12	0.400039728283882	2	7	1	NaN	2	4	0.245489495646974	1	1	NaN	61	1	61	1	121	221	321	NaN	521	0.297122326679528	2	1	NaN	5175080.1219507	NaN	5175081.1054951	5175081.62204707
116	19	1	0	90	36.1581920903955	36.241610738255	25	0.833416100591421	2	8	5	NaN	2	4	0.245489495646974	1	1	NaN	62	1	62	1	121	221	321	NaN	521	0.0552435265854001	2	1	NaN	5175083.5556504	NaN	5175084.5391594	5175085.05571047
116	19	1	0	90	36.1581920903955	36.241610738255	18	0.600059592425823	2	4	5	NaN	1	3	0.245489495646974	1	1	NaN	63	1	63	1	121	221	321	NaN	521	0.720616826787591	1	1	NaN	5175085.9226588	NaN	5175086.9060641	5175087.42261527
116	19	1	0	90	36.1581920903955	36.241610738255	9	0.300029796212912	2	7	6	NaN	2	3	0.245489495646974	1	1	NaN	64	2	1	1	121	221	321	NaN	521	0.0104491747915745	1	0	NaN	5175092.9899887	NaN	5175093.9734164	5175094.48997573
116	19	1	0	90	36.1581920903955	36.241610738255	13	0.433376372307539	2	4	1	NaN	1	4	0.245489495646974	1	1	NaN	65	2	2	1	121	221	321	NaN	521	0.290649427101016	1	1	NaN	5175095.6403202	NaN	5175096.6236968	5175097.14023287
116	19	1	0	90	36.1581920903955	36.241610738255	17	0.566722948402166	2	1	4	NaN	1	4	0.245489495646974	1	1	NaN	66	2	3	1	121	221	321	NaN	521	0.346441975794733	1	1	NaN	5175098.2405434	NaN	5175099.2239354	5175099.74048292
116	19	1	0	90	36.1581920903955	36.241610738255	0	0	1	7	4	NaN	2	5	0.245489495646974	1	1	NaN	67	2	4	1	111	211	311	NaN	511	0.543894374743104	2	1	NaN	5175100.9074756	NaN	5175101.8908765	5175102.40744003
116	19	1	0	90	36.1581920903955	36.241610738255	25	0.833416100591421	2	7	5	NaN	2	4	0.245489495646974	1	1	NaN	68	2	5	1	121	221	321	NaN	521	0.431380175054073	2	1	NaN	5175104.507817	NaN	5175105.4912181	5175106.00777622
116	19	1	0	90	36.1581920903955	36.241610738255	16	0.53338630437851	2	7	1	NaN	2	5	0.245489495646974	1	1	NaN	69	2	6	1	121	221	321	NaN	521	0.314872023649514	2	1	NaN	5175108.4081887	NaN	5175109.3916233	5175109.90816058
116	19	1	0	90	36.1581920903955	36.241610738255	20	0.666732880473137	2	8	3	NaN	2	4	0.245489495646974	1	1	NaN	70	2	7	1	121	221	321	NaN	521	0.333438475616276	2	1	NaN	5175111.5418105	NaN	5175112.5252476	5175113.04179102
116	19	1	0	90	36.1581920903955	36.241610738255	25	0.833416100591421	2	5	1	NaN	1	3	0.245489495646974	1	1	NaN	71	2	8	1	121	221	321	NaN	521	0.363417622633278	1	1	NaN	5175114.1754793	NaN	5175115.1588407	5175115.67538738
116	19	1	0	90	36.1581920903955	36.241610738255	14	0.466713016331196	2	5	5	NaN	1	4	0.245489495646974	1	1	NaN	72	2	9	1	121	221	321	NaN	521	0.529648975469172	2	0	NaN	5175117.8258275	NaN	5175118.8091906	5175119.32574522
116	19	1	0	90	36.1581920903955	36.241610738255	6	0.200019864141941	2	11	5	NaN	2	4	0.245489495646974	1	1	NaN	73	2	10	1	121	221	321	NaN	521	0.415620774962008	2	1	NaN	5175120.659432	NaN	5175121.6428211	5175122.15936423
116	19	1	0	90	36.1581920903955	36.241610738255	24	0.800079456567764	2	12	5	NaN	2	5	0.245489495646974	1	1	NaN	74	2	11	1	121	221	321	NaN	521	0.370243774726987	2	1	NaN	5175123.3930073	NaN	5175124.3764174	5175124.89295792
116	19	1	0	90	36.1581920903955	36.241610738255	21	0.700069524496794	2	11	6	NaN	2	3	0.245489495646974	1	1	NaN	75	2	12	1	121	221	321	NaN	521	0.350566875189543	2	1	NaN	5175126.0766072	NaN	5175127.0600204	5175127.57656282
116	19	1	0	90	36.1581920903955	36.241610738255	25	0.833416100591421	2	2	6	NaN	1	5	0.245489495646974	1	1	NaN	76	2	13	1	121	221	321	NaN	521	0.260800874792039	1	1	NaN	5175129.5102578	NaN	5175130.4936856	5175131.01022743
116	19	1	0	90	36.1581920903955	36.241610738255	13	0.433376372307539	2	12	3	NaN	2	5	0.245489495646974	1	1	NaN	77	2	14	1	121	221	321	NaN	521	0.264311474747956	1	0	NaN	5175133.4106914	NaN	5175134.3940719	5175134.91061873
116	19	1	0	90	36.1581920903955	36.241610738255	17	0.566722948402166	2	2	6	NaN	1	5	0.245489495646974	1	1	NaN	78	2	15	1	121	221	321	NaN	521	0.297522575594485	1	1	NaN	5175135.9776003	NaN	5175136.9609834	5175137.47752902
116	19	1	0	90	36.1581920903955	36.241610738255	0	0	1	2	2	NaN	1	5	0.245489495646974	1	1	NaN	79	2	16	1	111	211	311	NaN	511	0.401285327039659	2	0	NaN	5175138.5777754	NaN	5175139.5612509	5175140.07779037
116	19	1	0	90	36.1581920903955	36.241610738255	25	0.833416100591421	2	10	2	NaN	2	4	0.245489495646974	1	1	NaN	80	2	17	1	121	221	321	NaN	521	0.428178827278316	1	0	NaN	5175141.2947787	NaN	5175142.2781639	5175142.79472657
116	19	1	0	90	36.1581920903955	36.241610738255	10	0.333366440236568	2	4	6	NaN	1	4	0.245489495646974	1	1	NaN	81	2	18	1	121	221	321	NaN	521	0.451062575913966	1	1	NaN	5175144.5284604	NaN	5175145.5118558	5175146.02838102
116	19	1	0	90	36.1581920903955	36.241610738255	19	0.63339623644948	2	3	1	NaN	1	4	0.245489495646974	1	1	NaN	82	2	19	1	121	221	321	NaN	521	0.295736527070403	1	1	NaN	5175147.3953334	NaN	5175148.3787742	5175148.89534567
116	19	1	0	90	36.1581920903955	36.241610738255	22	0.733406168520451	2	6	1	NaN	1	4	0.245489495646974	1	1	NaN	83	2	20	1	121	221	321	NaN	521	0.312610027380288	2	0	NaN	5175150.5624225	NaN	5175151.5457608	5175152.06230767
116	19	1	0	90	36.1581920903955	36.241610738255	15	0.500049660354853	2	3	4	NaN	1	3	0.245489495646974	1	1	NaN	84	2	21	1	121	221	321	NaN	521	0.471311027184129	2	0	NaN	5175153.1958218	NaN	5175154.1793425	5175154.69589717
116	19	1	0	90	36.1581920903955	36.241610738255	23	0.766742812544107	2	9	2	NaN	2	5	0.245489495646974	1	1	NaN	85	2	22	1	121	221	321	NaN	521	0.279585727490485	2	1	NaN	5175155.9795634	NaN	5175156.9629657	5175157.47949807
116	19	1	0	90	36.1581920903955	36.241610738255	12	0.400039728283882	2	9	1	NaN	2	4	0.245489495646974	1	1	NaN	86	2	23	1	121	221	321	NaN	521	0.376294426620007	2	1	NaN	5175158.5630168	NaN	5175159.5465294	5175160.06309427
116	19	1	0	90	36.1581920903955	36.241610738255	9	0.300029796212912	2	11	4	NaN	2	5	0.245489495646974	1	1	NaN	87	2	24	1	121	221	321	NaN	521	0.406650627031922	2	1	NaN	5175161.5966552	NaN	5175162.5801711	5175163.09672107
116	19	1	0	90	36.1581920903955	36.241610738255	9	0.300029796212912	2	5	2	NaN	1	3	0.245489495646974	1	1	NaN	88	2	25	1	121	221	321	NaN	521	0.32942767534405	1	1	NaN	5175164.3137113	NaN	5175165.2970976	5175165.81364742
116	19	1	0	90	36.1581920903955	36.241610738255	10	0.333366440236568	2	11	1	NaN	2	5	0.245489495646974	1	1	NaN	89	2	26	1	121	221	321	NaN	521	0.383959727361798	2	1	NaN	5175166.9472915	NaN	5175167.9306903	5175168.44724637
116	19	1	0	90	36.1581920903955	36.241610738255	6	0.200019864141941	2	4	5	NaN	1	3	0.245489495646974	1	1	NaN	90	2	27	1	121	221	321	NaN	521	0.274981375783682	2	0	NaN	5175169.8642314	NaN	5175170.8476525	5175171.36419422
116	19	1	0	90	36.1581920903955	36.241610738255	0	0	1	3	1	NaN	1	4	0.245489495646974	1	1	NaN	91	2	28	1	111	211	311	NaN	511	0.283295727334917	1	1	NaN	5175172.4477341	NaN	5175173.4312368	5175173.94778137
116	19	1	0	90	36.1581920903955	36.241610738255	23	0.766742812544107	2	4	4	NaN	1	3	0.245489495646974	1	1	NaN	92	2	29	1	121	221	321	NaN	521	0.0103938272222877	2	0	NaN	5175175.3646503	NaN	5175176.3482009	5175176.86474697
116	19	1	0	90	36.1581920903955	36.241610738255	17	0.566722948402166	2	2	3	NaN	1	5	0.245489495646974	1	1	NaN	93	2	30	1	121	221	321	NaN	521	0.0334278224036098	1	1	NaN	5175177.6815611	NaN	5175178.6650692	5175179.18163208
116	19	1	0	90	36.1581920903955	36.241610738255	16	0.53338630437851	2	9	2	NaN	2	4	0.245489495646974	1	1	NaN	94	2	31	1	121	221	321	NaN	521	0.232448327355087	1	0	NaN	5175180.4986049	NaN	5175181.4820208	5175181.99857837
116	19	1	0	90	36.1581920903955	36.241610738255	8	0.266693152189255	2	8	2	NaN	2	4	0.245489495646974	1	1	NaN	95	2	32	1	121	221	321	NaN	521	0.276712727732956	2	1	NaN	5175183.5821436	NaN	5175184.5656689	5175185.08221937
116	19	1	0	90	36.1581920903955	36.241610738255	22	0.733406168520451	2	3	2	NaN	1	5	0.245489495646974	1	1	NaN	96	2	33	1	121	221	321	NaN	521	0.261391395702958	1	1	NaN	5175186.165858	NaN	5175187.1492424	5175187.6658092
116	19	1	0	90	36.1581920903955	36.241610738255	12	0.400039728283882	2	8	2	NaN	2	4	0.245489495646974	1	1	NaN	97	2	34	1	121	221	321	NaN	521	0.301530727185309	1	0	NaN	5175188.7494628	NaN	5175189.7328399	5175190.24938667
116	19	1	0	90	36.1581920903955	36.241610738255	7	0.233356508165598	2	4	1	NaN	1	5	0.245489495646974	1	1	NaN	98	2	35	1	121	221	321	NaN	521	0.0854326272383332	2	0	NaN	5175191.9497643	NaN	5175192.9331564	5175193.44971017
116	19	1	0	90	36.1581920903955	36.241610738255	22	0.733406168520451	2	9	1	NaN	2	3	0.245489495646974	1	1	NaN	99	2	36	1	121	221	321	NaN	521	0.285279675386846	1	0	NaN	5175194.3499867	NaN	5175195.3333948	5175195.84994412
116	19	1	0	90	36.1581920903955	36.241610738255	6	0.200019864141941	2	3	5	NaN	1	5	0.245489495646974	1	1	NaN	100	2	37	1	121	221	321	NaN	521	0.325238775461912	1	1	NaN	5175196.950254	NaN	5175197.9335574	5175198.45019442
116	19	1	0	90	36.1581920903955	36.241610738255	9	0.300029796212912	2	6	3	NaN	1	5	0.245489495646974	1	1	NaN	101	2	38	1	121	221	321	NaN	521	0.371692874468863	1	1	NaN	5175199.5838554	NaN	5175200.5672326	5175201.08379153
116	19	1	0	90	36.1581920903955	36.241610738255	7	0.233356508165598	2	8	6	NaN	2	4	0.245489495646974	1	1	NaN	102	2	39	1	121	221	321	NaN	521	0.344046975485981	2	1	NaN	5175202.2674428	NaN	5175203.2508227	5175203.76737882
116	19	1	0	90	36.1581920903955	36.241610738255	20	0.666732880473137	2	11	6	NaN	2	3	0.245489495646974	1	1	NaN	103	2	40	1	121	221	321	NaN	521	0.29283182695508	2	1	NaN	5175204.9343589	NaN	5175205.9177775	5175206.43431137
116	19	1	0	90	36.1581920903955	36.241610738255	14	0.466713016331196	2	2	5	NaN	1	5	0.245489495646974	1	1	NaN	104	2	41	1	121	221	321	NaN	521	0.332908227108419	1	1	NaN	5175207.5346147	NaN	5175208.5180166	5175209.03457187
116	19	1	0	90	36.1581920903955	36.241610738255	21	0.700069524496794	2	4	1	NaN	1	5	0.245489495646974	1	1	NaN	105	2	42	1	121	221	321	NaN	521	0.234421875327826	1	1	NaN	5175210.184874	NaN	5175211.1683061	5175211.68483252
116	19	1	0	90	36.1581920903955	36.241610738255	10	0.333366440236568	2	3	4	NaN	1	4	0.245489495646974	1	1	NaN	106	2	43	1	121	221	321	NaN	521	0.188017175532877	1	1	NaN	5175212.7351391	NaN	5175213.71853	5175214.23507532
116	19	1	0	90	36.1581920903955	36.241610738255	19	0.63339623644948	2	4	5	NaN	1	5	0.245489495646974	1	1	NaN	107	2	44	1	121	221	321	NaN	521	0.443745074793696	2	0	NaN	5175215.5354192	NaN	5175216.5188065	5175217.03536063
116	19	1	0	90	36.1581920903955	36.241610738255	11	0.366703084260225	2	8	2	NaN	2	3	0.245489495646974	1	1	NaN	108	2	45	1	121	221	321	NaN	521	0.317917827516794	2	1	NaN	5175218.2856748	NaN	5175219.2690757	5175219.78562817
116	19	1	0	90	36.1581920903955	36.241610738255	8	0.266693152189255	2	1	2	NaN	1	3	0.245489495646974	1	1	NaN	109	2	46	1	121	221	321	NaN	521	0.276103775016963	1	1	NaN	5175220.9192826	NaN	5175221.9026945	5175222.41921403
116	19	1	0	90	36.1581920903955	36.241610738255	7	0.233356508165598	2	3	6	NaN	1	3	0.245489495646974	1	1	NaN	110	2	47	1	121	221	321	NaN	521	0.244201727211475	1	1	NaN	5175223.5028832	NaN	5175224.4862524	5175225.00281237
116	19	1	0	90	36.1581920903955	36.241610738255	12	0.400039728283882	2	10	1	NaN	2	4	0.245489495646974	1	1	NaN	111	2	48	1	121	221	321	NaN	521	0.294160927645862	1	0	NaN	5175226.0531378	NaN	5175227.0364932	5175227.55306217
116	19	1	0	90	36.1581920903955	36.241610738255	10	0.333366440236568	2	8	6	NaN	2	5	0.245489495646974	1	1	NaN	112	2	49	1	121	221	321	NaN	521	0.525875022634864	1	0	NaN	5175228.6533861	NaN	5175229.6367589	5175230.15331228
116	19	1	0	90	36.1581920903955	36.241610738255	12	0.400039728283882	2	2	1	NaN	1	5	0.245489495646974	1	1	NaN	113	2	50	1	121	221	321	NaN	521	0.412642126902938	1	1	NaN	5175231.4869644	NaN	5175232.4703866	5175232.98692347
116	19	1	0	90	36.1581920903955	36.241610738255	25	0.833416100591421	2	4	6	NaN	1	4	0.245489495646974	1	1	NaN	114	2	51	1	121	221	321	NaN	521	0.422628875821829	2	0	NaN	5175234.2205843	NaN	5175235.2039796	5175235.72051832
116	19	1	0	90	36.1581920903955	36.241610738255	23	0.766742812544107	2	1	2	NaN	1	3	0.245489495646974	1	1	NaN	115	2	52	1	121	221	321	NaN	521	0.297061226330698	1	1	NaN	5175236.9542438	NaN	5175237.9375776	5175238.45413137
116	19	1	0	90	36.1581920903955	36.241610738255	17	0.566722948402166	2	4	3	NaN	1	5	0.245489495646974	1	1	NaN	116	2	53	1	121	221	321	NaN	521	0.248488226905465	1	1	NaN	5175239.57099	NaN	5175240.5544924	5175241.07105497
116	19	1	0	90	36.1581920903955	36.241610738255	10	0.333366440236568	2	10	1	NaN	2	5	0.245489495646974	1	1	NaN	117	2	54	1	121	221	321	NaN	521	0.253863922320306	1	0	NaN	5175242.621416	NaN	5175243.6047899	5175244.12135988
116	19	1	0	90	36.1581920903955	36.241610738255	14	0.466713016331196	2	7	4	NaN	2	4	0.245489495646974	1	1	NaN	118	2	55	1	121	221	321	NaN	521	0.303067374974489	1	0	NaN	5175245.1883507	NaN	5175246.1717172	5175246.68826682
116	19	1	0	90	36.1581920903955	36.241610738255	14	0.466713016331196	2	3	5	NaN	1	5	0.245489495646974	1	1	NaN	119	2	56	1	121	221	321	NaN	521	0.270147074945271	1	1	NaN	5175247.8052627	NaN	5175248.7886243	5175249.30519853
116	19	1	0	90	36.1581920903955	36.241610738255	6	0.200019864141941	2	9	4	NaN	2	3	0.245489495646974	1	1	NaN	120	2	57	1	121	221	321	NaN	521	0.326839275658131	1	0	NaN	5175250.3887082	NaN	5175251.3722337	5175251.88877982
116	19	1	0	90	36.1581920903955	36.241610738255	7	0.233356508165598	2	12	6	NaN	2	5	0.245489495646974	1	1	NaN	121	2	58	1	121	221	321	NaN	521	0.332262427546084	1	0	NaN	5175253.0391069	NaN	5175254.0225023	5175254.53904227
116	19	1	0	90	36.1581920903955	36.241610738255	19	0.63339623644948	2	5	1	NaN	1	4	0.245489495646974	1	1	NaN	122	2	59	1	121	221	321	NaN	521	0.209936427883804	1	1	NaN	5175255.6893862	NaN	5175256.6727793	5175257.18930597
116	19	1	0	90	36.1581920903955	36.241610738255	13	0.433376372307539	2	11	3	NaN	2	4	0.245489495646974	1	1	NaN	123	2	60	1	121	221	321	NaN	521	0.0670758271589875	1	0	NaN	5175258.6563003	NaN	5175259.6397049	5175260.15626197
116	19	1	0	90	36.1581920903955	36.241610738255	12	0.400039728283882	2	4	4	NaN	1	4	0.245489495646974	1	1	NaN	124	2	61	1	121	221	321	NaN	521	0.275759727694094	1	1	NaN	5175261.0397521	NaN	5175262.0233534	5175262.53983197
116	19	1	0	90	36.1581920903955	36.241610738255	19	0.63339623644948	2	10	4	NaN	2	3	0.245489495646974	1	1	NaN	125	2	62	1	121	221	321	NaN	521	0.300137675367296	2	1	NaN	5175263.6234863	NaN	5175264.6068789	5175265.12340812
116	19	1	0	90	36.1581920903955	36.241610738255	15	0.500049660354853	2	8	1	NaN	2	3	0.245489495646974	1	1	NaN	126	2	63	1	121	221	321	NaN	521	0.31489622220397	2	1	NaN	5175266.2403982	NaN	5175267.223793	5175267.74033148
116	19	1	0	90	36.1581920903955	36.241610738255	14	0.466713016331196	2	1	1	NaN	1	3	0.245489495646974	1	1	NaN	127	3	1	1	121	221	321	NaN	521	0.0104254232719541	2	0	NaN	5175271.3574885	NaN	5175272.3409587	5175272.85750288
116	19	1	0	90	36.1581920903955	36.241610738255	24	0.800079456567764	2	1	6	NaN	1	5	0.245489495646974	1	1	NaN	128	3	2	1	121	221	321	NaN	521	0.265185127966106	1	1	NaN	5175273.6744764	NaN	5175274.6578373	5175275.17440867
116	19	1	0	90	36.1581920903955	36.241610738255	16	0.53338630437851	2	5	5	NaN	1	4	0.245489495646974	1	1	NaN	129	3	3	1	121	221	321	NaN	521	0.0652139754965901	1	1	NaN	5175276.2580833	NaN	5175277.2414448	5175277.75798372
116	19	1	0	90	36.1581920903955	36.241610738255	0	0	1	9	5	NaN	2	5	0.245489495646974	1	1	NaN	130	3	4	1	111	211	311	NaN	511	0.0104258228093386	1	0	NaN	5175278.6414889	NaN	5175279.6250068	5175280.14156018
116	19	1	0	90	36.1581920903955	36.241610738255	13	0.433376372307539	2	5	2	NaN	1	5	0.245489495646974	1	1	NaN	131	3	5	1	121	221	321	NaN	521	0.10089067555964	1	1	NaN	5175280.9583793	NaN	5175281.9419033	5175282.45844662
116	19	1	0	90	36.1581920903955	36.241610738255	11	0.366703084260225	2	2	5	NaN	1	4	0.245489495646974	1	1	NaN	132	3	6	1	121	221	321	NaN	521	0.315941143780947	2	0	NaN	5175283.3753459	NaN	5175284.3588703	5175284.87536636
116	19	1	0	90	36.1581920903955	36.241610738255	21	0.700069524496794	2	3	1	NaN	1	4	0.245489495646974	1	1	NaN	133	3	7	1	121	221	321	NaN	521	0.210263574495912	2	0	NaN	5175286.0089962	NaN	5175286.9924027	5175287.50894163
116	19	1	0	90	36.1581920903955	36.241610738255	10	0.333366440236568	2	9	6	NaN	2	4	0.245489495646974	1	1	NaN	134	3	8	1	121	221	321	NaN	521	0.17330317478627	2	1	NaN	5175288.5259315	NaN	5175289.5093625	5175290.02586893
116	19	1	0	90	36.1581920903955	36.241610738255	13	0.433376372307539	2	7	5	NaN	2	3	0.245489495646974	1	1	NaN	135	3	9	1	121	221	321	NaN	521	0.289894579909742	2	1	NaN	5175291.0095506	NaN	5175291.9928917	5175292.50943582
116	19	1	0	90	36.1581920903955	36.241610738255	11	0.366703084260225	2	8	2	NaN	2	3	0.245489495646974	1	1	NaN	136	3	10	1	121	221	321	NaN	521	0.215881027281284	1	0	NaN	5175294.0597646	NaN	5175295.0431857	5175295.55975887
116	19	1	0	90	36.1581920903955	36.241610738255	24	0.800079456567764	2	3	6	NaN	1	3	0.245489495646974	1	1	NaN	137	3	11	1	121	221	321	NaN	521	0.0103789800778031	1	1	NaN	5175296.5933942	NaN	5175297.5767737	5175298.09332862
116	19	1	0	90	36.1581920903955	36.241610738255	15	0.500049660354853	2	12	1	NaN	2	5	0.245489495646974	1	1	NaN	138	3	12	1	121	221	321	NaN	521	0.0104225231334567	1	0	NaN	5175298.9102769	NaN	5175299.8936756	5175300.41020978
116	19	1	0	90	36.1581920903955	36.241610738255	17	0.566722948402166	2	5	6	NaN	1	4	0.245489495646974	1	1	NaN	139	3	13	1	121	221	321	NaN	521	2.7266856757924	1	1	NaN	5175301.4605013	NaN	5175302.4439071	5175302.96046252
116	19	1	0	90	36.1581920903955	36.241610738255	0	0	1	8	6	NaN	2	3	0.245489495646974	1	1	NaN	140	3	14	1	111	211	311	NaN	511	0.0103957271203399	2	1	NaN	5175308.2111566	NaN	5175309.1945974	5175309.71113887
116	19	1	0	90	36.1581920903955	36.241610738255	20	0.666732880473137	2	10	4	NaN	2	4	0.245489495646974	1	1	NaN	141	3	15	1	121	221	321	NaN	521	0.0103979269042611	2	1	NaN	5175310.5280655	NaN	5175311.5115215	5175312.02801997
116	19	1	0	90	36.1581920903955	36.241610738255	24	0.800079456567764	2	1	2	NaN	1	4	0.245489495646974	1	1	NaN	142	3	16	1	121	221	321	NaN	521	1.94233777560294	1	1	NaN	5175312.8449963	NaN	5175313.828365	5175314.34492442
116	19	1	0	90	36.1581920903955	36.241610738255	8	0.266693152189255	2	8	5	NaN	2	5	0.245489495646974	1	1	NaN	143	3	17	1	121	221	321	NaN	521	0.170924374833703	2	1	NaN	5175317.5286202	NaN	5175318.5121755	5175319.02870672
116	19	1	0	90	36.1581920903955	36.241610738255	0	0	1	10	4	NaN	2	5	0.245489495646974	1	1	NaN	144	3	18	1	111	211	311	NaN	511	0.0104274228215218	1	0	NaN	5175320.5957412	NaN	5175321.5791675	5175322.09567428
116	19	1	0	90	36.1581920903955	36.241610738255	25	0.833416100591421	2	9	2	NaN	2	3	0.245489495646974	1	1	NaN	145	3	19	1	121	221	321	NaN	521	0.210649579763412	1	0	NaN	5175322.9126329	NaN	5175323.896031	5175324.41257282
116	19	1	0	90	36.1581920903955	36.241610738255	0	0	1	11	4	NaN	2	4	0.245489495646974	1	1	NaN	146	3	20	1	111	211	311	NaN	511	0.010410575196147	2	1	NaN	5175325.6962116	NaN	5175326.6796439	5175327.19618502
116	19	1	0	90	36.1581920903955	36.241610738255	8	0.266693152189255	2	12	6	NaN	2	5	0.245489495646974	1	1	NaN	147	3	21	1	121	221	321	NaN	521	0.0401923786848783	2	1	NaN	5175328.763142	NaN	5175329.7466074	5175330.26315682
116	19	1	0	90	36.1581920903955	36.241610738255	23	0.766742812544107	2	5	2	NaN	1	3	0.245489495646974	1	1	NaN	148	3	22	1	121	221	321	NaN	521	0.0739533277228475	2	0	NaN	5175331.1133036	NaN	5175332.0968285	5175332.61338357
116	19	1	0	90	36.1581920903955	36.241610738255	20	0.666732880473137	2	5	3	NaN	1	5	0.245489495646974	1	1	NaN	149	3	23	1	121	221	321	NaN	521	0.0102687431499362	1	1	NaN	5175333.8632992	NaN	5175334.8470928	5175335.36365646
116	19	1	0	90	36.1581920903955	36.241610738255	17	0.566722948402166	2	12	2	NaN	2	5	0.245489495646974	1	1	NaN	150	3	24	1	121	221	321	NaN	521	0.0103977276012301	2	1	NaN	5175336.4472669	NaN	5175337.4306893	5175337.94724617
116	19	1	0	90	36.1581920903955	36.241610738255	20	0.666732880473137	2	7	4	NaN	2	3	0.245489495646974	1	1	NaN	151	3	25	1	121	221	321	NaN	521	0.23945527523756	2	1	NaN	5175338.7641786	NaN	5175339.7475718	5175340.26413412
116	19	1	0	90	36.1581920903955	36.241610738255	8	0.266693152189255	2	10	4	NaN	2	4	0.245489495646974	1	1	NaN	152	3	26	1	121	221	321	NaN	521	0.0103932274505496	2	1	NaN	5175341.8478007	NaN	5175342.8312096	5175343.34777247
116	19	1	0	90	36.1581920903955	36.241610738255	7	0.233356508165598	2	9	1	NaN	2	5	0.245489495646974	1	1	NaN	153	3	27	1	121	221	321	NaN	521	0.127107427455485	1	0	NaN	5175344.1647191	NaN	5175345.1481142	5175345.66467217
116	19	1	0	90	36.1581920903955	36.241610738255	18	0.600059592425823	2	10	3	NaN	2	3	0.245489495646974	1	1	NaN	154	3	28	1	121	221	321	NaN	521	0.0104080755263567	2	1	NaN	5175346.6149626	NaN	5175347.5983534	5175348.11491102
116	19	1	0	90	36.1581920903955	36.241610738255	22	0.733406168520451	2	2	5	NaN	1	4	0.245489495646974	1	1	NaN	155	3	29	1	121	221	321	NaN	521	0.267849574796855	2	0	NaN	5175349.0318453	NaN	5175350.0152608	5175350.53181313
116	19	1	0	90	36.1581920903955	36.241610738255	10	0.333366440236568	2	6	2	NaN	1	3	0.245489495646974	1	1	NaN	156	3	30	1	121	221	321	NaN	521	1.11630232725292	1	1	NaN	5175351.6154482	NaN	5175352.5988556	5175353.11540297
116	19	1	0	90	36.1581920903955	36.241610738255	13	0.433376372307539	2	1	2	NaN	1	5	0.245489495646974	1	1	NaN	157	3	31	1	121	221	321	NaN	521	0.010411174967885	1	1	NaN	5175355.0491128	NaN	5175356.0325052	5175356.54906172
116	19	1	0	90	36.1581920903955	36.241610738255	6	0.200019864141941	2	6	4	NaN	1	5	0.245489495646974	1	1	NaN	158	3	32	1	121	221	321	NaN	521	0.0104245226830244	2	0	NaN	5175357.3827052	NaN	5175358.3660902	5175358.88262448
116	19	1	0	90	36.1581920903955	36.241610738255	21	0.700069524496794	2	11	3	NaN	2	3	0.245489495646974	1	1	NaN	159	3	33	1	121	221	321	NaN	521	1.17298742290586	2	1	NaN	5175359.7661725	NaN	5175360.7496912	5175361.26619348
116	19	1	0	90	36.1581920903955	36.241610738255	21	0.700069524496794	2	12	2	NaN	2	3	0.245489495646974	1	1	NaN	160	3	34	1	121	221	321	NaN	521	0.154657670296729	2	1	NaN	5175363.4165802	NaN	5175364.4000154	5175364.91655503
116	19	1	0	90	36.1581920903955	36.241610738255	16	0.53338630437851	2	11	5	NaN	2	5	0.245489495646974	1	1	NaN	161	3	35	1	121	221	321	NaN	521	0.351824526675045	2	1	NaN	5175365.8835068	NaN	5175366.866915	5175367.38347127
116	19	1	0	90	36.1581920903955	36.241610738255	9	0.300029796212912	2	10	5	NaN	2	4	0.245489495646974	1	1	NaN	162	3	36	1	121	221	321	NaN	521	0.010392626747489	1	0	NaN	5175368.5504526	NaN	5175369.5338617	5175370.05039737
116	19	1	0	90	36.1581920903955	36.241610738255	13	0.433376372307539	2	2	4	NaN	1	4	0.245489495646974	1	1	NaN	163	3	37	1	121	221	321	NaN	521	0.434664487838745	2	0	NaN	5175373.8009869	NaN	5175374.7843648	5175375.30092171
116	19	1	0	90	36.1581920903955	36.241610738255	16	0.53338630437851	2	7	1	NaN	2	3	0.245489495646974	1	1	NaN	164	3	38	1	121	221	321	NaN	521	0.0104145752266049	1	0	NaN	5175376.7512784	NaN	5175377.7347073	5175378.25120702
116	19	1	0	90	36.1581920903955	36.241610738255	8	0.266693152189255	2	4	2	NaN	1	4	0.245489495646974	1	1	NaN	165	3	39	1	121	221	321	NaN	521	0.0103436429053545	2	0	NaN	5175379.1180178	NaN	5175380.1015434	5175380.61810396
116	19	1	0	90	36.1581920903955	36.241610738255	0	0	1	6	2	NaN	1	5	0.245489495646974	1	1	NaN	166	3	40	1	111	211	311	NaN	511	0.0103942267596722	1	1	NaN	5175385.3519903	NaN	5175386.3354996	5175386.85204377
116	19	1	0	90	36.1581920903955	36.241610738255	14	0.466713016331196	2	9	1	NaN	2	5	0.245489495646974	1	1	NaN	167	3	41	1	121	221	321	NaN	521	0.0585886957123876	2	1	NaN	5175387.7689823	NaN	5175388.7524185	5175389.2689648
116	19	1	0	90	36.1581920903955	36.241610738255	20	0.666732880473137	2	3	4	NaN	1	4	0.245489495646974	1	1	NaN	168	3	42	1	121	221	321	NaN	521	0.203486784361303	1	1	NaN	5175390.1359233	NaN	5175391.1193036	5175391.63585992
116	19	1	0	90	36.1581920903955	36.241610738255	19	0.63339623644948	2	11	6	NaN	2	4	0.245489495646974	1	1	NaN	169	3	43	1	121	221	321	NaN	521	0.118340675719082	1	0	NaN	5175393.0695341	NaN	5175394.0529249	5175394.56947722
116	19	1	0	90	36.1581920903955	36.241610738255	19	0.63339623644948	2	1	2	NaN	1	3	0.245489495646974	1	1	NaN	170	3	44	1	121	221	321	NaN	521	0.252032774500549	1	1	NaN	5175395.9197734	NaN	5175396.9031897	5175397.41975813
116	19	1	0	90	36.1581920903955	36.241610738255	16	0.53338630437851	2	2	3	NaN	1	4	0.245489495646974	1	1	NaN	171	3	45	1	121	221	321	NaN	521	0.170003227889538	1	1	NaN	5175398.7533856	NaN	5175399.7368183	5175400.25336987
116	19	1	0	90	36.1581920903955	36.241610738255	9	0.300029796212912	2	2	4	NaN	1	4	0.245489495646974	1	1	NaN	172	3	46	1	121	221	321	NaN	521	0.206577674485743	1	1	NaN	5175401.2369844	NaN	5175402.2204026	5175402.73694753
116	19	1	0	90	36.1581920903955	36.241610738255	20	0.666732880473137	2	9	3	NaN	2	4	0.245489495646974	1	1	NaN	173	3	47	1	121	221	321	NaN	521	0.129221227020025	1	0	NaN	5175404.170498	NaN	5175405.1539393	5175405.67056867
116	19	1	0	90	36.1581920903955	36.241610738255	24	0.800079456567764	2	3	1	NaN	1	3	0.245489495646974	1	1	NaN	174	3	48	1	121	221	321	NaN	521	0.0104138748720288	2	0	NaN	5175406.6208806	NaN	5175407.6041598	5175408.12080043
116	19	1	0	90	36.1581920903955	36.241610738255	8	0.266693152189255	2	9	5	NaN	2	5	0.245489495646974	1	1	NaN	175	3	49	1	121	221	321	NaN	521	0.241011175327003	1	0	NaN	5175409.3544378	NaN	5175410.3378585	5175410.85439922
116	19	1	0	90	36.1581920903955	36.241610738255	6	0.200019864141941	2	5	5	NaN	1	3	0.245489495646974	1	1	NaN	176	3	50	1	121	221	321	NaN	521	0.194625575095415	1	1	NaN	5175411.9047012	NaN	5175412.8881135	5175413.40465403
116	19	1	0	90	36.1581920903955	36.241610738255	11	0.366703084260225	2	5	5	NaN	1	3	0.245489495646974	1	1	NaN	177	3	51	1	121	221	321	NaN	521	0.326234374195337	1	1	NaN	5175414.4216332	NaN	5175415.4050238	5175415.92156523
116	19	1	0	90	36.1581920903955	36.241610738255	6	0.200019864141941	2	1	3	NaN	1	3	0.245489495646974	1	1	NaN	178	3	52	1	121	221	321	NaN	521	0.211828391999006	1	1	NaN	5175417.0718756	NaN	5175418.0553268	5175418.57183581
116	19	1	0	90	36.1581920903955	36.241610738255	6	0.200019864141941	2	5	1	NaN	1	4	0.245489495646974	1	1	NaN	179	3	53	1	121	221	321	NaN	521	0.297182374633849	1	1	NaN	5175419.7221219	NaN	5175420.7055431	5175421.22209703
116	19	1	0	90	36.1581920903955	36.241610738255	14	0.466713016331196	2	10	4	NaN	2	5	0.245489495646974	1	1	NaN	180	3	54	1	121	221	321	NaN	521	0.241406626999378	1	0	NaN	5175422.3224182	NaN	5175423.3058109	5175423.82234467
116	19	1	0	90	36.1581920903955	36.241610738255	7	0.233356508165598	2	11	2	NaN	2	3	0.245489495646974	1	1	NaN	181	3	55	1	121	221	321	NaN	521	0.251141174696386	1	0	NaN	5175425.2727105	NaN	5175426.2561032	5175426.77263253
116	19	1	0	90	36.1581920903955	36.241610738255	11	0.366703084260225	2	5	4	NaN	1	4	0.245489495646974	1	1	NaN	182	3	56	1	121	221	321	NaN	521	0.204238027334213	1	1	NaN	5175427.8396766	NaN	5175428.8230101	5175429.33955897
116	19	1	0	90	36.1581920903955	36.241610738255	10	0.333366440236568	2	8	3	NaN	2	5	0.245489495646974	1	1	NaN	183	3	57	1	121	221	321	NaN	521	0.103062774986029	1	0	NaN	5175430.7565079	NaN	5175431.7399438	5175432.25650602
116	19	1	0	90	36.1581920903955	36.241610738255	13	0.433376372307539	2	9	6	NaN	2	5	0.245489495646974	1	1	NaN	184	3	58	1	121	221	321	NaN	521	0.0104391230270267	2	1	NaN	5175433.4400516	NaN	5175434.4235754	5175434.94009928
116	19	1	0	90	36.1581920903955	36.241610738255	18	0.600059592425823	2	1	3	NaN	1	5	0.245489495646974	1	1	NaN	185	3	59	1	121	221	321	NaN	521	0.189017423428595	1	1	NaN	5175436.1903191	NaN	5175437.1738256	5175437.69037478
116	19	1	0	90	36.1581920903955	36.241610738255	24	0.800079456567764	2	8	2	NaN	2	3	0.245489495646974	1	1	NaN	186	3	60	1	121	221	321	NaN	521	0.232567822560668	1	0	NaN	5175438.6906922	NaN	5175439.6740812	5175440.19061518
116	19	1	0	90	36.1581920903955	36.241610738255	9	0.300029796212912	2	3	4	NaN	1	5	0.245489495646974	1	1	NaN	187	3	61	1	121	221	321	NaN	521	0.465987075120211	1	1	NaN	5175441.6576084	NaN	5175442.6410434	5175443.15758543
116	19	1	0	90	36.1581920903955	36.241610738255	12	0.400039728283882	2	3	5	NaN	1	3	0.245489495646974	1	1	NaN	188	3	62	1	121	221	321	NaN	521	0.320778327062726	1	1	NaN	5175444.8744808	NaN	5175445.8580649	5175446.37456537
116	19	1	0	90	36.1581920903955	36.241610738255	7	0.233356508165598	2	7	6	NaN	2	5	0.245489495646974	1	1	NaN	189	3	63	1	121	221	321	NaN	521	0.214489427395165	1	0	NaN	5175447.925015	NaN	5175448.9083146	5175449.42486977
116	19	1	0	90	36.1581920903955	36.241610738255	0	0	1	9	1	NaN	2	3	0.245489495646974	1	1	NaN	190	4	1	1	111	211	311	NaN	511	1.33098962716758	1	0	NaN	5175452.0086533	NaN	5175452.9920479	5175453.50861477
116	19	1	0	90	36.1581920903955	36.241610738255	25	0.833416100591421	2	12	1	NaN	2	5	0.245489495646974	1	1	NaN	191	4	2	1	121	221	321	NaN	521	0.0103962272405624	1	0	NaN	5175456.1423711	NaN	5175457.1257916	5175457.64233247
116	19	1	0	90	36.1581920903955	36.241610738255	13	0.433376372307539	2	12	4	NaN	2	3	0.245489495646974	1	1	NaN	192	4	3	1	121	221	321	NaN	521	0.12026502750814	1	0	NaN	5175458.459155	NaN	5175459.4426851	5175459.95924057
116	19	1	0	90	36.1581920903955	36.241610738255	19	0.63339623644948	2	7	6	NaN	2	3	0.245489495646974	1	1	NaN	193	4	4	1	121	221	321	NaN	521	0.133627475239336	2	1	NaN	5175461.3262184	NaN	5175462.3096273	5175462.82618732
116	19	1	0	90	36.1581920903955	36.241610738255	0	0	1	2	4	NaN	1	5	0.245489495646974	1	1	NaN	194	4	5	1	111	211	311	NaN	511	0.571415675804019	1	1	NaN	5175463.7764687	NaN	5175464.7598746	5175465.27641752
116	19	1	0	90	36.1581920903955	36.241610738255	21	0.700069524496794	2	6	6	NaN	1	4	0.245489495646974	1	1	NaN	195	4	6	1	121	221	321	NaN	521	0.159792023710907	1	1	NaN	5175466.6600875	NaN	5175467.6434943	5175468.16004118
116	19	1	0	90	36.1581920903955	36.241610738255	8	0.266693152189255	2	12	1	NaN	2	3	0.245489495646974	1	1	NaN	196	4	7	1	121	221	321	NaN	521	0.201939875259995	2	1	NaN	5175469.5936861	NaN	5175470.577108	5175471.09366172
116	19	1	0	90	36.1581920903955	36.241610738255	22	0.733406168520451	2	7	5	NaN	2	3	0.245489495646974	1	1	NaN	197	4	8	1	121	221	321	NaN	521	0.485107574611902	2	1	NaN	5175472.1106138	NaN	5175473.0940318	5175473.61057822
116	19	1	0	90	36.1581920903955	36.241610738255	16	0.53338630437851	2	4	2	NaN	1	3	0.245489495646974	1	1	NaN	198	4	9	1	121	221	321	NaN	521	0.186115175485611	1	1	NaN	5175475.1775773	NaN	5175476.1609651	5175476.67753682
116	19	1	0	90	36.1581920903955	36.241610738255	19	0.63339623644948	2	1	6	NaN	1	4	0.245489495646974	1	1	NaN	199	4	10	1	121	221	321	NaN	521	0.14987822715193	1	1	NaN	5175477.677821	NaN	5175478.6612406	5175479.17778607
116	19	1	0	90	36.1581920903955	36.241610738255	15	0.500049660354853	2	6	3	NaN	1	5	0.245489495646974	1	1	NaN	200	4	11	1	121	221	321	NaN	521	0.196479175239801	1	1	NaN	5175480.5114295	NaN	5175481.4948497	5175482.01140413
116	19	1	0	90	36.1581920903955	36.241610738255	18	0.600059592425823	2	11	2	NaN	2	3	0.245489495646974	1	1	NaN	201	4	12	1	121	221	321	NaN	521	0.0878220265731215	1	0	NaN	5175483.0115884	NaN	5175483.9949881	5175484.51164617
116	19	1	0	90	36.1581920903955	36.241610738255	25	0.833416100591421	2	12	4	NaN	2	4	0.245489495646974	1	1	NaN	202	4	13	1	121	221	321	NaN	521	0.0104127759113908	2	1	NaN	5175485.8119374	NaN	5175486.7953764	5175487.31192402
116	19	1	0	90	36.1581920903955	36.241610738255	22	0.733406168520451	2	12	2	NaN	2	5	0.245489495646974	1	1	NaN	203	4	14	1	121	221	321	NaN	521	0.0104125747457147	1	0	NaN	5175488.1288848	NaN	5175489.1122637	5175489.62881153
116	19	1	0	90	36.1581920903955	36.241610738255	24	0.800079456567764	2	9	6	NaN	2	5	0.245489495646974	1	1	NaN	204	4	15	1	121	221	321	NaN	521	0.205036475323141	1	0	NaN	5175490.4624279	NaN	5175491.4458512	5175491.96237213
116	19	1	0	90	36.1581920903955	36.241610738255	10	0.333366440236568	2	1	3	NaN	1	3	0.245489495646974	1	1	NaN	205	4	16	1	121	221	321	NaN	521	0.200261675752699	1	1	NaN	5175493.3793798	NaN	5175494.3628086	5175494.87932992
116	19	1	0	90	36.1581920903955	36.241610738255	16	0.53338630437851	2	12	2	NaN	2	4	0.245489495646974	1	1	NaN	206	4	17	1	121	221	321	NaN	521	0.585550570860505	1	0	NaN	5175496.3463223	NaN	5175497.3297413	5175497.84628233
116	19	1	0	90	36.1581920903955	36.241610738255	19	0.63339623644948	2	3	6	NaN	1	5	0.245489495646974	1	1	NaN	207	4	18	1	121	221	321	NaN	521	1.05309382732958	2	0	NaN	5175499.646649	NaN	5175500.6300585	5175501.14662007
116	19	1	0	90	36.1581920903955	36.241610738255	0	0	1	5	6	NaN	1	5	0.245489495646974	1	1	NaN	208	4	19	1	111	211	311	NaN	511	0.0758655276149511	2	0	NaN	5175503.4637153	NaN	5175504.4471161	5175504.96365897
116	19	1	0	90	36.1581920903955	36.241610738255	13	0.433376372307539	2	8	5	NaN	2	5	0.245489495646974	1	1	NaN	209	4	20	1	121	221	321	NaN	521	0.0548357274383307	2	1	NaN	5175506.3805405	NaN	5175507.3640551	5175507.88061627
116	19	1	0	90	36.1581920903955	36.241610738255	16	0.53338630437851	2	3	5	NaN	1	5	0.245489495646974	1	1	NaN	210	4	21	1	121	221	321	NaN	521	0.288314474746585	1	1	NaN	5175508.7475753	NaN	5175509.7309622	5175510.24751113
116	19	1	0	90	36.1581920903955	36.241610738255	10	0.333366440236568	2	6	5	NaN	1	5	0.245489495646974	1	1	NaN	211	4	22	1	121	221	321	NaN	521	0.260739726945758	1	1	NaN	5175511.6310552	NaN	5175512.6145682	5175513.13112597
116	19	1	0	90	36.1581920903955	36.241610738255	23	0.766742812544107	2	9	3	NaN	2	4	0.245489495646974	1	1	NaN	212	4	23	1	121	221	321	NaN	521	0.291111823171377	1	0	NaN	5175514.664827	NaN	5175515.64821	5175516.16476278
116	19	1	0	90	36.1581920903955	36.241610738255	13	0.433376372307539	2	6	6	NaN	1	3	0.245489495646974	1	1	NaN	213	4	24	1	121	221	321	NaN	521	0.314684927463531	2	0	NaN	5175517.2650481	NaN	5175518.2484842	5175518.76501927
116	19	1	0	90	36.1581920903955	36.241610738255	24	0.800079456567764	2	7	2	NaN	2	3	0.245489495646974	1	1	NaN	214	4	25	1	121	221	321	NaN	521	0.286913274787366	2	1	NaN	5175520.3486818	NaN	5175521.3320823	5175521.84865243
116	19	1	0	90	36.1581920903955	36.241610738255	18	0.600059592425823	2	6	4	NaN	1	3	0.245489495646974	1	1	NaN	215	4	26	1	121	221	321	NaN	521	0.246576171368361	1	1	NaN	5175522.9489246	NaN	5175523.9323426	5175524.44889843
116	19	1	0	90	36.1581920903955	36.241610738255	6	0.200019864141941	2	8	4	NaN	2	5	0.245489495646974	1	1	NaN	216	4	27	1	121	221	321	NaN	521	0.729755942709744	1	0	NaN	5175525.8658582	NaN	5175526.8493039	5175527.36586386
116	19	1	0	90	36.1581920903955	36.241610738255	24	0.800079456567764	2	4	1	NaN	1	5	0.245489495646974	1	1	NaN	217	4	28	1	121	221	321	NaN	521	2.03129602689296	1	1	NaN	5175528.9162354	NaN	5175529.8996052	5175530.41616437
116	19	1	0	90	36.1581920903955	36.241610738255	10	0.333366440236568	2	10	4	NaN	2	3	0.245489495646974	1	1	NaN	218	4	29	1	121	221	321	NaN	521	0.272665275260806	1	0	NaN	5175533.8833812	NaN	5175534.8667648	5175535.38330522
116	19	1	0	90	36.1581920903955	36.241610738255	14	0.466713016331196	2	5	3	NaN	1	5	0.245489495646974	1	1	NaN	219	4	30	1	121	221	321	NaN	521	0.215005843900144	1	1	NaN	5175536.9168686	NaN	5175537.900404	5175538.41694576
116	19	1	0	90	36.1581920903955	36.241610738255	0	0	1	4	3	NaN	1	3	0.245489495646974	1	1	NaN	220	4	31	1	111	211	311	NaN	511	0.113009579479694	1	1	NaN	5175539.4504497	NaN	5175540.4339754	5175540.95052442
116	19	1	0	90	36.1581920903955	36.241610738255	9	0.300029796212912	2	7	2	NaN	2	4	0.245489495646974	1	1	NaN	221	4	32	1	121	221	321	NaN	521	0.0104225752875209	2	1	NaN	5175541.8841939	NaN	5175542.8675641	5175543.38410402
116	19	1	0	90	36.1581920903955	36.241610738255	11	0.366703084260225	2	11	5	NaN	2	4	0.245489495646974	1	1	NaN	222	4	33	1	121	221	321	NaN	521	0.193966675549746	2	1	NaN	5175544.6177425	NaN	5175545.6011499	5175546.11769652
116	19	1	0	90	36.1581920903955	36.241610738255	12	0.400039728283882	2	2	2	NaN	1	4	0.245489495646974	1	1	NaN	223	4	34	1	121	221	321	NaN	521	0.238158875145018	1	1	NaN	5175547.5012428	NaN	5175548.4847831	5175549.00131223
116	19	1	0	90	36.1581920903955	36.241610738255	15	0.500049660354853	2	2	5	NaN	1	4	0.245489495646974	1	1	NaN	224	4	35	1	121	221	321	NaN	521	0.0800118753686547	2	0	NaN	5175550.0516274	NaN	5175551.035021	5175551.55156352
116	19	1	0	90	36.1581920903955	36.241610738255	0	0	1	6	5	NaN	1	4	0.245489495646974	1	1	NaN	225	4	36	1	111	211	311	NaN	511	0.208193022757769	2	0	NaN	5175552.4518663	NaN	5175553.4352524	5175553.95180438
116	19	1	0	90	36.1581920903955	36.241610738255	9	0.300029796212912	2	12	3	NaN	2	5	0.245489495646974	1	1	NaN	226	4	37	1	121	221	321	NaN	521	0.214218175038695	1	0	NaN	5175555.0854841	NaN	5175556.0688486	5175556.58538943
116	19	1	0	90	36.1581920903955	36.241610738255	11	0.366703084260225	2	4	3	NaN	1	4	0.245489495646974	1	1	NaN	227	4	38	1	121	221	321	NaN	521	0.181850591674447	1	1	NaN	5175557.8857392	NaN	5175558.8691176	5175559.38566991
116	19	1	0	90	36.1581920903955	36.241610738255	7	0.233356508165598	2	10	3	NaN	2	4	0.245489495646974	1	1	NaN	228	4	39	1	121	221	321	NaN	521	0.313349443487823	2	1	NaN	5175560.6026305	NaN	5175561.5860542	5175562.10261456
116	19	1	0	90	36.1581920903955	36.241610738255	20	0.666732880473137	2	12	6	NaN	2	5	0.245489495646974	1	1	NaN	229	4	40	1	121	221	321	NaN	521	0.227441826835275	2	1	NaN	5175563.7361717	NaN	5175564.7196978	5175565.23624927
116	19	1	0	90	36.1581920903955	36.241610738255	11	0.366703084260225	2	6	6	NaN	1	5	0.245489495646974	1	1	NaN	230	4	41	1	121	221	321	NaN	521	0.197091375477612	1	1	NaN	5175566.2865555	NaN	5175567.2699457	5175567.78649192
116	19	1	0	90	36.1581920903955	36.241610738255	7	0.233356508165598	2	1	3	NaN	1	4	0.245489495646974	1	1	NaN	231	4	42	1	121	221	321	NaN	521	0.909566823393106	1	1	NaN	5175569.0701268	NaN	5175570.0535444	5175570.57009708
116	19	1	0	90	36.1581920903955	36.241610738255	20	0.666732880473137	2	1	5	NaN	1	4	0.245489495646974	1	1	NaN	232	4	43	1	121	221	321	NaN	521	0.32360037509352	1	1	NaN	5175572.7038503	NaN	5175573.6872455	5175574.20378792
116	19	1	0	90	36.1581920903955	36.241610738255	21	0.700069524496794	2	7	4	NaN	2	4	0.245489495646974	1	1	NaN	233	4	44	1	121	221	321	NaN	521	0.114366723224521	1	0	NaN	5175575.3374263	NaN	5175576.3208159	5175576.83738168
116	19	1	0	90	36.1581920903955	36.241610738255	16	0.53338630437851	2	4	5	NaN	1	5	0.245489495646974	1	1	NaN	234	4	45	1	121	221	321	NaN	521	0.319316226989031	1	1	NaN	5175578.2044656	NaN	5175579.1877862	5175579.70433807
116	19	1	0	90	36.1581920903955	36.241610738255	19	0.63339623644948	2	5	4	NaN	1	5	0.245489495646974	1	1	NaN	235	4	46	1	121	221	321	NaN	521	0.279618827626109	1	1	NaN	5175581.1878852	NaN	5175582.1714087	5175582.68796057
116	19	1	0	90	36.1581920903955	36.241610738255	18	0.600059592425823	2	7	1	NaN	2	5	0.245489495646974	1	1	NaN	236	4	47	1	121	221	321	NaN	521	0.223594875074923	1	0	NaN	5175583.788271	NaN	5175584.7716854	5175585.28821133
116	19	1	0	90	36.1581920903955	36.241610738255	13	0.433376372307539	2	11	4	NaN	2	4	0.245489495646974	1	1	NaN	237	4	48	1	121	221	321	NaN	521	0.162103422917426	2	1	NaN	5175586.3218456	NaN	5175587.30526	5175587.82179338
116	19	1	0	90	36.1581920903955	36.241610738255	6	0.200019864141941	2	10	2	NaN	2	5	0.245489495646974	1	1	NaN	238	4	49	1	121	221	321	NaN	521	0.603252874687314	1	0	NaN	5175589.28878	NaN	5175590.2722057	5175590.78875632
116	19	1	0	90	36.1581920903955	36.241610738255	13	0.433376372307539	2	9	4	NaN	2	3	0.245489495646974	1	1	NaN	239	4	50	1	121	221	321	NaN	521	0.0593061754480004	2	1	NaN	5175592.6724466	NaN	5175593.6558778	5175594.17242602
116	19	1	0	90	36.1581920903955	36.241610738255	16	0.53338630437851	2	6	3	NaN	1	5	0.245489495646974	1	1	NaN	240	4	51	1	121	221	321	NaN	521	0.0104080745950341	2	0	NaN	5175595.0393753	NaN	5175596.0227693	5175596.53931583
116	19	1	0	90	36.1581920903955	36.241610738255	19	0.63339623644948	2	9	6	NaN	2	3	0.245489495646974	1	1	NaN	241	4	52	1	121	221	321	NaN	521	0.340110427699983	1	0	NaN	5175598.8396982	NaN	5175599.8231361	5175600.33969887
116	19	1	0	90	36.1581920903955	36.241610738255	16	0.53338630437851	2	5	5	NaN	1	4	0.245489495646974	1	1	NaN	242	4	53	1	121	221	321	NaN	521	0.0104077747091651	1	1	NaN	5175601.4900032	NaN	5175602.4734084	5175602.98995893
116	19	1	0	90	36.1581920903955	36.241610738255	23	0.766742812544107	2	2	3	NaN	1	3	0.245489495646974	1	1	NaN	243	4	54	1	121	221	321	NaN	521	0.010396427474916	2	0	NaN	5175603.806903	NaN	5175604.7903043	5175605.30685037
116	19	1	0	90	36.1581920903955	36.241610738255	24	0.800079456567764	2	5	3	NaN	1	3	0.245489495646974	1	1	NaN	244	4	55	1	121	221	321	NaN	521	0.0104077747091651	1	1	NaN	5175606.5738142	NaN	5175607.5572299	5175608.07379583
116	19	1	0	90	36.1581920903955	36.241610738255	25	0.833416100591421	2	2	2	NaN	1	5	0.245489495646974	1	1	NaN	245	4	56	1	121	221	321	NaN	521	0.25240392703563	1	1	NaN	5175609.2073087	NaN	5175610.1908447	5175610.70738017
116	19	1	0	90	36.1581920903955	36.241610738255	6	0.200019864141941	2	12	6	NaN	2	3	0.245489495646974	1	1	NaN	246	4	57	1	121	221	321	NaN	521	0.226078375242651	1	0	NaN	5175612.057827	NaN	5175613.0411207	5175613.55766402
116	19	1	0	90	36.1581920903955	36.241610738255	21	0.700069524496794	2	5	1	NaN	1	4	0.245489495646974	1	1	NaN	247	4	58	1	121	221	321	NaN	521	0.109002626501024	2	0	NaN	5175614.9746453	NaN	5175615.9580627	5175616.47461097
116	19	1	0	90	36.1581920903955	36.241610738255	8	0.266693152189255	2	6	2	NaN	1	5	0.245489495646974	1	1	NaN	248	4	59	1	121	221	321	NaN	521	0.427586374804378	1	1	NaN	5175618.6083426	NaN	5175619.5917528	5175620.10830153
116	19	1	0	90	36.1581920903955	36.241610738255	7	0.233356508165598	2	12	4	NaN	2	5	0.245489495646974	1	1	NaN	249	4	60	1	121	221	321	NaN	521	0.0896426225081086	1	0	NaN	5175622.0419546	NaN	5175623.0254064	5175623.54197698
116	19	1	0	90	36.1581920903955	36.241610738255	25	0.833416100591421	2	11	3	NaN	2	5	0.245489495646974	1	1	NaN	250	4	61	1	121	221	321	NaN	521	0.310849475674331	2	1	NaN	5175624.9089383	NaN	5175625.8923675	5175626.40891812
116	19	1	0	90	36.1581920903955	36.241610738255	20	0.666732880473137	2	4	4	NaN	1	4	0.245489495646974	1	1	NaN	251	4	62	1	121	221	321	NaN	521	0.42191852349788	2	0	NaN	5175627.5257669	NaN	5175628.5092791	5175629.02584298
116	19	1	0	90	36.1581920903955	36.241610738255	23	0.766742812544107	2	12	6	NaN	2	3	0.245489495646974	1	1	NaN	252	4	63	1	121	221	321	NaN	521	0.432573275640607	2	1	NaN	5175630.259521	NaN	5175631.2429309	5175631.75944612
116	19	1	0	90	36.1581920903955	36.241610738255	15	0.500049660354853	2	12	5	NaN	2	4	0.245489495646974	1	1	NaN	253	5	1	1	121	221	321	NaN	521	0.267320226877928	2	1	NaN	5175689.6485691	NaN	5175690.6320691	5175691.14861977
116	19	1	0	90	36.1581920903955	36.241610738255	6	0.200019864141941	2	4	4	NaN	1	3	0.245489495646974	1	1	NaN	254	5	2	1	121	221	321	NaN	521	0.291639274917543	2	0	NaN	5175692.2322581	NaN	5175693.2157352	5175693.73221243
116	19	1	0	90	36.1581920903955	36.241610738255	20	0.666732880473137	2	4	2	NaN	1	5	0.245489495646974	1	1	NaN	255	5	3	1	121	221	321	NaN	521	0.302356842905283	1	1	NaN	5175698.549442	NaN	5175699.5329633	5175700.04949546
116	19	1	0	90	36.1581920903955	36.241610738255	6	0.200019864141941	2	10	3	NaN	2	4	0.245489495646974	1	1	NaN	256	5	4	1	121	221	321	NaN	521	0.243187391199172	1	0	NaN	5175701.2331303	NaN	5175702.2165464	5175702.73309141
116	19	1	0	90	36.1581920903955	36.241610738255	24	0.800079456567764	2	10	4	NaN	2	4	0.245489495646974	1	1	NaN	257	5	5	1	121	221	321	NaN	521	0.0104214744642377	1	0	NaN	5175703.7834093	NaN	5175704.7667815	5175705.28333753
116	19	1	0	90	36.1581920903955	36.241610738255	13	0.433376372307539	2	7	6	NaN	2	3	0.245489495646974	1	1	NaN	258	5	6	1	121	221	321	NaN	521	0.348255827091634	2	1	NaN	5175709.3838214	NaN	5175710.3673507	5175710.88389577
116	19	1	0	90	36.1581920903955	36.241610738255	24	0.800079456567764	2	9	5	NaN	2	5	0.245489495646974	1	1	NaN	259	5	7	1	121	221	321	NaN	521	0.216386127285659	1	0	NaN	5175712.4675638	NaN	5175713.4509826	5175713.96753337
116	19	1	0	90	36.1581920903955	36.241610738255	23	0.766742812544107	2	2	4	NaN	1	4	0.245489495646974	1	1	NaN	260	5	8	1	121	221	321	NaN	521	0.26480367500335	2	0	NaN	5175715.4511338	NaN	5175716.4346083	5175716.95115552
116	19	1	0	90	36.1581920903955	36.241610738255	23	0.766742812544107	2	7	3	NaN	2	3	0.245489495646974	1	1	NaN	261	5	9	1	121	221	321	NaN	521	0.2137660831213	1	0	NaN	5175718.518159	NaN	5175719.5015546	5175720.01812732
116	19	1	0	90	36.1581920903955	36.241610738255	19	0.63339623644948	2	6	4	NaN	1	3	0.245489495646974	1	1	NaN	262	5	10	1	121	221	321	NaN	521	0.222690074704587	1	1	NaN	5175721.4851061	NaN	5175722.468547	5175722.98508803
116	19	1	0	90	36.1581920903955	36.241610738255	25	0.833416100591421	2	7	2	NaN	2	5	0.245489495646974	1	1	NaN	263	5	11	1	121	221	321	NaN	521	0.289347174577415	2	1	NaN	5175724.018728	NaN	5175725.0021103	5175725.51866073
116	19	1	0	90	36.1581920903955	36.241610738255	12	0.400039728283882	2	12	5	NaN	2	4	0.245489495646974	1	1	NaN	264	5	12	1	121	221	321	NaN	521	0.294896575622261	2	1	NaN	5175727.0690371	NaN	5175728.0524191	5175728.56896252
116	19	1	0	90	36.1581920903955	36.241610738255	8	0.266693152189255	2	10	5	NaN	2	3	0.245489495646974	1	1	NaN	265	5	13	1	121	221	321	NaN	521	0.150663674809039	1	0	NaN	5175729.6692615	NaN	5175730.6526728	5175731.16921572
116	19	1	0	90	36.1581920903955	36.241610738255	20	0.666732880473137	2	5	6	NaN	1	5	0.245489495646974	1	1	NaN	266	5	14	1	121	221	321	NaN	521	0.255617270246148	1	1	NaN	5175732.4361883	NaN	5175733.4196093	5175733.93615663
116	19	1	0	90	36.1581920903955	36.241610738255	10	0.333366440236568	2	11	3	NaN	2	4	0.245489495646974	1	1	NaN	267	5	15	1	121	221	321	NaN	521	0.248662674799562	1	0	NaN	5175735.0031393	NaN	5175735.9865284	5175736.50307322
116	19	1	0	90	36.1581920903955	36.241610738255	22	0.733406168520451	2	6	2	NaN	1	5	0.245489495646974	1	1	NaN	268	5	16	1	121	221	321	NaN	521	0.247947426512837	1	1	NaN	5175737.8200921	NaN	5175738.8034718	5175739.32002007
116	19	1	0	90	36.1581920903955	36.241610738255	0	0	1	1	6	NaN	1	3	0.245489495646974	1	1	NaN	269	5	17	1	111	211	311	NaN	511	0.272951975464821	1	1	NaN	5175740.387001	NaN	5175741.3703898	5175741.88693872
116	19	1	0	90	36.1581920903955	36.241610738255	17	0.566722948402166	2	10	2	NaN	2	4	0.245489495646974	1	1	NaN	270	5	18	1	121	221	321	NaN	521	0.190979626961052	1	0	NaN	5175743.4372623	NaN	5175744.4207464	5175744.93724367
116	19	1	0	90	36.1581920903955	36.241610738255	9	0.300029796212912	2	11	3	NaN	2	5	0.245489495646974	1	1	NaN	271	5	19	1	121	221	321	NaN	521	0.234627070836723	2	1	NaN	5175746.5374633	NaN	5175747.5210077	5175748.03753843
116	19	1	0	90	36.1581920903955	36.241610738255	9	0.300029796212912	2	3	3	NaN	1	4	0.245489495646974	1	1	NaN	272	5	20	1	121	221	321	NaN	521	0.203992922790349	1	1	NaN	5175749.4878577	NaN	5175750.4713256	5175750.98783218
116	19	1	0	90	36.1581920903955	36.241610738255	14	0.466713016331196	2	4	5	NaN	1	5	0.245489495646974	1	1	NaN	273	5	21	1	121	221	321	NaN	521	0.22321867570281	1	1	NaN	5175752.004807	NaN	5175752.9881975	5175753.50474282
116	19	1	0	90	36.1581920903955	36.241610738255	13	0.433376372307539	2	5	2	NaN	1	4	0.245489495646974	1	1	NaN	274	5	22	1	121	221	321	NaN	521	0.256891375407577	2	0	NaN	5175756.1552276	NaN	5175757.1386554	5175757.65515732
116	19	1	0	90	36.1581920903955	36.241610738255	15	0.500049660354853	2	5	3	NaN	1	3	0.245489495646974	1	1	NaN	275	5	23	1	121	221	321	NaN	521	0.265205175615847	1	1	NaN	5175759.1388031	NaN	5175760.1222284	5175760.63877602
116	19	1	0	90	36.1581920903955	36.241610738255	16	0.53338630437851	2	3	6	NaN	1	5	0.245489495646974	1	1	NaN	276	5	24	1	121	221	321	NaN	521	0.249760922975838	1	1	NaN	5175761.7224173	NaN	5175762.7058486	5175763.22237008
116	19	1	0	90	36.1581920903955	36.241610738255	16	0.53338630437851	2	6	3	NaN	1	4	0.245489495646974	1	1	NaN	277	5	25	1	121	221	321	NaN	521	0.295265775173903	1	1	NaN	5175764.772692	NaN	5175765.7561438	5175766.27267083
116	19	1	0	90	36.1581920903955	36.241610738255	11	0.366703084260225	2	3	5	NaN	1	3	0.245489495646974	1	1	NaN	278	5	26	1	121	221	321	NaN	521	0.342654574662447	1	1	NaN	5175767.3896651	NaN	5175768.3730354	5175768.88959693
116	19	1	0	90	36.1581920903955	36.241610738255	20	0.666732880473137	2	7	3	NaN	2	5	0.245489495646974	1	1	NaN	279	5	27	1	121	221	321	NaN	521	0.271348127163947	1	0	NaN	5175770.55663	NaN	5175771.5400234	5175772.05657937
116	19	1	0	90	36.1581920903955	36.241610738255	15	0.500049660354853	2	8	1	NaN	2	5	0.245489495646974	1	1	NaN	280	5	28	1	121	221	321	NaN	521	0.855887927114964	1	0	NaN	5175773.1401742	NaN	5175774.1236056	5175774.64016297
116	19	1	0	90	36.1581920903955	36.241610738255	12	0.400039728283882	2	10	6	NaN	2	5	0.245489495646974	1	1	NaN	281	5	29	1	121	221	321	NaN	521	0.269739627838135	1	0	NaN	5175776.5905833	NaN	5175777.5740483	5175778.09050487
116	19	1	0	90	36.1581920903955	36.241610738255	12	0.400039728283882	2	1	5	NaN	1	4	0.245489495646974	1	1	NaN	282	5	30	1	121	221	321	NaN	521	0.232553974725306	1	1	NaN	5175779.5075097	NaN	5175780.4909073	5175781.00744942
116	19	1	0	90	36.1581920903955	36.241610738255	18	0.600059592425823	2	8	1	NaN	2	3	0.245489495646974	1	1	NaN	283	5	31	1	121	221	321	NaN	521	0.274190427735448	1	0	NaN	5175782.0577637	NaN	5175783.0411157	5175783.55770937
116	19	1	0	90	36.1581920903955	36.241610738255	0	0	1	11	6	NaN	2	5	0.245489495646974	1	1	NaN	284	5	32	1	111	211	311	NaN	511	0.250653075054288	2	1	NaN	5175784.6413606	NaN	5175785.6247223	5175786.14129412
116	19	1	0	90	36.1581920903955	36.241610738255	14	0.466713016331196	2	4	3	NaN	1	5	0.245489495646974	1	1	NaN	285	5	33	1	121	221	321	NaN	521	0.291785527952015	2	0	NaN	5175787.6083451	NaN	5175788.5917301	5175789.10825617
116	19	1	0	90	36.1581920903955	36.241610738255	25	0.833416100591421	2	3	3	NaN	1	3	0.245489495646974	1	1	NaN	286	5	34	1	121	221	321	NaN	521	0.267672143876553	1	1	NaN	5175790.2085639	NaN	5175791.1919606	5175791.70851296
116	19	1	0	90	36.1581920903955	36.241610738255	21	0.700069524496794	2	2	3	NaN	1	5	0.245489495646974	1	1	NaN	287	5	35	1	121	221	321	NaN	521	0.316151975654066	1	1	NaN	5175792.792179	NaN	5175793.7755426	5175794.29208682
116	19	1	0	90	36.1581920903955	36.241610738255	7	0.233356508165598	2	10	6	NaN	2	3	0.245489495646974	1	1	NaN	288	5	36	1	121	221	321	NaN	521	0.426062774844468	1	0	NaN	5175795.8424626	NaN	5175796.8258542	5175797.34239003
116	19	1	0	90	36.1581920903955	36.241610738255	7	0.233356508165598	2	8	1	NaN	2	4	0.245489495646974	1	1	NaN	289	5	37	1	121	221	321	NaN	521	0.424822374247015	1	0	NaN	5175798.6593694	NaN	5175799.6427848	5175800.15933563
116	19	1	0	90	36.1581920903955	36.241610738255	0	0	1	12	5	NaN	2	3	0.245489495646974	1	1	NaN	290	5	38	1	111	211	311	NaN	511	0.234007722698152	2	1	NaN	5175801.8263413	NaN	5175802.8097543	5175803.32631078
116	19	1	0	90	36.1581920903955	36.241610738255	19	0.63339623644948	2	8	1	NaN	2	5	0.245489495646974	1	1	NaN	291	5	39	1	121	221	321	NaN	521	0.259585615247488	1	0	NaN	5175804.3766044	NaN	5175805.3600152	5175805.87655338
116	19	1	0	90	36.1581920903955	36.241610738255	17	0.566722948402166	2	10	3	NaN	2	3	0.245489495646974	1	1	NaN	292	5	40	1	121	221	321	NaN	521	0.246811723336577	2	1	NaN	5175807.293525	NaN	5175808.2769896	5175808.79351828
116	19	1	0	90	36.1581920903955	36.241610738255	8	0.266693152189255	2	2	2	NaN	1	5	0.245489495646974	1	1	NaN	293	5	41	1	121	221	321	NaN	521	0.263491527177393	2	0	NaN	5175809.8604984	NaN	5175810.8438846	5175811.36044297
116	19	1	0	90	36.1581920903955	36.241610738255	18	0.600059592425823	2	12	5	NaN	2	5	0.245489495646974	1	1	NaN	294	5	42	1	121	221	321	NaN	521	0.246985427103937	2	1	NaN	5175812.8774423	NaN	5175813.8608439	5175814.37740537
116	19	1	0	90	36.1581920903955	36.241610738255	7	0.233356508165598	2	6	6	NaN	1	4	0.245489495646974	1	1	NaN	295	5	43	1	121	221	321	NaN	521	0.271770026534796	2	0	NaN	5175815.4444528	NaN	5175816.4277706	5175816.94432097
116	19	1	0	90	36.1581920903955	36.241610738255	10	0.333366440236568	2	3	5	NaN	1	4	0.245489495646974	1	1	NaN	296	5	44	1	121	221	321	NaN	521	0.255482266657054	1	1	NaN	5175818.4446391	NaN	5175819.4280694	5175819.94461893
116	19	1	0	90	36.1581920903955	36.241610738255	9	0.300029796212912	2	9	2	NaN	2	3	0.245489495646974	1	1	NaN	297	5	45	1	121	221	321	NaN	521	0.112559227272868	1	0	NaN	5175821.0115988	NaN	5175821.9950297	5175822.51153777
116	19	1	0	90	36.1581920903955	36.241610738255	14	0.466713016331196	2	10	5	NaN	2	4	0.245489495646974	1	1	NaN	298	5	46	1	121	221	321	NaN	521	0.258895335718989	1	0	NaN	5175823.9451642	NaN	5175824.9286081	5175825.44515206
116	19	1	0	90	36.1581920903955	36.241610738255	15	0.500049660354853	2	7	5	NaN	2	5	0.245489495646974	1	1	NaN	299	5	47	1	121	221	321	NaN	521	0.24777527526021	1	0	NaN	5175829.4123598	NaN	5175830.395806	5175830.91235163
116	19	1	0	90	36.1581920903955	36.241610738255	0	0	1	5	2	NaN	1	3	0.245489495646974	1	1	NaN	300	5	48	1	111	211	311	NaN	511	0.229272026568651	1	1	NaN	5175834.0628408	NaN	5175835.0462653	5175835.56283457
116	19	1	0	90	36.1581920903955	36.241610738255	15	0.500049660354853	2	4	6	NaN	1	5	0.245489495646974	1	1	NaN	301	5	49	1	121	221	321	NaN	521	0.198138074949384	1	1	NaN	5175838.0299274	NaN	5175839.0133126	5175839.52986872
116	19	1	0	90	36.1581920903955	36.241610738255	18	0.600059592425823	2	11	2	NaN	2	3	0.245489495646974	1	1	NaN	302	5	50	1	121	221	321	NaN	521	0.287055427208543	2	1	NaN	5175841.9968523	NaN	5175842.9803851	5175843.49693347
116	19	1	0	90	36.1581920903955	36.241610738255	23	0.766742812544107	2	3	2	NaN	1	5	0.245489495646974	1	1	NaN	303	5	51	1	121	221	321	NaN	521	0.0104115754365921	1	1	NaN	5175845.0306227	NaN	5175846.0140207	5175846.53055932
116	19	1	0	90	36.1581920903955	36.241610738255	20	0.666732880473137	2	2	4	NaN	1	3	0.245489495646974	1	1	NaN	304	5	52	1	121	221	321	NaN	521	0.399896275252104	1	1	NaN	5175847.3641177	NaN	5175848.3476024	5175848.86412742
116	19	1	0	90	36.1581920903955	36.241610738255	18	0.600059592425823	2	5	4	NaN	1	3	0.245489495646974	1	1	NaN	305	5	53	1	121	221	321	NaN	521	0.27020457573235	1	1	NaN	5175850.1977563	NaN	5175851.1811851	5175851.69772972
116	19	1	0	90	36.1581920903955	36.241610738255	7	0.233356508165598	2	6	2	NaN	1	5	0.245489495646974	1	1	NaN	306	5	54	1	121	221	321	NaN	521	0.680036074481905	1	1	NaN	5175898.052383	NaN	5175899.0359979	5175899.55244393
116	19	1	0	90	36.1581920903955	36.241610738255	22	0.733406168520451	2	12	1	NaN	2	4	0.245489495646974	1	1	NaN	307	5	55	1	121	221	321	NaN	521	0.319886239245534	2	1	NaN	5175901.0527995	NaN	5175902.0362008	5175902.55273466
116	19	1	0	90	36.1581920903955	36.241610738255	24	0.800079456567764	2	11	5	NaN	2	5	0.245489495646974	1	1	NaN	308	5	56	1	121	221	321	NaN	521	0.272683974355459	1	0	NaN	5175904.2197376	NaN	5175905.2031825	5175905.71970673
116	19	1	0	90	36.1581920903955	36.241610738255	10	0.333366440236568	2	5	3	NaN	1	3	0.245489495646974	1	1	NaN	309	5	57	1	121	221	321	NaN	521	0.249282222241163	1	1	NaN	5175906.8032222	NaN	5175907.7867944	5175908.30329788
116	19	1	0	90	36.1581920903955	36.241610738255	8	0.266693152189255	2	9	3	NaN	2	4	0.245489495646974	1	1	NaN	310	5	58	1	121	221	321	NaN	521	0.234005927108228	1	0	NaN	5175909.3702779	NaN	5175910.3536802	5175910.87022417
116	19	1	0	90	36.1581920903955	36.241610738255	13	0.433376372307539	2	1	4	NaN	1	5	0.245489495646974	1	1	NaN	311	5	59	1	121	221	321	NaN	521	0.241398327052593	1	1	NaN	5175912.3871168	NaN	5175913.3705496	5175913.88718417
116	19	1	0	90	36.1581920903955	36.241610738255	9	0.300029796212912	2	4	1	NaN	1	3	0.245489495646974	1	1	NaN	312	5	60	1	121	221	321	NaN	521	0.234002522192895	1	1	NaN	5175914.9541006	NaN	5175915.9375458	5175916.45409648
116	19	1	0	90	36.1581920903955	36.241610738255	17	0.566722948402166	2	8	3	NaN	2	3	0.245489495646974	1	1	NaN	313	5	61	1	121	221	321	NaN	521	0.225906674750149	2	1	NaN	5175917.9544263	NaN	5175918.9378521	5175919.45439343
116	19	1	0	90	36.1581920903955	36.241610738255	0	0	1	7	6	NaN	2	5	0.245489495646974	1	1	NaN	314	5	62	1	111	211	311	NaN	511	0.276414426974952	1	0	NaN	5175920.4879308	NaN	5175921.4715059	5175921.98797247
116	19	1	0	90	36.1581920903955	36.241610738255	20	0.666732880473137	2	10	6	NaN	2	3	0.245489495646974	1	1	NaN	315	5	63	1	121	221	321	NaN	521	0.172757526859641	1	0	NaN	5175923.0716342	NaN	5175924.0550298	5175924.57156267
116	19	1	0	90	36.1581920903955	36.241610738255	10	0.333366440236568	2	7	5	NaN	2	3	0.245489495646974	1	1	NaN	316	6	1	1	121	221	321	NaN	521	0.224063714966178	1	0	NaN	5175927.9720951	NaN	5175928.9555081	5175929.47204468
116	19	1	0	90	36.1581920903955	36.241610738255	24	0.800079456567764	2	2	5	NaN	1	5	0.245489495646974	1	1	NaN	317	6	2	1	121	221	321	NaN	521	0.154976222664118	1	1	NaN	5175930.5056847	NaN	5175931.489096	5175932.00562898
116	19	1	0	90	36.1581920903955	36.241610738255	14	0.466713016331196	2	12	1	NaN	2	4	0.245489495646974	1	1	NaN	318	6	3	1	121	221	321	NaN	521	0.0104077756404877	2	1	NaN	5175932.9892663	NaN	5175933.9726715	5175934.48920092
116	19	1	0	90	36.1581920903955	36.241610738255	22	0.733406168520451	2	1	5	NaN	1	4	0.245489495646974	1	1	NaN	319	6	4	1	121	221	321	NaN	521	0.128433775156736	1	1	NaN	5175935.5561753	NaN	5175936.5395994	5175937.05612983
116	19	1	0	90	36.1581920903955	36.241610738255	19	0.63339623644948	2	4	2	NaN	1	4	0.245489495646974	1	1	NaN	320	6	5	1	121	221	321	NaN	521	0.163874675519764	1	1	NaN	5175938.4564606	NaN	5175939.4398853	5175939.95640482
116	19	1	0	90	36.1581920903955	36.241610738255	7	0.233356508165598	2	7	4	NaN	2	3	0.245489495646974	1	1	NaN	321	6	6	1	121	221	321	NaN	521	0.176359871402383	1	0	NaN	5175941.3401392	NaN	5175942.3235028	5175942.84002883
116	19	1	0	90	36.1581920903955	36.241610738255	14	0.466713016331196	2	11	3	NaN	2	5	0.245489495646974	1	1	NaN	322	6	7	1	121	221	321	NaN	521	0.324345227330923	2	1	NaN	5175943.8403285	NaN	5175944.8237379	5175945.34027847
116	19	1	0	90	36.1581920903955	36.241610738255	8	0.266693152189255	2	3	2	NaN	1	4	0.245489495646974	1	1	NaN	323	6	8	1	121	221	321	NaN	521	0.0104102753102779	1	1	NaN	5175946.9905099	NaN	5175947.9740792	5175948.49058762
116	19	1	0	90	36.1581920903955	36.241610738255	16	0.53338630437851	2	9	4	NaN	2	5	0.245489495646974	1	1	NaN	324	6	9	1	121	221	321	NaN	521	0.216414326801896	1	0	NaN	5175949.3242088	NaN	5175950.3076101	5175950.82414797
116	19	1	0	90	36.1581920903955	36.241610738255	22	0.733406168520451	2	11	4	NaN	2	4	0.245489495646974	1	1	NaN	325	6	10	1	121	221	321	NaN	521	0.152445322833955	1	0	NaN	5175952.3078207	NaN	5175953.2912558	5175953.80776598
116	19	1	0	90	36.1581920903955	36.241610738255	14	0.466713016331196	2	3	3	NaN	1	5	0.245489495646974	1	1	NaN	326	6	11	1	121	221	321	NaN	521	0.957842075265944	1	1	NaN	5175954.7748098	NaN	5175955.7581418	5175956.27467532
116	19	1	0	90	36.1581920903955	36.241610738255	23	0.766742812544107	2	6	3	NaN	1	5	0.245489495646974	1	1	NaN	327	6	12	1	121	221	321	NaN	521	3.49783688317984	1	1	NaN	5175958.0583258	NaN	5175959.0418213	5175959.55834332
116	19	1	0	90	36.1581920903955	36.241610738255	11	0.366703084260225	2	3	6	NaN	1	3	0.245489495646974	1	1	NaN	328	6	13	1	121	221	321	NaN	521	0.192945427261293	1	1	NaN	5175963.8756417	NaN	5175964.859057	5175965.37558047
116	19	1	0	90	36.1581920903955	36.241610738255	9	0.300029796212912	2	2	6	NaN	1	5	0.245489495646974	1	1	NaN	329	6	14	1	121	221	321	NaN	521	0.164411122910678	1	1	NaN	5175966.3757469	NaN	5175967.3592864	5175967.87581258
116	19	1	0	90	36.1581920903955	36.241610738255	23	0.766742812544107	2	1	4	NaN	1	3	0.245489495646974	1	1	NaN	330	6	15	1	121	221	321	NaN	521	0.204836175777018	1	1	NaN	5175969.1594393	NaN	5175970.1428777	5175970.65943072
116	19	1	0	90	36.1581920903955	36.241610738255	21	0.700069524496794	2	1	4	NaN	1	4	0.245489495646974	1	1	NaN	331	6	16	1	121	221	321	NaN	521	0.399543531239033	1	1	NaN	5175971.6930964	NaN	5175972.67649	5175973.19300707
116	19	1	0	90	36.1581920903955	36.241610738255	6	0.200019864141941	2	3	4	NaN	1	3	0.245489495646974	1	1	NaN	332	6	17	1	121	221	321	NaN	521	1.97034937515855	1	1	NaN	5175974.4100172	NaN	5175975.3934134	5175975.90993842
116	19	1	0	90	36.1581920903955	36.241610738255	17	0.566722948402166	2	3	2	NaN	1	3	0.245489495646974	1	1	NaN	333	6	18	1	121	221	321	NaN	521	0.737110674381256	1	1	NaN	5175979.227127	NaN	5175980.2106048	5175980.72709163
116	19	1	0	90	36.1581920903955	36.241610738255	19	0.63339623644948	2	2	6	NaN	1	3	0.245489495646974	1	1	NaN	334	6	19	1	121	221	321	NaN	521	0.718793827109039	1	1	NaN	5175982.2774538	NaN	5175983.2608781	5175983.77741207
116	19	1	0	90	36.1581920903955	36.241610738255	16	0.53338630437851	2	1	4	NaN	1	5	0.245489495646974	1	1	NaN	335	6	20	1	121	221	321	NaN	521	0.0526927271857858	1	1	NaN	5175985.3278345	NaN	5175986.3111206	5175986.82768497
116	19	1	0	90	36.1581920903955	36.241610738255	22	0.733406168520451	2	11	1	NaN	2	3	0.245489495646974	1	1	NaN	336	6	21	1	121	221	321	NaN	521	0.254938675090671	2	1	NaN	5175988.2614228	NaN	5175989.2447703	5175989.76130472
116	19	1	0	90	36.1581920903955	36.241610738255	20	0.666732880473137	2	2	1	NaN	1	4	0.245489495646974	1	1	NaN	337	6	22	1	121	221	321	NaN	521	0.19952152762562	1	1	NaN	5175990.8448192	NaN	5175991.828359	5175992.34489157
116	19	1	0	90	36.1581920903955	36.241610738255	21	0.700069524496794	2	1	1	NaN	1	3	0.245489495646974	1	1	NaN	338	6	23	1	121	221	321	NaN	521	0.288206274621189	2	0	NaN	5175993.828563	NaN	5175994.812019	5175995.32852003
116	19	1	0	90	36.1581920903955	36.241610738255	7	0.233356508165598	2	2	2	NaN	1	5	0.245489495646974	1	1	NaN	339	6	24	1	121	221	321	NaN	521	0.926809223368764	1	1	NaN	5175996.4453742	NaN	5175997.42892	5175997.94543968
116	19	1	0	90	36.1581920903955	36.241610738255	20	0.666732880473137	2	9	2	NaN	2	5	0.245489495646974	1	1	NaN	340	6	25	1	121	221	321	NaN	521	0.308167526498437	1	0	NaN	5176000.1125136	NaN	5176001.0959326	5176001.61247717
116	19	1	0	90	36.1581920903955	36.241610738255	11	0.366703084260225	2	9	5	NaN	2	3	0.245489495646974	1	1	NaN	341	6	26	1	121	221	321	NaN	521	0.378729023039341	1	0	NaN	5176002.7461818	NaN	5176003.7295304	5176004.24605698
116	19	1	0	90	36.1581920903955	36.241610738255	18	0.600059592425823	2	9	3	NaN	2	5	0.245489495646974	1	1	NaN	342	6	27	1	121	221	321	NaN	521	0.230339827015996	1	0	NaN	5176005.4463889	NaN	5176006.4297989	5176006.94632227
116	19	1	0	90	36.1581920903955	36.241610738255	18	0.600059592425823	2	10	2	NaN	2	3	0.245489495646974	1	1	NaN	343	6	28	1	121	221	321	NaN	521	0.160134943202138	2	1	NaN	5176007.9966822	NaN	5176008.9800677	5176009.49658946
116	19	1	0	90	36.1581920903955	36.241610738255	8	0.266693152189255	2	6	6	NaN	1	3	0.245489495646974	1	1	NaN	344	6	29	1	121	221	321	NaN	521	0.132770175114274	1	1	NaN	5176010.4635464	NaN	5176011.4469458	5176011.96347933
116	19	1	0	90	36.1581920903955	36.241610738255	9	0.300029796212912	2	10	1	NaN	2	3	0.245489495646974	1	1	NaN	345	6	30	1	121	221	321	NaN	521	0.250997574999928	2	1	NaN	5176012.913811	NaN	5176013.8972042	5176014.41373063
116	19	1	0	90	36.1581920903955	36.241610738255	15	0.500049660354853	2	10	6	NaN	2	4	0.245489495646974	1	1	NaN	346	6	31	1	121	221	321	NaN	521	0.124000575393438	1	0	NaN	5176015.4807019	NaN	5176016.4641504	5176016.98064362
116	19	1	0	90	36.1581920903955	36.241610738255	21	0.700069524496794	2	10	3	NaN	2	4	0.245489495646974	1	1	NaN	347	6	32	1	121	221	321	NaN	521	0.153613327071071	2	1	NaN	5176017.9309954	NaN	5176018.9143724	5176019.43088937
116	19	1	0	90	36.1581920903955	36.241610738255	22	0.733406168520451	2	7	1	NaN	2	4	0.245489495646974	1	1	NaN	348	6	33	1	121	221	321	NaN	521	0.334514026530087	2	1	NaN	5176020.397755	NaN	5176021.3812601	5176021.89780327
116	19	1	0	90	36.1581920903955	36.241610738255	22	0.733406168520451	2	4	3	NaN	1	3	0.245489495646974	1	1	NaN	349	6	34	1	121	221	321	NaN	521	0.348209875635803	1	1	NaN	5176023.4482206	NaN	5176024.4315947	5176024.94809822
116	19	1	0	90	36.1581920903955	36.241610738255	13	0.433376372307539	2	2	6	NaN	1	4	0.245489495646974	1	1	NaN	350	6	35	1	121	221	321	NaN	521	0.0104266749694943	2	0	NaN	5176026.3484041	NaN	5176027.3318164	5176027.84838943
116	19	1	0	90	36.1581920903955	36.241610738255	19	0.63339623644948	2	8	3	NaN	2	5	0.245489495646974	1	1	NaN	351	6	36	1	121	221	321	NaN	521	0.011689075268805	1	0	NaN	5176029.6486454	NaN	5176030.632167	5176031.14870882
116	19	1	0	90	36.1581920903955	36.241610738255	7	0.233356508165598	2	5	1	NaN	1	5	0.245489495646974	1	1	NaN	352	6	37	1	121	221	321	NaN	521	2.20052112732083	1	1	NaN	5176033.3157738	NaN	5176034.2991713	5176034.81573967
116	19	1	0	90	36.1581920903955	36.241610738255	9	0.300029796212912	2	8	6	NaN	2	3	0.245489495646974	1	1	NaN	353	6	38	1	121	221	321	NaN	521	0.15351402759552	1	0	NaN	5176038.2829434	NaN	5176039.2663428	5176039.78288377
116	19	1	0	90	36.1581920903955	36.241610738255	11	0.366703084260225	2	10	3	NaN	2	4	0.245489495646974	1	1	NaN	354	6	39	1	121	221	321	NaN	521	2.83647322654724	2	1	NaN	5176041.1997812	NaN	5176042.1833047	5176042.69984687
116	19	1	0	90	36.1581920903955	36.241610738255	15	0.500049660354853	2	10	1	NaN	2	3	0.245489495646974	1	1	NaN	355	6	40	1	121	221	321	NaN	521	0.266298067755997	2	1	NaN	5176046.8504567	NaN	5176047.8338628	5176048.35039383
116	19	1	0	90	36.1581920903955	36.241610738255	21	0.700069524496794	2	5	4	NaN	1	4	0.245489495646974	1	1	NaN	356	6	41	1	121	221	321	NaN	521	0.168966491706669	2	0	NaN	5176049.8674426	NaN	5176050.8508063	5176051.36736221
116	19	1	0	90	36.1581920903955	36.241610738255	10	0.333366440236568	2	12	4	NaN	2	3	0.245489495646974	1	1	NaN	357	6	42	1	121	221	321	NaN	521	0.0855213711038232	2	1	NaN	5176052.350873	NaN	5176053.3344092	5176053.85093373
116	19	1	0	90	36.1581920903955	36.241610738255	10	0.333366440236568	2	2	3	NaN	1	5	0.245489495646974	1	1	NaN	358	6	43	1	121	221	321	NaN	521	0.245142474770546	2	0	NaN	5176054.7513006	NaN	5176055.7346456	5176056.25116422
116	19	1	0	90	36.1581920903955	36.241610738255	11	0.366703084260225	2	7	2	NaN	2	5	0.245489495646974	1	1	NaN	359	6	44	1	121	221	321	NaN	521	0.0223350916057825	2	1	NaN	5176057.3181343	NaN	5176058.3015921	5176058.81809571
116	19	1	0	90	36.1581920903955	36.241610738255	18	0.600059592425823	2	8	2	NaN	2	4	0.245489495646974	1	1	NaN	360	6	45	1	121	221	321	NaN	521	0.0103637836873531	1	0	NaN	5176060.068413	NaN	5176061.0518074	5176061.56836492
116	19	1	0	90	36.1581920903955	36.241610738255	15	0.500049660354853	2	2	5	NaN	1	4	0.245489495646974	1	1	NaN	361	6	46	1	121	221	321	NaN	521	0.139127126894891	1	1	NaN	5176062.3853113	NaN	5176063.3687522	5176063.88525467
116	19	1	0	90	36.1581920903955	36.241610738255	7	0.233356508165598	2	11	4	NaN	2	5	0.245489495646974	1	1	NaN	362	6	47	1	121	221	321	NaN	521	0.16076722741127	1	0	NaN	5176064.8355714	NaN	5176065.8189638	5176066.33550267
116	19	1	0	90	36.1581920903955	36.241610738255	14	0.466713016331196	2	2	4	NaN	1	5	0.245489495646974	1	1	NaN	363	6	48	1	121	221	321	NaN	521	0.134013327769935	1	1	NaN	5176067.3024856	NaN	5176068.2858674	5176068.80240367
116	19	1	0	90	36.1581920903955	36.241610738255	13	0.433376372307539	2	10	1	NaN	2	5	0.245489495646974	1	1	NaN	364	6	49	1	121	221	321	NaN	521	0.0104166753590107	2	1	NaN	5176070.1860759	NaN	5176071.1694604	5176071.68602012
116	19	1	0	90	36.1581920903955	36.241610738255	22	0.733406168520451	2	9	6	NaN	2	5	0.245489495646974	1	1	NaN	365	6	50	1	121	221	321	NaN	521	0.0104532791301608	2	1	NaN	5176072.502848	NaN	5176073.4863879	5176074.00292582
116	19	1	0	90	36.1581920903955	36.241610738255	8	0.266693152189255	2	11	5	NaN	2	4	0.245489495646974	1	1	NaN	366	6	51	1	121	221	321	NaN	521	0.713917467743158	2	1	NaN	5176114.0904805	NaN	5176115.0737872	5176115.59035593
116	19	1	0	90	36.1581920903955	36.241610738255	21	0.700069524496794	2	6	1	NaN	1	3	0.245489495646974	1	1	NaN	367	6	52	1	121	221	321	NaN	521	0.141818426549435	2	0	NaN	5176117.5907388	NaN	5176118.5741809	5176119.09069047
116	19	1	0	90	36.1581920903955	36.241610738255	11	0.366703084260225	2	1	2	NaN	1	4	0.245489495646974	1	1	NaN	368	6	53	1	121	221	321	NaN	521	0.0104781752452254	2	0	NaN	5176120.0576547	NaN	5176121.0410715	5176121.55758533
116	19	1	0	90	36.1581920903955	36.241610738255	14	0.466713016331196	2	11	2	NaN	2	5	0.245489495646974	1	1	NaN	369	6	54	1	121	221	321	NaN	521	0.288991174660623	2	1	NaN	5176122.5079087	NaN	5176123.4912976	5176124.00784053
116	19	1	0	90	36.1581920903955	36.241610738255	14	0.466713016331196	2	8	4	NaN	2	4	0.245489495646974	1	1	NaN	370	6	55	1	121	221	321	NaN	521	0.116189836524427	2	1	NaN	5176125.808217	NaN	5176126.7915585	5176127.30816806
116	19	1	0	90	36.1581920903955	36.241610738255	25	0.833416100591421	2	10	1	NaN	2	5	0.245489495646974	1	1	NaN	371	6	56	1	121	221	321	NaN	521	0.202310191467404	2	1	NaN	5176128.6584581	NaN	5176129.641888	5176130.15845541
116	19	1	0	90	36.1581920903955	36.241610738255	18	0.600059592425823	2	1	1	NaN	1	5	0.245489495646974	1	1	NaN	372	6	57	1	121	221	321	NaN	521	0.337093875743449	1	1	NaN	5176131.6755427	NaN	5176132.6588828	5176133.17539702
116	19	1	0	90	36.1581920903955	36.241610738255	13	0.433376372307539	2	10	2	NaN	2	4	0.245489495646974	1	1	NaN	373	6	58	1	121	221	321	NaN	521	0.243551031686366	1	0	NaN	5176134.8090987	NaN	5176135.7925098	5176136.30903737
116	19	1	0	90	36.1581920903955	36.241610738255	8	0.266693152189255	2	7	3	NaN	2	5	0.245489495646974	1	1	NaN	374	6	59	1	121	221	321	NaN	521	0.0964038744568825	1	0	NaN	5176137.8760426	NaN	5176138.8595088	5176139.37602253
116	19	1	0	90	36.1581920903955	36.241610738255	24	0.800079456567764	2	8	3	NaN	2	3	0.245489495646974	1	1	NaN	375	6	60	1	121	221	321	NaN	521	0.0689356755465269	2	1	NaN	5176140.7597069	NaN	5176141.7429913	5176142.25963152
116	19	1	0	90	36.1581920903955	36.241610738255	12	0.400039728283882	2	3	4	NaN	1	3	0.245489495646974	1	1	NaN	376	6	61	1	121	221	321	NaN	521	0.172666574828327	1	1	NaN	5176143.1597905	NaN	5176144.1433489	5176144.65986613
116	19	1	0	90	36.1581920903955	36.241610738255	23	0.766742812544107	2	12	2	NaN	2	4	0.245489495646974	1	1	NaN	377	6	62	1	121	221	321	NaN	521	0.392762515693903	1	0	NaN	5176145.6601437	NaN	5176146.6435808	5176147.16010338
116	19	1	0	90	36.1581920903955	36.241610738255	0	0	1	4	5	NaN	1	3	0.245489495646974	1	1	NaN	378	6	63	1	111	211	311	NaN	511	0.265546274371445	1	1	NaN	5176148.8270282	NaN	5176149.8105548	5176150.32708163
116	19	1	0	90	36.1581920903955	36.241610738255	18	0.600059592425823	2	9	6	NaN	2	4	0.245489495646974	1	1	NaN	379	7	1	1	121	221	321	NaN	521	0.240282744169235	2	1	NaN	5176153.8442941	NaN	5176154.8277176	5176155.34425106
116	19	1	0	90	36.1581920903955	36.241610738255	25	0.833416100591421	2	1	1	NaN	1	5	0.245489495646974	1	1	NaN	380	7	2	1	121	221	321	NaN	521	0.193247127346694	1	1	NaN	5176156.4112108	NaN	5176157.3946234	5176157.91116987
116	19	1	0	90	36.1581920903955	36.241610738255	20	0.666732880473137	2	3	3	NaN	1	4	0.245489495646974	1	1	NaN	381	7	3	1	121	221	321	NaN	521	0.300535626709461	1	1	NaN	5176158.9280409	NaN	5176159.9115458	5176160.42808287
116	19	1	0	90	36.1581920903955	36.241610738255	23	0.766742812544107	2	6	6	NaN	1	4	0.245489495646974	1	1	NaN	382	7	4	1	121	221	321	NaN	521	0.595387788489461	1	1	NaN	5176161.5450659	NaN	5176162.5284574	5176163.04501111
116	19	1	0	90	36.1581920903955	36.241610738255	15	0.500049660354853	2	7	6	NaN	2	4	0.245489495646974	1	1	NaN	383	7	5	1	121	221	321	NaN	521	0.510557436384261	1	0	NaN	5176164.4619371	NaN	5176165.4454181	5176165.96196686
116	19	1	0	90	36.1581920903955	36.241610738255	6	0.200019864141941	2	2	1	NaN	1	5	0.245489495646974	1	1	NaN	384	7	6	1	121	221	321	NaN	521	0.32471202686429	1	1	NaN	5176167.2956177	NaN	5176168.2790348	5176168.79556847
116	19	1	0	90	36.1581920903955	36.241610738255	10	0.333366440236568	2	5	6	NaN	1	5	0.245489495646974	1	1	NaN	385	7	7	1	121	221	321	NaN	521	0.665725147351623	2	0	NaN	5176170.3792586	NaN	5176171.3626863	5176171.87922785
116	19	1	0	90	36.1581920903955	36.241610738255	17	0.566722948402166	2	11	2	NaN	2	3	0.245489495646974	1	1	NaN	386	7	8	1	121	221	321	NaN	521	0.369668527506292	2	1	NaN	5176173.3628902	NaN	5176174.3462768	5176174.86283597
116	19	1	0	90	36.1581920903955	36.241610738255	19	0.63339623644948	2	7	2	NaN	2	4	0.245489495646974	1	1	NaN	387	7	9	1	121	221	321	NaN	521	0.476828122511506	2	1	NaN	5176176.2798514	NaN	5176177.2633092	5176177.77979648
116	19	1	0	90	36.1581920903955	36.241610738255	16	0.53338630437851	2	8	4	NaN	2	4	0.245489495646974	1	1	NaN	388	7	10	1	121	221	321	NaN	521	0.364499635994434	2	1	NaN	5176179.0801197	NaN	5176180.0635329	5176180.58006906
116	19	1	0	90	36.1581920903955	36.241610738255	12	0.400039728283882	2	8	4	NaN	2	3	0.245489495646974	1	1	NaN	389	7	11	1	121	221	321	NaN	521	0.375799279659986	2	1	NaN	5176182.197102	NaN	5176183.180494	5176183.69705852
116	19	1	0	90	36.1581920903955	36.241610738255	16	0.53338630437851	2	11	1	NaN	2	3	0.245489495646974	1	1	NaN	390	7	12	1	121	221	321	NaN	521	0.755626548081636	2	1	NaN	5176184.8972427	NaN	5176185.8807614	5176186.39732475
116	19	1	0	90	36.1581920903955	36.241610738255	9	0.300029796212912	2	12	4	NaN	2	3	0.245489495646974	1	1	NaN	391	7	13	1	121	221	321	NaN	521	0.463958935812116	2	1	NaN	5176187.9810074	NaN	5176188.9643972	5176189.48095296
116	19	1	0	90	36.1581920903955	36.241610738255	16	0.53338630437851	2	10	5	NaN	2	5	0.245489495646974	1	1	NaN	392	7	14	1	121	221	321	NaN	521	0.832166391424835	2	1	NaN	5176190.7646322	NaN	5176191.7480134	5176192.26454411
116	19	1	0	90	36.1581920903955	36.241610738255	21	0.700069524496794	2	9	1	NaN	2	5	0.245489495646974	1	1	NaN	393	7	15	1	121	221	321	NaN	521	1.16970622725785	2	1	NaN	5176193.9148323	NaN	5176194.8983216	5176195.41485187
116	19	1	0	90	36.1581920903955	36.241610738255	16	0.53338630437851	2	1	6	NaN	1	4	0.245489495646974	1	1	NaN	394	7	16	1	121	221	321	NaN	521	0.340632727369666	1	1	NaN	5176198.0319625	NaN	5176199.015409	5176199.53192357
116	19	1	0	90	36.1581920903955	36.241610738255	15	0.500049660354853	2	6	1	NaN	1	4	0.245489495646974	1	1	NaN	395	7	17	1	121	221	321	NaN	521	0.287323574535549	1	1	NaN	5176201.1656294	NaN	5176202.1490257	5176202.66556763
116	19	1	0	90	36.1581920903955	36.241610738255	22	0.733406168520451	2	8	4	NaN	2	3	0.245489495646974	1	1	NaN	396	7	18	1	121	221	321	NaN	521	0.43831957038492	2	1	NaN	5176203.7825692	NaN	5176204.7659633	5176205.28248863
116	19	1	0	90	36.1581920903955	36.241610738255	21	0.700069524496794	2	4	6	NaN	1	3	0.245489495646974	1	1	NaN	397	7	19	1	121	221	321	NaN	521	0.36743672285229	2	0	NaN	5176206.5494874	NaN	5176207.5328713	5176208.04941558
116	19	1	0	90	36.1581920903955	36.241610738255	21	0.700069524496794	2	8	5	NaN	2	5	0.245489495646974	1	1	NaN	398	7	20	1	121	221	321	NaN	521	0.427019380033016	2	1	NaN	5176209.2497414	NaN	5176210.2331669	5176210.74970982
116	19	1	0	90	36.1581920903955	36.241610738255	18	0.600059592425823	2	3	5	NaN	1	3	0.245489495646974	1	1	NaN	399	7	21	1	121	221	321	NaN	521	0.277012675069273	1	1	NaN	5176212.0000508	NaN	5176212.9834108	5176213.49996452
116	19	1	0	90	36.1581920903955	36.241610738255	16	0.53338630437851	2	12	3	NaN	2	3	0.245489495646974	1	1	NaN	400	7	22	1	121	221	321	NaN	521	0.732242127880454	2	1	NaN	5176214.6002904	NaN	5176215.5837012	5176216.10021597
116	19	1	0	90	36.1581920903955	36.241610738255	8	0.266693152189255	2	5	4	NaN	1	4	0.245489495646974	1	1	NaN	401	7	23	1	121	221	321	NaN	521	0.273926074616611	1	1	NaN	5176217.6505814	NaN	5176218.6339796	5176219.15051463
116	19	1	0	90	36.1581920903955	36.241610738255	12	0.400039728283882	2	12	1	NaN	2	5	0.245489495646974	1	1	NaN	402	7	24	1	121	221	321	NaN	521	0.444571127183735	2	1	NaN	5176220.7842052	NaN	5176221.7676068	5176222.28415847
116	19	1	0	90	36.1581920903955	36.241610738255	22	0.733406168520451	2	10	2	NaN	2	5	0.245489495646974	1	1	NaN	403	7	25	1	121	221	321	NaN	521	0.517890644259751	2	1	NaN	5176223.551164	NaN	5176224.5345432	5176225.05112696
116	19	1	0	90	36.1581920903955	36.241610738255	24	0.800079456567764	2	6	6	NaN	1	5	0.245489495646974	1	1	NaN	404	7	26	1	121	221	321	NaN	521	0.287461400032043	1	1	NaN	5176226.9014681	NaN	5176227.8848738	5176228.4014352
116	19	1	0	90	36.1581920903955	36.241610738255	14	0.466713016331196	2	12	2	NaN	2	3	0.245489495646974	1	1	NaN	405	7	27	1	121	221	321	NaN	521	0.270199718885124	1	0	NaN	5176229.518515	NaN	5176230.5018467	5176231.01834298
116	19	1	0	90	36.1581920903955	36.241610738255	12	0.400039728283882	2	4	4	NaN	1	4	0.245489495646974	1	1	NaN	406	7	28	1	121	221	321	NaN	521	0.382404579780996	1	1	NaN	5176232.1186782	NaN	5176233.1020805	5176233.61861032
116	19	1	0	90	36.1581920903955	36.241610738255	15	0.500049660354853	2	9	1	NaN	2	5	0.245489495646974	1	1	NaN	407	7	29	1	121	221	321	NaN	521	0.305606175214052	1	0	NaN	5176234.8190286	NaN	5176235.8023377	5176236.31886913
116	19	1	0	90	36.1581920903955	36.241610738255	12	0.400039728283882	2	9	3	NaN	2	4	0.245489495646974	1	1	NaN	408	7	30	1	121	221	321	NaN	521	0.368137523531914	2	1	NaN	5176237.4525204	NaN	5176238.4359681	5176238.95246188
116	19	1	0	90	36.1581920903955	36.241610738255	21	0.700069524496794	2	3	4	NaN	1	5	0.245489495646974	1	1	NaN	409	7	31	1	121	221	321	NaN	521	0.398226275108755	2	0	NaN	5176240.4861469	NaN	5176241.4695754	5176241.98610532
116	19	1	0	90	36.1581920903955	36.241610738255	11	0.366703084260225	2	11	2	NaN	2	4	0.245489495646974	1	1	NaN	410	7	32	1	121	221	321	NaN	521	0.209638726897538	1	0	NaN	5176243.2031534	NaN	5176244.186481	5176244.70303517
116	19	1	0	90	36.1581920903955	36.241610738255	12	0.400039728283882	2	11	6	NaN	2	3	0.245489495646974	1	1	NaN	411	7	33	1	121	221	321	NaN	521	0.42035817168653	2	1	NaN	5176245.7366874	NaN	5176246.7200912	5176247.23660633
116	19	1	0	90	36.1581920903955	36.241610738255	24	0.800079456567764	2	5	5	NaN	1	4	0.245489495646974	1	1	NaN	412	7	34	1	121	221	321	NaN	521	0.285705383867025	1	1	NaN	5176248.4869423	NaN	5176249.4703617	5176249.98688062
116	19	1	0	90	36.1581920903955	36.241610738255	23	0.766742812544107	2	8	5	NaN	2	5	0.245489495646974	1	1	NaN	413	7	35	1	121	221	321	NaN	521	0.357411775738001	1	0	NaN	5176251.087214	NaN	5176252.0705868	5176252.58712992
116	19	1	0	90	36.1581920903955	36.241610738255	6	0.200019864141941	2	11	3	NaN	2	4	0.245489495646974	1	1	NaN	414	7	36	1	121	221	321	NaN	521	0.313921296037734	1	0	NaN	5176253.770816	NaN	5176254.7541947	5176255.2707542
116	19	1	0	90	36.1581920903955	36.241610738255	15	0.500049660354853	2	1	4	NaN	1	5	0.245489495646974	1	1	NaN	415	7	37	1	121	221	321	NaN	521	0.512677375227213	1	1	NaN	5176256.4043988	NaN	5176257.3877931	5176257.90433402
116	19	1	0	90	36.1581920903955	36.241610738255	23	0.766742812544107	2	10	6	NaN	2	4	0.245489495646974	1	1	NaN	416	7	38	1	121	221	321	NaN	521	0.494841583073139	2	1	NaN	5176259.23801	NaN	5176260.221381	5176260.73793372
116	19	1	0	90	36.1581920903955	36.241610738255	10	0.333366440236568	2	9	4	NaN	2	4	0.245489495646974	1	1	NaN	417	7	39	1	121	221	321	NaN	521	0.350130375474691	2	1	NaN	5176262.0550226	NaN	5176263.0383475	5176263.55488572
116	19	1	0	90	36.1581920903955	36.241610738255	20	0.666732880473137	2	1	3	NaN	1	3	0.245489495646974	1	1	NaN	418	7	40	1	121	221	321	NaN	521	0.466661991551518	2	0	NaN	5176264.7218769	NaN	5176265.7052796	5176266.22180651
116	19	1	0	90	36.1581920903955	36.241610738255	9	0.300029796212912	2	6	2	NaN	1	5	0.245489495646974	1	1	NaN	419	7	41	1	121	221	321	NaN	521	0.339542923495173	1	1	NaN	5176267.505477	NaN	5176268.4888956	5176269.00543578
116	19	1	0	90	36.1581920903955	36.241610738255	11	0.366703084260225	2	7	1	NaN	2	3	0.245489495646974	1	1	NaN	420	7	42	1	121	221	321	NaN	521	0.264619274996221	1	0	NaN	5176270.1723932	NaN	5176271.1558129	5176271.67235363
116	19	1	0	90	36.1581920903955	36.241610738255	19	0.63339623644948	2	6	3	NaN	1	4	0.245489495646974	1	1	NaN	421	7	43	1	121	221	321	NaN	521	0.56075172778219	1	1	NaN	5176272.7559867	NaN	5176273.7393844	5176274.25593277
116	19	1	0	90	36.1581920903955	36.241610738255	17	0.566722948402166	2	5	6	NaN	1	4	0.245489495646974	1	1	NaN	422	7	44	1	121	221	321	NaN	521	0.293028827756643	1	1	NaN	5176275.6395917	NaN	5176276.6230466	5176277.13954727
116	19	1	0	90	36.1581920903955	36.241610738255	22	0.733406168520451	2	5	4	NaN	1	4	0.245489495646974	1	1	NaN	423	7	45	1	121	221	321	NaN	521	0.284078538417816	1	1	NaN	5176278.2565318	NaN	5176279.2399601	5176279.75647106
116	19	1	0	90	36.1581920903955	36.241610738255	20	0.666732880473137	2	6	1	NaN	1	5	0.245489495646974	1	1	NaN	424	7	46	1	121	221	321	NaN	521	0.371891771443188	1	1	NaN	5176280.8567923	NaN	5176281.8401222	5176282.35673063
116	19	1	0	90	36.1581920903955	36.241610738255	20	0.666732880473137	2	12	5	NaN	2	3	0.245489495646974	1	1	NaN	425	7	47	1	121	221	321	NaN	521	0.312236722558737	1	0	NaN	5176283.5402779	NaN	5176284.5237809	5176285.04032268
116	19	1	0	90	36.1581920903955	36.241610738255	25	0.833416100591421	2	9	2	NaN	2	3	0.245489495646974	1	1	NaN	426	7	48	1	121	221	321	NaN	521	0.286887222900987	1	0	NaN	5176286.1739492	NaN	5176287.1572907	5176287.67391958
116	19	1	0	90	36.1581920903955	36.241610738255	16	0.53338630437851	2	2	2	NaN	1	4	0.245489495646974	1	1	NaN	427	7	49	1	121	221	321	NaN	521	0.125965274870396	1	1	NaN	5176288.7909071	NaN	5176289.7743418	5176290.29083232
116	19	1	0	90	36.1581920903955	36.241610738255	22	0.733406168520451	2	2	2	NaN	1	5	0.245489495646974	1	1	NaN	428	7	50	1	121	221	321	NaN	521	0.219716523773968	1	1	NaN	5176291.2411738	NaN	5176292.224558	5176292.74108618
116	19	1	0	90	36.1581920903955	36.241610738255	11	0.366703084260225	2	4	6	NaN	1	3	0.245489495646974	1	1	NaN	429	7	51	1	121	221	321	NaN	521	0.302056347951293	2	0	NaN	5176293.7747263	NaN	5176294.7581258	5176295.27468285
116	19	1	0	90	36.1581920903955	36.241610738255	19	0.63339623644948	2	12	3	NaN	2	3	0.245489495646974	1	1	NaN	430	7	52	1	121	221	321	NaN	521	0.259676022455096	2	1	NaN	5176296.8250153	NaN	5176297.8084349	5176298.32495278
116	19	1	0	90	36.1581920903955	36.241610738255	6	0.200019864141941	2	9	4	NaN	2	3	0.245489495646974	1	1	NaN	431	7	53	1	121	221	321	NaN	521	0.364523075520992	2	1	NaN	5176299.4086997	NaN	5176300.3920364	5176300.90854362
116	19	1	0	90	36.1581920903955	36.241610738255	21	0.700069524496794	2	2	3	NaN	1	3	0.245489495646974	1	1	NaN	432	7	54	1	121	221	321	NaN	521	0.672412496060133	2	0	NaN	5176302.0922811	NaN	5176303.0756012	5176303.5921506
116	19	1	0	90	36.1581920903955	36.241610738255	9	0.300029796212912	2	1	6	NaN	1	5	0.245489495646974	1	1	NaN	433	7	55	1	121	221	321	NaN	521	0.192674874328077	1	1	NaN	5176305.09252	NaN	5176306.0758918	5176306.59243833
116	19	1	0	90	36.1581920903955	36.241610738255	22	0.733406168520451	2	5	6	NaN	1	4	0.245489495646974	1	1	NaN	434	7	56	1	121	221	321	NaN	521	0.104160971008241	1	1	NaN	5176308.092782	NaN	5176309.0761965	5176309.59273493
116	19	1	0	90	36.1581920903955	36.241610738255	18	0.600059592425823	2	6	2	NaN	1	3	0.245489495646974	1	1	NaN	435	7	57	1	121	221	321	NaN	521	0.295135023072362	1	1	NaN	5176310.5096919	NaN	5176311.4931069	5176312.00965678
116	19	1	0	90	36.1581920903955	36.241610738255	23	0.766742812544107	2	11	4	NaN	2	5	0.245489495646974	1	1	NaN	436	7	58	1	121	221	321	NaN	521	0.195807326585054	2	1	NaN	5176313.5933624	NaN	5176314.5767571	5176315.09327367
116	19	1	0	90	36.1581920903955	36.241610738255	22	0.733406168520451	2	8	3	NaN	2	5	0.245489495646974	1	1	NaN	437	7	59	1	121	221	321	NaN	521	0.404850327409804	1	0	NaN	5176316.5603007	NaN	5176317.5436843	5176318.06023217
116	19	1	0	90	36.1581920903955	36.241610738255	17	0.566722948402166	2	1	1	NaN	1	4	0.245489495646974	1	1	NaN	438	7	60	1	121	221	321	NaN	521	0.206884278915823	1	1	NaN	5176319.2939225	NaN	5176320.2772802	5176320.79383492
116	19	1	0	90	36.1581920903955	36.241610738255	12	0.400039728283882	2	5	1	NaN	1	5	0.245489495646974	1	1	NaN	439	7	61	1	121	221	321	NaN	521	0.417754074558616	1	1	NaN	5176321.8274776	NaN	5176322.8108885	5176323.32741923
116	19	1	0	90	36.1581920903955	36.241610738255	17	0.566722948402166	2	3	6	NaN	1	4	0.245489495646974	1	1	NaN	440	7	62	1	121	221	321	NaN	521	0.0749275265261531	1	1	NaN	5176324.5777559	NaN	5176325.5611431	5176326.07769707
116	19	1	0	90	36.1581920903955	36.241610738255	21	0.700069524496794	2	12	3	NaN	2	5	0.245489495646974	1	1	NaN	441	7	63	1	121	221	321	NaN	521	0.0194453280419111	2	1	NaN	5176326.9613321	NaN	5176327.944696	5176328.46127517
116	19	1	0	90	36.1581920903955	36.241610738255	23	0.766742812544107	2	11	4	NaN	2	3	0.245489495646974	1	1	NaN	442	8	1	1	121	221	321	NaN	521	0.124196827411652	2	1	NaN	5176331.5282638	NaN	5176332.5118629	5176333.02837147
116	19	1	0	90	36.1581920903955	36.241610738255	25	0.833416100591421	2	4	1	NaN	1	4	0.245489495646974	1	1	NaN	443	8	2	1	121	221	321	NaN	521	0.178157927468419	1	1	NaN	5176333.9785607	NaN	5176334.9620733	5176335.47863357
116	19	1	0	90	36.1581920903955	36.241610738255	25	0.833416100591421	2	3	3	NaN	1	5	0.245489495646974	1	1	NaN	444	8	3	1	121	221	321	NaN	521	0.526111827231944	2	0	NaN	5176336.4789574	NaN	5176337.4623133	5176337.97885717
116	19	1	0	90	36.1581920903955	36.241610738255	24	0.800079456567764	2	7	1	NaN	2	5	0.245489495646974	1	1	NaN	445	8	4	1	121	221	321	NaN	521	0.323637823574245	2	1	NaN	5176339.3292346	NaN	5176340.3126069	5176340.82913468
116	19	1	0	90	36.1581920903955	36.241610738255	17	0.566722948402166	2	9	3	NaN	2	4	0.245489495646974	1	1	NaN	446	8	5	1	121	221	321	NaN	521	0.281381675042212	2	1	NaN	5176341.9794459	NaN	5176342.9628821	5176343.47939753
116	19	1	0	90	36.1581920903955	36.241610738255	9	0.300029796212912	2	1	3	NaN	1	5	0.245489495646974	1	1	NaN	447	8	6	1	121	221	321	NaN	521	0.229528427124023	1	1	NaN	5176344.8796368	NaN	5176345.8631397	5176346.37968987
116	19	1	0	90	36.1581920903955	36.241610738255	14	0.466713016331196	2	6	1	NaN	1	3	0.245489495646974	1	1	NaN	448	8	7	1	121	221	321	NaN	521	0.278963183052838	1	1	NaN	5176347.4298692	NaN	5176348.4133947	5176348.92993822
116	19	1	0	90	36.1581920903955	36.241610738255	24	0.800079456567764	2	4	3	NaN	1	3	0.245489495646974	1	1	NaN	449	8	8	1	121	221	321	NaN	521	0.102646870538592	1	1	NaN	5176350.0302624	NaN	5176351.0135582	5176351.53018233
116	19	1	0	90	36.1581920903955	36.241610738255	6	0.200019864141941	2	12	6	NaN	2	5	0.245489495646974	1	1	NaN	450	8	9	1	121	221	321	NaN	521	0.212207370437682	2	1	NaN	5176352.8805161	NaN	5176353.8639594	5176354.38046623
116	19	1	0	90	36.1581920903955	36.241610738255	7	0.233356508165598	2	3	1	NaN	1	3	0.245489495646974	1	1	NaN	451	8	10	1	121	221	321	NaN	521	0.26594178751111	1	1	NaN	5176356.5308795	NaN	5176357.5143079	5176358.03083811
116	19	1	0	90	36.1581920903955	36.241610738255	15	0.500049660354853	2	9	5	NaN	2	4	0.245489495646974	1	1	NaN	452	8	11	1	121	221	321	NaN	521	0.76250952295959	1	0	NaN	5176359.1144852	NaN	5176360.0978727	5176360.61441188
116	19	1	0	90	36.1581920903955	36.241610738255	14	0.466713016331196	2	1	6	NaN	1	4	0.245489495646974	1	1	NaN	453	8	12	1	121	221	321	NaN	521	0.166698975488544	1	1	NaN	5176362.1981381	NaN	5176363.1815289	5176363.69806482
116	19	1	0	90	36.1581920903955	36.241610738255	13	0.433376372307539	2	3	3	NaN	1	3	0.245489495646974	1	1	NaN	454	8	13	1	121	221	321	NaN	521	0.227140288800001	2	0	NaN	5176365.0817566	NaN	5176366.06513	5176366.58167851
116	19	1	0	90	36.1581920903955	36.241610738255	17	0.566722948402166	2	11	5	NaN	2	5	0.245489495646974	1	1	NaN	455	8	14	1	121	221	321	NaN	521	0.282926122657955	2	1	NaN	5176368.0820521	NaN	5176369.0654544	5176369.58196048
116	19	1	0	90	36.1581920903955	36.241610738255	15	0.500049660354853	2	1	2	NaN	1	3	0.245489495646974	1	1	NaN	456	8	15	1	121	221	321	NaN	521	0.274959223344922	1	1	NaN	5176370.6822816	NaN	5176371.6656648	5176372.18221348
116	19	1	0	90	36.1581920903955	36.241610738255	14	0.466713016331196	2	6	5	NaN	1	5	0.245489495646974	1	1	NaN	457	8	16	1	121	221	321	NaN	521	0.31425444316119	1	1	NaN	5176373.2825598	NaN	5176374.265969	5176374.78248536
