subjno	age	gender	isPractice	viewdist	CmToPixX	CmToPixY	SOA_frm	SOA_time	targNum	targID	targExample	targRace	targGender	firstTargPos	contrast	familiarity	curr_staircase	iStair	TrialNum	BlockNum	blktrl	sessionNum	TC_FIXATION	TC_RSVP_START	TC_RSVP_END	TC_BLANK	TC_RESPONSE_ONSET	RT2afc	resp_2afc	acc	RSVPOnsetVBL	RSVPOnsetTime	RSVPOffsetVBL	RSVPOffsetTime	startrt_2afc
8	22	0	0	90	36.1581920903955	36.241610738255	22	0.733384432047606	2	5	1	NaN	1	4	0.0380890645878151	0	1	NaN	1	1	1	2	120	220	320	NaN	520	0.359497127588838	1	1	NaN	1557020.5387327	NaN	1557021.5219248	1557022.05505387
8	22	0	0	90	36.1581920903955	36.241610738255	17	0.566706152036786	2	9	1	NaN	2	5	0.0380890645878151	0	1	NaN	2	1	2	2	120	220	320	NaN	520	0.235253399936482	1	0	NaN	1557023.2721855	NaN	1557024.2555223	1557024.7715044
8	22	0	0	90	36.1581920903955	36.241610738255	10	0.333356560021639	2	1	4	NaN	1	3	0.0380890645878151	0	1	NaN	3	1	3	2	120	220	320	NaN	520	0.27308012242429	1	1	NaN	1557026.8889922	NaN	1557027.8724764	1557028.40566878
8	22	0	0	90	36.1581920903955	36.241610738255	8	0.266685248017311	2	8	3	NaN	2	5	0.0380890645878151	0	1	NaN	4	1	4	2	120	220	320	NaN	520	0.489630790194497	1	0	NaN	1557029.8726877	NaN	1557030.8560837	1557031.37263081
8	22	0	0	90	36.1581920903955	36.241610738255	16	0.533370496034622	2	10	2	NaN	2	5	0.0380890645878151	0	1	NaN	5	1	5	2	120	220	320	NaN	520	1.3740851697512	1	0	NaN	1557033.7563769	NaN	1557034.7398888	1557035.25634163
8	22	0	0	90	36.1581920903955	36.241610738255	11	0.366692216023803	2	2	2	NaN	1	3	0.0380890645878151	0	1	NaN	6	1	6	2	120	220	320	NaN	520	0.0668241169769317	1	1	NaN	1557038.2233827	NaN	1557039.2069349	1557039.72345498
8	22	0	0	90	36.1581920903955	36.241610738255	10	0.333356560021639	2	11	2	NaN	2	3	0.0380890645878151	0	1	NaN	7	1	7	2	120	220	320	NaN	520	0.390051369788125	1	0	NaN	1557041.9404212	NaN	1557042.9239288	1557043.44047453
8	22	0	0	90	36.1581920903955	36.241610738255	16	0.533370496034622	2	8	6	NaN	2	3	0.0380890645878151	0	1	NaN	8	1	8	2	120	220	320	NaN	520	0.427597722504288	1	0	NaN	1557044.9908564	NaN	1557045.9742313	1557046.49078138
8	22	0	0	90	36.1581920903955	36.241610738255	7	0.233349592015147	2	9	1	NaN	2	4	0.0380890645878151	0	1	NaN	9	1	9	2	120	220	320	NaN	520	1.60573147982359	1	0	NaN	1557047.7411114	NaN	1557048.7245019	1557049.24105392
8	22	0	0	90	36.1581920903955	36.241610738255	24	0.800055744051933	2	7	5	NaN	2	3	0.0380890645878151	0	1	NaN	10	1	10	2	120	220	320	NaN	520	0.424968011910096	1	0	NaN	1557052.0415217	NaN	1557053.0249385	1557053.54147519
8	22	0	0	90	36.1581920903955	36.241610738255	22	0.733384432047606	2	6	4	NaN	1	3	0.0380890645878151	0	1	NaN	11	1	11	2	120	220	320	NaN	520	0.348499817075208	1	1	NaN	1557056.3418933	NaN	1557057.3253826	1557057.84189168
8	22	0	0	90	36.1581920903955	36.241610738255	24	0.800055744051933	2	8	5	NaN	2	3	0.0380890645878151	0	1	NaN	12	1	12	2	120	220	320	NaN	520	3.6814946171362	2	1	NaN	1557059.0088821	NaN	1557059.9922716	1557060.50882008
8	22	0	0	90	36.1581920903955	36.241610738255	22	0.733384432047606	2	2	2	NaN	1	3	0.0380890645878151	0	1	NaN	13	1	13	2	120	220	320	NaN	520	0.336304069729522	1	1	NaN	1557069.0264078	NaN	1557070.0099596	1557070.52648243
8	22	0	0	90	36.1581920903955	36.241610738255	14	0.466699184030294	2	10	1	NaN	2	4	0.0380890645878151	0	1	NaN	14	1	14	2	120	220	320	NaN	520	0.262694564880803	1	0	NaN	1557071.8601294	NaN	1557072.8435708	1557073.36008124
8	22	0	0	90	36.1581920903955	36.241610738255	12	0.400027872025967	2	6	2	NaN	1	3	0.0380890645878151	0	1	NaN	15	1	15	2	120	220	320	NaN	520	0.598264974541962	1	1	NaN	1557075.2604702	NaN	1557076.2438855	1557076.76042263
8	22	0	0	90	36.1581920903955	36.241610738255	15	0.500034840032458	2	4	4	NaN	1	3	0.0380890645878151	0	1	NaN	16	1	16	2	120	220	320	NaN	520	0.433296417118981	1	1	NaN	1557078.7774448	NaN	1557079.7609014	1557080.27743508
8	22	0	0	90	36.1581920903955	36.241610738255	20	0.666713120043278	2	11	3	NaN	2	4	0.0380890645878151	0	1	NaN	17	1	17	2	120	220	320	NaN	520	0.41025161719881	1	0	NaN	1557081.544299	NaN	1557082.5278486	1557083.04437338
8	22	0	0	90	36.1581920903955	36.241610738255	6	0.200013936012983	2	10	3	NaN	2	3	0.0380890645878151	0	1	NaN	18	1	18	2	120	220	320	NaN	520	0.45283572236076	1	0	NaN	1557084.2780307	NaN	1557085.2614103	1557085.77797748
8	22	0	0	90	36.1581920903955	36.241610738255	6	0.200013936012983	2	2	4	NaN	1	5	0.0380890645878151	0	1	NaN	19	1	19	2	120	220	320	NaN	520	0.444933369755745	1	1	NaN	1557087.0615731	NaN	1557088.045041	1557088.56158573
8	22	0	0	90	36.1581920903955	36.241610738255	18	0.60004180803895	2	5	3	NaN	1	5	0.0380890645878151	0	1	NaN	20	1	20	2	120	220	320	NaN	520	1.15830052224919	1	1	NaN	1557090.2285028	NaN	1557091.2120232	1557091.72856228
8	22	0	0	90	36.1581920903955	36.241610738255	14	0.466699184030294	2	4	5	NaN	1	5	0.0380890645878151	0	1	NaN	21	1	21	2	120	220	320	NaN	520	0.400560979731381	1	1	NaN	1557093.9622803	NaN	1557094.9457129	1557095.46225642
8	22	0	0	90	36.1581920903955	36.241610738255	10	0.333356560021639	2	7	6	NaN	2	5	0.0380890645878151	0	1	NaN	22	1	22	2	120	220	320	NaN	520	0.353948222240433	1	0	NaN	1557097.11262	NaN	1557098.0960145	1557098.61257008
8	22	0	0	90	36.1581920903955	36.241610738255	23	0.766720088049769	2	6	5	NaN	1	4	0.0380890645878151	0	1	NaN	23	1	23	2	120	220	320	NaN	520	0.278424969874322	1	1	NaN	1557099.7962553	NaN	1557100.7796261	1557101.29616263
8	22	0	0	90	36.1581920903955	36.241610738255	25	0.833391400054097	2	3	4	NaN	1	3	0.0380890645878151	0	1	NaN	24	1	24	2	120	220	320	NaN	520	0.310438222251832	1	1	NaN	1557102.3964843	NaN	1557103.3798731	1557103.89642588
8	22	0	0	90	36.1581920903955	36.241610738255	22	0.733384432047606	2	3	3	NaN	1	4	0.0380890645878151	0	1	NaN	25	1	25	2	120	220	320	NaN	520	0.222257122397423	2	0	NaN	1557106.7801384	NaN	1557107.7636678	1557108.28020858
8	22	0	0	90	36.1581920903955	36.241610738255	11	0.366692216023803	2	5	3	NaN	1	4	0.0380890645878151	0	1	NaN	26	1	26	2	120	220	320	NaN	520	0.232626769691706	1	1	NaN	1557109.3138034	NaN	1557110.2972392	1557110.81376273
8	22	0	0	90	36.1581920903955	36.241610738255	19	0.633377464041114	2	4	5	NaN	1	5	0.0380890645878151	0	1	NaN	27	1	27	2	120	220	320	NaN	520	0.385840022470802	1	1	NaN	1557111.8806542	NaN	1557112.8641415	1557113.38069368
8	22	0	0	90	36.1581920903955	36.241610738255	8	0.266685248017311	2	11	3	NaN	2	3	0.0380890645878151	0	1	NaN	28	1	28	2	120	220	320	NaN	520	0.598344122525305	1	0	NaN	1557114.7642513	NaN	1557115.7477663	1557116.26429978
8	22	0	0	90	36.1581920903955	36.241610738255	23	0.766720088049769	2	11	4	NaN	2	4	0.0380890645878151	0	1	NaN	29	1	29	2	120	220	320	NaN	520	0.137358669890091	1	0	NaN	1557119.0814483	NaN	1557120.0648525	1557120.58139023
8	22	0	0	90	36.1581920903955	36.241610738255	15	0.500034840032458	2	7	3	NaN	2	5	0.0380890645878151	0	1	NaN	30	1	30	2	120	220	320	NaN	520	0.278536069905385	2	1	NaN	1557121.5317536	NaN	1557122.5151265	1557123.03163123
8	22	0	0	90	36.1581920903955	36.241610738255	10	0.333356560021639	2	1	2	NaN	1	5	0.0380890645878151	0	1	NaN	31	1	31	2	120	220	320	NaN	520	0.2072303222958	1	1	NaN	1557125.9154209	NaN	1557126.8988607	1557127.41540258
8	22	0	0	90	36.1581920903955	36.241610738255	8	0.266685248017311	2	4	5	NaN	1	3	0.0380890645878151	0	1	NaN	32	1	32	2	120	220	320	NaN	520	0.270792222581804	1	1	NaN	1557128.7157279	NaN	1557129.6991412	1557130.21567618
8	22	0	0	90	36.1581920903955	36.241610738255	25	0.833391400054097	2	5	5	NaN	1	5	0.0380890645878151	0	1	NaN	33	1	33	2	120	220	320	NaN	520	0.240024917060509	1	1	NaN	1557131.882708	NaN	1557132.8661347	1557133.38265218
8	22	0	0	90	36.1581920903955	36.241610738255	21	0.700048776045442	2	8	2	NaN	2	4	0.0380890645878151	0	1	NaN	34	1	34	2	120	220	320	NaN	520	0.218761122552678	2	1	NaN	1557134.799645	NaN	1557135.7830691	1557136.29961178
8	22	0	0	90	36.1581920903955	36.241610738255	16	0.533370496034622	2	5	3	NaN	1	5	0.0380890645878151	0	1	NaN	35	1	35	2	120	220	320	NaN	520	1.26863601710647	2	0	NaN	1557137.3497905	NaN	1557138.3333519	1557138.84986028
8	22	0	0	90	36.1581920903955	36.241610738255	20	0.666713120043278	2	1	3	NaN	1	3	0.0380890645878151	0	1	NaN	36	1	36	2	120	220	320	NaN	520	0.230589622398838	2	0	NaN	1557141.3002612	NaN	1557142.2837325	1557142.80025268
8	22	0	0	90	36.1581920903955	36.241610738255	18	0.60004180803895	2	4	3	NaN	1	3	0.0380890645878151	0	1	NaN	37	1	37	2	120	220	320	NaN	520	0.183312922250479	2	0	NaN	1557143.867215	NaN	1557144.8506252	1557145.36716828
8	22	0	0	90	36.1581920903955	36.241610738255	25	0.833391400054097	2	12	6	NaN	2	3	0.0380890645878151	0	1	NaN	38	1	38	2	120	220	320	NaN	520	0.267144222278148	1	0	NaN	1557146.3674628	NaN	1557147.3508719	1557147.86741258
8	22	0	0	90	36.1581920903955	36.241610738255	10	0.333356560021639	2	11	3	NaN	2	5	0.0380890645878151	0	1	NaN	39	1	39	2	120	220	320	NaN	520	0.147507617250085	2	1	NaN	1557149.3510499	NaN	1557150.3345368	1557150.85102978
8	22	0	0	90	36.1581920903955	36.241610738255	18	0.60004180803895	2	7	5	NaN	2	5	0.0380890645878151	0	1	NaN	40	1	40	2	120	220	320	NaN	520	0.234022442251444	1	0	NaN	1557152.1845676	NaN	1557153.1680923	1557153.68464826
8	22	0	0	90	36.1581920903955	36.241610738255	7	0.233349592015147	2	5	1	NaN	1	3	0.0380890645878151	0	1	NaN	41	1	41	2	120	220	320	NaN	520	0.227576769888401	1	1	NaN	1557154.7349827	NaN	1557155.7183536	1557156.23489433
8	22	0	0	90	36.1581920903955	36.241610738255	7	0.233349592015147	2	7	2	NaN	2	4	0.0380890645878151	0	1	NaN	42	1	42	2	120	220	320	NaN	520	0.22714597475715	2	1	NaN	1557157.551814	NaN	1557158.5352988	1557159.05183403
8	22	0	0	90	36.1581920903955	36.241610738255	8	0.266685248017311	2	5	5	NaN	1	4	0.0380890645878151	0	1	NaN	43	1	43	2	120	220	320	NaN	520	0.0926097221672535	1	1	NaN	1557160.1021703	NaN	1557161.0855269	1557161.60209448
8	22	0	0	90	36.1581920903955	36.241610738255	22	0.733384432047606	2	11	6	NaN	2	4	0.0380890645878151	0	1	NaN	44	1	44	2	120	220	320	NaN	520	0.219594122376293	1	0	NaN	1557162.9190707	NaN	1557163.9025245	1557164.41903568
8	22	0	0	90	36.1581920903955	36.241610738255	15	0.500034840032458	2	10	3	NaN	2	4	0.0380890645878151	0	1	NaN	45	1	45	2	120	220	320	NaN	520	0.254870622418821	1	0	NaN	1557165.6360192	NaN	1557166.6194127	1557167.13597358
8	22	0	0	90	36.1581920903955	36.241610738255	15	0.500034840032458	2	10	5	NaN	2	4	0.0380890645878151	0	1	NaN	46	1	46	2	120	220	320	NaN	520	0.391159037360922	1	0	NaN	1557180.5874795	NaN	1557181.5709078	1557182.08743716
8	22	0	0	90	36.1581920903955	36.241610738255	22	0.733384432047606	2	2	6	NaN	1	4	0.0380890645878151	0	1	NaN	47	1	47	2	120	220	320	NaN	520	0.0104269273579121	1	1	NaN	1557183.3043025	NaN	1557184.2878169	1557184.80437917
8	22	0	0	90	36.1581920903955	36.241610738255	13	0.43336352802813	2	11	2	NaN	2	4	0.0380890645878151	0	1	NaN	48	1	48	2	120	220	320	NaN	520	0.116787889972329	1	0	NaN	1557185.6378497	NaN	1557186.6213992	1557187.13793641
8	22	0	0	90	36.1581920903955	36.241610738255	14	0.466699184030294	2	8	3	NaN	2	5	0.0380890645878151	0	1	NaN	49	1	49	2	120	220	320	NaN	520	0.491291617276147	1	0	NaN	1557188.0716032	NaN	1557189.0549704	1557189.57151028
8	22	0	0	90	36.1581920903955	36.241610738255	21	0.700048776045442	2	7	2	NaN	2	5	0.0380890645878151	0	1	NaN	50	1	50	2	120	220	320	NaN	520	0.282259169733152	1	0	NaN	1557190.8885103	NaN	1557191.8717864	1557192.38844963
8	22	0	0	90	36.1581920903955	36.241610738255	9	0.300020904019475	2	1	5	NaN	1	5	0.0380890645878151	0	1	NaN	51	1	51	2	120	220	320	NaN	520	0.185927317244932	1	1	NaN	1557193.488752	NaN	1557194.4721661	1557194.98870968
8	22	0	0	90	36.1581920903955	36.241610738255	20	0.666713120043278	2	10	6	NaN	2	5	0.0380890645878151	0	1	NaN	52	1	52	2	120	220	320	NaN	520	0.0957038223277777	1	0	NaN	1557196.3389194	NaN	1557197.3224412	1557197.83898488
8	22	0	0	90	36.1581920903955	36.241610738255	10	0.333356560021639	2	10	4	NaN	2	3	0.0380890645878151	0	1	NaN	53	1	53	2	120	220	320	NaN	520	0.398752922425047	1	0	NaN	1557198.7558514	NaN	1557199.7393829	1557200.25589258
8	22	0	0	90	36.1581920903955	36.241610738255	23	0.766720088049769	2	11	2	NaN	2	5	0.0380890645878151	0	1	NaN	54	1	54	2	120	220	320	NaN	520	0.291873422451317	1	0	NaN	1557202.6230028	NaN	1557203.6063904	1557204.12293808
8	22	0	0	90	36.1581920903955	36.241610738255	13	0.43336352802813	2	12	1	NaN	2	4	0.0380890645878151	0	1	NaN	55	1	55	2	120	220	320	NaN	520	0.233287937240675	1	0	NaN	1557209.6736687	NaN	1557210.6570846	1557211.17363106
8	22	0	0	90	36.1581920903955	36.241610738255	23	0.766720088049769	2	5	6	NaN	1	5	0.0380890645878151	0	1	NaN	56	1	56	2	120	220	320	NaN	520	0.0103801747318357	2	0	NaN	1557213.2573577	NaN	1557214.2408136	1557214.75732953
8	22	0	0	90	36.1581920903955	36.241610738255	22	0.733384432047606	2	3	1	NaN	1	4	0.0380890645878151	0	1	NaN	57	1	57	2	120	220	320	NaN	520	0.0105060648638755	1	1	NaN	1557215.6409586	NaN	1557216.6242268	1557217.14087944
8	22	0	0	90	36.1581920903955	36.241610738255	21	0.700048776045442	2	4	3	NaN	1	4	0.0380890645878151	0	1	NaN	58	1	58	2	120	220	320	NaN	520	0.812028954504058	2	0	NaN	1557217.9744989	NaN	1557218.9578712	1557219.47444285
8	22	0	0	90	36.1581920903955	36.241610738255	19	0.633377464041114	2	9	1	NaN	2	4	0.0380890645878151	0	1	NaN	59	1	59	2	120	220	320	NaN	520	0.222960422281176	1	0	NaN	1557221.1081432	NaN	1557222.0915264	1557222.60808498
8	22	0	0	90	36.1581920903955	36.241610738255	0	0	1	5	6	NaN	1	3	0.0380890645878151	0	1	NaN	60	1	60	2	110	210	310	NaN	510	0.240616369526833	1	1	NaN	1557223.6583953	NaN	1557224.6418104	1557225.15832653
8	22	0	0	90	36.1581920903955	36.241610738255	22	0.733384432047606	2	12	5	NaN	2	5	0.0380890645878151	0	1	NaN	61	1	61	2	120	220	320	NaN	520	0.314357617171481	1	0	NaN	1557226.2086252	NaN	1557227.1920248	1557227.70857858
8	22	0	0	90	36.1581920903955	36.241610738255	22	0.733384432047606	2	4	1	NaN	1	4	0.0380890645878151	0	1	NaN	62	1	62	2	120	220	320	NaN	520	0.355170590104535	2	0	NaN	1557229.1755888	NaN	1557230.1590149	1557230.67555491
8	22	0	0	90	36.1581920903955	36.241610738255	16	0.533370496034622	2	2	1	NaN	1	4	0.0380890645878151	0	1	NaN	63	1	63	2	120	220	320	NaN	520	0.296579190064222	1	1	NaN	1557231.8424042	NaN	1557232.8259011	1557233.34249591
8	22	0	0	90	36.1581920903955	36.241610738255	17	0.566706152036786	2	3	4	NaN	1	4	0.0380890645878151	0	1	NaN	64	2	1	2	120	220	320	NaN	520	0.27901972248219	2	0	NaN	1557243.043492	NaN	1557244.0270286	1557244.54356918
8	22	0	0	90	36.1581920903955	36.241610738255	24	0.800055744051933	2	2	1	NaN	1	4	0.0380890645878151	0	1	NaN	65	2	2	2	120	220	320	NaN	520	0.211303632240742	1	1	NaN	1557248.3274609	NaN	1557249.3108889	1557249.82745067
8	22	0	0	90	36.1581920903955	36.241610738255	12	0.400027872025967	2	12	6	NaN	2	5	0.0380890645878151	0	1	NaN	66	2	3	2	120	220	320	NaN	520	0.253608917118981	2	1	NaN	1557250.8609805	NaN	1557251.8444257	1557252.36100338
8	22	0	0	90	36.1581920903955	36.241610738255	14	0.466699184030294	2	5	5	NaN	1	3	0.0380890645878151	0	1	NaN	67	2	4	2	120	220	320	NaN	520	0.25609982246533	2	0	NaN	1557253.5945741	NaN	1557254.5780755	1557255.09461428
8	22	0	0	90	36.1581920903955	36.241610738255	19	0.633377464041114	2	9	3	NaN	2	3	0.0380890645878151	0	1	NaN	68	2	5	2	120	220	320	NaN	520	0.440683422377333	1	0	NaN	1557256.178278	NaN	1557257.1616673	1557257.67819438
8	22	0	0	90	36.1581920903955	36.241610738255	16	0.533370496034622	2	5	6	NaN	1	5	0.0380890645878151	0	1	NaN	69	2	6	2	120	220	320	NaN	520	0.242903159931302	1	1	NaN	1557259.3118083	NaN	1557260.2953019	1557260.81182634
8	22	0	0	90	36.1581920903955	36.241610738255	9	0.300020904019475	2	8	6	NaN	2	4	0.0380890645878151	0	1	NaN	70	2	7	2	120	220	320	NaN	520	0.195963379694149	1	0	NaN	1557261.8787491	NaN	1557262.8622064	1557263.37876582
8	22	0	0	90	36.1581920903955	36.241610738255	8	0.266685248017311	2	2	1	NaN	1	5	0.0380890645878151	0	1	NaN	71	2	8	2	120	220	320	NaN	520	0.295464569702744	1	1	NaN	1557264.3957163	NaN	1557265.3791304	1557265.89566353
8	22	0	0	90	36.1581920903955	36.241610738255	8	0.266685248017311	2	6	2	NaN	1	5	0.0380890645878151	0	1	NaN	72	2	9	2	120	220	320	NaN	520	0.334553922293708	1	1	NaN	1557267.0126671	NaN	1557267.996035	1557268.51259238
8	22	0	0	90	36.1581920903955	36.241610738255	20	0.666713120043278	2	8	4	NaN	2	3	0.0380890645878151	0	1	NaN	73	2	10	2	120	220	320	NaN	520	0.179000764619559	1	0	NaN	1557269.6795741	NaN	1557270.6630079	1557271.17952794
8	22	0	0	90	36.1581920903955	36.241610738255	12	0.400027872025967	2	5	3	NaN	1	4	0.0380890645878151	0	1	NaN	74	2	11	2	120	220	320	NaN	520	0.182882422348484	2	0	NaN	1557272.1797631	NaN	1557273.1632309	1557273.67976978
8	22	0	0	90	36.1581920903955	36.241610738255	7	0.233349592015147	2	5	4	NaN	1	5	0.0380890645878151	0	1	NaN	75	2	12	2	120	220	320	NaN	520	0.234566299943253	1	1	NaN	1557274.6800566	NaN	1557275.6634598	1557276.180023
8	22	0	0	90	36.1581920903955	36.241610738255	24	0.800055744051933	2	7	3	NaN	2	5	0.0380890645878151	0	1	NaN	76	2	13	2	120	220	320	NaN	520	0.276875322451815	1	0	NaN	1557277.2303227	NaN	1557278.2137511	1557278.73026618
8	22	0	0	90	36.1581920903955	36.241610738255	7	0.233349592015147	2	1	3	NaN	1	4	0.0380890645878151	0	1	NaN	77	2	14	2	120	220	320	NaN	520	0.212290779687464	1	1	NaN	1557279.83057	NaN	1557280.8139868	1557281.33054242
8	22	0	0	90	36.1581920903955	36.241610738255	17	0.566706152036786	2	6	2	NaN	1	3	0.0380890645878151	0	1	NaN	78	2	15	2	120	220	320	NaN	520	0.241838722489774	1	1	NaN	1557282.4808441	NaN	1557283.464222	1557283.98078178
8	22	0	0	90	36.1581920903955	36.241610738255	10	0.333356560021639	2	4	5	NaN	1	4	0.0380890645878151	0	1	NaN	79	2	16	2	120	220	320	NaN	520	0.199616269674152	2	0	NaN	1557285.5311173	NaN	1557286.5145377	1557287.03108073
8	22	0	0	90	36.1581920903955	36.241610738255	24	0.800055744051933	2	11	3	NaN	2	4	0.0380890645878151	0	1	NaN	80	2	17	2	120	220	320	NaN	520	0.371116222348064	1	0	NaN	1557288.0480771	NaN	1557289.0314416	1557289.54800888
8	22	0	0	90	36.1581920903955	36.241610738255	19	0.633377464041114	2	8	6	NaN	2	3	0.0380890645878151	0	1	NaN	81	2	18	2	120	220	320	NaN	520	0.305467317113653	1	0	NaN	1557291.0815733	NaN	1557292.0650744	1557292.58162358
8	22	0	0	90	36.1581920903955	36.241610738255	9	0.300020904019475	2	12	5	NaN	2	5	0.0380890645878151	0	1	NaN	82	2	19	2	120	220	320	NaN	520	0.247509779641405	1	0	NaN	1557293.7152503	NaN	1557294.6986726	1557295.21521952
8	22	0	0	90	36.1581920903955	36.241610738255	10	0.333356560021639	2	2	2	NaN	1	3	0.0380890645878151	0	1	NaN	83	2	20	2	120	220	320	NaN	520	0.457053422462195	2	0	NaN	1557296.2821865	NaN	1557297.265675	1557297.78213258
8	22	0	0	90	36.1581920903955	36.241610738255	6	0.200013936012983	2	11	4	NaN	2	5	0.0380890645878151	0	1	NaN	84	2	21	2	120	220	320	NaN	520	0.184898817213252	1	0	NaN	1557299.0657874	NaN	1557300.0492055	1557300.56574418
8	22	0	0	90	36.1581920903955	36.241610738255	22	0.733384432047606	2	11	1	NaN	2	4	0.0380890645878151	0	1	NaN	85	2	22	2	120	220	320	NaN	520	0.444132894976065	1	0	NaN	1557301.5827244	NaN	1557302.5660959	1557303.0826642
8	22	0	0	90	36.1581920903955	36.241610738255	9	0.300020904019475	2	4	1	NaN	1	3	0.0380890645878151	0	1	NaN	86	2	23	2	120	220	320	NaN	520	0.237499994924292	1	1	NaN	1557304.3496392	NaN	1557305.3330448	1557305.84960391
8	22	0	0	90	36.1581920903955	36.241610738255	9	0.300020904019475	2	9	5	NaN	2	5	0.0380890645878151	0	1	NaN	87	2	24	2	120	220	320	NaN	520	0.010398322250694	1	0	NaN	1557306.8999077	NaN	1557307.8832901	1557308.39985028
8	22	0	0	90	36.1581920903955	36.241610738255	9	0.300020904019475	2	7	1	NaN	2	3	0.0380890645878151	0	1	NaN	88	2	25	2	120	220	320	NaN	520	0.305391774745658	1	0	NaN	1557309.2334547	NaN	1557310.2168716	1557310.73341183
8	22	0	0	90	36.1581920903955	36.241610738255	10	0.333356560021639	2	3	5	NaN	1	4	0.0380890645878151	0	1	NaN	89	2	26	2	120	220	320	NaN	520	0.304515674943104	1	1	NaN	1557311.8503395	NaN	1557312.8337861	1557313.35033873
8	22	0	0	90	36.1581920903955	36.241610738255	25	0.833391400054097	2	5	1	NaN	1	3	0.0380890645878151	0	1	NaN	90	2	27	2	120	220	320	NaN	520	0.359232417074963	1	1	NaN	1557314.4839093	NaN	1557315.4673605	1557315.98391648
8	22	0	0	90	36.1581920903955	36.241610738255	6	0.200013936012983	2	8	2	NaN	2	3	0.0380890645878151	0	1	NaN	91	2	28	2	120	220	320	NaN	520	0.179736569756642	1	0	NaN	1557317.1676072	NaN	1557318.1509887	1557318.66751453
8	22	0	0	90	36.1581920903955	36.241610738255	13	0.43336352802813	2	6	5	NaN	1	4	0.0380890645878151	0	1	NaN	92	2	29	2	120	220	320	NaN	520	0.170496922452003	2	0	NaN	1557319.9844763	NaN	1557320.9679763	1557321.48446158
8	22	0	0	90	36.1581920903955	36.241610738255	18	0.60004180803895	2	7	2	NaN	2	5	0.0380890645878151	0	1	NaN	93	2	30	2	120	220	320	NaN	520	0.462436069734395	1	0	NaN	1557322.4847776	NaN	1557323.4681738	1557323.98470393
8	22	0	0	90	36.1581920903955	36.241610738255	11	0.366692216023803	2	7	4	NaN	2	5	0.0380890645878151	0	1	NaN	94	2	31	2	120	220	320	NaN	520	0.318802922498435	2	1	NaN	1557325.2683558	NaN	1557326.2517722	1557326.76831808
8	22	0	0	90	36.1581920903955	36.241610738255	0	0	1	4	1	NaN	1	4	0.0380890645878151	0	1	NaN	95	2	32	2	110	210	310	NaN	510	0.372434812132269	1	1	NaN	1557327.9186075	NaN	1557328.9020488	1557329.41857629
8	22	0	0	90	36.1581920903955	36.241610738255	16	0.533370496034622	2	9	3	NaN	2	5	0.0380890645878151	0	1	NaN	96	2	33	2	120	220	320	NaN	520	0.136076822411269	1	0	NaN	1557330.6188872	NaN	1557331.6022683	1557332.11883978
8	22	0	0	90	36.1581920903955	36.241610738255	15	0.500034840032458	2	8	3	NaN	2	4	0.0380890645878151	0	1	NaN	97	2	34	2	120	220	320	NaN	520	0.253882122226059	2	1	NaN	1557333.0690288	NaN	1557334.0525585	1557334.56908458
8	22	0	0	90	36.1581920903955	36.241610738255	7	0.233349592015147	2	12	2	NaN	2	3	0.0380890645878151	0	1	NaN	98	2	35	2	120	220	320	NaN	520	0.214139822404832	1	0	NaN	1557335.6526121	NaN	1557336.6361501	1557337.15266288
8	22	0	0	90	36.1581920903955	36.241610738255	7	0.233349592015147	2	11	1	NaN	2	3	0.0380890645878151	0	1	NaN	99	2	36	2	120	220	320	NaN	520	0.296843469608575	2	1	NaN	1557338.1863122	NaN	1557339.1697143	1557339.68627253
8	22	0	0	90	36.1581920903955	36.241610738255	16	0.533370496034622	2	10	4	NaN	2	3	0.0380890645878151	0	1	NaN	100	2	37	2	120	220	320	NaN	520	0.255710522411391	1	0	NaN	1557340.8033017	NaN	1557341.7866348	1557342.30317838
8	22	0	0	90	36.1581920903955	36.241610738255	14	0.466699184030294	2	9	2	NaN	2	3	0.0380890645878151	0	1	NaN	101	2	38	2	120	220	320	NaN	520	0.272590637207031	1	0	NaN	1557343.3868183	NaN	1557344.370226	1557344.88676976
8	22	0	0	90	36.1581920903955	36.241610738255	19	0.633377464041114	2	2	1	NaN	1	5	0.0380890645878151	0	1	NaN	102	2	39	2	120	220	320	NaN	520	0.198770869756117	1	1	NaN	1557346.2203858	NaN	1557347.2038467	1557347.72037313
8	22	0	0	90	36.1581920903955	36.241610738255	11	0.366692216023803	2	7	3	NaN	2	3	0.0380890645878151	0	1	NaN	103	2	40	2	120	220	320	NaN	520	0.234748522518203	2	1	NaN	1557348.9041076	NaN	1557349.8874171	1557350.40397358
8	22	0	0	90	36.1581920903955	36.241610738255	18	0.60004180803895	2	11	1	NaN	2	5	0.0380890645878151	0	1	NaN	104	2	41	2	120	220	320	NaN	520	0.0103958223480731	1	0	NaN	1557351.4542639	NaN	1557352.4376749	1557352.95421968
8	22	0	0	90	36.1581920903955	36.241610738255	18	0.60004180803895	2	10	1	NaN	2	4	0.0380890645878151	0	1	NaN	105	2	42	2	120	220	320	NaN	520	0.245770579669625	1	0	NaN	1557353.8211615	NaN	1557354.8045737	1557355.32111912
8	22	0	0	90	36.1581920903955	36.241610738255	0	0	1	11	1	NaN	2	5	0.0380890645878151	0	1	NaN	106	2	43	2	110	210	310	NaN	510	0.262889574747533	1	0	NaN	1557356.3880845	NaN	1557357.3715329	1557357.88805593
8	22	0	0	90	36.1581920903955	36.241610738255	16	0.533370496034622	2	9	6	NaN	2	4	0.0380890645878151	0	1	NaN	107	2	44	2	120	220	320	NaN	520	0.239264522446319	1	0	NaN	1557358.9716602	NaN	1557359.9550813	1557360.47163348
8	22	0	0	90	36.1581920903955	36.241610738255	11	0.366692216023803	2	3	1	NaN	1	4	0.0380890645878151	0	1	NaN	108	2	45	2	120	220	320	NaN	520	0.215748922433704	2	0	NaN	1557362.1553061	NaN	1557363.1387156	1557363.65527058
8	22	0	0	90	36.1581920903955	36.241610738255	13	0.43336352802813	2	6	6	NaN	1	5	0.0380890645878151	0	1	NaN	109	2	46	2	120	220	320	NaN	520	0.261398022528738	1	1	NaN	1557365.0055324	NaN	1557365.9890015	1557366.50555058
8	22	0	0	90	36.1581920903955	36.241610738255	20	0.666713120043278	2	4	4	NaN	1	5	0.0380890645878151	0	1	NaN	110	2	47	2	120	220	320	NaN	520	0.260459622368217	2	0	NaN	1557368.2225764	NaN	1557369.2060034	1557369.72253658
8	22	0	0	90	36.1581920903955	36.241610738255	8	0.266685248017311	2	3	5	NaN	1	4	0.0380890645878151	0	1	NaN	111	2	48	2	120	220	320	NaN	520	0.299433822510764	1	1	NaN	1557371.4395565	NaN	1557372.4230036	1557372.93952248
8	22	0	0	90	36.1581920903955	36.241610738255	22	0.733384432047606	2	5	3	NaN	1	5	0.0380890645878151	0	1	NaN	112	2	49	2	120	220	320	NaN	520	0.250513322418556	2	0	NaN	1557374.0563982	NaN	1557375.0398884	1557375.55645978
8	22	0	0	90	36.1581920903955	36.241610738255	16	0.533370496034622	2	6	3	NaN	1	5	0.0380890645878151	0	1	NaN	113	2	50	2	120	220	320	NaN	520	0.275799069786444	1	1	NaN	1557376.6234356	NaN	1557377.6068181	1557378.12336173
8	22	0	0	90	36.1581920903955	36.241610738255	12	0.400027872025967	2	2	3	NaN	1	3	0.0380890645878151	0	1	NaN	114	2	51	2	120	220	320	NaN	520	0.267030822345987	2	0	NaN	1557379.2236657	NaN	1557380.2070799	1557380.72361258
8	22	0	0	90	36.1581920903955	36.241610738255	16	0.533370496034622	2	6	1	NaN	1	4	0.0380890645878151	0	1	NaN	115	2	52	2	120	220	320	NaN	520	0.227606622502208	1	1	NaN	1557381.8072991	NaN	1557382.7906537	1557383.30719958
8	22	0	0	90	36.1581920903955	36.241610738255	6	0.200013936012983	2	9	5	NaN	2	5	0.0380890645878151	0	1	NaN	116	2	53	2	120	220	320	NaN	520	0.397862132405862	2	1	NaN	1557384.7408755	NaN	1557385.7242532	1557386.24083057
8	22	0	0	90	36.1581920903955	36.241610738255	13	0.43336352802813	2	3	4	NaN	1	5	0.0380890645878151	0	1	NaN	117	2	54	2	120	220	320	NaN	520	0.225025784689933	1	1	NaN	1557387.4578014	NaN	1557388.4412145	1557388.95775162
8	22	0	0	90	36.1581920903955	36.241610738255	18	0.60004180803895	2	9	1	NaN	2	5	0.0380890645878151	0	1	NaN	118	2	55	2	120	220	320	NaN	520	0.353327916935086	2	1	NaN	1557390.6414279	NaN	1557391.6248684	1557392.14141738
8	22	0	0	90	36.1581920903955	36.241610738255	17	0.566706152036786	2	6	3	NaN	1	4	0.0380890645878151	0	1	NaN	119	2	56	2	120	220	320	NaN	520	0.320867322385311	1	1	NaN	1557393.6417504	NaN	1557394.6251608	1557395.14170268
8	22	0	0	90	36.1581920903955	36.241610738255	12	0.400027872025967	2	5	3	NaN	1	4	0.0380890645878151	0	1	NaN	120	2	57	2	120	220	320	NaN	520	0.345293822232634	2	0	NaN	1557396.6420311	NaN	1557397.6254373	1557398.14198928
8	22	0	0	90	36.1581920903955	36.241610738255	13	0.43336352802813	2	9	3	NaN	2	4	0.0380890645878151	0	1	NaN	121	2	58	2	120	220	320	NaN	520	0.405935069778934	1	0	NaN	1557399.3089698	NaN	1557400.2923637	1557400.80892223
8	22	0	0	90	36.1581920903955	36.241610738255	18	0.60004180803895	2	6	1	NaN	1	3	0.0380890645878151	0	1	NaN	122	2	59	2	120	220	320	NaN	520	0.313445622334257	2	0	NaN	1557402.0258958	NaN	1557403.009383	1557403.52585078
8	22	0	0	90	36.1581920903955	36.241610738255	7	0.233349592015147	2	11	4	NaN	2	5	0.0380890645878151	0	1	NaN	123	2	60	2	120	220	320	NaN	520	0.258202817058191	1	0	NaN	1557404.7929207	NaN	1557405.7762334	1557406.29278738
8	22	0	0	90	36.1581920903955	36.241610738255	6	0.200013936012983	2	5	3	NaN	1	5	0.0380890645878151	0	1	NaN	124	2	61	2	120	220	320	NaN	520	0.375612522475421	1	1	NaN	1557407.6598641	NaN	1557408.6432033	1557409.15974028
8	22	0	0	90	36.1581920903955	36.241610738255	23	0.766720088049769	2	2	4	NaN	1	3	0.0380890645878151	0	1	NaN	125	2	62	2	120	220	320	NaN	520	0.31471981224604	1	1	NaN	1557410.3599623	NaN	1557411.3434772	1557411.86000019
8	22	0	0	90	36.1581920903955	36.241610738255	6	0.200013936012983	2	1	4	NaN	1	5	0.0380890645878151	0	1	NaN	126	2	63	2	120	220	320	NaN	520	0.371815722435713	1	1	NaN	1557413.327016	NaN	1557414.3104265	1557414.82696458
8	22	0	0	90	36.1581920903955	36.241610738255	18	0.60004180803895	2	3	2	NaN	1	3	0.0380890645878151	0	1	NaN	127	3	1	2	120	220	320	NaN	520	0.256453369744122	2	0	NaN	1557419.9942983	NaN	1557420.9776465	1557421.49427833
8	22	0	0	90	36.1581920903955	36.241610738255	10	0.333356560021639	2	8	6	NaN	2	4	0.0380890645878151	0	1	NaN	128	3	2	2	120	220	320	NaN	520	0.325838174670935	1	0	NaN	1557422.8612677	NaN	1557423.8445897	1557424.36124033
8	22	0	0	90	36.1581920903955	36.241610738255	12	0.400027872025967	2	11	2	NaN	2	3	0.0380890645878151	0	1	NaN	129	3	3	2	120	220	320	NaN	520	0.206138512119651	2	1	NaN	1557425.6449022	NaN	1557426.6283094	1557427.14484499
8	22	0	0	90	36.1581920903955	36.241610738255	10	0.333356560021639	2	4	6	NaN	1	4	0.0380890645878151	0	1	NaN	130	3	4	2	120	220	320	NaN	520	0.225717789959162	1	1	NaN	1557428.5451901	NaN	1557429.5285972	1557430.04512201
8	22	0	0	90	36.1581920903955	36.241610738255	20	0.666713120043278	2	4	3	NaN	1	4	0.0380890645878151	0	1	NaN	131	3	5	2	120	220	320	NaN	520	0.275609217118472	1	1	NaN	1557431.0953302	NaN	1557432.0788348	1557432.59536558
8	22	0	0	90	36.1581920903955	36.241610738255	16	0.533370496034622	2	4	1	NaN	1	5	0.0380890645878151	0	1	NaN	132	3	6	2	120	220	320	NaN	520	0.155477869790047	2	0	NaN	1557433.695578	NaN	1557434.679107	1557435.19562303
8	22	0	0	90	36.1581920903955	36.241610738255	25	0.833391400054097	2	8	1	NaN	2	5	0.0380890645878151	0	1	NaN	133	3	7	2	120	220	320	NaN	520	0.16034206468612	1	0	NaN	1557436.1625946	NaN	1557437.1459997	1557437.66253584
8	22	0	0	90	36.1581920903955	36.241610738255	24	0.800055744051933	2	12	1	NaN	2	4	0.0380890645878151	0	1	NaN	134	3	8	2	120	220	320	NaN	520	0.196747342357412	2	1	NaN	1557438.6461656	NaN	1557439.6295881	1557440.14612636
8	22	0	0	90	36.1581920903955	36.241610738255	16	0.533370496034622	2	2	6	NaN	1	3	0.0380890645878151	0	1	NaN	135	3	9	2	120	220	320	NaN	520	0.255862122401595	1	1	NaN	1557441.7631356	NaN	1557442.7465433	1557443.26309008
8	22	0	0	90	36.1581920903955	36.241610738255	14	0.466699184030294	2	3	3	NaN	1	5	0.0380890645878151	0	1	NaN	136	3	10	2	120	220	320	NaN	520	0.0105164647102356	2	0	NaN	1557444.746654	NaN	1557445.730167	1557446.24671934
8	22	0	0	90	36.1581920903955	36.241610738255	17	0.566706152036786	2	8	4	NaN	2	3	0.0380890645878151	0	1	NaN	137	3	11	2	120	220	320	NaN	520	0.052788516972214	1	0	NaN	1557447.4303602	NaN	1557448.4137743	1557448.93032368
8	22	0	0	90	36.1581920903955	36.241610738255	24	0.800055744051933	2	12	5	NaN	2	3	0.0380890645878151	0	1	NaN	138	3	12	2	120	220	320	NaN	520	0.0617229223717004	2	1	NaN	1557450.1972707	NaN	1557451.1807031	1557451.69724528
8	22	0	0	90	36.1581920903955	36.241610738255	15	0.500034840032458	2	3	6	NaN	1	4	0.0380890645878151	0	1	NaN	139	3	13	2	120	220	320	NaN	520	0.182135917246342	1	1	NaN	1557452.5807413	NaN	1557453.5643179	1557454.08081618
8	22	0	0	90	36.1581920903955	36.241610738255	18	0.60004180803895	2	2	3	NaN	1	5	0.0380890645878151	0	1	NaN	140	3	14	2	120	220	320	NaN	520	0.207924617221579	2	0	NaN	1557455.5311662	NaN	1557456.514576	1557457.03110258
8	22	0	0	90	36.1581920903955	36.241610738255	16	0.533370496034622	2	1	4	NaN	1	3	0.0380890645878151	0	1	NaN	141	3	15	2	120	220	320	NaN	520	0.169226669706404	1	1	NaN	1557458.8981398	NaN	1557459.881557	1557460.39809773
8	22	0	0	90	36.1581920903955	36.241610738255	12	0.400027872025967	2	10	2	NaN	2	5	0.0380890645878151	0	1	NaN	142	3	16	2	120	220	320	NaN	520	0.24610656988807	1	0	NaN	1557461.7652174	NaN	1557462.7484984	1557463.26505373
8	22	0	0	90	36.1581920903955	36.241610738255	11	0.366692216023803	2	1	5	NaN	1	4	0.0380890645878151	0	1	NaN	143	3	17	2	120	220	320	NaN	520	0.286437074886635	2	0	NaN	1557464.7487003	NaN	1557465.7321135	1557466.24867773
8	22	0	0	90	36.1581920903955	36.241610738255	11	0.366692216023803	2	6	2	NaN	1	5	0.0380890645878151	0	1	NaN	144	3	18	2	120	220	320	NaN	520	0.238020884804428	1	1	NaN	1557467.7490503	NaN	1557468.7324272	1557469.24897742
8	22	0	0	90	36.1581920903955	36.241610738255	19	0.633377464041114	2	6	4	NaN	1	5	0.0380890645878151	0	1	NaN	145	3	19	2	120	220	320	NaN	520	0.508807822363451	2	0	NaN	1557471.3660548	NaN	1557472.3494126	1557472.86599848
8	22	0	0	90	36.1581920903955	36.241610738255	21	0.700048776045442	2	6	6	NaN	1	3	0.0380890645878151	0	1	NaN	146	3	20	2	120	220	320	NaN	520	0.315961369778961	1	1	NaN	1557474.5830092	NaN	1557475.566438	1557476.08297483
8	22	0	0	90	36.1581920903955	36.241610738255	7	0.233349592015147	2	3	1	NaN	1	3	0.0380890645878151	0	1	NaN	147	3	21	2	120	220	320	NaN	520	0.328072569798678	2	0	NaN	1557477.483313	NaN	1557478.4666941	1557478.98326763
8	22	0	0	90	36.1581920903955	36.241610738255	21	0.700048776045442	2	6	2	NaN	1	3	0.0380890645878151	0	1	NaN	148	3	22	2	120	220	320	NaN	520	0.237849722150713	1	1	NaN	1557480.1334702	NaN	1557481.1169683	1557481.63352688
8	22	0	0	90	36.1581920903955	36.241610738255	22	0.733384432047606	2	1	1	NaN	1	3	0.0380890645878151	0	1	NaN	149	3	23	2	120	220	320	NaN	520	0.182581222383305	1	1	NaN	1557482.7005039	NaN	1557483.6839003	1557484.20044248
8	22	0	0	90	36.1581920903955	36.241610738255	16	0.533370496034622	2	12	1	NaN	2	5	0.0380890645878151	0	1	NaN	150	3	24	2	120	220	320	NaN	520	0.242447269614786	1	0	NaN	1557485.200686	NaN	1557486.1841445	1557486.70068083
8	22	0	0	90	36.1581920903955	36.241610738255	15	0.500034840032458	2	12	4	NaN	2	3	0.0380890645878151	0	1	NaN	151	3	25	2	120	220	320	NaN	520	0.323773722397164	1	0	NaN	1557487.767688	NaN	1557488.7510625	1557489.26761458
8	22	0	0	90	36.1581920903955	36.241610738255	10	0.333356560021639	2	12	2	NaN	2	5	0.0380890645878151	0	1	NaN	152	3	26	2	120	220	320	NaN	520	0.289291079621762	2	1	NaN	1557490.4179473	NaN	1557491.4013237	1557491.91786172
8	22	0	0	90	36.1581920903955	36.241610738255	19	0.633377464041114	2	3	5	NaN	1	3	0.0380890645878151	0	1	NaN	153	3	27	2	120	220	320	NaN	520	0.264524574857205	1	1	NaN	1557493.0348628	NaN	1557494.0182484	1557494.53479863
8	22	0	0	90	36.1581920903955	36.241610738255	22	0.733384432047606	2	9	5	NaN	2	3	0.0380890645878151	0	1	NaN	154	3	28	2	120	220	320	NaN	520	0.0407656223978847	1	0	NaN	1557495.6183983	NaN	1557496.60181	1557497.11838318
8	22	0	0	90	36.1581920903955	36.241610738255	6	0.200013936012983	2	8	6	NaN	2	5	0.0380890645878151	0	1	NaN	155	3	29	2	120	220	320	NaN	520	0.186562422197312	1	0	NaN	1557497.9685369	NaN	1557498.9521192	1557499.46860998
8	22	0	0	90	36.1581920903955	36.241610738255	10	0.333356560021639	2	5	4	NaN	1	3	0.0380890645878151	0	1	NaN	156	3	30	2	120	220	320	NaN	520	0.308082317234948	1	1	NaN	1557500.718799	NaN	1557501.702317	1557502.21887178
8	22	0	0	90	36.1581920903955	36.241610738255	16	0.533370496034622	2	3	2	NaN	1	4	0.0380890645878151	0	1	NaN	157	3	31	2	120	220	320	NaN	520	0.482462764950469	1	1	NaN	1557503.3524304	NaN	1557504.335934	1557504.85246304
8	22	0	0	90	36.1581920903955	36.241610738255	18	0.60004180803895	2	8	2	NaN	2	4	0.0380890645878151	0	1	NaN	158	3	32	2	120	220	320	NaN	520	0.322605212219059	2	1	NaN	1557506.1526749	NaN	1557507.1362093	1557507.65273929
8	22	0	0	90	36.1581920903955	36.241610738255	7	0.233349592015147	2	10	3	NaN	2	5	0.0380890645878151	0	1	NaN	159	3	33	2	120	220	320	NaN	520	0.192263022297993	1	0	NaN	1557508.8030484	NaN	1557509.7864405	1557510.30300828
8	22	0	0	90	36.1581920903955	36.241610738255	7	0.233349592015147	2	2	6	NaN	1	5	0.0380890645878151	0	1	NaN	160	3	34	2	120	220	320	NaN	520	0.0104269697330892	2	0	NaN	1557511.6365621	NaN	1557512.6200962	1557513.13660883
8	22	0	0	90	36.1581920903955	36.241610738255	20	0.666713120043278	2	7	6	NaN	2	3	0.0380890645878151	0	1	NaN	161	3	35	2	120	220	320	NaN	520	0.205164822284132	1	0	NaN	1557514.2701912	NaN	1557515.2536629	1557515.77021258
8	22	0	0	90	36.1581920903955	36.241610738255	0	0	1	7	4	NaN	2	3	0.0380890645878151	0	1	NaN	162	3	36	2	110	210	310	NaN	510	0.081893369788304	1	0	NaN	1557517.1372179	NaN	1557518.1206256	1557518.63715553
8	22	0	0	90	36.1581920903955	36.241610738255	7	0.233349592015147	2	9	6	NaN	2	5	0.0380890645878151	0	1	NaN	163	3	37	2	120	220	320	NaN	520	0.082343669841066	2	1	NaN	1557519.9208182	NaN	1557520.9042069	1557521.42076903
8	22	0	0	90	36.1581920903955	36.241610738255	9	0.300020904019475	2	10	3	NaN	2	4	0.0380890645878151	0	1	NaN	164	3	38	2	120	220	320	NaN	520	0.114833164727315	1	0	NaN	1557522.7044071	NaN	1557523.6878124	1557524.20436804
8	22	0	0	90	36.1581920903955	36.241610738255	11	0.366692216023803	2	5	6	NaN	1	4	0.0380890645878151	0	1	NaN	165	3	39	2	120	220	320	NaN	520	0.192962164757773	1	1	NaN	1557525.5379061	NaN	1557526.5214482	1557527.03797184
8	22	0	0	90	36.1581920903955	36.241610738255	19	0.633377464041114	2	10	5	NaN	2	4	0.0380890645878151	0	1	NaN	166	3	40	2	120	220	320	NaN	520	0.229735512053594	2	1	NaN	1557528.4216347	NaN	1557529.4050646	1557529.92158709
8	22	0	0	90	36.1581920903955	36.241610738255	22	0.733384432047606	2	8	1	NaN	2	3	0.0380890645878151	0	1	NaN	167	3	41	2	120	220	320	NaN	520	0.223347012186423	1	0	NaN	1557530.9719078	NaN	1557531.9552779	1557532.47184629
8	22	0	0	90	36.1581920903955	36.241610738255	14	0.466699184030294	2	12	3	NaN	2	3	0.0380890645878151	0	1	NaN	168	3	42	2	120	220	320	NaN	520	0.0103915224317461	2	1	NaN	1557536.9224508	NaN	1557537.9059292	1557538.42245118
8	22	0	0	90	36.1581920903955	36.241610738255	13	0.43336352802813	2	7	5	NaN	2	5	0.0380890645878151	0	1	NaN	169	3	43	2	120	220	320	NaN	520	0.010396322235465	1	0	NaN	1557539.3227275	NaN	1557540.3061348	1557540.82266278
8	22	0	0	90	36.1581920903955	36.241610738255	17	0.566706152036786	2	2	5	NaN	1	4	0.0380890645878151	0	1	NaN	170	3	44	2	120	220	320	NaN	520	0.331460969755426	2	0	NaN	1557542.0396336	NaN	1557543.0230512	1557543.53960243
8	22	0	0	90	36.1581920903955	36.241610738255	25	0.833391400054097	2	12	1	NaN	2	5	0.0380890645878151	0	1	NaN	171	3	45	2	120	220	320	NaN	520	0.314272469840944	1	0	NaN	1557545.0731613	NaN	1557546.0566767	1557546.57323513
8	22	0	0	90	36.1581920903955	36.241610738255	25	0.833391400054097	2	9	3	NaN	2	3	0.0380890645878151	0	1	NaN	172	3	46	2	120	220	320	NaN	520	0.189735469641164	2	1	NaN	1557547.7734639	NaN	1557548.75697	1557549.27349023
8	22	0	0	90	36.1581920903955	36.241610738255	20	0.666713120043278	2	2	2	NaN	1	3	0.0380890645878151	0	1	NaN	173	3	47	2	120	220	320	NaN	520	0.304684622213244	1	1	NaN	1557550.2904478	NaN	1557551.2738549	1557551.79041548
8	22	0	0	90	36.1581920903955	36.241610738255	8	0.266685248017311	2	8	6	NaN	2	5	0.0380890645878151	0	1	NaN	174	3	48	2	120	220	320	NaN	520	0.127142322249711	2	1	NaN	1557552.9240676	NaN	1557553.9074747	1557554.42400588
8	22	0	0	90	36.1581920903955	36.241610738255	21	0.700048776045442	2	12	5	NaN	2	3	0.0380890645878151	0	1	NaN	175	3	49	2	120	220	320	NaN	520	0.164210299961269	1	0	NaN	1557555.9910285	NaN	1557556.9744295	1557557.4909946
8	22	0	0	90	36.1581920903955	36.241610738255	20	0.666713120043278	2	6	4	NaN	1	3	0.0380890645878151	0	1	NaN	176	3	50	2	120	220	320	NaN	520	0.200736169703305	2	0	NaN	1557558.4746944	NaN	1557559.4579906	1557559.97454473
8	22	0	0	90	36.1581920903955	36.241610738255	14	0.466699184030294	2	2	4	NaN	1	5	0.0380890645878151	0	1	NaN	177	3	51	2	120	220	320	NaN	520	0.162969822296873	1	1	NaN	1557561.2081945	NaN	1557562.1916	1557562.70814778
8	22	0	0	90	36.1581920903955	36.241610738255	22	0.733384432047606	2	7	6	NaN	2	4	0.0380890645878151	0	1	NaN	178	3	52	2	120	220	320	NaN	520	0.135454869829118	1	0	NaN	1557563.6917988	NaN	1557564.6751923	1557565.19171793
8	22	0	0	90	36.1581920903955	36.241610738255	15	0.500034840032458	2	5	4	NaN	1	4	0.0380890645878151	0	1	NaN	179	3	53	2	120	220	320	NaN	520	0.237103617051616	1	1	NaN	1557566.1420019	NaN	1557567.1254141	1557567.64196438
8	22	0	0	90	36.1581920903955	36.241610738255	25	0.833391400054097	2	11	1	NaN	2	4	0.0380890645878151	0	1	NaN	180	3	54	2	120	220	320	NaN	520	0.190987322246656	2	1	NaN	1557568.6922738	NaN	1557569.6756597	1557570.19223938
8	22	0	0	90	36.1581920903955	36.241610738255	18	0.60004180803895	2	5	6	NaN	1	5	0.0380890645878151	0	1	NaN	181	3	55	2	120	220	320	NaN	520	0.0103931224439293	2	0	NaN	1557571.2091767	NaN	1557572.1925875	1557572.70913198
8	22	0	0	90	36.1581920903955	36.241610738255	16	0.533370496034622	2	11	6	NaN	2	5	0.0380890645878151	0	1	NaN	182	3	56	2	120	220	320	NaN	520	0.238188864663243	1	0	NaN	1557573.9093299	NaN	1557574.892864	1557575.40939004
8	22	0	0	90	36.1581920903955	36.241610738255	0	0	1	6	1	NaN	1	4	0.0380890645878151	0	1	NaN	183	3	57	2	110	210	310	NaN	510	0.0104667225386947	1	1	NaN	1557577.6763735	NaN	1557578.6598679	1557579.17643208
8	22	0	0	90	36.1581920903955	36.241610738255	11	0.366692216023803	2	11	2	NaN	2	5	0.0380890645878151	0	1	NaN	184	3	58	2	120	220	320	NaN	520	0.161304469686002	2	1	NaN	1557580.010158	NaN	1557580.9934591	1557581.50999323
8	22	0	0	90	36.1581920903955	36.241610738255	11	0.366692216023803	2	12	4	NaN	2	4	0.0380890645878151	0	1	NaN	185	3	59	2	120	220	320	NaN	520	0.485376422293484	2	1	NaN	1557582.4935283	NaN	1557583.4770438	1557583.99357568
8	22	0	0	90	36.1581920903955	36.241610738255	7	0.233349592015147	2	6	3	NaN	1	3	0.0380890645878151	0	1	NaN	186	3	60	2	120	220	320	NaN	520	0.51721066981554	1	1	NaN	1557585.6938296	NaN	1557586.6774029	1557587.19388443
8	22	0	0	90	36.1581920903955	36.241610738255	11	0.366692216023803	2	9	4	NaN	2	5	0.0380890645878151	0	1	NaN	187	3	61	2	120	220	320	NaN	520	0.330300322500989	1	0	NaN	1557588.960809	NaN	1557589.9443185	1557590.46086788
8	22	0	0	90	36.1581920903955	36.241610738255	10	0.333356560021639	2	8	5	NaN	2	5	0.0380890645878151	0	1	NaN	188	3	62	2	120	220	320	NaN	520	0.408332369755954	2	1	NaN	1557591.6111967	NaN	1557592.5945996	1557593.11113353
8	22	0	0	90	36.1581920903955	36.241610738255	18	0.60004180803895	2	4	6	NaN	1	3	0.0380890645878151	0	1	NaN	189	3	63	2	120	220	320	NaN	520	0.259152822429314	2	0	NaN	1557594.3279469	NaN	1557595.3115174	1557595.82806748
8	22	0	0	90	36.1581920903955	36.241610738255	18	0.60004180803895	2	12	5	NaN	2	4	0.0380890645878151	0	1	NaN	190	4	1	2	120	220	320	NaN	520	0.459171622525901	2	1	NaN	1557600.5120429	NaN	1557601.4954546	1557602.01200838
8	22	0	0	90	36.1581920903955	36.241610738255	21	0.700048776045442	2	10	4	NaN	2	5	0.0380890645878151	0	1	NaN	191	4	2	2	120	220	320	NaN	520	0.123628554400057	1	0	NaN	1557603.2956647	NaN	1557604.2790577	1557604.79560865
8	22	0	0	90	36.1581920903955	36.241610738255	17	0.566706152036786	2	10	3	NaN	2	4	0.0380890645878151	0	1	NaN	192	4	3	2	120	220	320	NaN	520	0.245265222387388	2	1	NaN	1557606.2459508	NaN	1557607.2293632	1557607.74589798
8	22	0	0	90	36.1581920903955	36.241610738255	14	0.466699184030294	2	6	1	NaN	1	3	0.0380890645878151	0	1	NaN	193	4	4	2	120	220	320	NaN	520	0.487151169683784	2	0	NaN	1557608.7962303	NaN	1557609.7795973	1557610.29615153
8	22	0	0	90	36.1581920903955	36.241610738255	0	0	1	6	2	NaN	1	4	0.0380890645878151	0	1	NaN	194	4	5	2	110	210	310	NaN	510	0.265227064723149	1	1	NaN	1557611.7297281	NaN	1557612.713247	1557613.22978004
8	22	0	0	90	36.1581920903955	36.241610738255	18	0.60004180803895	2	12	3	NaN	2	5	0.0380890645878151	0	1	NaN	195	4	6	2	120	220	320	NaN	520	0.225224969675764	2	1	NaN	1557614.3301007	NaN	1557615.3135234	1557615.83003073
8	22	0	0	90	36.1581920903955	36.241610738255	22	0.733384432047606	2	7	1	NaN	2	5	0.0380890645878151	0	1	NaN	196	4	7	2	120	220	320	NaN	520	0.395243422361091	1	0	NaN	1557616.8803367	NaN	1557617.8636373	1557618.38027838
8	22	0	0	90	36.1581920903955	36.241610738255	0	0	1	2	5	NaN	1	3	0.0380890645878151	0	1	NaN	197	4	8	2	110	210	310	NaN	510	0.0103509798645973	1	1	NaN	1557619.5972796	NaN	1557620.5806643	1557621.09721332
8	22	0	0	90	36.1581920903955	36.241610738255	6	0.200013936012983	2	9	2	NaN	2	5	0.0380890645878151	0	1	NaN	198	4	9	2	120	220	320	NaN	520	0.316981969634071	1	0	NaN	1557622.0140708	NaN	1557622.9975852	1557623.51412073
8	22	0	0	90	36.1581920903955	36.241610738255	23	0.766720088049769	2	3	4	NaN	1	3	0.0380890645878151	0	1	NaN	199	4	10	2	120	220	320	NaN	520	0.499785317108035	1	1	NaN	1557624.647889	NaN	1557625.6311673	1557626.14770198
8	22	0	0	90	36.1581920903955	36.241610738255	11	0.366692216023803	2	3	4	NaN	1	3	0.0380890645878151	0	1	NaN	200	4	11	2	120	220	320	NaN	520	0.506271822378039	1	1	NaN	1557627.4813574	NaN	1557628.4647837	1557628.98132168
8	22	0	0	90	36.1581920903955	36.241610738255	16	0.533370496034622	2	7	3	NaN	2	4	0.0380890645878151	0	1	NaN	201	4	12	2	120	220	320	NaN	520	0.359745117137209	1	0	NaN	1557630.7316915	NaN	1557631.7151005	1557632.23163238
8	22	0	0	90	36.1581920903955	36.241610738255	23	0.766720088049769	2	5	4	NaN	1	4	0.0380890645878151	0	1	NaN	202	4	13	2	120	220	320	NaN	520	0.492002974729985	2	0	NaN	1557633.4153165	NaN	1557634.398703	1557634.91523933
8	22	0	0	90	36.1581920903955	36.241610738255	13	0.43336352802813	2	4	1	NaN	1	5	0.0380890645878151	0	1	NaN	203	4	14	2	120	220	320	NaN	520	0.660067722201347	1	1	NaN	1557636.215562	NaN	1557637.1989752	1557637.71551618
8	22	0	0	90	36.1581920903955	36.241610738255	7	0.233349592015147	2	2	4	NaN	1	4	0.0380890645878151	0	1	NaN	204	4	15	2	120	220	320	NaN	520	0.748018274782225	1	1	NaN	1557639.1990781	NaN	1557640.1825965	1557640.69914003
8	22	0	0	90	36.1581920903955	36.241610738255	23	0.766720088049769	2	10	2	NaN	2	3	0.0380890645878151	0	1	NaN	205	4	16	2	120	220	320	NaN	520	1.35813802736811	1	0	NaN	1557642.9494445	NaN	1557643.9329578	1557644.44950247
8	22	0	0	90	36.1581920903955	36.241610738255	24	0.800055744051933	2	9	6	NaN	2	5	0.0380890645878151	0	1	NaN	206	4	17	2	120	220	320	NaN	520	0.8260481224861	1	0	NaN	1557647.6333437	NaN	1557648.6167691	1557649.13329648
8	22	0	0	90	36.1581920903955	36.241610738255	16	0.533370496034622	2	12	1	NaN	2	5	0.0380890645878151	0	1	NaN	207	4	18	2	120	220	320	NaN	520	1.01951062236913	1	0	NaN	1557650.7836846	NaN	1557651.7670565	1557652.28360658
8	22	0	0	90	36.1581920903955	36.241610738255	21	0.700048776045442	2	11	5	NaN	2	5	0.0380890645878151	0	1	NaN	208	4	19	2	120	220	320	NaN	520	0.725613822229207	1	0	NaN	1557654.1338928	NaN	1557655.1174234	1557655.63395508
8	22	0	0	90	36.1581920903955	36.241610738255	24	0.800055744051933	2	9	2	NaN	2	5	0.0380890645878151	0	1	NaN	209	4	20	2	120	220	320	NaN	520	0.907659069867805	1	0	NaN	1557657.1675087	NaN	1557658.1510222	1557658.66756313
8	22	0	0	90	36.1581920903955	36.241610738255	17	0.566706152036786	2	10	6	NaN	2	3	0.0380890645878151	0	1	NaN	210	4	21	2	120	220	320	NaN	520	0.274195722537115	2	1	NaN	1557660.4012897	NaN	1557661.3846834	1557661.90121838
8	22	0	0	90	36.1581920903955	36.241610738255	8	0.266685248017311	2	12	5	NaN	2	5	0.0380890645878151	0	1	NaN	211	4	22	2	120	220	320	NaN	520	0.18657496990636	1	0	NaN	1557662.9847765	NaN	1557663.9682698	1557664.48480513
8	22	0	0	90	36.1581920903955	36.241610738255	0	0	1	1	1	NaN	1	5	0.0380890645878151	0	1	NaN	212	4	23	2	110	210	310	NaN	510	0.134340422460809	1	1	NaN	1557665.4850894	NaN	1557666.4685242	1557666.98505068
8	22	0	0	90	36.1581920903955	36.241610738255	21	0.700048776045442	2	1	5	NaN	1	4	0.0380890645878151	0	1	NaN	213	4	24	2	120	220	320	NaN	520	0.731611869763583	1	1	NaN	1557667.952019	NaN	1557668.9354007	1557669.45196293
8	22	0	0	90	36.1581920903955	36.241610738255	25	0.833391400054097	2	8	5	NaN	2	5	0.0380890645878151	0	1	NaN	214	4	25	2	120	220	320	NaN	520	0.0103923224378377	1	0	NaN	1557671.652362	NaN	1557672.6357875	1557673.15231728
8	22	0	0	90	36.1581920903955	36.241610738255	0	0	1	12	1	NaN	2	4	0.0380890645878151	0	1	NaN	215	4	26	2	110	210	310	NaN	510	0.682040617102757	1	0	NaN	1557674.3692974	NaN	1557675.352723	1557675.86925068
8	22	0	0	90	36.1581920903955	36.241610738255	15	0.500034840032458	2	2	6	NaN	1	5	0.0380890645878151	0	1	NaN	216	4	27	2	120	220	320	NaN	520	0.897743274690583	1	1	NaN	1557677.3694895	NaN	1557678.3530136	1557678.86955493
8	22	0	0	90	36.1581920903955	36.241610738255	19	0.633377464041114	2	12	2	NaN	2	4	0.0380890645878151	0	1	NaN	217	4	28	2	120	220	320	NaN	520	0.633000412257388	1	0	NaN	1557680.5864719	NaN	1557681.5699789	1557682.08652319
8	22	0	0	90	36.1581920903955	36.241610738255	9	0.300020904019475	2	8	4	NaN	2	3	0.0380890645878151	0	1	NaN	218	4	29	2	120	220	320	NaN	520	0.68279922241345	1	0	NaN	1557683.536886	NaN	1557684.5203105	1557685.03684078
8	22	0	0	90	36.1581920903955	36.241610738255	17	0.566706152036786	2	5	1	NaN	1	4	0.0380890645878151	0	1	NaN	219	4	30	2	120	220	320	NaN	520	1.68444331712089	1	1	NaN	1557686.8870891	NaN	1557687.870694	1557688.38714938
8	22	0	0	90	36.1581920903955	36.241610738255	6	0.200013936012983	2	1	3	NaN	1	4	0.0380890645878151	0	1	NaN	220	4	31	2	120	220	320	NaN	520	0.818696364527568	1	1	NaN	1557691.5209557	NaN	1557692.5044056	1557693.02094184
8	22	0	0	90	36.1581920903955	36.241610738255	0	0	1	12	6	NaN	2	3	0.0380890645878151	0	1	NaN	221	4	32	2	110	210	310	NaN	510	0.159498269669712	1	0	NaN	1557696.1880734	NaN	1557697.1715204	1557697.68805983
8	22	0	0	90	36.1581920903955	36.241610738255	14	0.466699184030294	2	7	3	NaN	2	5	0.0380890645878151	0	1	NaN	222	4	33	2	120	220	320	NaN	520	0.0105304496828467	2	1	NaN	1557699.3384124	NaN	1557700.3218304	1557700.83836535
8	22	0	0	90	36.1581920903955	36.241610738255	23	0.766720088049769	2	12	2	NaN	2	5	0.0380890645878151	0	1	NaN	223	4	34	2	120	220	320	NaN	520	0.372403517132625	2	1	NaN	1557703.2388031	NaN	1557704.2222219	1557704.73876058
8	22	0	0	90	36.1581920903955	36.241610738255	18	0.60004180803895	2	9	1	NaN	2	3	0.0380890645878151	0	1	NaN	224	4	35	2	120	220	320	NaN	520	0.352587269851938	2	1	NaN	1557705.9390896	NaN	1557706.9224488	1557707.43902503
8	22	0	0	90	36.1581920903955	36.241610738255	21	0.700048776045442	2	4	6	NaN	1	3	0.0380890645878151	0	1	NaN	225	4	36	2	120	220	320	NaN	520	0.293691469822079	2	0	NaN	1557708.6059063	NaN	1557709.5894104	1557710.10595073
8	22	0	0	90	36.1581920903955	36.241610738255	11	0.366692216023803	2	10	1	NaN	2	4	0.0380890645878151	0	1	NaN	226	4	37	2	120	220	320	NaN	520	0.244529722491279	1	0	NaN	1557711.2229667	NaN	1557712.2063257	1557712.72287238
8	22	0	0	90	36.1581920903955	36.241610738255	6	0.200013936012983	2	4	2	NaN	1	3	0.0380890645878151	0	1	NaN	227	4	38	2	120	220	320	NaN	520	0.453445122344419	2	0	NaN	1557713.7898658	NaN	1557714.7732283	1557715.28979628
8	22	0	0	90	36.1581920903955	36.241610738255	6	0.200013936012983	2	12	3	NaN	2	5	0.0380890645878151	0	1	NaN	228	4	39	2	120	220	320	NaN	520	0.85611592233181	2	1	NaN	1557718.7236488	NaN	1557719.7070843	1557720.22360558
8	22	0	0	90	36.1581920903955	36.241610738255	24	0.800055744051933	2	8	1	NaN	2	4	0.0380890645878151	0	1	NaN	229	4	40	2	120	220	320	NaN	520	0.230626569828019	1	0	NaN	1557725.3409495	NaN	1557726.3243842	1557726.84092023
8	22	0	0	90	36.1581920903955	36.241610738255	13	0.43336352802813	2	4	4	NaN	1	4	0.0380890645878151	0	1	NaN	230	4	41	2	120	220	320	NaN	520	0.33638727478683	2	0	NaN	1557728.2912742	NaN	1557729.2746739	1557729.79122163
8	22	0	0	90	36.1581920903955	36.241610738255	14	0.466699184030294	2	9	1	NaN	2	4	0.0380890645878151	0	1	NaN	231	4	42	2	120	220	320	NaN	520	0.234826917061582	1	0	NaN	1557731.4248798	NaN	1557732.408301	1557732.92485348
8	22	0	0	90	36.1581920903955	36.241610738255	16	0.533370496034622	2	4	6	NaN	1	5	0.0380890645878151	0	1	NaN	232	4	43	2	120	220	320	NaN	520	0.228315117303282	2	0	NaN	1557733.9750908	NaN	1557734.9586556	1557735.47511278
8	22	0	0	90	36.1581920903955	36.241610738255	19	0.633377464041114	2	10	5	NaN	2	4	0.0380890645878151	0	1	NaN	233	4	44	2	120	220	320	NaN	520	0.40043466957286	1	0	NaN	1557736.8754324	NaN	1557737.8588608	1557738.37538853
8	22	0	0	90	36.1581920903955	36.241610738255	23	0.766720088049769	2	6	4	NaN	1	5	0.0380890645878151	0	1	NaN	234	4	45	2	120	220	320	NaN	520	0.267104222439229	2	0	NaN	1557739.5922623	NaN	1557740.5758422	1557741.09232588
8	22	0	0	90	36.1581920903955	36.241610738255	20	0.666713120043278	2	10	4	NaN	2	4	0.0380890645878151	0	1	NaN	235	4	46	2	120	220	320	NaN	520	0.195459979819134	1	0	NaN	1557742.1758872	NaN	1557743.1594399	1557743.67591532
8	22	0	0	90	36.1581920903955	36.241610738255	9	0.300020904019475	2	6	4	NaN	1	4	0.0380890645878151	0	1	NaN	236	4	47	2	120	220	320	NaN	520	0.23071312229149	1	1	NaN	1557744.6928745	NaN	1557745.6762764	1557746.19283368
8	22	0	0	90	36.1581920903955	36.241610738255	18	0.60004180803895	2	11	5	NaN	2	5	0.0380890645878151	0	1	NaN	237	4	48	2	120	220	320	NaN	520	0.296278569847345	1	0	NaN	1557747.2430071	NaN	1557748.2265204	1557748.74306893
8	22	0	0	90	36.1581920903955	36.241610738255	7	0.233349592015147	2	6	6	NaN	1	4	0.0380890645878151	0	1	NaN	238	4	49	2	120	220	320	NaN	520	0.38474177964963	2	0	NaN	1557750.2267457	NaN	1557751.2102031	1557751.72671972
8	22	0	0	90	36.1581920903955	36.241610738255	12	0.400027872025967	2	9	4	NaN	2	4	0.0380890645878151	0	1	NaN	239	4	50	2	120	220	320	NaN	520	0.228527027415112	1	0	NaN	1557752.9270419	NaN	1557753.9104201	1557754.42696297
8	22	0	0	90	36.1581920903955	36.241610738255	23	0.766720088049769	2	12	4	NaN	2	3	0.0380890645878151	0	1	NaN	240	4	51	2	120	220	320	NaN	520	0.262442822335288	1	0	NaN	1557755.4772858	NaN	1557756.4606696	1557756.97722768
8	22	0	0	90	36.1581920903955	36.241610738255	25	0.833391400054097	2	9	5	NaN	2	5	0.0380890645878151	0	1	NaN	241	4	52	2	120	220	320	NaN	520	0.190745779778808	1	0	NaN	1557758.0607383	NaN	1557759.0442587	1557759.56081282
8	22	0	0	90	36.1581920903955	36.241610738255	12	0.400027872025967	2	9	3	NaN	2	4	0.0380890645878151	0	1	NaN	242	4	53	2	120	220	320	NaN	520	0.306026022415608	2	1	NaN	1557760.5777835	NaN	1557761.5611778	1557762.07771768
8	22	0	0	90	36.1581920903955	36.241610738255	12	0.400027872025967	2	12	4	NaN	2	5	0.0380890645878151	0	1	NaN	243	4	54	2	120	220	320	NaN	520	0.496072612004355	1	0	NaN	1557763.2114096	NaN	1557764.1947772	1557764.71130309
8	22	0	0	90	36.1581920903955	36.241610738255	20	0.666713120043278	2	11	1	NaN	2	4	0.0380890645878151	0	1	NaN	244	4	55	2	120	220	320	NaN	520	0.279116917168722	2	1	NaN	1557766.0283052	NaN	1557767.0117167	1557767.52824768
8	22	0	0	90	36.1581920903955	36.241610738255	17	0.566706152036786	2	1	6	NaN	1	4	0.0380890645878151	0	1	NaN	245	4	56	2	120	220	320	NaN	520	0.35873022233136	1	1	NaN	1557768.6285471	NaN	1557769.6119838	1557770.12851288
8	22	0	0	90	36.1581920903955	36.241610738255	6	0.200013936012983	2	12	5	NaN	2	5	0.0380890645878151	0	1	NaN	246	4	57	2	120	220	320	NaN	520	0.29161416972056	1	0	NaN	1557771.3121781	NaN	1557772.2955668	1557772.81210493
8	22	0	0	90	36.1581920903955	36.241610738255	9	0.300020904019475	2	2	4	NaN	1	3	0.0380890645878151	0	1	NaN	247	4	58	2	120	220	320	NaN	520	0.410226322477683	2	0	NaN	1557773.9290816	NaN	1557774.9124922	1557775.42902968
8	22	0	0	90	36.1581920903955	36.241610738255	17	0.566706152036786	2	7	3	NaN	2	5	0.0380890645878151	0	1	NaN	248	4	59	2	120	220	320	NaN	520	0.0528213172219694	1	0	NaN	1557776.6627185	NaN	1557777.646065	1557778.16262348
8	22	0	0	90	36.1581920903955	36.241610738255	20	0.666713120043278	2	7	6	NaN	2	3	0.0380890645878151	0	1	NaN	249	4	60	2	120	220	320	NaN	520	0.26185626978986	2	1	NaN	1557779.0295889	NaN	1557780.013005	1557780.52953183
8	22	0	0	90	36.1581920903955	36.241610738255	8	0.266685248017311	2	10	1	NaN	2	5	0.0380890645878151	0	1	NaN	250	4	61	2	120	220	320	NaN	520	0.358357117278501	1	0	NaN	1557781.613186	NaN	1557782.5965736	1557783.11311888
8	22	0	0	90	36.1581920903955	36.241610738255	15	0.500034840032458	2	9	6	NaN	2	5	0.0380890645878151	0	1	NaN	251	4	62	2	120	220	320	NaN	520	0.250590622425079	1	0	NaN	1557784.2967833	NaN	1557785.2801783	1557785.79671918
8	22	0	0	90	36.1581920903955	36.241610738255	23	0.766720088049769	2	4	4	NaN	1	3	0.0380890645878151	0	1	NaN	252	4	63	2	120	220	320	NaN	520	0.295052469708025	2	0	NaN	1557787.1969944	NaN	1557788.1804579	1557788.69699893
8	22	0	0	90	36.1581920903955	36.241610738255	8	0.266685248017311	2	11	6	NaN	2	5	0.0380890645878151	0	1	NaN	253	5	1	2	120	220	320	NaN	520	0.214501222362742	1	0	NaN	1557792.1975297	NaN	1557793.1809469	1557793.69749008
8	22	0	0	90	36.1581920903955	36.241610738255	18	0.60004180803895	2	3	2	NaN	1	5	0.0380890645878151	0	1	NaN	254	5	2	2	120	220	320	NaN	520	0.266715522389859	2	0	NaN	1557795.0811487	NaN	1557796.0645721	1557796.58110488
8	22	0	0	90	36.1581920903955	36.241610738255	16	0.533370496034622	2	11	5	NaN	2	3	0.0380890645878151	0	1	NaN	255	5	3	2	120	220	320	NaN	520	0.106960122473538	2	1	NaN	1557798.0647913	NaN	1557799.0481809	1557799.56473088
8	22	0	0	90	36.1581920903955	36.241610738255	19	0.633377464041114	2	11	6	NaN	2	3	0.0380890645878151	0	1	NaN	256	5	4	2	120	220	320	NaN	520	0.265224369708449	1	0	NaN	1557800.8984071	NaN	1557801.8817825	1557802.39833833
8	22	0	0	90	36.1581920903955	36.241610738255	21	0.700048776045442	2	3	6	NaN	1	4	0.0380890645878151	0	1	NaN	257	5	5	2	120	220	320	NaN	520	0.401384184602648	1	1	NaN	1557803.4819739	NaN	1557804.4653976	1557804.98193512
8	22	0	0	90	36.1581920903955	36.241610738255	17	0.566706152036786	2	9	4	NaN	2	4	0.0380890645878151	0	1	NaN	258	5	6	2	120	220	320	NaN	520	0.295938169816509	1	0	NaN	1557806.7156253	NaN	1557807.6990498	1557808.21558923
8	22	0	0	90	36.1581920903955	36.241610738255	25	0.833391400054097	2	3	4	NaN	1	5	0.0380890645878151	0	1	NaN	259	5	7	2	120	220	320	NaN	520	0.316312522161752	2	0	NaN	1557812.1994727	NaN	1557813.1828958	1557813.69945108
8	22	0	0	90	36.1581920903955	36.241610738255	24	0.800055744051933	2	6	5	NaN	1	4	0.0380890645878151	0	1	NaN	260	5	8	2	120	220	320	NaN	520	0.348804917186499	1	1	NaN	1557815.1830686	NaN	1557816.1665618	1557816.68307978
8	22	0	0	90	36.1581920903955	36.241610738255	19	0.633377464041114	2	6	2	NaN	1	5	0.0380890645878151	0	1	NaN	261	5	9	2	120	220	320	NaN	520	0.393569690175354	2	0	NaN	1557817.8500636	NaN	1557818.8334553	1557819.35000641
8	22	0	0	90	36.1581920903955	36.241610738255	21	0.700048776045442	2	3	3	NaN	1	3	0.0380890645878151	0	1	NaN	262	5	10	2	120	220	320	NaN	520	0.421533132437617	1	1	NaN	1557821.5502988	NaN	1557822.5338175	1557823.05037997
8	22	0	0	90	36.1581920903955	36.241610738255	21	0.700048776045442	2	2	6	NaN	1	3	0.0380890645878151	0	1	NaN	263	5	11	2	120	220	320	NaN	520	0.406200842233375	2	0	NaN	1557824.7173886	NaN	1557825.7009258	1557826.21735096
8	22	0	0	90	36.1581920903955	36.241610738255	14	0.466699184030294	2	4	2	NaN	1	5	0.0380890645878151	0	1	NaN	264	5	12	2	120	220	320	NaN	520	0.568934316979721	1	1	NaN	1557827.4510054	NaN	1557828.4344072	1557828.95094538
8	22	0	0	90	36.1581920903955	36.241610738255	9	0.300020904019475	2	9	3	NaN	2	5	0.0380890645878151	0	1	NaN	265	5	13	2	120	220	320	NaN	520	0.745734622469172	1	0	NaN	1557832.2181229	NaN	1557833.2015518	1557833.71808788
8	22	0	0	90	36.1581920903955	36.241610738255	12	0.400027872025967	2	3	3	NaN	1	3	0.0380890645878151	0	1	NaN	266	5	14	2	120	220	320	NaN	520	0.502445479854941	2	0	NaN	1557835.2852009	NaN	1557836.2685473	1557836.78505552
8	22	0	0	90	36.1581920903955	36.241610738255	14	0.466699184030294	2	11	4	NaN	2	3	0.0380890645878151	0	1	NaN	267	5	15	2	120	220	320	NaN	520	0.325670122401789	1	0	NaN	1557838.1020739	NaN	1557839.0854473	1557839.60199658
8	22	0	0	90	36.1581920903955	36.241610738255	9	0.300020904019475	2	5	2	NaN	1	4	0.0380890645878151	0	1	NaN	268	5	16	2	120	220	320	NaN	520	0.467059922404587	2	0	NaN	1557840.7522762	NaN	1557841.7357141	1557842.25225838
8	22	0	0	90	36.1581920903955	36.241610738255	0	0	1	10	1	NaN	2	5	0.0380890645878151	0	1	NaN	269	5	17	2	110	210	310	NaN	510	0.682841069530696	1	0	NaN	1557843.5526161	NaN	1557844.5359732	1557845.05252853
8	22	0	0	90	36.1581920903955	36.241610738255	23	0.766720088049769	2	7	5	NaN	2	4	0.0380890645878151	0	1	NaN	270	5	18	2	120	220	320	NaN	520	0.3223369223997	2	1	NaN	1557846.5695564	NaN	1557847.5529258	1557848.06949598
8	22	0	0	90	36.1581920903955	36.241610738255	22	0.733384432047606	2	1	2	NaN	1	5	0.0380890645878151	0	1	NaN	271	5	19	2	120	220	320	NaN	520	0.46498886984773	1	1	NaN	1557849.5864319	NaN	1557850.569905	1557851.08645473
8	22	0	0	90	36.1581920903955	36.241610738255	0	0	1	3	6	NaN	1	4	0.0380890645878151	0	1	NaN	272	5	20	2	110	210	310	NaN	510	0.393627269659191	2	0	NaN	1557852.3701656	NaN	1557853.3535258	1557853.87005563
8	22	0	0	90	36.1581920903955	36.241610738255	23	0.766720088049769	2	3	3	NaN	1	4	0.0380890645878151	0	1	NaN	273	5	21	2	120	220	320	NaN	520	0.292707722168416	1	1	NaN	1557855.4870771	NaN	1557856.4704642	1557856.98703288
8	22	0	0	90	36.1581920903955	36.241610738255	21	0.700048776045442	2	7	2	NaN	2	5	0.0380890645878151	0	1	NaN	274	5	22	2	120	220	320	NaN	520	0.292245822492987	2	1	NaN	1557858.087364	NaN	1557859.0707596	1557859.58729398
8	22	0	0	90	36.1581920903955	36.241610738255	25	0.833391400054097	2	4	5	NaN	1	3	0.0380890645878151	0	1	NaN	275	5	23	2	120	220	320	NaN	520	0.49123902246356	2	0	NaN	1557860.7042717	NaN	1557861.6876792	1557862.20421378
8	22	0	0	90	36.1581920903955	36.241610738255	8	0.266685248017311	2	7	2	NaN	2	4	0.0380890645878151	0	1	NaN	276	5	24	2	120	220	320	NaN	520	0.610885564703494	2	1	NaN	1557863.5211419	NaN	1557864.5044939	1557865.02115094
8	22	0	0	90	36.1581920903955	36.241610738255	0	0	1	4	2	NaN	1	3	0.0380890645878151	0	1	NaN	277	5	25	2	110	210	310	NaN	510	0.324934490025043	1	1	NaN	1557866.4548472	NaN	1557867.4382254	1557867.95477911
8	22	0	0	90	36.1581920903955	36.241610738255	15	0.500034840032458	2	1	6	NaN	1	3	0.0380890645878151	0	1	NaN	278	5	26	2	120	220	320	NaN	520	0.299469469580799	1	1	NaN	1557870.6884358	NaN	1557871.6719779	1557872.18852003
8	22	0	0	90	36.1581920903955	36.241610738255	10	0.333356560021639	2	9	6	NaN	2	3	0.0380890645878151	0	1	NaN	279	5	27	2	120	220	320	NaN	520	0.363758474821225	1	0	NaN	1557873.6721624	NaN	1557874.6556122	1557875.17214973
8	22	0	0	90	36.1581920903955	36.241610738255	21	0.700048776045442	2	12	2	NaN	2	5	0.0380890645878151	0	1	NaN	280	5	28	2	120	220	320	NaN	520	0.327028969535604	2	1	NaN	1557876.7723973	NaN	1557877.7559171	1557878.27245443
8	22	0	0	90	36.1581920903955	36.241610738255	24	0.800055744051933	2	11	4	NaN	2	4	0.0380890645878151	0	1	NaN	281	5	29	2	120	220	320	NaN	520	0.261032317066565	1	0	NaN	1557879.422772	NaN	1557880.4062007	1557880.92271878
8	22	0	0	90	36.1581920903955	36.241610738255	13	0.43336352802813	2	10	4	NaN	2	3	0.0380890645878151	0	1	NaN	282	5	30	2	120	220	320	NaN	520	0.440234384732321	2	1	NaN	1557882.3390481	NaN	1557883.3231177	1557883.83966802
8	22	0	0	90	36.1581920903955	36.241610738255	13	0.43336352802813	2	7	1	NaN	2	5	0.0380890645878151	0	1	NaN	283	5	31	2	120	220	320	NaN	520	0.385337037267163	1	0	NaN	1557885.1066663	NaN	1557886.09004	1557886.60661016
8	22	0	0	90	36.1581920903955	36.241610738255	24	0.800055744051933	2	3	4	NaN	1	3	0.0380890645878151	0	1	NaN	284	5	32	2	120	220	320	NaN	520	0.318446542369202	2	0	NaN	1557888.1568277	NaN	1557889.1403502	1557889.65690516
8	22	0	0	90	36.1581920903955	36.241610738255	9	0.300020904019475	2	4	2	NaN	1	5	0.0380890645878151	0	1	NaN	285	5	33	2	120	220	320	NaN	520	0.390311822295189	1	1	NaN	1557891.1571289	NaN	1557892.1406481	1557892.65720358
8	22	0	0	90	36.1581920903955	36.241610738255	15	0.500034840032458	2	5	2	NaN	1	3	0.0380890645878151	0	1	NaN	286	5	34	2	120	220	320	NaN	520	0.530214322498068	2	0	NaN	1557893.8575029	NaN	1557894.8409322	1557895.35746858
8	22	0	0	90	36.1581920903955	36.241610738255	10	0.333356560021639	2	5	2	NaN	1	5	0.0380890645878151	0	1	NaN	287	5	35	2	120	220	320	NaN	520	0.328270217170939	1	1	NaN	1557896.7078637	NaN	1557897.6912079	1557898.20775018
8	22	0	0	90	36.1581920903955	36.241610738255	14	0.466699184030294	2	3	6	NaN	1	4	0.0380890645878151	0	1	NaN	288	5	36	2	120	220	320	NaN	520	0.252715842332691	1	1	NaN	1557899.7914194	NaN	1557900.7748519	1557901.29139086
8	22	0	0	90	36.1581920903955	36.241610738255	0	0	1	9	4	NaN	2	3	0.0380890645878151	0	1	NaN	289	5	37	2	110	210	310	NaN	510	0.109215422300622	1	0	NaN	1557902.7583692	NaN	1557903.7417954	1557904.25834418
8	22	0	0	90	36.1581920903955	36.241610738255	19	0.633377464041114	2	5	6	NaN	1	5	0.0380890645878151	0	1	NaN	290	5	38	2	120	220	320	NaN	520	0.347715322161093	1	1	NaN	1557905.1919881	NaN	1557906.1753027	1557906.69191578
8	22	0	0	90	36.1581920903955	36.241610738255	25	0.833391400054097	2	7	4	NaN	2	3	0.0380890645878151	0	1	NaN	291	5	39	2	120	220	320	NaN	520	0.272778222337365	1	0	NaN	1557907.8589265	NaN	1557908.8422848	1557909.35884008
8	22	0	0	90	36.1581920903955	36.241610738255	24	0.800055744051933	2	2	5	NaN	1	3	0.0380890645878151	0	1	NaN	292	5	40	2	120	220	320	NaN	520	0.344482569722459	1	1	NaN	1557910.4591369	NaN	1557911.4425625	1557911.95909743
8	22	0	0	90	36.1581920903955	36.241610738255	8	0.266685248017311	2	9	6	NaN	2	5	0.0380890645878151	0	1	NaN	293	5	41	2	120	220	320	NaN	520	0.605622537434101	1	0	NaN	1557913.1260026	NaN	1557914.1094714	1557914.62602566
8	22	0	0	90	36.1581920903955	36.241610738255	17	0.566706152036786	2	12	4	NaN	2	5	0.0380890645878151	0	1	NaN	294	5	42	2	120	220	320	NaN	520	0.304367364617065	1	0	NaN	1557916.0595775	NaN	1557917.0431155	1557917.55964264
8	22	0	0	90	36.1581920903955	36.241610738255	7	0.233349592015147	2	4	2	NaN	1	4	0.0380890645878151	0	1	NaN	295	5	43	2	120	220	320	NaN	520	0.0103925324510783	1	1	NaN	1557918.6766155	NaN	1557919.6600338	1557920.17657237
8	22	0	0	90	36.1581920903955	36.241610738255	22	0.733384432047606	2	4	4	NaN	1	5	0.0380890645878151	0	1	NaN	296	5	44	2	120	220	320	NaN	520	0.282117769820616	1	1	NaN	1557920.9935187	NaN	1557921.9769363	1557922.49346993
8	22	0	0	90	36.1581920903955	36.241610738255	20	0.666713120043278	2	2	6	NaN	1	5	0.0380890645878151	0	1	NaN	297	5	45	2	120	220	320	NaN	520	0.49511232227087	1	1	NaN	1557925.2605913	NaN	1557926.2439874	1557926.76054838
8	22	0	0	90	36.1581920903955	36.241610738255	0	0	1	9	4	NaN	2	4	0.0380890645878151	0	1	NaN	298	5	46	2	110	210	310	NaN	510	0.262410269584507	2	1	NaN	1557928.0775385	NaN	1557929.0609345	1557929.57749003
8	22	0	0	90	36.1581920903955	36.241610738255	6	0.200013936012983	2	6	3	NaN	1	3	0.0380890645878151	0	1	NaN	299	5	47	2	120	220	320	NaN	520	0.230585764860734	1	1	NaN	1557930.6611665	NaN	1557931.6445377	1557932.16107254
8	22	0	0	90	36.1581920903955	36.241610738255	17	0.566706152036786	2	2	3	NaN	1	3	0.0380890645878151	0	1	NaN	300	5	48	2	120	220	320	NaN	520	0.480493569746614	1	1	NaN	1557933.2114121	NaN	1557934.1947834	1557934.71131983
8	22	0	0	90	36.1581920903955	36.241610738255	9	0.300020904019475	2	2	2	NaN	1	4	0.0380890645878151	0	1	NaN	301	5	49	2	120	220	320	NaN	520	0.496298969723284	1	1	NaN	1557936.6117011	NaN	1557937.5951329	1557938.11165703
8	22	0	0	90	36.1581920903955	36.241610738255	6	0.200013936012983	2	4	3	NaN	1	5	0.0380890645878151	0	1	NaN	302	5	50	2	120	220	320	NaN	520	0.503473969642073	1	1	NaN	1557939.4287684	NaN	1557940.4120725	1557940.92859953
8	22	0	0	90	36.1581920903955	36.241610738255	24	0.800055744051933	2	6	4	NaN	1	5	0.0380890645878151	0	1	NaN	303	5	51	2	120	220	320	NaN	520	0.406519017182291	2	0	NaN	1557942.2455894	NaN	1557943.2289754	1557943.74554878
8	22	0	0	90	36.1581920903955	36.241610738255	6	0.200013936012983	2	11	5	NaN	2	5	0.0380890645878151	0	1	NaN	304	5	52	2	120	220	320	NaN	520	0.361542864935473	1	0	NaN	1557947.7460856	NaN	1557948.7295656	1557949.24608884
8	22	0	0	90	36.1581920903955	36.241610738255	6	0.200013936012983	2	6	1	NaN	1	4	0.0380890645878151	0	1	NaN	305	5	53	2	120	220	320	NaN	520	0.496731022372842	2	0	NaN	1557951.3631345	NaN	1557952.3465724	1557952.86310898
8	22	0	0	90	36.1581920903955	36.241610738255	18	0.60004180803895	2	8	6	NaN	2	4	0.0380890645878151	0	1	NaN	306	5	54	2	120	220	320	NaN	520	0.268597869668156	2	1	NaN	1557955.446869	NaN	1557956.4303286	1557956.94683973
8	22	0	0	90	36.1581920903955	36.241610738255	24	0.800055744051933	2	4	5	NaN	1	3	0.0380890645878151	0	1	NaN	307	5	55	2	120	220	320	NaN	520	0.192220022203401	2	0	NaN	1557958.3638441	NaN	1557959.34726	1557959.86379868
8	22	0	0	90	36.1581920903955	36.241610738255	8	0.266685248017311	2	1	4	NaN	1	3	0.0380890645878151	0	1	NaN	308	5	56	2	120	220	320	NaN	520	0.0749757697340101	1	1	NaN	1557960.8808109	NaN	1557961.8641604	1557962.38070773
8	22	0	0	90	36.1581920903955	36.241610738255	21	0.700048776045442	2	10	6	NaN	2	3	0.0380890645878151	0	1	NaN	309	5	57	2	120	220	320	NaN	520	0.251117942389101	2	1	NaN	1557963.2809934	NaN	1557964.2643777	1557964.78095546
8	22	0	0	90	36.1581920903955	36.241610738255	11	0.366692216023803	2	11	6	NaN	2	5	0.0380890645878151	0	1	NaN	310	5	58	2	120	220	320	NaN	520	0.235483622178435	1	0	NaN	1557968.6481895	NaN	1557969.6315778	1557970.14813948
8	22	0	0	90	36.1581920903955	36.241610738255	20	0.666713120043278	2	9	2	NaN	2	5	0.0380890645878151	0	1	NaN	311	5	59	2	120	220	320	NaN	520	0.286586969858035	1	0	NaN	1557971.5651282	NaN	1557972.5485409	1557973.06509543
8	22	0	0	90	36.1581920903955	36.241610738255	8	0.266685248017311	2	5	5	NaN	1	5	0.0380890645878151	0	1	NaN	312	5	60	2	120	220	320	NaN	520	0.293710127472878	2	0	NaN	1557974.1820684	NaN	1557975.1654584	1557975.68201247
8	22	0	0	90	36.1581920903955	36.241610738255	16	0.533370496034622	2	1	6	NaN	1	5	0.0380890645878151	0	1	NaN	313	5	61	2	120	220	320	NaN	520	0.315412864787504	1	1	NaN	1557977.0323004	NaN	1557978.015747	1557978.53231694
8	22	0	0	90	36.1581920903955	36.241610738255	12	0.400027872025967	2	7	6	NaN	2	4	0.0380890645878151	0	1	NaN	314	5	62	2	120	220	320	NaN	520	0.269013817189261	2	1	NaN	1557981.7828034	NaN	1557982.7662249	1557983.28276278
8	22	0	0	90	36.1581920903955	36.241610738255	8	0.266685248017311	2	6	3	NaN	1	3	0.0380890645878151	0	1	NaN	315	5	63	2	120	220	320	NaN	520	0.230716022197157	2	0	NaN	1557984.7331163	NaN	1557985.7165158	1557986.23305188
8	22	0	0	90	36.1581920903955	36.241610738255	0	0	1	11	4	NaN	2	3	0.0380890645878151	0	1	NaN	316	6	1	2	110	210	310	NaN	510	1.10919632250443	2	1	NaN	1557991.5504224	NaN	1557992.5338324	1557993.05039188
8	22	0	0	90	36.1581920903955	36.241610738255	12	0.400027872025967	2	2	3	NaN	1	5	0.0380890645878151	0	1	NaN	317	6	2	2	120	220	320	NaN	520	0.292403842322528	1	1	NaN	1557995.367358	NaN	1557996.3508929	1557996.86743986
8	22	0	0	90	36.1581920903955	36.241610738255	8	0.266685248017311	2	2	1	NaN	1	4	0.0380890645878151	0	1	NaN	318	6	3	2	120	220	320	NaN	520	0.215119042433798	2	0	NaN	1557998.301073	NaN	1557999.2845155	1557999.80104966
8	22	0	0	90	36.1581920903955	36.241610738255	19	0.633377464041114	2	1	1	NaN	1	4	0.0380890645878151	0	1	NaN	319	6	4	2	120	220	320	NaN	520	0.322757822461426	1	1	NaN	1558001.0013584	NaN	1558001.9847624	1558002.50131058
8	22	0	0	90	36.1581920903955	36.241610738255	12	0.400027872025967	2	6	6	NaN	1	4	0.0380890645878151	0	1	NaN	320	6	5	2	120	220	320	NaN	520	0.34425596985966	2	0	NaN	1558003.6516245	NaN	1558004.6350005	1558005.15156923
8	22	0	0	90	36.1581920903955	36.241610738255	18	0.60004180803895	2	2	1	NaN	1	5	0.0380890645878151	0	1	NaN	321	6	6	2	120	220	320	NaN	520	0.325204222463071	1	1	NaN	1558006.3184333	NaN	1558007.3019658	1558007.81850878
8	22	0	0	90	36.1581920903955	36.241610738255	19	0.633377464041114	2	7	4	NaN	2	4	0.0380890645878151	0	1	NaN	322	6	7	2	120	220	320	NaN	520	0.243235979927704	2	1	NaN	1558008.9688346	NaN	1558009.9522258	1558010.46876702
8	22	0	0	90	36.1581920903955	36.241610738255	13	0.43336352802813	2	2	2	NaN	1	4	0.0380890645878151	0	1	NaN	323	6	8	2	120	220	320	NaN	520	0.27343589020893	2	0	NaN	1558011.8023421	NaN	1558012.7858354	1558013.30237951
8	22	0	0	90	36.1581920903955	36.241610738255	9	0.300020904019475	2	5	1	NaN	1	3	0.0380890645878151	0	1	NaN	324	6	9	2	120	220	320	NaN	520	0.31343860225752	2	0	NaN	1558014.4026967	NaN	1558015.3861221	1558015.9026274
8	22	0	0	90	36.1581920903955	36.241610738255	23	0.766720088049769	2	9	2	NaN	2	5	0.0380890645878151	0	1	NaN	325	6	10	2	120	220	320	NaN	520	0.255607059691101	1	0	NaN	1558017.0362674	NaN	1558018.0196898	1558018.53621314
8	22	0	0	90	36.1581920903955	36.241610738255	21	0.700048776045442	2	11	6	NaN	2	5	0.0380890645878151	0	1	NaN	326	6	11	2	120	220	320	NaN	520	0.278533127391711	2	1	NaN	1558020.0532381	NaN	1558021.0366483	1558021.55319927
8	22	0	0	90	36.1581920903955	36.241610738255	24	0.800055744051933	2	1	1	NaN	1	5	0.0380890645878151	0	1	NaN	327	6	12	2	120	220	320	NaN	520	0.271135269897059	1	1	NaN	1558023.0368332	NaN	1558024.0202778	1558024.53680123
8	22	0	0	90	36.1581920903955	36.241610738255	19	0.633377464041114	2	2	3	NaN	1	5	0.0380890645878151	0	1	NaN	328	6	13	2	120	220	320	NaN	520	0.207743974635378	2	0	NaN	1558025.6203312	NaN	1558026.6038581	1558027.12040263
8	22	0	0	90	36.1581920903955	36.241610738255	9	0.300020904019475	2	1	2	NaN	1	3	0.0380890645878151	0	1	NaN	329	6	14	2	120	220	320	NaN	520	0.217932974686846	1	1	NaN	1558028.5539547	NaN	1558029.5374839	1558030.05402463
8	22	0	0	90	36.1581920903955	36.241610738255	21	0.700048776045442	2	5	2	NaN	1	3	0.0380890645878151	0	1	NaN	330	6	15	2	120	220	320	NaN	520	0.241410717135295	2	0	NaN	1558031.5543732	NaN	1558032.5377719	1558033.05430898
8	22	0	0	90	36.1581920903955	36.241610738255	20	0.666713120043278	2	8	3	NaN	2	5	0.0380890645878151	0	1	NaN	331	6	16	2	120	220	320	NaN	520	0.306447769748047	1	0	NaN	1558034.121245	NaN	1558035.1046947	1558035.62122303
8	22	0	0	90	36.1581920903955	36.241610738255	16	0.533370496034622	2	3	2	NaN	1	4	0.0380890645878151	0	1	NaN	332	6	17	2	120	220	320	NaN	520	0.185628122417256	2	0	NaN	1558036.7380778	NaN	1558037.7216166	1558038.23815798
8	22	0	0	90	36.1581920903955	36.241610738255	10	0.333356560021639	2	7	5	NaN	2	3	0.0380890645878151	0	1	NaN	333	6	18	2	120	220	320	NaN	520	0.285034822300076	1	0	NaN	1558039.2551314	NaN	1558040.2385198	1558040.75508648
8	22	0	0	90	36.1581920903955	36.241610738255	15	0.500034840032458	2	7	1	NaN	2	3	0.0380890645878151	0	1	NaN	334	6	19	2	120	220	320	NaN	520	0.203700417187065	2	1	NaN	1558041.8720493	NaN	1558042.8555042	1558043.37199168
8	22	0	0	90	36.1581920903955	36.241610738255	6	0.200013936012983	2	3	6	NaN	1	5	0.0380890645878151	0	1	NaN	335	6	20	2	120	220	320	NaN	520	0.263049369910732	2	0	NaN	1558044.3888474	NaN	1558045.3723508	1558045.88890023
8	22	0	0	90	36.1581920903955	36.241610738255	11	0.366692216023803	2	4	4	NaN	1	5	0.0380890645878151	0	1	NaN	336	6	21	2	120	220	320	NaN	520	0.279500822303817	2	0	NaN	1558046.9726214	NaN	1558047.9559447	1558048.47249278
8	22	0	0	90	36.1581920903955	36.241610738255	11	0.366692216023803	2	8	2	NaN	2	5	0.0380890645878151	0	1	NaN	337	6	22	2	120	220	320	NaN	520	0.343055222416297	1	0	NaN	1558049.5726397	NaN	1558050.5562091	1558051.07274838
8	22	0	0	90	36.1581920903955	36.241610738255	23	0.766720088049769	2	10	6	NaN	2	4	0.0380890645878151	0	1	NaN	338	6	23	2	120	220	320	NaN	520	0.356085322564468	2	1	NaN	1558052.2397172	NaN	1558053.2231544	1558053.73967858
8	22	0	0	90	36.1581920903955	36.241610738255	17	0.566706152036786	2	4	5	NaN	1	3	0.0380890645878151	0	1	NaN	339	6	24	2	120	220	320	NaN	520	0.352638569660485	2	0	NaN	1558054.9233233	NaN	1558055.90673	1558056.42326853
8	22	0	0	90	36.1581920903955	36.241610738255	13	0.43336352802813	2	1	4	NaN	1	5	0.0380890645878151	0	1	NaN	340	6	25	2	120	220	320	NaN	520	0.301363064907491	1	1	NaN	1558057.606928	NaN	1558058.5903386	1558059.10686784
8	22	0	0	90	36.1581920903955	36.241610738255	9	0.300020904019475	2	12	4	NaN	2	3	0.0380890645878151	0	1	NaN	341	6	26	2	120	220	320	NaN	520	0.419861717149615	2	1	NaN	1558060.2238845	NaN	1558061.207264	1558061.72378478
8	22	0	0	90	36.1581920903955	36.241610738255	14	0.466699184030294	2	1	4	NaN	1	4	0.0380890645878151	0	1	NaN	342	6	27	2	120	220	320	NaN	520	0.325777674792334	1	1	NaN	1558062.9739905	NaN	1558063.9575763	1558064.47405903
8	22	0	0	90	36.1581920903955	36.241610738255	8	0.266685248017311	2	7	4	NaN	2	3	0.0380890645878151	0	1	NaN	343	6	28	2	120	220	320	NaN	520	0.268212722381577	1	0	NaN	1558066.0076291	NaN	1558066.9911866	1558067.50769608
8	22	0	0	90	36.1581920903955	36.241610738255	6	0.200013936012983	2	2	4	NaN	1	3	0.0380890645878151	0	1	NaN	344	6	29	2	120	220	320	NaN	520	0.212006716988981	1	1	NaN	1558068.608005	NaN	1558069.59139	1558070.10794508
8	22	0	0	90	36.1581920903955	36.241610738255	11	0.366692216023803	2	2	3	NaN	1	5	0.0380890645878151	0	1	NaN	345	6	30	2	120	220	320	NaN	520	0.431413522455841	2	0	NaN	1558071.1249034	NaN	1558072.1083325	1558072.62486378
8	22	0	0	90	36.1581920903955	36.241610738255	11	0.366692216023803	2	1	4	NaN	1	5	0.0380890645878151	0	1	NaN	346	6	31	2	120	220	320	NaN	520	0.224895642371848	2	0	NaN	1558073.8752572	NaN	1558074.8585919	1558075.37513926
8	22	0	0	90	36.1581920903955	36.241610738255	14	0.466699184030294	2	10	5	NaN	2	5	0.0380890645878151	0	1	NaN	347	6	32	2	120	220	320	NaN	520	0.303028969792649	1	0	NaN	1558076.9086837	NaN	1558077.8922153	1558078.40876123
8	22	0	0	90	36.1581920903955	36.241610738255	15	0.500034840032458	2	4	3	NaN	1	4	0.0380890645878151	0	1	NaN	348	6	33	2	120	220	320	NaN	520	0.302294022403657	1	1	NaN	1558079.5257667	NaN	1558080.5091351	1558081.02568608
8	22	0	0	90	36.1581920903955	36.241610738255	0	0	1	3	5	NaN	1	5	0.0380890645878151	0	1	NaN	349	6	34	2	110	210	310	NaN	510	0.30854751705192	2	0	NaN	1558082.1593649	NaN	1558083.1427534	1558083.65927298
8	22	0	0	90	36.1581920903955	36.241610738255	19	0.633377464041114	2	7	5	NaN	2	4	0.0380890645878151	0	1	NaN	350	6	35	2	120	220	320	NaN	520	0.363890595035627	1	0	NaN	1558084.7762455	NaN	1558085.7596747	1558086.27620851
8	22	0	0	90	36.1581920903955	36.241610738255	8	0.266685248017311	2	9	2	NaN	2	5	0.0380890645878151	0	1	NaN	351	6	36	2	120	220	320	NaN	520	0.399916622322053	1	0	NaN	1558087.4599077	NaN	1558088.4432566	1558088.95980278
8	22	0	0	90	36.1581920903955	36.241610738255	6	0.200013936012983	2	10	4	NaN	2	5	0.0380890645878151	0	1	NaN	352	6	37	2	120	220	320	NaN	520	0.010488917119801	1	0	NaN	1558090.5433579	NaN	1558091.5268964	1558092.04343208
8	22	0	0	90	36.1581920903955	36.241610738255	18	0.60004180803895	2	6	6	NaN	1	3	0.0380890645878151	0	1	NaN	353	6	38	2	120	220	320	NaN	520	0.230815122369677	2	0	NaN	1558093.277114	NaN	1558094.2604979	1558094.77703938
8	22	0	0	90	36.1581920903955	36.241610738255	17	0.566706152036786	2	11	5	NaN	2	3	0.0380890645878151	0	1	NaN	354	6	39	2	120	220	320	NaN	520	0.30457469006069	1	0	NaN	1558096.0273511	NaN	1558097.0107731	1558097.52731571
8	22	0	0	90	36.1581920903955	36.241610738255	14	0.466699184030294	2	11	5	NaN	2	3	0.0380890645878151	0	1	NaN	355	6	40	2	120	220	320	NaN	520	0.255706869764253	2	1	NaN	1558098.6441805	NaN	1558099.6276985	1558100.14423333
8	22	0	0	90	36.1581920903955	36.241610738255	21	0.700048776045442	2	5	5	NaN	1	5	0.0380890645878151	0	1	NaN	356	6	41	2	120	220	320	NaN	520	0.226141922175884	1	1	NaN	1558101.577872	NaN	1558102.5613368	1558103.07784728
8	22	0	0	90	36.1581920903955	36.241610738255	22	0.733384432047606	2	10	3	NaN	2	5	0.0380890645878151	0	1	NaN	357	6	42	2	120	220	320	NaN	520	0.254826389951631	2	1	NaN	1558104.4614969	NaN	1558105.4449034	1558105.96147261
8	22	0	0	90	36.1581920903955	36.241610738255	25	0.833391400054097	2	1	6	NaN	1	5	0.0380890645878151	0	1	NaN	358	6	43	2	120	220	320	NaN	520	0.263120522489771	1	1	NaN	1558107.0450997	NaN	1558108.0285211	1558108.54504768
8	22	0	0	90	36.1581920903955	36.241610738255	24	0.800055744051933	2	10	2	NaN	2	4	0.0380890645878151	0	1	NaN	359	6	44	2	120	220	320	NaN	520	0.340573217254132	2	1	NaN	1558110.0953926	NaN	1558111.078812	1558111.59534498
8	22	0	0	90	36.1581920903955	36.241610738255	20	0.666713120043278	2	6	6	NaN	1	4	0.0380890645878151	0	1	NaN	360	6	45	2	120	220	320	NaN	520	0.32987442240119	1	1	NaN	1558112.7622701	NaN	1558113.7457387	1558114.26230788
8	22	0	0	90	36.1581920903955	36.241610738255	15	0.500034840032458	2	6	1	NaN	1	3	0.0380890645878151	0	1	NaN	361	6	46	2	120	220	320	NaN	520	0.497258122311905	1	1	NaN	1558115.9626351	NaN	1558116.9460592	1558117.46259768
8	22	0	0	90	36.1581920903955	36.241610738255	20	0.666713120043278	2	1	6	NaN	1	3	0.0380890645878151	0	1	NaN	362	6	47	2	120	220	320	NaN	520	0.257481569657102	2	0	NaN	1558119.1629524	NaN	1558120.1463694	1558120.66291053
8	22	0	0	90	36.1581920903955	36.241610738255	16	0.533370496034622	2	7	1	NaN	2	5	0.0380890645878151	0	1	NaN	363	6	48	2	120	220	320	NaN	520	0.320642174687237	1	0	NaN	1558122.1632395	NaN	1558123.1466702	1558123.66320063
8	22	0	0	90	36.1581920903955	36.241610738255	24	0.800055744051933	2	1	5	NaN	1	4	0.0380890645878151	0	1	NaN	364	6	49	2	120	220	320	NaN	520	0.29444992239587	1	1	NaN	1558124.8135218	NaN	1558125.7969228	1558126.31346948
8	22	0	0	90	36.1581920903955	36.241610738255	15	0.500034840032458	2	1	1	NaN	1	5	0.0380890645878151	0	1	NaN	365	6	50	2	120	220	320	NaN	520	0.28577827475965	1	1	NaN	1558127.4304481	NaN	1558128.4138754	1558128.93039323
8	22	0	0	90	36.1581920903955	36.241610738255	10	0.333356560021639	2	9	4	NaN	2	3	0.0380890645878151	0	1	NaN	366	6	51	2	120	220	320	NaN	520	0.653441064525396	2	1	NaN	1558130.0307121	NaN	1558131.0141001	1558131.53063524
8	22	0	0	90	36.1581920903955	36.241610738255	13	0.43336352802813	2	12	3	NaN	2	5	0.0380890645878151	0	1	NaN	367	6	52	2	120	220	320	NaN	520	0.0104036224074662	1	0	NaN	1558133.4143435	NaN	1558134.3977764	1558134.91430908
8	22	0	0	90	36.1581920903955	36.241610738255	9	0.300020904019475	2	6	5	NaN	1	3	0.0380890645878151	0	1	NaN	368	6	53	2	120	220	320	NaN	520	0.316919517237693	2	0	NaN	1558136.231283	NaN	1558137.2147099	1558137.73124968
8	22	0	0	90	36.1581920903955	36.241610738255	23	0.766720088049769	2	1	2	NaN	1	3	0.0380890645878151	0	1	NaN	369	6	54	2	120	220	320	NaN	520	0.571445769863203	2	0	NaN	1558138.8647807	NaN	1558139.8483013	1558140.36484143
8	22	0	0	90	36.1581920903955	36.241610738255	9	0.300020904019475	2	3	1	NaN	1	3	0.0380890645878151	0	1	NaN	370	6	55	2	120	220	320	NaN	520	0.294728189939633	1	1	NaN	1558142.1650998	NaN	1558143.148634	1558143.66517041
8	22	0	0	90	36.1581920903955	36.241610738255	9	0.300020904019475	2	7	6	NaN	2	5	0.0380890645878151	0	1	NaN	371	6	56	2	120	220	320	NaN	520	0.278798579936847	1	0	NaN	1558145.1654854	NaN	1558146.1489284	1558146.66545592
8	22	0	0	90	36.1581920903955	36.241610738255	25	0.833391400054097	2	10	5	NaN	2	5	0.0380890645878151	0	1	NaN	372	6	57	2	120	220	320	NaN	520	0.446591469924897	1	0	NaN	1558147.7657676	NaN	1558148.7491782	1558149.26571533
8	22	0	0	90	36.1581920903955	36.241610738255	25	0.833391400054097	2	1	3	NaN	1	4	0.0380890645878151	0	1	NaN	373	6	58	2	120	220	320	NaN	520	0.255212269723415	2	0	NaN	1558150.9327393	NaN	1558151.9161558	1558152.43268563
8	22	0	0	90	36.1581920903955	36.241610738255	19	0.633377464041114	2	4	2	NaN	1	5	0.0380890645878151	0	1	NaN	374	6	59	2	120	220	320	NaN	520	0.234695269726217	2	0	NaN	1558153.8495605	NaN	1558154.8331057	1558155.34964213
8	22	0	0	90	36.1581920903955	36.241610738255	23	0.766720088049769	2	4	6	NaN	1	3	0.0380890645878151	0	1	NaN	375	6	60	2	120	220	320	NaN	520	0.339527469594032	2	0	NaN	1558157.0166613	NaN	1558158.0000911	1558158.51663013
8	22	0	0	90	36.1581920903955	36.241610738255	20	0.666713120043278	2	5	5	NaN	1	3	0.0380890645878151	0	1	NaN	376	6	61	2	120	220	320	NaN	520	0.385051822289824	2	0	NaN	1558160.0671166	NaN	1558161.0504149	1558161.56691948
8	22	0	0	90	36.1581920903955	36.241610738255	25	0.833391400054097	2	6	3	NaN	1	3	0.0380890645878151	0	1	NaN	377	6	62	2	120	220	320	NaN	520	0.268193522235379	2	0	NaN	1558162.7839354	NaN	1558163.767329	1558164.28384998
8	22	0	0	90	36.1581920903955	36.241610738255	11	0.366692216023803	2	12	6	NaN	2	5	0.0380890645878151	0	1	NaN	378	6	63	2	120	220	320	NaN	520	0.228219817159697	2	1	NaN	1558165.3841575	NaN	1558166.367569	1558166.88410648
8	22	0	0	90	36.1581920903955	36.241610738255	19	0.633377464041114	2	8	3	NaN	2	4	0.0380890645878151	0	1	NaN	379	7	1	2	120	220	320	NaN	520	0.226060817018151	1	0	NaN	1558171.4180793	NaN	1558172.4015053	1558172.91803548
8	22	0	0	90	36.1581920903955	36.241610738255	25	0.833391400054097	2	10	5	NaN	2	5	0.0380890645878151	0	1	NaN	380	7	2	2	120	220	320	NaN	520	0.37201336491853	1	0	NaN	1558173.9683336	NaN	1558174.9517683	1558175.46828984
8	22	0	0	90	36.1581920903955	36.241610738255	21	0.700048776045442	2	8	1	NaN	2	5	0.0380890645878151	0	1	NaN	381	7	3	2	120	220	320	NaN	520	0.287772122304887	1	0	NaN	1558176.6686002	NaN	1558177.6520118	1558178.16854878
8	22	0	0	90	36.1581920903955	36.241610738255	14	0.466699184030294	2	8	5	NaN	2	4	0.0380890645878151	0	1	NaN	382	7	4	2	120	220	320	NaN	520	0.262536669848487	1	0	NaN	1558179.2855249	NaN	1558180.2689394	1558180.78546863
8	22	0	0	90	36.1581920903955	36.241610738255	14	0.466699184030294	2	6	3	NaN	1	5	0.0380890645878151	0	1	NaN	383	7	5	2	120	220	320	NaN	520	0.319014264736325	1	1	NaN	1558181.8691084	NaN	1558182.8526073	1558183.36907804
8	22	0	0	90	36.1581920903955	36.241610738255	8	0.266685248017311	2	4	4	NaN	1	3	0.0380890645878151	0	1	NaN	384	7	6	2	120	220	320	NaN	520	0.24551907973364	1	1	NaN	1558184.5025823	NaN	1558185.4861281	1558186.00266262
8	22	0	0	90	36.1581920903955	36.241610738255	12	0.400027872025967	2	8	1	NaN	2	4	0.0380890645878151	0	1	NaN	385	7	7	2	120	220	320	NaN	520	0.134840722195804	1	0	NaN	1558187.0696277	NaN	1558188.0530436	1558188.56957638
8	22	0	0	90	36.1581920903955	36.241610738255	13	0.43336352802813	2	10	4	NaN	2	3	0.0380890645878151	0	1	NaN	386	7	8	2	120	220	320	NaN	520	0.876283522229642	2	1	NaN	1558189.5198871	NaN	1558190.5032765	1558191.01981698
8	22	0	0	90	36.1581920903955	36.241610738255	17	0.566706152036786	2	4	3	NaN	1	3	0.0380890645878151	0	1	NaN	387	7	9	2	120	220	320	NaN	520	0.300627122400329	1	1	NaN	1558192.703523	NaN	1558193.6869099	1558194.20345958
8	22	0	0	90	36.1581920903955	36.241610738255	7	0.233349592015147	2	3	1	NaN	1	4	0.0380890645878151	0	1	NaN	388	7	10	2	120	220	320	NaN	520	0.316589422523975	2	0	NaN	1558196.1038597	NaN	1558197.0872591	1558197.60379518
8	22	0	0	90	36.1581920903955	36.241610738255	23	0.766720088049769	2	8	3	NaN	2	5	0.0380890645878151	0	1	NaN	389	7	11	2	120	220	320	NaN	520	0.0104240798391402	1	0	NaN	1558199.5208324	NaN	1558200.5042334	1558201.02079162
8	22	0	0	90	36.1581920903955	36.241610738255	11	0.366692216023803	2	6	5	NaN	1	4	0.0380890645878151	0	1	NaN	390	7	12	2	120	220	320	NaN	520	0.181511717149988	2	0	NaN	1558201.854371	NaN	1558202.8378431	1558203.35434928
8	22	0	0	90	36.1581920903955	36.241610738255	19	0.633377464041114	2	11	3	NaN	2	3	0.0380890645878151	0	1	NaN	391	7	13	2	120	220	320	NaN	520	0.185688632307574	1	0	NaN	1558204.3546571	NaN	1558205.338068	1558205.85461077
8	22	0	0	90	36.1581920903955	36.241610738255	15	0.500034840032458	2	6	5	NaN	1	3	0.0380890645878151	0	1	NaN	392	7	14	2	120	220	320	NaN	520	0.881727769738063	2	0	NaN	1558208.1383325	NaN	1558209.1217729	1558209.63830223
8	22	0	0	90	36.1581920903955	36.241610738255	13	0.43336352802813	2	2	2	NaN	1	4	0.0380890645878151	0	1	NaN	393	7	15	2	120	220	320	NaN	520	0.311349774710834	2	0	NaN	1558211.7887014	NaN	1558212.7721416	1558213.28866143
8	22	0	0	90	36.1581920903955	36.241610738255	19	0.633377464041114	2	12	4	NaN	2	5	0.0380890645878151	0	1	NaN	394	7	16	2	120	220	320	NaN	520	0.438151222420856	2	1	NaN	1558214.4223331	NaN	1558215.4057005	1558215.92225798
8	22	0	0	90	36.1581920903955	36.241610738255	15	0.500034840032458	2	3	2	NaN	1	5	0.0380890645878151	0	1	NaN	395	7	17	2	120	220	320	NaN	520	0.406074884813279	1	1	NaN	1558217.8059355	NaN	1558218.7893805	1558219.30591872
8	22	0	0	90	36.1581920903955	36.241610738255	17	0.566706152036786	2	5	6	NaN	1	5	0.0380890645878151	0	1	NaN	396	7	18	2	120	220	320	NaN	520	0.292871069628745	1	1	NaN	1558222.8230282	NaN	1558223.8065395	1558224.32307293
8	22	0	0	90	36.1581920903955	36.241610738255	17	0.566706152036786	2	7	2	NaN	2	5	0.0380890645878151	0	1	NaN	397	7	19	2	120	220	320	NaN	520	0.603850422427058	1	0	NaN	1558225.4400817	NaN	1558226.4234411	1558226.94000828
8	22	0	0	90	36.1581920903955	36.241610738255	11	0.366692216023803	2	4	1	NaN	1	4	0.0380890645878151	0	1	NaN	398	7	20	2	120	220	320	NaN	520	0.286465769866481	1	1	NaN	1558228.3735423	NaN	1558229.3570789	1558229.87361883
8	22	0	0	90	36.1581920903955	36.241610738255	15	0.500034840032458	2	8	5	NaN	2	3	0.0380890645878151	0	1	NaN	399	7	21	2	120	220	320	NaN	520	0.501794079784304	2	1	NaN	1558230.9905581	NaN	1558231.9739827	1558232.49055462
8	22	0	0	90	36.1581920903955	36.241610738255	25	0.833391400054097	2	4	3	NaN	1	3	0.0380890645878151	0	1	NaN	400	7	22	2	120	220	320	NaN	520	0.75680046970956	1	1	NaN	1558233.8074528	NaN	1558234.7909758	1558235.30749163
8	22	0	0	90	36.1581920903955	36.241610738255	20	0.666713120043278	2	3	6	NaN	1	5	0.0380890645878151	0	1	NaN	401	7	23	2	120	220	320	NaN	520	0.158286874881014	2	0	NaN	1558238.1579808	NaN	1558239.1413534	1558239.65792033
8	22	0	0	90	36.1581920903955	36.241610738255	16	0.533370496034622	2	8	2	NaN	2	5	0.0380890645878151	0	1	NaN	402	7	24	2	120	220	320	NaN	520	0.322676069801673	1	0	NaN	1558240.641531	NaN	1558241.6249409	1558242.14149573
8	22	0	0	90	36.1581920903955	36.241610738255	9	0.300020904019475	2	10	2	NaN	2	5	0.0380890645878151	0	1	NaN	403	7	25	2	120	220	320	NaN	520	0.30402612243779	1	0	NaN	1558243.2918119	NaN	1558244.2751769	1558244.79175148
8	22	0	0	90	36.1581920903955	36.241610738255	20	0.666713120043278	2	12	6	NaN	2	4	0.0380890645878151	0	1	NaN	404	7	26	2	120	220	320	NaN	520	0.407802174799144	1	0	NaN	1558246.108755	NaN	1558247.0921423	1558247.60870153
8	22	0	0	90	36.1581920903955	36.241610738255	17	0.566706152036786	2	3	6	NaN	1	4	0.0380890645878151	0	1	NaN	405	7	27	2	120	220	320	NaN	520	0.978290747385472	1	1	NaN	1558248.8423396	NaN	1558249.8257746	1558250.34232445
8	22	0	0	90	36.1581920903955	36.241610738255	10	0.333356560021639	2	6	6	NaN	1	3	0.0380890645878151	0	1	NaN	406	7	28	2	120	220	320	NaN	520	0.638585990061983	1	1	NaN	1558252.1260154	NaN	1558253.1094183	1558253.62596211
8	22	0	0	90	36.1581920903955	36.241610738255	20	0.666713120043278	2	9	4	NaN	2	5	0.0380890645878151	0	1	NaN	407	7	29	2	120	220	320	NaN	520	0.872080779867247	2	1	NaN	1558255.0763033	NaN	1558256.0596994	1558256.57624232
8	22	0	0	90	36.1581920903955	36.241610738255	6	0.200013936012983	2	3	1	NaN	1	5	0.0380890645878151	0	1	NaN	408	7	30	2	120	220	320	NaN	520	0.296013322426006	1	1	NaN	1558258.2766456	NaN	1558259.2600134	1558259.77656318
8	22	0	0	90	36.1581920903955	36.241610738255	12	0.400027872025967	2	10	6	NaN	2	4	0.0380890645878151	0	1	NaN	409	7	31	2	120	220	320	NaN	520	0.52851192234084	2	1	NaN	1558261.243537	NaN	1558262.2270446	1558262.74351548
8	22	0	0	90	36.1581920903955	36.241610738255	12	0.400027872025967	2	11	3	NaN	2	5	0.0380890645878151	0	1	NaN	410	7	32	2	120	220	320	NaN	520	0.446288279723376	1	0	NaN	1558264.4938803	NaN	1558265.4772951	1558265.99384352
8	22	0	0	90	36.1581920903955	36.241610738255	19	0.633377464041114	2	1	1	NaN	1	5	0.0380890645878151	0	1	NaN	411	7	33	2	120	220	320	NaN	520	0.487409169785678	1	1	NaN	1558267.6607589	NaN	1558268.6442774	1558269.16081323
8	22	0	0	90	36.1581920903955	36.241610738255	0	0	1	7	5	NaN	2	3	0.0380890645878151	0	1	NaN	412	7	34	2	110	210	310	NaN	510	0.279849969781935	2	1	NaN	1558270.8445072	NaN	1558271.8279397	1558272.34445873
8	22	0	0	90	36.1581920903955	36.241610738255	24	0.800055744051933	2	5	1	NaN	1	5	0.0380890645878151	0	1	NaN	413	7	35	2	120	220	320	NaN	520	0.463663090020418	1	1	NaN	1558273.4447626	NaN	1558274.4281455	1558274.94470971
8	22	0	0	90	36.1581920903955	36.241610738255	21	0.700048776045442	2	9	5	NaN	2	4	0.0380890645878151	0	1	NaN	414	7	36	2	120	220	320	NaN	520	0.328187569743022	2	1	NaN	1558276.2284083	NaN	1558277.2117624	1558277.72832153
8	22	0	0	90	36.1581920903955	36.241610738255	8	0.266685248017311	2	10	6	NaN	2	4	0.0380890645878151	0	1	NaN	415	7	37	2	120	220	320	NaN	520	0.368490022374317	1	0	NaN	1558279.211869	NaN	1558280.1954171	1558280.71194888
8	22	0	0	90	36.1581920903955	36.241610738255	22	0.733384432047606	2	9	5	NaN	2	3	0.0380890645878151	0	1	NaN	416	7	38	2	120	220	320	NaN	520	0.204660964664072	1	0	NaN	1558281.895623	NaN	1558282.8790132	1558283.39554094
8	22	0	0	90	36.1581920903955	36.241610738255	22	0.733384432047606	2	10	1	NaN	2	4	0.0380890645878151	0	1	NaN	417	7	39	2	120	220	320	NaN	520	0.191524069756269	2	1	NaN	1558284.8125457	NaN	1558285.7959239	1558286.31249023
8	22	0	0	90	36.1581920903955	36.241610738255	13	0.43336352802813	2	11	2	NaN	2	5	0.0380890645878151	0	1	NaN	418	7	40	2	120	220	320	NaN	520	0.335965769831091	1	0	NaN	1558288.5962749	NaN	1558289.579681	1558290.09621503
8	22	0	0	90	36.1581920903955	36.241610738255	12	0.400027872025967	2	3	3	NaN	1	3	0.0380890645878151	0	1	NaN	419	7	41	2	120	220	320	NaN	520	0.34004732221365	1	1	NaN	1558291.8964598	NaN	1558292.8799743	1558293.39652288
8	22	0	0	90	36.1581920903955	36.241610738255	8	0.266685248017311	2	3	1	NaN	1	4	0.0380890645878151	0	1	NaN	420	7	42	2	120	220	320	NaN	520	0.279725974658504	1	1	NaN	1558294.9968481	NaN	1558295.980323	1558296.49683543
8	22	0	0	90	36.1581920903955	36.241610738255	24	0.800055744051933	2	4	1	NaN	1	3	0.0380890645878151	0	1	NaN	421	7	43	2	120	220	320	NaN	520	0.631363702239469	1	1	NaN	1558297.597133	NaN	1558298.5805423	1558299.0970843
8	22	0	0	90	36.1581920903955	36.241610738255	9	0.300020904019475	2	11	5	NaN	2	3	0.0380890645878151	0	1	NaN	422	7	44	2	120	220	320	NaN	520	0.38483076961711	1	0	NaN	1558300.547301	NaN	1558301.5308344	1558302.04736823
8	22	0	0	90	36.1581920903955	36.241610738255	10	0.333356560021639	2	12	3	NaN	2	5	0.0380890645878151	0	1	NaN	423	7	45	2	120	220	320	NaN	520	0.516514222370461	1	0	NaN	1558303.2476983	NaN	1558304.2311679	1558304.74763978
8	22	0	0	90	36.1581920903955	36.241610738255	0	0	1	10	2	NaN	2	5	0.0380890645878151	0	1	NaN	424	7	46	2	110	210	310	NaN	510	0.234996169805527	1	0	NaN	1558306.0812078	NaN	1558307.0646958	1558307.58125373
8	22	0	0	90	36.1581920903955	36.241610738255	11	0.366692216023803	2	9	5	NaN	2	4	0.0380890645878151	0	1	NaN	425	7	47	2	120	220	320	NaN	520	0.261155322194099	1	0	NaN	1558308.6315961	NaN	1558309.6149668	1558310.13150348
8	22	0	0	90	36.1581920903955	36.241610738255	24	0.800055744051933	2	10	3	NaN	2	4	0.0380890645878151	0	1	NaN	426	7	48	2	120	220	320	NaN	520	0.189824022352695	1	0	NaN	1558311.5986095	NaN	1558312.581928	1558313.09846338
8	22	0	0	90	36.1581920903955	36.241610738255	10	0.333356560021639	2	6	4	NaN	1	3	0.0380890645878151	0	1	NaN	427	7	49	2	120	220	320	NaN	520	0.257294137263671	1	1	NaN	1558314.1154245	NaN	1558315.0988193	1558315.61538296
8	22	0	0	90	36.1581920903955	36.241610738255	23	0.766720088049769	2	8	5	NaN	2	5	0.0380890645878151	0	1	NaN	428	7	50	2	120	220	320	NaN	520	0.0971597169991583	2	1	NaN	1558316.6988923	NaN	1558317.6824689	1558318.19895218
8	22	0	0	90	36.1581920903955	36.241610738255	19	0.633377464041114	2	3	5	NaN	1	4	0.0380890645878151	0	1	NaN	429	7	51	2	120	220	320	NaN	520	0.256176369730383	2	0	NaN	1558319.1158324	NaN	1558320.0993232	1558320.61586443
8	22	0	0	90	36.1581920903955	36.241610738255	25	0.833391400054097	2	11	4	NaN	2	5	0.0380890645878151	0	1	NaN	430	7	52	2	120	220	320	NaN	520	0.249116769758984	2	1	NaN	1558321.6995214	NaN	1558322.6829115	1558323.19944043
8	22	0	0	90	36.1581920903955	36.241610738255	15	0.500034840032458	2	9	2	NaN	2	5	0.0380890645878151	0	1	NaN	431	7	53	2	120	220	320	NaN	520	0.305860769702122	2	1	NaN	1558324.2664456	NaN	1558325.2498118	1558325.76636643
8	22	0	0	90	36.1581920903955	36.241610738255	13	0.43336352802813	2	5	4	NaN	1	4	0.0380890645878151	0	1	NaN	432	7	54	2	120	220	320	NaN	520	0.433204117231071	1	1	NaN	1558326.8833327	NaN	1558327.8667596	1558328.38328448
8	22	0	0	90	36.1581920903955	36.241610738255	6	0.200013936012983	2	5	4	NaN	1	3	0.0380890645878151	0	1	NaN	433	7	55	2	120	220	320	NaN	520	0.31506376969628	2	0	NaN	1558329.6336424	NaN	1558330.6170149	1558331.13355903
8	22	0	0	90	36.1581920903955	36.241610738255	13	0.43336352802813	2	8	4	NaN	2	5	0.0380890645878151	0	1	NaN	434	7	56	2	120	220	320	NaN	520	0.344763489905745	1	0	NaN	1558332.6838559	NaN	1558333.6673183	1558334.18386031
8	22	0	0	90	36.1581920903955	36.241610738255	7	0.233349592015147	2	4	6	NaN	1	4	0.0380890645878151	0	1	NaN	435	7	57	2	120	220	320	NaN	520	0.277168459724635	1	1	NaN	1558335.7674252	NaN	1558336.7509607	1558337.26748624
8	22	0	0	90	36.1581920903955	36.241610738255	0	0	1	2	3	NaN	1	3	0.0380890645878151	0	1	NaN	436	7	58	2	110	210	310	NaN	510	0.284472169820219	2	0	NaN	1558338.3678009	NaN	1558339.3512199	1558339.86774643
8	22	0	0	90	36.1581920903955	36.241610738255	14	0.466699184030294	2	7	2	NaN	2	4	0.0380890645878151	0	1	NaN	437	7	59	2	120	220	320	NaN	520	0.180508317193016	2	1	NaN	1558340.9679628	NaN	1558341.9514635	1558342.46800268
8	22	0	0	90	36.1581920903955	36.241610738255	25	0.833391400054097	2	7	3	NaN	2	4	0.0380890645878151	0	1	NaN	438	7	60	2	120	220	320	NaN	520	0.0104791696649045	2	1	NaN	1558344.2683663	NaN	1558345.2517985	1558345.76833053
8	22	0	0	90	36.1581920903955	36.241610738255	12	0.400027872025967	2	4	2	NaN	1	3	0.0380890645878151	0	1	NaN	439	7	61	2	120	220	320	NaN	520	0.306209822418168	2	0	NaN	1558346.6019517	NaN	1558347.5853569	1558348.10190038
8	22	0	0	90	36.1581920903955	36.241610738255	6	0.200013936012983	2	7	1	NaN	2	4	0.0380890645878151	0	1	NaN	440	7	62	2	120	220	320	NaN	520	0.256742669735104	2	1	NaN	1558349.2355919	NaN	1558350.218949	1558350.73547823
8	22	0	0	90	36.1581920903955	36.241610738255	14	0.466699184030294	2	2	4	NaN	1	5	0.0380890645878151	0	1	NaN	441	7	63	2	120	220	320	NaN	520	0.259527322370559	2	0	NaN	1558352.1691319	NaN	1558353.1525577	1558353.66910768
8	22	0	0	90	36.1581920903955	36.241610738255	13	0.43336352802813	2	1	3	NaN	1	4	0.0380890645878151	0	1	NaN	442	8	1	2	120	220	320	NaN	520	0.265992817236111	2	0	NaN	1558357.586358	NaN	1558358.5697494	1558359.08633928
8	22	0	0	90	36.1581920903955	36.241610738255	22	0.733384432047606	2	12	2	NaN	2	5	0.0380890645878151	0	1	NaN	443	8	2	2	120	220	320	NaN	520	0.184533084742725	1	0	NaN	1558360.6199716	NaN	1558361.6033974	1558362.11993482
8	22	0	0	90	36.1581920903955	36.241610738255	7	0.233349592015147	2	7	1	NaN	2	5	0.0380890645878151	0	1	NaN	444	8	3	2	120	220	320	NaN	520	0.254411917179823	1	0	NaN	1558363.4702498	NaN	1558364.4536819	1558364.97021718
8	22	0	0	90	36.1581920903955	36.241610738255	24	0.800055744051933	2	3	5	NaN	1	3	0.0380890645878151	0	1	NaN	445	8	4	2	120	220	320	NaN	520	0.216441769618541	1	1	NaN	1558366.4039044	NaN	1558367.3872985	1558367.90382693
8	22	0	0	90	36.1581920903955	36.241610738255	15	0.500034840032458	2	11	6	NaN	2	3	0.0380890645878151	0	1	NaN	446	8	5	2	120	220	320	NaN	520	0.28991882246919	2	1	NaN	1558369.7542044	NaN	1558370.7376178	1558371.25416288
8	22	0	0	90	36.1581920903955	36.241610738255	13	0.43336352802813	2	5	1	NaN	1	4	0.0380890645878151	0	1	NaN	447	8	6	2	120	220	320	NaN	520	0.26563553721644	2	0	NaN	1558372.371031	NaN	1558373.3545361	1558373.87109226
8	22	0	0	90	36.1581920903955	36.241610738255	18	0.60004180803895	2	1	5	NaN	1	5	0.0380890645878151	0	1	NaN	448	8	7	2	120	220	320	NaN	520	0.0104111223481596	2	0	NaN	1558374.9546565	NaN	1558375.9381647	1558376.45467588
8	22	0	0	90	36.1581920903955	36.241610738255	11	0.366692216023803	2	10	5	NaN	2	3	0.0380890645878151	0	1	NaN	449	8	8	2	120	220	320	NaN	520	0.308560790028423	2	1	NaN	1558377.2716037	NaN	1558378.2550111	1558378.77157971
8	22	0	0	90	36.1581920903955	36.241610738255	13	0.43336352802813	2	3	3	NaN	1	5	0.0380890645878151	0	1	NaN	450	8	9	2	120	220	320	NaN	520	0.283495579846203	2	0	NaN	1558379.905208	NaN	1558380.8886057	1558381.40515712
8	22	0	0	90	36.1581920903955	36.241610738255	25	0.833391400054097	2	6	5	NaN	1	3	0.0380890645878151	0	1	NaN	451	8	10	2	120	220	320	NaN	520	0.291027022525668	2	0	NaN	1558382.7053989	NaN	1558383.6889017	1558384.20543718
8	22	0	0	90	36.1581920903955	36.241610738255	23	0.766720088049769	2	7	6	NaN	2	4	0.0380890645878151	0	1	NaN	452	8	11	2	120	220	320	NaN	520	0.426242122193798	2	1	NaN	1558385.3224359	NaN	1558386.3058071	1558386.82235518
8	22	0	0	90	36.1581920903955	36.241610738255	23	0.766720088049769	2	2	5	NaN	1	4	0.0380890645878151	0	1	NaN	453	8	12	2	120	220	320	NaN	520	0.220031664706767	1	1	NaN	1558388.0725562	NaN	1558389.0560864	1558389.57262254
8	22	0	0	90	36.1581920903955	36.241610738255	22	0.733384432047606	2	6	1	NaN	1	5	0.0380890645878151	0	1	NaN	454	8	13	2	120	220	320	NaN	520	0.229503390146419	2	0	NaN	1558390.6229516	NaN	1558391.6063454	1558392.12288441
8	22	0	0	90	36.1581920903955	36.241610738255	13	0.43336352802813	2	8	3	NaN	2	3	0.0380890645878151	0	1	NaN	455	8	14	2	120	220	320	NaN	520	0.191384222358465	1	0	NaN	1558393.1731627	NaN	1558394.1565831	1558394.67314658
8	22	0	0	90	36.1581920903955	36.241610738255	8	0.266685248017311	2	12	1	NaN	2	4	0.0380890645878151	0	1	NaN	456	8	15	2	120	220	320	NaN	520	0.22758773737587	1	0	NaN	1558395.8566603	NaN	1558396.8401527	1558397.35673726
8	22	0	0	90	36.1581920903955	36.241610738255	12	0.400027872025967	2	4	6	NaN	1	5	0.0380890645878151	0	1	NaN	457	8	16	2	120	220	320	NaN	520	0.213808222441003	2	0	NaN	1558398.4070659	NaN	1558399.3904102	1558399.90697778
8	22	0	0	90	36.1581920903955	36.241610738255	15	0.500034840032458	2	12	3	NaN	2	5	0.0380890645878151	0	1	NaN	458	8	17	2	120	220	320	NaN	520	0.262065522372723	1	0	NaN	1558400.9905997	NaN	1558401.9740236	1558402.49055958
8	22	0	0	90	36.1581920903955	36.241610738255	23	0.766720088049769	2	1	3	NaN	1	4	0.0380890645878151	0	1	NaN	459	8	18	2	120	220	320	NaN	520	0.231585417175665	2	0	NaN	1558404.3409257	NaN	1558405.3243536	1558405.84089358
8	22	0	0	90	36.1581920903955	36.241610738255	6	0.200013936012983	2	7	4	NaN	2	3	0.0380890645878151	0	1	NaN	460	8	19	2	120	220	320	NaN	520	0.249488369794562	2	1	NaN	1558406.8912172	NaN	1558407.8745809	1558408.39114473
