subjno	age	gender	isPractice	viewdist	CmToPixX	CmToPixY	SOA_frm	SOA_time	targNum	targID	targExample	targRace	targGender	firstTargPos	contrast	familiarity	curr_staircase	iStair	TrialNum	BlockNum	blktrl	sessionNum	TC_FIXATION	TC_RSVP_START	TC_RSVP_END	TC_BLANK	TC_RESPONSE_ONSET	RT2afc	resp_2afc	acc	RSVPOnsetVBL	RSVPOnsetTime	RSVPOffsetVBL	RSVPOffsetTime	startrt_2afc
48	27	1	0	90	36.1581920903955	36.241610738255	12	0.400026144012809	2	4	2	NaN	1	3	0.0345078701775815	1	1	NaN	1	1	1	1	121	221	321	NaN	521	0.137043973896652	2	0	NaN	1475778.6562822	NaN	1475779.6395832	1475780.17269423
48	27	1	0	90	36.1581920903955	36.241610738255	18	0.600039216019213	2	10	2	NaN	2	4	0.0345078701775815	1	1	NaN	2	1	2	1	121	221	321	NaN	521	0.453275373904034	1	0	NaN	1475780.9398118	NaN	1475781.9231307	1475782.45626403
48	27	1	0	90	36.1581920903955	36.241610738255	25	0.833387800026685	2	7	3	NaN	2	4	0.0345078701775815	1	1	NaN	3	1	3	1	121	221	321	NaN	521	0.0103997371625155	2	1	NaN	1475783.5065582	NaN	1475784.4899528	1475785.00651376
48	27	1	0	90	36.1581920903955	36.241610738255	12	0.400026144012809	2	1	1	NaN	1	4	0.0345078701775815	1	1	NaN	4	1	4	1	121	221	321	NaN	521	0.266318768728524	1	1	NaN	1475785.6234276	NaN	1475786.606845	1475787.12337363
48	27	1	0	90	36.1581920903955	36.241610738255	19	0.633374728020281	2	8	5	NaN	2	4	0.0345078701775815	1	1	NaN	5	1	5	1	121	221	321	NaN	521	0.299622568767518	1	0	NaN	1475787.990333	NaN	1475788.9737296	1475789.49027393
48	27	1	0	90	36.1581920903955	36.241610738255	14	0.466697168014944	2	9	4	NaN	2	5	0.0345078701775815	1	1	NaN	6	1	6	1	121	221	321	NaN	521	0.235575468745083	2	1	NaN	1475790.3905696	NaN	1475791.3739624	1475791.89051173
48	27	1	0	90	36.1581920903955	36.241610738255	22	0.733381264023483	2	10	2	NaN	2	4	0.0345078701775815	1	1	NaN	7	1	7	1	121	221	321	NaN	521	0.301537668798119	2	1	NaN	1475792.7241203	NaN	1475793.7075098	1475794.22407183
48	27	1	0	90	36.1581920903955	36.241610738255	23	0.76671677602455	2	6	2	NaN	1	3	0.0345078701775815	1	1	NaN	8	1	8	1	121	221	321	NaN	521	0.205769668798894	2	0	NaN	1475795.1243701	NaN	1475796.1077588	1475796.62431303
48	27	1	0	90	36.1581920903955	36.241610738255	11	0.366690632011741	2	6	4	NaN	1	4	0.0345078701775815	1	1	NaN	9	1	9	1	121	221	321	NaN	521	0.0251917163841426	2	0	NaN	1475797.4245891	NaN	1475798.4079734	1475798.92453148
48	27	1	0	90	36.1581920903955	36.241610738255	10	0.333355120010674	2	3	4	NaN	1	3	0.0345078701775815	1	1	NaN	10	1	10	1	121	221	321	NaN	521	0.0202929687220603	2	0	NaN	1475799.541465	NaN	1475800.5248661	1475801.04141443
48	27	1	0	90	36.1581920903955	36.241610738255	13	0.433361656013876	2	10	3	NaN	2	3	0.0345078701775815	1	1	NaN	11	1	11	1	121	221	321	NaN	521	0.010360621381551	2	1	NaN	1475801.6583401	NaN	1475802.6417473	1475803.15829548
48	27	1	0	90	36.1581920903955	36.241610738255	15	0.500032680016011	2	5	5	NaN	1	3	0.0345078701775815	1	1	NaN	12	1	12	1	121	221	321	NaN	521	0.0103756687603891	2	0	NaN	1475803.7585347	NaN	1475804.7419471	1475805.25849313
48	27	1	0	90	36.1581920903955	36.241610738255	17	0.566703704018146	2	6	6	NaN	1	5	0.0345078701775815	1	1	NaN	13	1	13	1	121	221	321	NaN	521	0.21495463186875	2	0	NaN	1475805.8587516	NaN	1475806.8421536	1475807.35869687
48	27	1	0	90	36.1581920903955	36.241610738255	12	0.400026144012809	2	3	6	NaN	1	4	0.0345078701775815	1	1	NaN	14	1	14	1	121	221	321	NaN	521	0.15450916881673	1	1	NaN	1475808.175655	NaN	1475809.1590449	1475809.67559893
48	27	1	0	90	36.1581920903955	36.241610738255	17	0.566703704018146	2	9	2	NaN	2	5	0.0345078701775815	1	1	NaN	15	1	15	1	121	221	321	NaN	521	0.0103967164177448	1	0	NaN	1475810.42574	NaN	1475811.4092576	1475811.92581308
48	27	1	0	90	36.1581920903955	36.241610738255	20	0.666710240021348	2	8	6	NaN	2	5	0.0345078701775815	1	1	NaN	16	1	16	1	121	221	321	NaN	521	0.251663368893787	1	0	NaN	1475812.526082	NaN	1475813.5094623	1475814.02602213
48	27	1	0	90	36.1581920903955	36.241610738255	11	0.366690632011741	2	5	2	NaN	1	5	0.0345078701775815	1	1	NaN	17	1	17	1	121	221	321	NaN	521	0.309477316448465	2	0	NaN	1475814.8762978	NaN	1475815.8596893	1475816.37624698
48	27	1	0	90	36.1581920903955	36.241610738255	16	0.533368192017078	2	3	1	NaN	1	3	0.0345078701775815	1	1	NaN	18	1	18	1	121	221	321	NaN	521	0.029321868903935	1	1	NaN	1475817.2765379	NaN	1475818.2599444	1475818.77648213
48	27	1	0	90	36.1581920903955	36.241610738255	13	0.433361656013876	2	11	3	NaN	2	5	0.0345078701775815	1	1	NaN	19	1	19	1	121	221	321	NaN	521	0.0242259213700891	2	1	NaN	1475819.3934086	NaN	1475820.3768125	1475820.89336028
48	27	1	0	90	36.1581920903955	36.241610738255	15	0.500032680016011	2	6	6	NaN	1	3	0.0345078701775815	1	1	NaN	20	1	20	1	121	221	321	NaN	521	0.635874568717554	1	1	NaN	1475821.5103041	NaN	1475822.4936984	1475823.01023453
48	27	1	0	90	36.1581920903955	36.241610738255	25	0.833387800026685	2	10	1	NaN	2	5	0.0345078701775815	1	1	NaN	21	1	21	1	121	221	321	NaN	521	0.24562088958919	1	0	NaN	1475824.2438902	NaN	1475825.2272805	1475825.74383871
48	27	1	0	90	36.1581920903955	36.241610738255	19	0.633374728020281	2	7	5	NaN	2	3	0.0345078701775815	1	1	NaN	22	1	22	1	121	221	321	NaN	521	0.160623168805614	2	1	NaN	1475826.5774521	NaN	1475827.5608572	1475828.07739933
48	27	1	0	90	36.1581920903955	36.241610738255	6	0.200013072006404	2	6	2	NaN	1	5	0.0345078701775815	1	1	NaN	23	1	23	1	121	221	321	NaN	521	0.0103724687360227	1	1	NaN	1475828.8276702	NaN	1475829.8110378	1475830.32762353
48	27	1	0	90	36.1581920903955	36.241610738255	15	0.500032680016011	2	5	6	NaN	1	5	0.0345078701775815	1	1	NaN	24	1	24	1	121	221	321	NaN	521	0.010373568860814	1	1	NaN	1475830.9278825	NaN	1475831.9112792	1475832.42783263
48	27	1	0	90	36.1581920903955	36.241610738255	8	0.266684096008539	2	7	3	NaN	2	5	0.0345078701775815	1	1	NaN	25	1	25	1	121	221	321	NaN	521	0.0856033165473491	2	1	NaN	1475833.0281042	NaN	1475834.0114951	1475834.52802868
48	27	1	0	90	36.1581920903955	36.241610738255	7	0.233348584007472	2	8	4	NaN	2	4	0.0345078701775815	1	1	NaN	26	1	26	1	121	221	321	NaN	521	0.0103749688714743	2	1	NaN	1475835.2116373	NaN	1475836.195028	1475836.71158153
48	27	1	0	90	36.1581920903955	36.241610738255	25	0.833387800026685	2	8	4	NaN	2	4	0.0345078701775815	1	1	NaN	27	1	27	1	121	221	321	NaN	521	1.22603516886011	2	1	NaN	1475837.3118467	NaN	1475838.2952386	1475838.81178093
48	27	1	0	90	36.1581920903955	36.241610738255	25	0.833387800026685	2	6	3	NaN	1	4	0.0345078701775815	1	1	NaN	28	1	28	1	121	221	321	NaN	521	0.0129124165978283	1	1	NaN	1475840.6288329	NaN	1475841.6122202	1475842.12877788
48	27	1	0	90	36.1581920903955	36.241610738255	14	0.466697168014944	2	6	6	NaN	1	4	0.0345078701775815	1	1	NaN	29	1	29	1	121	221	321	NaN	521	0.0103580213617533	2	0	NaN	1475842.7457126	NaN	1475843.7290864	1475844.24566238
48	27	1	0	90	36.1581920903955	36.241610738255	15	0.500032680016011	2	10	1	NaN	2	3	0.0345078701775815	1	1	NaN	30	1	30	1	121	221	321	NaN	521	0.484318279195577	1	0	NaN	1475844.8459138	NaN	1475845.8294223	1475846.34586022
48	27	1	0	90	36.1581920903955	36.241610738255	10	0.333355120010674	2	10	6	NaN	2	5	0.0345078701775815	1	1	NaN	31	1	31	1	121	221	321	NaN	521	0.188688421389088	1	0	NaN	1475847.4295202	NaN	1475848.412874	1475848.92945078
48	27	1	0	90	36.1581920903955	36.241610738255	7	0.233348584007472	2	10	4	NaN	2	3	0.0345078701775815	1	1	NaN	32	1	32	1	121	221	321	NaN	521	0.0102325421757996	2	1	NaN	1475849.7130635	NaN	1475850.69646	1475851.21301546
48	27	1	0	90	36.1581920903955	36.241610738255	16	0.533368192017078	2	7	4	NaN	2	5	0.0345078701775815	1	1	NaN	33	1	33	1	121	221	321	NaN	521	0.0103868164587766	2	1	NaN	1475851.8132618	NaN	1475852.7966746	1475853.31321158
48	27	1	0	90	36.1581920903955	36.241610738255	19	0.633374728020281	2	10	1	NaN	2	3	0.0345078701775815	1	1	NaN	34	1	34	1	121	221	321	NaN	521	0.0102983319666237	2	1	NaN	1475853.9134767	NaN	1475854.8968756	1475855.41341927
48	27	1	0	90	36.1581920903955	36.241610738255	23	0.76671677602455	2	2	1	NaN	1	5	0.0345078701775815	1	1	NaN	35	1	35	1	121	221	321	NaN	521	0.204130521509796	2	0	NaN	1475856.0136818	NaN	1475856.9970814	1475857.51362898
48	27	1	0	90	36.1581920903955	36.241610738255	9	0.300019608009607	2	10	2	NaN	2	5	0.0345078701775815	1	1	NaN	36	1	36	1	121	221	321	NaN	521	0.0477906689047813	1	0	NaN	1475858.3139058	NaN	1475859.2972964	1475859.81385233
48	27	1	0	90	36.1581920903955	36.241610738255	13	0.433361656013876	2	4	3	NaN	1	5	0.0345078701775815	1	1	NaN	37	1	37	1	121	221	321	NaN	521	0.289708921452984	1	1	NaN	1475860.4641035	NaN	1475861.4475136	1475861.96406198
48	27	1	0	90	36.1581920903955	36.241610738255	14	0.466697168014944	2	2	3	NaN	1	3	0.0345078701775815	1	1	NaN	38	1	38	1	121	221	321	NaN	521	0.0501228689681739	2	0	NaN	1475862.8476935	NaN	1475863.83106	1475864.34763373
48	27	1	0	90	36.1581920903955	36.241610738255	25	0.833387800026685	2	2	3	NaN	1	5	0.0345078701775815	1	1	NaN	39	1	39	1	121	221	321	NaN	521	0.0103573212400079	2	0	NaN	1475864.9812192	NaN	1475865.9646176	1475866.48117638
48	27	1	0	90	36.1581920903955	36.241610738255	11	0.366690632011741	2	7	3	NaN	2	5	0.0345078701775815	1	1	NaN	40	1	40	1	121	221	321	NaN	521	0.192337063839659	2	1	NaN	1475867.0814242	NaN	1475868.0648356	1475868.58136834
48	27	1	0	90	36.1581920903955	36.241610738255	14	0.466697168014944	2	8	3	NaN	2	5	0.0345078701775815	1	1	NaN	41	1	41	1	121	221	321	NaN	521	0.756692421389744	2	1	NaN	1475869.3649833	NaN	1475870.3483852	1475870.86493138
48	27	1	0	90	36.1581920903955	36.241610738255	14	0.466697168014944	2	4	3	NaN	1	3	0.0345078701775815	1	1	NaN	42	1	42	1	121	221	321	NaN	521	1.44296183716506	2	0	NaN	1475872.2152615	NaN	1475873.1986692	1475873.71521856
48	27	1	0	90	36.1581920903955	36.241610738255	25	0.833387800026685	2	5	1	NaN	1	3	0.0345078701775815	1	1	NaN	43	1	43	1	121	221	321	NaN	521	0.0103820213116705	2	0	NaN	1475875.7489523	NaN	1475876.7323359	1475877.24889918
48	27	1	0	90	36.1581920903955	36.241610738255	15	0.500032680016011	2	11	6	NaN	2	4	0.0345078701775815	1	1	NaN	44	1	44	1	121	221	321	NaN	521	0.505008268868551	2	1	NaN	1475877.8491696	NaN	1475878.8325551	1475879.34910173
48	27	1	0	90	36.1581920903955	36.241610738255	25	0.833387800026685	2	9	5	NaN	2	4	0.0345078701775815	1	1	NaN	45	1	45	1	121	221	321	NaN	521	0.888339921366423	2	1	NaN	1475880.4494121	NaN	1475881.432801	1475881.94935838
48	27	1	0	90	36.1581920903955	36.241610738255	14	0.466697168014944	2	9	1	NaN	2	4	0.0345078701775815	1	1	NaN	46	1	46	1	121	221	321	NaN	521	0.0888312214519829	2	1	NaN	1475883.4330295	NaN	1475884.4164341	1475884.93298828
48	27	1	0	90	36.1581920903955	36.241610738255	21	0.700045752022415	2	5	1	NaN	1	3	0.0345078701775815	1	1	NaN	47	1	47	1	121	221	321	NaN	521	0.177250668872148	1	1	NaN	1475885.6165901	NaN	1475886.5999706	1475887.11652443
48	27	1	0	90	36.1581920903955	36.241610738255	14	0.466697168014944	2	5	3	NaN	1	4	0.0345078701775815	1	1	NaN	48	1	48	1	121	221	321	NaN	521	0.270729168783873	1	1	NaN	1475887.883364	NaN	1475888.8668747	1475889.38342173
48	27	1	0	90	36.1581920903955	36.241610738255	11	0.366690632011741	2	11	5	NaN	2	3	0.0345078701775815	1	1	NaN	49	1	49	1	121	221	321	NaN	521	0.327455721562728	2	1	NaN	1475890.2503691	NaN	1475891.2337564	1475891.75031428
48	27	1	0	90	36.1581920903955	36.241610738255	17	0.566703704018146	2	2	6	NaN	1	3	0.0345078701775815	1	1	NaN	50	1	50	1	121	221	321	NaN	521	1.18269566888921	1	1	NaN	1475892.6672642	NaN	1475893.6506612	1475894.16721443
48	27	1	0	90	36.1581920903955	36.241610738255	6	0.200013072006404	2	4	6	NaN	1	4	0.0345078701775815	1	1	NaN	51	1	51	1	121	221	321	NaN	521	0.211638621520251	2	0	NaN	1475895.9342615	NaN	1475896.9176662	1475897.43420948
48	27	1	0	90	36.1581920903955	36.241610738255	6	0.200013072006404	2	2	4	NaN	1	3	0.0345078701775815	1	1	NaN	52	1	52	1	121	221	321	NaN	521	0.183722568908706	1	1	NaN	1475898.2344855	NaN	1475899.2178923	1475899.73443433
48	27	1	0	90	36.1581920903955	36.241610738255	12	0.400026144012809	2	5	3	NaN	1	5	0.0345078701775815	1	1	NaN	53	1	53	1	121	221	321	NaN	521	0.316757621476427	2	0	NaN	1475900.5013826	NaN	1475901.4847757	1475902.00131898
48	27	1	0	90	36.1581920903955	36.241610738255	18	0.600039216019213	2	1	3	NaN	1	4	0.0345078701775815	1	1	NaN	54	1	54	1	121	221	321	NaN	521	0.220215168781579	2	0	NaN	1475902.9016169	NaN	1475903.8850157	1475904.40156143
48	27	1	0	90	36.1581920903955	36.241610738255	25	0.833387800026685	2	1	2	NaN	1	5	0.0345078701775815	1	1	NaN	55	1	55	1	121	221	321	NaN	521	0.279837421374395	2	0	NaN	1475905.2185157	NaN	1475906.2019026	1475906.71845888
48	27	1	0	90	36.1581920903955	36.241610738255	20	0.666710240021348	2	10	3	NaN	2	3	0.0345078701775815	1	1	NaN	56	1	56	1	121	221	321	NaN	521	0.256706821499392	2	1	NaN	1475907.585415	NaN	1475908.5688071	1475909.08535988
48	27	1	0	90	36.1581920903955	36.241610738255	12	0.400026144012809	2	5	5	NaN	1	5	0.0345078701775815	1	1	NaN	57	1	57	1	121	221	321	NaN	521	0.17814706871286	2	0	NaN	1475909.9356332	NaN	1475910.9190269	1475911.43558163
48	27	1	0	90	36.1581920903955	36.241610738255	6	0.200013072006404	2	8	1	NaN	2	5	0.0345078701775815	1	1	NaN	58	1	58	1	121	221	321	NaN	521	0.111409721430391	2	1	NaN	1475912.2025332	NaN	1475913.1859266	1475913.70246988
48	27	1	0	90	36.1581920903955	36.241610738255	6	0.200013072006404	2	3	6	NaN	1	3	0.0345078701775815	1	1	NaN	59	1	59	1	121	221	321	NaN	521	0.0231089163571596	2	0	NaN	1475914.4027408	NaN	1475915.3861532	1475915.90268348
48	27	1	0	90	36.1581920903955	36.241610738255	7	0.233348584007472	2	7	2	NaN	2	5	0.0345078701775815	1	1	NaN	60	1	60	1	121	221	321	NaN	521	0.266269468702376	2	1	NaN	1475916.5196277	NaN	1475917.5030095	1475918.01956493
48	27	1	0	90	36.1581920903955	36.241610738255	15	0.500032680016011	2	8	2	NaN	2	5	0.0345078701775815	1	1	NaN	61	1	61	1	121	221	321	NaN	521	0.0103584213647991	2	1	NaN	1475918.8698445	NaN	1475919.8532507	1475920.36979208
48	27	1	0	90	36.1581920903955	36.241610738255	18	0.600039216019213	2	6	3	NaN	1	5	0.0345078701775815	1	1	NaN	62	1	62	1	121	221	321	NaN	521	0.0103740687482059	2	0	NaN	1475920.9700452	NaN	1475921.9534551	1475922.47000203
48	27	1	0	90	36.1581920903955	36.241610738255	21	0.700045752022415	2	8	2	NaN	2	3	0.0345078701775815	1	1	NaN	63	1	63	1	121	221	321	NaN	521	0.0116568163502961	2	1	NaN	1475923.0702507	NaN	1475924.0536651	1475924.57020368
48	27	1	0	90	36.1581920903955	36.241610738255	22	0.733381264023483	2	8	5	NaN	2	3	0.0345078701775815	1	1	NaN	64	2	1	1	121	221	321	NaN	521	0.293633621418849	2	1	NaN	1475931.2044166	NaN	1475932.1877764	1475932.70434098
48	27	1	0	90	36.1581920903955	36.241610738255	24	0.800052288025618	2	5	6	NaN	1	4	0.0345078701775815	1	1	NaN	65	2	2	1	121	221	321	NaN	521	0.205995668889955	2	0	NaN	1475933.5879504	NaN	1475934.5713608	1475935.08790883
48	27	1	0	90	36.1581920903955	36.241610738255	17	0.566703704018146	2	10	2	NaN	2	5	0.0345078701775815	1	1	NaN	66	2	3	1	121	221	321	NaN	521	0.0103989164344966	2	1	NaN	1475935.8881828	NaN	1475936.871583	1475937.38813328
48	27	1	0	90	36.1581920903955	36.241610738255	17	0.566703704018146	2	9	3	NaN	2	3	0.0345078701775815	1	1	NaN	67	2	4	1	121	221	321	NaN	521	0.0214464690070599	2	1	NaN	1475937.9883883	NaN	1475938.9717853	1475939.48833623
48	27	1	0	90	36.1581920903955	36.241610738255	12	0.400026144012809	2	8	3	NaN	2	3	0.0345078701775815	1	1	NaN	68	2	5	1	121	221	321	NaN	521	0.841068968642503	2	1	NaN	1475940.1052616	NaN	1475941.088685	1475941.60520693
48	27	1	0	90	36.1581920903955	36.241610738255	12	0.400026144012809	2	9	4	NaN	2	4	0.0345078701775815	1	1	NaN	69	2	6	1	121	221	321	NaN	521	0.210845768917352	1	0	NaN	1475943.0388806	NaN	1475944.0222768	1475944.53882643
48	27	1	0	90	36.1581920903955	36.241610738255	8	0.266684096008539	2	2	2	NaN	1	4	0.0345078701775815	1	1	NaN	70	2	7	1	121	221	321	NaN	521	0.23070602142252	1	1	NaN	1475945.3391107	NaN	1475946.3225575	1475946.83906348
48	27	1	0	90	36.1581920903955	36.241610738255	24	0.800052288025618	2	10	2	NaN	2	4	0.0345078701775815	1	1	NaN	71	2	8	1	121	221	321	NaN	521	0.0103888164740056	2	1	NaN	1475947.6560076	NaN	1475948.6394094	1475949.15595298
48	27	1	0	90	36.1581920903955	36.241610738255	25	0.833387800026685	2	2	1	NaN	1	5	0.0345078701775815	1	1	NaN	72	2	9	1	121	221	321	NaN	521	0.010360321495682	2	0	NaN	1475949.7562061	NaN	1475950.7396091	1475951.25616318
48	27	1	0	90	36.1581920903955	36.241610738255	7	0.233348584007472	2	3	5	NaN	1	3	0.0345078701775815	1	1	NaN	73	2	10	1	121	221	321	NaN	521	0.161509121302515	2	0	NaN	1475951.8564112	NaN	1475952.839815	1475953.35637228
48	27	1	0	90	36.1581920903955	36.241610738255	23	0.76671677602455	2	9	1	NaN	2	4	0.0345078701775815	1	1	NaN	74	2	11	1	121	221	321	NaN	521	0.20724092121236	2	1	NaN	1475954.1066262	NaN	1475955.0900391	1475955.60658968
48	27	1	0	90	36.1581920903955	36.241610738255	6	0.200013072006404	2	10	4	NaN	2	4	0.0345078701775815	1	1	NaN	75	2	12	1	121	221	321	NaN	521	0.171041868859902	2	1	NaN	1475956.4068833	NaN	1475957.3902685	1475957.90680763
48	27	1	0	90	36.1581920903955	36.241610738255	0	0	1	6	5	NaN	1	5	0.0345078701775815	1	1	NaN	76	2	13	1	111	211	311	NaN	511	0.0103598213754594	2	0	NaN	1475958.6737597	NaN	1475959.6571469	1475960.17370548
48	27	1	0	90	36.1581920903955	36.241610738255	24	0.800052288025618	2	9	6	NaN	2	3	0.0345078701775815	1	1	NaN	77	2	14	1	121	221	321	NaN	521	0.188442689599469	2	1	NaN	1475960.7739717	NaN	1475961.7573638	1475962.27390581
48	27	1	0	90	36.1581920903955	36.241610738255	12	0.400026144012809	2	1	2	NaN	1	3	0.0345078701775815	1	1	NaN	78	2	15	1	121	221	321	NaN	521	0.0103588213678449	2	0	NaN	1475963.0575154	NaN	1475964.040946	1475964.55746908
48	27	1	0	90	36.1581920903955	36.241610738255	21	0.700045752022415	2	5	4	NaN	1	4	0.0345078701775815	1	1	NaN	79	2	16	1	121	221	321	NaN	521	0.13230181648396	2	0	NaN	1475965.1577193	NaN	1475966.1411278	1475966.65766258
48	27	1	0	90	36.1581920903955	36.241610738255	19	0.633374728020281	2	9	5	NaN	2	5	0.0345078701775815	1	1	NaN	80	2	17	1	121	221	321	NaN	521	0.211587068624794	2	1	NaN	1475967.374611	NaN	1475968.3580017	1475968.87455203
48	27	1	0	90	36.1581920903955	36.241610738255	18	0.600039216019213	2	11	3	NaN	2	5	0.0345078701775815	1	1	NaN	81	2	18	1	121	221	321	NaN	521	0.0103769688867033	2	1	NaN	1475969.6748286	NaN	1475970.6582382	1475971.17477743
48	27	1	0	90	36.1581920903955	36.241610738255	23	0.76671677602455	2	8	4	NaN	2	5	0.0345078701775815	1	1	NaN	82	2	19	1	121	221	321	NaN	521	0.0103588213678449	2	1	NaN	1475971.7750375	NaN	1475972.7584452	1475973.27499238
48	27	1	0	90	36.1581920903955	36.241610738255	14	0.466697168014944	2	4	4	NaN	1	3	0.0345078701775815	1	1	NaN	83	2	20	1	121	221	321	NaN	521	0.102664963807911	2	0	NaN	1475973.875241	NaN	1475974.8586335	1475975.37518474
48	27	1	0	90	36.1581920903955	36.241610738255	19	0.633374728020281	2	8	1	NaN	2	3	0.0345078701775815	1	1	NaN	84	2	21	1	121	221	321	NaN	521	0.279214821290225	2	1	NaN	1475976.0587918	NaN	1475977.0422036	1475977.55873568
48	27	1	0	90	36.1581920903955	36.241610738255	9	0.300019608009607	2	12	6	NaN	2	5	0.0345078701775815	1	1	NaN	85	2	22	1	121	221	321	NaN	521	0.0802876371890306	2	1	NaN	1475978.4256891	NaN	1475979.4089882	1475979.92564176
48	27	1	0	90	36.1581920903955	36.241610738255	9	0.300019608009607	2	6	5	NaN	1	3	0.0345078701775815	1	1	NaN	86	2	23	1	121	221	321	NaN	521	0.225849321577698	2	0	NaN	1475980.5925728	NaN	1475981.5759668	1475982.09252098
48	27	1	0	90	36.1581920903955	36.241610738255	13	0.433361656013876	2	10	3	NaN	2	4	0.0345078701775815	1	1	NaN	87	2	24	1	121	221	321	NaN	521	0.0103739688638598	2	1	NaN	1475982.9094593	NaN	1475983.8928605	1475984.40940793
48	27	1	0	90	36.1581920903955	36.241610738255	11	0.366690632011741	2	1	2	NaN	1	4	0.0345078701775815	1	1	NaN	88	2	25	1	121	221	321	NaN	521	0.120657321298495	1	1	NaN	1475985.0097005	NaN	1475985.9930624	1475986.50961888
48	27	1	0	90	36.1581920903955	36.241610738255	14	0.466697168014944	2	8	1	NaN	2	5	0.0345078701775815	1	1	NaN	89	2	26	1	121	221	321	NaN	521	0.0103589214850217	2	1	NaN	1475987.2265732	NaN	1475988.2099509	1475988.72650878
48	27	1	0	90	36.1581920903955	36.241610738255	13	0.433361656013876	2	1	6	NaN	1	5	0.0345078701775815	1	1	NaN	90	2	27	1	121	221	321	NaN	521	0.251230121357366	2	0	NaN	1475989.3267594	NaN	1475990.3101612	1475990.82671348
48	27	1	0	90	36.1581920903955	36.241610738255	18	0.600039216019213	2	6	5	NaN	1	4	0.0345078701775815	1	1	NaN	91	2	28	1	121	221	321	NaN	521	0.205672921380028	2	0	NaN	1475991.6603146	NaN	1475992.643727	1475993.16027368
48	27	1	0	90	36.1581920903955	36.241610738255	10	0.333355120010674	2	8	6	NaN	2	4	0.0345078701775815	1	1	NaN	92	2	29	1	121	221	321	NaN	521	0.193462016293779	2	1	NaN	1475993.9605555	NaN	1475994.9439504	1475995.46049748
48	27	1	0	90	36.1581920903955	36.241610738255	8	0.266684096008539	2	9	4	NaN	2	3	0.0345078701775815	1	1	NaN	93	2	30	1	121	221	321	NaN	521	0.222272568847984	2	1	NaN	1475996.2441143	NaN	1475997.2275078	1475997.74405153
48	27	1	0	90	36.1581920903955	36.241610738255	21	0.700045752022415	2	2	4	NaN	1	5	0.0345078701775815	1	1	NaN	94	2	31	1	121	221	321	NaN	521	0.0103765688836575	1	1	NaN	1475998.5610229	NaN	1475999.5443826	1476000.06094373
48	27	1	0	90	36.1581920903955	36.241610738255	22	0.733381264023483	2	11	6	NaN	2	3	0.0345078701775815	1	1	NaN	95	2	32	1	121	221	321	NaN	521	0.108915568795055	2	1	NaN	1476000.6612058	NaN	1476001.6445907	1476002.16115153
48	27	1	0	90	36.1581920903955	36.241610738255	16	0.533368192017078	2	1	4	NaN	1	5	0.0345078701775815	1	1	NaN	96	2	33	1	121	221	321	NaN	521	0.244934221263975	2	0	NaN	1476002.8614267	NaN	1476003.8448063	1476004.36136978
48	27	1	0	90	36.1581920903955	36.241610738255	23	0.76671677602455	2	4	5	NaN	1	4	0.0345078701775815	1	1	NaN	97	2	34	1	121	221	321	NaN	521	0.175023216288537	2	0	NaN	1476005.1949802	NaN	1476006.1783896	1476006.69492698
48	27	1	0	90	36.1581920903955	36.241610738255	10	0.333355120010674	2	5	2	NaN	1	4	0.0345078701775815	1	1	NaN	98	2	35	1	121	221	321	NaN	521	0.284402116434649	2	0	NaN	1476007.4618716	NaN	1476008.4452827	1476008.96181568
48	27	1	0	90	36.1581920903955	36.241610738255	18	0.600039216019213	2	1	3	NaN	1	5	0.0345078701775815	1	1	NaN	99	2	36	1	121	221	321	NaN	521	0.252552368910983	2	0	NaN	1476009.8453693	NaN	1476010.8288426	1476011.34538613
48	27	1	0	90	36.1581920903955	36.241610738255	16	0.533368192017078	2	8	2	NaN	2	4	0.0345078701775815	1	1	NaN	100	2	37	1	121	221	321	NaN	521	0.263030837289989	2	1	NaN	1476012.1790058	NaN	1476013.1623938	1476013.67895546
48	27	1	0	90	36.1581920903955	36.241610738255	13	0.433361656013876	2	7	5	NaN	2	3	0.0345078701775815	1	1	NaN	101	2	38	1	121	221	321	NaN	521	0.184963068692014	2	1	NaN	1476014.5292339	NaN	1476015.5126341	1476016.02917803
48	27	1	0	90	36.1581920903955	36.241610738255	22	0.733381264023483	2	12	4	NaN	2	4	0.0345078701775815	1	1	NaN	102	2	39	1	121	221	321	NaN	521	0.405880174133927	2	1	NaN	1476016.7961319	NaN	1476017.7795345	1476018.29607513
48	27	1	0	90	36.1581920903955	36.241610738255	0	0	1	3	1	NaN	1	5	0.0345078701775815	1	1	NaN	103	2	40	1	111	211	311	NaN	511	0.241456668823957	2	0	NaN	1476019.2963668	NaN	1476020.279768	1476020.79632413
48	27	1	0	90	36.1581920903955	36.241610738255	24	0.800052288025618	2	3	5	NaN	1	5	0.0345078701775815	1	1	NaN	104	2	41	1	121	221	321	NaN	521	0.315883316565305	2	0	NaN	1476021.6299281	NaN	1476022.6133457	1476023.12988148
48	27	1	0	90	36.1581920903955	36.241610738255	6	0.200013072006404	2	10	1	NaN	2	4	0.0345078701775815	1	1	NaN	105	2	42	1	121	221	321	NaN	521	0.211875468725339	2	1	NaN	1476024.0301694	NaN	1476025.0135729	1476025.53011603
48	27	1	0	90	36.1581920903955	36.241610738255	7	0.233348584007472	2	8	2	NaN	2	5	0.0345078701775815	1	1	NaN	106	2	43	1	121	221	321	NaN	521	0.27141542150639	2	1	NaN	1476026.3303965	NaN	1476027.3137834	1476027.83034528
48	27	1	0	90	36.1581920903955	36.241610738255	9	0.300019608009607	2	5	5	NaN	1	4	0.0345078701775815	1	1	NaN	107	2	44	1	121	221	321	NaN	521	0.240754368947819	2	0	NaN	1476028.6972922	NaN	1476029.6806868	1476030.19723963
48	27	1	0	90	36.1581920903955	36.241610738255	24	0.800052288025618	2	7	6	NaN	2	3	0.0345078701775815	1	1	NaN	108	2	45	1	121	221	321	NaN	521	0.235159721458331	2	1	NaN	1476031.0308607	NaN	1476032.0142541	1476032.53080988
48	27	1	0	90	36.1581920903955	36.241610738255	21	0.700045752022415	2	7	6	NaN	2	3	0.0345078701775815	1	1	NaN	109	2	46	1	121	221	321	NaN	521	0.270237521501258	2	1	NaN	1476033.3475983	NaN	1476034.3311375	1476034.84770168
48	27	1	0	90	36.1581920903955	36.241610738255	21	0.700045752022415	2	1	5	NaN	1	5	0.0345078701775815	1	1	NaN	110	2	47	1	121	221	321	NaN	521	0.23977052140981	2	0	NaN	1476035.7146492	NaN	1476036.6980456	1476037.21460288
48	27	1	0	90	36.1581920903955	36.241610738255	15	0.500032680016011	2	2	3	NaN	1	4	0.0345078701775815	1	1	NaN	111	2	48	1	121	221	321	NaN	521	0.241727668792009	1	1	NaN	1476038.0482116	NaN	1476039.031613	1476039.54815283
48	27	1	0	90	36.1581920903955	36.241610738255	17	0.566703704018146	2	3	6	NaN	1	3	0.0345078701775815	1	1	NaN	112	2	49	1	121	221	321	NaN	521	0.148271468700841	1	1	NaN	1476040.3817712	NaN	1476041.3651802	1476041.88171273
48	27	1	0	90	36.1581920903955	36.241610738255	7	0.233348584007472	2	4	5	NaN	1	4	0.0345078701775815	1	1	NaN	113	2	50	1	121	221	321	NaN	521	0.250640668673441	1	1	NaN	1476042.6153192	NaN	1476043.5987257	1476044.11527963
48	27	1	0	90	36.1581920903955	36.241610738255	10	0.333355120010674	2	9	6	NaN	2	3	0.0345078701775815	1	1	NaN	114	2	51	1	121	221	321	NaN	521	0.541491774143651	1	0	NaN	1476044.9488829	NaN	1476045.9322876	1476046.44884273
48	27	1	0	90	36.1581920903955	36.241610738255	24	0.800052288025618	2	5	2	NaN	1	3	0.0345078701775815	1	1	NaN	115	2	52	1	121	221	321	NaN	521	0.116055116523057	2	0	NaN	1476047.5824762	NaN	1476048.5658851	1476049.08242488
48	27	1	0	90	36.1581920903955	36.241610738255	25	0.833387800026685	2	11	6	NaN	2	4	0.0345078701775815	1	1	NaN	116	2	53	1	121	221	321	NaN	521	0.219328368781134	2	1	NaN	1476049.7827044	NaN	1476050.7660976	1476051.28263733
48	27	1	0	90	36.1581920903955	36.241610738255	0	0	1	1	4	NaN	1	4	0.0345078701775815	1	1	NaN	117	2	54	1	111	211	311	NaN	511	0.231082868995145	2	0	NaN	1476052.0829221	NaN	1476053.0663286	1476053.58286693
48	27	1	0	90	36.1581920903955	36.241610738255	8	0.266684096008539	2	5	1	NaN	1	4	0.0345078701775815	1	1	NaN	118	2	55	1	121	221	321	NaN	521	0.298606468830258	2	0	NaN	1476054.399819	NaN	1476055.383214	1476055.89975623
48	27	1	0	90	36.1581920903955	36.241610738255	6	0.200013072006404	2	12	5	NaN	2	3	0.0345078701775815	1	1	NaN	119	2	56	1	121	221	321	NaN	521	0.234610268846154	2	1	NaN	1476056.7833857	NaN	1476057.766777	1476058.28333193
48	27	1	0	90	36.1581920903955	36.241610738255	20	0.666710240021348	2	11	1	NaN	2	3	0.0345078701775815	1	1	NaN	120	2	57	1	121	221	321	NaN	521	0.253969521494582	1	0	NaN	1476059.100284	NaN	1476060.0836733	1476060.60023118
48	27	1	0	90	36.1581920903955	36.241610738255	16	0.533368192017078	2	9	1	NaN	2	3	0.0345078701775815	1	1	NaN	121	2	58	1	121	221	321	NaN	521	0.0636348163243383	2	1	NaN	1476061.450523	NaN	1476062.4339644	1476062.95045278
48	27	1	0	90	36.1581920903955	36.241610738255	0	0	1	2	1	NaN	1	5	0.0345078701775815	1	1	NaN	122	2	59	1	111	211	311	NaN	511	0.010356821352616	2	0	NaN	1476063.6007208	NaN	1476064.5841077	1476065.10066838
48	27	1	0	90	36.1581920903955	36.241610738255	9	0.300019608009607	2	3	4	NaN	1	4	0.0345078701775815	1	1	NaN	123	2	60	1	121	221	321	NaN	521	0.0103889165911824	2	0	NaN	1476065.7009321	NaN	1476066.6843009	1476067.20087668
48	27	1	0	90	36.1581920903955	36.241610738255	9	0.300019608009607	2	6	4	NaN	1	5	0.0345078701775815	1	1	NaN	124	2	61	1	121	221	321	NaN	521	0.257019468815997	2	0	NaN	1476067.8011223	NaN	1476068.7845263	1476069.30107483
48	27	1	0	90	36.1581920903955	36.241610738255	17	0.566703704018146	2	3	6	NaN	1	5	0.0345078701775815	1	1	NaN	125	2	62	1	121	221	321	NaN	521	0.0103754689916968	1	1	NaN	1476070.1513598	NaN	1476071.1347657	1476071.65130173
48	27	1	0	90	36.1581920903955	36.241610738255	18	0.600039216019213	2	12	1	NaN	2	3	0.0345078701775815	1	1	NaN	126	2	63	1	121	221	321	NaN	521	0.246580921346322	2	1	NaN	1476072.2515645	NaN	1476073.2349681	1476073.75151668
48	27	1	0	90	36.1581920903955	36.241610738255	20	0.666710240021348	2	12	4	NaN	2	5	0.0345078701775815	1	1	NaN	127	3	1	1	121	221	321	NaN	521	0.339041968807578	2	1	NaN	1476078.3354824	NaN	1476079.3189744	1476079.83544593
48	27	1	0	90	36.1581920903955	36.241610738255	25	0.833387800026685	2	4	4	NaN	1	5	0.0345078701775815	1	1	NaN	128	3	2	1	121	221	321	NaN	521	0.0102974371984601	2	0	NaN	1476080.7690687	NaN	1476081.7524747	1476082.26901946
48	27	1	0	90	36.1581920903955	36.241610738255	25	0.833387800026685	2	5	4	NaN	1	3	0.0345078701775815	1	1	NaN	129	3	3	1	121	221	321	NaN	521	0.453158521559089	2	0	NaN	1476082.8692716	NaN	1476083.852681	1476084.36921988
48	27	1	0	90	36.1581920903955	36.241610738255	25	0.833387800026685	2	10	5	NaN	2	5	0.0345078701775815	1	1	NaN	130	3	4	1	121	221	321	NaN	521	0.654666468733922	2	1	NaN	1476085.4195239	NaN	1476086.4029486	1476086.91947633
48	27	1	0	90	36.1581920903955	36.241610738255	0	0	1	6	2	NaN	1	4	0.0345078701775815	1	1	NaN	131	3	5	1	111	211	311	NaN	511	0.352361468831077	2	0	NaN	1476088.1698005	NaN	1476089.1531966	1476089.66974573
48	27	1	0	90	36.1581920903955	36.241610738255	6	0.200013072006404	2	3	3	NaN	1	4	0.0345078701775815	1	1	NaN	132	3	6	1	121	221	321	NaN	521	0.198773121461272	2	0	NaN	1476090.6033769	NaN	1476091.5867587	1476092.10330938
48	27	1	0	90	36.1581920903955	36.241610738255	17	0.566703704018146	2	12	5	NaN	2	3	0.0345078701775815	1	1	NaN	133	3	7	1	121	221	321	NaN	521	0.243676121579483	2	1	NaN	1476092.8869268	NaN	1476093.8703122	1476094.38686648
48	27	1	0	90	36.1581920903955	36.241610738255	7	0.233348584007472	2	9	3	NaN	2	5	0.0345078701775815	1	1	NaN	134	3	8	1	121	221	321	NaN	521	0.237748668994755	2	1	NaN	1476095.2204994	NaN	1476096.2038941	1476096.72043293
48	27	1	0	90	36.1581920903955	36.241610738255	22	0.733381264023483	2	5	4	NaN	1	4	0.0345078701775815	1	1	NaN	135	3	9	1	121	221	321	NaN	521	0.112096568802372	2	0	NaN	1476097.5540479	NaN	1476098.537483	1476099.05399403
48	27	1	0	90	36.1581920903955	36.241610738255	22	0.733381264023483	2	3	3	NaN	1	5	0.0345078701775815	1	1	NaN	136	3	10	1	121	221	321	NaN	521	0.744252021424472	1	1	NaN	1476099.7542794	NaN	1476100.7376675	1476101.25421978
48	27	1	0	90	36.1581920903955	36.241610738255	11	0.366690632011741	2	4	1	NaN	1	4	0.0345078701775815	1	1	NaN	137	3	11	1	121	221	321	NaN	521	0.174246621550992	2	0	NaN	1476102.5878716	NaN	1476103.57125	1476104.08782668
48	27	1	0	90	36.1581920903955	36.241610738255	21	0.700045752022415	2	9	4	NaN	2	4	0.0345078701775815	1	1	NaN	138	3	12	1	121	221	321	NaN	521	0.0103754687588662	1	0	NaN	1476104.854773	NaN	1476105.838173	1476106.35471273
48	27	1	0	90	36.1581920903955	36.241610738255	7	0.233348584007472	2	11	4	NaN	2	3	0.0345078701775815	1	1	NaN	139	3	13	1	121	221	321	NaN	521	0.271507068770006	2	1	NaN	1476106.9549693	NaN	1476107.9383657	1476108.45492253
48	27	1	0	90	36.1581920903955	36.241610738255	7	0.233348584007472	2	12	6	NaN	2	3	0.0345078701775815	1	1	NaN	140	3	14	1	121	221	321	NaN	521	0.168701279209927	2	1	NaN	1476109.3218819	NaN	1476110.3052643	1476110.82182922
48	27	1	0	90	36.1581920903955	36.241610738255	17	0.566703704018146	2	7	5	NaN	2	3	0.0345078701775815	1	1	NaN	141	3	15	1	121	221	321	NaN	521	0.278421421302482	2	1	NaN	1476111.5720935	NaN	1476112.5554954	1476113.07203828
48	27	1	0	90	36.1581920903955	36.241610738255	22	0.733381264023483	2	3	5	NaN	1	3	0.0345078701775815	1	1	NaN	142	3	16	1	121	221	321	NaN	521	0.343154574045911	2	0	NaN	1476113.9390046	NaN	1476114.9223102	1476115.43894753
48	27	1	0	90	36.1581920903955	36.241610738255	19	0.633374728020281	2	3	5	NaN	1	5	0.0345078701775815	1	1	NaN	143	3	17	1	121	221	321	NaN	521	0.213565521407872	2	0	NaN	1476116.3725668	NaN	1476117.3559611	1476117.87251848
48	27	1	0	90	36.1581920903955	36.241610738255	22	0.733381264023483	2	7	4	NaN	2	3	0.0345078701775815	1	1	NaN	144	3	18	1	121	221	321	NaN	521	0.225766721414402	2	1	NaN	1476118.6727805	NaN	1476119.65619	1476120.17274418
48	27	1	0	90	36.1581920903955	36.241610738255	12	0.400026144012809	2	7	1	NaN	2	5	0.0345078701775815	1	1	NaN	145	3	19	1	121	221	321	NaN	521	0.156499921577051	2	1	NaN	1476120.9897011	NaN	1476121.9730738	1476122.48963868
48	27	1	0	90	36.1581920903955	36.241610738255	19	0.633374728020281	2	6	2	NaN	1	5	0.0345078701775815	1	1	NaN	146	3	20	1	121	221	321	NaN	521	0.154339768923819	2	0	NaN	1476123.2399225	NaN	1476124.2232803	1476124.73984833
48	27	1	0	90	36.1581920903955	36.241610738255	24	0.800052288025618	2	4	3	NaN	1	5	0.0345078701775815	1	1	NaN	147	3	21	1	121	221	321	NaN	521	0.176489321282133	1	1	NaN	1476125.4901427	NaN	1476126.4735623	1476126.99008068
48	27	1	0	90	36.1581920903955	36.241610738255	17	0.566703704018146	2	12	2	NaN	2	3	0.0345078701775815	1	1	NaN	148	3	22	1	121	221	321	NaN	521	0.549134116386995	2	1	NaN	1476127.7570114	NaN	1476128.7404185	1476129.25696478
48	27	1	0	90	36.1581920903955	36.241610738255	22	0.733381264023483	2	8	6	NaN	2	5	0.0345078701775815	1	1	NaN	149	3	23	1	121	221	321	NaN	521	0.347756621427834	2	1	NaN	1476130.3906105	NaN	1476131.3740233	1476131.89055418
48	27	1	0	90	36.1581920903955	36.241610738255	17	0.566703704018146	2	4	5	NaN	1	3	0.0345078701775815	1	1	NaN	150	3	24	1	121	221	321	NaN	521	0.313953921431676	2	0	NaN	1476132.8241747	NaN	1476133.8075731	1476134.32412818
48	27	1	0	90	36.1581920903955	36.241610738255	24	0.800052288025618	2	2	3	NaN	1	3	0.0345078701775815	1	1	NaN	151	3	25	1	121	221	321	NaN	521	0.25817812141031	1	1	NaN	1476135.2244154	NaN	1476136.2077914	1476136.72436538
48	27	1	0	90	36.1581920903955	36.241610738255	0	0	1	8	3	NaN	2	4	0.0345078701775815	1	1	NaN	152	3	26	1	111	211	311	NaN	511	0.363606916507706	2	1	NaN	1476137.574635	NaN	1476138.5580455	1476139.07459288
48	27	1	0	90	36.1581920903955	36.241610738255	23	0.76671677602455	2	1	3	NaN	1	3	0.0345078701775815	1	1	NaN	153	3	27	1	121	221	321	NaN	521	0.401277121389285	1	1	NaN	1476140.0248885	NaN	1476141.008284	1476141.52483788
48	27	1	0	90	36.1581920903955	36.241610738255	12	0.400026144012809	2	6	1	NaN	1	4	0.0345078701775815	1	1	NaN	154	3	28	1	121	221	321	NaN	521	0.261722442228347	1	1	NaN	1476142.5084926	NaN	1476143.4918392	1476144.00841066
48	27	1	0	90	36.1581920903955	36.241610738255	0	0	1	10	5	NaN	2	4	0.0345078701775815	1	1	NaN	155	3	29	1	111	211	311	NaN	511	0.247965321410447	2	1	NaN	1476144.8586896	NaN	1476145.8420944	1476146.35864788
48	27	1	0	90	36.1581920903955	36.241610738255	16	0.533368192017078	2	6	3	NaN	1	3	0.0345078701775815	1	1	NaN	156	3	30	1	121	221	321	NaN	521	0.217938568675891	1	1	NaN	1476147.1922565	NaN	1476148.1756679	1476148.69220393
48	27	1	0	90	36.1581920903955	36.241610738255	8	0.266684096008539	2	6	4	NaN	1	3	0.0345078701775815	1	1	NaN	157	3	31	1	121	221	321	NaN	521	0.222166221356019	1	1	NaN	1476149.4924786	NaN	1476150.4758879	1476150.99243208
48	27	1	0	90	36.1581920903955	36.241610738255	19	0.633374728020281	2	1	3	NaN	1	3	0.0345078701775815	1	1	NaN	158	3	32	1	121	221	321	NaN	521	0.280747468816116	2	0	NaN	1476151.809371	NaN	1476152.7927765	1476153.30932673
48	27	1	0	90	36.1581920903955	36.241610738255	22	0.733381264023483	2	9	3	NaN	2	5	0.0345078701775815	1	1	NaN	159	3	33	1	121	221	321	NaN	521	0.32205516891554	2	1	NaN	1476154.1762766	NaN	1476155.1596775	1476155.67622553
48	27	1	0	90	36.1581920903955	36.241610738255	25	0.833387800026685	2	11	2	NaN	2	3	0.0345078701775815	1	1	NaN	160	3	34	1	121	221	321	NaN	521	0.337094241986051	2	1	NaN	1476156.5931979	NaN	1476157.5765715	1476158.09313726
48	27	1	0	90	36.1581920903955	36.241610738255	15	0.500032680016011	2	11	1	NaN	2	3	0.0345078701775815	1	1	NaN	161	3	35	1	121	221	321	NaN	521	0.0103883165866137	2	1	NaN	1476159.0267425	NaN	1476160.010149	1476160.52669818
48	27	1	0	90	36.1581920903955	36.241610738255	19	0.633374728020281	2	1	1	NaN	1	4	0.0345078701775815	1	1	NaN	162	3	36	1	121	221	321	NaN	521	0.355088416254148	2	0	NaN	1476161.1269656	NaN	1476162.1103469	1476162.62690348
48	27	1	0	90	36.1581920903955	36.241610738255	13	0.433361656013876	2	4	6	NaN	1	5	0.0345078701775815	1	1	NaN	163	3	37	1	121	221	321	NaN	521	0.241473521571606	2	0	NaN	1476163.5771949	NaN	1476164.5606017	1476165.07715088
48	27	1	0	90	36.1581920903955	36.241610738255	10	0.333355120010674	2	1	1	NaN	1	3	0.0345078701775815	1	1	NaN	164	3	38	1	121	221	321	NaN	521	0.0103717688471079	1	1	NaN	1476165.9107511	NaN	1476166.8941572	1476167.41070483
48	27	1	0	90	36.1581920903955	36.241610738255	14	0.466697168014944	2	2	4	NaN	1	5	0.0345078701775815	1	1	NaN	165	3	39	1	121	221	321	NaN	521	0.407596863806248	1	1	NaN	1476168.0109702	NaN	1476168.9943537	1476169.51091394
48	27	1	0	90	36.1581920903955	36.241610738255	18	0.600039216019213	2	7	1	NaN	2	3	0.0345078701775815	1	1	NaN	166	3	40	1	121	221	321	NaN	521	0.211066731950268	2	1	NaN	1476170.5111177	NaN	1476171.4945949	1476172.01116077
48	27	1	0	90	36.1581920903955	36.241610738255	8	0.266684096008539	2	1	6	NaN	1	3	0.0345078701775815	1	1	NaN	167	3	41	1	121	221	321	NaN	521	0.262814821442589	2	0	NaN	1476172.8114363	NaN	1476173.7947274	1476174.31138738
48	27	1	0	90	36.1581920903955	36.241610738255	7	0.233348584007472	2	2	4	NaN	1	5	0.0345078701775815	1	1	NaN	168	3	42	1	121	221	321	NaN	521	0.169064216548577	1	1	NaN	1476175.1616631	NaN	1476176.1450695	1476176.66161138
48	27	1	0	90	36.1581920903955	36.241610738255	14	0.466697168014944	2	12	3	NaN	2	5	0.0345078701775815	1	1	NaN	169	3	43	1	121	221	321	NaN	521	0.334687721449882	2	1	NaN	1476177.4118844	NaN	1476178.3952981	1476178.91183958
48	27	1	0	90	36.1581920903955	36.241610738255	6	0.200013072006404	2	5	3	NaN	1	3	0.0345078701775815	1	1	NaN	170	3	44	1	121	221	321	NaN	521	0.269228968769312	1	1	NaN	1476179.8454716	NaN	1476180.8288656	1476181.34540703
48	27	1	0	90	36.1581920903955	36.241610738255	25	0.833387800026685	2	8	1	NaN	2	4	0.0345078701775815	1	1	NaN	171	3	45	1	121	221	321	NaN	521	0.326622921507806	2	1	NaN	1476182.1956907	NaN	1476183.1790931	1476183.69564628
48	27	1	0	90	36.1581920903955	36.241610738255	16	0.533368192017078	2	5	2	NaN	1	5	0.0345078701775815	1	1	NaN	172	3	46	1	121	221	321	NaN	521	0.294012863887474	1	1	NaN	1476184.6126051	NaN	1476185.595999	1476186.11253504
48	27	1	0	90	36.1581920903955	36.241610738255	24	0.800052288025618	2	3	3	NaN	1	4	0.0345078701775815	1	1	NaN	173	3	47	1	121	221	321	NaN	521	0.302459316560999	1	1	NaN	1476186.9961621	NaN	1476187.9795681	1476188.49611068
48	27	1	0	90	36.1581920903955	36.241610738255	10	0.333355120010674	2	6	1	NaN	1	3	0.0345078701775815	1	1	NaN	174	3	48	1	121	221	321	NaN	521	0.718919868813828	2	0	NaN	1476189.3797289	NaN	1476190.3631331	1476190.87967693
48	27	1	0	90	36.1581920903955	36.241610738255	22	0.733381264023483	2	4	1	NaN	1	4	0.0345078701775815	1	1	NaN	175	3	49	1	121	221	321	NaN	521	0.366290821461007	2	0	NaN	1476192.1799975	NaN	1476193.1634027	1476193.67994808
48	27	1	0	90	36.1581920903955	36.241610738255	16	0.533368192017078	2	9	6	NaN	2	3	0.0345078701775815	1	1	NaN	176	3	50	1	121	221	321	NaN	521	0.179471416398883	2	1	NaN	1476194.6469193	NaN	1476195.6303078	1476196.14685838
48	27	1	0	90	36.1581920903955	36.241610738255	8	0.266684096008539	2	12	1	NaN	2	3	0.0345078701775815	1	1	NaN	177	3	51	1	121	221	321	NaN	521	0.240840721409768	2	1	NaN	1476196.9138168	NaN	1476197.8972095	1476198.41375448
48	27	1	0	90	36.1581920903955	36.241610738255	11	0.366690632011741	2	12	3	NaN	2	3	0.0345078701775815	1	1	NaN	178	3	52	1	121	221	321	NaN	521	0.338977368781343	2	1	NaN	1476199.247357	NaN	1476200.2307724	1476200.74731513
48	27	1	0	90	36.1581920903955	36.241610738255	25	0.833387800026685	2	12	4	NaN	2	5	0.0345078701775815	1	1	NaN	179	3	53	1	121	221	321	NaN	521	0.217727621551603	1	0	NaN	1476201.6809439	NaN	1476202.6643378	1476203.18089058
48	27	1	0	90	36.1581920903955	36.241610738255	16	0.533368192017078	2	7	2	NaN	2	3	0.0345078701775815	1	1	NaN	180	3	54	1	121	221	321	NaN	521	1.52542247413658	2	1	NaN	1476203.9811589	NaN	1476204.9645625	1476205.48110623
48	27	1	0	90	36.1581920903955	36.241610738255	13	0.433361656013876	2	2	4	NaN	1	5	0.0345078701775815	1	1	NaN	181	3	55	1	121	221	321	NaN	521	0.484446589602157	2	0	NaN	1476207.5981778	NaN	1476208.5815728	1476209.09813941
48	27	1	0	90	36.1581920903955	36.241610738255	11	0.366690632011741	2	3	4	NaN	1	4	0.0345078701775815	1	1	NaN	182	3	56	1	121	221	321	NaN	521	0.277277342043817	2	0	NaN	1476210.1650944	NaN	1476211.1485085	1476211.66505026
48	27	1	0	90	36.1581920903955	36.241610738255	20	0.666710240021348	2	10	3	NaN	2	4	0.0345078701775815	1	1	NaN	183	3	57	1	121	221	321	NaN	521	0.246342468773946	2	1	NaN	1476212.5320052	NaN	1476213.5154005	1476214.03194343
48	27	1	0	90	36.1581920903955	36.241610738255	20	0.666710240021348	2	1	3	NaN	1	3	0.0345078701775815	1	1	NaN	184	3	58	1	121	221	321	NaN	521	0.168770268792287	2	0	NaN	1476214.865575	NaN	1476215.848984	1476216.36551163
48	27	1	0	90	36.1581920903955	36.241610738255	11	0.366690632011741	2	3	2	NaN	1	3	0.0345078701775815	1	1	NaN	185	3	59	1	121	221	321	NaN	521	0.254428521497175	2	0	NaN	1476217.1157739	NaN	1476218.0992369	1476218.61573578
48	27	1	0	90	36.1581920903955	36.241610738255	15	0.500032680016011	2	6	6	NaN	1	5	0.0345078701775815	1	1	NaN	186	3	60	1	121	221	321	NaN	521	0.256300973938778	2	0	NaN	1476219.4660307	NaN	1476220.4494137	1476220.96595803
48	27	1	0	90	36.1581920903955	36.241610738255	18	0.600039216019213	2	5	5	NaN	1	3	0.0345078701775815	1	1	NaN	187	3	61	1	121	221	321	NaN	521	0.234426916344091	2	0	NaN	1476221.8162463	NaN	1476222.7996539	1476223.31619358
48	27	1	0	90	36.1581920903955	36.241610738255	11	0.366690632011741	2	9	2	NaN	2	4	0.0345078701775815	1	1	NaN	188	3	62	1	121	221	321	NaN	521	0.213200121419504	2	1	NaN	1476224.133138	NaN	1476225.1165402	1476225.63309598
48	27	1	0	90	36.1581920903955	36.241610738255	25	0.833387800026685	2	6	3	NaN	1	4	0.0345078701775815	1	1	NaN	189	3	63	1	121	221	321	NaN	521	0.0171223687939346	2	0	NaN	1476226.4333631	NaN	1476227.4167708	1476227.93330963
48	27	1	0	90	36.1581920903955	36.241610738255	21	0.700045752022415	2	10	6	NaN	2	5	0.0345078701775815	1	1	NaN	190	4	1	1	121	221	321	NaN	521	0.233668263768777	2	1	NaN	1476229.8170243	NaN	1476230.8004401	1476231.31697474
48	27	1	0	90	36.1581920903955	36.241610738255	16	0.533368192017078	2	2	1	NaN	1	5	0.0345078701775815	1	1	NaN	191	4	2	1	121	221	321	NaN	521	0.332324168644845	2	0	NaN	1476232.1339298	NaN	1476233.1173313	1476233.63387403
48	27	1	0	90	36.1581920903955	36.241610738255	15	0.500032680016011	2	7	6	NaN	2	5	0.0345078701775815	1	1	NaN	192	4	3	1	121	221	321	NaN	521	0.0754864213522524	2	1	NaN	1476234.5508285	NaN	1476235.5342331	1476236.05078128
48	27	1	0	90	36.1581920903955	36.241610738255	12	0.400026144012809	2	3	4	NaN	1	4	0.0345078701775815	1	1	NaN	193	4	4	1	121	221	321	NaN	521	0.492998694768175	2	0	NaN	1476236.7177072	NaN	1476237.7010817	1476238.21767061
48	27	1	0	90	36.1581920903955	36.241610738255	23	0.76671677602455	2	8	3	NaN	2	4	0.0345078701775815	1	1	NaN	194	4	5	1	121	221	321	NaN	521	0.421425216365606	2	1	NaN	1476239.3012909	NaN	1476240.2847001	1476240.80124808
48	27	1	0	90	36.1581920903955	36.241610738255	15	0.500032680016011	2	4	6	NaN	1	5	0.0345078701775815	1	1	NaN	195	4	6	1	121	221	321	NaN	521	0.392473168903962	2	0	NaN	1476241.8182358	NaN	1476242.8015864	1476243.31815263
48	27	1	0	90	36.1581920903955	36.241610738255	24	0.800052288025618	2	9	1	NaN	2	3	0.0345078701775815	1	1	NaN	196	4	7	1	121	221	321	NaN	521	0.98050478938967	2	1	NaN	1476244.3017898	NaN	1476245.2851837	1476245.80174341
48	27	1	0	90	36.1581920903955	36.241610738255	13	0.433361656013876	2	6	1	NaN	1	5	0.0345078701775815	1	1	NaN	197	4	8	1	121	221	321	NaN	521	1.38597046886571	1	1	NaN	1476247.3687457	NaN	1476248.3521521	1476248.86869763
48	27	1	0	90	36.1581920903955	36.241610738255	14	0.466697168014944	2	12	4	NaN	2	4	0.0345078701775815	1	1	NaN	198	4	9	1	121	221	321	NaN	521	0.286929721478373	2	1	NaN	1476250.8357687	NaN	1476251.819159	1476252.33571208
48	27	1	0	90	36.1581920903955	36.241610738255	15	0.500032680016011	2	12	1	NaN	2	4	0.0345078701775815	1	1	NaN	199	4	10	1	121	221	321	NaN	521	0.247430768795311	2	1	NaN	1476253.2193403	NaN	1476254.2027261	1476254.71927273
48	27	1	0	90	36.1581920903955	36.241610738255	6	0.200013072006404	2	11	5	NaN	2	4	0.0345078701775815	1	1	NaN	200	4	11	1	121	221	321	NaN	521	0.161207368830219	2	1	NaN	1476255.5528867	NaN	1476256.536289	1476257.05283293
48	27	1	0	90	36.1581920903955	36.241610738255	19	0.633374728020281	2	11	1	NaN	2	3	0.0345078701775815	1	1	NaN	201	4	12	1	121	221	321	NaN	521	0.239166068844497	2	1	NaN	1476257.8031313	NaN	1476258.7864938	1476259.30306073
48	27	1	0	90	36.1581920903955	36.241610738255	20	0.666710240021348	2	3	6	NaN	1	3	0.0345078701775815	1	1	NaN	202	4	13	1	121	221	321	NaN	521	0.290101063903421	2	0	NaN	1476260.1366997	NaN	1476261.1200843	1476261.63661474
48	27	1	0	90	36.1581920903955	36.241610738255	23	0.76671677602455	2	10	1	NaN	2	3	0.0345078701775815	1	1	NaN	203	4	14	1	121	221	321	NaN	521	0.554519668687135	1	0	NaN	1476262.5202306	NaN	1476263.5036496	1476264.02018983
48	27	1	0	90	36.1581920903955	36.241610738255	20	0.666710240021348	2	4	5	NaN	1	4	0.0345078701775815	1	1	NaN	204	4	15	1	121	221	321	NaN	521	0.224258521338925	2	0	NaN	1476265.1705058	NaN	1476266.1539125	1476266.67045208
48	27	1	0	90	36.1581920903955	36.241610738255	10	0.333355120010674	2	6	1	NaN	1	4	0.0345078701775815	1	1	NaN	205	4	16	1	121	221	321	NaN	521	0.27482671639882	2	0	NaN	1476267.4872676	NaN	1476268.4707946	1476268.98734458
48	27	1	0	90	36.1581920903955	36.241610738255	6	0.200013072006404	2	11	5	NaN	2	5	0.0345078701775815	1	1	NaN	206	4	17	1	121	221	321	NaN	521	0.244141974020749	2	1	NaN	1476269.8542968	NaN	1476270.8376947	1476271.35424583
48	27	1	0	90	36.1581920903955	36.241610738255	0	0	1	11	3	NaN	2	5	0.0345078701775815	1	1	NaN	207	4	18	1	111	211	311	NaN	511	0.222859421512112	2	1	NaN	1476272.1878597	NaN	1476273.1712636	1476273.68780448
48	27	1	0	90	36.1581920903955	36.241610738255	12	0.400026144012809	2	2	1	NaN	1	4	0.0345078701775815	1	1	NaN	208	4	19	1	121	221	321	NaN	521	0.273637674050406	2	0	NaN	1476274.5047581	NaN	1476275.4881469	1476276.00470613
48	27	1	0	90	36.1581920903955	36.241610738255	24	0.800052288025618	2	2	5	NaN	1	5	0.0345078701775815	1	1	NaN	209	4	20	1	121	221	321	NaN	521	0.147044821409509	2	0	NaN	1476276.8716469	NaN	1476277.8550588	1476278.37159718
48	27	1	0	90	36.1581920903955	36.241610738255	6	0.200013072006404	2	7	1	NaN	2	3	0.0345078701775815	1	1	NaN	210	4	21	1	121	221	321	NaN	521	0.273593716323376	2	1	NaN	1476279.1052181	NaN	1476280.0885856	1476280.60515058
48	27	1	0	90	36.1581920903955	36.241610738255	21	0.700045752022415	2	6	2	NaN	1	4	0.0345078701775815	1	1	NaN	211	4	22	1	121	221	321	NaN	521	0.234182568732649	2	0	NaN	1476281.472111	NaN	1476282.4555269	1476282.97205063
48	27	1	0	90	36.1581920903955	36.241610738255	20	0.666710240021348	2	6	2	NaN	1	3	0.0345078701775815	1	1	NaN	212	4	23	1	121	221	321	NaN	521	0.0772694165352732	2	0	NaN	1476283.788993	NaN	1476284.7723899	1476285.28894508
48	27	1	0	90	36.1581920903955	36.241610738255	13	0.433361656013876	2	12	5	NaN	2	4	0.0345078701775815	1	1	NaN	213	4	24	1	121	221	321	NaN	521	0.030657468829304	2	1	NaN	1476285.9558656	NaN	1476286.9392791	1476287.45582243
48	27	1	0	90	36.1581920903955	36.241610738255	0	0	1	2	6	NaN	1	4	0.0345078701775815	1	1	NaN	214	4	25	1	111	211	311	NaN	511	0.242080321535468	2	0	NaN	1476288.072768	NaN	1476289.056144	1476289.57270378
48	27	1	0	90	36.1581920903955	36.241610738255	25	0.833387800026685	2	3	3	NaN	1	3	0.0345078701775815	1	1	NaN	215	4	26	1	121	221	321	NaN	521	0.436537216417491	1	1	NaN	1476290.4062481	NaN	1476291.3897174	1476291.90625818
48	27	1	0	90	36.1581920903955	36.241610738255	18	0.600039216019213	2	3	6	NaN	1	4	0.0345078701775815	1	1	NaN	216	4	27	1	121	221	321	NaN	521	0.526561668841168	1	1	NaN	1476292.9398985	NaN	1476293.9233109	1476294.43984433
48	27	1	0	90	36.1581920903955	36.241610738255	17	0.566703704018146	2	1	5	NaN	1	3	0.0345078701775815	1	1	NaN	217	4	28	1	121	221	321	NaN	521	0.50990866869688	2	0	NaN	1476295.5568191	NaN	1476296.540225	1476297.05675863
48	27	1	0	90	36.1581920903955	36.241610738255	24	0.800052288025618	2	6	1	NaN	1	4	0.0345078701775815	1	1	NaN	218	4	29	1	121	221	321	NaN	521	0.165715216426179	2	0	NaN	1476298.1570751	NaN	1476299.1404584	1476299.65702388
48	27	1	0	90	36.1581920903955	36.241610738255	7	0.233348584007472	2	7	5	NaN	2	3	0.0345078701775815	1	1	NaN	219	4	30	1	121	221	321	NaN	521	0.0103896164800972	2	1	NaN	1476300.407302	NaN	1476301.3906801	1476301.90723678
48	27	1	0	90	36.1581920903955	36.241610738255	23	0.76671677602455	2	12	5	NaN	2	4	0.0345078701775815	1	1	NaN	220	4	31	1	121	221	321	NaN	521	0.278697368921712	2	1	NaN	1476302.5075004	NaN	1476303.4908853	1476304.00744113
48	27	1	0	90	36.1581920903955	36.241610738255	23	0.76671677602455	2	5	5	NaN	1	3	0.0345078701775815	1	1	NaN	221	4	32	1	121	221	321	NaN	521	0.192122168838978	2	0	NaN	1476304.8743915	NaN	1476305.8577956	1476306.37434303
48	27	1	0	90	36.1581920903955	36.241610738255	13	0.433361656013876	2	7	3	NaN	2	4	0.0345078701775815	1	1	NaN	222	4	33	1	121	221	321	NaN	521	0.364523568656296	2	1	NaN	1476307.1579638	NaN	1476308.1413517	1476308.65789793
48	27	1	0	90	36.1581920903955	36.241610738255	11	0.366690632011741	2	10	1	NaN	2	4	0.0345078701775815	1	1	NaN	223	4	34	1	121	221	321	NaN	521	0.226585768861696	2	1	NaN	1476309.6081957	NaN	1476310.5915816	1476311.10813923
48	27	1	0	90	36.1581920903955	36.241610738255	13	0.433361656013876	2	3	1	NaN	1	3	0.0345078701775815	1	1	NaN	224	4	35	1	121	221	321	NaN	521	0.245120368665084	2	0	NaN	1476311.9250789	NaN	1476312.9084846	1476313.42503603
48	27	1	0	90	36.1581920903955	36.241610738255	17	0.566703704018146	2	5	6	NaN	1	4	0.0345078701775815	1	1	NaN	225	4	36	1	121	221	321	NaN	521	0.111575068673119	2	0	NaN	1476314.2586539	NaN	1476315.2420525	1476315.75859843
48	27	1	0	90	36.1581920903955	36.241610738255	8	0.266684096008539	2	4	1	NaN	1	5	0.0345078701775815	1	1	NaN	226	4	37	1	121	221	321	NaN	521	0.119584021391347	2	0	NaN	1476316.458867	NaN	1476317.4422725	1476317.95882468
48	27	1	0	90	36.1581920903955	36.241610738255	17	0.566703704018146	2	6	5	NaN	1	4	0.0345078701775815	1	1	NaN	227	4	38	1	121	221	321	NaN	521	0.135108468821272	2	0	NaN	1476318.6757578	NaN	1476319.6591393	1476320.17570233
48	27	1	0	90	36.1581920903955	36.241610738255	20	0.666710240021348	2	1	5	NaN	1	5	0.0345078701775815	1	1	NaN	228	4	39	1	121	221	321	NaN	521	0.149794068653136	2	0	NaN	1476320.892651	NaN	1476321.8760367	1476322.39258703
48	27	1	0	90	36.1581920903955	36.241610738255	16	0.533368192017078	2	2	2	NaN	1	5	0.0345078701775815	1	1	NaN	229	4	40	1	121	221	321	NaN	521	0.220646268688142	2	0	NaN	1476323.1261819	NaN	1476324.1095916	1476324.62613143
48	27	1	0	90	36.1581920903955	36.241610738255	21	0.700045752022415	2	3	6	NaN	1	5	0.0345078701775815	1	1	NaN	230	4	41	1	121	221	321	NaN	521	0.0873952214606106	1	1	NaN	1476325.4430866	NaN	1476326.4264825	1476326.94303598
48	27	1	0	90	36.1581920903955	36.241610738255	13	0.433361656013876	2	1	2	NaN	1	5	0.0345078701775815	1	1	NaN	231	4	42	1	121	221	321	NaN	521	0.14387436886318	2	0	NaN	1476327.626639	NaN	1476328.6100259	1476329.12658103
48	27	1	0	90	36.1581920903955	36.241610738255	15	0.500032680016011	2	1	1	NaN	1	4	0.0345078701775815	1	1	NaN	232	4	43	1	121	221	321	NaN	521	0.158267884748057	2	0	NaN	1476329.86018	NaN	1476330.8435798	1476331.36013942
48	27	1	0	90	36.1581920903955	36.241610738255	14	0.466697168014944	2	6	1	NaN	1	4	0.0345078701775815	1	1	NaN	233	4	44	1	121	221	321	NaN	521	0.188193221343681	2	0	NaN	1476332.1104223	NaN	1476333.0937944	1476333.61036138
48	27	1	0	90	36.1581920903955	36.241610738255	12	0.400026144012809	2	7	2	NaN	2	3	0.0345078701775815	1	1	NaN	234	4	45	1	121	221	321	NaN	521	0.168573821429163	2	1	NaN	1476334.3939611	NaN	1476335.377369	1476335.89391468
48	27	1	0	90	36.1581920903955	36.241610738255	21	0.700045752022415	2	10	6	NaN	2	4	0.0345078701775815	1	1	NaN	235	4	46	1	121	221	321	NaN	521	0.118253568885848	2	1	NaN	1476336.6441872	NaN	1476337.6275807	1476338.14412753
48	27	1	0	90	36.1581920903955	36.241610738255	10	0.333355120010674	2	11	1	NaN	2	3	0.0345078701775815	1	1	NaN	236	4	47	1	121	221	321	NaN	521	0.182141468860209	2	1	NaN	1476338.8443961	NaN	1476339.8278067	1476340.34434293
48	27	1	0	90	36.1581920903955	36.241610738255	9	0.300019608009607	2	9	4	NaN	2	3	0.0345078701775815	1	1	NaN	237	4	48	1	121	221	321	NaN	521	0.16361827403307	2	1	NaN	1476341.1112813	NaN	1476342.0946848	1476342.61124563
48	27	1	0	90	36.1581920903955	36.241610738255	23	0.76671677602455	2	9	3	NaN	2	5	0.0345078701775815	1	1	NaN	238	4	49	1	121	221	321	NaN	521	10.3049432688858	1	0	NaN	1476343.361505	NaN	1476344.3449068	1476344.86145223
48	27	1	0	90	36.1581920903955	36.241610738255	12	0.400026144012809	2	8	3	NaN	2	5	0.0345078701775815	1	1	NaN	239	4	50	1	121	221	321	NaN	521	0.263835216406733	1	0	NaN	1476355.7627245	NaN	1476356.7461342	1476357.26268228
48	27	1	0	90	36.1581920903955	36.241610738255	24	0.800052288025618	2	10	4	NaN	2	3	0.0345078701775815	1	1	NaN	240	4	51	1	121	221	321	NaN	521	0.257850968744606	2	1	NaN	1476358.1129565	NaN	1476359.0963706	1476359.61290013
48	27	1	0	90	36.1581920903955	36.241610738255	10	0.333355120010674	2	12	3	NaN	2	3	0.0345078701775815	1	1	NaN	241	4	52	1	121	221	321	NaN	521	0.411322116386145	2	1	NaN	1476360.463193	NaN	1476361.4465894	1476361.96313738
48	27	1	0	90	36.1581920903955	36.241610738255	16	0.533368192017078	2	6	4	NaN	1	3	0.0345078701775815	1	1	NaN	242	4	53	1	121	221	321	NaN	521	0.206846916582435	1	1	NaN	1476362.9634478	NaN	1476363.9468298	1476364.46338448
48	27	1	0	90	36.1581920903955	36.241610738255	9	0.300019608009607	2	2	3	NaN	1	5	0.0345078701775815	1	1	NaN	243	4	54	1	121	221	321	NaN	521	0.250838916515931	1	1	NaN	1476365.2636685	NaN	1476366.2470604	1476366.76361378
48	27	1	0	90	36.1581920903955	36.241610738255	14	0.466697168014944	2	1	1	NaN	1	4	0.0345078701775815	1	1	NaN	244	4	55	1	121	221	321	NaN	521	0.181120121618733	1	1	NaN	1476367.5972075	NaN	1476368.5806289	1476369.09717708
48	27	1	0	90	36.1581920903955	36.241610738255	14	0.466697168014944	2	5	3	NaN	1	4	0.0345078701775815	1	1	NaN	245	4	56	1	121	221	321	NaN	521	0.0103930165059865	1	1	NaN	1476369.8641618	NaN	1476370.8474864	1476371.36405898
48	27	1	0	90	36.1581920903955	36.241610738255	7	0.233348584007472	2	5	3	NaN	1	5	0.0345078701775815	1	1	NaN	246	4	57	1	121	221	321	NaN	521	0.230208368971944	1	1	NaN	1476371.9643289	NaN	1476372.9477075	1476373.46425893
48	27	1	0	90	36.1581920903955	36.241610738255	20	0.666710240021348	2	5	6	NaN	1	4	0.0345078701775815	1	1	NaN	247	4	58	1	121	221	321	NaN	521	0.233696221373975	2	0	NaN	1476374.2812216	NaN	1476375.2646164	1476375.78116658
48	27	1	0	90	36.1581920903955	36.241610738255	9	0.300019608009607	2	8	4	NaN	2	3	0.0345078701775815	1	1	NaN	248	4	59	1	121	221	321	NaN	521	0.268801421392709	1	0	NaN	1476376.5981095	NaN	1476377.5815161	1476378.09806138
48	27	1	0	90	36.1581920903955	36.241610738255	20	0.666710240021348	2	7	2	NaN	2	5	0.0345078701775815	1	1	NaN	249	4	60	1	121	221	321	NaN	521	0.326067968737334	1	0	NaN	1476378.9483333	NaN	1476379.9317368	1476380.44828613
48	27	1	0	90	36.1581920903955	36.241610738255	13	0.433361656013876	2	2	6	NaN	1	4	0.0345078701775815	1	1	NaN	250	4	61	1	121	221	321	NaN	521	0.285782068734989	1	1	NaN	1476381.3652405	NaN	1476382.348618	1476382.86518143
48	27	1	0	90	36.1581920903955	36.241610738255	14	0.466697168014944	2	7	3	NaN	2	3	0.0345078701775815	1	1	NaN	251	4	62	1	121	221	321	NaN	521	0.270398973952979	1	0	NaN	1476383.7321595	NaN	1476384.7155456	1476385.23209253
48	27	1	0	90	36.1581920903955	36.241610738255	10	0.333355120010674	2	10	5	NaN	2	3	0.0345078701775815	1	1	NaN	252	4	63	1	121	221	321	NaN	521	0.191441416507587	1	0	NaN	1476386.0990375	NaN	1476387.0824429	1476387.59898478
48	27	1	0	90	36.1581920903955	36.241610738255	18	0.600039216019213	2	9	5	NaN	2	3	0.0345078701775815	1	1	NaN	253	5	1	1	121	221	321	NaN	521	0.389754668809474	2	1	NaN	1476389.9327442	NaN	1476390.9161399	1476391.43269983
48	27	1	0	90	36.1581920903955	36.241610738255	18	0.600039216019213	2	7	1	NaN	2	5	0.0345078701775815	1	1	NaN	254	5	2	1	121	221	321	NaN	521	0.314218421466649	2	1	NaN	1476392.4163407	NaN	1476393.3997234	1476393.91627858
48	27	1	0	90	36.1581920903955	36.241610738255	14	0.466697168014944	2	10	3	NaN	2	5	0.0345078701775815	1	1	NaN	255	5	3	1	121	221	321	NaN	521	0.322290821466595	2	1	NaN	1476394.8165567	NaN	1476395.7999889	1476396.31650408
48	27	1	0	90	36.1581920903955	36.241610738255	24	0.800052288025618	2	11	3	NaN	2	4	0.0345078701775815	1	1	NaN	256	5	4	1	121	221	321	NaN	521	0.265440821414813	2	1	NaN	1476397.2334669	NaN	1476398.2168638	1476398.73341938
48	27	1	0	90	36.1581920903955	36.241610738255	17	0.566703704018146	2	8	5	NaN	2	4	0.0345078701775815	1	1	NaN	257	5	5	1	121	221	321	NaN	521	0.266877221409231	2	1	NaN	1476399.5837051	NaN	1476400.5669915	1476401.08364598
48	27	1	0	90	36.1581920903955	36.241610738255	0	0	1	10	6	NaN	2	3	0.0345078701775815	1	1	NaN	258	5	6	1	111	211	311	NaN	511	0.261032068636268	2	1	NaN	1476401.933933	NaN	1476402.9173195	1476403.43387283
48	27	1	0	90	36.1581920903955	36.241610738255	7	0.233348584007472	2	11	6	NaN	2	5	0.0345078701775815	1	1	NaN	259	5	7	1	121	221	321	NaN	521	0.0704631216358393	2	1	NaN	1476404.2841559	NaN	1476405.2675514	1476405.78410758
48	27	1	0	90	36.1581920903955	36.241610738255	8	0.266684096008539	2	2	3	NaN	1	4	0.0345078701775815	1	1	NaN	260	5	8	1	121	221	321	NaN	521	0.0103740687482059	1	1	NaN	1476406.4510323	NaN	1476407.4344383	1476407.95098023
48	27	1	0	90	36.1581920903955	36.241610738255	23	0.76671677602455	2	10	6	NaN	2	3	0.0345078701775815	1	1	NaN	261	5	9	1	121	221	321	NaN	521	0.0754509794060141	2	1	NaN	1476408.5512484	NaN	1476409.5346475	1476410.05118972
48	27	1	0	90	36.1581920903955	36.241610738255	8	0.266684096008539	2	7	6	NaN	2	3	0.0345078701775815	1	1	NaN	262	5	10	1	121	221	321	NaN	521	0.0925085318740457	2	1	NaN	1476410.7181112	NaN	1476411.7015245	1476412.21807097
48	27	1	0	90	36.1581920903955	36.241610738255	10	0.333355120010674	2	7	1	NaN	2	3	0.0345078701775815	1	1	NaN	263	5	11	1	121	221	321	NaN	521	0.100998921552673	2	1	NaN	1476412.9016797	NaN	1476413.8850665	1476414.40161228
48	27	1	0	90	36.1581920903955	36.241610738255	25	0.833387800026685	2	4	5	NaN	1	5	0.0345078701775815	1	1	NaN	264	5	12	1	121	221	321	NaN	521	0.109432668890804	2	0	NaN	1476415.0852167	NaN	1476416.0685927	1476416.58516233
48	27	1	0	90	36.1581920903955	36.241610738255	9	0.300019608009607	2	11	3	NaN	2	4	0.0345078701775815	1	1	NaN	265	5	13	1	121	221	321	NaN	521	0.0851168215740472	2	1	NaN	1476417.285436	NaN	1476418.268836	1476418.78538808
48	27	1	0	90	36.1581920903955	36.241610738255	19	0.633374728020281	2	5	5	NaN	1	5	0.0345078701775815	1	1	NaN	266	5	14	1	121	221	321	NaN	521	0.0464520687237382	2	0	NaN	1476419.4523183	NaN	1476420.4357107	1476420.95225273
48	27	1	0	90	36.1581920903955	36.241610738255	21	0.700045752022415	2	2	4	NaN	1	3	0.0345078701775815	1	1	NaN	267	5	15	1	121	221	321	NaN	521	0.672702268930152	1	1	NaN	1476421.5858435	NaN	1476422.5692469	1476423.08580393
48	27	1	0	90	36.1581920903955	36.241610738255	18	0.600039216019213	2	2	2	NaN	1	4	0.0345078701775815	1	1	NaN	268	5	16	1	121	221	321	NaN	521	0.233888868940994	1	1	NaN	1476424.3526675	NaN	1476425.3361992	1476425.85274493
48	27	1	0	90	36.1581920903955	36.241610738255	23	0.76671677602455	2	3	2	NaN	1	5	0.0345078701775815	1	1	NaN	269	5	17	1	121	221	321	NaN	521	0.684806021628901	2	0	NaN	1476426.6696939	NaN	1476427.6530743	1476428.16964188
48	27	1	0	90	36.1581920903955	36.241610738255	13	0.433361656013876	2	8	6	NaN	2	4	0.0345078701775815	1	1	NaN	270	5	18	1	121	221	321	NaN	521	0.141821821220219	2	1	NaN	1476429.4366213	NaN	1476430.420027	1476430.93658068
48	27	1	0	90	36.1581920903955	36.241610738255	8	0.266684096008539	2	6	6	NaN	1	3	0.0345078701775815	1	1	NaN	271	5	19	1	121	221	321	NaN	521	0.14077706891112	2	0	NaN	1476431.6701825	NaN	1476432.6535625	1476433.17012763
48	27	1	0	90	36.1581920903955	36.241610738255	21	0.700045752022415	2	12	1	NaN	2	5	0.0345078701775815	1	1	NaN	272	5	20	1	121	221	321	NaN	521	0.0509038213640451	2	1	NaN	1476433.9037242	NaN	1476434.8871327	1476435.40367488
48	27	1	0	90	36.1581920903955	36.241610738255	15	0.500032680016011	2	3	3	NaN	1	5	0.0345078701775815	1	1	NaN	273	5	21	1	121	221	321	NaN	521	0.22928292141296	1	1	NaN	1476436.0372788	NaN	1476437.0206732	1476437.53722768
48	27	1	0	90	36.1581920903955	36.241610738255	23	0.76671677602455	2	5	6	NaN	1	5	0.0345078701775815	1	1	NaN	274	5	22	1	121	221	321	NaN	521	0.152416521450505	2	0	NaN	1476438.3540223	NaN	1476439.3375696	1476439.85411888
48	27	1	0	90	36.1581920903955	36.241610738255	13	0.433361656013876	2	9	5	NaN	2	3	0.0345078701775815	1	1	NaN	275	5	23	1	121	221	321	NaN	521	0.0103588213678449	2	1	NaN	1476440.587711	NaN	1476441.5711253	1476442.08766898
48	27	1	0	90	36.1581920903955	36.241610738255	6	0.200013072006404	2	8	4	NaN	2	3	0.0345078701775815	1	1	NaN	276	5	24	1	121	221	321	NaN	521	0.226648021256551	2	1	NaN	1476442.6879184	NaN	1476443.6712197	1476444.18787858
48	27	1	0	90	36.1581920903955	36.241610738255	17	0.566703704018146	2	11	4	NaN	2	5	0.0345078701775815	1	1	NaN	277	5	25	1	121	221	321	NaN	521	0.0103770687710494	2	1	NaN	1476445.0048176	NaN	1476445.988203	1476446.50476133
48	27	1	0	90	36.1581920903955	36.241610738255	24	0.800052288025618	2	12	5	NaN	2	4	0.0345078701775815	1	1	NaN	278	5	26	1	121	221	321	NaN	521	0.0103714687284082	2	1	NaN	1476447.105022	NaN	1476448.0884343	1476448.60497103
48	27	1	0	90	36.1581920903955	36.241610738255	15	0.500032680016011	2	3	1	NaN	1	5	0.0345078701775815	1	1	NaN	279	5	27	1	121	221	321	NaN	521	0.0103714687284082	2	0	NaN	1476449.2052353	NaN	1476450.1886389	1476450.70517543
48	27	1	0	90	36.1581920903955	36.241610738255	22	0.733381264023483	2	9	6	NaN	2	5	0.0345078701775815	1	1	NaN	280	5	28	1	121	221	321	NaN	521	0.0811631688848138	2	1	NaN	1476451.305432	NaN	1476452.2888376	1476452.80537993
48	27	1	0	90	36.1581920903955	36.241610738255	9	0.300019608009607	2	8	1	NaN	2	3	0.0345078701775815	1	1	NaN	281	5	29	1	121	221	321	NaN	521	0.0263788164593279	2	1	NaN	1476453.4723117	NaN	1476454.4557072	1476454.97226608
48	27	1	0	90	36.1581920903955	36.241610738255	22	0.733381264023483	2	1	4	NaN	1	5	0.0345078701775815	1	1	NaN	282	5	30	1	121	221	321	NaN	521	0.0103742689825594	1	1	NaN	1476455.589187	NaN	1476456.5725861	1476457.08913473
48	27	1	0	90	36.1581920903955	36.241610738255	13	0.433361656013876	2	9	3	NaN	2	3	0.0345078701775815	1	1	NaN	283	5	31	1	121	221	321	NaN	521	1.34522992139682	1	0	NaN	1476457.6894445	NaN	1476458.6727976	1476459.18935368
48	27	1	0	90	36.1581920903955	36.241610738255	19	0.633374728020281	2	11	2	NaN	2	3	0.0345078701775815	1	1	NaN	284	5	32	1	121	221	321	NaN	521	0.231662468751892	1	0	NaN	1476461.123064	NaN	1476462.10646	1476462.62301523
48	27	1	0	90	36.1581920903955	36.241610738255	13	0.433361656013876	2	6	1	NaN	1	4	0.0345078701775815	1	1	NaN	285	5	33	1	121	221	321	NaN	521	0.0103740687482059	2	0	NaN	1476463.4399517	NaN	1476464.4233549	1476464.93991193
48	27	1	0	90	36.1581920903955	36.241610738255	0	0	1	4	3	NaN	1	4	0.0345078701775815	1	1	NaN	286	5	34	1	111	211	311	NaN	511	0.158874121494591	2	0	NaN	1476465.5401707	NaN	1476466.5235619	1476467.04011818
48	27	1	0	90	36.1581920903955	36.241610738255	25	0.833387800026685	2	9	4	NaN	2	4	0.0345078701775815	1	1	NaN	287	5	35	1	121	221	321	NaN	521	0.0102500894572586	2	1	NaN	1476467.7903877	NaN	1476468.7737705	1476469.29033661
48	27	1	0	90	36.1581920903955	36.241610738255	9	0.300019608009607	2	7	4	NaN	2	4	0.0345078701775815	1	1	NaN	288	5	36	1	121	221	321	NaN	521	0.103834816487506	2	1	NaN	1476469.8906015	NaN	1476470.8740297	1476471.39054478
48	27	1	0	90	36.1581920903955	36.241610738255	23	0.76671677602455	2	11	5	NaN	2	3	0.0345078701775815	1	1	NaN	289	5	37	1	121	221	321	NaN	521	0.224257121561095	2	1	NaN	1476472.0908073	NaN	1476473.0742056	1476473.59076328
48	27	1	0	90	36.1581920903955	36.241610738255	18	0.600039216019213	2	12	2	NaN	2	3	0.0345078701775815	1	1	NaN	290	5	38	1	121	221	321	NaN	521	0.19495256873779	2	1	NaN	1476474.4077067	NaN	1476475.3910721	1476475.90765033
48	27	1	0	90	36.1581920903955	36.241610738255	10	0.333355120010674	2	7	4	NaN	2	4	0.0345078701775815	1	1	NaN	291	5	39	1	121	221	321	NaN	521	0.407337268814445	2	1	NaN	1476476.6912644	NaN	1476477.6746568	1476478.19120473
48	27	1	0	90	36.1581920903955	36.241610738255	16	0.533368192017078	2	4	2	NaN	1	4	0.0345078701775815	1	1	NaN	292	5	40	1	121	221	321	NaN	521	0.243461016332731	2	0	NaN	1476479.1915049	NaN	1476480.1747971	1476480.69145588
48	27	1	0	90	36.1581920903955	36.241610738255	10	0.333355120010674	2	9	2	NaN	2	5	0.0345078701775815	1	1	NaN	293	5	41	1	121	221	321	NaN	521	0.301512321457267	2	1	NaN	1476481.5250887	NaN	1476482.508471	1476483.02502158
48	27	1	0	90	36.1581920903955	36.241610738255	17	0.566703704018146	2	1	5	NaN	1	5	0.0345078701775815	1	1	NaN	294	5	42	1	121	221	321	NaN	521	0.26241172128357	2	0	NaN	1476483.9086376	NaN	1476484.8920385	1476485.40858218
48	27	1	0	90	36.1581920903955	36.241610738255	19	0.633374728020281	2	7	1	NaN	2	5	0.0345078701775815	1	1	NaN	295	5	43	1	121	221	321	NaN	521	0.327722321497276	2	1	NaN	1476486.2588687	NaN	1476487.2422735	1476487.75881928
48	27	1	0	90	36.1581920903955	36.241610738255	19	0.633374728020281	2	12	2	NaN	2	3	0.0345078701775815	1	1	NaN	296	5	44	1	121	221	321	NaN	521	0.422817916376516	2	1	NaN	1476488.6757765	NaN	1476489.6591836	1476490.17571478
48	27	1	0	90	36.1581920903955	36.241610738255	22	0.733381264023483	2	2	6	NaN	1	3	0.0345078701775815	1	1	NaN	297	5	45	1	121	221	321	NaN	521	0.153998268768191	2	0	NaN	1476491.1926814	NaN	1476492.1760763	1476492.69263263
48	27	1	0	90	36.1581920903955	36.241610738255	10	0.333355120010674	2	3	3	NaN	1	3	0.0345078701775815	1	1	NaN	298	5	46	1	121	221	321	NaN	521	0.352137768873945	2	0	NaN	1476493.4429142	NaN	1476494.4263039	1476494.94285713
48	27	1	0	90	36.1581920903955	36.241610738255	24	0.800052288025618	2	1	6	NaN	1	4	0.0345078701775815	1	1	NaN	299	5	47	1	121	221	321	NaN	521	0.062329342123121	1	1	NaN	1476495.876473	NaN	1476496.8598675	1476497.37642866
48	27	1	0	90	36.1581920903955	36.241610738255	7	0.233348584007472	2	10	3	NaN	2	5	0.0345078701775815	1	1	NaN	300	5	48	1	121	221	321	NaN	521	0.200239526806399	2	1	NaN	1476498.0266845	NaN	1476499.0100893	1476499.52664727
48	27	1	0	90	36.1581920903955	36.241610738255	23	0.76671677602455	2	4	6	NaN	1	5	0.0345078701775815	1	1	NaN	301	5	49	1	121	221	321	NaN	521	0.0764679212588817	2	0	NaN	1476500.3102398	NaN	1476501.293646	1476501.81019968
48	27	1	0	90	36.1581920903955	36.241610738255	9	0.300019608009607	2	9	3	NaN	2	3	0.0345078701775815	1	1	NaN	302	5	50	1	121	221	321	NaN	521	0.293604068923742	2	1	NaN	1476502.4771187	NaN	1476503.4605214	1476503.97707233
48	27	1	0	90	36.1581920903955	36.241610738255	7	0.233348584007472	2	6	2	NaN	1	5	0.0345078701775815	1	1	NaN	303	5	51	1	121	221	321	NaN	521	0.406358011066914	2	0	NaN	1476504.8607011	NaN	1476505.8440963	1476506.36063439
48	27	1	0	90	36.1581920903955	36.241610738255	21	0.700045752022415	2	3	5	NaN	1	5	0.0345078701775815	1	1	NaN	304	5	52	1	121	221	321	NaN	521	0.625673368806019	2	0	NaN	1476507.3609365	NaN	1476508.3443437	1476508.86088883
48	27	1	0	90	36.1581920903955	36.241610738255	18	0.600039216019213	2	10	5	NaN	2	3	0.0345078701775815	1	1	NaN	305	5	53	1	121	221	321	NaN	521	0.205124121392146	2	1	NaN	1476510.0778827	NaN	1476511.0612774	1476511.57782688
48	27	1	0	90	36.1581920903955	36.241610738255	21	0.700045752022415	2	11	6	NaN	2	5	0.0345078701775815	1	1	NaN	306	5	54	1	121	221	321	NaN	521	0.200697768712416	2	1	NaN	1476512.3781035	NaN	1476513.3615053	1476513.87804033
48	27	1	0	90	36.1581920903955	36.241610738255	12	0.400026144012809	2	2	5	NaN	1	4	0.0345078701775815	1	1	NaN	307	5	55	1	121	221	321	NaN	521	0.245038268854842	2	0	NaN	1476514.6616668	NaN	1476515.6450582	1476516.16160143
48	27	1	0	90	36.1581920903955	36.241610738255	24	0.800052288025618	2	6	6	NaN	1	4	0.0345078701775815	1	1	NaN	308	5	56	1	121	221	321	NaN	521	0.111466868780553	2	0	NaN	1476516.9952164	NaN	1476517.9786059	1476518.49516703
48	27	1	0	90	36.1581920903955	36.241610738255	10	0.333355120010674	2	8	6	NaN	2	4	0.0345078701775815	1	1	NaN	309	5	57	1	121	221	321	NaN	521	0.831256821285933	1	0	NaN	1476519.1954259	NaN	1476520.1788375	1476520.69538448
48	27	1	0	90	36.1581920903955	36.241610738255	20	0.666710240021348	2	9	1	NaN	2	5	0.0345078701775815	1	1	NaN	310	5	58	1	121	221	321	NaN	521	0.77849166886881	2	1	NaN	1476522.1123846	NaN	1476523.0959234	1476523.61233343
48	27	1	0	90	36.1581920903955	36.241610738255	9	0.300019608009607	2	1	5	NaN	1	3	0.0345078701775815	1	1	NaN	311	5	59	1	121	221	321	NaN	521	0.231378616532311	2	0	NaN	1476524.979337	NaN	1476525.9627324	1476526.47928688
48	27	1	0	90	36.1581920903955	36.241610738255	12	0.400026144012809	2	12	2	NaN	2	5	0.0345078701775815	1	1	NaN	312	5	60	1	121	221	321	NaN	521	0.0103775688912719	2	1	NaN	1476527.2962262	NaN	1476528.279616	1476528.79617333
48	27	1	0	90	36.1581920903955	36.241610738255	25	0.833387800026685	2	1	1	NaN	1	5	0.0345078701775815	1	1	NaN	313	5	61	1	121	221	321	NaN	521	0.0103734687436372	2	0	NaN	1476529.396445	NaN	1476530.3798311	1476530.89638613
48	27	1	0	90	36.1581920903955	36.241610738255	8	0.266684096008539	2	8	4	NaN	2	4	0.0345078701775815	1	1	NaN	314	5	62	1	121	221	321	NaN	521	0.106037511257455	2	1	NaN	1476531.4966444	NaN	1476532.480052	1476532.99659209
48	27	1	0	90	36.1581920903955	36.241610738255	23	0.76671677602455	2	1	3	NaN	1	5	0.0345078701775815	1	1	NaN	315	5	63	1	121	221	321	NaN	521	2.2978471214883	2	0	NaN	1476533.6968556	NaN	1476534.6802588	1476535.19681128
48	27	1	0	90	36.1581920903955	36.241610738255	14	0.466697168014944	2	11	4	NaN	2	5	0.0345078701775815	1	1	NaN	316	6	1	1	121	221	321	NaN	521	0.292971821501851	2	1	NaN	1476542.7977552	NaN	1476543.781145	1476544.29770398
48	27	1	0	90	36.1581920903955	36.241610738255	11	0.366690632011741	2	4	4	NaN	1	4	0.0345078701775815	1	1	NaN	317	6	2	1	121	221	321	NaN	521	0.0213888639118522	2	0	NaN	1476545.1813117	NaN	1476546.1647243	1476546.68126064
48	27	1	0	90	36.1581920903955	36.241610738255	23	0.76671677602455	2	12	4	NaN	2	5	0.0345078701775815	1	1	NaN	318	6	3	1	121	221	321	NaN	521	0.0884976689703763	2	1	NaN	1476547.2981831	NaN	1476548.2815873	1476548.79814423
48	27	1	0	90	36.1581920903955	36.241610738255	18	0.600039216019213	2	4	5	NaN	1	5	0.0345078701775815	1	1	NaN	319	6	4	1	121	221	321	NaN	521	0.233456568792462	2	0	NaN	1476549.4817372	NaN	1476550.4651424	1476550.98168623
48	27	1	0	90	36.1581920903955	36.241610738255	16	0.533368192017078	2	12	6	NaN	2	3	0.0345078701775815	1	1	NaN	320	6	5	1	121	221	321	NaN	521	0.17204952146858	1	0	NaN	1476551.7986382	NaN	1476552.7820302	1476553.29858898
48	27	1	0	90	36.1581920903955	36.241610738255	11	0.366690632011741	2	8	1	NaN	2	3	0.0345078701775815	1	1	NaN	321	6	6	1	121	221	321	NaN	521	0.0810642689466476	2	1	NaN	1476554.0655225	NaN	1476555.0489258	1476555.56546873
48	27	1	0	90	36.1581920903955	36.241610738255	20	0.666710240021348	2	2	4	NaN	1	4	0.0345078701775815	1	1	NaN	322	6	7	1	121	221	321	NaN	521	0.0102484894450754	1	1	NaN	1476556.2323978	NaN	1476557.2158091	1476557.73235841
48	27	1	0	90	36.1581920903955	36.241610738255	6	0.200013072006404	2	5	6	NaN	1	5	0.0345078701775815	1	1	NaN	323	6	8	1	121	221	321	NaN	521	0.214163368800655	1	1	NaN	1476558.3326104	NaN	1476559.3160085	1476559.83256003
48	27	1	0	90	36.1581920903955	36.241610738255	11	0.366690632011741	2	2	1	NaN	1	3	0.0345078701775815	1	1	NaN	324	6	9	1	121	221	321	NaN	521	0.27387662162073	1	1	NaN	1476560.6328368	NaN	1476561.6162354	1476562.13278398
48	27	1	0	90	36.1581920903955	36.241610738255	6	0.200013072006404	2	6	5	NaN	1	5	0.0345078701775815	1	1	NaN	325	6	10	1	121	221	321	NaN	521	0.355125868925825	1	1	NaN	1476562.9997438	NaN	1476563.9831573	1476564.49968743
48	27	1	0	90	36.1581920903955	36.241610738255	8	0.266684096008539	2	11	3	NaN	2	3	0.0345078701775815	1	1	NaN	326	6	11	1	121	221	321	NaN	521	0.432811968959868	2	1	NaN	1476565.4499728	NaN	1476566.4333694	1476566.94991693
48	27	1	0	90	36.1581920903955	36.241610738255	18	0.600039216019213	2	3	5	NaN	1	5	0.0345078701775815	1	1	NaN	327	6	12	1	121	221	321	NaN	521	0.396077868761495	1	1	NaN	1476567.9668757	NaN	1476568.950277	1476569.46684973
48	27	1	0	90	36.1581920903955	36.241610738255	0	0	1	11	1	NaN	2	4	0.0345078701775815	1	1	NaN	328	6	13	1	111	211	311	NaN	511	0.32076202146709	1	0	NaN	1476570.4503188	NaN	1476571.4338663	1476571.95041798
48	27	1	0	90	36.1581920903955	36.241610738255	19	0.633374728020281	2	5	1	NaN	1	4	0.0345078701775815	1	1	NaN	329	6	14	1	121	221	321	NaN	521	0.32747376896441	1	1	NaN	1476572.8673691	NaN	1476573.8507659	1476574.36733903
48	27	1	0	90	36.1581920903955	36.241610738255	18	0.600039216019213	2	11	5	NaN	2	5	0.0345078701775815	1	1	NaN	330	6	15	1	121	221	321	NaN	521	0.010362321510911	1	0	NaN	1476575.2842812	NaN	1476576.2676678	1476576.78422608
48	27	1	0	90	36.1581920903955	36.241610738255	22	0.733381264023483	2	10	5	NaN	2	5	0.0345078701775815	1	1	NaN	331	6	16	1	121	221	321	NaN	521	0.114486468723044	1	0	NaN	1476577.3844712	NaN	1476578.3678785	1476578.88442183
48	27	1	0	90	36.1581920903955	36.241610738255	15	0.500032680016011	2	8	2	NaN	2	5	0.0345078701775815	1	1	NaN	332	6	17	1	121	221	321	NaN	521	1.04262012150139	2	1	NaN	1476579.5846987	NaN	1476580.568085	1476581.08464038
48	27	1	0	90	36.1581920903955	36.241610738255	10	0.333355120010674	2	4	6	NaN	1	4	0.0345078701775815	1	1	NaN	333	6	18	1	121	221	321	NaN	521	0.164360868744552	2	0	NaN	1476582.718331	NaN	1476583.7017392	1476584.21828903
48	27	1	0	90	36.1581920903955	36.241610738255	22	0.733381264023483	2	2	5	NaN	1	5	0.0345078701775815	1	1	NaN	334	6	19	1	121	221	321	NaN	521	0.130656968802214	2	0	NaN	1476584.9685573	NaN	1476585.9519371	1476586.46850693
48	27	1	0	90	36.1581920903955	36.241610738255	11	0.366690632011741	2	1	2	NaN	1	5	0.0345078701775815	1	1	NaN	335	6	20	1	121	221	321	NaN	521	0.513417063746601	1	1	NaN	1476587.1854847	NaN	1476588.1688432	1476588.68538274
48	27	1	0	90	36.1581920903955	36.241610738255	15	0.500032680016011	2	9	2	NaN	2	5	0.0345078701775815	1	1	NaN	336	6	21	1	121	221	321	NaN	521	0.753516968805343	1	0	NaN	1476589.7857005	NaN	1476590.7690857	1476591.28564003
48	27	1	0	90	36.1581920903955	36.241610738255	13	0.433361656013876	2	5	2	NaN	1	3	0.0345078701775815	1	1	NaN	337	6	22	1	121	221	321	NaN	521	0.159152568783611	1	1	NaN	1476592.6359811	NaN	1476593.6193787	1476594.13593093
48	27	1	0	90	36.1581920903955	36.241610738255	7	0.233348584007472	2	12	2	NaN	2	4	0.0345078701775815	1	1	NaN	338	6	23	1	121	221	321	NaN	521	0.420668821316212	2	1	NaN	1476594.8862093	NaN	1476595.8696048	1476596.38615308
48	27	1	0	90	36.1581920903955	36.241610738255	22	0.733381264023483	2	12	4	NaN	2	4	0.0345078701775815	1	1	NaN	339	6	24	1	121	221	321	NaN	521	0.223778668791056	2	1	NaN	1476597.4031184	NaN	1476598.3865006	1476598.90306053
48	27	1	0	90	36.1581920903955	36.241610738255	21	0.700045752022415	2	11	5	NaN	2	3	0.0345078701775815	1	1	NaN	340	6	25	1	121	221	321	NaN	521	0.218903321307153	2	1	NaN	1476599.7200046	NaN	1476600.7034052	1476601.21995968
48	27	1	0	90	36.1581920903955	36.241610738255	9	0.300019608009607	2	12	6	NaN	2	3	0.0345078701775815	1	1	NaN	341	6	26	1	121	221	321	NaN	521	0.141790568828583	2	1	NaN	1476602.0368975	NaN	1476603.0203087	1476603.53685023
48	27	1	0	90	36.1581920903955	36.241610738255	16	0.533368192017078	2	11	2	NaN	2	5	0.0345078701775815	1	1	NaN	342	6	27	1	121	221	321	NaN	521	0.172798368846998	2	1	NaN	1476604.2704514	NaN	1476605.2538441	1476605.77040183
48	27	1	0	90	36.1581920903955	36.241610738255	19	0.633374728020281	2	2	5	NaN	1	4	0.0345078701775815	1	1	NaN	343	6	28	1	121	221	321	NaN	521	0.129571168683469	2	0	NaN	1476606.5372242	NaN	1476607.5207517	1476608.03729193
48	27	1	0	90	36.1581920903955	36.241610738255	22	0.733381264023483	2	1	2	NaN	1	3	0.0345078701775815	1	1	NaN	344	6	29	1	121	221	321	NaN	521	0.176593121374026	2	0	NaN	1476608.754225	NaN	1476609.7376324	1476610.25417728
48	27	1	0	90	36.1581920903955	36.241610738255	11	0.366690632011741	2	11	2	NaN	2	4	0.0345078701775815	1	1	NaN	345	6	30	1	121	221	321	NaN	521	0.149797568796203	2	1	NaN	1476611.0211092	NaN	1476612.0045134	1476612.52106023
48	27	1	0	90	36.1581920903955	36.241610738255	6	0.200013072006404	2	9	5	NaN	2	5	0.0345078701775815	1	1	NaN	346	6	31	1	121	221	321	NaN	521	1.60427846875973	2	1	NaN	1476613.2546669	NaN	1476614.2380727	1476614.75460883
48	27	1	0	90	36.1581920903955	36.241610738255	16	0.533368192017078	2	8	2	NaN	2	5	0.0345078701775815	1	1	NaN	347	6	32	1	121	221	321	NaN	521	0.176255568861961	2	1	NaN	1476616.9550371	NaN	1476617.9384256	1476618.45497843
48	27	1	0	90	36.1581920903955	36.241610738255	6	0.200013072006404	2	1	2	NaN	1	4	0.0345078701775815	1	1	NaN	348	6	33	1	121	221	321	NaN	521	0.0130828162655234	2	0	NaN	1476619.2219109	NaN	1476620.2053209	1476620.72185938
48	27	1	0	90	36.1581920903955	36.241610738255	11	0.366690632011741	2	2	5	NaN	1	5	0.0345078701775815	1	1	NaN	349	6	34	1	121	221	321	NaN	521	0.30473614227958	2	0	NaN	1476621.3221287	NaN	1476622.3055265	1476622.82207726
48	27	1	0	90	36.1581920903955	36.241610738255	21	0.700045752022415	2	9	5	NaN	2	4	0.0345078701775815	1	1	NaN	350	6	35	1	121	221	321	NaN	521	0.78458531643264	2	1	NaN	1476623.7223528	NaN	1476624.7057904	1476625.22230188
48	27	1	0	90	36.1581920903955	36.241610738255	22	0.733381264023483	2	6	4	NaN	1	5	0.0345078701775815	1	1	NaN	351	6	36	1	121	221	321	NaN	521	0.0103725688531995	2	0	NaN	1476626.6059826	NaN	1476627.5893872	1476628.10592653
48	27	1	0	90	36.1581920903955	36.241610738255	21	0.700045752022415	2	1	5	NaN	1	4	0.0345078701775815	1	1	NaN	352	6	37	1	121	221	321	NaN	521	0.160977616440505	1	1	NaN	1476628.7061752	NaN	1476629.6895884	1476630.20613418
48	27	1	0	90	36.1581920903955	36.241610738255	11	0.366690632011741	2	6	4	NaN	1	4	0.0345078701775815	1	1	NaN	353	6	38	1	121	221	321	NaN	521	0.0103719686158001	2	0	NaN	1476630.9564112	NaN	1476631.9397811	1476632.45634663
48	27	1	0	90	36.1581920903955	36.241610738255	15	0.500032680016011	2	12	3	NaN	2	5	0.0345078701775815	1	1	NaN	354	6	39	1	121	221	321	NaN	521	0.234558789525181	2	1	NaN	1476633.0566032	NaN	1476634.0399989	1476634.55655651
48	27	1	0	90	36.1581920903955	36.241610738255	20	0.666710240021348	2	6	3	NaN	1	3	0.0345078701775815	1	1	NaN	355	6	40	1	121	221	321	NaN	521	0.420695368899032	1	1	NaN	1476635.3900077	NaN	1476636.3735651	1476636.89012423
48	27	1	0	90	36.1581920903955	36.241610738255	21	0.700045752022415	2	12	3	NaN	2	3	0.0345078701775815	1	1	NaN	356	6	41	1	121	221	321	NaN	521	0.263831221498549	1	0	NaN	1476637.9071605	NaN	1476638.8904846	1476639.40704198
48	27	1	0	90	36.1581920903955	36.241610738255	9	0.300019608009607	2	2	2	NaN	1	5	0.0345078701775815	1	1	NaN	357	6	42	1	121	221	321	NaN	521	0.234001368982717	1	1	NaN	1476640.2573126	NaN	1476641.2407154	1476641.75726703
48	27	1	0	90	36.1581920903955	36.241610738255	19	0.633374728020281	2	12	5	NaN	2	3	0.0345078701775815	1	1	NaN	358	6	43	1	121	221	321	NaN	521	0.325116794556379	1	0	NaN	1476642.5742132	NaN	1476643.5576197	1476644.07416391
48	27	1	0	90	36.1581920903955	36.241610738255	0	0	1	4	4	NaN	1	5	0.0345078701775815	1	1	NaN	359	6	44	1	111	211	311	NaN	511	0.25178176863119	2	0	NaN	1476644.9911366	NaN	1476645.9745128	1476646.49106393
48	27	1	0	90	36.1581920903955	36.241610738255	16	0.533368192017078	2	10	1	NaN	2	3	0.0345078701775815	1	1	NaN	360	6	45	1	121	221	321	NaN	521	0.41391513729468	2	1	NaN	1476647.3413398	NaN	1476648.3247503	1476648.84130576
48	27	1	0	90	36.1581920903955	36.241610738255	7	0.233348584007472	2	1	6	NaN	1	3	0.0345078701775815	1	1	NaN	361	6	46	1	121	221	321	NaN	521	0.153475116472691	2	0	NaN	1476649.841586	NaN	1476650.8249916	1476651.34153728
48	27	1	0	90	36.1581920903955	36.241610738255	0	0	1	5	4	NaN	1	4	0.0345078701775815	1	1	NaN	362	6	47	1	111	211	311	NaN	511	0.0791027215309441	2	0	NaN	1476652.0918413	NaN	1476653.0752083	1476653.59176508
48	27	1	0	90	36.1581920903955	36.241610738255	8	0.266684096008539	2	4	5	NaN	1	5	0.0345078701775815	1	1	NaN	363	6	48	1	121	221	321	NaN	521	0.360177568858489	2	0	NaN	1476654.258698	NaN	1476655.2420782	1476655.75864173
48	27	1	0	90	36.1581920903955	36.241610738255	6	0.200013072006404	2	7	2	NaN	2	4	0.0345078701775815	1	1	NaN	364	6	49	1	121	221	321	NaN	521	0.358357342192903	2	1	NaN	1476656.7089259	NaN	1476657.6923576	1476658.20889306
48	27	1	0	90	36.1581920903955	36.241610738255	15	0.500032680016011	2	10	5	NaN	2	3	0.0345078701775815	1	1	NaN	365	6	50	1	121	221	321	NaN	521	0.500024216482416	2	1	NaN	1476659.1591731	NaN	1476660.1425673	1476660.65911348
48	27	1	0	90	36.1581920903955	36.241610738255	15	0.500032680016011	2	1	4	NaN	1	3	0.0345078701775815	1	1	NaN	366	6	51	1	121	221	321	NaN	521	0.156232721405104	2	0	NaN	1476661.7427607	NaN	1476662.7261763	1476663.24271298
48	27	1	0	90	36.1581920903955	36.241610738255	7	0.233348584007472	2	4	2	NaN	1	4	0.0345078701775815	1	1	NaN	367	6	52	1	121	221	321	NaN	521	0.162331169005483	2	0	NaN	1476663.9930138	NaN	1476664.9763833	1476665.49292403
48	27	1	0	90	36.1581920903955	36.241610738255	6	0.200013072006404	2	2	6	NaN	1	5	0.0345078701775815	1	1	NaN	368	6	53	1	121	221	321	NaN	521	0.2396571689751	1	1	NaN	1476666.2432331	NaN	1476667.2266155	1476667.74315213
48	27	1	0	90	36.1581920903955	36.241610738255	23	0.76671677602455	2	2	6	NaN	1	4	0.0345078701775815	1	1	NaN	369	6	54	1	121	221	321	NaN	521	0.266517168842256	2	0	NaN	1476668.5767723	NaN	1476669.5601702	1476670.07671273
48	27	1	0	90	36.1581920903955	36.241610738255	0	0	1	5	5	NaN	1	5	0.0345078701775815	1	1	NaN	370	6	55	1	111	211	311	NaN	511	0.643967868760228	2	0	NaN	1476670.9269815	NaN	1476671.9103966	1476672.42694363
48	27	1	0	90	36.1581920903955	36.241610738255	13	0.433361656013876	2	12	6	NaN	2	5	0.0345078701775815	1	1	NaN	371	6	56	1	121	221	321	NaN	521	0.598672568798065	2	1	NaN	1476673.660603	NaN	1476674.6439931	1476675.16054023
48	27	1	0	90	36.1581920903955	36.241610738255	8	0.266684096008539	2	8	2	NaN	2	3	0.0345078701775815	1	1	NaN	372	6	57	1	121	221	321	NaN	521	0.78683212143369	2	1	NaN	1476676.3441914	NaN	1476677.3275872	1476677.84414838
48	27	1	0	90	36.1581920903955	36.241610738255	22	0.733381264023483	2	7	5	NaN	2	5	0.0345078701775815	1	1	NaN	373	6	58	1	121	221	321	NaN	521	0.53550986899063	2	1	NaN	1476679.2278039	NaN	1476680.211215	1476680.72775663
48	27	1	0	90	36.1581920903955	36.241610738255	0	0	1	7	5	NaN	2	4	0.0345078701775815	1	1	NaN	374	6	59	1	111	211	311	NaN	511	1.00624427385628	2	1	NaN	1476681.8447333	NaN	1476682.8281309	1476683.34467953
48	27	1	0	90	36.1581920903955	36.241610738255	17	0.566703704018146	2	2	1	NaN	1	4	0.0345078701775815	1	1	NaN	375	6	60	1	121	221	321	NaN	521	1.94636756880209	2	0	NaN	1476684.9450336	NaN	1476685.9284315	1476686.44497883
48	27	1	0	90	36.1581920903955	36.241610738255	0	0	1	3	2	NaN	1	3	0.0345078701775815	1	1	NaN	376	6	61	1	111	211	311	NaN	511	1.4641771686729	2	0	NaN	1476688.9788288	NaN	1476689.9621637	1476690.47870793
48	27	1	0	90	36.1581920903955	36.241610738255	9	0.300019608009607	2	4	2	NaN	1	4	0.0345078701775815	1	1	NaN	377	6	62	1	121	221	321	NaN	521	0.410247121471912	1	1	NaN	1476692.5291113	NaN	1476693.5125197	1476694.02906748
48	27	1	0	90	36.1581920903955	36.241610738255	16	0.533368192017078	2	4	4	NaN	1	4	0.0345078701775815	1	1	NaN	378	6	63	1	121	221	321	NaN	521	0.0135377214755863	2	0	NaN	1476695.029355	NaN	1476696.012758	1476696.52931038
48	27	1	0	90	36.1581920903955	36.241610738255	11	0.366690632011741	2	12	2	NaN	2	5	0.0345078701775815	1	1	NaN	379	7	1	1	121	221	321	NaN	521	0.744964568642899	2	1	NaN	1476754.6185464	NaN	1476755.6019362	1476756.11848393
48	27	1	0	90	36.1581920903955	36.241610738255	10	0.333355120010674	2	4	3	NaN	1	3	0.0345078701775815	1	1	NaN	380	7	2	1	121	221	321	NaN	521	0.343062131898478	2	0	NaN	1476757.4521704	NaN	1476758.4355545	1476758.95210677
48	27	1	0	90	36.1581920903955	36.241610738255	11	0.366690632011741	2	7	5	NaN	2	5	0.0345078701775815	1	1	NaN	381	7	3	1	121	221	321	NaN	521	2.98133772145957	2	1	NaN	1476759.8857223	NaN	1476760.869134	1476761.38568068
48	27	1	0	90	36.1581920903955	36.241610738255	19	0.633374728020281	2	2	2	NaN	1	5	0.0345078701775815	1	1	NaN	382	7	4	1	121	221	321	NaN	521	0.330640968866646	2	0	NaN	1476764.9528872	NaN	1476765.9362958	1476766.45283283
48	27	1	0	90	36.1581920903955	36.241610738255	6	0.200013072006404	2	9	6	NaN	2	5	0.0345078701775815	1	1	NaN	383	7	5	1	121	221	321	NaN	521	0.969160768901929	2	1	NaN	1476767.3697935	NaN	1476768.3531806	1476768.86974273
48	27	1	0	90	36.1581920903955	36.241610738255	12	0.400026144012809	2	11	1	NaN	2	5	0.0345078701775815	1	1	NaN	384	7	6	1	121	221	321	NaN	521	0.406693089520559	2	1	NaN	1476770.4366394	NaN	1476771.4201468	1476771.93670801
48	27	1	0	90	36.1581920903955	36.241610738255	9	0.300019608009607	2	11	4	NaN	2	5	0.0345078701775815	1	1	NaN	385	7	7	1	121	221	321	NaN	521	0.706090221414343	2	1	NaN	1476772.9370057	NaN	1476773.9203815	1476774.43695418
48	27	1	0	90	36.1581920903955	36.241610738255	8	0.266684096008539	2	1	3	NaN	1	3	0.0345078701775815	1	1	NaN	386	7	8	1	121	221	321	NaN	521	0.458178368862718	1	1	NaN	1476775.7372725	NaN	1476776.7206831	1476777.23722273
48	27	1	0	90	36.1581920903955	36.241610738255	13	0.433361656013876	2	11	3	NaN	2	5	0.0345078701775815	1	1	NaN	387	7	9	1	121	221	321	NaN	521	0.243737468961626	2	1	NaN	1476778.2875407	NaN	1476779.2709337	1476779.78747303
48	27	1	0	90	36.1581920903955	36.241610738255	14	0.466697168014944	2	3	2	NaN	1	3	0.0345078701775815	1	1	NaN	388	7	10	1	121	221	321	NaN	521	1.02208916889504	2	0	NaN	1476780.6211111	NaN	1476781.6044989	1476782.12103933
48	27	1	0	90	36.1581920903955	36.241610738255	9	0.300019608009607	2	7	4	NaN	2	3	0.0345078701775815	1	1	NaN	389	7	11	1	121	221	321	NaN	521	17.3851126213558	2	1	NaN	1476783.7380709	NaN	1476784.7214538	1476785.23801818
48	27	1	0	90	36.1581920903955	36.241610738255	10	0.333355120010674	2	2	2	NaN	1	5	0.0345078701775815	1	1	NaN	390	7	12	1	121	221	321	NaN	521	0.324911342235282	2	0	NaN	1476803.2066336	NaN	1476804.1900508	1476804.70659656
48	27	1	0	90	36.1581920903955	36.241610738255	11	0.366690632011741	2	5	1	NaN	1	5	0.0345078701775815	1	1	NaN	391	7	13	1	121	221	321	NaN	521	0.507646568818018	2	0	NaN	1476805.6235482	NaN	1476806.6069406	1476807.12349023
48	27	1	0	90	36.1581920903955	36.241610738255	6	0.200013072006404	2	4	4	NaN	1	5	0.0345078701775815	1	1	NaN	392	7	14	1	121	221	321	NaN	521	0.515449189580977	2	0	NaN	1476808.2238034	NaN	1476809.2072704	1476809.72375541
48	27	1	0	90	36.1581920903955	36.241610738255	7	0.233348584007472	2	2	5	NaN	1	3	0.0345078701775815	1	1	NaN	393	7	15	1	121	221	321	NaN	521	1.36324761621654	1	1	NaN	1476810.8240585	NaN	1476811.8074671	1476812.32400988
48	27	1	0	90	36.1581920903955	36.241610738255	15	0.500032680016011	2	4	1	NaN	1	5	0.0345078701775815	1	1	NaN	394	7	16	1	121	221	321	NaN	521	0.481055374024436	2	0	NaN	1476814.2744358	NaN	1476815.2578056	1476815.77435253
48	27	1	0	90	36.1581920903955	36.241610738255	14	0.466697168014944	2	7	6	NaN	2	3	0.0345078701775815	1	1	NaN	395	7	17	1	121	221	321	NaN	521	0.594092421466485	2	1	NaN	1476816.8413144	NaN	1476817.8247176	1476818.34126478
48	27	1	0	90	36.1581920903955	36.241610738255	9	0.300019608009607	2	10	4	NaN	2	5	0.0345078701775815	1	1	NaN	396	7	18	1	121	221	321	NaN	521	0.694571768864989	2	1	NaN	1476819.5249079	NaN	1476820.5083055	1476821.02486003
48	27	1	0	90	36.1581920903955	36.241610738255	14	0.466697168014944	2	10	4	NaN	2	5	0.0345078701775815	1	1	NaN	397	7	19	1	121	221	321	NaN	521	0.271008631912991	2	1	NaN	1476822.3085285	NaN	1476823.2919245	1476823.80846827
48	27	1	0	90	36.1581920903955	36.241610738255	11	0.366690632011741	2	10	3	NaN	2	4	0.0345078701775815	1	1	NaN	398	7	20	1	121	221	321	NaN	521	0.488091521430761	2	1	NaN	1476824.6754259	NaN	1476825.658809	1476826.17537418
48	27	1	0	90	36.1581920903955	36.241610738255	22	0.733381264023483	2	4	2	NaN	1	4	0.0345078701775815	1	1	NaN	399	7	21	1	121	221	321	NaN	521	0.224117368692532	2	0	NaN	1476827.2590047	NaN	1476828.2423977	1476828.75894733
48	27	1	0	90	36.1581920903955	36.241610738255	10	0.333355120010674	2	11	2	NaN	2	4	0.0345078701775815	1	1	NaN	400	7	22	1	121	221	321	NaN	521	0.171414068667218	2	1	NaN	1476829.5758926	NaN	1476830.5592989	1476831.07584403
48	27	1	0	90	36.1581920903955	36.241610738255	12	0.400026144012809	2	10	2	NaN	2	4	0.0345078701775815	1	1	NaN	401	7	23	1	121	221	321	NaN	521	0.432292516576126	2	1	NaN	1476831.8427789	NaN	1476832.8261846	1476833.34273168
48	27	1	0	90	36.1581920903955	36.241610738255	15	0.500032680016011	2	2	6	NaN	1	3	0.0345078701775815	1	1	NaN	402	7	24	1	121	221	321	NaN	521	0.275817063869908	1	1	NaN	1476834.3597142	NaN	1476835.3431075	1476835.85964394
48	27	1	0	90	36.1581920903955	36.241610738255	17	0.566703704018146	2	8	5	NaN	2	4	0.0345078701775815	1	1	NaN	403	7	25	1	121	221	321	NaN	521	0.452996021369472	2	1	NaN	1476836.7266077	NaN	1476837.7099997	1476838.22655358
48	27	1	0	90	36.1581920903955	36.241610738255	9	0.300019608009607	2	1	6	NaN	1	3	0.0345078701775815	1	1	NaN	404	7	26	1	121	221	321	NaN	521	0.0390277686528862	2	0	NaN	1476839.2601934	NaN	1476840.2435896	1476840.76013063
48	27	1	0	90	36.1581920903955	36.241610738255	24	0.800052288025618	2	4	2	NaN	1	4	0.0345078701775815	1	1	NaN	405	7	27	1	121	221	321	NaN	521	0.185415816260502	1	1	NaN	1476841.3937265	NaN	1476842.377102	1476842.89367518
48	27	1	0	90	36.1581920903955	36.241610738255	20	0.666710240021348	2	8	6	NaN	2	4	0.0345078701775815	1	1	NaN	406	7	28	1	121	221	321	NaN	521	0.438385368790478	1	0	NaN	1476843.6606108	NaN	1476844.6440125	1476845.16056043
48	27	1	0	90	36.1581920903955	36.241610738255	11	0.366690632011741	2	9	1	NaN	2	4	0.0345078701775815	1	1	NaN	407	7	29	1	121	221	321	NaN	521	0.264931516489014	2	1	NaN	1476846.1941945	NaN	1476847.177575	1476847.69414058
48	27	1	0	90	36.1581920903955	36.241610738255	21	0.700045752022415	2	4	1	NaN	1	3	0.0345078701775815	1	1	NaN	408	7	30	1	121	221	321	NaN	521	0.234527468681335	2	0	NaN	1476848.5444417	NaN	1476849.5278348	1476850.04437783
48	27	1	0	90	36.1581920903955	36.241610738255	22	0.733381264023483	2	11	2	NaN	2	5	0.0345078701775815	1	1	NaN	409	7	31	1	121	221	321	NaN	521	0.0859513215254992	2	1	NaN	1476850.8613167	NaN	1476851.8447128	1476852.36126898
48	27	1	0	90	36.1581920903955	36.241610738255	20	0.666710240021348	2	11	4	NaN	2	4	0.0345078701775815	1	1	NaN	410	7	32	1	121	221	321	NaN	521	0.190743968822062	2	1	NaN	1476853.0448586	NaN	1476854.0282813	1476854.54481983
48	27	1	0	90	36.1581920903955	36.241610738255	21	0.700045752022415	2	4	6	NaN	1	4	0.0345078701775815	1	1	NaN	411	7	33	1	121	221	321	NaN	521	0.0103721688501537	1	1	NaN	1476855.3284244	NaN	1476856.3118273	1476856.82837013
48	27	1	0	90	36.1581920903955	36.241610738255	21	0.700045752022415	2	7	3	NaN	2	3	0.0345078701775815	1	1	NaN	412	7	34	1	121	221	321	NaN	521	0.190596968634054	2	1	NaN	1476857.4286292	NaN	1476858.4120378	1476858.92858163
48	27	1	0	90	36.1581920903955	36.241610738255	12	0.400026144012809	2	4	1	NaN	1	3	0.0345078701775815	1	1	NaN	413	7	35	1	121	221	321	NaN	521	0.14708801638335	2	0	NaN	1476859.7121914	NaN	1476860.6955729	1476861.21214058
48	27	1	0	90	36.1581920903955	36.241610738255	16	0.533368192017078	2	11	6	NaN	2	3	0.0345078701775815	1	1	NaN	414	7	36	1	121	221	321	NaN	521	0.169207368744537	2	1	NaN	1476861.945761	NaN	1476862.9291461	1476863.44568923
48	27	1	0	90	36.1581920903955	36.241610738255	8	0.266684096008539	2	12	6	NaN	2	4	0.0345078701775815	1	1	NaN	415	7	37	1	121	221	321	NaN	521	0.255095516331494	2	1	NaN	1476864.1959766	NaN	1476865.1793609	1476865.69591568
48	27	1	0	90	36.1581920903955	36.241610738255	23	0.76671677602455	2	3	2	NaN	1	5	0.0345078701775815	1	1	NaN	416	7	38	1	121	221	321	NaN	521	0.377035121433437	2	0	NaN	1476866.5461934	NaN	1476867.5296022	1476868.04614138
48	27	1	0	90	36.1581920903955	36.241610738255	20	0.666710240021348	2	7	1	NaN	2	3	0.0345078701775815	1	1	NaN	417	7	39	1	121	221	321	NaN	521	0.350045316386968	2	1	NaN	1476869.0131272	NaN	1476869.9964919	1476870.51305628
48	27	1	0	90	36.1581920903955	36.241610738255	7	0.233348584007472	2	5	3	NaN	1	3	0.0345078701775815	1	1	NaN	418	7	40	1	121	221	321	NaN	521	0.164407568750903	2	0	NaN	1476871.4466732	NaN	1476872.4300767	1476872.94662113
48	27	1	0	90	36.1581920903955	36.241610738255	0	0	1	1	6	NaN	1	3	0.0345078701775815	1	1	NaN	419	7	41	1	111	211	311	NaN	511	0.146322916261852	2	0	NaN	1476873.6968958	NaN	1476874.6802865	1476875.19684918
48	27	1	0	90	36.1581920903955	36.241610738255	13	0.433361656013876	2	8	5	NaN	2	3	0.0345078701775815	1	1	NaN	420	7	42	1	121	221	321	NaN	521	0.58483892143704	2	1	NaN	1476875.9304755	NaN	1476876.9138567	1476877.43040618
48	27	1	0	90	36.1581920903955	36.241610738255	6	0.200013072006404	2	1	4	NaN	1	5	0.0345078701775815	1	1	NaN	421	7	43	1	121	221	321	NaN	521	0.349878774257377	1	1	NaN	1476878.5973812	NaN	1476879.5807864	1476880.09732943
48	27	1	0	90	36.1581920903955	36.241610738255	20	0.666710240021348	2	2	5	NaN	1	5	0.0345078701775815	1	1	NaN	422	7	44	1	121	221	321	NaN	521	0.0596036687493324	2	0	NaN	1476881.0476138	NaN	1476882.0310186	1476882.54756613
48	27	1	0	90	36.1581920903955	36.241610738255	0	0	1	12	5	NaN	2	4	0.0345078701775815	1	1	NaN	423	7	45	1	111	211	311	NaN	511	0.389332416467369	2	1	NaN	1476883.1978361	NaN	1476884.1812279	1476884.69778058
48	27	1	0	90	36.1581920903955	36.241610738255	17	0.566703704018146	2	10	5	NaN	2	3	0.0345078701775815	1	1	NaN	424	7	46	1	121	221	321	NaN	521	0.417946168687195	2	1	NaN	1476885.6814158	NaN	1476886.6648107	1476887.18135903
48	27	1	0	90	36.1581920903955	36.241610738255	18	0.600039216019213	2	8	5	NaN	2	4	0.0345078701775815	1	1	NaN	425	7	47	1	121	221	321	NaN	521	0.405700731789693	2	1	NaN	1476888.181649	NaN	1476889.1650484	1476889.68161217
48	27	1	0	90	36.1581920903955	36.241610738255	12	0.400026144012809	2	9	2	NaN	2	5	0.0345078701775815	1	1	NaN	426	7	48	1	121	221	321	NaN	521	0.273676668759435	1	0	NaN	1476890.6819021	NaN	1476891.665311	1476892.18184873
48	27	1	0	90	36.1581920903955	36.241610738255	16	0.533368192017078	2	1	4	NaN	1	4	0.0345078701775815	1	1	NaN	427	7	49	1	121	221	321	NaN	521	0.410581321455538	1	1	NaN	1476893.0487886	NaN	1476894.0321955	1476894.54875468
48	27	1	0	90	36.1581920903955	36.241610738255	7	0.233348584007472	2	9	3	NaN	2	3	0.0345078701775815	1	1	NaN	428	7	50	1	121	221	321	NaN	521	0.310180368833244	2	1	NaN	1476895.5490647	NaN	1476896.5324461	1476897.04898863
48	27	1	0	90	36.1581920903955	36.241610738255	13	0.433361656013876	2	3	4	NaN	1	4	0.0345078701775815	1	1	NaN	429	7	51	1	121	221	321	NaN	521	0.302003916352987	2	0	NaN	1476897.9492811	NaN	1476898.9326747	1476899.44922798
48	27	1	0	90	36.1581920903955	36.241610738255	24	0.800052288025618	2	8	3	NaN	2	5	0.0345078701775815	1	1	NaN	430	7	52	1	121	221	321	NaN	521	0.462545268936083	2	1	NaN	1476900.3328451	NaN	1476901.316264	1476901.83279503
48	27	1	0	90	36.1581920903955	36.241610738255	17	0.566703704018146	2	5	6	NaN	1	4	0.0345078701775815	1	1	NaN	431	7	53	1	121	221	321	NaN	521	0.664130421355367	2	0	NaN	1476902.8830972	NaN	1476903.8664921	1476904.38305118
48	27	1	0	90	36.1581920903955	36.241610738255	8	0.266684096008539	2	5	1	NaN	1	3	0.0345078701775815	1	1	NaN	432	7	54	1	121	221	321	NaN	521	0.93825636873953	2	0	NaN	1476905.6333714	NaN	1476906.616762	1476907.13331403
48	27	1	0	90	36.1581920903955	36.241610738255	18	0.600039216019213	2	9	2	NaN	2	4	0.0345078701775815	1	1	NaN	433	7	55	1	121	221	321	NaN	521	0.568685921374708	2	1	NaN	1476908.6669886	NaN	1476909.6505203	1476910.16694948
48	27	1	0	90	36.1581920903955	36.241610738255	8	0.266684096008539	2	10	4	NaN	2	5	0.0345078701775815	1	1	NaN	434	7	56	1	121	221	321	NaN	521	2.43833606876433	2	1	NaN	1476911.3172547	NaN	1476912.3006443	1476912.81720023
48	27	1	0	90	36.1581920903955	36.241610738255	0	0	1	9	6	NaN	2	5	0.0345078701775815	1	1	NaN	435	7	57	1	111	211	311	NaN	511	1.4400928162504	2	1	NaN	1476915.8510381	NaN	1476916.8344357	1476917.35099018
48	27	1	0	90	36.1581920903955	36.241610738255	19	0.633374728020281	2	9	5	NaN	2	3	0.0345078701775815	1	1	NaN	436	7	58	1	121	221	321	NaN	521	0.586709968745708	2	1	NaN	1476919.3847131	NaN	1476920.3681017	1476920.88467173
48	27	1	0	90	36.1581920903955	36.241610738255	15	0.500032680016011	2	7	4	NaN	2	4	0.0345078701775815	1	1	NaN	437	7	59	1	121	221	321	NaN	521	0.311275468673557	2	1	NaN	1476922.0683321	NaN	1476923.0517057	1476923.56825703
48	27	1	0	90	36.1581920903955	36.241610738255	16	0.533368192017078	2	12	1	NaN	2	4	0.0345078701775815	1	1	NaN	438	7	60	1	121	221	321	NaN	521	0.31067246873863	2	1	NaN	1476924.4685516	NaN	1476925.4519545	1476925.96849793
48	27	1	0	90	36.1581920903955	36.241610738255	19	0.633374728020281	2	3	1	NaN	1	3	0.0345078701775815	1	1	NaN	439	7	61	1	121	221	321	NaN	521	0.342481521423906	2	0	NaN	1476926.868788	NaN	1476927.8520804	1476928.36872798
48	27	1	0	90	36.1581920903955	36.241610738255	12	0.400026144012809	2	10	2	NaN	2	4	0.0345078701775815	1	1	NaN	440	7	62	1	121	221	321	NaN	521	0.421573968837038	2	1	NaN	1476929.3023612	NaN	1476930.2857578	1476930.80230273
48	27	1	0	90	36.1581920903955	36.241610738255	13	0.433361656013876	2	5	2	NaN	1	4	0.0345078701775815	1	1	NaN	441	7	63	1	121	221	321	NaN	521	0.256023368798196	2	0	NaN	1476931.8192823	NaN	1476932.8026602	1476933.31921293
48	27	1	0	90	36.1581920903955	36.241610738255	19	0.633374728020281	2	6	6	NaN	1	3	0.0345078701775815	1	1	NaN	442	8	1	1	121	221	321	NaN	521	0.199449368752539	2	0	NaN	1476935.2362801	NaN	1476936.2196652	1476936.73622023
48	27	1	0	90	36.1581920903955	36.241610738255	16	0.533368192017078	2	3	1	NaN	1	3	0.0345078701775815	1	1	NaN	443	8	2	1	121	221	321	NaN	521	0.635563616408035	1	1	NaN	1476937.5198271	NaN	1476938.5032401	1476939.01977538
48	27	1	0	90	36.1581920903955	36.241610738255	7	0.233348584007472	2	3	2	NaN	1	5	0.0345078701775815	1	1	NaN	444	8	3	1	121	221	321	NaN	521	0.166623221477494	2	0	NaN	1476940.2367695	NaN	1476941.2201607	1476941.73672028
48	27	1	0	90	36.1581920903955	36.241610738255	18	0.600039216019213	2	2	3	NaN	1	4	0.0345078701775815	1	1	NaN	445	8	4	1	121	221	321	NaN	521	0.0103736687451601	1	1	NaN	1476942.4869821	NaN	1476943.4703911	1476943.98693333
48	27	1	0	90	36.1581920903955	36.241610738255	8	0.266684096008539	2	10	4	NaN	2	5	0.0345078701775815	1	1	NaN	446	8	5	1	121	221	321	NaN	521	0.248528668889776	2	1	NaN	1476944.5871895	NaN	1476945.5705906	1476946.08714103
48	27	1	0	90	36.1581920903955	36.241610738255	20	0.666710240021348	2	3	1	NaN	1	5	0.0345078701775815	1	1	NaN	447	8	6	1	121	221	321	NaN	521	0.363014668924734	2	0	NaN	1476946.9207499	NaN	1476947.904096	1476948.42069963
48	27	1	0	90	36.1581920903955	36.241610738255	20	0.666710240021348	2	12	4	NaN	2	4	0.0345078701775815	1	1	NaN	448	8	7	1	121	221	321	NaN	521	0.200781616382301	2	1	NaN	1476949.3709885	NaN	1476950.3543803	1476950.87094288
48	27	1	0	90	36.1581920903955	36.241610738255	8	0.266684096008539	2	3	4	NaN	1	4	0.0345078701775815	1	1	NaN	449	8	8	1	121	221	321	NaN	521	0.452843616483733	2	0	NaN	1476951.6545633	NaN	1476952.6379549	1476953.15449378
48	27	1	0	90	36.1581920903955	36.241610738255	9	0.300019608009607	2	3	4	NaN	1	3	0.0345078701775815	1	1	NaN	450	8	9	1	121	221	321	NaN	521	0.270924853393808	2	0	NaN	1476954.2047974	NaN	1476955.1882079	1476955.70475035
48	27	1	0	90	36.1581920903955	36.241610738255	11	0.366690632011741	2	8	4	NaN	2	5	0.0345078701775815	1	1	NaN	451	8	10	1	121	221	321	NaN	521	0.295622968813404	2	1	NaN	1476956.5717078	NaN	1476957.5550968	1476958.07165033
48	27	1	0	90	36.1581920903955	36.241610738255	17	0.566703704018146	2	7	2	NaN	2	3	0.0345078701775815	1	1	NaN	452	8	11	1	121	221	321	NaN	521	0.336485768901184	1	0	NaN	1476958.9552604	NaN	1476959.9386737	1476960.45521453
48	27	1	0	90	36.1581920903955	36.241610738255	12	0.400026144012809	2	6	5	NaN	1	3	0.0345078701775815	1	1	NaN	453	8	12	1	121	221	321	NaN	521	0.278651368804276	2	0	NaN	1476961.388835	NaN	1476962.3722411	1476962.88878363
48	27	1	0	90	36.1581920903955	36.241610738255	14	0.466697168014944	2	3	3	NaN	1	4	0.0345078701775815	1	1	NaN	454	8	13	1	121	221	321	NaN	521	0.351612621452659	2	0	NaN	1476963.7557388	NaN	1476964.7391496	1476965.25569598
48	27	1	0	90	36.1581920903955	36.241610738255	18	0.600039216019213	2	5	3	NaN	1	3	0.0345078701775815	1	1	NaN	455	8	14	1	121	221	321	NaN	521	0.446063768817112	2	0	NaN	1476966.1893111	NaN	1476967.1727117	1476967.68925773
48	27	1	0	90	36.1581920903955	36.241610738255	24	0.800052288025618	2	12	2	NaN	2	3	0.0345078701775815	1	1	NaN	456	8	15	1	121	221	321	NaN	521	0.336506716441363	2	1	NaN	1476968.7228954	NaN	1476969.70629	1476970.22284428
48	27	1	0	90	36.1581920903955	36.241610738255	25	0.833387800026685	2	12	3	NaN	2	3	0.0345078701775815	1	1	NaN	457	8	16	1	121	221	321	NaN	521	0.295144342118874	2	1	NaN	1476971.1564691	NaN	1476972.1398694	1476972.65642516
