subjno	age	gender	isPractice	viewdist	CmToPixX	CmToPixY	SOA_frm	SOA_time	targNum	targID	targExample	targRace	targGender	firstTargPos	contrast	familiarity	curr_staircase	iStair	TrialNum	BlockNum	blktrl	sessionNum	TC_FIXATION	TC_RSVP_START	TC_RSVP_END	TC_BLANK	TC_RESPONSE_ONSET	RT2afc	resp_2afc	acc	RSVPOnsetVBL	RSVPOnsetTime	RSVPOffsetVBL	RSVPOffsetTime	startrt_2afc
102	18	0	0	90	36.1581920903955	36.241610738255	6	0.20001573599875	2	8	1	NaN	2	5	0.0884714403412524	0	1	NaN	1	1	1	2	120	220	320	NaN	520	0.0114778289571404	1	0	NaN	3351733.3370992	NaN	3351734.3203187	3351734.85341167
102	18	0	0	90	36.1581920903955	36.241610738255	18	0.600047207996249	2	2	2	NaN	1	4	0.0884714403412524	0	1	NaN	2	1	2	2	120	220	320	NaN	520	0.0112337288446724	1	1	NaN	3351735.7205715	NaN	3351736.703842	3351737.23698397
102	18	0	0	90	36.1581920903955	36.241610738255	8	0.266687647998333	2	5	5	NaN	1	4	0.0884714403412524	0	1	NaN	3	1	3	2	120	220	320	NaN	520	0.0105504333041608	1	1	NaN	3351738.0706037	NaN	3351739.0540021	3351739.57053997
102	18	0	0	90	36.1581920903955	36.241610738255	12	0.400031471997499	2	9	6	NaN	2	4	0.0884714403412524	0	1	NaN	4	1	4	2	120	220	320	NaN	520	0.806574547663331	2	1	NaN	3351740.404018	NaN	3351741.3875567	3351741.90411955
102	18	0	0	90	36.1581920903955	36.241610738255	11	0.366695515997708	2	11	3	NaN	2	4	0.0884714403412524	0	1	NaN	5	1	5	2	120	220	320	NaN	520	0.0104002240113914	2	1	NaN	3351743.7376884	NaN	3351744.7212222	3351745.23777058
102	18	0	0	90	36.1581920903955	36.241610738255	7	0.233351691998541	2	8	4	NaN	2	5	0.0884714403412524	0	1	NaN	6	1	6	2	120	220	320	NaN	520	0.0102667952887714	1	0	NaN	3351746.07129	NaN	3351747.0547812	3351747.5713381
102	18	0	0	90	36.1581920903955	36.241610738255	10	0.333359559997916	2	10	4	NaN	2	5	0.0884714403412524	0	1	NaN	7	1	7	2	120	220	320	NaN	520	0.56582497106865	2	1	NaN	3351748.4049456	NaN	3351749.3883427	3351749.90488453
102	18	0	0	90	36.1581920903955	36.241610738255	25	0.833398899994791	2	6	3	NaN	1	4	0.0884714403412524	0	1	NaN	8	1	8	2	120	220	320	NaN	520	1.01013387134299	1	1	NaN	3351751.2885554	NaN	3351752.2719544	3351752.78850203
102	18	0	0	90	36.1581920903955	36.241610738255	16	0.533375295996666	2	12	5	NaN	2	3	0.0884714403412524	0	1	NaN	9	1	9	2	120	220	320	NaN	520	0.396344523876905	2	1	NaN	3351754.6222084	NaN	3351755.6056153	3351756.12217218
102	18	0	0	90	36.1581920903955	36.241610738255	19	0.633383163996041	2	1	3	NaN	1	4	0.0884714403412524	0	1	NaN	10	1	10	2	120	220	320	NaN	520	0.0104189715348184	2	0	NaN	3351757.3391388	NaN	3351758.3225423	3351758.83909783
102	18	0	0	90	36.1581920903955	36.241610738255	0	0	1	12	1	NaN	2	3	0.0884714403412524	0	1	NaN	11	1	11	2	110	210	310	NaN	510	0.321870271582156	1	0	NaN	3351759.6727512	NaN	3351760.6561065	3351761.17266513
102	18	0	0	90	36.1581920903955	36.241610738255	20	0.666719119995832	2	5	1	NaN	1	5	0.0884714403412524	0	1	NaN	12	1	12	2	120	220	320	NaN	520	0.680190671235323	2	0	NaN	3351762.3063674	NaN	3351763.2896999	3351763.80625583
102	18	0	0	90	36.1581920903955	36.241610738255	7	0.233351691998541	2	6	3	NaN	1	3	0.0884714403412524	0	1	NaN	13	1	13	2	120	220	320	NaN	520	0.352152524050325	1	1	NaN	3351765.3064772	NaN	3351766.290006	3351766.80655108
102	18	0	0	90	36.1581920903955	36.241610738255	17	0.566711251996458	2	2	5	NaN	1	4	0.0884714403412524	0	1	NaN	14	1	14	2	120	220	320	NaN	520	0.404959123581648	1	1	NaN	3351767.9735262	NaN	3351768.9569298	3351769.47348658
102	18	0	0	90	36.1581920903955	36.241610738255	17	0.566711251996458	2	9	1	NaN	2	4	0.0884714403412524	0	1	NaN	15	1	15	2	120	220	320	NaN	520	0.135615123901516	1	0	NaN	3351770.7071229	NaN	3351771.6905258	3351772.20708738
102	18	0	0	90	36.1581920903955	36.241610738255	22	0.733391031995416	2	3	2	NaN	1	5	0.0884714403412524	0	1	NaN	16	1	16	2	120	220	320	NaN	520	0.0133597711101174	1	1	NaN	3351773.1572533	NaN	3351774.1407663	3351774.65732323
102	18	0	0	90	36.1581920903955	36.241610738255	10	0.333359559997916	2	4	6	NaN	1	4	0.0884714403412524	0	1	NaN	17	1	17	2	120	220	320	NaN	520	0.0103986239992082	1	1	NaN	3351775.4909347	NaN	3351776.4743349	3351776.99089098
102	18	0	0	90	36.1581920903955	36.241610738255	24	0.800062943994999	2	8	6	NaN	2	3	0.0884714403412524	0	1	NaN	18	1	18	2	120	220	320	NaN	520	0.0103957238607109	2	1	NaN	3351777.8244969	NaN	3351778.8079063	3351779.32445248
102	18	0	0	90	36.1581920903955	36.241610738255	16	0.533375295996666	2	4	2	NaN	1	5	0.0884714403412524	0	1	NaN	19	1	19	2	120	220	320	NaN	520	0.268529071006924	1	1	NaN	3351780.1580447	NaN	3351781.1414642	3351781.65800333
102	18	0	0	90	36.1581920903955	36.241610738255	13	0.433367427997291	2	6	6	NaN	1	3	0.0884714403412524	0	1	NaN	20	1	20	2	120	220	320	NaN	520	0.0104235713370144	1	1	NaN	3351782.7416483	NaN	3351783.7250459	3351784.24159373
102	18	0	0	90	36.1581920903955	36.241610738255	24	0.800062943994999	2	7	5	NaN	2	5	0.0884714403412524	0	1	NaN	21	1	21	2	120	220	320	NaN	520	0.431564071215689	2	1	NaN	3351785.0751123	NaN	3351786.0586174	3351786.57515463
102	18	0	0	90	36.1581920903955	36.241610738255	12	0.400031471997499	2	5	3	NaN	1	5	0.0884714403412524	0	1	NaN	22	1	22	2	120	220	320	NaN	520	0.0104032712988555	2	0	NaN	3351787.8254836	NaN	3351788.8088356	3351789.32542653
102	18	0	0	90	36.1581920903955	36.241610738255	8	0.266687647998333	2	6	5	NaN	1	3	0.0884714403412524	0	1	NaN	23	1	23	2	120	220	320	NaN	520	0.01041807141155	1	1	NaN	3351790.1590527	NaN	3351791.1424366	3351791.65899293
102	18	0	0	90	36.1581920903955	36.241610738255	7	0.233351691998541	2	8	4	NaN	2	5	0.0884714403412524	0	1	NaN	24	1	24	2	120	220	320	NaN	520	0.830381623934954	2	1	NaN	3351792.4926344	NaN	3351793.4760017	3351793.99255158
102	18	0	0	90	36.1581920903955	36.241610738255	8	0.266687647998333	2	11	5	NaN	2	4	0.0884714403412524	0	1	NaN	25	1	25	2	120	220	320	NaN	520	0.0104136713780463	2	1	NaN	3351795.6429144	NaN	3351796.6263233	3351797.14286063
102	18	0	0	90	36.1581920903955	36.241610738255	0	0	1	11	5	NaN	2	4	0.0884714403412524	0	1	NaN	26	1	26	2	110	210	310	NaN	510	0.0103763760998845	2	1	NaN	3351797.9765044	NaN	3351798.9599278	3351799.47643252
102	18	0	0	90	36.1581920903955	36.241610738255	13	0.433367427997291	2	12	5	NaN	2	3	0.0884714403412524	0	1	NaN	27	1	27	2	120	220	320	NaN	520	0.01280602440238	2	1	NaN	3351800.3100435	NaN	3351801.2934469	3351801.80999598
102	18	0	0	90	36.1581920903955	36.241610738255	21	0.700055075995624	2	2	6	NaN	1	5	0.0884714403412524	0	1	NaN	28	1	28	2	120	220	320	NaN	520	0.423146924003959	2	0	NaN	3351802.6436057	NaN	3351803.6270051	3351804.14355188
102	18	0	0	90	36.1581920903955	36.241610738255	21	0.700055075995624	2	8	5	NaN	2	5	0.0884714403412524	0	1	NaN	29	1	29	2	120	220	320	NaN	520	0.11371492408216	2	1	NaN	3351805.3772193	NaN	3351806.3606035	3351806.87715998
102	18	0	0	90	36.1581920903955	36.241610738255	23	0.766726987995207	2	10	6	NaN	2	4	0.0884714403412524	0	1	NaN	30	1	30	2	120	220	320	NaN	520	0.0104124713689089	2	1	NaN	3351807.810779	NaN	3351808.7941584	3351809.31072723
102	18	0	0	90	36.1581920903955	36.241610738255	11	0.366695515997708	2	8	3	NaN	2	3	0.0884714403412524	0	1	NaN	31	1	31	2	120	220	320	NaN	520	0.0104063241742551	2	1	NaN	3351810.1443367	NaN	3351811.1277289	3351811.64429698
102	18	0	0	90	36.1581920903955	36.241610738255	19	0.633383163996041	2	12	4	NaN	2	3	0.0884714403412524	0	1	NaN	32	1	32	2	120	220	320	NaN	520	0.0104268193244934	2	1	NaN	3351812.4777799	NaN	3351813.4612939	3351813.97784858
102	18	0	0	90	36.1581920903955	36.241610738255	10	0.333359559997916	2	2	1	NaN	1	5	0.0884714403412524	0	1	NaN	33	1	33	2	120	220	320	NaN	520	0.0103954239748418	1	1	NaN	3351814.8114492	NaN	3351815.7948751	3351816.31141498
102	18	0	0	90	36.1581920903955	36.241610738255	11	0.366695515997708	2	3	5	NaN	1	5	0.0884714403412524	0	1	NaN	34	1	34	2	120	220	320	NaN	520	0.0102485474199057	1	1	NaN	3351817.1450368	NaN	3351818.1283282	3351818.64499425
102	18	0	0	90	36.1581920903955	36.241610738255	10	0.333359559997916	2	8	6	NaN	2	4	0.0884714403412524	0	1	NaN	35	1	35	2	120	220	320	NaN	520	0.0103994240052998	2	1	NaN	3351819.4785869	NaN	3351820.4619867	3351820.97854398
102	18	0	0	90	36.1581920903955	36.241610738255	15	0.500039339996874	2	10	5	NaN	2	4	0.0884714403412524	0	1	NaN	36	1	36	2	120	220	320	NaN	520	0.462498171720654	1	0	NaN	3351821.812255	NaN	3351822.7955493	3351823.31210223
102	18	0	0	90	36.1581920903955	36.241610738255	22	0.733391031995416	2	10	1	NaN	2	5	0.0884714403412524	0	1	NaN	37	1	37	2	120	220	320	NaN	520	0.0104296240024269	2	1	NaN	3351824.5957936	NaN	3351825.5791611	3351826.09570568
102	18	0	0	90	36.1581920903955	36.241610738255	22	0.733391031995416	2	7	6	NaN	2	5	0.0884714403412524	0	1	NaN	38	1	38	2	120	220	320	NaN	520	0.0104128713719547	1	0	NaN	3351826.929325	NaN	3351827.9127562	3351828.42927403
102	18	0	0	90	36.1581920903955	36.241610738255	0	0	1	8	5	NaN	2	3	0.0884714403412524	0	1	NaN	39	1	39	2	110	210	310	NaN	510	0.268848685547709	2	1	NaN	3351829.2462121	NaN	3351830.2296089	3351830.74617381
102	18	0	0	90	36.1581920903955	36.241610738255	24	0.800062943994999	2	5	3	NaN	1	3	0.0884714403412524	0	1	NaN	40	1	40	2	120	220	320	NaN	520	0.269088271539658	1	1	NaN	3351831.8298006	NaN	3351832.8132045	3351833.32975453
102	18	0	0	90	36.1581920903955	36.241610738255	11	0.366695515997708	2	11	5	NaN	2	4	0.0884714403412524	0	1	NaN	41	1	41	2	120	220	320	NaN	520	0.73219527117908	2	1	NaN	3351834.6466406	NaN	3351835.6301629	3351836.14669113
102	18	0	0	90	36.1581920903955	36.241610738255	25	0.833398899994791	2	7	5	NaN	2	3	0.0884714403412524	0	1	NaN	42	1	42	2	120	220	320	NaN	520	0.0104199289344251	2	1	NaN	3351837.6970413	NaN	3351838.6804481	3351839.19699317
102	18	0	0	90	36.1581920903955	36.241610738255	9	0.300023603998125	2	1	5	NaN	1	5	0.0884714403412524	0	1	NaN	43	1	43	2	120	220	320	NaN	520	0.0103945238515735	2	0	NaN	3351840.030515	NaN	3351841.0140139	3351841.53056378
102	18	0	0	90	36.1581920903955	36.241610738255	7	0.233351691998541	2	7	2	NaN	2	4	0.0884714403412524	0	1	NaN	44	1	44	2	120	220	320	NaN	520	0.100663019344211	2	1	NaN	3351842.4142002	NaN	3351843.3975763	3351843.91411808
102	18	0	0	90	36.1581920903955	36.241610738255	22	0.733391031995416	2	4	4	NaN	1	4	0.0884714403412524	0	1	NaN	45	1	45	2	120	220	320	NaN	520	0.010401323903352	1	1	NaN	3351844.8310829	NaN	3351845.8145089	3351846.33102778
102	18	0	0	90	36.1581920903955	36.241610738255	11	0.366695515997708	2	6	2	NaN	1	4	0.0884714403412524	0	1	NaN	46	1	46	2	120	220	320	NaN	520	3.96668757125735	1	1	NaN	3351847.1479758	NaN	3351848.1313663	3351848.64792673
102	18	0	0	90	36.1581920903955	36.241610738255	8	0.266687647998333	2	1	1	NaN	1	5	0.0884714403412524	0	1	NaN	47	1	47	2	120	220	320	NaN	520	0.0103958239778876	1	1	NaN	3351853.4319285	NaN	3351854.4153303	3351854.93188268
102	18	0	0	90	36.1581920903955	36.241610738255	24	0.800062943994999	2	6	1	NaN	1	4	0.0884714403412524	0	1	NaN	48	1	48	2	120	220	320	NaN	520	1.53314412385225	1	1	NaN	3351855.7654872	NaN	3351856.7488878	3351857.26543448
102	18	0	0	90	36.1581920903955	36.241610738255	14	0.466703383997083	2	9	3	NaN	2	4	0.0884714403412524	0	1	NaN	49	1	49	2	120	220	320	NaN	520	0.0103915240615606	2	1	NaN	3351859.6158814	NaN	3351860.5992625	3351861.11582188
102	18	0	0	90	36.1581920903955	36.241610738255	25	0.833398899994791	2	5	6	NaN	1	3	0.0884714403412524	0	1	NaN	50	1	50	2	120	220	320	NaN	520	0.118172123562545	1	1	NaN	3351861.9327659	NaN	3351862.9161441	3351863.43270888
102	18	0	0	90	36.1581920903955	36.241610738255	10	0.333359559997916	2	11	2	NaN	2	5	0.0884714403412524	0	1	NaN	51	1	51	2	120	220	320	NaN	520	0.0103932241909206	2	1	NaN	3351864.3664077	NaN	3351865.3497388	3351865.86628598
102	18	0	0	90	36.1581920903955	36.241610738255	12	0.400031471997499	2	2	3	NaN	1	5	0.0884714403412524	0	1	NaN	52	1	52	2	120	220	320	NaN	520	0.134846571367234	1	1	NaN	3351866.699993	NaN	3351867.6832901	3351868.19984843
102	18	0	0	90	36.1581920903955	36.241610738255	22	0.733391031995416	2	5	5	NaN	1	4	0.0884714403412524	0	1	NaN	53	1	53	2	120	220	320	NaN	520	0.14867302402854	1	1	NaN	3351869.1500133	NaN	3351870.1335413	3351870.65009318
102	18	0	0	90	36.1581920903955	36.241610738255	9	0.300023603998125	2	12	5	NaN	2	4	0.0884714403412524	0	1	NaN	54	1	54	2	120	220	320	NaN	520	0.0104093714617193	2	1	NaN	3351871.6170485	NaN	3351872.6004349	3351873.11699253
102	18	0	0	90	36.1581920903955	36.241610738255	0	0	1	9	3	NaN	2	4	0.0884714403412524	0	1	NaN	55	1	55	2	110	210	310	NaN	510	0.010411471594125	2	1	NaN	3351873.9339597	NaN	3351874.9173402	3351875.43389283
102	18	0	0	90	36.1581920903955	36.241610738255	6	0.20001573599875	2	8	5	NaN	2	5	0.0884714403412524	0	1	NaN	56	1	56	2	120	220	320	NaN	520	2.71216717176139	2	1	NaN	3351876.2508328	NaN	3351877.2342347	3351877.75078453
102	18	0	0	90	36.1581920903955	36.241610738255	18	0.600047207996249	2	4	5	NaN	1	3	0.0884714403412524	0	1	NaN	57	1	57	2	120	220	320	NaN	520	0.262125938199461	1	1	NaN	3351881.284661	NaN	3351882.2680633	3351882.78461816
102	18	0	0	90	36.1581920903955	36.241610738255	8	0.266687647998333	2	3	3	NaN	1	3	0.0884714403412524	0	1	NaN	58	1	58	2	120	220	320	NaN	520	0.0104075716808438	1	1	NaN	3351883.851578	NaN	3351884.8349848	3351885.35153163
102	18	0	0	90	36.1581920903955	36.241610738255	9	0.300023603998125	2	8	5	NaN	2	5	0.0884714403412524	0	1	NaN	59	1	59	2	120	220	320	NaN	520	1.13825024291873	2	1	NaN	3351886.1683469	NaN	3351887.1518776	3351887.66843616
102	18	0	0	90	36.1581920903955	36.241610738255	6	0.20001573599875	2	7	5	NaN	2	5	0.0884714403412524	0	1	NaN	60	1	60	2	120	220	320	NaN	520	0.0104224192909896	2	1	NaN	3351889.6188054	NaN	3351890.6022856	3351891.11876468
102	18	0	0	90	36.1581920903955	36.241610738255	22	0.733391031995416	2	4	4	NaN	1	5	0.0884714403412524	0	1	NaN	61	1	61	2	120	220	320	NaN	520	0.875113543123007	2	0	NaN	3351891.935722	NaN	3351892.9191042	3351893.43566906
102	18	0	0	90	36.1581920903955	36.241610738255	21	0.700055075995624	2	3	3	NaN	1	4	0.0884714403412524	0	1	NaN	62	1	62	2	120	220	320	NaN	520	0.0104136713780463	1	1	NaN	3351895.1193694	NaN	3351896.1027519	3351896.61930173
102	18	0	0	90	36.1581920903955	36.241610738255	18	0.600047207996249	2	5	2	NaN	1	3	0.0884714403412524	0	1	NaN	63	1	63	2	120	220	320	NaN	520	0.010397176258266	1	1	NaN	3351897.452928	NaN	3351898.4363172	3351898.95286722
102	18	0	0	90	36.1581920903955	36.241610738255	13	0.433367427997291	2	8	4	NaN	2	4	0.0884714403412524	0	1	NaN	64	2	1	2	120	220	320	NaN	520	0.669783523771912	1	0	NaN	3351918.0050417	NaN	3351918.9883354	3351919.50488758
102	18	0	0	90	36.1581920903955	36.241610738255	6	0.20001573599875	2	10	5	NaN	2	4	0.0884714403412524	0	1	NaN	65	2	2	2	120	220	320	NaN	520	0.982187919318676	2	1	NaN	3351920.988561	NaN	3351921.9719544	3351922.48850548
102	18	0	0	90	36.1581920903955	36.241610738255	15	0.500039339996874	2	12	4	NaN	2	3	0.0884714403412524	0	1	NaN	66	2	3	2	120	220	320	NaN	520	0.657883223611861	1	0	NaN	3351924.2888833	NaN	3351925.2722879	3351925.78883708
102	18	0	0	90	36.1581920903955	36.241610738255	15	0.500039339996874	2	9	6	NaN	2	3	0.0884714403412524	0	1	NaN	67	2	4	2	120	220	320	NaN	520	0.0104178716428578	2	1	NaN	3351927.2558487	NaN	3351928.2392411	3351928.75579543
102	18	0	0	90	36.1581920903955	36.241610738255	22	0.733391031995416	2	5	5	NaN	1	4	0.0884714403412524	0	1	NaN	68	2	5	2	120	220	320	NaN	520	0.142131824046373	1	1	NaN	3351929.5726072	NaN	3351930.5561555	3351931.07269468
102	18	0	0	90	36.1581920903955	36.241610738255	9	0.300023603998125	2	8	2	NaN	2	5	0.0884714403412524	0	1	NaN	69	2	6	2	120	220	320	NaN	520	1.20377007126808	2	1	NaN	3351932.0228628	NaN	3351933.0063773	3351933.52292793
102	18	0	0	90	36.1581920903955	36.241610738255	0	0	1	4	2	NaN	1	5	0.0884714403412524	0	1	NaN	70	2	7	2	110	210	310	NaN	510	4.34277692390606	2	0	NaN	3351935.5399843	NaN	3351936.5233923	3351937.03994368
102	18	0	0	90	36.1581920903955	36.241610738255	10	0.333359559997916	2	5	4	NaN	1	3	0.0884714403412524	0	1	NaN	71	2	8	2	120	220	320	NaN	520	0.804566023871303	1	1	NaN	3351942.1907403	NaN	3351943.1740309	3351943.69059308
102	18	0	0	90	36.1581920903955	36.241610738255	21	0.700055075995624	2	11	2	NaN	2	5	0.0884714403412524	0	1	NaN	72	2	9	2	120	220	320	NaN	520	0.0103876241482794	2	1	NaN	3351945.3076123	NaN	3351946.2910278	3351946.80756728
102	18	0	0	90	36.1581920903955	36.241610738255	11	0.366695515997708	2	2	1	NaN	1	3	0.0884714403412524	0	1	NaN	73	2	10	2	120	220	320	NaN	520	0.22629558108747	2	0	NaN	3351947.6245138	NaN	3351948.6079049	3351949.12446952
102	18	0	0	90	36.1581920903955	36.241610738255	13	0.433367427997291	2	1	4	NaN	1	3	0.0884714403412524	0	1	NaN	74	2	11	2	120	220	320	NaN	520	0.308670528698713	1	1	NaN	3351950.1580992	NaN	3351951.1415035	3351951.65804767
102	18	0	0	90	36.1581920903955	36.241610738255	13	0.433367427997291	2	3	3	NaN	1	3	0.0884714403412524	0	1	NaN	75	2	12	2	120	220	320	NaN	520	0.010434519033879	1	1	NaN	3351952.7750149	NaN	3351953.758485	3351954.27497258
102	18	0	0	90	36.1581920903955	36.241610738255	21	0.700055075995624	2	6	3	NaN	1	4	0.0884714403412524	0	1	NaN	76	2	13	2	120	220	320	NaN	520	0.0103929243050516	1	1	NaN	3351955.0919134	NaN	3351956.075303	3351956.59186988
102	18	0	0	90	36.1581920903955	36.241610738255	17	0.566711251996458	2	8	3	NaN	2	4	0.0884714403412524	0	1	NaN	77	2	14	2	120	220	320	NaN	520	0.0104116713628173	2	1	NaN	3351957.4254649	NaN	3351958.4088674	3351958.92542253
102	18	0	0	90	36.1581920903955	36.241610738255	17	0.566711251996458	2	6	2	NaN	1	4	0.0884714403412524	0	1	NaN	78	2	15	2	120	220	320	NaN	520	0.0104312710464001	1	1	NaN	3351959.7590384	NaN	3351960.7423397	3351961.25899153
102	18	0	0	90	36.1581920903955	36.241610738255	20	0.666719119995832	2	9	6	NaN	2	5	0.0884714403412524	0	1	NaN	79	2	16	2	120	220	320	NaN	520	0.0104159717448056	2	1	NaN	3351962.0759303	NaN	3351963.0593222	3351963.57587933
102	18	0	0	90	36.1581920903955	36.241610738255	8	0.266687647998333	2	9	1	NaN	2	4	0.0884714403412524	0	1	NaN	80	2	17	2	120	220	320	NaN	520	0.0580803761258721	2	1	NaN	3351964.392819	NaN	3351965.3762261	3351965.89278482
102	18	0	0	90	36.1581920903955	36.241610738255	19	0.633383163996041	2	10	2	NaN	2	5	0.0884714403412524	0	1	NaN	81	2	18	2	120	220	320	NaN	520	0.0104118715971708	2	1	NaN	3351966.7596485	NaN	3351967.743118	3351968.25968193
102	18	0	0	90	36.1581920903955	36.241610738255	25	0.833398899994791	2	9	3	NaN	2	3	0.0884714403412524	0	1	NaN	82	2	19	2	120	220	320	NaN	520	0.398513423744589	2	1	NaN	3351969.0765442	NaN	3351970.0600242	3351970.57657428
102	18	0	0	90	36.1581920903955	36.241610738255	21	0.700055075995624	2	12	3	NaN	2	4	0.0884714403412524	0	1	NaN	83	2	20	2	120	220	320	NaN	520	0.425384471192956	1	0	NaN	3351971.7935498	NaN	3351972.7769485	3351973.29349893
102	18	0	0	90	36.1581920903955	36.241610738255	9	0.300023603998125	2	11	2	NaN	2	4	0.0884714403412524	0	1	NaN	84	2	21	2	120	220	320	NaN	520	0.0103917238302529	2	1	NaN	3351974.5270306	NaN	3351975.510548	3351976.02710888
102	18	0	0	90	36.1581920903955	36.241610738255	20	0.666719119995832	2	11	6	NaN	2	5	0.0884714403412524	0	1	NaN	85	2	22	2	120	220	320	NaN	520	0.0104081709869206	2	1	NaN	3351976.860726	NaN	3351977.8441166	3351978.36066493
102	18	0	0	90	36.1581920903955	36.241610738255	7	0.233351691998541	2	9	4	NaN	2	4	0.0884714403412524	0	1	NaN	86	2	23	2	120	220	320	NaN	520	0.0103810764849186	2	1	NaN	3351979.177614	NaN	3351980.1610108	3351980.67755862
102	18	0	0	90	36.1581920903955	36.241610738255	8	0.266687647998333	2	4	3	NaN	1	5	0.0884714403412524	0	1	NaN	87	2	24	2	120	220	320	NaN	520	0.0103337331674993	1	1	NaN	3351981.494497	NaN	3351982.4779005	3351982.99446237
102	18	0	0	90	36.1581920903955	36.241610738255	7	0.233351691998541	2	1	2	NaN	1	4	0.0884714403412524	0	1	NaN	88	2	25	2	120	220	320	NaN	520	0.010397323872894	1	1	NaN	3351983.8280661	NaN	3351984.8114729	3351985.32802578
102	18	0	0	90	36.1581920903955	36.241610738255	21	0.700055075995624	2	2	3	NaN	1	3	0.0884714403412524	0	1	NaN	89	2	26	2	120	220	320	NaN	520	0.0104295192286372	1	1	NaN	3351986.1449225	NaN	3351987.1283581	3351987.64491728
102	18	0	0	90	36.1581920903955	36.241610738255	18	0.600047207996249	2	12	4	NaN	2	5	0.0884714403412524	0	1	NaN	90	2	27	2	120	220	320	NaN	520	0.0103443809784949	1	0	NaN	3351988.4618568	NaN	3351989.4452572	3351989.96181772
102	18	0	0	90	36.1581920903955	36.241610738255	7	0.233351691998541	2	2	6	NaN	1	3	0.0884714403412524	0	1	NaN	91	2	28	2	120	220	320	NaN	520	0.0103952242061496	1	1	NaN	3351990.7954262	NaN	3351991.7788564	3351992.29537128
102	18	0	0	90	36.1581920903955	36.241610738255	17	0.566711251996458	2	3	4	NaN	1	4	0.0884714403412524	0	1	NaN	92	2	29	2	120	220	320	NaN	520	1.34640507120639	2	0	NaN	3351993.1289806	NaN	3351994.1123904	3351994.62893253
102	18	0	0	90	36.1581920903955	36.241610738255	8	0.266687647998333	2	12	5	NaN	2	5	0.0884714403412524	0	1	NaN	93	2	30	2	120	220	320	NaN	520	0.0103917764499784	2	1	NaN	3351996.7960056	NaN	3351997.7793986	3351998.29596732
102	18	0	0	90	36.1581920903955	36.241610738255	21	0.700055075995624	2	7	6	NaN	2	5	0.0884714403412524	0	1	NaN	94	2	31	2	120	220	320	NaN	520	0.106211071368307	2	1	NaN	3351999.1129045	NaN	3352000.0963022	3352000.61284923
102	18	0	0	90	36.1581920903955	36.241610738255	9	0.300023603998125	2	11	3	NaN	2	4	0.0884714403412524	0	1	NaN	95	2	32	2	120	220	320	NaN	520	0.0104106715880334	2	1	NaN	3352001.5298062	NaN	3352002.5132024	3352003.02975623
102	18	0	0	90	36.1581920903955	36.241610738255	7	0.233351691998541	2	11	5	NaN	2	4	0.0884714403412524	0	1	NaN	96	2	33	2	120	220	320	NaN	520	0.0104022240266204	2	1	NaN	3352003.8466869	NaN	3352004.8301004	3352005.34665728
102	18	0	0	90	36.1581920903955	36.241610738255	13	0.433367427997291	2	5	5	NaN	1	4	0.0884714403412524	0	1	NaN	97	2	34	2	120	220	320	NaN	520	0.487337371334434	2	0	NaN	3352006.1636052	NaN	3352007.1469324	3352007.66354753
102	18	0	0	90	36.1581920903955	36.241610738255	16	0.533375295996666	2	12	6	NaN	2	4	0.0884714403412524	0	1	NaN	98	2	35	2	120	220	320	NaN	520	0.0951766236685216	2	1	NaN	3352008.9638758	NaN	3352009.9472833	3352010.46381978
102	18	0	0	90	36.1581920903955	36.241610738255	25	0.833398899994791	2	12	4	NaN	2	5	0.0884714403412524	0	1	NaN	99	2	36	2	120	220	320	NaN	520	0.270902019459754	2	1	NaN	3352011.3641162	NaN	3352012.3475078	3352012.86405768
102	18	0	0	90	36.1581920903955	36.241610738255	8	0.266687647998333	2	7	3	NaN	2	4	0.0884714403412524	0	1	NaN	100	2	37	2	120	220	320	NaN	520	0.0102869900874794	2	1	NaN	3352013.9476921	NaN	3352014.9310963	3352015.44764641
102	18	0	0	90	36.1581920903955	36.241610738255	16	0.533375295996666	2	10	2	NaN	2	4	0.0884714403412524	0	1	NaN	101	2	38	2	120	220	320	NaN	520	0.0104274190962315	2	1	NaN	3352016.2645801	NaN	3352017.2479848	3352017.76454148
102	18	0	0	90	36.1581920903955	36.241610738255	16	0.533375295996666	2	9	2	NaN	2	5	0.0884714403412524	0	1	NaN	102	2	39	2	120	220	320	NaN	520	0.0104208714328706	2	1	NaN	3352018.5814861	NaN	3352019.5648802	3352020.08143683
102	18	0	0	90	36.1581920903955	36.241610738255	16	0.533375295996666	2	3	2	NaN	1	3	0.0884714403412524	0	1	NaN	103	2	40	2	120	220	320	NaN	520	8.40897552389652	1	1	NaN	3352020.8983933	NaN	3352021.8817791	3352022.39832638
102	18	0	0	90	36.1581920903955	36.241610738255	11	0.366695515997708	2	5	4	NaN	1	4	0.0884714403412524	0	1	NaN	104	2	41	2	120	220	320	NaN	520	0.0703009567223489	1	1	NaN	3352032.7328919	NaN	3352033.7162905	3352034.23281344
102	18	0	0	90	36.1581920903955	36.241610738255	0	0	1	2	3	NaN	1	5	0.0884714403412524	0	1	NaN	105	2	42	2	110	210	310	NaN	510	1.07054697116837	1	1	NaN	3352035.1164449	NaN	3352036.0998341	3352036.61638823
102	18	0	0	90	36.1581920903955	36.241610738255	6	0.20001573599875	2	1	5	NaN	1	5	0.0884714403412524	0	1	NaN	106	2	43	2	120	220	320	NaN	520	0.333779023960233	1	1	NaN	3352039.3334897	NaN	3352040.3169231	3352040.83346928
102	18	0	0	90	36.1581920903955	36.241610738255	11	0.366695515997708	2	1	6	NaN	1	4	0.0884714403412524	0	1	NaN	107	2	44	2	120	220	320	NaN	520	0.163485471624881	2	0	NaN	3352041.9837859	NaN	3352042.967169	3352043.48373203
102	18	0	0	90	36.1581920903955	36.241610738255	11	0.366695515997708	2	7	6	NaN	2	4	0.0884714403412524	0	1	NaN	108	2	45	2	120	220	320	NaN	520	0.0104386666789651	2	1	NaN	3352044.4505646	NaN	3352045.4341134	3352045.95063663
102	18	0	0	90	36.1581920903955	36.241610738255	8	0.266687647998333	2	3	5	NaN	1	3	0.0884714403412524	0	1	NaN	109	2	46	2	120	220	320	NaN	520	0.0104203713126481	1	1	NaN	3352046.7842557	NaN	3352047.7676413	3352048.28420563
102	18	0	0	90	36.1581920903955	36.241610738255	8	0.266687647998333	2	12	2	NaN	2	5	0.0884714403412524	0	1	NaN	110	2	47	2	120	220	320	NaN	520	0.0104086711071432	2	1	NaN	3352049.101145	NaN	3352050.0845581	3352050.60109383
102	18	0	0	90	36.1581920903955	36.241610738255	12	0.400031471997499	2	6	6	NaN	1	5	0.0884714403412524	0	1	NaN	111	2	48	2	120	220	320	NaN	520	0.849149571731687	1	1	NaN	3352051.4179141	NaN	3352052.4014602	3352052.91799043
102	18	0	0	90	36.1581920903955	36.241610738255	14	0.466703383997083	2	5	3	NaN	1	5	0.0884714403412524	0	1	NaN	112	2	49	2	120	220	320	NaN	520	0.0103904241696	2	0	NaN	3352054.5848662	NaN	3352055.5684209	3352056.08497598
102	18	0	0	90	36.1581920903955	36.241610738255	14	0.466703383997083	2	9	2	NaN	2	5	0.0884714403412524	0	1	NaN	113	2	50	2	120	220	320	NaN	520	0.0104233715683222	2	1	NaN	3352056.9019022	NaN	3352057.8853142	3352058.40186043
102	18	0	0	90	36.1581920903955	36.241610738255	24	0.800062943994999	2	2	6	NaN	1	3	0.0884714403412524	0	1	NaN	114	2	51	2	120	220	320	NaN	520	0.0104050715453923	2	0	NaN	3352059.2188181	NaN	3352060.2022186	3352060.71876083
102	18	0	0	90	36.1581920903955	36.241610738255	12	0.400031471997499	2	10	3	NaN	2	5	0.0884714403412524	0	1	NaN	115	2	52	2	120	220	320	NaN	520	0.0104075712151825	2	1	NaN	3352061.5355697	NaN	3352062.5190973	3352063.03564913
102	18	0	0	90	36.1581920903955	36.241610738255	16	0.533375295996666	2	1	2	NaN	1	5	0.0884714403412524	0	1	NaN	116	2	53	2	120	220	320	NaN	520	0.0104110711254179	1	1	NaN	3352063.8692697	NaN	3352064.8526716	3352065.36920943
102	18	0	0	90	36.1581920903955	36.241610738255	8	0.266687647998333	2	10	4	NaN	2	3	0.0884714403412524	0	1	NaN	117	2	54	2	120	220	320	NaN	520	2.92064927145839	1	0	NaN	3352066.186155	NaN	3352067.1695592	3352067.68610883
102	18	0	0	90	36.1581920903955	36.241610738255	0	0	1	1	1	NaN	1	3	0.0884714403412524	0	1	NaN	118	2	55	2	110	210	310	NaN	510	0.967341976240277	1	1	NaN	3352071.4200168	NaN	3352072.4034063	3352072.91995442
102	18	0	0	90	36.1581920903955	36.241610738255	19	0.633383163996041	2	8	5	NaN	2	5	0.0884714403412524	0	1	NaN	119	2	56	2	120	220	320	NaN	520	0.0104072713293135	2	1	NaN	3352074.703754	NaN	3352075.6870721	3352076.20360973
102	18	0	0	90	36.1581920903955	36.241610738255	9	0.300023603998125	2	7	2	NaN	2	5	0.0884714403412524	0	1	NaN	120	2	57	2	120	220	320	NaN	520	0.0545214242301881	2	1	NaN	3352077.0205524	NaN	3352078.0039617	3352078.52051398
102	18	0	0	90	36.1581920903955	36.241610738255	10	0.333359559997916	2	7	5	NaN	2	3	0.0884714403412524	0	1	NaN	121	2	58	2	120	220	320	NaN	520	2.68775007128716	2	1	NaN	3352079.3873835	NaN	3352080.3708522	3352080.88740503
102	18	0	0	90	36.1581920903955	36.241610738255	0	0	1	7	2	NaN	2	4	0.0884714403412524	0	1	NaN	122	2	59	2	110	210	310	NaN	510	0.0103897238150239	2	1	NaN	3352084.3879489	NaN	3352085.3713545	3352085.88790058
102	18	0	0	90	36.1581920903955	36.241610738255	19	0.633383163996041	2	7	1	NaN	2	3	0.0884714403412524	0	1	NaN	123	2	60	2	120	220	320	NaN	520	0.0103795290924609	2	1	NaN	3352086.7048403	NaN	3352087.6882396	3352088.20480237
102	18	0	0	90	36.1581920903955	36.241610738255	21	0.700055075995624	2	9	4	NaN	2	3	0.0884714403412524	0	1	NaN	124	2	61	2	120	220	320	NaN	520	0.245374423917383	2	1	NaN	3352089.0217354	NaN	3352090.0051196	3352090.52168518
102	18	0	0	90	36.1581920903955	36.241610738255	24	0.800062943994999	2	12	1	NaN	2	5	0.0884714403412524	0	1	NaN	125	2	62	2	120	220	320	NaN	520	0.0104117714799941	2	1	NaN	3352091.588605	NaN	3352092.5720853	3352093.08860413
102	18	0	0	90	36.1581920903955	36.241610738255	0	0	1	6	4	NaN	1	4	0.0884714403412524	0	1	NaN	126	2	63	2	110	210	310	NaN	510	0.0104219713248312	1	1	NaN	3352093.9222133	NaN	3352094.905615	3352095.42216373
102	18	0	0	90	36.1581920903955	36.241610738255	14	0.466703383997083	2	2	4	NaN	1	5	0.0884714403412524	0	1	NaN	127	3	1	2	120	220	320	NaN	520	2.29427882423624	2	0	NaN	3352102.5730434	NaN	3352103.556461	3352104.07302248
102	18	0	0	90	36.1581920903955	36.241610738255	19	0.633383163996041	2	3	6	NaN	1	4	0.0884714403412524	0	1	NaN	128	3	2	2	120	220	320	NaN	520	0.0856108283624053	2	0	NaN	3352107.1735111	NaN	3352108.156914	3352108.67347477
102	18	0	0	90	36.1581920903955	36.241610738255	15	0.500039339996874	2	6	6	NaN	1	4	0.0884714403412524	0	1	NaN	129	3	3	2	120	220	320	NaN	520	1.56539252400398	1	1	NaN	3352109.5737542	NaN	3352110.5571872	3352111.07370758
102	18	0	0	90	36.1581920903955	36.241610738255	24	0.800062943994999	2	11	1	NaN	2	4	0.0884714403412524	0	1	NaN	130	3	4	2	120	220	320	NaN	520	0.0104206716641784	2	1	NaN	3352113.457549	NaN	3352114.4408729	3352114.95741783
102	18	0	0	90	36.1581920903955	36.241610738255	15	0.500039339996874	2	1	1	NaN	1	3	0.0884714403412524	0	1	NaN	131	3	5	2	120	220	320	NaN	520	0.0104095712304115	1	1	NaN	3352115.7743698	NaN	3352116.757772	3352117.27431683
102	18	0	0	90	36.1581920903955	36.241610738255	10	0.333359559997916	2	4	1	NaN	1	5	0.0884714403412524	0	1	NaN	132	3	6	2	120	220	320	NaN	520	0.0526222717016935	1	1	NaN	3352118.1745957	NaN	3352119.1579985	3352119.67454873
102	18	0	0	90	36.1581920903955	36.241610738255	23	0.766726987995207	2	4	5	NaN	1	4	0.0884714403412524	0	1	NaN	133	3	7	2	120	220	320	NaN	520	0.0103939240798354	1	1	NaN	3352120.5415174	NaN	3352121.5249277	3352122.04145768
102	18	0	0	90	36.1581920903955	36.241610738255	14	0.466703383997083	2	7	1	NaN	2	3	0.0884714403412524	0	1	NaN	134	3	8	2	120	220	320	NaN	520	0.0104152713902295	2	1	NaN	3352122.858396	NaN	3352123.8418021	3352124.35834433
102	18	0	0	90	36.1581920903955	36.241610738255	0	0	1	4	6	NaN	1	3	0.0884714403412524	0	1	NaN	135	3	9	2	110	210	310	NaN	510	0.010392424184829	1	1	NaN	3352125.1919687	NaN	3352126.1753627	3352126.69191198
102	18	0	0	90	36.1581920903955	36.241610738255	7	0.233351691998541	2	4	3	NaN	1	5	0.0884714403412524	0	1	NaN	136	3	10	2	120	220	320	NaN	520	0.0104161715134978	1	1	NaN	3352127.5255208	NaN	3352128.508903	3352129.02546633
102	18	0	0	90	36.1581920903955	36.241610738255	22	0.733391031995416	2	11	6	NaN	2	5	0.0884714403412524	0	1	NaN	137	3	11	2	120	220	320	NaN	520	0.81700652372092	2	1	NaN	3352129.8424014	NaN	3352130.8258181	3352131.34236098
102	18	0	0	90	36.1581920903955	36.241610738255	10	0.333359559997916	2	2	4	NaN	1	5	0.0884714403412524	0	1	NaN	138	3	12	2	120	220	320	NaN	520	0.48868762422353	1	1	NaN	3352133.4427506	NaN	3352134.4261797	3352134.94271878
102	18	0	0	90	36.1581920903955	36.241610738255	19	0.633383163996041	2	8	2	NaN	2	4	0.0884714403412524	0	1	NaN	139	3	13	2	120	220	320	NaN	520	0.0103973243385553	2	1	NaN	3352136.7764007	NaN	3352137.7598347	3352138.27638468
102	18	0	0	90	36.1581920903955	36.241610738255	17	0.566711251996458	2	12	2	NaN	2	3	0.0884714403412524	0	1	NaN	140	3	14	2	120	220	320	NaN	520	0.0104124713689089	2	1	NaN	3352139.0933387	NaN	3352140.0767149	3352140.59327043
102	18	0	0	90	36.1581920903955	36.241610738255	12	0.400031471997499	2	9	5	NaN	2	4	0.0884714403412524	0	1	NaN	141	3	15	2	120	220	320	NaN	520	0.010433619376272	2	1	NaN	3352141.4102222	NaN	3352142.393611	3352142.91016148
102	18	0	0	90	36.1581920903955	36.241610738255	15	0.500039339996874	2	6	1	NaN	1	4	0.0884714403412524	0	1	NaN	142	3	16	2	120	220	320	NaN	520	0.0104069714434445	1	1	NaN	3352143.7437761	NaN	3352144.7271765	3352145.24374193
102	18	0	0	90	36.1581920903955	36.241610738255	0	0	1	10	1	NaN	2	5	0.0884714403412524	0	1	NaN	143	3	17	2	110	210	310	NaN	510	0.010422071442008	2	1	NaN	3352146.0606215	NaN	3352147.0440695	3352147.56061653
102	18	0	0	90	36.1581920903955	36.241610738255	15	0.500039339996874	2	9	1	NaN	2	5	0.0884714403412524	0	1	NaN	144	3	18	2	120	220	320	NaN	520	0.0104099716991186	2	1	NaN	3352148.4775802	NaN	3352149.4609658	3352149.97752673
102	18	0	0	90	36.1581920903955	36.241610738255	12	0.400031471997499	2	12	6	NaN	2	5	0.0884714403412524	0	1	NaN	145	3	19	2	120	220	320	NaN	520	0.0104036713019013	2	1	NaN	3352150.8111479	NaN	3352151.7945498	3352152.31108403
102	18	0	0	90	36.1581920903955	36.241610738255	25	0.833398899994791	2	4	2	NaN	1	4	0.0884714403412524	0	1	NaN	146	3	20	2	120	220	320	NaN	520	1.61882687127218	1	1	NaN	3352153.1447052	NaN	3352154.1280763	3352154.64465323
102	18	0	0	90	36.1581920903955	36.241610738255	12	0.400031471997499	2	12	1	NaN	2	5	0.0884714403412524	0	1	NaN	147	3	21	2	120	220	320	NaN	520	0.669043919071555	2	1	NaN	3352157.0784169	NaN	3352158.0618298	3352158.57836668
102	18	0	0	90	36.1581920903955	36.241610738255	0	0	1	3	5	NaN	1	3	0.0884714403412524	0	1	NaN	148	3	22	2	110	210	310	NaN	510	0.0103921238332987	1	1	NaN	3352160.0620439	NaN	3352161.0455084	3352161.56200578
102	18	0	0	90	36.1581920903955	36.241610738255	24	0.800062943994999	2	10	1	NaN	2	4	0.0884714403412524	0	1	NaN	149	3	23	2	120	220	320	NaN	520	0.808375819120556	2	1	NaN	3352162.378867	NaN	3352163.3623539	3352163.87889008
102	18	0	0	90	36.1581920903955	36.241610738255	13	0.433367427997291	2	3	2	NaN	1	4	0.0884714403412524	0	1	NaN	150	3	24	2	120	220	320	NaN	520	0.0194161711260676	1	1	NaN	3352165.4959342	NaN	3352166.479316	3352166.99586223
102	18	0	0	90	36.1581920903955	36.241610738255	21	0.700055075995624	2	12	1	NaN	2	5	0.0884714403412524	0	1	NaN	151	3	25	2	120	220	320	NaN	520	2.19753572391346	1	0	NaN	3352167.8295052	NaN	3352168.8129016	3352169.32943358
102	18	0	0	90	36.1581920903955	36.241610738255	23	0.766726987995207	2	12	2	NaN	2	3	0.0884714403412524	0	1	NaN	152	3	26	2	120	220	320	NaN	520	0.0104115712456405	2	1	NaN	3352172.3465942	NaN	3352173.3299733	3352173.84653413
102	18	0	0	90	36.1581920903955	36.241610738255	18	0.600047207996249	2	10	2	NaN	2	3	0.0884714403412524	0	1	NaN	153	3	27	2	120	220	320	NaN	520	0.0103884236887097	1	0	NaN	3352174.6801434	NaN	3352175.6635626	3352176.18010388
102	18	0	0	90	36.1581920903955	36.241610738255	14	0.466703383997083	2	1	2	NaN	1	3	0.0884714403412524	0	1	NaN	154	3	28	2	120	220	320	NaN	520	0.0104089714586735	1	1	NaN	3352176.9971419	NaN	3352177.9804423	3352178.49699273
102	18	0	0	90	36.1581920903955	36.241610738255	23	0.766726987995207	2	5	6	NaN	1	4	0.0884714403412524	0	1	NaN	155	3	29	2	120	220	320	NaN	520	0.952542023733258	1	1	NaN	3352179.3306088	NaN	3352180.3140221	3352180.83056538
102	18	0	0	90	36.1581920903955	36.241610738255	15	0.500039339996874	2	2	5	NaN	1	3	0.0884714403412524	0	1	NaN	156	3	30	2	120	220	320	NaN	520	0.0104069714434445	1	1	NaN	3352183.0476111	NaN	3352184.0310398	3352184.54759243
102	18	0	0	90	36.1581920903955	36.241610738255	18	0.600047207996249	2	3	2	NaN	1	3	0.0884714403412524	0	1	NaN	157	3	31	2	120	220	320	NaN	520	0.0104242195375264	1	1	NaN	3352185.4812191	NaN	3352186.4646116	3352186.98116488
102	18	0	0	90	36.1581920903955	36.241610738255	17	0.566711251996458	2	5	1	NaN	1	3	0.0884714403412524	0	1	NaN	158	3	32	2	120	220	320	NaN	520	0.288611471187323	2	0	NaN	3352188.3146944	NaN	3352189.2982181	3352189.81476903
102	18	0	0	90	36.1581920903955	36.241610738255	9	0.300023603998125	2	9	1	NaN	2	4	0.0884714403412524	0	1	NaN	159	3	33	2	120	220	320	NaN	520	1.54106837138534	2	1	NaN	3352191.19841	NaN	3352192.1818424	3352192.69838393
102	18	0	0	90	36.1581920903955	36.241610738255	8	0.266687647998333	2	8	1	NaN	2	5	0.0884714403412524	0	1	NaN	160	3	34	2	120	220	320	NaN	520	0.0102968905121088	2	1	NaN	3352195.0488168	NaN	3352196.0322152	3352196.54877741
102	18	0	0	90	36.1581920903955	36.241610738255	16	0.533375295996666	2	1	6	NaN	1	4	0.0884714403412524	0	1	NaN	161	3	35	2	120	220	320	NaN	520	0.0104052238166332	1	1	NaN	3352197.365722	NaN	3352198.3491204	3352198.86567038
102	18	0	0	90	36.1581920903955	36.241610738255	25	0.833398899994791	2	3	4	NaN	1	3	0.0884714403412524	0	1	NaN	162	3	36	2	120	220	320	NaN	520	0.0103971241042018	1	1	NaN	3352199.6992782	NaN	3352200.6826677	3352201.19922588
102	18	0	0	90	36.1581920903955	36.241610738255	6	0.20001573599875	2	5	3	NaN	1	3	0.0884714403412524	0	1	NaN	163	3	37	2	120	220	320	NaN	520	0.0104043241590261	2	0	NaN	3352202.0161747	NaN	3352202.999566	3352203.51612808
102	18	0	0	90	36.1581920903955	36.241610738255	17	0.566711251996458	2	10	5	NaN	2	5	0.0884714403412524	0	1	NaN	164	3	38	2	120	220	320	NaN	520	1.53436941886321	1	0	NaN	3352204.3330808	NaN	3352205.3164632	3352205.83300748
102	18	0	0	90	36.1581920903955	36.241610738255	9	0.300023603998125	2	1	1	NaN	1	4	0.0884714403412524	0	1	NaN	165	3	39	2	120	220	320	NaN	520	0.779828171711415	1	1	NaN	3352208.1834483	NaN	3352209.1668486	3352209.68340643
102	18	0	0	90	36.1581920903955	36.241610738255	15	0.500039339996874	2	3	3	NaN	1	4	0.0884714403412524	0	1	NaN	166	3	40	2	120	220	320	NaN	520	0.010391476098448	1	1	NaN	3352211.2836042	NaN	3352212.2671399	3352212.78369682
102	18	0	0	90	36.1581920903955	36.241610738255	15	0.500039339996874	2	11	1	NaN	2	4	0.0884714403412524	0	1	NaN	167	3	41	2	120	220	320	NaN	520	0.826486323960125	2	1	NaN	3352213.6006422	NaN	3352214.5840359	3352215.10059388
102	18	0	0	90	36.1581920903955	36.241610738255	11	0.366695515997708	2	10	6	NaN	2	5	0.0884714403412524	0	1	NaN	168	3	42	2	120	220	320	NaN	520	0.0203142715618014	2	1	NaN	3352216.7509525	NaN	3352217.7343568	3352218.25089953
102	18	0	0	90	36.1581920903955	36.241610738255	10	0.333359559997916	2	5	6	NaN	1	4	0.0884714403412524	0	1	NaN	169	3	43	2	120	220	320	NaN	520	1.49903887137771	1	1	NaN	3352219.1844059	NaN	3352220.1679234	3352220.68446723
102	18	0	0	90	36.1581920903955	36.241610738255	15	0.500039339996874	2	4	4	NaN	1	3	0.0884714403412524	0	1	NaN	170	3	44	2	120	220	320	NaN	520	0.441827219445258	1	1	NaN	3352223.0015699	NaN	3352223.9849615	3352224.50151178
102	18	0	0	90	36.1581920903955	36.241610738255	11	0.366695515997708	2	3	1	NaN	1	5	0.0884714403412524	0	1	NaN	171	3	45	2	120	220	320	NaN	520	0.410602171439677	1	1	NaN	3352225.9684221	NaN	3352226.9519069	3352227.46846553
102	18	0	0	90	36.1581920903955	36.241610738255	25	0.833398899994791	2	11	5	NaN	2	3	0.0884714403412524	0	1	NaN	172	3	46	2	120	220	320	NaN	520	0.581890471279621	2	1	NaN	3352228.6854676	NaN	3352229.6688506	3352230.18540353
102	18	0	0	90	36.1581920903955	36.241610738255	12	0.400031471997499	2	4	1	NaN	1	4	0.0884714403412524	0	1	NaN	173	3	47	2	120	220	320	NaN	520	0.0103941238485277	1	1	NaN	3352231.5857411	NaN	3352232.5691466	3352233.08569768
102	18	0	0	90	36.1581920903955	36.241610738255	18	0.600047207996249	2	1	4	NaN	1	4	0.0884714403412524	0	1	NaN	174	3	48	2	120	220	320	NaN	520	1.27694287104532	2	0	NaN	3352233.9026494	NaN	3352234.8860303	3352235.40258233
102	18	0	0	90	36.1581920903955	36.241610738255	20	0.666719119995832	2	3	5	NaN	1	3	0.0884714403412524	0	1	NaN	175	3	49	2	120	220	320	NaN	520	0.0104215717874467	1	1	NaN	3352237.4862132	NaN	3352238.4697253	3352238.98627343
102	18	0	0	90	36.1581920903955	36.241610738255	25	0.833398899994791	2	4	2	NaN	1	4	0.0884714403412524	0	1	NaN	176	3	50	2	120	220	320	NaN	520	0.176408723928034	1	1	NaN	3352239.8032262	NaN	3352240.7866159	3352241.30316318
102	18	0	0	90	36.1581920903955	36.241610738255	9	0.300023603998125	2	5	2	NaN	1	4	0.0884714403412524	0	1	NaN	177	3	51	2	120	220	320	NaN	520	0.0104065714403987	1	1	NaN	3352242.2866616	NaN	3352243.2701857	3352243.78674983
102	18	0	0	90	36.1581920903955	36.241610738255	7	0.233351691998541	2	5	1	NaN	1	3	0.0884714403412524	0	1	NaN	178	3	52	2	120	220	320	NaN	520	0.0158043713308871	1	1	NaN	3352244.6036923	NaN	3352245.587082	3352246.10363633
102	18	0	0	90	36.1581920903955	36.241610738255	16	0.533375295996666	2	11	4	NaN	2	4	0.0884714403412524	0	1	NaN	179	3	53	2	120	220	320	NaN	520	0.483863424044102	2	1	NaN	3352247.2871643	NaN	3352248.27068	3352248.78723848
102	18	0	0	90	36.1581920903955	36.241610738255	9	0.300023603998125	2	6	2	NaN	1	3	0.0884714403412524	0	1	NaN	180	3	54	2	120	220	320	NaN	520	0.0104114711284637	1	1	NaN	3352250.0875554	NaN	3352251.0709485	3352251.58750643
102	18	0	0	90	36.1581920903955	36.241610738255	17	0.566711251996458	2	12	5	NaN	2	4	0.0884714403412524	0	1	NaN	181	3	55	2	120	220	320	NaN	520	0.010279443114996	2	1	NaN	3352252.404445	NaN	3352253.3878583	3352253.90441386
102	18	0	0	90	36.1581920903955	36.241610738255	15	0.500039339996874	2	5	1	NaN	1	5	0.0884714403412524	0	1	NaN	182	3	56	2	120	220	320	NaN	520	0.0104110715910792	2	0	NaN	3352254.7380178	NaN	3352255.7214282	3352256.23796003
102	18	0	0	90	36.1581920903955	36.241610738255	6	0.20001573599875	2	1	6	NaN	1	5	0.0884714403412524	0	1	NaN	183	3	57	2	120	220	320	NaN	520	0.300603824201971	1	1	NaN	3352257.0548997	NaN	3352258.0383065	3352258.55486608
102	18	0	0	90	36.1581920903955	36.241610738255	20	0.666719119995832	2	2	3	NaN	1	5	0.0884714403412524	0	1	NaN	184	3	58	2	120	220	320	NaN	520	0.0162908239290118	2	0	NaN	3352259.7550452	NaN	3352260.7385748	3352261.25512988
102	18	0	0	90	36.1581920903955	36.241610738255	18	0.600047207996249	2	11	5	NaN	2	4	0.0884714403412524	0	1	NaN	185	3	59	2	120	220	320	NaN	520	0.0103880241513252	2	1	NaN	3352262.0886177	NaN	3352263.0721512	3352263.58869428
102	18	0	0	90	36.1581920903955	36.241610738255	22	0.733391031995416	2	10	4	NaN	2	5	0.0884714403412524	0	1	NaN	186	3	60	2	120	220	320	NaN	520	0.0104069714434445	2	1	NaN	3352264.4057252	NaN	3352265.38903	3352265.90557933
102	18	0	0	90	36.1581920903955	36.241610738255	7	0.233351691998541	2	10	2	NaN	2	3	0.0884714403412524	0	1	NaN	187	3	61	2	120	220	320	NaN	520	0.232788795605302	2	1	NaN	3352266.7225099	NaN	3352267.7059602	3352268.2224883
102	18	0	0	90	36.1581920903955	36.241610738255	13	0.433367427997291	2	1	6	NaN	1	3	0.0884714403412524	0	1	NaN	188	3	62	2	120	220	320	NaN	520	0.866530171595514	2	0	NaN	3352269.2727753	NaN	3352270.2561716	3352270.77272343
102	18	0	0	90	36.1581920903955	36.241610738255	20	0.666719119995832	2	10	6	NaN	2	5	0.0884714403412524	0	1	NaN	189	3	63	2	120	220	320	NaN	520	0.71525602415204	2	1	NaN	3352272.4564513	NaN	3352273.439834	3352273.95637938
102	18	0	0	90	36.1581920903955	36.241610738255	11	0.366695515997708	2	4	2	NaN	1	4	0.0884714403412524	0	1	NaN	190	4	1	2	120	220	320	NaN	520	0.0768897240050137	1	1	NaN	3352280.5905437	NaN	3352281.573974	3352282.09050268
102	18	0	0	90	36.1581920903955	36.241610738255	15	0.500039339996874	2	8	5	NaN	2	4	0.0884714403412524	0	1	NaN	191	4	2	2	120	220	320	NaN	520	0.60508866654709	2	1	NaN	3352282.97412	NaN	3352283.9575192	3352284.47407673
102	18	0	0	90	36.1581920903955	36.241610738255	16	0.533375295996666	2	5	5	NaN	1	3	0.0884714403412524	0	1	NaN	192	4	3	2	120	220	320	NaN	520	0.0242619239725173	2	0	NaN	3352285.8910601	NaN	3352286.8744834	3352287.39103188
102	18	0	0	90	36.1581920903955	36.241610738255	14	0.466703383997083	2	3	2	NaN	1	3	0.0884714403412524	0	1	NaN	193	4	4	2	120	220	320	NaN	520	0.0104120713658631	1	1	NaN	3352288.2246223	NaN	3352289.2080391	3352289.72459263
102	18	0	0	90	36.1581920903955	36.241610738255	7	0.233351691998541	2	11	4	NaN	2	3	0.0884714403412524	0	1	NaN	194	4	5	2	120	220	320	NaN	520	0.574088124092668	2	1	NaN	3352290.541533	NaN	3352291.524947	3352292.04148838
102	18	0	0	90	36.1581920903955	36.241610738255	15	0.500039339996874	2	7	2	NaN	2	3	0.0884714403412524	0	1	NaN	195	4	6	2	120	220	320	NaN	520	0.130549071356654	1	0	NaN	3352293.4251409	NaN	3352294.4085407	3352294.92509663
102	18	0	0	90	36.1581920903955	36.241610738255	20	0.666719119995832	2	9	4	NaN	2	3	0.0884714403412524	0	1	NaN	196	4	7	2	120	220	320	NaN	520	2.44006457133219	2	1	NaN	3352295.8753708	NaN	3352296.8587813	3352297.37533953
102	18	0	0	90	36.1581920903955	36.241610738255	18	0.600047207996249	2	6	4	NaN	1	5	0.0884714403412524	0	1	NaN	197	4	8	2	120	220	320	NaN	520	0.929415371734649	1	1	NaN	3352300.6257167	NaN	3352301.6093053	3352302.12580563
102	18	0	0	90	36.1581920903955	36.241610738255	13	0.433367427997291	2	7	4	NaN	2	5	0.0884714403412524	0	1	NaN	198	4	9	2	120	220	320	NaN	520	0.821753623895347	2	1	NaN	3352304.1095808	NaN	3352305.0929303	3352305.60948328
102	18	0	0	90	36.1581920903955	36.241610738255	21	0.700055075995624	2	5	2	NaN	1	5	0.0884714403412524	0	1	NaN	199	4	10	2	120	220	320	NaN	520	0.0104037714190781	1	1	NaN	3352307.2431759	NaN	3352308.2265737	3352308.74312203
102	18	0	0	90	36.1581920903955	36.241610738255	7	0.233351691998541	2	9	3	NaN	2	3	0.0884714403412524	0	1	NaN	200	4	11	2	120	220	320	NaN	520	0.0103939240798354	1	0	NaN	3352309.5767918	NaN	3352310.5601402	3352311.07668448
102	18	0	0	90	36.1581920903955	36.241610738255	20	0.666719119995832	2	3	1	NaN	1	3	0.0884714403412524	0	1	NaN	201	4	12	2	120	220	320	NaN	520	0.010330633725971	2	0	NaN	3352311.8935425	NaN	3352312.8770177	3352313.39357517
102	18	0	0	90	36.1581920903955	36.241610738255	13	0.433367427997291	2	12	3	NaN	2	5	0.0884714403412524	0	1	NaN	202	4	13	2	120	220	320	NaN	520	0.0103940237313509	2	1	NaN	3352314.4938575	NaN	3352315.4772858	3352315.99384018
102	18	0	0	90	36.1581920903955	36.241610738255	12	0.400031471997499	2	5	2	NaN	1	3	0.0884714403412524	0	1	NaN	203	4	14	2	120	220	320	NaN	520	0.0104211713187397	1	1	NaN	3352316.8274553	NaN	3352317.8108424	3352318.32739673
102	18	0	0	90	36.1581920903955	36.241610738255	8	0.266687647998333	2	6	5	NaN	1	4	0.0884714403412524	0	1	NaN	204	4	15	2	120	220	320	NaN	520	0.0103815761394799	1	1	NaN	3352319.1443319	NaN	3352320.1277824	3352320.64429172
102	18	0	0	90	36.1581920903955	36.241610738255	9	0.300023603998125	2	2	4	NaN	1	5	0.0884714403412524	0	1	NaN	205	4	16	2	120	220	320	NaN	520	0.0104053714312613	2	0	NaN	3352321.4779024	NaN	3352322.4612959	3352322.97785083
102	18	0	0	90	36.1581920903955	36.241610738255	10	0.333359559997916	2	12	1	NaN	2	5	0.0884714403412524	0	1	NaN	206	4	17	2	120	220	320	NaN	520	1.7198821711354	2	1	NaN	3352323.8114539	NaN	3352324.7948633	3352325.31141063
102	18	0	0	90	36.1581920903955	36.241610738255	19	0.633383163996041	2	4	1	NaN	1	4	0.0884714403412524	0	1	NaN	207	4	18	2	120	220	320	NaN	520	0.71021852362901	1	1	NaN	3352327.8451851	NaN	3352328.8285863	3352329.34515908
102	18	0	0	90	36.1581920903955	36.241610738255	14	0.466703383997083	2	12	6	NaN	2	5	0.0884714403412524	0	1	NaN	208	4	19	2	120	220	320	NaN	520	0.0103942239657044	2	1	NaN	3352330.8621551	NaN	3352331.8455647	3352332.36211568
102	18	0	0	90	36.1581920903955	36.241610738255	13	0.433367427997291	2	9	5	NaN	2	4	0.0884714403412524	0	1	NaN	209	4	20	2	120	220	320	NaN	520	0.0104092713445425	2	1	NaN	3352333.1792051	NaN	3352334.1624696	3352334.67900263
102	18	0	0	90	36.1581920903955	36.241610738255	25	0.833398899994791	2	2	4	NaN	1	4	0.0884714403412524	0	1	NaN	210	4	21	2	120	220	320	NaN	520	0.0104082715697587	1	1	NaN	3352335.4958053	NaN	3352336.4793409	3352336.99589623
102	18	0	0	90	36.1581920903955	36.241610738255	17	0.566711251996458	2	11	2	NaN	2	3	0.0884714403412524	0	1	NaN	211	4	22	2	120	220	320	NaN	520	1.4786597667262	2	1	NaN	3352337.8128423	NaN	3352338.7962404	3352339.31279113
102	18	0	0	90	36.1581920903955	36.241610738255	21	0.700055075995624	2	11	3	NaN	2	5	0.0884714403412524	0	1	NaN	212	4	23	2	120	220	320	NaN	520	0.318890309892595	2	1	NaN	3352341.5965492	NaN	3352342.5800103	3352343.09649559
102	18	0	0	90	36.1581920903955	36.241610738255	22	0.733391031995416	2	3	3	NaN	1	5	0.0884714403412524	0	1	NaN	213	4	24	2	120	220	320	NaN	520	0.997389271389693	1	1	NaN	3352344.2301352	NaN	3352345.21353	3352345.73009263
102	18	0	0	90	36.1581920903955	36.241610738255	6	0.20001573599875	2	4	6	NaN	1	4	0.0884714403412524	0	1	NaN	214	4	25	2	120	220	320	NaN	520	0.0103886239230633	1	1	NaN	3352347.5304633	NaN	3352348.5138491	3352349.03042058
102	18	0	0	90	36.1581920903955	36.241610738255	25	0.833398899994791	2	10	5	NaN	2	3	0.0884714403412524	0	1	NaN	215	4	26	2	120	220	320	NaN	520	0.0760640716180205	1	0	NaN	3352349.8473932	NaN	3352350.8307482	3352351.34730443
102	18	0	0	90	36.1581920903955	36.241610738255	15	0.500039339996874	2	10	4	NaN	2	3	0.0884714403412524	0	1	NaN	216	4	27	2	120	220	320	NaN	520	0.171876671724021	2	1	NaN	3352352.247591	NaN	3352353.2309935	3352353.74754453
102	18	0	0	90	36.1581920903955	36.241610738255	21	0.700055075995624	2	6	3	NaN	1	3	0.0884714403412524	0	1	NaN	217	4	28	2	120	220	320	NaN	520	0.343830171506852	1	1	NaN	3352354.7478381	NaN	3352355.7312414	3352356.24778503
102	18	0	0	90	36.1581920903955	36.241610738255	20	0.666719119995832	2	10	6	NaN	2	3	0.0884714403412524	0	1	NaN	218	4	29	2	120	220	320	NaN	520	0.54869632422924	2	1	NaN	3352357.4147671	NaN	3352358.3981748	3352358.91471898
102	18	0	0	90	36.1581920903955	36.241610738255	14	0.466703383997083	2	12	3	NaN	2	5	0.0884714403412524	0	1	NaN	219	4	30	2	120	220	320	NaN	520	0.592345519457012	2	1	NaN	3352360.5150503	NaN	3352361.498465	3352362.01501988
102	18	0	0	90	36.1581920903955	36.241610738255	11	0.366695515997708	2	10	3	NaN	2	4	0.0884714403412524	0	1	NaN	220	4	31	2	120	220	320	NaN	520	0.364359238184988	2	1	NaN	3352363.4153622	NaN	3352364.3987581	3352364.91530856
102	18	0	0	90	36.1581920903955	36.241610738255	10	0.333359559997916	2	12	6	NaN	2	4	0.0884714403412524	0	1	NaN	221	4	32	2	120	220	320	NaN	520	0.0104141714982688	2	1	NaN	3352366.0989522	NaN	3352367.0823753	3352367.59889933
102	18	0	0	90	36.1581920903955	36.241610738255	14	0.466703383997083	2	10	2	NaN	2	3	0.0884714403412524	0	1	NaN	222	4	33	2	120	220	320	NaN	520	0.547893323935568	2	1	NaN	3352368.4158501	NaN	3352369.399245	3352369.91580478
102	18	0	0	90	36.1581920903955	36.241610738255	14	0.466703383997083	2	8	2	NaN	2	5	0.0884714403412524	0	1	NaN	223	4	34	2	120	220	320	NaN	520	1.01678597135469	2	1	NaN	3352371.282768	NaN	3352372.2661935	3352372.78275193
102	18	0	0	90	36.1581920903955	36.241610738255	14	0.466703383997083	2	6	5	NaN	1	5	0.0884714403412524	0	1	NaN	224	4	35	2	120	220	320	NaN	520	1.69106557127088	1	1	NaN	3352374.6163355	NaN	3352375.599889	3352376.11640143
102	18	0	0	90	36.1581920903955	36.241610738255	6	0.20001573599875	2	3	6	NaN	1	3	0.0884714403412524	0	1	NaN	225	4	36	2	120	220	320	NaN	520	0.0104093714617193	1	1	NaN	3352378.6168497	NaN	3352379.6002491	3352380.11679823
102	18	0	0	90	36.1581920903955	36.241610738255	10	0.333359559997916	2	7	3	NaN	2	3	0.0884714403412524	0	1	NaN	226	4	37	2	120	220	320	NaN	520	0.397089366335422	1	0	NaN	3352380.9503961	NaN	3352381.9338095	3352382.45036183
102	18	0	0	90	36.1581920903955	36.241610738255	23	0.766726987995207	2	7	3	NaN	2	5	0.0884714403412524	0	1	NaN	227	4	38	2	120	220	320	NaN	520	1.18409951915964	2	1	NaN	3352383.6673528	NaN	3352384.6507443	3352385.16728968
102	18	0	0	90	36.1581920903955	36.241610738255	21	0.700055075995624	2	4	3	NaN	1	5	0.0884714403412524	0	1	NaN	228	4	39	2	120	220	320	NaN	520	0.0104117714799941	1	1	NaN	3352387.167699	NaN	3352388.1511263	3352388.66764053
102	18	0	0	90	36.1581920903955	36.241610738255	6	0.20001573599875	2	3	5	NaN	1	5	0.0884714403412524	0	1	NaN	229	4	40	2	120	220	320	NaN	520	0.0150280240923166	1	1	NaN	3352389.4844555	NaN	3352390.4680382	3352390.98453958
102	18	0	0	90	36.1581920903955	36.241610738255	17	0.566711251996458	2	1	1	NaN	1	3	0.0884714403412524	0	1	NaN	230	4	41	2	120	220	320	NaN	520	0.879807223565876	2	0	NaN	3352392.0515013	NaN	3352393.0349028	3352393.55145978
102	18	0	0	90	36.1581920903955	36.241610738255	22	0.733391031995416	2	1	5	NaN	1	5	0.0884714403412524	0	1	NaN	231	4	42	2	120	220	320	NaN	520	1.02127217128873	1	1	NaN	3352395.7185199	NaN	3352396.7019229	3352397.21847693
102	18	0	0	90	36.1581920903955	36.241610738255	22	0.733391031995416	2	6	1	NaN	1	4	0.0884714403412524	0	1	NaN	232	4	43	2	120	220	320	NaN	520	0.663609790150076	1	1	NaN	3352399.0521916	NaN	3352400.035589	3352400.55214601
102	18	0	0	90	36.1581920903955	36.241610738255	25	0.833398899994791	2	10	3	NaN	2	3	0.0884714403412524	0	1	NaN	233	4	44	2	120	220	320	NaN	520	0.191654671449214	2	1	NaN	3352402.0356747	NaN	3352403.0192084	3352403.53576593
102	18	0	0	90	36.1581920903955	36.241610738255	23	0.766726987995207	2	10	5	NaN	2	5	0.0884714403412524	0	1	NaN	234	4	45	2	120	220	320	NaN	520	3.11532232398167	1	0	NaN	3352404.5360493	NaN	3352405.5194452	3352406.03601848
102	18	0	0	90	36.1581920903955	36.241610738255	17	0.566711251996458	2	8	6	NaN	2	4	0.0884714403412524	0	1	NaN	235	4	46	2	120	220	320	NaN	520	0.010421771556139	2	1	NaN	3352409.9532653	NaN	3352410.9366455	3352411.45321603
102	18	0	0	90	36.1581920903955	36.241610738255	11	0.366695515997708	2	6	3	NaN	1	5	0.0884714403412524	0	1	NaN	236	4	47	2	120	220	320	NaN	520	0.28542757127434	1	1	NaN	3352412.2700322	NaN	3352413.2535573	3352413.77010163
102	18	0	0	90	36.1581920903955	36.241610738255	10	0.333359559997916	2	9	5	NaN	2	3	0.0884714403412524	0	1	NaN	237	4	48	2	120	220	320	NaN	520	0.0851225713267922	2	1	NaN	3352414.8704156	NaN	3352415.8538136	3352416.37036033
102	18	0	0	90	36.1581920903955	36.241610738255	0	0	1	8	1	NaN	2	4	0.0884714403412524	0	1	NaN	238	4	49	2	110	210	310	NaN	510	0.620870323851705	2	1	NaN	3352417.2706534	NaN	3352418.2540449	3352418.77059718
102	18	0	0	90	36.1581920903955	36.241610738255	0	0	1	5	6	NaN	1	3	0.0884714403412524	0	1	NaN	239	4	50	2	110	210	310	NaN	510	0.319227818865329	2	0	NaN	3352420.2042695	NaN	3352421.1876625	3352421.70423298
102	18	0	0	90	36.1581920903955	36.241610738255	25	0.833398899994791	2	8	3	NaN	2	3	0.0884714403412524	0	1	NaN	240	4	51	2	120	220	320	NaN	520	0.205917971674353	2	1	NaN	3352422.8378612	NaN	3352423.8212364	3352424.33780703
102	18	0	0	90	36.1581920903955	36.241610738255	24	0.800062943994999	2	3	5	NaN	1	5	0.0884714403412524	0	1	NaN	241	4	52	2	120	220	320	NaN	520	0.0103923240676522	1	1	NaN	3352425.3547622	NaN	3352426.3381989	3352426.85472738
102	18	0	0	90	36.1581920903955	36.241610738255	9	0.300023603998125	2	5	2	NaN	1	3	0.0884714403412524	0	1	NaN	242	4	53	2	120	220	320	NaN	520	0.0104071237146854	1	1	NaN	3352427.688215	NaN	3352428.6717397	3352429.18828358
102	18	0	0	90	36.1581920903955	36.241610738255	24	0.800062943994999	2	5	5	NaN	1	3	0.0884714403412524	0	1	NaN	243	4	54	2	120	220	320	NaN	520	0.0102895903401077	1	1	NaN	3352430.0218958	NaN	3352431.0052865	3352431.52185021
102	18	0	0	90	36.1581920903955	36.241610738255	25	0.833398899994791	2	1	2	NaN	1	5	0.0884714403412524	0	1	NaN	244	4	55	2	120	220	320	NaN	520	0.392926171422005	1	1	NaN	3352432.3387926	NaN	3352433.3220968	3352433.83874583
102	18	0	0	90	36.1581920903955	36.241610738255	23	0.766726987995207	2	8	2	NaN	2	3	0.0884714403412524	0	1	NaN	245	4	56	2	120	220	320	NaN	520	0.0104556712321937	2	1	NaN	3352435.03905	NaN	3352436.0224576	3352436.53901273
102	18	0	0	90	36.1581920903955	36.241610738255	24	0.800062943994999	2	7	6	NaN	2	5	0.0884714403412524	0	1	NaN	246	4	57	2	120	220	320	NaN	520	0.0103920241817832	2	1	NaN	3352437.3724901	NaN	3352438.3560704	3352438.87256838
102	18	0	0	90	36.1581920903955	36.241610738255	0	0	1	7	3	NaN	2	4	0.0884714403412524	0	1	NaN	247	4	58	2	110	210	310	NaN	510	1.34592737117782	2	1	NaN	3352439.6895208	NaN	3352440.6729433	3352441.18946653
102	18	0	0	90	36.1581920903955	36.241610738255	8	0.266687647998333	2	8	4	NaN	2	5	0.0884714403412524	0	1	NaN	248	4	59	2	120	220	320	NaN	520	0.010394424200058	2	1	NaN	3352443.3564148	NaN	3352444.3399436	3352444.85649388
102	18	0	0	90	36.1581920903955	36.241610738255	12	0.400031471997499	2	11	6	NaN	2	5	0.0884714403412524	0	1	NaN	249	4	60	2	120	220	320	NaN	520	0.0104168714024127	2	1	NaN	3352445.6734597	NaN	3352446.6568294	3352447.17338723
102	18	0	0	90	36.1581920903955	36.241610738255	6	0.20001573599875	2	6	1	NaN	1	4	0.0884714403412524	0	1	NaN	250	4	61	2	120	220	320	NaN	520	0.357235523872077	1	1	NaN	3352447.990317	NaN	3352448.9737413	3352449.49028208
102	18	0	0	90	36.1581920903955	36.241610738255	24	0.800062943994999	2	9	2	NaN	2	4	0.0884714403412524	0	1	NaN	251	4	62	2	120	220	320	NaN	520	0.0104089709930122	2	1	NaN	3352450.6572558	NaN	3352451.6406581	3352452.15720973
102	18	0	0	90	36.1581920903955	36.241610738255	13	0.433367427997291	2	11	2	NaN	2	4	0.0884714403412524	0	1	NaN	252	4	63	2	120	220	320	NaN	520	0.469780724029988	2	1	NaN	3352452.9741642	NaN	3352453.9575653	3352454.47410438
102	18	0	0	90	36.1581920903955	36.241610738255	16	0.533375295996666	2	5	4	NaN	1	3	0.0884714403412524	0	1	NaN	253	5	1	2	120	220	320	NaN	520	0.564396323636174	2	0	NaN	3352459.9914763	NaN	3352460.9749055	3352461.49145898
102	18	0	0	90	36.1581920903955	36.241610738255	11	0.366695515997708	2	8	5	NaN	2	4	0.0884714403412524	0	1	NaN	254	5	2	2	120	220	320	NaN	520	0.392468971200287	2	1	NaN	3352462.8751275	NaN	3352463.8585251	3352464.37508023
102	18	0	0	90	36.1581920903955	36.241610738255	14	0.466703383997083	2	1	2	NaN	1	4	0.0884714403412524	0	1	NaN	255	5	3	2	120	220	320	NaN	520	0.0103605287149549	1	1	NaN	3352465.5752649	NaN	3352466.5586966	3352467.07534177
102	18	0	0	90	36.1581920903955	36.241610738255	6	0.20001573599875	2	7	4	NaN	2	5	0.0884714403412524	0	1	NaN	256	5	4	2	120	220	320	NaN	520	0.0104107717052102	2	1	NaN	3352467.8923114	NaN	3352468.8756836	3352469.39223293
102	18	0	0	90	36.1581920903955	36.241610738255	15	0.500039339996874	2	8	2	NaN	2	3	0.0884714403412524	0	1	NaN	257	5	5	2	120	220	320	NaN	520	0.938489495310932	2	1	NaN	3352470.2091764	NaN	3352471.1925799	3352471.7091422
102	18	0	0	90	36.1581920903955	36.241610738255	18	0.600047207996249	2	6	4	NaN	1	5	0.0884714403412524	0	1	NaN	258	5	6	2	120	220	320	NaN	520	0.0104028712958097	1	1	NaN	3352473.4595023	NaN	3352474.4428924	3352474.95944803
102	18	0	0	90	36.1581920903955	36.241610738255	13	0.433367427997291	2	10	6	NaN	2	4	0.0884714403412524	0	1	NaN	259	5	7	2	120	220	320	NaN	520	0.010398424230516	2	1	NaN	3352475.7930616	NaN	3352476.7764529	3352477.29301868
102	18	0	0	90	36.1581920903955	36.241610738255	12	0.400031471997499	2	7	3	NaN	2	5	0.0884714403412524	0	1	NaN	260	5	8	2	120	220	320	NaN	520	0.0104187713004649	2	1	NaN	3352478.1266292	NaN	3352479.1100267	3352479.62657553
102	18	0	0	90	36.1581920903955	36.241610738255	9	0.300023603998125	2	9	5	NaN	2	4	0.0884714403412524	0	1	NaN	261	5	9	2	120	220	320	NaN	520	0.0103967236354947	2	1	NaN	3352480.7267318	NaN	3352481.7102717	3352482.22685288
102	18	0	0	90	36.1581920903955	36.241610738255	25	0.833398899994791	2	12	3	NaN	2	3	0.0884714403412524	0	1	NaN	262	5	10	2	120	220	320	NaN	520	0.010403323918581	2	1	NaN	3352483.0437701	NaN	3352484.0271662	3352484.54372818
102	18	0	0	90	36.1581920903955	36.241610738255	23	0.766726987995207	2	8	2	NaN	2	4	0.0884714403412524	0	1	NaN	263	5	11	2	120	220	320	NaN	520	0.010392724070698	2	1	NaN	3352485.3606788	NaN	3352486.344058	3352486.86061868
102	18	0	0	90	36.1581920903955	36.241610738255	20	0.666719119995832	2	7	5	NaN	2	5	0.0884714403412524	0	1	NaN	264	5	12	2	120	220	320	NaN	520	0.0104072713293135	2	1	NaN	3352487.6774416	NaN	3352488.660949	3352489.17751043
102	18	0	0	90	36.1581920903955	36.241610738255	10	0.333359559997916	2	3	3	NaN	1	3	0.0884714403412524	0	1	NaN	265	5	13	2	120	220	320	NaN	520	0.0103928241878748	1	1	NaN	3352489.9944446	NaN	3352490.9778635	3352491.49440938
102	18	0	0	90	36.1581920903955	36.241610738255	22	0.733391031995416	2	9	1	NaN	2	5	0.0884714403412524	0	1	NaN	266	5	14	2	120	220	320	NaN	520	0.740108371246606	2	1	NaN	3352492.3113531	NaN	3352493.2947566	3352493.81130243
102	18	0	0	90	36.1581920903955	36.241610738255	8	0.266687647998333	2	2	6	NaN	1	5	0.0884714403412524	0	1	NaN	267	5	15	2	120	220	320	NaN	520	0.168143223971128	1	1	NaN	3352495.6116445	NaN	3352496.5950814	3352497.11163068
102	18	0	0	90	36.1581920903955	36.241610738255	11	0.366695515997708	2	2	2	NaN	1	3	0.0884714403412524	0	1	NaN	268	5	16	2	120	220	320	NaN	520	0.0104102711193264	1	1	NaN	3352498.0951547	NaN	3352499.0786461	3352499.59520553
102	18	0	0	90	36.1581920903955	36.241610738255	18	0.600047207996249	2	8	3	NaN	2	3	0.0884714403412524	0	1	NaN	269	5	17	2	120	220	320	NaN	520	0.010409171693027	2	1	NaN	3352500.4120232	NaN	3352501.3955504	3352501.91210263
102	18	0	0	90	36.1581920903955	36.241610738255	15	0.500039339996874	2	11	4	NaN	2	4	0.0884714403412524	0	1	NaN	270	5	18	2	120	220	320	NaN	520	0.0104061714373529	2	1	NaN	3352502.7455976	NaN	3352503.7291227	3352504.24565533
102	18	0	0	90	36.1581920903955	36.241610738255	17	0.566711251996458	2	10	3	NaN	2	4	0.0884714403412524	0	1	NaN	271	5	19	2	120	220	320	NaN	520	0.0103948237374425	2	1	NaN	3352505.0626035	NaN	3352506.0460265	3352506.56254988
102	18	0	0	90	36.1581920903955	36.241610738255	18	0.600047207996249	2	5	2	NaN	1	3	0.0884714403412524	0	1	NaN	272	5	20	2	120	220	320	NaN	520	0.0482501620426774	1	1	NaN	3352507.3794937	NaN	3352508.3628979	3352508.87944244
102	18	0	0	90	36.1581920903955	36.241610738255	15	0.500039339996874	2	4	2	NaN	1	4	0.0884714403412524	0	1	NaN	273	5	21	2	120	220	320	NaN	520	0.0103929238393903	1	1	NaN	3352509.7463854	NaN	3352510.7298093	3352511.24634898
102	18	0	0	90	36.1581920903955	36.241610738255	25	0.833398899994791	2	2	2	NaN	1	5	0.0884714403412524	0	1	NaN	274	5	22	2	120	220	320	NaN	520	1.21225097589195	1	1	NaN	3352512.0632748	NaN	3352513.0466908	3352513.56324772
102	18	0	0	90	36.1581920903955	36.241610738255	12	0.400031471997499	2	3	4	NaN	1	5	0.0884714403412524	0	1	NaN	275	5	23	2	120	220	320	NaN	520	0.0103303333744407	1	1	NaN	3352515.5969759	NaN	3352516.5803826	3352517.09692287
102	18	0	0	90	36.1581920903955	36.241610738255	8	0.266687647998333	2	1	2	NaN	1	3	0.0884714403412524	0	1	NaN	276	5	24	2	120	220	320	NaN	520	0.010413471609354	1	1	NaN	3352517.9138808	NaN	3352518.8972625	3352519.41381733
102	18	0	0	90	36.1581920903955	36.241610738255	19	0.633383163996041	2	12	2	NaN	2	5	0.0884714403412524	0	1	NaN	277	5	25	2	120	220	320	NaN	520	1.09236682392657	2	1	NaN	3352520.2474291	NaN	3352521.2308199	3352521.74737958
102	18	0	0	90	36.1581920903955	36.241610738255	15	0.500039339996874	2	3	1	NaN	1	5	0.0884714403412524	0	1	NaN	278	5	26	2	120	220	320	NaN	520	0.0104077714495361	2	0	NaN	3352523.6477667	NaN	3352524.6311559	3352525.14771163
102	18	0	0	90	36.1581920903955	36.241610738255	10	0.333359559997916	2	3	1	NaN	1	3	0.0884714403412524	0	1	NaN	279	5	27	2	120	220	320	NaN	520	0.0104029239155352	2	0	NaN	3352525.9645459	NaN	3352526.9480558	3352527.46461178
102	18	0	0	90	36.1581920903955	36.241610738255	14	0.466703383997083	2	11	6	NaN	2	4	0.0884714403412524	0	1	NaN	280	5	28	2	120	220	320	NaN	520	0.657987871207297	2	1	NaN	3352528.2814169	NaN	3352529.2649638	3352529.78150073
102	18	0	0	90	36.1581920903955	36.241610738255	15	0.500039339996874	2	1	2	NaN	1	3	0.0884714403412524	0	1	NaN	281	5	29	2	120	220	320	NaN	520	0.0103934239596128	1	1	NaN	3352531.2484343	NaN	3352532.231917	3352532.74847668
102	18	0	0	90	36.1581920903955	36.241610738255	10	0.333359559997916	2	8	3	NaN	2	3	0.0884714403412524	0	1	NaN	282	5	30	2	120	220	320	NaN	520	0.0104166711680591	2	1	NaN	3352533.5821029	NaN	3352534.5654719	3352535.08202223
102	18	0	0	90	36.1581920903955	36.241610738255	20	0.666719119995832	2	7	4	NaN	2	5	0.0884714403412524	0	1	NaN	283	5	31	2	120	220	320	NaN	520	0.0104557713493705	2	1	NaN	3352536.0655199	NaN	3352537.0490468	3352537.56559093
102	18	0	0	90	36.1581920903955	36.241610738255	16	0.533375295996666	2	7	2	NaN	2	4	0.0884714403412524	0	1	NaN	284	5	32	2	120	220	320	NaN	520	3.5171931241639	2	1	NaN	3352538.3825482	NaN	3352539.365938	3352539.88248908
102	18	0	0	90	36.1581920903955	36.241610738255	14	0.466703383997083	2	7	2	NaN	2	5	0.0884714403412524	0	1	NaN	285	5	33	2	120	220	320	NaN	520	0.0103951240889728	2	1	NaN	3352544.2164474	NaN	3352545.1998574	3352545.71640338
102	18	0	0	90	36.1581920903955	36.241610738255	11	0.366695515997708	2	5	4	NaN	1	3	0.0884714403412524	0	1	NaN	286	5	34	2	120	220	320	NaN	520	0.0104059716686606	1	1	NaN	3352546.5500179	NaN	3352547.5334116	3352548.04996163
102	18	0	0	90	36.1581920903955	36.241610738255	23	0.766726987995207	2	3	6	NaN	1	5	0.0884714403412524	0	1	NaN	287	5	35	2	120	220	320	NaN	520	0.616696224082261	1	1	NaN	3352548.8668998	NaN	3352549.8503104	3352550.36685508
102	18	0	0	90	36.1581920903955	36.241610738255	14	0.466703383997083	2	2	4	NaN	1	5	0.0884714403412524	0	1	NaN	288	5	36	2	120	220	320	NaN	520	0.811461124103516	2	0	NaN	3352551.8005208	NaN	3352552.7839468	3352553.30047758
102	18	0	0	90	36.1581920903955	36.241610738255	6	0.20001573599875	2	11	2	NaN	2	3	0.0884714403412524	0	1	NaN	289	5	37	2	120	220	320	NaN	520	0.0103979241102934	2	1	NaN	3352554.9341818	NaN	3352555.9175598	3352556.43412028
102	18	0	0	90	36.1581920903955	36.241610738255	19	0.633383163996041	2	1	4	NaN	1	4	0.0884714403412524	0	1	NaN	290	5	38	2	120	220	320	NaN	520	0.010362128727138	1	1	NaN	3352557.2510672	NaN	3352558.2344815	3352558.75100717
102	18	0	0	90	36.1581920903955	36.241610738255	7	0.233351691998541	2	12	1	NaN	2	4	0.0884714403412524	0	1	NaN	291	5	39	2	120	220	320	NaN	520	0.0103904237039387	2	1	NaN	3352559.6012667	NaN	3352560.5846996	3352561.10124408
102	18	0	0	90	36.1581920903955	36.241610738255	18	0.600047207996249	2	7	4	NaN	2	4	0.0884714403412524	0	1	NaN	292	5	40	2	120	220	320	NaN	520	0.0449793385341763	1	0	NaN	3352561.9348563	NaN	3352562.9182407	3352563.43480866
102	18	0	0	90	36.1581920903955	36.241610738255	22	0.733391031995416	2	12	5	NaN	2	5	0.0884714403412524	0	1	NaN	293	5	41	2	120	220	320	NaN	520	0.342060324270278	2	1	NaN	3352564.301751	NaN	3352565.2851406	3352565.80170948
102	18	0	0	90	36.1581920903955	36.241610738255	17	0.566711251996458	2	4	5	NaN	1	4	0.0884714403412524	0	1	NaN	294	5	42	2	120	220	320	NaN	520	0.0104600144550204	1	1	NaN	3352566.9686911	NaN	3352567.9522086	3352568.46862699
102	18	0	0	90	36.1581920903955	36.241610738255	18	0.600047207996249	2	9	5	NaN	2	3	0.0884714403412524	0	1	NaN	295	5	43	2	120	220	320	NaN	520	1.39022652385756	2	1	NaN	3352569.2855701	NaN	3352570.2689832	3352570.78552738
102	18	0	0	90	36.1581920903955	36.241610738255	23	0.766726987995207	2	6	3	NaN	1	4	0.0884714403412524	0	1	NaN	296	5	44	2	120	220	320	NaN	520	0.0179809713736176	1	1	NaN	3352572.9858236	NaN	3352573.9693694	3352574.48589163
102	18	0	0	90	36.1581920903955	36.241610738255	17	0.566711251996458	2	7	1	NaN	2	3	0.0884714403412524	0	1	NaN	297	5	45	2	120	220	320	NaN	520	0.0103985238820314	1	0	NaN	3352575.3195125	NaN	3352576.3029066	3352576.81945958
102	18	0	0	90	36.1581920903955	36.241610738255	14	0.466703383997083	2	5	4	NaN	1	5	0.0884714403412524	0	1	NaN	298	5	46	2	120	220	320	NaN	520	1.2473157714121	1	1	NaN	3352577.6363822	NaN	3352578.619874	3352579.13634863
102	18	0	0	90	36.1581920903955	36.241610738255	12	0.400031471997499	2	1	6	NaN	1	5	0.0884714403412524	0	1	NaN	299	5	47	2	120	220	320	NaN	520	0.536189324222505	2	0	NaN	3352581.2034045	NaN	3352582.1868745	3352582.70336708
102	18	0	0	90	36.1581920903955	36.241610738255	6	0.20001573599875	2	2	2	NaN	1	3	0.0884714403412524	0	1	NaN	300	5	48	2	120	220	320	NaN	520	0.0103932241909206	1	1	NaN	3352584.2370228	NaN	3352585.2204507	3352585.73699678
102	18	0	0	90	36.1581920903955	36.241610738255	19	0.633383163996041	2	10	5	NaN	2	5	0.0884714403412524	0	1	NaN	301	5	49	2	120	220	320	NaN	520	0.010394724085927	2	1	NaN	3352586.5706223	NaN	3352587.5539989	3352588.07056408
102	18	0	0	90	36.1581920903955	36.241610738255	16	0.533375295996666	2	8	6	NaN	2	3	0.0884714403412524	0	1	NaN	302	5	50	2	120	220	320	NaN	520	1.00458677113056	2	1	NaN	3352588.8875054	NaN	3352589.8709048	3352590.38745083
102	18	0	0	90	36.1581920903955	36.241610738255	11	0.366695515997708	2	12	2	NaN	2	3	0.0884714403412524	0	1	NaN	303	5	51	2	120	220	320	NaN	520	0.0103983236476779	2	1	NaN	3352592.2044095	NaN	3352593.187896	3352593.70444548
102	18	0	0	90	36.1581920903955	36.241610738255	19	0.633383163996041	2	2	5	NaN	1	3	0.0884714403412524	0	1	NaN	304	5	52	2	120	220	320	NaN	520	0.0103013380430639	1	1	NaN	3352594.5380532	NaN	3352595.5214422	3352596.03801326
102	18	0	0	90	36.1581920903955	36.241610738255	6	0.20001573599875	2	2	3	NaN	1	4	0.0884714403412524	0	1	NaN	305	5	53	2	120	220	320	NaN	520	0.0104202716611326	1	1	NaN	3352596.8548604	NaN	3352597.8383502	3352598.35490793
102	18	0	0	90	36.1581920903955	36.241610738255	19	0.633383163996041	2	9	4	NaN	2	4	0.0884714403412524	0	1	NaN	306	5	54	2	120	220	320	NaN	520	0.215571118984371	2	1	NaN	3352599.1883537	NaN	3352600.1719038	3352600.68846248
102	18	0	0	90	36.1581920903955	36.241610738255	11	0.366695515997708	2	1	6	NaN	1	3	0.0884714403412524	0	1	NaN	307	5	55	2	120	220	320	NaN	520	0.0103923240676522	2	0	NaN	3352601.7220881	NaN	3352602.7054915	3352603.22205188
102	18	0	0	90	36.1581920903955	36.241610738255	20	0.666719119995832	2	11	1	NaN	2	3	0.0884714403412524	0	1	NaN	308	5	56	2	120	220	320	NaN	520	0.0122043192386627	2	1	NaN	3352604.0556513	NaN	3352605.0390614	3352605.55561108
102	18	0	0	90	36.1581920903955	36.241610738255	0	0	1	10	1	NaN	2	3	0.0884714403412524	0	1	NaN	309	5	57	2	110	210	310	NaN	510	0.839022723957896	2	1	NaN	3352606.3726148	NaN	3352607.3559758	3352607.87250808
102	18	0	0	90	36.1581920903955	36.241610738255	18	0.600047207996249	2	4	5	NaN	1	4	0.0884714403412524	0	1	NaN	310	5	58	2	120	220	320	NaN	520	0.0104170711711049	1	1	NaN	3352609.5228354	NaN	3352610.5062598	3352611.02280473
102	18	0	0	90	36.1581920903955	36.241610738255	24	0.800062943994999	2	1	3	NaN	1	5	0.0884714403412524	0	1	NaN	311	5	59	2	120	220	320	NaN	520	0.0104541243053973	2	0	NaN	3352611.8564264	NaN	3352612.8398304	3352613.35637628
102	18	0	0	90	36.1581920903955	36.241610738255	21	0.700055075995624	2	3	4	NaN	1	5	0.0884714403412524	0	1	NaN	312	5	60	2	120	220	320	NaN	520	0.878633171319962	1	1	NaN	3352614.1733682	NaN	3352615.1567145	3352615.67326213
102	18	0	0	90	36.1581920903955	36.241610738255	6	0.20001573599875	2	5	6	NaN	1	5	0.0884714403412524	0	1	NaN	313	5	61	2	120	220	320	NaN	520	0.18301266618073	1	1	NaN	3352617.356958	NaN	3352618.3403699	3352618.85691083
102	18	0	0	90	36.1581920903955	36.241610738255	24	0.800062943994999	2	4	4	NaN	1	4	0.0884714403412524	0	1	NaN	314	5	62	2	120	220	320	NaN	520	1.49047447601333	1	1	NaN	3352619.8572067	NaN	3352620.8406077	3352621.35716092
102	18	0	0	90	36.1581920903955	36.241610738255	23	0.766726987995207	2	9	4	NaN	2	3	0.0884714403412524	0	1	NaN	315	5	63	2	120	220	320	NaN	520	0.0103991236537695	1	0	NaN	3352623.6575847	NaN	3352624.6409849	3352625.15753708
102	18	0	0	90	36.1581920903955	36.241610738255	21	0.700055075995624	2	1	4	NaN	1	4	0.0884714403412524	0	1	NaN	316	6	1	2	120	220	320	NaN	520	1.22304252395406	1	1	NaN	3352628.724744	NaN	3352629.7081664	3352630.22470368
102	18	0	0	90	36.1581920903955	36.241610738255	12	0.400031471997499	2	6	6	NaN	1	5	0.0884714403412524	0	1	NaN	317	6	2	2	120	220	320	NaN	520	0.628797576297075	1	1	NaN	3352632.7751111	NaN	3352633.7585343	3352634.27510032
102	18	0	0	90	36.1581920903955	36.241610738255	16	0.533375295996666	2	3	1	NaN	1	4	0.0884714403412524	0	1	NaN	318	6	3	2	120	220	320	NaN	520	0.01028759079054	2	0	NaN	3352635.7087768	NaN	3352636.6921651	3352637.20872201
102	18	0	0	90	36.1581920903955	36.241610738255	25	0.833398899994791	2	6	4	NaN	1	3	0.0884714403412524	0	1	NaN	319	6	4	2	120	220	320	NaN	520	0.010417670942843	1	1	NaN	3352638.0256863	NaN	3352639.0090484	3352639.52560613
102	18	0	0	90	36.1581920903955	36.241610738255	23	0.766726987995207	2	4	1	NaN	1	3	0.0884714403412524	0	1	NaN	320	6	5	2	120	220	320	NaN	520	0.0102681429125369	2	0	NaN	3352640.3425566	NaN	3352641.3259638	3352641.84251676
102	18	0	0	90	36.1581920903955	36.241610738255	9	0.300023603998125	2	3	2	NaN	1	4	0.0884714403412524	0	1	NaN	321	6	6	2	120	220	320	NaN	520	0.0104106715880334	1	1	NaN	3352642.6761283	NaN	3352643.6595058	3352644.17607203
102	18	0	0	90	36.1581920903955	36.241610738255	11	0.366695515997708	2	9	2	NaN	2	4	0.0884714403412524	0	1	NaN	322	6	7	2	120	220	320	NaN	520	0.722530919127166	2	1	NaN	3352645.0096833	NaN	3352645.9930863	3352646.50962288
102	18	0	0	90	36.1581920903955	36.241610738255	7	0.233351691998541	2	7	6	NaN	2	4	0.0884714403412524	0	1	NaN	323	6	8	2	120	220	320	NaN	520	0.0104172714054585	2	1	NaN	3352648.0433122	NaN	3352649.0267003	3352649.54325833
102	18	0	0	90	36.1581920903955	36.241610738255	23	0.766726987995207	2	3	4	NaN	1	4	0.0884714403412524	0	1	NaN	324	6	9	2	120	220	320	NaN	520	0.0270563196390867	2	0	NaN	3352650.3768658	NaN	3352651.3602787	3352651.87681738
102	18	0	0	90	36.1581920903955	36.241610738255	7	0.233351691998541	2	6	5	NaN	1	5	0.0884714403412524	0	1	NaN	325	6	10	2	120	220	320	NaN	520	0.957366119138896	1	1	NaN	3352652.7104357	NaN	3352653.6938351	3352654.21038388
102	18	0	0	90	36.1581920903955	36.241610738255	21	0.700055075995624	2	7	4	NaN	2	3	0.0884714403412524	0	1	NaN	326	6	11	2	120	220	320	NaN	520	0.21055632410571	2	1	NaN	3352655.9774183	NaN	3352656.960829	3352657.47737888
102	18	0	0	90	36.1581920903955	36.241610738255	20	0.666719119995832	2	4	6	NaN	1	5	0.0884714403412524	0	1	NaN	327	6	12	2	120	220	320	NaN	520	0.0104818241670728	1	1	NaN	3352658.4943265	NaN	3352659.4777348	3352659.99431248
102	18	0	0	90	36.1581920903955	36.241610738255	25	0.833398899994791	2	11	3	NaN	2	3	0.0884714403412524	0	1	NaN	328	6	13	2	120	220	320	NaN	520	0.0104805715382099	2	1	NaN	3352660.8112293	NaN	3352661.7946363	3352662.31118043
102	18	0	0	90	36.1581920903955	36.241610738255	23	0.766726987995207	2	7	1	NaN	2	3	0.0884714403412524	0	1	NaN	329	6	14	2	120	220	320	NaN	520	0.0104097239673138	2	1	NaN	3352663.1282593	NaN	3352664.111514	3352664.62807218
102	18	0	0	90	36.1581920903955	36.241610738255	15	0.500039339996874	2	5	1	NaN	1	4	0.0884714403412524	0	1	NaN	330	6	15	2	120	220	320	NaN	520	0.0102811902761459	1	1	NaN	3352665.4450416	NaN	3352666.4284198	3352666.94497131
102	18	0	0	90	36.1581920903955	36.241610738255	11	0.366695515997708	2	7	4	NaN	2	5	0.0884714403412524	0	1	NaN	331	6	16	2	120	220	320	NaN	520	0.642021324019879	2	1	NaN	3352667.7618026	NaN	3352668.7452982	3352669.26186058
102	18	0	0	90	36.1581920903955	36.241610738255	23	0.766726987995207	2	6	1	NaN	1	4	0.0884714403412524	0	1	NaN	332	6	17	2	120	220	320	NaN	520	0.0103941238485277	1	1	NaN	3352670.7120651	NaN	3352671.6956279	3352672.21215728
102	18	0	0	90	36.1581920903955	36.241610738255	16	0.533375295996666	2	8	1	NaN	2	3	0.0884714403412524	0	1	NaN	333	6	18	2	120	220	320	NaN	520	1.00611217133701	2	1	NaN	3352673.0457925	NaN	3352674.0291738	3352674.54571513
102	18	0	0	90	36.1581920903955	36.241610738255	10	0.333359559997916	2	11	6	NaN	2	3	0.0884714403412524	0	1	NaN	334	6	19	2	120	220	320	NaN	520	0.0103944237343967	2	1	NaN	3352676.362636	NaN	3352677.3461577	3352677.86271458
102	18	0	0	90	36.1581920903955	36.241610738255	12	0.400031471997499	2	2	1	NaN	1	5	0.0884714403412524	0	1	NaN	335	6	20	2	120	220	320	NaN	520	0.708154871594161	1	1	NaN	3352678.6795102	NaN	3352679.662948	3352680.17960373
102	18	0	0	90	36.1581920903955	36.241610738255	23	0.766726987995207	2	2	1	NaN	1	5	0.0884714403412524	0	1	NaN	336	6	21	2	120	220	320	NaN	520	0.651632423978299	1	1	NaN	3352681.6966013	NaN	3352682.6800161	3352683.19656718
102	18	0	0	90	36.1581920903955	36.241610738255	12	0.400031471997499	2	1	5	NaN	1	5	0.0884714403412524	0	1	NaN	337	6	22	2	120	220	320	NaN	520	0.0104014240205288	2	0	NaN	3352684.6636566	NaN	3352685.6469776	3352686.16353068
102	18	0	0	90	36.1581920903955	36.241610738255	11	0.366695515997708	2	4	4	NaN	1	5	0.0884714403412524	0	1	NaN	338	6	23	2	120	220	320	NaN	520	0.0104038240388036	2	0	NaN	3352687.3638056	NaN	3352688.3472391	3352688.86379408
102	18	0	0	90	36.1581920903955	36.241610738255	24	0.800062943994999	2	9	4	NaN	2	3	0.0884714403412524	0	1	NaN	339	6	24	2	120	220	320	NaN	520	0.0104025714099407	1	0	NaN	3352689.8639522	NaN	3352690.847484	3352691.36403463
102	18	0	0	90	36.1581920903955	36.241610738255	16	0.533375295996666	2	2	6	NaN	1	5	0.0884714403412524	0	1	NaN	340	6	25	2	120	220	320	NaN	520	0.0103910760954022	2	0	NaN	3352692.1808532	NaN	3352693.1643844	3352693.68092312
102	18	0	0	90	36.1581920903955	36.241610738255	13	0.433367427997291	2	5	4	NaN	1	3	0.0884714403412524	0	1	NaN	341	6	26	2	120	220	320	NaN	520	0.635457524098456	1	1	NaN	3352694.6645438	NaN	3352695.6479493	3352696.16450898
102	18	0	0	90	36.1581920903955	36.241610738255	6	0.20001573599875	2	10	1	NaN	2	3	0.0884714403412524	0	1	NaN	342	6	27	2	120	220	320	NaN	520	1.42915542377159	2	1	NaN	3352697.6148581	NaN	3352698.598219	3352699.11479668
102	18	0	0	90	36.1581920903955	36.241610738255	0	0	1	1	3	NaN	1	5	0.0884714403412524	0	1	NaN	343	6	28	2	110	210	310	NaN	510	0.0104250190779567	1	1	NaN	3352701.3650949	NaN	3352702.3486643	3352702.86515628
102	18	0	0	90	36.1581920903955	36.241610738255	18	0.600047207996249	2	10	4	NaN	2	3	0.0884714403412524	0	1	NaN	344	6	29	2	120	220	320	NaN	520	0.0103889238089323	2	1	NaN	3352703.7820914	NaN	3352704.7655223	3352705.28207278
102	18	0	0	90	36.1581920903955	36.241610738255	17	0.566711251996458	2	3	1	NaN	1	4	0.0884714403412524	0	1	NaN	345	6	30	2	120	220	320	NaN	520	0.0104064713232219	2	0	NaN	3352706.1156797	NaN	3352707.0990615	3352707.61562793
102	18	0	0	90	36.1581920903955	36.241610738255	17	0.566711251996458	2	2	2	NaN	1	3	0.0884714403412524	0	1	NaN	346	6	31	2	120	220	320	NaN	520	0.0102961380034685	1	1	NaN	3352708.4492472	NaN	3352709.4326471	3352709.94920186
102	18	0	0	90	36.1581920903955	36.241610738255	6	0.20001573599875	2	6	2	NaN	1	5	0.0884714403412524	0	1	NaN	347	6	32	2	120	220	320	NaN	520	1.66176172392443	1	1	NaN	3352710.7660915	NaN	3352711.7495669	3352712.26609198
102	18	0	0	90	36.1581920903955	36.241610738255	25	0.833398899994791	2	1	3	NaN	1	4	0.0884714403412524	0	1	NaN	348	6	33	2	120	220	320	NaN	520	0.0104371667839587	1	1	NaN	3352714.7498645	NaN	3352715.7332624	3352716.24980943
102	18	0	0	90	36.1581920903955	36.241610738255	0	0	1	5	6	NaN	1	3	0.0884714403412524	0	1	NaN	349	6	34	2	110	210	310	NaN	510	0.0104165715165436	1	1	NaN	3352717.083422	NaN	3352718.0668172	3352718.58337403
102	18	0	0	90	36.1581920903955	36.241610738255	10	0.333359559997916	2	9	3	NaN	2	3	0.0884714403412524	0	1	NaN	350	6	35	2	120	220	320	NaN	520	0.171514371410012	1	0	NaN	3352719.4003094	NaN	3352720.3837053	3352720.90027033
102	18	0	0	90	36.1581920903955	36.241610738255	19	0.633383163996041	2	5	3	NaN	1	3	0.0884714403412524	0	1	NaN	351	6	36	2	120	220	320	NaN	520	0.104129719082266	2	0	NaN	3352721.8838607	NaN	3352722.8672875	3352723.38383838
102	18	0	0	90	36.1581920903955	36.241610738255	22	0.733391031995416	2	8	1	NaN	2	3	0.0884714403412524	0	1	NaN	352	6	37	2	120	220	320	NaN	520	0.0103879240341485	1	0	NaN	3352724.3006906	NaN	3352725.2841936	3352725.80075328
102	18	0	0	90	36.1581920903955	36.241610738255	18	0.600047207996249	2	9	6	NaN	2	5	0.0884714403412524	0	1	NaN	353	6	38	2	120	220	320	NaN	520	0.0103809763677418	2	1	NaN	3352726.6176998	NaN	3352727.6010984	3352728.11764772
102	18	0	0	90	36.1581920903955	36.241610738255	7	0.233351691998541	2	3	6	NaN	1	4	0.0884714403412524	0	1	NaN	354	6	39	2	120	220	320	NaN	520	1.07736337604001	2	0	NaN	3352728.9345804	NaN	3352729.9179838	3352730.43453782
102	18	0	0	90	36.1581920903955	36.241610738255	8	0.266687647998333	2	5	5	NaN	1	3	0.0884714403412524	0	1	NaN	355	6	40	2	120	220	320	NaN	520	0.973967071156949	2	0	NaN	3352732.31825	NaN	3352733.3016518	3352733.81820413
102	18	0	0	90	36.1581920903955	36.241610738255	7	0.233351691998541	2	10	2	NaN	2	3	0.0884714403412524	0	1	NaN	356	6	41	2	120	220	320	NaN	520	0.205907671246678	2	1	NaN	3352735.901907	NaN	3352736.8853455	3352737.40188243
102	18	0	0	90	36.1581920903955	36.241610738255	22	0.733391031995416	2	7	6	NaN	2	5	0.0884714403412524	0	1	NaN	357	6	42	2	120	220	320	NaN	520	0.489094624295831	2	1	NaN	3352738.4188534	NaN	3352739.4022583	3352739.91880548
102	18	0	0	90	36.1581920903955	36.241610738255	13	0.433367427997291	2	2	4	NaN	1	4	0.0884714403412524	0	1	NaN	358	6	43	2	120	220	320	NaN	520	0.0104049239307642	2	0	NaN	3352741.2191526	NaN	3352742.2025347	3352742.71907808
102	18	0	0	90	36.1581920903955	36.241610738255	18	0.600047207996249	2	11	4	NaN	2	3	0.0884714403412524	0	1	NaN	359	6	44	2	120	220	320	NaN	520	0.0103938239626586	2	1	NaN	3352743.7026414	NaN	3352744.6861053	3352745.20265238
102	18	0	0	90	36.1581920903955	36.241610738255	12	0.400031471997499	2	8	6	NaN	2	5	0.0884714403412524	0	1	NaN	360	6	45	2	120	220	320	NaN	520	0.0102823902852833	2	1	NaN	3352746.0362621	NaN	3352747.0196804	3352747.53624131
102	18	0	0	90	36.1581920903955	36.241610738255	16	0.533375295996666	2	7	3	NaN	2	5	0.0884714403412524	0	1	NaN	361	6	46	2	120	220	320	NaN	520	0.0103872241452336	2	1	NaN	3352748.3531658	NaN	3352749.3365678	3352749.85311538
102	18	0	0	90	36.1581920903955	36.241610738255	23	0.766726987995207	2	2	3	NaN	1	4	0.0884714403412524	0	1	NaN	362	6	47	2	120	220	320	NaN	520	0.0104077714495361	1	1	NaN	3352750.669934	NaN	3352751.6534516	3352752.16999763
102	18	0	0	90	36.1581920903955	36.241610738255	9	0.300023603998125	2	6	5	NaN	1	5	0.0884714403412524	0	1	NaN	363	6	48	2	120	220	320	NaN	520	0.010396724101156	1	1	NaN	3352752.986828	NaN	3352753.9703412	3352754.48690028
102	18	0	0	90	36.1581920903955	36.241610738255	9	0.300023603998125	2	3	4	NaN	1	3	0.0884714403412524	0	1	NaN	364	6	49	2	120	220	320	NaN	520	0.924416824243963	1	1	NaN	3352755.3038476	NaN	3352756.28723	3352756.80379938
102	18	0	0	90	36.1581920903955	36.241610738255	10	0.333359559997916	2	6	2	NaN	1	4	0.0884714403412524	0	1	NaN	365	6	50	2	120	220	320	NaN	520	0.154509775806218	1	1	NaN	3352758.5375102	NaN	3352759.5208859	3352760.03744732
102	18	0	0	90	36.1581920903955	36.241610738255	12	0.400031471997499	2	10	5	NaN	2	4	0.0884714403412524	0	1	NaN	366	6	51	2	120	220	320	NaN	520	0.0104026240296662	1	0	NaN	3352761.0044038	NaN	3352761.9878094	3352762.50435698
102	18	0	0	90	36.1581920903955	36.241610738255	22	0.733391031995416	2	9	1	NaN	2	4	0.0884714403412524	0	1	NaN	367	6	52	2	120	220	320	NaN	520	0.939089957159013	2	1	NaN	3352763.3213227	NaN	3352764.3046929	3352764.82123664
102	18	0	0	90	36.1581920903955	36.241610738255	21	0.700055075995624	2	9	5	NaN	2	3	0.0884714403412524	0	1	NaN	368	6	53	2	120	220	320	NaN	520	0.208665624260902	1	0	NaN	3352766.571618	NaN	3352767.5550168	3352768.07157038
102	18	0	0	90	36.1581920903955	36.241610738255	17	0.566711251996458	2	11	3	NaN	2	5	0.0884714403412524	0	1	NaN	369	6	54	2	120	220	320	NaN	520	0.0104005713947117	2	1	NaN	3352769.2885532	NaN	3352770.2719393	3352770.78849643
102	18	0	0	90	36.1581920903955	36.241610738255	18	0.600047207996249	2	7	6	NaN	2	4	0.0884714403412524	0	1	NaN	370	6	55	2	120	220	320	NaN	520	0.454633924178779	2	1	NaN	3352771.6054313	NaN	3352772.5888545	3352773.10540118
102	18	0	0	90	36.1581920903955	36.241610738255	0	0	1	9	6	NaN	2	3	0.0884714403412524	0	1	NaN	371	6	56	2	110	210	310	NaN	510	0.0716635715216398	2	1	NaN	3352774.3723933	NaN	3352775.3557827	3352775.87233123
102	18	0	0	90	36.1581920903955	36.241610738255	11	0.366695515997708	2	9	2	NaN	2	4	0.0884714403412524	0	1	NaN	372	6	57	2	120	220	320	NaN	520	0.0103966239839792	2	1	NaN	3352776.7558049	NaN	3352777.739396	3352778.25590388
102	18	0	0	90	36.1581920903955	36.241610738255	21	0.700055075995624	2	10	2	NaN	2	5	0.0884714403412524	0	1	NaN	373	6	58	2	120	220	320	NaN	520	7.1232517240569	2	1	NaN	3352779.072777	NaN	3352780.0562254	3352780.57279728
102	18	0	0	90	36.1581920903955	36.241610738255	20	0.666719119995832	2	1	3	NaN	1	5	0.0884714403412524	0	1	NaN	374	6	59	2	120	220	320	NaN	520	0.840340324211866	1	1	NaN	3352788.7237881	NaN	3352789.7071903	3352790.22373948
102	18	0	0	90	36.1581920903955	36.241610738255	20	0.666719119995832	2	5	6	NaN	1	3	0.0884714403412524	0	1	NaN	375	6	60	2	120	220	320	NaN	520	0.0104249189607799	1	1	NaN	3352792.5074617	NaN	3352793.4908824	3352794.00744138
102	18	0	0	90	36.1581920903955	36.241610738255	12	0.400031471997499	2	11	1	NaN	2	5	0.0884714403412524	0	1	NaN	376	6	61	2	120	220	320	NaN	520	0.779060218948871	2	1	NaN	3352794.8409142	NaN	3352795.8244576	3352796.34100348
102	18	0	0	90	36.1581920903955	36.241610738255	8	0.266687647998333	2	9	1	NaN	2	4	0.0884714403412524	0	1	NaN	377	6	62	2	120	220	320	NaN	520	0.783383771311492	2	1	NaN	3352797.9247091	NaN	3352798.9080882	3352799.42464603
102	18	0	0	90	36.1581920903955	36.241610738255	13	0.433367427997291	2	2	2	NaN	1	4	0.0884714403412524	0	1	NaN	378	6	63	2	120	220	320	NaN	520	0.0103977243416011	1	1	NaN	3352801.0250348	NaN	3352802.0083922	3352802.52495078
102	18	0	0	90	36.1581920903955	36.241610738255	13	0.433367427997291	2	4	4	NaN	1	5	0.0884714403412524	0	1	NaN	379	7	1	2	120	220	320	NaN	520	0.818650723900646	2	0	NaN	3352819.792842	NaN	3352820.7769149	3352821.29346398
102	18	0	0	90	36.1581920903955	36.241610738255	17	0.566711251996458	2	5	4	NaN	1	3	0.0884714403412524	0	1	NaN	380	7	2	2	120	220	320	NaN	520	0.820960771292448	2	0	NaN	3352822.9271601	NaN	3352823.9105433	3352824.42710083
102	18	0	0	90	36.1581920903955	36.241610738255	0	0	1	3	6	NaN	1	5	0.0884714403412524	0	1	NaN	381	7	3	2	110	210	310	NaN	510	0.010398724116385	1	1	NaN	3352826.0606668	NaN	3352827.0441962	3352827.56074598
102	18	0	0	90	36.1581920903955	36.241610738255	19	0.633383163996041	2	2	1	NaN	1	3	0.0884714403412524	0	1	NaN	382	7	4	2	120	220	320	NaN	520	0.746753790415823	1	1	NaN	3352828.3775455	NaN	3352829.3610774	3352829.87764381
102	18	0	0	90	36.1581920903955	36.241610738255	13	0.433367427997291	2	9	3	NaN	2	4	0.0884714403412524	0	1	NaN	383	7	5	2	120	220	320	NaN	520	0.783716323785484	2	1	NaN	3352831.4446705	NaN	3352832.4280606	3352832.94460708
102	18	0	0	90	36.1581920903955	36.241610738255	19	0.633383163996041	2	11	4	NaN	2	3	0.0884714403412524	0	1	NaN	384	7	6	2	120	220	320	NaN	520	0.0104206716641784	2	1	NaN	3352834.5449656	NaN	3352835.5283399	3352836.04490883
102	18	0	0	90	36.1581920903955	36.241610738255	0	0	1	2	1	NaN	1	5	0.0884714403412524	0	1	NaN	385	7	7	2	110	210	310	NaN	510	0.670634471345693	1	1	NaN	3352836.8618525	NaN	3352837.8452573	3352838.36179683
102	18	0	0	90	36.1581920903955	36.241610738255	22	0.733391031995416	2	2	2	NaN	1	5	0.0884714403412524	0	1	NaN	386	7	8	2	120	220	320	NaN	520	0.0104156713932753	1	1	NaN	3352839.8454743	NaN	3352840.8288792	3352841.34543163
102	18	0	0	90	36.1581920903955	36.241610738255	7	0.233351691998541	2	3	6	NaN	1	4	0.0884714403412524	0	1	NaN	387	7	9	2	120	220	320	NaN	520	0.0103590288199484	1	1	NaN	3352842.1623774	NaN	3352843.1457797	3352843.66233197
102	18	0	0	90	36.1581920903955	36.241610738255	8	0.266687647998333	2	4	3	NaN	1	3	0.0884714403412524	0	1	NaN	388	7	10	2	120	220	320	NaN	520	0.0104229194112122	1	1	NaN	3352844.4959434	NaN	3352845.4793228	3352845.99587718
102	18	0	0	90	36.1581920903955	36.241610738255	18	0.600047207996249	2	1	4	NaN	1	4	0.0884714403412524	0	1	NaN	389	7	11	2	120	220	320	NaN	520	1.39141732407734	1	1	NaN	3352846.8128454	NaN	3352847.7962336	3352848.31278438
102	18	0	0	90	36.1581920903955	36.241610738255	23	0.766726987995207	2	1	1	NaN	1	4	0.0884714403412524	0	1	NaN	390	7	12	2	120	220	320	NaN	520	0.0909106712788343	2	0	NaN	3352850.5130637	NaN	3352851.4965957	3352852.01314593
102	18	0	0	90	36.1581920903955	36.241610738255	8	0.266687647998333	2	10	3	NaN	2	5	0.0884714403412524	0	1	NaN	391	7	13	2	120	220	320	NaN	520	0.010388424154371	1	0	NaN	3352853.513461	NaN	3352854.4968956	3352855.01344298
102	18	0	0	90	36.1581920903955	36.241610738255	23	0.766726987995207	2	5	3	NaN	1	5	0.0884714403412524	0	1	NaN	392	7	14	2	120	220	320	NaN	520	0.301143171265721	1	1	NaN	3352855.8470496	NaN	3352856.830447	3352857.34699513
102	18	0	0	90	36.1581920903955	36.241610738255	6	0.20001573599875	2	4	6	NaN	1	3	0.0884714403412524	0	1	NaN	393	7	15	2	120	220	320	NaN	520	0.010392724070698	1	1	NaN	3352858.4639579	NaN	3352859.4473817	3352859.96393018
102	18	0	0	90	36.1581920903955	36.241610738255	8	0.266687647998333	2	7	1	NaN	2	3	0.0884714403412524	0	1	NaN	394	7	16	2	120	220	320	NaN	520	0.0104280193336308	2	1	NaN	3352860.7808736	NaN	3352861.7642597	3352862.28081788
102	18	0	0	90	36.1581920903955	36.241610738255	22	0.733391031995416	2	8	4	NaN	2	4	0.0884714403412524	0	1	NaN	395	7	17	2	120	220	320	NaN	520	0.0103963236324489	1	0	NaN	3352863.1144351	NaN	3352864.097843	3352864.61438738
102	18	0	0	90	36.1581920903955	36.241610738255	18	0.600047207996249	2	3	4	NaN	1	4	0.0884714403412524	0	1	NaN	396	7	18	2	120	220	320	NaN	520	0.0104156713932753	1	1	NaN	3352865.448004	NaN	3352866.4313908	3352866.94794763
102	18	0	0	90	36.1581920903955	36.241610738255	20	0.666719119995832	2	6	6	NaN	1	3	0.0884714403412524	0	1	NaN	397	7	19	2	120	220	320	NaN	520	0.246622223872691	1	1	NaN	3352867.7814419	NaN	3352868.7649564	3352869.28150998
102	18	0	0	90	36.1581920903955	36.241610738255	16	0.533375295996666	2	2	4	NaN	1	5	0.0884714403412524	0	1	NaN	398	7	20	2	120	220	320	NaN	520	0.0103777763433754	1	1	NaN	3352870.348455	NaN	3352871.3318735	3352871.84842992
102	18	0	0	90	36.1581920903955	36.241610738255	23	0.766726987995207	2	11	6	NaN	2	3	0.0884714403412524	0	1	NaN	399	7	21	2	120	220	320	NaN	520	0.730795124080032	2	1	NaN	3352872.6653599	NaN	3352873.6487875	3352874.16532588
102	18	0	0	90	36.1581920903955	36.241610738255	14	0.466703383997083	2	4	6	NaN	1	3	0.0884714403412524	0	1	NaN	400	7	22	2	120	220	320	NaN	520	0.0404177713207901	1	1	NaN	3352875.7156669	NaN	3352876.6990662	3352877.21562133
102	18	0	0	90	36.1581920903955	36.241610738255	0	0	1	12	2	NaN	2	3	0.0884714403412524	0	1	NaN	401	7	23	2	110	210	310	NaN	510	0.194414224009961	2	1	NaN	3352878.065883	NaN	3352879.0492975	3352879.56584428
102	18	0	0	90	36.1581920903955	36.241610738255	25	0.833398899994791	2	3	2	NaN	1	4	0.0884714403412524	0	1	NaN	402	7	24	2	120	220	320	NaN	520	0.27802997129038	1	1	NaN	3352880.5660275	NaN	3352881.5495379	3352882.06609313
102	18	0	0	90	36.1581920903955	36.241610738255	6	0.20001573599875	2	12	6	NaN	2	4	0.0884714403412524	0	1	NaN	403	7	25	2	120	220	320	NaN	520	0.0104100713506341	2	1	NaN	3352883.3663527	NaN	3352884.3498268	3352884.86636323
102	18	0	0	90	36.1581920903955	36.241610738255	11	0.366695515997708	2	12	6	NaN	2	5	0.0884714403412524	0	1	NaN	404	7	26	2	120	220	320	NaN	520	0.010417670942843	2	1	NaN	3352885.6833142	NaN	3352886.6667069	3352887.18326213
102	18	0	0	90	36.1581920903955	36.241610738255	12	0.400031471997499	2	4	1	NaN	1	3	0.0884714403412524	0	1	NaN	405	7	27	2	120	220	320	NaN	520	0.0103935240767896	1	1	NaN	3352888.0168731	NaN	3352889.0003039	3352889.51683098
102	18	0	0	90	36.1581920903955	36.241610738255	17	0.566711251996458	2	9	6	NaN	2	5	0.0884714403412524	0	1	NaN	406	7	28	2	120	220	320	NaN	520	0.733668319415301	2	1	NaN	3352890.3504388	NaN	3352891.3338311	3352891.85038678
102	18	0	0	90	36.1581920903955	36.241610738255	25	0.833398899994791	2	5	3	NaN	1	4	0.0884714403412524	0	1	NaN	407	7	29	2	120	220	320	NaN	520	0.0104222712107003	1	1	NaN	3352893.400729	NaN	3352894.3841337	3352894.90068103
102	18	0	0	90	36.1581920903955	36.241610738255	7	0.233351691998541	2	2	5	NaN	1	5	0.0884714403412524	0	1	NaN	408	7	30	2	120	220	320	NaN	520	0.0104163191281259	1	1	NaN	3352895.7176346	NaN	3352896.7010301	3352897.21758568
102	18	0	0	90	36.1581920903955	36.241610738255	9	0.300023603998125	2	4	6	NaN	1	5	0.0884714403412524	0	1	NaN	409	7	31	2	120	220	320	NaN	520	0.633233333472162	1	1	NaN	3352898.0512087	NaN	3352899.0345962	3352899.55114097
102	18	0	0	90	36.1581920903955	36.241610738255	16	0.533375295996666	2	4	1	NaN	1	4	0.0884714403412524	0	1	NaN	410	7	32	2	120	220	320	NaN	520	0.0104084713384509	1	1	NaN	3352901.0014835	NaN	3352901.9848817	3352902.50143203
102	18	0	0	90	36.1581920903955	36.241610738255	8	0.266687647998333	2	2	3	NaN	1	4	0.0884714403412524	0	1	NaN	411	7	33	2	120	220	320	NaN	520	0.629916723817587	1	1	NaN	3352903.318367	NaN	3352904.3017829	3352904.81833648
102	18	0	0	90	36.1581920903955	36.241610738255	20	0.666719119995832	2	8	2	NaN	2	3	0.0884714403412524	0	1	NaN	412	7	34	2	120	220	320	NaN	520	0.526231071446091	2	1	NaN	3352906.3019958	NaN	3352907.2854454	3352907.80195093
102	18	0	0	90	36.1581920903955	36.241610738255	18	0.600047207996249	2	2	6	NaN	1	3	0.0884714403412524	0	1	NaN	413	7	35	2	120	220	320	NaN	520	0.0367404241114855	2	0	NaN	3352909.1356177	NaN	3352910.1190215	3352910.63557308
102	18	0	0	90	36.1581920903955	36.241610738255	6	0.20001573599875	2	11	4	NaN	2	3	0.0884714403412524	0	1	NaN	414	7	36	2	120	220	320	NaN	520	0.0104191713035107	2	1	NaN	3352911.4858426	NaN	3352912.4692505	3352912.98579503
102	18	0	0	90	36.1581920903955	36.241610738255	22	0.733391031995416	2	12	4	NaN	2	5	0.0884714403412524	0	1	NaN	415	7	37	2	120	220	320	NaN	520	0.0103783765807748	2	1	NaN	3352913.802731	NaN	3352914.7861415	3352915.30268532
102	18	0	0	90	36.1581920903955	36.241610738255	12	0.400031471997499	2	7	1	NaN	2	3	0.0884714403412524	0	1	NaN	416	7	38	2	120	220	320	NaN	520	0.0104080713354051	2	1	NaN	3352916.3363196	NaN	3352917.319725	3352917.83626863
102	18	0	0	90	36.1581920903955	36.241610738255	9	0.300023603998125	2	7	5	NaN	2	5	0.0884714403412524	0	1	NaN	417	7	39	2	120	220	320	NaN	520	0.0103910239413381	2	1	NaN	3352918.6532196	NaN	3352919.6366075	3352920.15317168
102	18	0	0	90	36.1581920903955	36.241610738255	6	0.20001573599875	2	9	2	NaN	2	5	0.0884714403412524	0	1	NaN	418	7	40	2	120	220	320	NaN	520	1.23431997094303	2	1	NaN	3352920.970005	NaN	3352921.9535489	3352922.47005983
102	18	0	0	90	36.1581920903955	36.241610738255	7	0.233351691998541	2	5	2	NaN	1	4	0.0884714403412524	0	1	NaN	419	7	41	2	120	220	320	NaN	520	0.0103914239443839	2	0	NaN	3352924.5204757	NaN	3352925.5038619	3352926.02041768
102	18	0	0	90	36.1581920903955	36.241610738255	13	0.433367427997291	2	4	3	NaN	1	3	0.0884714403412524	0	1	NaN	420	7	42	2	120	220	320	NaN	520	0.487199170980603	1	1	NaN	3352926.8373535	NaN	3352927.8207648	3352928.33730893
102	18	0	0	90	36.1581920903955	36.241610738255	21	0.700055075995624	2	1	4	NaN	1	3	0.0884714403412524	0	1	NaN	421	7	43	2	120	220	320	NaN	520	0.893803524319082	2	0	NaN	3352929.8542963	NaN	3352930.8377232	3352931.35426568
102	18	0	0	90	36.1581920903955	36.241610738255	12	0.400031471997499	2	3	5	NaN	1	5	0.0884714403412524	0	1	NaN	422	7	44	2	120	220	320	NaN	520	0.123265771195292	1	1	NaN	3352933.1212779	NaN	3352934.1047001	3352934.62125283
102	18	0	0	90	36.1581920903955	36.241610738255	13	0.433367427997291	2	11	2	NaN	2	5	0.0884714403412524	0	1	NaN	423	7	45	2	120	220	320	NaN	520	0.921261171344668	2	1	NaN	3352935.5547469	NaN	3352936.5382764	3352937.05484753
102	18	0	0	90	36.1581920903955	36.241610738255	13	0.433367427997291	2	10	6	NaN	2	3	0.0884714403412524	0	1	NaN	424	7	46	2	120	220	320	NaN	520	0.984053771477193	2	1	NaN	3352938.7885204	NaN	3352939.7719239	3352940.28847503
102	18	0	0	90	36.1581920903955	36.241610738255	23	0.766726987995207	2	9	3	NaN	2	3	0.0884714403412524	0	1	NaN	425	7	47	2	120	220	320	NaN	520	0.0103734289295971	2	1	NaN	3352942.0888433	NaN	3352943.0722623	3352943.58880387
102	18	0	0	90	36.1581920903955	36.241610738255	23	0.766726987995207	2	1	6	NaN	1	4	0.0884714403412524	0	1	NaN	426	7	48	2	120	220	320	NaN	520	1.02249847119674	2	0	NaN	3352944.4057665	NaN	3352945.38917	3352945.90570073
102	18	0	0	90	36.1581920903955	36.241610738255	10	0.333359559997916	2	1	3	NaN	1	3	0.0884714403412524	0	1	NaN	427	7	49	2	120	220	320	NaN	520	0.680927471723408	1	1	NaN	3352947.7394247	NaN	3352948.7228197	3352949.23935053
102	18	0	0	90	36.1581920903955	36.241610738255	9	0.300023603998125	2	10	6	NaN	2	5	0.0884714403412524	0	1	NaN	428	7	50	2	120	220	320	NaN	520	0.0104224192909896	2	1	NaN	3352950.923054	NaN	3352951.9064476	3352952.42300098
102	18	0	0	90	36.1581920903955	36.241610738255	22	0.733391031995416	2	11	6	NaN	2	3	0.0884714403412524	0	1	NaN	429	7	51	2	120	220	320	NaN	520	0.0445284238085151	2	1	NaN	3352953.239952	NaN	3352954.223346	3352954.73990298
102	18	0	0	90	36.1581920903955	36.241610738255	20	0.666719119995832	2	4	2	NaN	1	5	0.0884714403412524	0	1	NaN	430	7	52	2	120	220	320	NaN	520	0.285501519218087	1	1	NaN	3352955.606856	NaN	3352956.590235	3352957.10679688
102	18	0	0	90	36.1581920903955	36.241610738255	25	0.833398899994791	2	8	4	NaN	2	5	0.0884714403412524	0	1	NaN	431	7	53	2	120	220	320	NaN	520	1.02121572382748	2	1	NaN	3352958.2071108	NaN	3352959.1905071	3352959.70704638
102	18	0	0	90	36.1581920903955	36.241610738255	22	0.733391031995416	2	1	3	NaN	1	4	0.0884714403412524	0	1	NaN	432	7	54	2	120	220	320	NaN	520	4.05542647140101	1	1	NaN	3352961.5407595	NaN	3352962.5241565	3352963.04071103
102	18	0	0	90	36.1581920903955	36.241610738255	0	0	1	11	3	NaN	2	5	0.0884714403412524	0	1	NaN	433	7	55	2	110	210	310	NaN	510	0.0103910239413381	1	0	NaN	3352967.9080499	NaN	3352968.8914563	3352969.40801108
102	18	0	0	90	36.1581920903955	36.241610738255	15	0.500039339996874	2	12	4	NaN	2	3	0.0884714403412524	0	1	NaN	434	7	56	2	120	220	320	NaN	520	0.0104077714495361	2	1	NaN	3352970.2249479	NaN	3352971.2083456	3352971.72489733
102	18	0	0	90	36.1581920903955	36.241610738255	25	0.833398899994791	2	9	5	NaN	2	3	0.0884714403412524	0	1	NaN	435	7	57	2	120	220	320	NaN	520	0.0103915240615606	1	0	NaN	3352972.5585197	NaN	3352973.5418946	3352974.05846658
102	18	0	0	90	36.1581920903955	36.241610738255	20	0.666719119995832	2	12	5	NaN	2	3	0.0884714403412524	0	1	NaN	436	7	58	2	120	220	320	NaN	520	0.208356571383774	2	1	NaN	3352974.8919602	NaN	3352975.8754652	3352976.39202363
102	18	0	0	90	36.1581920903955	36.241610738255	14	0.466703383997083	2	10	1	NaN	2	3	0.0884714403412524	0	1	NaN	437	7	59	2	120	220	320	NaN	520	0.010359981097281	2	1	NaN	3352977.4089792	NaN	3352978.3923754	3352978.90894422
102	18	0	0	90	36.1581920903955	36.241610738255	21	0.700055075995624	2	8	1	NaN	2	5	0.0884714403412524	0	1	NaN	438	7	60	2	120	220	320	NaN	520	0.0104267192073166	2	1	NaN	3352979.7425469	NaN	3352980.7259451	3352981.24249878
102	18	0	0	90	36.1581920903955	36.241610738255	21	0.700055075995624	2	10	3	NaN	2	3	0.0884714403412524	0	1	NaN	439	7	61	2	120	220	320	NaN	520	0.160132924094796	2	1	NaN	3352982.0759947	NaN	3352983.0596683	3352983.57606128
102	18	0	0	90	36.1581920903955	36.241610738255	13	0.433367427997291	2	8	1	NaN	2	5	0.0884714403412524	0	1	NaN	440	7	62	2	120	220	320	NaN	520	0.852695871144533	1	0	NaN	3352984.5596918	NaN	3352985.5430868	3352986.05963393
102	18	0	0	90	36.1581920903955	36.241610738255	18	0.600047207996249	2	8	3	NaN	2	5	0.0884714403412524	0	1	NaN	441	7	63	2	120	220	320	NaN	520	0.0104374191723764	2	1	NaN	3352987.726664	NaN	3352988.7100699	3352989.22661448
102	18	0	0	90	36.1581920903955	36.241610738255	24	0.800062943994999	2	2	5	NaN	1	4	0.0884714403412524	0	1	NaN	442	8	1	2	120	220	320	NaN	520	0.127942624036223	2	0	NaN	3352995.0607132	NaN	3352996.044175	3352996.56067208
102	18	0	0	90	36.1581920903955	36.241610738255	15	0.500039339996874	2	2	5	NaN	1	5	0.0884714403412524	0	1	NaN	443	8	2	2	120	220	320	NaN	520	0.190003319177777	1	1	NaN	3352997.494333	NaN	3352998.4776863	3352998.99423508
102	18	0	0	90	36.1581920903955	36.241610738255	19	0.633383163996041	2	3	3	NaN	1	3	0.0884714403412524	0	1	NaN	444	8	3	2	120	220	320	NaN	520	0.0102686951868236	1	1	NaN	3352999.9945337	NaN	3353000.9779115	3353001.4945022
102	18	0	0	90	36.1581920903955	36.241610738255	7	0.233351691998541	2	4	3	NaN	1	5	0.0884714403412524	0	1	NaN	445	8	4	2	120	220	320	NaN	520	1.07720377109945	1	1	NaN	3353002.3113144	NaN	3353003.2948696	3353003.81138923
102	18	0	0	90	36.1581920903955	36.241610738255	9	0.300023603998125	2	4	5	NaN	1	5	0.0884714403412524	0	1	NaN	446	8	5	2	120	220	320	NaN	520	0.709209124092013	1	1	NaN	3353005.6950935	NaN	3353006.6785044	3353007.19505228
102	18	0	0	90	36.1581920903955	36.241610738255	14	0.466703383997083	2	11	5	NaN	2	4	0.0884714403412524	0	1	NaN	447	8	6	2	120	220	320	NaN	520	0.266242371406406	2	1	NaN	3353009.1620868	NaN	3353010.1454973	3353010.66205003
102	18	0	0	90	36.1581920903955	36.241610738255	14	0.466703383997083	2	6	6	NaN	1	4	0.0884714403412524	0	1	NaN	448	8	7	2	120	220	320	NaN	520	0.0104430713690817	1	1	NaN	3353011.7457027	NaN	3353012.7291129	3353013.24563583
102	18	0	0	90	36.1581920903955	36.241610738255	20	0.666719119995832	2	2	5	NaN	1	4	0.0884714403412524	0	1	NaN	449	8	8	2	120	220	320	NaN	520	0.0104076713323593	1	1	NaN	3353014.0624523	NaN	3353015.045989	3353015.56253173
102	18	0	0	90	36.1581920903955	36.241610738255	19	0.633383163996041	2	9	2	NaN	2	4	0.0884714403412524	0	1	NaN	450	8	9	2	120	220	320	NaN	520	0.785258590243757	2	1	NaN	3353016.3793612	NaN	3353017.3628743	3353017.87942861
102	18	0	0	90	36.1581920903955	36.241610738255	19	0.633383163996041	2	5	1	NaN	1	4	0.0884714403412524	0	1	NaN	451	8	10	2	120	220	320	NaN	520	0.010431919246912	2	0	NaN	3353019.479786	NaN	3353020.4631809	3353020.97974308
102	18	0	0	90	36.1581920903955	36.241610738255	24	0.800062943994999	2	11	1	NaN	2	4	0.0884714403412524	0	1	NaN	452	8	11	2	120	220	320	NaN	520	0.87885552411899	2	1	NaN	3353021.8133431	NaN	3353022.796741	3353023.31329888
102	18	0	0	90	36.1581920903955	36.241610738255	18	0.600047207996249	2	12	1	NaN	2	4	0.0884714403412524	0	1	NaN	453	8	12	2	120	220	320	NaN	520	0.0103932241909206	2	1	NaN	3353025.0136786	NaN	3353025.9970596	3353026.51361028
102	18	0	0	90	36.1581920903955	36.241610738255	17	0.566711251996458	2	6	4	NaN	1	3	0.0884714403412524	0	1	NaN	454	8	13	2	120	220	320	NaN	520	0.0104162711650133	1	1	NaN	3353027.3472354	NaN	3353028.3306079	3353028.84717623
102	18	0	0	90	36.1581920903955	36.241610738255	16	0.533375295996666	2	9	4	NaN	2	4	0.0884714403412524	0	1	NaN	455	8	14	2	120	220	320	NaN	520	0.010413771495223	2	1	NaN	3353029.66412	NaN	3353030.6475186	3353031.16406493
