subjno	age	gender	isPractice	viewdist	CmToPixX	CmToPixY	SOA_frm	SOA_time	targNum	targID	targExample	targRace	targGender	firstTargPos	contrast	familiarity	curr_staircase	iStair	TrialNum	BlockNum	blktrl	sessionNum	TC_FIXATION	TC_RSVP_START	TC_RSVP_END	TC_BLANK	TC_RESPONSE_ONSET	RT2afc	resp_2afc	acc	RSVPOnsetVBL	RSVPOnsetTime	RSVPOffsetVBL	RSVPOffsetTime	startrt_2afc
26	18	1	0	90	36.1581920903955	36.241610738255	22	0.733409072030336	2	10	2	NaN	2	4	0.0885331980424789	1	1	NaN	1	1	1	1	121	221	321	NaN	521	1.34150252793916	2	1	NaN	1718556.2779337	NaN	1718557.2611567	1718557.79422777
26	18	1	0	90	36.1581920903955	36.241610738255	9	0.30003098401241	2	3	2	NaN	1	3	0.0885331980424789	1	1	NaN	2	1	2	1	121	221	321	NaN	521	1.0157545239199	1	1	NaN	1718560.0115269	NaN	1718560.9948343	1718561.52793108
26	18	1	0	90	36.1581920903955	36.241610738255	11	0.366704536015168	2	9	2	NaN	2	3	0.0885331980424789	1	1	NaN	3	1	3	1	121	221	321	NaN	521	1.51259192801081	2	1	NaN	1718563.3783193	NaN	1718564.3617598	1718564.89492557
26	18	1	0	90	36.1581920903955	36.241610738255	19	0.633398744026199	2	8	3	NaN	2	3	0.0885331980424789	1	1	NaN	4	1	4	1	121	221	321	NaN	521	0.446698092157021	2	1	NaN	1718567.245382	NaN	1718568.2287788	1718568.74531021
26	18	1	0	90	36.1581920903955	36.241610738255	19	0.633398744026199	2	12	5	NaN	2	5	0.0885331980424789	1	1	NaN	5	1	5	1	121	221	321	NaN	521	0.0715832761488855	2	1	NaN	1718570.0123218	NaN	1718570.9956934	1718571.51225322
26	18	1	0	90	36.1581920903955	36.241610738255	25	0.833419400034472	2	11	4	NaN	2	4	0.0885331980424789	1	1	NaN	6	1	6	1	121	221	321	NaN	521	0.414919923990965	2	1	NaN	1718572.4292129	NaN	1718573.412602	1718573.92914668
26	18	1	0	90	36.1581920903955	36.241610738255	11	0.366704536015168	2	4	1	NaN	1	4	0.0885331980424789	1	1	NaN	7	1	7	1	121	221	321	NaN	521	2.52895702398382	1	1	NaN	1718575.1628114	NaN	1718576.1462105	1718576.66275268
26	18	1	0	90	36.1581920903955	36.241610738255	17	0.566725192023441	2	8	1	NaN	2	3	0.0885331980424789	1	1	NaN	8	1	8	1	121	221	321	NaN	521	0.901555283926427	2	1	NaN	1718580.0299771	NaN	1718581.0133659	1718581.52990062
26	18	1	0	90	36.1581920903955	36.241610738255	23	0.766745848031715	2	1	5	NaN	1	3	0.0885331980424789	1	1	NaN	9	1	9	1	121	221	321	NaN	521	0.892554447986186	1	1	NaN	1718583.2636163	NaN	1718584.2470093	1718584.76355925
26	18	1	0	90	36.1581920903955	36.241610738255	20	0.666735520027578	2	7	2	NaN	2	3	0.0885331980424789	1	1	NaN	10	1	10	1	121	221	321	NaN	521	0.779083071975037	2	1	NaN	1718586.4806188	NaN	1718587.4639911	1718587.98052293
26	18	1	0	90	36.1581920903955	36.241610738255	10	0.333367760013789	2	8	5	NaN	2	3	0.0885331980424789	1	1	NaN	11	1	11	1	121	221	321	NaN	521	1.24622492399067	2	1	NaN	1718589.5974789	NaN	1718590.5809679	1718591.09750448
26	18	1	0	90	36.1581920903955	36.241610738255	10	0.333367760013789	2	4	6	NaN	1	3	0.0885331980424789	1	1	NaN	12	1	12	1	121	221	321	NaN	521	0.407228276133537	1	1	NaN	1718593.1644302	NaN	1718594.1479903	1718594.66452642
26	18	1	0	90	36.1581920903955	36.241610738255	24	0.800082624033093	2	2	6	NaN	1	3	0.0885331980424789	1	1	NaN	13	1	13	1	121	221	321	NaN	521	0.345618879888207	1	1	NaN	1718595.8981783	NaN	1718596.8815901	1718597.39812252
26	18	1	0	90	36.1581920903955	36.241610738255	9	0.30003098401241	2	1	2	NaN	1	4	0.0885331980424789	1	1	NaN	14	1	14	1	121	221	321	NaN	521	0.846954627893865	1	1	NaN	1718598.565117	NaN	1718599.5485166	1718600.06504637
26	18	1	0	90	36.1581920903955	36.241610738255	16	0.533388416022062	2	6	5	NaN	1	3	0.0885331980424789	1	1	NaN	15	1	15	1	121	221	321	NaN	521	0.0834205760620534	1	1	NaN	1718601.8320879	NaN	1718602.815502	1718603.33203932
26	18	1	0	90	36.1581920903955	36.241610738255	7	0.233357432009652	2	2	6	NaN	1	5	0.0885331980424789	1	1	NaN	16	1	16	1	121	221	321	NaN	521	0.714904455700889	1	1	NaN	1718604.2490078	NaN	1718605.2324342	1718605.74893994
26	18	1	0	90	36.1581920903955	36.241610738255	20	0.666735520027578	2	2	3	NaN	1	5	0.0885331980424789	1	1	NaN	17	1	17	1	121	221	321	NaN	521	0.0806554760783911	1	1	NaN	1718607.2991874	NaN	1718608.2827317	1718608.79924462
26	18	1	0	90	36.1581920903955	36.241610738255	15	0.500051640020683	2	8	2	NaN	2	5	0.0885331980424789	1	1	NaN	18	1	18	1	121	221	321	NaN	521	0.384022876154631	2	1	NaN	1718609.7162154	NaN	1718610.6996149	1718611.21615012
26	18	1	0	90	36.1581920903955	36.241610738255	10	0.333367760013789	2	5	4	NaN	1	4	0.0885331980424789	1	1	NaN	19	1	19	1	121	221	321	NaN	521	0.0427720758598298	1	1	NaN	1718612.4331527	NaN	1718613.4165485	1718613.93307942
26	18	1	0	90	36.1581920903955	36.241610738255	21	0.700072296028957	2	5	6	NaN	1	5	0.0885331980424789	1	1	NaN	20	1	20	1	121	221	321	NaN	521	0.0838529318571091	1	1	NaN	1718614.8000362	NaN	1718615.7835005	1718616.29998777
26	18	1	0	90	36.1581920903955	36.241610738255	0	0	1	9	3	NaN	2	5	0.0885331980424789	1	1	NaN	21	1	21	1	111	211	311	NaN	511	0.0103713399730623	2	1	NaN	1718617.2169736	NaN	1718618.2003456	1718618.71688816
26	18	1	0	90	36.1581920903955	36.241610738255	16	0.533388416022062	2	11	2	NaN	2	4	0.0885331980424789	1	1	NaN	22	1	22	1	121	221	321	NaN	521	0.397259976016358	1	0	NaN	1718619.5505044	NaN	1718620.5338104	1718621.05043932
26	18	1	0	90	36.1581920903955	36.241610738255	25	0.833419400034472	2	11	1	NaN	2	4	0.0885331980424789	1	1	NaN	23	1	23	1	121	221	321	NaN	521	0.103781427955255	2	1	NaN	1718622.2841328	NaN	1718623.2675188	1718623.78404467
26	18	1	0	90	36.1581920903955	36.241610738255	14	0.466714864019305	2	8	4	NaN	2	4	0.0885331980424789	1	1	NaN	24	1	24	1	121	221	321	NaN	521	0.0104808760806918	2	1	NaN	1718624.7177107	NaN	1718625.7010865	1718626.21762692
26	18	1	0	90	36.1581920903955	36.241610738255	23	0.766745848031715	2	3	6	NaN	1	3	0.0885331980424789	1	1	NaN	25	1	25	1	121	221	321	NaN	521	0.425037791952491	1	1	NaN	1718627.0511186	NaN	1718628.0346559	1718628.55119361
26	18	1	0	90	36.1581920903955	36.241610738255	7	0.233357432009652	2	6	1	NaN	1	3	0.0885331980424789	1	1	NaN	26	1	26	1	121	221	321	NaN	521	3.19461957202293	1	1	NaN	1718629.8015202	NaN	1718630.7849029	1718631.30144623
26	18	1	0	90	36.1581920903955	36.241610738255	7	0.233357432009652	2	3	5	NaN	1	4	0.0885331980424789	1	1	NaN	27	1	27	1	121	221	321	NaN	521	1.2525750240311	1	1	NaN	1718635.3353848	NaN	1718636.3186994	1718636.83532948
26	18	1	0	90	36.1581920903955	36.241610738255	18	0.60006196802482	2	6	6	NaN	1	3	0.0885331980424789	1	1	NaN	28	1	28	1	121	221	321	NaN	521	0.08503029611893	1	1	NaN	1718638.9189475	NaN	1718639.9024652	1718640.4190173
26	18	1	0	90	36.1581920903955	36.241610738255	12	0.400041312016547	2	5	3	NaN	1	5	0.0885331980424789	1	1	NaN	29	1	29	1	121	221	321	NaN	521	0.468349939910695	1	1	NaN	1718641.335992	NaN	1718642.3193879	1718642.83592746
26	18	1	0	90	36.1581920903955	36.241610738255	21	0.700072296028957	2	4	4	NaN	1	4	0.0885331980424789	1	1	NaN	30	1	30	1	121	221	321	NaN	521	0.0836023960728198	1	1	NaN	1718644.1362505	NaN	1718645.1196609	1718645.6361988
26	18	1	0	90	36.1581920903955	36.241610738255	16	0.533388416022062	2	5	5	NaN	1	3	0.0885331980424789	1	1	NaN	31	1	31	1	121	221	321	NaN	521	2.56312462780625	1	1	NaN	1718646.5531624	NaN	1718647.5365555	1718648.05309497
26	18	1	0	90	36.1581920903955	36.241610738255	15	0.500051640020683	2	12	2	NaN	2	4	0.0885331980424789	1	1	NaN	32	1	32	1	121	221	321	NaN	521	0.959250571904704	2	1	NaN	1718651.6370142	NaN	1718652.6204062	1718653.13692433
26	18	1	0	90	36.1581920903955	36.241610738255	21	0.700072296028957	2	11	6	NaN	2	5	0.0885331980424789	1	1	NaN	33	1	33	1	121	221	321	NaN	521	0.339239223860204	2	1	NaN	1718654.9206563	NaN	1718655.903932	1718656.42057798
26	18	1	0	90	36.1581920903955	36.241610738255	18	0.60006196802482	2	9	4	NaN	2	5	0.0885331980424789	1	1	NaN	34	1	34	1	121	221	321	NaN	521	0.344757283804938	2	1	NaN	1718657.5876666	NaN	1718658.5709876	1718659.08751522
26	18	1	0	90	36.1581920903955	36.241610738255	11	0.366704536015168	2	8	4	NaN	2	5	0.0885331980424789	1	1	NaN	35	1	35	1	121	221	321	NaN	521	0.0105032278224826	2	1	NaN	1718660.254515	NaN	1718661.2379177	1718661.75443897
26	18	1	0	90	36.1581920903955	36.241610738255	9	0.30003098401241	2	7	6	NaN	2	3	0.0885331980424789	1	1	NaN	36	1	36	1	121	221	321	NaN	521	0.35162152396515	2	1	NaN	1718662.6047489	NaN	1718663.5881341	1718664.10466728
26	18	1	0	90	36.1581920903955	36.241610738255	21	0.700072296028957	2	1	1	NaN	1	3	0.0885331980424789	1	1	NaN	37	1	37	1	121	221	321	NaN	521	0.619960640091449	1	1	NaN	1718665.2883531	NaN	1718666.2717524	1718666.78827166
26	18	1	0	90	36.1581920903955	36.241610738255	0	0	1	1	4	NaN	1	5	0.0885331980424789	1	1	NaN	38	1	38	1	111	211	311	NaN	511	1.45332174398936	1	1	NaN	1718668.2386112	NaN	1718669.2220291	1718669.73856676
26	18	1	0	90	36.1581920903955	36.241610738255	8	0.266694208011031	2	7	3	NaN	2	4	0.0885331980424789	1	1	NaN	39	1	39	1	121	221	321	NaN	521	0.010491123655811	2	1	NaN	1718672.0222455	NaN	1718673.0057267	1718673.52225798
26	18	1	0	90	36.1581920903955	36.241610738255	15	0.500051640020683	2	7	3	NaN	2	4	0.0885331980424789	1	1	NaN	40	1	40	1	121	221	321	NaN	521	0.13638637191616	2	1	NaN	1718674.3558744	NaN	1718675.3392999	1718675.85582123
26	18	1	0	90	36.1581920903955	36.241610738255	7	0.233357432009652	2	1	4	NaN	1	4	0.0885331980424789	1	1	NaN	41	1	41	1	121	221	321	NaN	521	0.534199123736471	1	1	NaN	1718676.8061493	NaN	1718677.7895353	1718678.30606028
26	18	1	0	90	36.1581920903955	36.241610738255	7	0.233357432009652	2	11	5	NaN	2	5	0.0885331980424789	1	1	NaN	42	1	42	1	121	221	321	NaN	521	0.235578828025609	2	1	NaN	1718679.6565008	NaN	1718680.6398063	1718681.15634327
26	18	1	0	90	36.1581920903955	36.241610738255	10	0.333367760013789	2	8	3	NaN	2	5	0.0885331980424789	1	1	NaN	43	1	43	1	121	221	321	NaN	521	0.0766894922126085	2	1	NaN	1718682.2233393	NaN	1718683.206725	1718683.72326701
26	18	1	0	90	36.1581920903955	36.241610738255	22	0.733409072030336	2	7	5	NaN	2	3	0.0885331980424789	1	1	NaN	44	1	44	1	121	221	321	NaN	521	0.0104111761320382	2	1	NaN	1718684.6235657	NaN	1718685.6069765	1718686.12350082
26	18	1	0	90	36.1581920903955	36.241610738255	14	0.466714864019305	2	2	1	NaN	1	4	0.0885331980424789	1	1	NaN	45	1	45	1	121	221	321	NaN	521	0.0104562761262059	1	1	NaN	1718686.9571505	NaN	1718687.9405375	1718688.45705942
26	18	1	0	90	36.1581920903955	36.241610738255	14	0.466714864019305	2	6	2	NaN	1	3	0.0885331980424789	1	1	NaN	46	1	46	1	121	221	321	NaN	521	3.40123592386954	1	1	NaN	1718689.2906781	NaN	1718690.2740942	1718690.79062828
26	18	1	0	90	36.1581920903955	36.241610738255	23	0.766745848031715	2	2	2	NaN	1	4	0.0885331980424789	1	1	NaN	47	1	47	1	121	221	321	NaN	521	1.03563002799638	1	1	NaN	1718695.0246161	NaN	1718696.0079792	1718696.52452957
26	18	1	0	90	36.1581920903955	36.241610738255	13	0.433378088017926	2	12	5	NaN	2	4	0.0885331980424789	1	1	NaN	48	1	48	1	121	221	321	NaN	521	1.13276587612927	2	1	NaN	1718698.3916034	NaN	1718699.3749819	1718699.89152802
26	18	1	0	90	36.1581920903955	36.241610738255	19	0.633398744026199	2	9	2	NaN	2	5	0.0885331980424789	1	1	NaN	49	1	49	1	121	221	321	NaN	521	0.843115776078776	2	1	NaN	1718701.825136	NaN	1718702.8086568	1718703.32518772
26	18	1	0	90	36.1581920903955	36.241610738255	7	0.233357432009652	2	7	2	NaN	2	4	0.0885331980424789	1	1	NaN	50	1	50	1	121	221	321	NaN	521	1.39605012396351	2	1	NaN	1718704.9922526	NaN	1718705.9756395	1718706.49216228
26	18	1	0	90	36.1581920903955	36.241610738255	15	0.500051640020683	2	6	6	NaN	1	4	0.0885331980424789	1	1	NaN	51	1	51	1	121	221	321	NaN	521	2.91862022387795	1	1	NaN	1718708.70914	NaN	1718709.6926544	1718710.20920198
26	18	1	0	90	36.1581920903955	36.241610738255	19	0.633398744026199	2	5	1	NaN	1	5	0.0885331980424789	1	1	NaN	52	1	52	1	121	221	321	NaN	521	1.5731746237725	1	1	NaN	1718713.9431371	NaN	1718714.9265109	1718715.44305178
26	18	1	0	90	36.1581920903955	36.241610738255	11	0.366704536015168	2	10	6	NaN	2	5	0.0885331980424789	1	1	NaN	53	1	53	1	121	221	321	NaN	521	1.0163029760588	2	1	NaN	1718717.8435108	NaN	1718718.826903	1718719.34342932
26	18	1	0	90	36.1581920903955	36.241610738255	15	0.500051640020683	2	1	1	NaN	1	5	0.0885331980424789	1	1	NaN	54	1	54	1	121	221	321	NaN	521	2.44208882795647	1	1	NaN	1718721.1938136	NaN	1718722.1772344	1718722.69375467
26	18	1	0	90	36.1581920903955	36.241610738255	21	0.700072296028957	2	5	1	NaN	1	4	0.0885331980424789	1	1	NaN	55	1	55	1	121	221	321	NaN	521	1.49912947998382	1	1	NaN	1718725.9608856	NaN	1718726.9443525	1718727.46089862
26	18	1	0	90	36.1581920903955	36.241610738255	0	0	1	10	4	NaN	2	4	0.0885331980424789	1	1	NaN	56	1	56	1	111	211	311	NaN	511	0.914011023938656	2	1	NaN	1718729.7779949	NaN	1718730.7614194	1718731.27793318
26	18	1	0	90	36.1581920903955	36.241610738255	21	0.700072296028957	2	12	6	NaN	2	5	0.0885331980424789	1	1	NaN	57	1	57	1	121	221	321	NaN	521	1.11272842809558	2	1	NaN	1718733.0116647	NaN	1718733.9950614	1718734.51159007
26	18	1	0	90	36.1581920903955	36.241610738255	14	0.466714864019305	2	11	6	NaN	2	4	0.0885331980424789	1	1	NaN	58	1	58	1	121	221	321	NaN	521	2.34304982796311	2	1	NaN	1718736.4453214	NaN	1718737.4287317	1718737.94525517
26	18	1	0	90	36.1581920903955	36.241610738255	11	0.366704536015168	2	8	3	NaN	2	5	0.0885331980424789	1	1	NaN	59	1	59	1	121	221	321	NaN	521	1.06793257594109	2	1	NaN	1718741.1124562	NaN	1718742.0958728	1718742.61239732
26	18	1	0	90	36.1581920903955	36.241610738255	16	0.533388416022062	2	5	4	NaN	1	4	0.0885331980424789	1	1	NaN	60	1	60	1	121	221	321	NaN	521	1.18822752404958	1	1	NaN	1718744.4961046	NaN	1718745.4795202	1718745.99604168
26	18	1	0	90	36.1581920903955	36.241610738255	12	0.400041312016547	2	2	6	NaN	1	3	0.0885331980424789	1	1	NaN	61	1	61	1	121	221	321	NaN	521	0.599974327953532	1	1	NaN	1718747.9964402	NaN	1718748.9798645	1718749.49639527
26	18	1	0	90	36.1581920903955	36.241610738255	16	0.533388416022062	2	4	2	NaN	1	4	0.0885331980424789	1	1	NaN	62	1	62	1	121	221	321	NaN	521	0.0985432360321283	1	1	NaN	1718750.913317	NaN	1718751.8968115	1718752.41334546
26	18	1	0	90	36.1581920903955	36.241610738255	11	0.366704536015168	2	1	6	NaN	1	3	0.0885331980424789	1	1	NaN	63	1	63	1	121	221	321	NaN	521	1.66506027593277	1	1	NaN	1718753.3469798	NaN	1718754.3303728	1718754.84691512
26	18	1	0	90	36.1581920903955	36.241610738255	10	0.333367760013789	2	10	4	NaN	2	3	0.0885331980424789	1	1	NaN	64	2	1	1	121	221	321	NaN	521	0.137313527986407	2	1	NaN	1718775.6825151	NaN	1718776.665915	1718777.18244877
26	18	1	0	90	36.1581920903955	36.241610738255	12	0.400041312016547	2	10	2	NaN	2	3	0.0885331980424789	1	1	NaN	65	2	2	1	121	221	321	NaN	521	1.30258228792809	2	1	NaN	1718778.1494167	NaN	1718779.1328277	1718779.64936181
26	18	1	0	90	36.1581920903955	36.241610738255	20	0.666735520027578	2	2	5	NaN	1	3	0.0885331980424789	1	1	NaN	66	2	3	1	121	221	321	NaN	521	1.40551942377351	1	1	NaN	1718781.7663088	NaN	1718782.7498477	1718783.26637068
26	18	1	0	90	36.1581920903955	36.241610738255	24	0.800082624033093	2	6	2	NaN	1	4	0.0885331980424789	1	1	NaN	67	2	4	1	121	221	321	NaN	521	1.21584467589855	1	1	NaN	1718785.5000362	NaN	1718786.4835455	1718787.00006922
26	18	1	0	90	36.1581920903955	36.241610738255	18	0.60006196802482	2	1	1	NaN	1	3	0.0885331980424789	1	1	NaN	68	2	5	1	121	221	321	NaN	521	1.57024137605913	1	1	NaN	1718789.0338225	NaN	1718790.0172132	1718790.53375722
26	18	1	0	90	36.1581920903955	36.241610738255	7	0.233357432009652	2	5	2	NaN	1	3	0.0885331980424789	1	1	NaN	69	2	6	1	121	221	321	NaN	521	0.422035699943081	1	1	NaN	1718792.9341857	NaN	1718793.9176167	1718794.434133
26	18	1	0	90	36.1581920903955	36.241610738255	22	0.733409072030336	2	2	4	NaN	1	3	0.0885331980424789	1	1	NaN	70	2	7	1	121	221	321	NaN	521	0.351750575937331	1	1	NaN	1718795.684475	NaN	1718796.6678605	1718797.18441162
26	18	1	0	90	36.1581920903955	36.241610738255	17	0.566725192023441	2	7	3	NaN	2	5	0.0885331980424789	1	1	NaN	71	2	8	1	121	221	321	NaN	521	1.13254208001308	2	1	NaN	1718798.3513156	NaN	1718799.3348386	1718799.85134342
26	18	1	0	90	36.1581920903955	36.241610738255	20	0.666735520027578	2	9	2	NaN	2	3	0.0885331980424789	1	1	NaN	72	2	9	1	121	221	321	NaN	521	0.522748123854399	2	1	NaN	1718801.8017591	NaN	1718802.7851375	1718803.30166978
26	18	1	0	90	36.1581920903955	36.241610738255	25	0.833419400034472	2	10	3	NaN	2	3	0.0885331980424789	1	1	NaN	73	2	10	1	121	221	321	NaN	521	1.74441697611474	2	1	NaN	1718804.6519709	NaN	1718805.6354231	1718806.15195632
26	18	1	0	90	36.1581920903955	36.241610738255	6	0.200020656008273	2	9	5	NaN	2	3	0.0885331980424789	1	1	NaN	74	2	11	1	121	221	321	NaN	521	1.47679889202118	2	1	NaN	1718808.7190933	NaN	1718809.7025236	1718810.21901841
26	18	1	0	90	36.1581920903955	36.241610738255	18	0.60006196802482	2	11	3	NaN	2	3	0.0885331980424789	1	1	NaN	75	2	12	1	121	221	321	NaN	521	0.325016376096755	2	1	NaN	1718812.51939	NaN	1718813.5028634	1718814.01938942
26	18	1	0	90	36.1581920903955	36.241610738255	19	0.633398744026199	2	11	5	NaN	2	3	0.0885331980424789	1	1	NaN	76	2	13	1	121	221	321	NaN	521	1.81820859201252	2	1	NaN	1718815.16973	NaN	1718816.1531336	1718816.66965301
26	18	1	0	90	36.1581920903955	36.241610738255	18	0.60006196802482	2	6	5	NaN	1	5	0.0885331980424789	1	1	NaN	77	2	14	1	121	221	321	NaN	521	0.316397523973137	2	0	NaN	1718819.3201255	NaN	1718820.3035241	1718820.82005218
26	18	1	0	90	36.1581920903955	36.241610738255	21	0.700072296028957	2	8	5	NaN	2	5	0.0885331980424789	1	1	NaN	78	2	15	1	121	221	321	NaN	521	0.522681723814458	2	1	NaN	1718821.9537335	NaN	1718822.9371408	1718823.45365618
26	18	1	0	90	36.1581920903955	36.241610738255	18	0.60006196802482	2	7	6	NaN	2	5	0.0885331980424789	1	1	NaN	79	2	16	1	121	221	321	NaN	521	0.568395623937249	2	1	NaN	1718824.8038646	NaN	1718825.7874039	1718826.30392718
26	18	1	0	90	36.1581920903955	36.241610738255	16	0.533388416022062	2	3	3	NaN	1	5	0.0885331980424789	1	1	NaN	80	2	17	1	121	221	321	NaN	521	0.51636987621896	1	1	NaN	1718827.687463	NaN	1718828.6710129	1718829.18755002
26	18	1	0	90	36.1581920903955	36.241610738255	19	0.633398744026199	2	11	2	NaN	2	5	0.0885331980424789	1	1	NaN	81	2	18	1	121	221	321	NaN	521	0.0910047758370638	1	0	NaN	1718830.521205	NaN	1718831.5046199	1718832.02115652
26	18	1	0	90	36.1581920903955	36.241610738255	19	0.633398744026199	2	6	5	NaN	1	3	0.0885331980424789	1	1	NaN	82	2	19	1	121	221	321	NaN	521	0.394750823732466	1	1	NaN	1718833.3214083	NaN	1718834.3048892	1718834.82143108
26	18	1	0	90	36.1581920903955	36.241610738255	14	0.466714864019305	2	3	4	NaN	1	4	0.0885331980424789	1	1	NaN	83	2	20	1	121	221	321	NaN	521	1.82170407613739	1	1	NaN	1718836.0384295	NaN	1718837.0218408	1718837.53836582
26	18	1	0	90	36.1581920903955	36.241610738255	20	0.666735520027578	2	8	4	NaN	2	4	0.0885331980424789	1	1	NaN	84	2	21	1	121	221	321	NaN	521	1.90337357996032	2	1	NaN	1718840.1888443	NaN	1718841.172218	1718841.68878012
26	18	1	0	90	36.1581920903955	36.241610738255	10	0.333367760013789	2	12	1	NaN	2	3	0.0885331980424789	1	1	NaN	85	2	22	1	121	221	321	NaN	521	0.725400672061369	2	1	NaN	1718844.4225804	NaN	1718845.4060149	1718845.92252403
26	18	1	0	90	36.1581920903955	36.241610738255	22	0.733409072030336	2	11	3	NaN	2	4	0.0885331980424789	1	1	NaN	86	2	23	1	121	221	321	NaN	521	2.67900089197792	2	1	NaN	1718847.5894844	NaN	1718848.5729562	1718849.08951101
26	18	1	0	90	36.1581920903955	36.241610738255	22	0.733409072030336	2	9	6	NaN	2	5	0.0885331980424789	1	1	NaN	87	2	24	1	121	221	321	NaN	521	0.846047491999343	2	1	NaN	1718852.5901531	NaN	1718853.573462	1718854.09000071
26	18	1	0	90	36.1581920903955	36.241610738255	24	0.800082624033093	2	9	3	NaN	2	4	0.0885331980424789	1	1	NaN	88	2	25	1	121	221	321	NaN	521	1.89557127607986	2	1	NaN	1718855.756894	NaN	1718856.7404405	1718857.25696522
26	18	1	0	90	36.1581920903955	36.241610738255	6	0.200020656008273	2	2	2	NaN	1	5	0.0885331980424789	1	1	NaN	89	2	26	1	121	221	321	NaN	521	1.23837397200987	1	1	NaN	1718859.9741121	NaN	1718860.9575115	1718861.47404523
26	18	1	0	90	36.1581920903955	36.241610738255	23	0.766745848031715	2	6	4	NaN	1	4	0.0885331980424789	1	1	NaN	90	2	27	1	121	221	321	NaN	521	0.919475776143372	1	1	NaN	1718863.5411327	NaN	1718864.5245232	1718865.04106262
26	18	1	0	90	36.1581920903955	36.241610738255	16	0.533388416022062	2	10	5	NaN	2	5	0.0885331980424789	1	1	NaN	91	2	28	1	121	221	321	NaN	521	0.669152776012197	2	1	NaN	1718866.7914551	NaN	1718867.7748494	1718868.29138102
26	18	1	0	90	36.1581920903955	36.241610738255	6	0.200020656008273	2	8	5	NaN	2	5	0.0885331980424789	1	1	NaN	92	2	29	1	121	221	321	NaN	521	1.96504867589101	2	1	NaN	1718869.7751079	NaN	1718870.7584854	1718871.27501682
26	18	1	0	90	36.1581920903955	36.241610738255	7	0.233357432009652	2	3	1	NaN	1	3	0.0885331980424789	1	1	NaN	93	2	30	1	121	221	321	NaN	521	0.801496075931937	1	1	NaN	1718874.0587872	NaN	1718875.0422362	1718875.55876092
26	18	1	0	90	36.1581920903955	36.241610738255	21	0.700072296028957	2	9	3	NaN	2	5	0.0885331980424789	1	1	NaN	94	2	31	1	121	221	321	NaN	521	0.612385276006535	2	1	NaN	1718877.1758205	NaN	1718878.1590771	1718878.67573262
26	18	1	0	90	36.1581920903955	36.241610738255	20	0.666735520027578	2	10	1	NaN	2	3	0.0885331980424789	1	1	NaN	95	2	32	1	121	221	321	NaN	521	1.26279947604053	2	1	NaN	1718880.109426	NaN	1718881.0928318	1718881.60935782
26	18	1	0	90	36.1581920903955	36.241610738255	9	0.30003098401241	2	12	3	NaN	2	4	0.0885331980424789	1	1	NaN	96	2	33	1	121	221	321	NaN	521	0.295431232079864	2	1	NaN	1718883.6931332	NaN	1718884.6765532	1718885.19305087
26	18	1	0	90	36.1581920903955	36.241610738255	16	0.533388416022062	2	1	6	NaN	1	4	0.0885331980424789	1	1	NaN	97	2	34	1	121	221	321	NaN	521	0.454550823895261	1	1	NaN	1718886.3099872	NaN	1718887.2934413	1718887.80996798
26	18	1	0	90	36.1581920903955	36.241610738255	11	0.366704536015168	2	2	3	NaN	1	5	0.0885331980424789	1	1	NaN	98	2	35	1	121	221	321	NaN	521	0.342687575845048	1	1	NaN	1718889.0936453	NaN	1718890.0770506	1718890.59357542
26	18	1	0	90	36.1581920903955	36.241610738255	14	0.466714864019305	2	5	3	NaN	1	4	0.0885331980424789	1	1	NaN	99	2	36	1	121	221	321	NaN	521	0.339582671876997	1	1	NaN	1718891.7605741	NaN	1718892.7439692	1718893.26050063
26	18	1	0	90	36.1581920903955	36.241610738255	18	0.60006196802482	2	11	2	NaN	2	4	0.0885331980424789	1	1	NaN	100	2	37	1	121	221	321	NaN	521	0.464715923881158	2	1	NaN	1718894.4275059	NaN	1718895.4109226	1718895.92742538
26	18	1	0	90	36.1581920903955	36.241610738255	0	0	1	7	1	NaN	2	5	0.0885331980424789	1	1	NaN	101	2	38	1	111	211	311	NaN	511	0.673105176072568	2	1	NaN	1718897.2111339	NaN	1718898.1945047	1718898.71103742
26	18	1	0	90	36.1581920903955	36.241610738255	0	0	1	8	3	NaN	2	5	0.0885331980424789	1	1	NaN	102	2	39	1	111	211	311	NaN	511	1.29720613989048	2	1	NaN	1718900.2113819	NaN	1718901.1948529	1718901.71133356
26	18	1	0	90	36.1581920903955	36.241610738255	15	0.500051640020683	2	1	4	NaN	1	5	0.0885331980424789	1	1	NaN	103	2	40	1	121	221	321	NaN	521	0.231946583837271	1	1	NaN	1718903.8284339	NaN	1718904.8118254	1718905.32835852
26	18	1	0	90	36.1581920903955	36.241610738255	19	0.633398744026199	2	1	3	NaN	1	4	0.0885331980424789	1	1	NaN	104	2	41	1	121	221	321	NaN	521	0.553635688032955	1	1	NaN	1718906.3786484	NaN	1718907.3620679	1718907.87860241
26	18	1	0	90	36.1581920903955	36.241610738255	23	0.766745848031715	2	11	1	NaN	2	5	0.0885331980424789	1	1	NaN	105	2	42	1	121	221	321	NaN	521	2.43779187975451	2	1	NaN	1718909.2623926	NaN	1718910.2457119	1718910.76222862
26	18	1	0	90	36.1581920903955	36.241610738255	16	0.533388416022062	2	11	2	NaN	2	4	0.0885331980424789	1	1	NaN	106	2	43	1	121	221	321	NaN	521	3.11060933978297	2	1	NaN	1718914.0294203	NaN	1718915.0128303	1718915.52936606
26	18	1	0	90	36.1581920903955	36.241610738255	12	0.400041312016547	2	4	2	NaN	1	5	0.0885331980424789	1	1	NaN	107	2	44	1	121	221	321	NaN	521	0.381303339963779	2	0	NaN	1718919.4632869	NaN	1718920.4466966	1718920.96323196
26	18	1	0	90	36.1581920903955	36.241610738255	11	0.366704536015168	2	7	6	NaN	2	4	0.0885331980424789	1	1	NaN	108	2	45	1	121	221	321	NaN	521	0.80580353573896	2	1	NaN	1718922.4469277	NaN	1718923.4303258	1718923.94685386
26	18	1	0	90	36.1581920903955	36.241610738255	10	0.333367760013789	2	2	1	NaN	1	3	0.0885331980424789	1	1	NaN	109	2	46	1	121	221	321	NaN	521	0.70349513203837	1	1	NaN	1718925.5804538	NaN	1718926.5639711	1718927.08049697
26	18	1	0	90	36.1581920903955	36.241610738255	16	0.533388416022062	2	8	3	NaN	2	4	0.0885331980424789	1	1	NaN	110	2	47	1	121	221	321	NaN	521	1.20660212798975	2	1	NaN	1718928.6142036	NaN	1718929.5975959	1718930.11412507
26	18	1	0	90	36.1581920903955	36.241610738255	17	0.566725192023441	2	3	2	NaN	1	3	0.0885331980424789	1	1	NaN	111	2	48	1	121	221	321	NaN	521	0.976071579847485	1	1	NaN	1718932.1477909	NaN	1718933.1312681	1718933.64781032
26	18	1	0	90	36.1581920903955	36.241610738255	22	0.733409072030336	2	6	3	NaN	1	4	0.0885331980424789	1	1	NaN	112	2	49	1	121	221	321	NaN	521	1.48399073188193	1	1	NaN	1718935.4481874	NaN	1718936.4315412	1718936.94812797
26	18	1	0	90	36.1581920903955	36.241610738255	9	0.30003098401241	2	6	6	NaN	1	5	0.0885331980424789	1	1	NaN	113	2	50	1	121	221	321	NaN	521	0.77106927591376	1	1	NaN	1718939.2652386	NaN	1718940.2486388	1718940.76516172
26	18	1	0	90	36.1581920903955	36.241610738255	25	0.833419400034472	2	6	6	NaN	1	3	0.0885331980424789	1	1	NaN	114	2	51	1	121	221	321	NaN	521	0.518790944013745	1	1	NaN	1718942.3655274	NaN	1718943.3489305	1718943.86547066
26	18	1	0	90	36.1581920903955	36.241610738255	8	0.266694208011031	2	10	6	NaN	2	3	0.0885331980424789	1	1	NaN	115	2	52	1	121	221	321	NaN	521	1.15656127198599	2	1	NaN	1718945.2158129	NaN	1718946.199222	1718946.71574303
26	18	1	0	90	36.1581920903955	36.241610738255	21	0.700072296028957	2	6	3	NaN	1	5	0.0885331980424789	1	1	NaN	116	2	53	1	121	221	321	NaN	521	0.312955275876448	1	1	NaN	1718948.6994862	NaN	1718949.6828883	1718950.19941972
26	18	1	0	90	36.1581920903955	36.241610738255	0	0	1	4	3	NaN	1	5	0.0885331980424789	1	1	NaN	117	2	54	1	111	211	311	NaN	511	0.0103428440634161	1	1	NaN	1718951.333065	NaN	1718952.3164874	1718952.83302606
26	18	1	0	90	36.1581920903955	36.241610738255	19	0.633398744026199	2	9	4	NaN	2	5	0.0885331980424789	1	1	NaN	118	2	55	1	121	221	321	NaN	521	0.0104105840437114	2	1	NaN	1718953.6666653	NaN	1718954.6500828	1718955.16658422
26	18	1	0	90	36.1581920903955	36.241610738255	21	0.700072296028957	2	7	5	NaN	2	5	0.0885331980424789	1	1	NaN	119	2	56	1	121	221	321	NaN	521	0.308561576064676	2	1	NaN	1718956.0000442	NaN	1718956.9836349	1718957.50014352
26	18	1	0	90	36.1581920903955	36.241610738255	16	0.533388416022062	2	7	1	NaN	2	5	0.0885331980424789	1	1	NaN	120	2	57	1	121	221	321	NaN	521	0.46693514380604	2	1	NaN	1718958.6338091	NaN	1718959.6171176	1718960.13374226
26	18	1	0	90	36.1581920903955	36.241610738255	8	0.266694208011031	2	2	4	NaN	1	3	0.0885331980424789	1	1	NaN	121	2	58	1	121	221	321	NaN	521	0.81920837983489	1	1	NaN	1718961.4174075	NaN	1718962.4009093	1718962.91734972
26	18	1	0	90	36.1581920903955	36.241610738255	11	0.366704536015168	2	6	6	NaN	1	5	0.0885331980424789	1	1	NaN	122	2	59	1	121	221	321	NaN	521	0.213031431892887	1	1	NaN	1718964.5677053	NaN	1718965.551118	1718966.06765337
26	18	1	0	90	36.1581920903955	36.241610738255	22	0.733409072030336	2	5	3	NaN	1	3	0.0885331980424789	1	1	NaN	123	2	60	1	121	221	321	NaN	521	0.0103645399212837	1	1	NaN	1718967.1012944	NaN	1718968.0846773	1718968.60123116
26	18	1	0	90	36.1581920903955	36.241610738255	10	0.333367760013789	2	6	6	NaN	1	3	0.0885331980424789	1	1	NaN	124	2	61	1	121	221	321	NaN	521	0.0104813759680837	1	1	NaN	1718969.4348586	NaN	1718970.4182378	1718970.93479292
26	18	1	0	90	36.1581920903955	36.241610738255	0	0	1	10	6	NaN	2	3	0.0885331980424789	1	1	NaN	125	2	62	1	111	211	311	NaN	511	0.0104433798696846	2	1	NaN	1718971.7684099	NaN	1718972.7518274	1718973.26836602
26	18	1	0	90	36.1581920903955	36.241610738255	9	0.30003098401241	2	1	4	NaN	1	5	0.0885331980424789	1	1	NaN	126	2	63	1	121	221	321	NaN	521	2.98224612791091	1	1	NaN	1718974.1019971	NaN	1718975.0853898	1718975.60191807
26	18	1	0	90	36.1581920903955	36.241610738255	25	0.833419400034472	2	7	5	NaN	2	4	0.0885331980424789	1	1	NaN	127	3	1	1	121	221	321	NaN	521	0.637208675965667	2	1	NaN	1718993.4872019	NaN	1718994.4706203	1718994.98714852
26	18	1	0	90	36.1581920903955	36.241610738255	13	0.433378088017926	2	11	5	NaN	2	5	0.0885331980424789	1	1	NaN	128	3	2	1	121	221	321	NaN	521	1.23056862782687	2	1	NaN	1718996.4374917	NaN	1718997.4209112	1718997.93744957
26	18	1	0	90	36.1581920903955	36.241610738255	15	0.500051640020683	2	10	1	NaN	2	3	0.0885331980424789	1	1	NaN	129	3	3	1	121	221	321	NaN	521	0.704537275945768	2	1	NaN	1718999.9878745	NaN	1719000.9712654	1719001.48779312
26	18	1	0	90	36.1581920903955	36.241610738255	6	0.200020656008273	2	2	3	NaN	1	4	0.0885331980424789	1	1	NaN	130	3	4	1	121	221	321	NaN	521	0.446718676015735	2	0	NaN	1719003.0214806	NaN	1719004.004891	1719004.52142062
26	18	1	0	90	36.1581920903955	36.241610738255	10	0.333367760013789	2	9	1	NaN	2	3	0.0885331980424789	1	1	NaN	131	3	5	1	121	221	321	NaN	521	0.287897288100794	2	1	NaN	1719005.7882994	NaN	1719006.7718541	1719007.28836991
26	18	1	0	90	36.1581920903955	36.241610738255	7	0.233357432009652	2	11	3	NaN	2	5	0.0885331980424789	1	1	NaN	132	3	6	1	121	221	321	NaN	521	0.0104803240392357	2	1	NaN	1719008.4053568	NaN	1719009.3887497	1719009.90528988
26	18	1	0	90	36.1581920903955	36.241610738255	8	0.266694208011031	2	11	4	NaN	2	4	0.0885331980424789	1	1	NaN	133	3	7	1	121	221	321	NaN	521	0.561522275907919	2	1	NaN	1719010.738772	NaN	1719011.7224138	1719012.23884462
26	18	1	0	90	36.1581920903955	36.241610738255	19	0.633398744026199	2	2	6	NaN	1	3	0.0885331980424789	1	1	NaN	134	3	8	1	121	221	321	NaN	521	0.278050923720002	1	1	NaN	1719013.6225558	NaN	1719014.6059194	1719015.12245718
26	18	1	0	90	36.1581920903955	36.241610738255	7	0.233357432009652	2	10	2	NaN	2	3	0.0885331980424789	1	1	NaN	135	3	9	1	121	221	321	NaN	521	0.581774975871667	2	1	NaN	1719016.2227876	NaN	1719017.2061914	1719017.72272252
26	18	1	0	90	36.1581920903955	36.241610738255	16	0.533388416022062	2	6	3	NaN	1	3	0.0885331980424789	1	1	NaN	136	3	10	1	121	221	321	NaN	521	0.329710492165759	1	1	NaN	1719019.1229929	NaN	1719020.1064711	1719020.62300421
26	18	1	0	90	36.1581920903955	36.241610738255	6	0.200020656008273	2	6	1	NaN	1	5	0.0885331980424789	1	1	NaN	137	3	11	1	121	221	321	NaN	521	0.819851375883445	1	1	NaN	1719022.0566552	NaN	1719023.0400836	1719023.55662692
26	18	1	0	90	36.1581920903955	36.241610738255	17	0.566725192023441	2	5	1	NaN	1	3	0.0885331980424789	1	1	NaN	138	3	12	1	121	221	321	NaN	521	0.422281571896747	1	1	NaN	1719025.1903196	NaN	1719026.1737597	1719026.69026113
26	18	1	0	90	36.1581920903955	36.241610738255	14	0.466714864019305	2	3	3	NaN	1	3	0.0885331980424789	1	1	NaN	139	3	13	1	121	221	321	NaN	521	0.359850679989904	1	1	NaN	1719027.9406183	NaN	1719028.9239889	1719029.44054432
26	18	1	0	90	36.1581920903955	36.241610738255	6	0.200020656008273	2	7	3	NaN	2	4	0.0885331980424789	1	1	NaN	140	3	14	1	121	221	321	NaN	521	1.85212997999042	2	1	NaN	1719030.6240996	NaN	1719031.6076066	1719032.12413912
26	18	1	0	90	36.1581920903955	36.241610738255	8	0.266694208011031	2	8	2	NaN	2	5	0.0885331980424789	1	1	NaN	141	3	15	1	121	221	321	NaN	521	1.5253138798289	2	1	NaN	1719034.7911503	NaN	1719035.7746775	1719036.29121652
26	18	1	0	90	36.1581920903955	36.241610738255	18	0.60006196802482	2	1	5	NaN	1	5	0.0885331980424789	1	1	NaN	142	3	16	1	121	221	321	NaN	521	1.18704852368683	1	1	NaN	1719038.641668	NaN	1719039.625059	1719040.14158528
26	18	1	0	90	36.1581920903955	36.241610738255	10	0.333367760013789	2	9	2	NaN	2	4	0.0885331980424789	1	1	NaN	143	3	17	1	121	221	321	NaN	521	0.133737327996641	2	1	NaN	1719042.15851	NaN	1719043.1420633	1719043.65860377
26	18	1	0	90	36.1581920903955	36.241610738255	24	0.800082624033093	2	2	1	NaN	1	5	0.0885331980424789	1	1	NaN	144	3	18	1	121	221	321	NaN	521	0.371912572067231	1	1	NaN	1719044.6088822	NaN	1719045.5923047	1719046.10883223
26	18	1	0	90	36.1581920903955	36.241610738255	15	0.500051640020683	2	10	1	NaN	2	3	0.0885331980424789	1	1	NaN	145	3	19	1	121	221	321	NaN	521	0.663406875915825	2	1	NaN	1719047.3091777	NaN	1719048.2925782	1719048.80910842
26	18	1	0	90	36.1581920903955	36.241610738255	24	0.800082624033093	2	7	3	NaN	2	5	0.0885331980424789	1	1	NaN	146	3	20	1	121	221	321	NaN	521	0.207726276014	2	1	NaN	1719050.2927877	NaN	1719051.2762061	1719051.79272942
26	18	1	0	90	36.1581920903955	36.241610738255	16	0.533388416022062	2	12	5	NaN	2	4	0.0885331980424789	1	1	NaN	147	3	21	1	121	221	321	NaN	521	1.66248747613281	2	1	NaN	1719053.1264909	NaN	1719054.1098084	1719054.62634162
26	18	1	0	90	36.1581920903955	36.241610738255	24	0.800082624033093	2	4	3	NaN	1	3	0.0885331980424789	1	1	NaN	148	3	22	1	121	221	321	NaN	521	1.10263572400436	1	1	NaN	1719057.1101378	NaN	1719058.0935215	1719058.61007028
26	18	1	0	90	36.1581920903955	36.241610738255	21	0.700072296028957	2	2	3	NaN	1	5	0.0885331980424789	1	1	NaN	149	3	23	1	121	221	321	NaN	521	0.457286427961662	1	1	NaN	1719060.8271641	NaN	1719061.8105623	1719062.32709917
26	18	1	0	90	36.1581920903955	36.241610738255	9	0.30003098401241	2	9	5	NaN	2	4	0.0885331980424789	1	1	NaN	150	3	24	1	121	221	321	NaN	521	0.210022472077981	2	1	NaN	1719063.6107816	NaN	1719064.5941755	1719065.11071793
26	18	1	0	90	36.1581920903955	36.241610738255	24	0.800082624033093	2	6	1	NaN	1	4	0.0885331980424789	1	1	NaN	151	3	25	1	121	221	321	NaN	521	0.132404627976939	1	1	NaN	1719066.1443452	NaN	1719067.1276955	1719067.64429197
26	18	1	0	90	36.1581920903955	36.241610738255	12	0.400041312016547	2	12	5	NaN	2	5	0.0885331980424789	1	1	NaN	152	3	26	1	121	221	321	NaN	521	0.361953779822215	2	1	NaN	1719068.5945858	NaN	1719069.5779783	1719070.09452292
26	18	1	0	90	36.1581920903955	36.241610738255	14	0.466714864019305	2	1	5	NaN	1	3	0.0885331980424789	1	1	NaN	153	3	27	1	121	221	321	NaN	521	0.166387276025489	1	1	NaN	1719071.2780251	NaN	1719072.2615926	1719072.77812352
26	18	1	0	90	36.1581920903955	36.241610738255	19	0.633398744026199	2	6	1	NaN	1	3	0.0885331980424789	1	1	NaN	154	3	28	1	121	221	321	NaN	521	0.0105125720147043	1	1	NaN	1719073.7617541	NaN	1719074.7451664	1719075.26169513
26	18	1	0	90	36.1581920903955	36.241610738255	17	0.566725192023441	2	9	3	NaN	2	3	0.0885331980424789	1	1	NaN	155	3	29	1	121	221	321	NaN	521	0.010351792210713	2	1	NaN	1719076.0953447	NaN	1719077.0787291	1719077.59526861
26	18	1	0	90	36.1581920903955	36.241610738255	10	0.333367760013789	2	12	1	NaN	2	3	0.0885331980424789	1	1	NaN	156	3	30	1	121	221	321	NaN	521	1.54364632372744	2	1	NaN	1719078.4288812	NaN	1719079.4123178	1719079.92882348
26	18	1	0	90	36.1581920903955	36.241610738255	14	0.466714864019305	2	9	2	NaN	2	3	0.0885331980424789	1	1	NaN	157	3	31	1	121	221	321	NaN	521	0.0104786760639399	2	1	NaN	1719082.2959423	NaN	1719083.2793318	1719083.79586982
26	18	1	0	90	36.1581920903955	36.241610738255	0	0	1	2	2	NaN	1	4	0.0885331980424789	1	1	NaN	158	3	32	1	111	211	311	NaN	511	0.350860476028174	1	1	NaN	1719084.6294987	NaN	1719085.6128961	1719086.12943352
26	18	1	0	90	36.1581920903955	36.241610738255	0	0	1	8	6	NaN	2	4	0.0885331980424789	1	1	NaN	159	3	33	1	111	211	311	NaN	511	0.372258176095784	2	1	NaN	1719087.2963027	NaN	1719088.2798428	1719088.79635652
26	18	1	0	90	36.1581920903955	36.241610738255	13	0.433378088017926	2	1	2	NaN	1	3	0.0885331980424789	1	1	NaN	160	3	34	1	121	221	321	NaN	521	0.224170672008768	1	1	NaN	1719089.9966951	NaN	1719090.9800825	1719091.49662933
26	18	1	0	90	36.1581920903955	36.241610738255	9	0.30003098401241	2	4	4	NaN	1	3	0.0885331980424789	1	1	NaN	161	3	35	1	121	221	321	NaN	521	1.04987788386643	1	1	NaN	1719092.5468021	NaN	1719093.5303524	1719094.04688592
26	18	1	0	90	36.1581920903955	36.241610738255	0	0	1	6	4	NaN	1	3	0.0885331980424789	1	1	NaN	162	3	36	1	111	211	311	NaN	511	0.394621023908257	1	1	NaN	1719095.9139217	NaN	1719096.8973461	1719097.41388078
26	18	1	0	90	36.1581920903955	36.241610738255	17	0.566725192023441	2	10	4	NaN	2	3	0.0885331980424789	1	1	NaN	163	3	37	1	121	221	321	NaN	521	0.413790784077719	2	1	NaN	1719098.6308766	NaN	1719099.6142875	1719100.13081632
26	18	1	0	90	36.1581920903955	36.241610738255	13	0.433378088017926	2	6	2	NaN	1	3	0.0885331980424789	1	1	NaN	164	3	38	1	121	221	321	NaN	521	1.51209082803689	1	1	NaN	1719101.3644626	NaN	1719102.3478758	1719102.86441697
26	18	1	0	90	36.1581920903955	36.241610738255	15	0.500051640020683	2	12	2	NaN	2	5	0.0885331980424789	1	1	NaN	165	3	39	1	121	221	321	NaN	521	0.382963039912283	2	1	NaN	1719105.7814593	NaN	1719106.7649662	1719107.28151756
26	18	1	0	90	36.1581920903955	36.241610738255	18	0.60006196802482	2	10	4	NaN	2	5	0.0885331980424789	1	1	NaN	166	3	40	1	121	221	321	NaN	521	0.355106039904058	2	1	NaN	1719108.4820224	NaN	1719109.4652478	1719109.98177986
26	18	1	0	90	36.1581920903955	36.241610738255	23	0.766745848031715	2	10	5	NaN	2	4	0.0885331980424789	1	1	NaN	167	3	41	1	121	221	321	NaN	521	1.11153672798537	2	1	NaN	1719111.1654341	NaN	1719112.1488484	1719112.66537557
26	18	1	0	90	36.1581920903955	36.241610738255	21	0.700072296028957	2	9	6	NaN	2	4	0.0885331980424789	1	1	NaN	168	3	42	1	121	221	321	NaN	521	2.02193542383611	2	1	NaN	1719114.5990881	NaN	1719115.582532	1719116.09904778
26	18	1	0	90	36.1581920903955	36.241610738255	19	0.633398744026199	2	4	6	NaN	1	3	0.0885331980424789	1	1	NaN	169	3	43	1	121	221	321	NaN	521	3.15923397592269	1	1	NaN	1719118.9495321	NaN	1719119.93291	1719120.44946852
26	18	1	0	90	36.1581920903955	36.241610738255	22	0.733409072030336	2	7	5	NaN	2	5	0.0885331980424789	1	1	NaN	170	3	44	1	121	221	321	NaN	521	0.480299188056961	2	1	NaN	1719125.4994825	NaN	1719126.4835994	1719127.00011031
26	18	1	0	90	36.1581920903955	36.241610738255	15	0.500051640020683	2	3	6	NaN	1	3	0.0885331980424789	1	1	NaN	171	3	45	1	121	221	321	NaN	521	3.62390137184411	1	1	NaN	1719128.3004558	NaN	1719129.2838595	1719129.80037803
26	18	1	0	90	36.1581920903955	36.241610738255	18	0.60006196802482	2	2	3	NaN	1	4	0.0885331980424789	1	1	NaN	172	3	46	1	121	221	321	NaN	521	0.873205323936418	1	1	NaN	1719134.2510438	NaN	1719135.2344437	1719135.75096468
26	18	1	0	90	36.1581920903955	36.241610738255	12	0.400041312016547	2	6	3	NaN	1	5	0.0885331980424789	1	1	NaN	173	3	47	1	121	221	321	NaN	521	3.72151862806641	1	1	NaN	1719137.4513334	NaN	1719138.4347883	1719138.95128097
26	18	1	0	90	36.1581920903955	36.241610738255	19	0.633398744026199	2	7	1	NaN	2	5	0.0885331980424789	1	1	NaN	174	3	48	1	121	221	321	NaN	521	1.29455937608145	2	1	NaN	1719143.5019349	NaN	1719144.4853478	1719145.00188002
26	18	1	0	90	36.1581920903955	36.241610738255	19	0.633398744026199	2	10	3	NaN	2	4	0.0885331980424789	1	1	NaN	175	3	49	1	121	221	321	NaN	521	1.78977888799272	2	1	NaN	1719147.1189818	NaN	1719148.1023534	1719148.61890841
26	18	1	0	90	36.1581920903955	36.241610738255	7	0.233357432009652	2	8	2	NaN	2	3	0.0885331980424789	1	1	NaN	176	3	50	1	121	221	321	NaN	521	0.896582479821518	2	1	NaN	1719151.2360298	NaN	1719152.2194472	1719152.73597752
26	18	1	0	90	36.1581920903955	36.241610738255	19	0.633398744026199	2	7	6	NaN	2	3	0.0885331980424789	1	1	NaN	177	3	51	1	121	221	321	NaN	521	0.407996424008161	2	1	NaN	1719154.4530202	NaN	1719155.4364329	1719155.95294838
26	18	1	0	90	36.1581920903955	36.241610738255	12	0.400041312016547	2	7	5	NaN	2	3	0.0885331980424789	1	1	NaN	178	3	52	1	121	221	321	NaN	521	0.417892175959423	2	1	NaN	1719157.1864911	NaN	1719158.1700167	1719158.68656222
26	18	1	0	90	36.1581920903955	36.241610738255	8	0.266694208011031	2	4	5	NaN	1	5	0.0885331980424789	1	1	NaN	179	3	53	1	121	221	321	NaN	521	0.100396479712799	1	1	NaN	1719159.9202264	NaN	1719160.9036277	1719161.42015862
26	18	1	0	90	36.1581920903955	36.241610738255	0	0	1	11	3	NaN	2	3	0.0885331980424789	1	1	NaN	180	3	54	1	111	211	311	NaN	511	0.403620592085645	2	1	NaN	1719162.3371064	NaN	1719163.3204708	1719163.83707001
26	18	1	0	90	36.1581920903955	36.241610738255	9	0.30003098401241	2	6	4	NaN	1	3	0.0885331980424789	1	1	NaN	181	3	55	1	121	221	321	NaN	521	0.478951276047155	1	1	NaN	1719165.0540794	NaN	1719166.0374679	1719166.55399432
26	18	1	0	90	36.1581920903955	36.241610738255	8	0.266694208011031	2	9	6	NaN	2	4	0.0885331980424789	1	1	NaN	182	3	56	1	121	221	321	NaN	521	0.342324623838067	2	1	NaN	1719167.8543324	NaN	1719168.8377371	1719169.35428048
26	18	1	0	90	36.1581920903955	36.241610738255	8	0.266694208011031	2	10	3	NaN	2	5	0.0885331980424789	1	1	NaN	183	3	57	1	121	221	321	NaN	521	0.323617923771963	2	1	NaN	1719170.5212544	NaN	1719171.5047164	1719172.02119328
26	18	1	0	90	36.1581920903955	36.241610738255	23	0.766745848031715	2	7	4	NaN	2	3	0.0885331980424789	1	1	NaN	184	3	58	1	121	221	321	NaN	521	0.329170075943694	2	1	NaN	1719173.1715137	NaN	1719174.1549209	1719174.67145262
26	18	1	0	90	36.1581920903955	36.241610738255	25	0.833419400034472	2	10	2	NaN	2	3	0.0885331980424789	1	1	NaN	185	3	59	1	121	221	321	NaN	521	0.366966527886689	2	1	NaN	1719175.8217721	NaN	1719176.8051801	1719177.32173737
26	18	1	0	90	36.1581920903955	36.241610738255	22	0.733409072030336	2	1	3	NaN	1	5	0.0885331980424789	1	1	NaN	186	3	60	1	121	221	321	NaN	521	0.0105217199306935	1	1	NaN	1719178.5220518	NaN	1719179.5054519	1719180.02197908
26	18	1	0	90	36.1581920903955	36.241610738255	12	0.400041312016547	2	12	6	NaN	2	4	0.0885331980424789	1	1	NaN	187	3	61	1	121	221	321	NaN	521	0.364889899967238	2	1	NaN	1719180.8556479	NaN	1719181.8390008	1719182.3555516
26	18	1	0	90	36.1581920903955	36.241610738255	20	0.666735520027578	2	7	3	NaN	2	5	0.0885331980424789	1	1	NaN	188	3	62	1	121	221	321	NaN	521	0.657356423791498	2	1	NaN	1719183.5392832	NaN	1719184.5226132	1719185.03914628
26	18	1	0	90	36.1581920903955	36.241610738255	13	0.433378088017926	2	10	4	NaN	2	4	0.0885331980424789	1	1	NaN	189	3	63	1	121	221	321	NaN	521	0.358836792176589	2	1	NaN	1719186.8062007	NaN	1719187.7895853	1719188.30613081
26	18	1	0	90	36.1581920903955	36.241610738255	9	0.30003098401241	2	11	1	NaN	2	4	0.0885331980424789	1	1	NaN	190	4	1	1	121	221	321	NaN	521	0.224348675925285	2	1	NaN	1719201.3242825	NaN	1719202.3077148	1719202.82421282
26	18	1	0	90	36.1581920903955	36.241610738255	8	0.266694208011031	2	5	4	NaN	1	3	0.0885331980424789	1	1	NaN	191	4	2	1	121	221	321	NaN	521	0.922022128012031	1	1	NaN	1719203.8745319	NaN	1719204.8579387	1719205.37446817
26	18	1	0	90	36.1581920903955	36.241610738255	25	0.833419400034472	2	12	4	NaN	2	5	0.0885331980424789	1	1	NaN	192	4	3	1	121	221	321	NaN	521	1.4162221760489	2	1	NaN	1719207.3248682	NaN	1719208.3083137	1719208.82481312
26	18	1	0	90	36.1581920903955	36.241610738255	10	0.333367760013789	2	3	5	NaN	1	3	0.0885331980424789	1	1	NaN	193	4	4	1	121	221	321	NaN	521	4.7621832320001	1	1	NaN	1719211.0585669	NaN	1719212.0419788	1719212.55851737
26	18	1	0	90	36.1581920903955	36.241610738255	15	0.500051640020683	2	2	5	NaN	1	4	0.0885331980424789	1	1	NaN	194	4	5	1	121	221	321	NaN	521	1.10320167592727	1	1	NaN	1719218.3259297	NaN	1719219.3093693	1719219.82588292
26	18	1	0	90	36.1581920903955	36.241610738255	13	0.433378088017926	2	4	2	NaN	1	5	0.0885331980424789	1	1	NaN	195	4	6	1	121	221	321	NaN	521	1.03740994399413	1	1	NaN	1719221.7596245	NaN	1719222.7430144	1719223.25957096
26	18	1	0	90	36.1581920903955	36.241610738255	11	0.366704536015168	2	12	1	NaN	2	5	0.0885331980424789	1	1	NaN	196	4	7	1	121	221	321	NaN	521	0.798020423855633	2	1	NaN	1719225.126581	NaN	1719226.1100372	1719226.62654908
26	18	1	0	90	36.1581920903955	36.241610738255	22	0.733409072030336	2	8	6	NaN	2	3	0.0885331980424789	1	1	NaN	197	4	8	1	121	221	321	NaN	521	0.321081827860326	2	1	NaN	1719228.2436642	NaN	1719229.2269889	1719229.74352477
26	18	1	0	90	36.1581920903955	36.241610738255	17	0.566725192023441	2	6	6	NaN	1	3	0.0885331980424789	1	1	NaN	198	4	9	1	121	221	321	NaN	521	0.174839076120406	1	1	NaN	1719230.893871	NaN	1719231.8772617	1719232.39379022
26	18	1	0	90	36.1581920903955	36.241610738255	21	0.700072296028957	2	3	4	NaN	1	5	0.0885331980424789	1	1	NaN	199	4	10	1	121	221	321	NaN	521	0.010509671876207	1	1	NaN	1719233.3940801	NaN	1719234.3774848	1719234.89403153
26	18	1	0	90	36.1581920903955	36.241610738255	15	0.500051640020683	2	5	5	NaN	1	4	0.0885331980424789	1	1	NaN	200	4	11	1	121	221	321	NaN	521	0.0104302319232374	1	1	NaN	1719235.7275266	NaN	1719236.7110663	1719237.22760497
26	18	1	0	90	36.1581920903955	36.241610738255	19	0.633398744026199	2	4	1	NaN	1	5	0.0885331980424789	1	1	NaN	201	4	12	1	121	221	321	NaN	521	0.0314188320189714	1	1	NaN	1719238.0612388	NaN	1719239.0446248	1719239.56116297
26	18	1	0	90	36.1581920903955	36.241610738255	24	0.800082624033093	2	9	2	NaN	2	4	0.0885331980424789	1	1	NaN	202	4	13	1	121	221	321	NaN	521	0.825265792198479	2	1	NaN	1719240.4114202	NaN	1719241.3948501	1719241.91139911
26	18	1	0	90	36.1581920903955	36.241610738255	16	0.533388416022062	2	9	1	NaN	2	3	0.0885331980424789	1	1	NaN	203	4	14	1	121	221	321	NaN	521	0.171034127939492	2	1	NaN	1719243.5617177	NaN	1719244.5451909	1719245.06169237
26	18	1	0	90	36.1581920903955	36.241610738255	7	0.233357432009652	2	4	5	NaN	1	4	0.0885331980424789	1	1	NaN	204	4	15	1	121	221	321	NaN	521	0.471380379749462	1	1	NaN	1719246.0452091	NaN	1719247.0287493	1719247.54527882
26	18	1	0	90	36.1581920903955	36.241610738255	17	0.566725192023441	2	4	1	NaN	1	4	0.0885331980424789	1	1	NaN	205	4	16	1	121	221	321	NaN	521	0.256058424012735	2	0	NaN	1719248.8290288	NaN	1719249.8123713	1719250.32888168
26	18	1	0	90	36.1581920903955	36.241610738255	20	0.666735520027578	2	6	2	NaN	1	3	0.0885331980424789	1	1	NaN	206	4	17	1	121	221	321	NaN	521	0.256207675905898	1	1	NaN	1719251.4125531	NaN	1719252.3959405	1719252.91246442
26	18	1	0	90	36.1581920903955	36.241610738255	21	0.700072296028957	2	7	1	NaN	2	5	0.0885331980424789	1	1	NaN	207	4	18	1	121	221	321	NaN	521	0.616933743935078	2	1	NaN	1719253.9960946	NaN	1719254.9795509	1719255.49606586
26	18	1	0	90	36.1581920903955	36.241610738255	16	0.533388416022062	2	12	6	NaN	2	5	0.0885331980424789	1	1	NaN	208	4	19	1	121	221	321	NaN	521	0.947251575998962	2	1	NaN	1719256.929758	NaN	1719257.9131365	1719258.42968042
26	18	1	0	90	36.1581920903955	36.241610738255	9	0.30003098401241	2	5	1	NaN	1	4	0.0885331980424789	1	1	NaN	209	4	20	1	121	221	321	NaN	521	0.0479739159345627	1	1	NaN	1719260.1967267	NaN	1719261.180131	1719261.69666938
26	18	1	0	90	36.1581920903955	36.241610738255	12	0.400041312016547	2	5	5	NaN	1	4	0.0885331980424789	1	1	NaN	210	4	21	1	121	221	321	NaN	521	0.457486575935036	1	1	NaN	1719262.5636053	NaN	1719263.5470556	1719264.06356882
26	18	1	0	90	36.1581920903955	36.241610738255	23	0.766745848031715	2	11	4	NaN	2	4	0.0885331980424789	1	1	NaN	211	4	22	1	121	221	321	NaN	521	0.0182535278145224	2	1	NaN	1719265.3305452	NaN	1719266.3139685	1719266.83049787
26	18	1	0	90	36.1581920903955	36.241610738255	16	0.533388416022062	2	8	2	NaN	2	5	0.0885331980424789	1	1	NaN	212	4	23	1	121	221	321	NaN	521	0.404591727769002	2	1	NaN	1719267.6641242	NaN	1719268.6475601	1719269.16405997
26	18	1	0	90	36.1581920903955	36.241610738255	15	0.500051640020683	2	4	4	NaN	1	5	0.0885331980424789	1	1	NaN	213	4	24	1	121	221	321	NaN	521	1.96728922380134	1	1	NaN	1719270.3977295	NaN	1719271.3811211	1719271.89767048
26	18	1	0	90	36.1581920903955	36.241610738255	25	0.833419400034472	2	12	4	NaN	2	5	0.0885331980424789	1	1	NaN	214	4	25	1	121	221	321	NaN	521	1.23538537602872	2	1	NaN	1719274.6815798	NaN	1719275.6648827	1719276.18142142
26	18	1	0	90	36.1581920903955	36.241610738255	24	0.800082624033093	2	3	6	NaN	1	4	0.0885331980424789	1	1	NaN	215	4	26	1	121	221	321	NaN	521	0.0105399680323899	1	1	NaN	1719278.2984766	NaN	1719279.2819143	1719279.79845403
26	18	1	0	90	36.1581920903955	36.241610738255	6	0.200020656008273	2	4	2	NaN	1	4	0.0885331980424789	1	1	NaN	216	4	27	1	121	221	321	NaN	521	0.0103672400582582	1	1	NaN	1719280.6319252	NaN	1719281.6154795	1719282.13200436
26	18	1	0	90	36.1581920903955	36.241610738255	25	0.833419400034472	2	9	6	NaN	2	4	0.0885331980424789	1	1	NaN	217	4	28	1	121	221	321	NaN	521	0.0103973359800875	2	1	NaN	1719282.9654928	NaN	1719283.949035	1719284.46556576
26	18	1	0	90	36.1581920903955	36.241610738255	11	0.366704536015168	2	11	5	NaN	2	5	0.0885331980424789	1	1	NaN	218	4	29	1	121	221	321	NaN	521	0.353859975934029	2	1	NaN	1719285.2991783	NaN	1719286.2825831	1719286.79912532
26	18	1	0	90	36.1581920903955	36.241610738255	7	0.233357432009652	2	9	3	NaN	2	4	0.0885331980424789	1	1	NaN	219	4	30	1	121	221	321	NaN	521	0.0105033239815384	2	1	NaN	1719287.9827928	NaN	1719288.9661856	1719289.48272198
26	18	1	0	90	36.1581920903955	36.241610738255	19	0.633398744026199	2	10	2	NaN	2	3	0.0885331980424789	1	1	NaN	220	4	31	1	121	221	321	NaN	521	0.520529776113108	2	1	NaN	1719290.3163551	NaN	1719291.2997556	1719291.81629112
26	18	1	0	90	36.1581920903955	36.241610738255	6	0.200020656008273	2	5	5	NaN	1	4	0.0885331980424789	1	1	NaN	221	4	32	1	121	221	321	NaN	521	0.390817876206711	1	1	NaN	1719293.1498329	NaN	1719294.1333649	1719294.64989412
26	18	1	0	90	36.1581920903955	36.241610738255	19	0.633398744026199	2	2	4	NaN	1	5	0.0885331980424789	1	1	NaN	222	4	33	1	121	221	321	NaN	521	0.763036224059761	1	1	NaN	1719295.850095	NaN	1719296.8336355	1719297.35015428
26	18	1	0	90	36.1581920903955	36.241610738255	17	0.566725192023441	2	10	1	NaN	2	3	0.0885331980424789	1	1	NaN	223	4	34	1	121	221	321	NaN	521	0.479167076060548	2	1	NaN	1719298.9338387	NaN	1719299.9172692	1719300.43380102
26	18	1	0	90	36.1581920903955	36.241610738255	20	0.666735520027578	2	9	6	NaN	2	5	0.0885331980424789	1	1	NaN	224	4	35	1	121	221	321	NaN	521	0.078762779943645	2	1	NaN	1719301.7340046	NaN	1719302.7175172	1719303.23406972
26	18	1	0	90	36.1581920903955	36.241610738255	10	0.333367760013789	2	11	4	NaN	2	4	0.0885331980424789	1	1	NaN	225	4	36	1	121	221	321	NaN	521	0.0105098239146173	2	1	NaN	1719304.1176926	NaN	1719305.1011332	1719305.61763648
26	18	1	0	90	36.1581920903955	36.241610738255	8	0.266694208011031	2	8	2	NaN	2	3	0.0885331980424789	1	1	NaN	226	4	37	1	121	221	321	NaN	521	0.68132547615096	2	1	NaN	1719306.4512442	NaN	1719307.434661	1719307.95120012
26	18	1	0	90	36.1581920903955	36.241610738255	22	0.733409072030336	2	1	6	NaN	1	3	0.0885331980424789	1	1	NaN	227	4	38	1	121	221	321	NaN	521	0.353508176049218	1	1	NaN	1719309.4514503	NaN	1719310.4350165	1719310.95149772
26	18	1	0	90	36.1581920903955	36.241610738255	6	0.200020656008273	2	11	3	NaN	2	5	0.0885331980424789	1	1	NaN	228	4	39	1	121	221	321	NaN	521	0.277695779688656	2	1	NaN	1719312.1351652	NaN	1719313.1185485	1719313.63510132
26	18	1	0	90	36.1581920903955	36.241610738255	17	0.566725192023441	2	12	2	NaN	2	4	0.0885331980424789	1	1	NaN	229	4	40	1	121	221	321	NaN	521	0.0103684922214597	2	1	NaN	1719314.7352897	NaN	1719315.7188436	1719316.23535591
26	18	1	0	90	36.1581920903955	36.241610738255	21	0.700072296028957	2	10	5	NaN	2	4	0.0885331980424789	1	1	NaN	230	4	41	1	121	221	321	NaN	521	0.248181427828968	2	1	NaN	1719317.0688241	NaN	1719318.0523601	1719318.56891507
26	18	1	0	90	36.1581920903955	36.241610738255	23	0.766745848031715	2	5	4	NaN	1	4	0.0885331980424789	1	1	NaN	231	4	42	1	121	221	321	NaN	521	0.593398188007995	1	1	NaN	1719319.6358874	NaN	1719320.6193501	1719321.13583201
26	18	1	0	90	36.1581920903955	36.241610738255	23	0.766745848031715	2	6	5	NaN	1	3	0.0885331980424789	1	1	NaN	232	4	43	1	121	221	321	NaN	521	0.19591732788831	1	1	NaN	1719322.5528433	NaN	1719323.5362577	1719324.05278847
26	18	1	0	90	36.1581920903955	36.241610738255	19	0.633398744026199	2	5	3	NaN	1	5	0.0885331980424789	1	1	NaN	233	4	44	1	121	221	321	NaN	521	0.0104739759117365	1	1	NaN	1719325.0697667	NaN	1719326.0531693	1719326.56969442
26	18	1	0	90	36.1581920903955	36.241610738255	13	0.433378088017926	2	9	4	NaN	2	3	0.0885331980424789	1	1	NaN	234	4	45	1	121	221	321	NaN	521	0.010501371929422	2	1	NaN	1719327.4033937	NaN	1719328.3867209	1719328.90325213
26	18	1	0	90	36.1581920903955	36.241610738255	7	0.233357432009652	2	6	3	NaN	1	5	0.0885331980424789	1	1	NaN	235	4	46	1	121	221	321	NaN	521	0.163951627910137	1	1	NaN	1719329.7368938	NaN	1719330.7202468	1719331.23682677
26	18	1	0	90	36.1581920903955	36.241610738255	0	0	1	12	2	NaN	2	5	0.0885331980424789	1	1	NaN	236	4	47	1	111	211	311	NaN	511	0.0105120718944818	2	1	NaN	1719332.2038093	NaN	1719333.1872005	1719333.70373173
26	18	1	0	90	36.1581920903955	36.241610738255	9	0.30003098401241	2	2	3	NaN	1	3	0.0885331980424789	1	1	NaN	237	4	48	1	121	221	321	NaN	521	0.0104933239053935	1	1	NaN	1719334.5373542	NaN	1719335.5207581	1719336.03728808
26	18	1	0	90	36.1581920903955	36.241610738255	23	0.766745848031715	2	3	4	NaN	1	5	0.0885331980424789	1	1	NaN	238	4	49	1	121	221	321	NaN	521	0.406349827768281	1	1	NaN	1719336.8709462	NaN	1719337.8543585	1719338.37085017
26	18	1	0	90	36.1581920903955	36.241610738255	19	0.633398744026199	2	3	3	NaN	1	5	0.0885331980424789	1	1	NaN	239	4	50	1	121	221	321	NaN	521	0.336884423857555	1	1	NaN	1719339.5878425	NaN	1719340.5712369	1719341.08778038
26	18	1	0	90	36.1581920903955	36.241610738255	9	0.30003098401241	2	10	5	NaN	2	3	0.0885331980424789	1	1	NaN	240	4	51	1	121	221	321	NaN	521	2.84593649208546	2	1	NaN	1719342.254785	NaN	1719343.2381764	1719343.75474801
26	18	1	0	90	36.1581920903955	36.241610738255	14	0.466714864019305	2	7	2	NaN	2	3	0.0885331980424789	1	1	NaN	241	4	52	1	121	221	321	NaN	521	1.11944784410298	2	1	NaN	1719348.0053368	NaN	1719348.9887565	1719349.50529046
26	18	1	0	90	36.1581920903955	36.241610738255	21	0.700072296028957	2	10	3	NaN	2	5	0.0885331980424789	1	1	NaN	242	4	53	1	121	221	321	NaN	521	0.893523623934016	2	1	NaN	1719351.4390269	NaN	1719352.4224107	1719352.93895328
26	18	1	0	90	36.1581920903955	36.241610738255	20	0.666735520027578	2	3	2	NaN	1	3	0.0885331980424789	1	1	NaN	243	4	54	1	121	221	321	NaN	521	0.365345776081085	1	1	NaN	1719354.6559774	NaN	1719355.6393898	1719356.15593462
26	18	1	0	90	36.1581920903955	36.241610738255	18	0.60006196802482	2	7	1	NaN	2	3	0.0885331980424789	1	1	NaN	244	4	55	1	121	221	321	NaN	521	0.145351828075945	2	1	NaN	1719357.3395914	NaN	1719358.3230087	1719358.83952867
26	18	1	0	90	36.1581920903955	36.241610738255	23	0.766745848031715	2	4	6	NaN	1	4	0.0885331980424789	1	1	NaN	245	4	56	1	121	221	321	NaN	521	0.814799723913893	1	1	NaN	1719359.8065066	NaN	1719360.7899012	1719361.30643338
26	18	1	0	90	36.1581920903955	36.241610738255	20	0.666735520027578	2	5	2	NaN	1	3	0.0885331980424789	1	1	NaN	246	4	57	1	121	221	321	NaN	521	0.225119979819283	1	1	NaN	1719362.9401526	NaN	1719363.923555	1719364.44007812
26	18	1	0	90	36.1581920903955	36.241610738255	0	0	1	7	4	NaN	2	5	0.0885331980424789	1	1	NaN	247	4	58	1	111	211	311	NaN	511	0.634578579803929	2	1	NaN	1719365.4903933	NaN	1719366.4738341	1719366.99033512
26	18	1	0	90	36.1581920903955	36.241610738255	20	0.666735520027578	2	1	6	NaN	1	3	0.0885331980424789	1	1	NaN	248	4	59	1	121	221	321	NaN	521	1.91658001579344	1	1	NaN	1719368.4407036	NaN	1719369.4241026	1719369.94061438
26	18	1	0	90	36.1581920903955	36.241610738255	11	0.366704536015168	2	3	5	NaN	1	4	0.0885331980424789	1	1	NaN	249	4	60	1	121	221	321	NaN	521	0.690470783738419	1	1	NaN	1719372.6744324	NaN	1719373.6578352	1719374.17436342
26	18	1	0	90	36.1581920903955	36.241610738255	9	0.30003098401241	2	12	5	NaN	2	3	0.0885331980424789	1	1	NaN	250	4	61	1	121	221	321	NaN	521	0.369558744132519	2	1	NaN	1719375.6912833	NaN	1719376.674788	1719377.19134016
26	18	1	0	90	36.1581920903955	36.241610738255	10	0.333367760013789	2	3	4	NaN	1	5	0.0885331980424789	1	1	NaN	251	4	62	1	121	221	321	NaN	521	0.349880375899374	1	1	NaN	1719378.3748684	NaN	1719379.3583943	1719379.87492912
26	18	1	0	90	36.1581920903955	36.241610738255	22	0.733409072030336	2	3	5	NaN	1	4	0.0885331980424789	1	1	NaN	252	4	63	1	121	221	321	NaN	521	0.0909610921517015	1	1	NaN	1719381.0419581	NaN	1719382.0253217	1719382.54186511
26	18	1	0	90	36.1581920903955	36.241610738255	14	0.466714864019305	2	10	2	NaN	2	5	0.0885331980424789	1	1	NaN	253	5	1	1	121	221	321	NaN	521	1.07846582774073	2	1	NaN	1719405.5109541	NaN	1719406.4943667	1719407.01092757
26	18	1	0	90	36.1581920903955	36.241610738255	6	0.200020656008273	2	9	5	NaN	2	3	0.0885331980424789	1	1	NaN	254	5	2	1	121	221	321	NaN	521	0.364781443960965	2	1	NaN	1719409.3446777	NaN	1719410.3280968	1719410.84464396
26	18	1	0	90	36.1581920903955	36.241610738255	9	0.30003098401241	2	8	1	NaN	2	5	0.0885331980424789	1	1	NaN	255	5	3	1	121	221	321	NaN	521	0.291080775903538	2	1	NaN	1719412.3783482	NaN	1719413.3617234	1719413.87826552
26	18	1	0	90	36.1581920903955	36.241610738255	9	0.30003098401241	2	11	4	NaN	2	5	0.0885331980424789	1	1	NaN	256	5	4	1	121	221	321	NaN	521	1.52160407602787	2	1	NaN	1719414.9952556	NaN	1719415.9786629	1719416.49519292
26	18	1	0	90	36.1581920903955	36.241610738255	7	0.233357432009652	2	12	3	NaN	2	5	0.0885331980424789	1	1	NaN	257	5	5	1	121	221	321	NaN	521	0.823848627973348	2	1	NaN	1719418.8290101	NaN	1719419.8123618	1719420.32889107
26	18	1	0	90	36.1581920903955	36.241610738255	15	0.500051640020683	2	7	2	NaN	2	5	0.0885331980424789	1	1	NaN	258	5	6	1	121	221	321	NaN	521	0.297573423944414	2	1	NaN	1719421.9792696	NaN	1719422.9626618	1719423.47921178
26	18	1	0	90	36.1581920903955	36.241610738255	25	0.833419400034472	2	4	3	NaN	1	5	0.0885331980424789	1	1	NaN	259	5	7	1	121	221	321	NaN	521	0.0167529238387942	1	1	NaN	1719424.596194	NaN	1719425.5796152	1719426.09613528
26	18	1	0	90	36.1581920903955	36.241610738255	22	0.733409072030336	2	8	4	NaN	2	5	0.0885331980424789	1	1	NaN	260	5	8	1	121	221	321	NaN	521	0.435572976013646	2	1	NaN	1719426.9298443	NaN	1719427.9131485	1719428.42969702
26	18	1	0	90	36.1581920903955	36.241610738255	19	0.633398744026199	2	8	6	NaN	2	4	0.0885331980424789	1	1	NaN	261	5	9	1	121	221	321	NaN	521	2.47682202397846	2	1	NaN	1719429.6966993	NaN	1719430.6800893	1719431.19662638
26	18	1	0	90	36.1581920903955	36.241610738255	21	0.700072296028957	2	12	3	NaN	2	4	0.0885331980424789	1	1	NaN	262	5	10	1	121	221	321	NaN	521	0.732210976071656	2	1	NaN	1719434.4971718	NaN	1719435.4805868	1719435.99710102
26	18	1	0	90	36.1581920903955	36.241610738255	12	0.400041312016547	2	3	3	NaN	1	3	0.0885331980424789	1	1	NaN	263	5	11	1	121	221	321	NaN	521	0.425619676010683	1	1	NaN	1719437.5473344	NaN	1719438.5308495	1719439.04739502
26	18	1	0	90	36.1581920903955	36.241610738255	14	0.466714864019305	2	7	6	NaN	2	4	0.0885331980424789	1	1	NaN	264	5	12	1	121	221	321	NaN	521	0.195257323794067	2	1	NaN	1719440.2978033	NaN	1719441.2811374	1719441.79767368
26	18	1	0	90	36.1581920903955	36.241610738255	8	0.266694208011031	2	12	1	NaN	2	5	0.0885331980424789	1	1	NaN	265	5	13	1	121	221	321	NaN	521	0.0104761759284884	2	1	NaN	1719442.8147449	NaN	1719443.7980745	1719444.31457802
26	18	1	0	90	36.1581920903955	36.241610738255	14	0.466714864019305	2	8	6	NaN	2	3	0.0885331980424789	1	1	NaN	266	5	14	1	121	221	321	NaN	521	1.48874293989502	2	1	NaN	1719445.1482163	NaN	1719446.1316555	1719446.64815066
26	18	1	0	90	36.1581920903955	36.241610738255	17	0.566725192023441	2	5	1	NaN	1	3	0.0885331980424789	1	1	NaN	267	5	15	1	121	221	321	NaN	521	0.104540532222018	1	1	NaN	1719448.9485985	NaN	1719449.931993	1719450.44852447
26	18	1	0	90	36.1581920903955	36.241610738255	10	0.333367760013789	2	7	6	NaN	2	4	0.0885331980424789	1	1	NaN	268	5	16	1	121	221	321	NaN	521	0.447240283945575	2	1	NaN	1719451.3820149	NaN	1719452.3655612	1719452.88210902
26	18	1	0	90	36.1581920903955	36.241610738255	13	0.433378088017926	2	7	4	NaN	2	4	0.0885331980424789	1	1	NaN	269	5	17	1	121	221	321	NaN	521	0.392269675852731	2	1	NaN	1719454.149102	NaN	1719455.1325113	1719455.64902592
26	18	1	0	90	36.1581920903955	36.241610738255	16	0.533388416022062	2	4	5	NaN	1	3	0.0885331980424789	1	1	NaN	270	5	18	1	121	221	321	NaN	521	0.0103503919672221	1	1	NaN	1719456.8660402	NaN	1719457.8494431	1719458.36596361
26	18	1	0	90	36.1581920903955	36.241610738255	24	0.800082624033093	2	11	1	NaN	2	4	0.0885331980424789	1	1	NaN	271	5	19	1	121	221	321	NaN	521	0.477405183948576	2	1	NaN	1719459.1996066	NaN	1719460.1830212	1719460.69953552
26	18	1	0	90	36.1581920903955	36.241610738255	13	0.433378088017926	2	4	2	NaN	1	3	0.0885331980424789	1	1	NaN	272	5	20	1	121	221	321	NaN	521	9.56521307607181	1	1	NaN	1719461.9997315	NaN	1719462.9832717	1719463.49980512
26	18	1	0	90	36.1581920903955	36.241610738255	17	0.566725192023441	2	9	3	NaN	2	5	0.0885331980424789	1	1	NaN	273	5	21	1	121	221	321	NaN	521	0.321064139949158	2	1	NaN	1719473.8842091	NaN	1719474.8677439	1719475.38429796
26	18	1	0	90	36.1581920903955	36.241610738255	8	0.266694208011031	2	12	2	NaN	2	3	0.0885331980424789	1	1	NaN	274	5	22	1	121	221	321	NaN	521	0.0104538800660521	2	1	NaN	1719476.5179671	NaN	1719477.5013403	1719478.01788942
26	18	1	0	90	36.1581920903955	36.241610738255	0	0	1	11	6	NaN	2	3	0.0885331980424789	1	1	NaN	275	5	23	1	111	211	311	NaN	511	2.28183367592283	2	1	NaN	1719478.8515282	NaN	1719479.8349287	1719480.35145072
26	18	1	0	90	36.1581920903955	36.241610738255	17	0.566725192023441	2	7	1	NaN	2	3	0.0885331980424789	1	1	NaN	276	5	24	1	121	221	321	NaN	521	0.0104877760168165	2	1	NaN	1719483.4519842	NaN	1719484.4353738	1719484.95190692
26	18	1	0	90	36.1581920903955	36.241610738255	11	0.366704536015168	2	11	1	NaN	2	4	0.0885331980424789	1	1	NaN	277	5	25	1	121	221	321	NaN	521	0.12378717190586	2	1	NaN	1719485.7855309	NaN	1719486.7689131	1719487.28546793
26	18	1	0	90	36.1581920903955	36.241610738255	24	0.800082624033093	2	1	2	NaN	1	4	0.0885331980424789	1	1	NaN	278	5	26	1	121	221	321	NaN	521	0.0893452358432114	1	1	NaN	1719488.2357709	NaN	1719489.2191707	1719489.73570666
26	18	1	0	90	36.1581920903955	36.241610738255	9	0.30003098401241	2	8	5	NaN	2	4	0.0885331980424789	1	1	NaN	279	5	27	1	121	221	321	NaN	521	0.0103800881188363	2	1	NaN	1719491.0693671	NaN	1719492.0528089	1719492.56932361
26	18	1	0	90	36.1581920903955	36.241610738255	22	0.733409072030336	2	12	4	NaN	2	4	0.0885331980424789	1	1	NaN	280	5	28	1	121	221	321	NaN	521	0.0582668797578663	2	1	NaN	1719493.4029347	NaN	1719494.3864557	1719494.90288512
26	18	1	0	90	36.1581920903955	36.241610738255	22	0.733409072030336	2	11	4	NaN	2	4	0.0885331980424789	1	1	NaN	281	5	29	1	121	221	321	NaN	521	0.0104864239692688	2	1	NaN	1719495.7865047	NaN	1719496.7699208	1719497.28644128
26	18	1	0	90	36.1581920903955	36.241610738255	15	0.500051640020683	2	9	4	NaN	2	4	0.0885331980424789	1	1	NaN	282	5	30	1	121	221	321	NaN	521	0.0103533919900656	2	1	NaN	1719498.1199498	NaN	1719499.1034596	1719499.62001301
26	18	1	0	90	36.1581920903955	36.241610738255	15	0.500051640020683	2	4	6	NaN	1	4	0.0885331980424789	1	1	NaN	283	5	31	1	121	221	321	NaN	521	0.62379042385146	2	0	NaN	1719500.4535192	NaN	1719501.436999	1719501.95357228
26	18	1	0	90	36.1581920903955	36.241610738255	8	0.266694208011031	2	4	6	NaN	1	5	0.0885331980424789	1	1	NaN	284	5	32	1	121	221	321	NaN	521	0.0104406797327101	1	1	NaN	1719503.9535727	NaN	1719504.9373816	1719505.45392212
26	18	1	0	90	36.1581920903955	36.241610738255	11	0.366704536015168	2	6	3	NaN	1	5	0.0885331980424789	1	1	NaN	285	5	33	1	121	221	321	NaN	521	0.0104097761213779	1	1	NaN	1719506.2875278	NaN	1719507.2709264	1719507.78747192
26	18	1	0	90	36.1581920903955	36.241610738255	15	0.500051640020683	2	11	3	NaN	2	5	0.0885331980424789	1	1	NaN	286	5	34	1	121	221	321	NaN	521	0.0104815759696066	2	1	NaN	1719508.6211212	NaN	1719509.6045109	1719510.12103812
26	18	1	0	90	36.1581920903955	36.241610738255	6	0.200020656008273	2	6	1	NaN	1	3	0.0885331980424789	1	1	NaN	287	5	35	1	121	221	321	NaN	521	1.21842532791197	1	1	NaN	1719510.9545245	NaN	1719511.9380607	1719512.45460407
26	18	1	0	90	36.1581920903955	36.241610738255	20	0.666735520027578	2	1	2	NaN	1	4	0.0885331980424789	1	1	NaN	288	5	36	1	121	221	321	NaN	521	0.700783176114783	1	1	NaN	1719514.4883526	NaN	1719515.4717503	1719515.98828832
26	18	1	0	90	36.1581920903955	36.241610738255	0	0	1	9	6	NaN	2	3	0.0885331980424789	1	1	NaN	289	5	37	1	111	211	311	NaN	511	0.411159876035526	2	1	NaN	1719517.5219908	NaN	1719518.5053783	1719519.02191732
26	18	1	0	90	36.1581920903955	36.241610738255	16	0.533388416022062	2	2	2	NaN	1	4	0.0885331980424789	1	1	NaN	290	5	38	1	121	221	321	NaN	521	1.42944907187484	1	1	NaN	1719520.2555753	NaN	1719521.239017	1719521.75551323
26	18	1	0	90	36.1581920903955	36.241610738255	21	0.700072296028957	2	8	5	NaN	2	3	0.0885331980424789	1	1	NaN	291	5	39	1	121	221	321	NaN	521	0.367632323876023	2	1	NaN	1719524.0058173	NaN	1719524.9893612	1719525.50588508
26	18	1	0	90	36.1581920903955	36.241610738255	8	0.266694208011031	2	1	4	NaN	1	5	0.0885331980424789	1	1	NaN	292	5	40	1	121	221	321	NaN	521	0.395630411803722	1	1	NaN	1719526.689393	NaN	1719527.6729781	1719528.18948009
26	18	1	0	90	36.1581920903955	36.241610738255	12	0.400041312016547	2	6	1	NaN	1	5	0.0885331980424789	1	1	NaN	293	5	41	1	121	221	321	NaN	521	0.295000327983871	1	1	NaN	1719529.40653	NaN	1719530.3898777	1719530.90640927
26	18	1	0	90	36.1581920903955	36.241610738255	18	0.60006196802482	2	3	1	NaN	1	3	0.0885331980424789	1	1	NaN	294	5	42	1	121	221	321	NaN	521	0.430110628018156	1	1	NaN	1719532.0234151	NaN	1719533.0068067	1719533.52333257
26	18	1	0	90	36.1581920903955	36.241610738255	11	0.366704536015168	2	4	3	NaN	1	3	0.0885331980424789	1	1	NaN	295	5	43	1	121	221	321	NaN	521	0.415368375834078	1	1	NaN	1719534.7736671	NaN	1719535.7570714	1719536.27360332
26	18	1	0	90	36.1581920903955	36.241610738255	25	0.833419400034472	2	5	6	NaN	1	4	0.0885331980424789	1	1	NaN	296	5	44	1	121	221	321	NaN	521	0.249174076132476	1	1	NaN	1719537.523812	NaN	1719538.5073492	1719539.02388042
26	18	1	0	90	36.1581920903955	36.241610738255	20	0.666735520027578	2	11	2	NaN	2	3	0.0885331980424789	1	1	NaN	297	5	45	1	121	221	321	NaN	521	0.332289175828919	2	1	NaN	1719541.04097	NaN	1719542.0243509	1719542.54089262
26	18	1	0	90	36.1581920903955	36.241610738255	19	0.633398744026199	2	1	6	NaN	1	4	0.0885331980424789	1	1	NaN	298	5	46	1	121	221	321	NaN	521	0.185928876046091	1	1	NaN	1719543.6912123	NaN	1719544.6746092	1719545.19115132
26	18	1	0	90	36.1581920903955	36.241610738255	16	0.533388416022062	2	3	3	NaN	1	4	0.0885331980424789	1	1	NaN	299	5	47	1	121	221	321	NaN	521	0.107789932051674	1	1	NaN	1719546.2414913	NaN	1719547.2248877	1719547.74140487
26	18	1	0	90	36.1581920903955	36.241610738255	23	0.766745848031715	2	2	4	NaN	1	3	0.0885331980424789	1	1	NaN	300	5	48	1	121	221	321	NaN	521	0.0342165878973901	2	0	NaN	1719548.6750329	NaN	1719549.6584244	1719550.17499371
26	18	1	0	90	36.1581920903955	36.241610738255	11	0.366704536015168	2	1	1	NaN	1	3	0.0885331980424789	1	1	NaN	301	5	49	1	121	221	321	NaN	521	0.342183979926631	1	1	NaN	1719551.3752815	NaN	1719552.3587629	1719552.87523342
26	18	1	0	90	36.1581920903955	36.241610738255	12	0.400041312016547	2	9	1	NaN	2	4	0.0885331980424789	1	1	NaN	302	5	50	1	121	221	321	NaN	521	0.0104922759346664	2	1	NaN	1719554.0421115	NaN	1719555.0256562	1719555.54216942
26	18	1	0	90	36.1581920903955	36.241610738255	17	0.566725192023441	2	4	3	NaN	1	5	0.0885331980424789	1	1	NaN	303	5	51	1	121	221	321	NaN	521	0.757367232115939	1	1	NaN	1719556.375783	NaN	1719557.3591961	1719557.87572407
26	18	1	0	90	36.1581920903955	36.241610738255	22	0.733409072030336	2	10	2	NaN	2	3	0.0885331980424789	1	1	NaN	304	5	52	1	121	221	321	NaN	521	1.73077807598747	2	1	NaN	1719559.4427608	NaN	1719560.4261799	1719560.94268892
26	18	1	0	90	36.1581920903955	36.241610738255	11	0.366704536015168	2	5	6	NaN	1	5	0.0885331980424789	1	1	NaN	305	5	53	1	121	221	321	NaN	521	0.127942623803392	1	1	NaN	1719563.4931663	NaN	1719564.4765607	1719564.99309878
26	18	1	0	90	36.1581920903955	36.241610738255	20	0.666735520027578	2	3	1	NaN	1	5	0.0885331980424789	1	1	NaN	306	5	54	1	121	221	321	NaN	521	0.318159776041284	1	1	NaN	1719565.9434916	NaN	1719566.9267863	1719567.44332882
26	18	1	0	90	36.1581920903955	36.241610738255	6	0.200020656008273	2	10	1	NaN	2	3	0.0885331980424789	1	1	NaN	307	5	55	1	121	221	321	NaN	521	0.300430576084182	2	1	NaN	1719568.5770168	NaN	1719569.560403	1719570.07693222
26	18	1	0	90	36.1581920903955	36.241610738255	12	0.400041312016547	2	10	3	NaN	2	5	0.0885331980424789	1	1	NaN	308	5	56	1	121	221	321	NaN	521	0.0104781759437174	2	1	NaN	1719571.5105932	NaN	1719572.4940165	1719573.01054762
26	18	1	0	90	36.1581920903955	36.241610738255	24	0.800082624033093	2	11	4	NaN	2	4	0.0885331980424789	1	1	NaN	309	5	57	1	121	221	321	NaN	521	0.0411432280670851	2	1	NaN	1719573.8440471	NaN	1719574.8275857	1719575.34410677
26	18	1	0	90	36.1581920903955	36.241610738255	24	0.800082624033093	2	1	5	NaN	1	5	0.0885331980424789	1	1	NaN	310	5	58	1	121	221	321	NaN	521	0.0500216798391193	1	1	NaN	1719576.211068	NaN	1719577.1944965	1719577.71100152
26	18	1	0	90	36.1581920903955	36.241610738255	9	0.30003098401241	2	3	1	NaN	1	4	0.0885331980424789	1	1	NaN	311	5	59	1	121	221	321	NaN	521	0.411537528038025	1	1	NaN	1719578.5778153	NaN	1719579.5612957	1719580.07791207
26	18	1	0	90	36.1581920903955	36.241610738255	18	0.60006196802482	2	12	6	NaN	2	4	0.0885331980424789	1	1	NaN	312	5	60	1	121	221	321	NaN	521	8.26178817613982	2	1	NaN	1719581.3115514	NaN	1719582.2950633	1719582.81150292
26	18	1	0	90	36.1581920903955	36.241610738255	18	0.60006196802482	2	5	2	NaN	1	5	0.0885331980424789	1	1	NaN	313	5	61	1	121	221	321	NaN	521	0.421614276012406	1	1	NaN	1719591.8959461	NaN	1719592.8793629	1719593.39587452
26	18	1	0	90	36.1581920903955	36.241610738255	17	0.566725192023441	2	1	3	NaN	1	3	0.0885331980424789	1	1	NaN	314	5	62	1	121	221	321	NaN	521	0.135666220216081	1	1	NaN	1719594.6295469	NaN	1719595.6129724	1719596.12947878
26	18	1	0	90	36.1581920903955	36.241610738255	16	0.533388416022062	2	9	1	NaN	2	3	0.0885331980424789	1	1	NaN	315	5	63	1	121	221	321	NaN	521	0.204797371989116	2	1	NaN	1719597.0964522	NaN	1719598.0798699	1719598.59639083
26	18	1	0	90	36.1581920903955	36.241610738255	23	0.766745848031715	2	9	6	NaN	2	4	0.0885331980424789	1	1	NaN	316	6	1	1	121	221	321	NaN	521	0.400033827871084	2	1	NaN	1719608.7976032	NaN	1719609.780999	1719610.29753747
26	18	1	0	90	36.1581920903955	36.241610738255	22	0.733409072030336	2	3	5	NaN	1	4	0.0885331980424789	1	1	NaN	317	6	2	1	121	221	321	NaN	521	1.41046752408147	1	1	NaN	1719611.5311942	NaN	1719612.5146088	1719613.03114508
26	18	1	0	90	36.1581920903955	36.241610738255	8	0.266694208011031	2	5	5	NaN	1	3	0.0885331980424789	1	1	NaN	318	6	3	1	121	221	321	NaN	521	0.764743275940418	1	1	NaN	1719615.2648975	NaN	1719616.2483291	1719616.76483882
26	18	1	0	90	36.1581920903955	36.241610738255	23	0.766745848031715	2	5	1	NaN	1	4	0.0885331980424789	1	1	NaN	319	6	4	1	121	221	321	NaN	521	1.3607804919593	1	1	NaN	1719618.3485422	NaN	1719619.3319177	1719619.84847931
26	18	1	0	90	36.1581920903955	36.241610738255	19	0.633398744026199	2	12	1	NaN	2	3	0.0885331980424789	1	1	NaN	320	6	5	1	121	221	321	NaN	521	0.228973475983366	2	1	NaN	1719622.0322151	NaN	1719623.0156049	1719623.53217442
26	18	1	0	90	36.1581920903955	36.241610738255	24	0.800082624033093	2	7	2	NaN	2	3	0.0885331980424789	1	1	NaN	321	6	6	1	121	221	321	NaN	521	0.0104980238247663	2	1	NaN	1719624.5824946	NaN	1719625.5658781	1719626.08241428
26	18	1	0	90	36.1581920903955	36.241610738255	6	0.200020656008273	2	1	6	NaN	1	4	0.0885331980424789	1	1	NaN	322	6	7	1	121	221	321	NaN	521	0.4767674759496	1	1	NaN	1719627.0327409	NaN	1719628.0161219	1719628.53265362
26	18	1	0	90	36.1581920903955	36.241610738255	13	0.433378088017926	2	7	2	NaN	2	4	0.0885331980424789	1	1	NaN	323	6	8	1	121	221	321	NaN	521	0.132600679993629	2	1	NaN	1719629.8330177	NaN	1719630.8164015	1719631.33293972
26	18	1	0	90	36.1581920903955	36.241610738255	0	0	1	12	6	NaN	2	3	0.0885331980424789	1	1	NaN	324	6	9	1	111	211	311	NaN	511	0.0104666280094534	2	1	NaN	1719632.2831309	NaN	1719633.2666445	1719633.78317987
26	18	1	0	90	36.1581920903955	36.241610738255	23	0.766745848031715	2	12	3	NaN	2	4	0.0885331980424789	1	1	NaN	325	6	10	1	121	221	321	NaN	521	0.212775023886934	2	1	NaN	1719634.6168025	NaN	1719635.6002034	1719636.11673068
26	18	1	0	90	36.1581920903955	36.241610738255	11	0.366704536015168	2	3	3	NaN	1	5	0.0885331980424789	1	1	NaN	326	6	11	1	121	221	321	NaN	521	0.25509973987937	1	1	NaN	1719637.1503969	NaN	1719638.1338223	1719638.65031766
26	18	1	0	90	36.1581920903955	36.241610738255	6	0.200020656008273	2	3	6	NaN	1	3	0.0885331980424789	1	1	NaN	327	6	12	1	121	221	321	NaN	521	0.847689323825762	1	1	NaN	1719639.7339732	NaN	1719640.7173967	1719641.23391278
26	18	1	0	90	36.1581920903955	36.241610738255	13	0.433378088017926	2	3	3	NaN	1	3	0.0885331980424789	1	1	NaN	328	6	13	1	121	221	321	NaN	521	0.728231475921348	1	1	NaN	1719642.9009706	NaN	1719643.8843247	1719644.40088122
26	18	1	0	90	36.1581920903955	36.241610738255	20	0.666735520027578	2	6	4	NaN	1	5	0.0885331980424789	1	1	NaN	329	6	14	1	121	221	321	NaN	521	0.350385223748162	1	1	NaN	1719645.9512515	NaN	1719646.9346499	1719647.45117828
26	18	1	0	90	36.1581920903955	36.241610738255	22	0.733409072030336	2	2	5	NaN	1	4	0.0885331980424789	1	1	NaN	330	6	15	1	121	221	321	NaN	521	0.378986675990745	1	1	NaN	1719648.6181713	NaN	1719649.6016095	1719650.11811322
26	18	1	0	90	36.1581920903955	36.241610738255	7	0.233357432009652	2	7	5	NaN	2	5	0.0885331980424789	1	1	NaN	331	6	16	1	121	221	321	NaN	521	0.438872179714963	2	1	NaN	1719651.3184555	NaN	1719652.301836	1719652.81838132
26	18	1	0	90	36.1581920903955	36.241610738255	12	0.400041312016547	2	1	2	NaN	1	3	0.0885331980424789	1	1	NaN	332	6	17	1	121	221	321	NaN	521	0.0104879238642752	1	1	NaN	1719654.0853759	NaN	1719655.068771	1719655.58531278
26	18	1	0	90	36.1581920903955	36.241610738255	24	0.800082624033093	2	5	2	NaN	1	3	0.0885331980424789	1	1	NaN	333	6	18	1	121	221	321	NaN	521	0.330439876066521	1	1	NaN	1719656.4189432	NaN	1719657.4023584	1719657.91888232
26	18	1	0	90	36.1581920903955	36.241610738255	8	0.266694208011031	2	3	4	NaN	1	5	0.0885331980424789	1	1	NaN	334	6	19	1	121	221	321	NaN	521	0.160111631965265	1	1	NaN	1719659.0692024	NaN	1719660.052597	1719660.56914267
26	18	1	0	90	36.1581920903955	36.241610738255	12	0.400041312016547	2	4	4	NaN	1	4	0.0885331980424789	1	1	NaN	335	6	20	1	121	221	321	NaN	521	0.0105507238768041	1	1	NaN	1719661.5527857	NaN	1719662.5361939	1719663.05270798
26	18	1	0	90	36.1581920903955	36.241610738255	0	0	1	5	6	NaN	1	5	0.0885331980424789	1	1	NaN	336	6	21	1	111	211	311	NaN	511	0.319113176083192	1	1	NaN	1719663.8863373	NaN	1719664.8697375	1719665.38627332
26	18	1	0	90	36.1581920903955	36.241610738255	23	0.766745848031715	2	8	5	NaN	2	4	0.0885331980424789	1	1	NaN	337	6	22	1	121	221	321	NaN	521	0.588813727954403	2	1	NaN	1719666.5366064	NaN	1719667.520007	1719668.03654227
26	18	1	0	90	36.1581920903955	36.241610738255	20	0.666735520027578	2	12	2	NaN	2	3	0.0885331980424789	1	1	NaN	338	6	23	1	121	221	321	NaN	521	0.655771927908063	2	1	NaN	1719669.4535864	NaN	1719670.4369601	1719670.95348267
26	18	1	0	90	36.1581920903955	36.241610738255	10	0.333367760013789	2	5	2	NaN	1	3	0.0885331980424789	1	1	NaN	339	6	24	1	121	221	321	NaN	521	0.32021907181479	1	1	NaN	1719672.4371895	NaN	1719673.4205811	1719673.93711013
26	18	1	0	90	36.1581920903955	36.241610738255	25	0.833419400034472	2	2	5	NaN	1	4	0.0885331980424789	1	1	NaN	340	6	25	1	121	221	321	NaN	521	0.0104243319947273	1	1	NaN	1719675.0707574	NaN	1719676.0541744	1719676.57070167
26	18	1	0	90	36.1581920903955	36.241610738255	24	0.800082624033093	2	4	1	NaN	1	3	0.0885331980424789	1	1	NaN	341	6	26	1	121	221	321	NaN	521	2.40091687603854	2	0	NaN	1719677.4043295	NaN	1719678.3877371	1719678.90427242
26	18	1	0	90	36.1581920903955	36.241610738255	23	0.766745848031715	2	1	3	NaN	1	5	0.0885331980424789	1	1	NaN	342	6	27	1	121	221	321	NaN	521	0.313935927813873	1	1	NaN	1719682.3714531	NaN	1719683.3548819	1719683.87141947
26	18	1	0	90	36.1581920903955	36.241610738255	0	0	1	3	2	NaN	1	5	0.0885331980424789	1	1	NaN	343	6	28	1	111	211	311	NaN	511	0.0884683760814369	1	1	NaN	1719685.005075	NaN	1719685.9884841	1719686.50502142
26	18	1	0	90	36.1581920903955	36.241610738255	0	0	1	1	5	NaN	1	3	0.0885331980424789	1	1	NaN	344	6	29	1	111	211	311	NaN	511	0.335467327851802	1	1	NaN	1719687.422001	NaN	1719688.4053802	1719688.92191617
26	18	1	0	90	36.1581920903955	36.241610738255	10	0.333367760013789	2	1	3	NaN	1	3	0.0885331980424789	1	1	NaN	345	6	30	1	121	221	321	NaN	521	0.284816376166418	1	1	NaN	1719690.0722477	NaN	1719691.055655	1719691.57217802
26	18	1	0	90	36.1581920903955	36.241610738255	25	0.833419400034472	2	4	4	NaN	1	5	0.0885331980424789	1	1	NaN	346	6	31	1	121	221	321	NaN	521	0.332354776095599	1	1	NaN	1719692.6891463	NaN	1719693.6726586	1719694.18910472
26	18	1	0	90	36.1581920903955	36.241610738255	7	0.233357432009652	2	8	6	NaN	2	4	0.0885331980424789	1	1	NaN	347	6	32	1	121	221	321	NaN	521	1.56213157996535	2	1	NaN	1719695.3394291	NaN	1719696.3228313	1719696.83936202
26	18	1	0	90	36.1581920903955	36.241610738255	0	0	1	6	3	NaN	1	4	0.0885331980424789	1	1	NaN	348	6	33	1	111	211	311	NaN	511	0.390092676039785	1	1	NaN	1719699.2231074	NaN	1719700.2065289	1719700.72308192
26	18	1	0	90	36.1581920903955	36.241610738255	18	0.60006196802482	2	10	6	NaN	2	4	0.0885331980424789	1	1	NaN	349	6	34	1	121	221	321	NaN	521	0.0732513759285212	2	1	NaN	1719701.9400832	NaN	1719702.9234805	1719703.44001302
26	18	1	0	90	36.1581920903955	36.241610738255	23	0.766745848031715	2	10	5	NaN	2	4	0.0885331980424789	1	1	NaN	350	6	35	1	121	221	321	NaN	521	0.0103793879970908	2	1	NaN	1719704.3403259	NaN	1719705.3236994	1719705.84025561
26	18	1	0	90	36.1581920903955	36.241610738255	11	0.366704536015168	2	2	5	NaN	1	4	0.0885331980424789	1	1	NaN	351	6	36	1	121	221	321	NaN	521	1.85154848801903	1	1	NaN	1719706.6738642	NaN	1719707.6573187	1719708.17380581
26	18	1	0	90	36.1581920903955	36.241610738255	16	0.533388416022062	2	7	4	NaN	2	4	0.0885331980424789	1	1	NaN	352	6	37	1	121	221	321	NaN	521	2.69972652406432	2	1	NaN	1719710.8576183	NaN	1719711.841012	1719712.35754438
26	18	1	0	90	36.1581920903955	36.241610738255	17	0.566725192023441	2	8	3	NaN	2	3	0.0885331980424789	1	1	NaN	353	6	38	1	121	221	321	NaN	521	0.434822535840794	2	1	NaN	1719715.8748016	NaN	1719716.8581901	1719717.37471436
26	18	1	0	90	36.1581920903955	36.241610738255	15	0.500051640020683	2	5	5	NaN	1	3	0.0885331980424789	1	1	NaN	354	6	39	1	121	221	321	NaN	521	0.148084675893188	1	1	NaN	1719718.6250551	NaN	1719719.6084466	1719720.12497742
26	18	1	0	90	36.1581920903955	36.241610738255	25	0.833419400034472	2	6	2	NaN	1	3	0.0885331980424789	1	1	NaN	355	6	40	1	121	221	321	NaN	521	0.0104803761932999	1	1	NaN	1719721.0919461	NaN	1719722.0753582	1719722.59188332
26	18	1	0	90	36.1581920903955	36.241610738255	6	0.200020656008273	2	3	2	NaN	1	3	0.0885331980424789	1	1	NaN	356	6	41	1	121	221	321	NaN	521	0.0598503279034048	1	1	NaN	1719723.4255029	NaN	1719724.4089087	1719724.92544997
26	18	1	0	90	36.1581920903955	36.241610738255	24	0.800082624033093	2	10	6	NaN	2	5	0.0885331980424789	1	1	NaN	357	6	42	1	121	221	321	NaN	521	0.0104573280550539	2	1	NaN	1719725.8090856	NaN	1719726.7925024	1719727.30902047
26	18	1	0	90	36.1581920903955	36.241610738255	14	0.466714864019305	2	12	4	NaN	2	5	0.0885331980424789	1	1	NaN	358	6	43	1	121	221	321	NaN	521	1.04340797988698	2	1	NaN	1719728.2260018	NaN	1719729.2093935	1719729.72592072
26	18	1	0	90	36.1581920903955	36.241610738255	25	0.833419400034472	2	9	5	NaN	2	4	0.0885331980424789	1	1	NaN	359	6	44	1	121	221	321	NaN	521	0.236305176047608	2	1	NaN	1719731.5928971	NaN	1719732.5763917	1719733.09291442
26	18	1	0	90	36.1581920903955	36.241610738255	22	0.733409072030336	2	4	4	NaN	1	5	0.0885331980424789	1	1	NaN	360	6	45	1	121	221	321	NaN	521	0.010482476092875	2	0	NaN	1719734.5764911	NaN	1719735.5600238	1719736.07655642
26	18	1	0	90	36.1581920903955	36.241610738255	7	0.233357432009652	2	5	2	NaN	1	4	0.0885331980424789	1	1	NaN	361	6	46	1	121	221	321	NaN	521	0.143641476053745	1	1	NaN	1719736.9101885	NaN	1719737.8935839	1719738.41010682
26	18	1	0	90	36.1581920903955	36.241610738255	21	0.700072296028957	2	3	2	NaN	1	3	0.0885331980424789	1	1	NaN	362	6	47	1	121	221	321	NaN	521	0.14033563202247	1	1	NaN	1719739.3770774	NaN	1719740.3605205	1719740.87701447
26	18	1	0	90	36.1581920903955	36.241610738255	21	0.700072296028957	2	6	4	NaN	1	5	0.0885331980424789	1	1	NaN	363	6	48	1	121	221	321	NaN	521	0.010471727931872	1	1	NaN	1719741.8271872	NaN	1719742.8106236	1719743.32726507
26	18	1	0	90	36.1581920903955	36.241610738255	6	0.200020656008273	2	5	1	NaN	1	4	0.0885331980424789	1	1	NaN	364	6	49	1	121	221	321	NaN	521	0.156490375986323	1	1	NaN	1719744.1608782	NaN	1719745.1442813	1719745.66081922
26	18	1	0	90	36.1581920903955	36.241610738255	8	0.266694208011031	2	7	1	NaN	2	4	0.0885331980424789	1	1	NaN	365	6	50	1	121	221	321	NaN	521	0.0104857238475233	2	1	NaN	1719746.6444703	NaN	1719747.6278658	1719748.14439308
26	18	1	0	90	36.1581920903955	36.241610738255	12	0.400041312016547	2	3	5	NaN	1	3	0.0885331980424789	1	1	NaN	366	6	51	1	121	221	321	NaN	521	0.107453692005947	1	1	NaN	1719748.9780248	NaN	1719749.9614792	1719750.47796261
26	18	1	0	90	36.1581920903955	36.241610738255	12	0.400041312016547	2	11	1	NaN	2	5	0.0885331980424789	1	1	NaN	367	6	52	1	121	221	321	NaN	521	0.0577292719390243	2	1	NaN	1719751.4115901	NaN	1719752.3949994	1719752.91152103
26	18	1	0	90	36.1581920903955	36.241610738255	13	0.433378088017926	2	9	1	NaN	2	4	0.0885331980424789	1	1	NaN	368	6	53	1	121	221	321	NaN	521	1.69824707182124	2	1	NaN	1719753.7951349	NaN	1719754.7785591	1719755.29510373
26	18	1	0	90	36.1581920903955	36.241610738255	21	0.700072296028957	2	11	6	NaN	2	3	0.0885331980424789	1	1	NaN	369	6	54	1	121	221	321	NaN	521	0.0104874761309475	2	1	NaN	1719757.8122986	NaN	1719758.7956267	1719759.31215762
26	18	1	0	90	36.1581920903955	36.241610738255	24	0.800082624033093	2	5	4	NaN	1	4	0.0885331980424789	1	1	NaN	370	6	55	1	121	221	321	NaN	521	0.0756453238427639	1	1	NaN	1719760.1457712	NaN	1719761.1291937	1719761.64572538
26	18	1	0	90	36.1581920903955	36.241610738255	13	0.433378088017926	2	8	6	NaN	2	4	0.0885331980424789	1	1	NaN	371	6	56	1	121	221	321	NaN	521	1.57941703568213	2	1	NaN	1719762.5460103	NaN	1719763.529425	1719764.04596756
26	18	1	0	90	36.1581920903955	36.241610738255	13	0.433378088017926	2	6	5	NaN	1	4	0.0885331980424789	1	1	NaN	372	6	57	1	121	221	321	NaN	521	1.92686927621253	1	1	NaN	1719766.4464114	NaN	1719767.4298174	1719767.94634052
26	18	1	0	90	36.1581920903955	36.241610738255	6	0.200020656008273	2	11	3	NaN	2	4	0.0885331980424789	1	1	NaN	373	6	58	1	121	221	321	NaN	521	2.42857422400266	2	1	NaN	1719770.6967216	NaN	1719771.680228	1719772.19676128
26	18	1	0	90	36.1581920903955	36.241610738255	20	0.666735520027578	2	11	2	NaN	2	3	0.0885331980424789	1	1	NaN	374	6	59	1	121	221	321	NaN	521	0.0104723761323839	2	1	NaN	1719775.4306213	NaN	1719776.4140135	1719776.93054782
26	18	1	0	90	36.1581920903955	36.241610738255	12	0.400041312016547	2	8	1	NaN	2	4	0.0885331980424789	1	1	NaN	375	6	60	1	121	221	321	NaN	521	0.0972679760307074	2	1	NaN	1719777.7641752	NaN	1719778.7475867	1719779.26411042
26	18	1	0	90	36.1581920903955	36.241610738255	21	0.700072296028957	2	2	1	NaN	1	3	0.0885331980424789	1	1	NaN	376	6	61	1	121	221	321	NaN	521	0.27271477994509	1	1	NaN	1719780.1810655	NaN	1719781.1644948	1719781.68102522
26	18	1	0	90	36.1581920903955	36.241610738255	22	0.733409072030336	2	9	2	NaN	2	3	0.0885331980424789	1	1	NaN	377	6	62	1	121	221	321	NaN	521	0.0104157838504761	2	1	NaN	1719782.7811967	NaN	1719783.7647668	1719784.28127882
26	18	1	0	90	36.1581920903955	36.241610738255	15	0.500051640020683	2	8	2	NaN	2	4	0.0885331980424789	1	1	NaN	378	6	63	1	121	221	321	NaN	521	0.106619075872004	2	1	NaN	1719785.1149347	NaN	1719786.0983327	1719786.61483952
26	18	1	0	90	36.1581920903955	36.241610738255	11	0.366704536015168	2	12	4	NaN	2	3	0.0885331980424789	1	1	NaN	379	7	1	1	121	221	321	NaN	521	0.0103009480517358	2	1	NaN	1719807.8171176	NaN	1719808.8005383	1719809.31707515
26	18	1	0	90	36.1581920903955	36.241610738255	20	0.666735520027578	2	4	4	NaN	1	3	0.0885331980424789	1	1	NaN	380	7	2	1	121	221	321	NaN	521	0.350874992087483	1	1	NaN	1719810.1506733	NaN	1719811.1340738	1719811.65063071
26	18	1	0	90	36.1581920903955	36.241610738255	15	0.500051640020683	2	2	1	NaN	1	3	0.0885331980424789	1	1	NaN	381	7	3	1	121	221	321	NaN	521	0.0104939760640264	1	1	NaN	1719812.8176107	NaN	1719813.8010414	1719814.31757862
26	18	1	0	90	36.1581920903955	36.241610738255	0	0	1	2	4	NaN	1	5	0.0885331980424789	1	1	NaN	382	7	4	1	111	211	311	NaN	511	0.886283923871815	1	1	NaN	1719815.1512004	NaN	1719816.1346167	1719816.65111448
26	18	1	0	90	36.1581920903955	36.241610738255	22	0.733409072030336	2	4	1	NaN	1	3	0.0885331980424789	1	1	NaN	383	7	5	1	121	221	321	NaN	521	0.373287276132032	1	1	NaN	1719818.3681616	NaN	1719819.351582	1719819.86811782
26	18	1	0	90	36.1581920903955	36.241610738255	23	0.766745848031715	2	9	4	NaN	2	3	0.0885331980424789	1	1	NaN	384	7	6	1	121	221	321	NaN	521	0.465736432000995	2	1	NaN	1719821.0516236	NaN	1719822.0351526	1719822.55170567
26	18	1	0	90	36.1581920903955	36.241610738255	8	0.266694208011031	2	6	5	NaN	1	3	0.0885331980424789	1	1	NaN	385	7	7	1	121	221	321	NaN	521	0.538217223947868	1	1	NaN	1719823.8353618	NaN	1719824.8187722	1719825.33529918
26	18	1	0	90	36.1581920903955	36.241610738255	7	0.233357432009652	2	9	1	NaN	2	5	0.0885331980424789	1	1	NaN	386	7	8	1	121	221	321	NaN	521	0.207301339833066	2	1	NaN	1719826.7021766	NaN	1719827.6857263	1719828.20227386
26	18	1	0	90	36.1581920903955	36.241610738255	13	0.433378088017926	2	3	5	NaN	1	4	0.0885331980424789	1	1	NaN	387	7	9	1	121	221	321	NaN	521	0.138272776035592	1	1	NaN	1719829.2192201	NaN	1719830.2026273	1719830.71916432
26	18	1	0	90	36.1581920903955	36.241610738255	14	0.466714864019305	2	11	5	NaN	2	3	0.0885331980424789	1	1	NaN	388	7	10	1	121	221	321	NaN	521	0.0794784838799387	2	1	NaN	1719831.6861048	NaN	1719832.6695515	1719833.18608352
26	18	1	0	90	36.1581920903955	36.241610738255	9	0.30003098401241	2	10	1	NaN	2	4	0.0885331980424789	1	1	NaN	389	7	11	1	121	221	321	NaN	521	0.0104723758995533	2	1	NaN	1719834.0863673	NaN	1719835.0697865	1719835.58631432
26	18	1	0	90	36.1581920903955	36.241610738255	14	0.466714864019305	2	6	4	NaN	1	3	0.0885331980424789	1	1	NaN	390	7	12	1	121	221	321	NaN	521	0.641724728047848	1	1	NaN	1719836.4199226	NaN	1719837.4033747	1719837.91987027
26	18	1	0	90	36.1581920903955	36.241610738255	17	0.566725192023441	2	1	2	NaN	1	4	0.0885331980424789	1	1	NaN	391	7	13	1	121	221	321	NaN	521	0.606873675948009	1	1	NaN	1719839.8869234	NaN	1719840.870351	1719841.38687572
26	18	1	0	90	36.1581920903955	36.241610738255	13	0.433378088017926	2	12	3	NaN	2	5	0.0885331980424789	1	1	NaN	392	7	14	1	121	221	321	NaN	521	0.0105299719143659	2	1	NaN	1719842.8205667	NaN	1719843.8039816	1719844.32050083
26	18	1	0	90	36.1581920903955	36.241610738255	24	0.800082624033093	2	12	3	NaN	2	5	0.0885331980424789	1	1	NaN	393	7	15	1	121	221	321	NaN	521	2.09137432812713	2	1	NaN	1719845.1540168	NaN	1719846.1375826	1719846.65406877
26	18	1	0	90	36.1581920903955	36.241610738255	13	0.433378088017926	2	11	6	NaN	2	3	0.0885331980424789	1	1	NaN	394	7	16	1	121	221	321	NaN	521	0.379831776022911	1	0	NaN	1719849.737764	NaN	1719850.7213146	1719851.23784352
26	18	1	0	90	36.1581920903955	36.241610738255	18	0.60006196802482	2	5	3	NaN	1	4	0.0885331980424789	1	1	NaN	395	7	17	1	121	221	321	NaN	521	0.0104920759331435	1	1	NaN	1719852.4380443	NaN	1719853.4215795	1719853.93810412
26	18	1	0	90	36.1581920903955	36.241610738255	18	0.60006196802482	2	12	2	NaN	2	5	0.0885331980424789	1	1	NaN	396	7	18	1	121	221	321	NaN	521	0.0104411798529327	2	1	NaN	1719855.0550735	NaN	1719856.0384988	1719856.55503312
26	18	1	0	90	36.1581920903955	36.241610738255	12	0.400041312016547	2	8	2	NaN	2	5	0.0885331980424789	1	1	NaN	397	7	19	1	121	221	321	NaN	521	2.96933307591826	2	1	NaN	1719857.388676	NaN	1719858.3720552	1719858.88859892
26	18	1	0	90	36.1581920903955	36.241610738255	13	0.433378088017926	2	1	1	NaN	1	5	0.0885331980424789	1	1	NaN	398	7	20	1	121	221	321	NaN	521	0.18067977600731	1	1	NaN	1719862.6891759	NaN	1719863.6725929	1719864.18911812
26	18	1	0	90	36.1581920903955	36.241610738255	22	0.733409072030336	2	6	5	NaN	1	3	0.0885331980424789	1	1	NaN	399	7	21	1	121	221	321	NaN	521	0.112098223762587	1	1	NaN	1719865.189418	NaN	1719866.1728321	1719866.68936708
26	18	1	0	90	36.1581920903955	36.241610738255	7	0.233357432009652	2	12	1	NaN	2	5	0.0885331980424789	1	1	NaN	400	7	22	1	121	221	321	NaN	521	0.0103886879514903	2	1	NaN	1719867.6229957	NaN	1719868.6064552	1719869.12293371
26	18	1	0	90	36.1581920903955	36.241610738255	23	0.766745848031715	2	4	1	NaN	1	3	0.0885331980424789	1	1	NaN	401	7	23	1	121	221	321	NaN	521	1.26439534407109	1	1	NaN	1719869.9732452	NaN	1719870.9566412	1719871.47317486
26	18	1	0	90	36.1581920903955	36.241610738255	15	0.500051640020683	2	9	5	NaN	2	3	0.0885331980424789	1	1	NaN	402	7	24	1	121	221	321	NaN	521	0.0699471919797361	2	1	NaN	1719874.0236093	NaN	1719875.0070179	1719875.52357051
26	18	1	0	90	36.1581920903955	36.241610738255	6	0.200020656008273	2	10	6	NaN	2	3	0.0885331980424789	1	1	NaN	403	7	25	1	121	221	321	NaN	521	0.277864823816344	2	1	NaN	1719876.4238749	NaN	1719877.4072702	1719877.92379478
26	18	1	0	90	36.1581920903955	36.241610738255	12	0.400041312016547	2	11	6	NaN	2	3	0.0885331980424789	1	1	NaN	404	7	26	1	121	221	321	NaN	521	0.010414183838293	2	1	NaN	1719879.0241123	NaN	1719880.0075243	1719880.52406232
26	18	1	0	90	36.1581920903955	36.241610738255	20	0.666735520027578	2	4	2	NaN	1	5	0.0885331980424789	1	1	NaN	405	7	27	1	121	221	321	NaN	521	0.0104597278404981	1	1	NaN	1719881.3576785	NaN	1719882.3410635	1719882.85761907
26	18	1	0	90	36.1581920903955	36.241610738255	11	0.366704536015168	2	7	2	NaN	2	3	0.0885331980424789	1	1	NaN	406	7	28	1	121	221	321	NaN	521	0.0104612279683352	2	1	NaN	1719883.6912535	NaN	1719884.6746722	1719885.19117747
26	18	1	0	90	36.1581920903955	36.241610738255	10	0.333367760013789	2	6	4	NaN	1	5	0.0885331980424789	1	1	NaN	407	7	29	1	121	221	321	NaN	521	0.0104742760304362	1	1	NaN	1719886.0246624	NaN	1719887.0082108	1719887.52474632
26	18	1	0	90	36.1581920903955	36.241610738255	22	0.733409072030336	2	12	4	NaN	2	4	0.0885331980424789	1	1	NaN	408	7	30	1	121	221	321	NaN	521	1.23958717985079	2	1	NaN	1719888.358371	NaN	1719889.3417594	1719889.85831122
26	18	1	0	90	36.1581920903955	36.241610738255	20	0.666735520027578	2	12	1	NaN	2	4	0.0885331980424789	1	1	NaN	409	7	31	1	121	221	321	NaN	521	1.04015954397619	2	1	NaN	1719891.9253857	NaN	1719892.9087792	1719893.42533196
26	18	1	0	90	36.1581920903955	36.241610738255	9	0.30003098401241	2	5	4	NaN	1	5	0.0885331980424789	1	1	NaN	410	7	32	1	121	221	321	NaN	521	0.401395335793495	1	1	NaN	1719895.2923983	NaN	1719896.2757777	1719896.79231756
26	18	1	0	90	36.1581920903955	36.241610738255	19	0.633398744026199	2	3	1	NaN	1	3	0.0885331980424789	1	1	NaN	411	7	33	1	121	221	321	NaN	521	0.0755959239322692	1	1	NaN	1719898.0259823	NaN	1719899.0093918	1719899.52591548
26	18	1	0	90	36.1581920903955	36.241610738255	23	0.766745848031715	2	7	6	NaN	2	3	0.0885331980424789	1	1	NaN	412	7	34	1	121	221	321	NaN	521	0.010488476138562	2	1	NaN	1719900.4262128	NaN	1719901.4096023	1719901.92615242
26	18	1	0	90	36.1581920903955	36.241610738255	12	0.400041312016547	2	2	5	NaN	1	3	0.0885331980424789	1	1	NaN	413	7	35	1	121	221	321	NaN	521	0.21383852395229	1	1	NaN	1719902.7596557	NaN	1719903.74318	1719904.25970828
26	18	1	0	90	36.1581920903955	36.241610738255	15	0.500051640020683	2	11	1	NaN	2	3	0.0885331980424789	1	1	NaN	414	7	36	1	121	221	321	NaN	521	0.0104911238886416	2	1	NaN	1719905.2934474	NaN	1719906.2767039	1719906.79329328
26	18	1	0	90	36.1581920903955	36.241610738255	24	0.800082624033093	2	8	4	NaN	2	5	0.0885331980424789	1	1	NaN	415	7	37	1	121	221	321	NaN	521	0.0104578279424459	2	1	NaN	1719907.6269328	NaN	1719908.6103285	1719909.12686417
26	18	1	0	90	36.1581920903955	36.241610738255	10	0.333367760013789	2	7	5	NaN	2	3	0.0885331980424789	1	1	NaN	416	7	38	1	121	221	321	NaN	521	0.0372778922319412	2	1	NaN	1719909.9604806	NaN	1719910.94389	1719911.46042141
26	18	1	0	90	36.1581920903955	36.241610738255	14	0.466714864019305	2	12	5	NaN	2	3	0.0885331980424789	1	1	NaN	417	7	39	1	121	221	321	NaN	521	0.374763024039567	2	1	NaN	1719912.3273796	NaN	1719913.3107888	1719913.82731488
26	18	1	0	90	36.1581920903955	36.241610738255	7	0.233357432009652	2	4	1	NaN	1	3	0.0885331980424789	1	1	NaN	418	7	40	1	121	221	321	NaN	521	0.010459927842021	1	1	NaN	1719915.0277165	NaN	1719916.0110555	1719916.52758997
26	18	1	0	90	36.1581920903955	36.241610738255	10	0.333367760013789	2	4	6	NaN	1	4	0.0885331980424789	1	1	NaN	419	7	41	1	121	221	321	NaN	521	0.356417143950239	1	1	NaN	1719917.3612047	NaN	1719918.3446366	1719918.86115436
26	18	1	0	90	36.1581920903955	36.241610738255	21	0.700072296028957	2	4	5	NaN	1	3	0.0885331980424789	1	1	NaN	420	7	42	1	121	221	321	NaN	521	0.305764471879229	1	1	NaN	1719920.0281388	NaN	1719921.0115514	1719921.52807813
26	18	1	0	90	36.1581920903955	36.241610738255	6	0.200020656008273	2	1	1	NaN	1	3	0.0885331980424789	1	1	NaN	421	7	43	1	121	221	321	NaN	521	0.336647683754563	1	1	NaN	1719922.6450537	NaN	1719923.6284675	1719924.14500742
26	18	1	0	90	36.1581920903955	36.241610738255	20	0.666735520027578	2	5	6	NaN	1	5	0.0885331980424789	1	1	NaN	422	7	44	1	121	221	321	NaN	521	0.269994223956019	1	1	NaN	1719925.3119929	NaN	1719926.2953872	1719926.81193018
26	18	1	0	90	36.1581920903955	36.241610738255	9	0.30003098401241	2	9	4	NaN	2	4	0.0885331980424789	1	1	NaN	423	7	45	1	121	221	321	NaN	521	0.237145835999399	2	1	NaN	1719927.912119	NaN	1719928.8956564	1719929.41219306
26	18	1	0	90	36.1581920903955	36.241610738255	0	0	1	5	2	NaN	1	4	0.0885331980424789	1	1	NaN	424	7	46	1	111	211	311	NaN	511	0.166835231939331	1	1	NaN	1719930.4791519	NaN	1719931.462621	1719931.97909787
26	18	1	0	90	36.1581920903955	36.241610738255	6	0.200020656008273	2	4	5	NaN	1	3	0.0885331980424789	1	1	NaN	425	7	47	1	121	221	321	NaN	521	0.299243423854932	1	1	NaN	1719932.9627473	NaN	1719933.9461529	1719934.46267448
26	18	1	0	90	36.1581920903955	36.241610738255	14	0.466714864019305	2	4	6	NaN	1	4	0.0885331980424789	1	1	NaN	426	7	48	1	121	221	321	NaN	521	0.138107779901475	1	1	NaN	1719935.5796657	NaN	1719936.5630685	1719937.07960052
26	18	1	0	90	36.1581920903955	36.241610738255	16	0.533388416022062	2	2	4	NaN	1	3	0.0885331980424789	1	1	NaN	427	7	49	1	121	221	321	NaN	521	0.0103350440040231	1	1	NaN	1719938.0299255	NaN	1719939.0133213	1719939.52985476
26	18	1	0	90	36.1581920903955	36.241610738255	14	0.466714864019305	2	10	5	NaN	2	5	0.0885331980424789	1	1	NaN	428	7	50	1	121	221	321	NaN	521	0.0104623278602958	2	1	NaN	1719940.3634714	NaN	1719941.3468821	1719941.86340527
26	18	1	0	90	36.1581920903955	36.241610738255	8	0.266694208011031	2	6	2	NaN	1	4	0.0885331980424789	1	1	NaN	429	7	51	1	121	221	321	NaN	521	1.74057462369092	1	1	NaN	1719942.6970207	NaN	1719943.6804638	1719944.19697238
26	18	1	0	90	36.1581920903955	36.241610738255	13	0.433378088017926	2	8	1	NaN	2	5	0.0885331980424789	1	1	NaN	430	7	52	1	121	221	321	NaN	521	0.250025196000934	2	1	NaN	1719946.7641079	NaN	1719947.7475062	1719948.2640357
26	18	1	0	90	36.1581920903955	36.241610738255	14	0.466714864019305	2	1	4	NaN	1	3	0.0885331980424789	1	1	NaN	431	7	53	1	121	221	321	NaN	521	0.346845528110862	1	1	NaN	1719949.3309112	NaN	1719950.3144262	1719950.83095237
26	18	1	0	90	36.1581920903955	36.241610738255	7	0.233357432009652	2	2	6	NaN	1	5	0.0885331980424789	1	1	NaN	432	7	54	1	121	221	321	NaN	521	0.823716276092455	1	1	NaN	1719951.9980403	NaN	1719952.9813437	1719953.49788082
26	18	1	0	90	36.1581920903955	36.241610738255	13	0.433378088017926	2	10	3	NaN	2	4	0.0885331980424789	1	1	NaN	433	7	55	1	121	221	321	NaN	521	0.0104048759676516	2	1	NaN	1719955.1481406	NaN	1719956.1316594	1719956.64818612
26	18	1	0	90	36.1581920903955	36.241610738255	13	0.433378088017926	2	5	6	NaN	1	5	0.0885331980424789	1	1	NaN	434	7	56	1	121	221	321	NaN	521	0.0103866879362613	1	1	NaN	1719957.4817073	NaN	1719958.4652046	1719958.98175521
26	18	1	0	90	36.1581920903955	36.241610738255	25	0.833419400034472	2	7	3	NaN	2	3	0.0885331980424789	1	1	NaN	435	7	57	1	121	221	321	NaN	521	0.0104912237729877	2	1	NaN	1719959.8152215	NaN	1719960.7988097	1719961.31530858
26	18	1	0	90	36.1581920903955	36.241610738255	23	0.766745848031715	2	12	5	NaN	2	3	0.0885331980424789	1	1	NaN	436	7	58	1	121	221	321	NaN	521	0.304592943983153	2	1	NaN	1719962.1489426	NaN	1719963.1323652	1719963.64888876
26	18	1	0	90	36.1581920903955	36.241610738255	14	0.466714864019305	2	9	1	NaN	2	5	0.0885331980424789	1	1	NaN	437	7	59	1	121	221	321	NaN	521	0.0104803759604692	2	1	NaN	1719964.7825314	NaN	1719965.7659142	1719966.28247622
26	18	1	0	90	36.1581920903955	36.241610738255	9	0.30003098401241	2	4	5	NaN	1	4	0.0885331980424789	1	1	NaN	438	7	60	1	121	221	321	NaN	521	0.0104750760365278	1	1	NaN	1719967.1160757	NaN	1719968.0995031	1719968.61603012
26	18	1	0	90	36.1581920903955	36.241610738255	22	0.733409072030336	2	5	3	NaN	1	3	0.0885331980424789	1	1	NaN	439	7	61	1	121	221	321	NaN	521	0.0522306920029223	1	1	NaN	1719969.4496503	NaN	1719970.4330518	1719970.94959891
26	18	1	0	90	36.1581920903955	36.241610738255	0	0	1	3	4	NaN	1	3	0.0885331980424789	1	1	NaN	440	7	62	1	111	211	311	NaN	511	1.22087437985465	1	1	NaN	1719971.8332173	NaN	1719972.8166104	1719973.33315692
26	18	1	0	90	36.1581920903955	36.241610738255	10	0.333367760013789	2	2	3	NaN	1	3	0.0885331980424789	1	1	NaN	441	7	63	1	121	221	321	NaN	521	0.390279244165868	1	1	NaN	1719975.3835823	NaN	1719976.3669825	1719976.88351976
26	18	1	0	90	36.1581920903955	36.241610738255	9	0.30003098401241	2	7	4	NaN	2	3	0.0885331980424789	1	1	NaN	442	8	1	1	121	221	321	NaN	521	0.0104729761369526	2	1	NaN	1719991.1184122	NaN	1719992.1018493	1719992.61838682
26	18	1	0	90	36.1581920903955	36.241610738255	6	0.200020656008273	2	8	1	NaN	2	5	0.0885331980424789	1	1	NaN	443	8	2	1	121	221	321	NaN	521	1.21775542804971	2	1	NaN	1719993.4520267	NaN	1719994.4354193	1719994.95195617
26	18	1	0	90	36.1581920903955	36.241610738255	17	0.566725192023441	2	3	1	NaN	1	3	0.0885331980424789	1	1	NaN	444	8	3	1	121	221	321	NaN	521	1.90019282791764	2	0	NaN	1719996.9857076	NaN	1719997.9690982	1719998.48563287
26	18	1	0	90	36.1581920903955	36.241610738255	11	0.366704536015168	2	10	4	NaN	2	5	0.0885331980424789	1	1	NaN	445	8	4	1	121	221	321	NaN	521	4.40301482798532	2	1	NaN	1720001.2027644	NaN	1720002.1862032	1720002.70271267
26	18	1	0	90	36.1581920903955	36.241610738255	7	0.233357432009652	2	10	6	NaN	2	5	0.0885331980424789	1	1	NaN	446	8	5	1	121	221	321	NaN	521	0.485178176080808	2	1	NaN	1720007.9367844	NaN	1720008.9201728	1720009.43669882
26	18	1	0	90	36.1581920903955	36.241610738255	18	0.60006196802482	2	8	5	NaN	2	5	0.0885331980424789	1	1	NaN	447	8	6	1	121	221	321	NaN	521	1.43646827619523	2	1	NaN	1720010.7369523	NaN	1720011.7204623	1720012.23697792
26	18	1	0	90	36.1581920903955	36.241610738255	24	0.800082624033093	2	3	1	NaN	1	4	0.0885331980424789	1	1	NaN	448	8	7	1	121	221	321	NaN	521	0.0104759279638529	1	1	NaN	1720014.4874159	NaN	1720015.4708174	1720015.98735707
26	18	1	0	90	36.1581920903955	36.241610738255	8	0.266694208011031	2	9	5	NaN	2	4	0.0885331980424789	1	1	NaN	449	8	8	1	121	221	321	NaN	521	8.62488312786445	2	1	NaN	1720016.8210096	NaN	1720017.8043789	1720018.32090937
26	18	1	0	90	36.1581920903955	36.241610738255	8	0.266694208011031	2	1	6	NaN	1	4	0.0885331980424789	1	1	NaN	450	8	9	1	121	221	321	NaN	521	2.24970782385208	1	1	NaN	1720027.7720553	NaN	1720028.7554733	1720029.27197608
26	18	1	0	90	36.1581920903955	36.241610738255	17	0.566725192023441	2	2	6	NaN	1	3	0.0885331980424789	1	1	NaN	451	8	10	1	121	221	321	NaN	521	0.283067435957491	1	1	NaN	1720032.3391609	NaN	1720033.3225488	1720033.83910326
26	18	1	0	90	36.1581920903955	36.241610738255	6	0.200020656008273	2	12	3	NaN	2	5	0.0885331980424789	1	1	NaN	452	8	11	1	121	221	321	NaN	521	0.946311840089038	2	1	NaN	1720034.9394182	NaN	1720035.9228273	1720036.43935386
26	18	1	0	90	36.1581920903955	36.241610738255	14	0.466714864019305	2	2	2	NaN	1	5	0.0885331980424789	1	1	NaN	453	8	12	1	121	221	321	NaN	521	0.0104688759893179	1	1	NaN	1720038.2062797	NaN	1720039.1898045	1720039.70634042
26	18	1	0	90	36.1581920903955	36.241610738255	24	0.800082624033093	2	12	4	NaN	2	5	0.0885331980424789	1	1	NaN	454	8	13	1	121	221	321	NaN	521	0.137869675876573	2	1	NaN	1720040.5399875	NaN	1720041.5233878	1720042.03990922
26	18	1	0	90	36.1581920903955	36.241610738255	9	0.30003098401241	2	2	2	NaN	1	5	0.0885331980424789	1	1	NaN	455	8	14	1	121	221	321	NaN	521	0.655276075936854	1	1	NaN	1720043.0068729	NaN	1720043.9902756	1720044.50681862
26	18	1	0	90	36.1581920903955	36.241610738255	18	0.60006196802482	2	4	5	NaN	1	3	0.0885331980424789	1	1	NaN	456	8	15	1	121	221	321	NaN	521	0.0104254840407521	1	1	NaN	1720045.9903983	NaN	1720046.9739008	1720047.49043752
26	18	1	0	90	36.1581920903955	36.241610738255	20	0.666735520027578	2	10	3	NaN	2	3	0.0885331980424789	1	1	NaN	457	8	16	1	121	221	321	NaN	521	0.138134900014848	2	1	NaN	1720048.3240622	NaN	1720049.307472	1720049.8240028
26	18	1	0	90	36.1581920903955	36.241610738255	10	0.333367760013789	2	11	2	NaN	2	5	0.0885331980424789	1	1	NaN	458	8	17	1	121	221	321	NaN	521	0.23191599198617	2	1	NaN	1720050.774177	NaN	1720051.7577037	1720052.27424921
