subjno	age	gender	isPractice	viewdist	CmToPixX	CmToPixY	SOA_frm	SOA_time	targNum	targID	targExample	targRace	targGender	firstTargPos	contrast	familiarity	curr_staircase	iStair	TrialNum	BlockNum	blktrl	sessionNum	TC_FIXATION	TC_RSVP_START	TC_RSVP_END	TC_BLANK	TC_RESPONSE_ONSET	RT2afc	resp_2afc	acc	RSVPOnsetVBL	RSVPOnsetTime	RSVPOffsetVBL	RSVPOffsetTime	startrt_2afc
23	20	0	0	90	36.1581920903955	36.241610738255	6	0.200021135956049	2	2	6	NaN	1	3	0.0555282324327609	1	1	NaN	1	1	1	2	121	221	321	NaN	521	1.76911593228579	1	1	NaN	2411832.5252977	NaN	2411833.5086205	2411834.04172017
23	20	0	0	90	36.1581920903955	36.241610738255	21	0.700073975846171	2	2	2	NaN	1	5	0.0555282324327609	1	1	NaN	2	1	2	2	121	221	321	NaN	521	0.602363680489361	1	1	NaN	2411836.6755913	NaN	2411837.6589904	2411838.19212092
23	20	0	0	90	36.1581920903955	36.241610738255	10	0.333368559926748	2	11	5	NaN	2	5	0.0555282324327609	1	1	NaN	3	1	3	2	121	221	321	NaN	521	0.90356484381482	1	0	NaN	2411839.7590012	NaN	2411840.7425854	2411841.25908956
23	20	0	0	90	36.1581920903955	36.241610738255	6	0.200021135956049	2	5	1	NaN	1	3	0.0555282324327609	1	1	NaN	4	1	4	2	121	221	321	NaN	521	0.333867780398577	1	1	NaN	2411842.9928386	NaN	2411843.9761799	2411844.49274072
23	20	0	0	90	36.1581920903955	36.241610738255	10	0.333368559926748	2	6	1	NaN	1	3	0.0555282324327609	1	1	NaN	5	1	5	2	121	221	321	NaN	521	0.250741676427424	1	1	NaN	2411845.6597178	NaN	2411846.6431172	2411847.15966822
23	20	0	0	90	36.1581920903955	36.241610738255	7	0.233357991948724	2	8	2	NaN	2	4	0.0555282324327609	1	1	NaN	6	1	6	2	121	221	321	NaN	521	0.315435828175396	2	1	NaN	2411848.2433168	NaN	2411849.2267062	2411849.74326057
23	20	0	0	90	36.1581920903955	36.241610738255	23	0.766747687831521	2	11	1	NaN	2	5	0.0555282324327609	1	1	NaN	7	1	7	2	121	221	321	NaN	521	0.321942528244108	2	1	NaN	2411850.8769318	NaN	2411851.8603566	2411852.37685557
23	20	0	0	90	36.1581920903955	36.241610738255	8	0.266694847941399	2	11	5	NaN	2	3	0.0555282324327609	1	1	NaN	8	1	8	2	121	221	321	NaN	521	0.695261576678604	1	0	NaN	2411853.5270535	NaN	2411854.5106064	2411855.02710522
23	20	0	0	90	36.1581920903955	36.241610738255	22	0.733410831838846	2	3	1	NaN	1	3	0.0555282324327609	1	1	NaN	9	1	9	2	121	221	321	NaN	521	0.286237836349756	1	1	NaN	2411856.5440049	NaN	2411857.5274964	2411858.04407486
23	20	0	0	90	36.1581920903955	36.241610738255	19	0.633400263860822	2	3	3	NaN	1	4	0.0555282324327609	1	1	NaN	10	1	10	2	121	221	321	NaN	521	0.25346402451396	2	0	NaN	2411859.1610569	NaN	2411860.1444489	2411860.66098728
23	20	0	0	90	36.1581920903955	36.241610738255	22	0.733410831838846	2	5	3	NaN	1	5	0.0555282324327609	1	1	NaN	11	1	11	2	121	221	321	NaN	521	0.736286628060043	2	0	NaN	2411863.278141	NaN	2411864.2615128	2411864.77807177
23	20	0	0	90	36.1581920903955	36.241610738255	12	0.400042271912098	2	8	3	NaN	2	4	0.0555282324327609	1	1	NaN	12	1	12	2	121	221	321	NaN	521	0.816729624290019	2	1	NaN	2411866.8617667	NaN	2411867.8452009	2411868.36174538
23	20	0	0	90	36.1581920903955	36.241610738255	10	0.333368559926748	2	3	6	NaN	1	5	0.0555282324327609	1	1	NaN	13	1	13	2	121	221	321	NaN	521	0.629239128436893	1	1	NaN	2411870.5455007	NaN	2411871.5288916	2411872.04545387
23	20	0	0	90	36.1581920903955	36.241610738255	20	0.666737119853497	2	2	3	NaN	1	3	0.0555282324327609	1	1	NaN	14	1	14	2	121	221	321	NaN	521	0.934681324288249	2	0	NaN	2411873.4958056	NaN	2411874.4791837	2411874.99573338
23	20	0	0	90	36.1581920903955	36.241610738255	17	0.566726551875472	2	4	1	NaN	1	5	0.0555282324327609	1	1	NaN	15	1	15	2	121	221	321	NaN	521	0.420237776823342	1	1	NaN	2411876.7461079	NaN	2411877.7295029	2411878.24605192
23	20	0	0	90	36.1581920903955	36.241610738255	24	0.800084543824196	2	8	6	NaN	2	5	0.0555282324327609	1	1	NaN	16	1	16	2	121	221	321	NaN	521	0.383083576336503	2	1	NaN	2411879.4798269	NaN	2411880.4631694	2411880.97965802
23	20	0	0	90	36.1581920903955	36.241610738255	10	0.333368559926748	2	5	3	NaN	1	5	0.0555282324327609	1	1	NaN	17	1	17	2	121	221	321	NaN	521	0.317510027904063	1	1	NaN	2411882.5133123	NaN	2411883.4967311	2411884.01329297
23	20	0	0	90	36.1581920903955	36.241610738255	15	0.500052839890123	2	5	3	NaN	1	5	0.0555282324327609	1	1	NaN	18	1	18	2	121	221	321	NaN	521	0.371526076458395	1	1	NaN	2411885.1469374	NaN	2411886.1303312	2411886.64688162
23	20	0	0	90	36.1581920903955	36.241610738255	11	0.366705415919423	2	4	2	NaN	1	5	0.0555282324327609	1	1	NaN	19	1	19	2	121	221	321	NaN	521	0.27133122831583	2	0	NaN	2411887.8470977	NaN	2411888.8305925	2411889.34714547
23	20	0	0	90	36.1581920903955	36.241610738255	18	0.600063407868147	2	10	6	NaN	2	5	0.0555282324327609	1	1	NaN	20	1	20	2	121	221	321	NaN	521	0.271991280373186	2	1	NaN	2411891.0308293	NaN	2411892.0142404	2411892.53078922
23	20	0	0	90	36.1581920903955	36.241610738255	21	0.700073975846171	2	5	4	NaN	1	4	0.0555282324327609	1	1	NaN	21	1	21	2	121	221	321	NaN	521	0.275703828316182	1	1	NaN	2411896.314683	NaN	2411897.2981292	2411897.81464777
23	20	0	0	90	36.1581920903955	36.241610738255	12	0.400042271912098	2	2	4	NaN	1	5	0.0555282324327609	1	1	NaN	22	1	22	2	121	221	321	NaN	521	0.329028328415006	1	1	NaN	2411900.5817366	NaN	2411901.5651699	2411902.08173347
23	20	0	0	90	36.1581920903955	36.241610738255	8	0.266694847941399	2	1	1	NaN	1	5	0.0555282324327609	1	1	NaN	23	1	23	2	121	221	321	NaN	521	0.278853128198534	1	1	NaN	2411903.2319153	NaN	2411904.215435	2411904.73199537
23	20	0	0	90	36.1581920903955	36.241610738255	9	0.300031703934073	2	6	3	NaN	1	3	0.0555282324327609	1	1	NaN	24	1	24	2	121	221	321	NaN	521	0.334222428034991	1	1	NaN	2411905.8322895	NaN	2411906.8157095	2411907.33224917
23	20	0	0	90	36.1581920903955	36.241610738255	8	0.266694847941399	2	6	4	NaN	1	3	0.0555282324327609	1	1	NaN	25	1	25	2	121	221	321	NaN	521	0.308282576501369	1	1	NaN	2411908.4825666	NaN	2411909.4659867	2411909.98249652
23	20	0	0	90	36.1581920903955	36.241610738255	7	0.233357991948724	2	9	1	NaN	2	3	0.0555282324327609	1	1	NaN	26	1	26	2	121	221	321	NaN	521	0.258547424338758	2	1	NaN	2411911.1161572	NaN	2411912.0995496	2411912.61609088
23	20	0	0	90	36.1581920903955	36.241610738255	20	0.666737119853497	2	9	5	NaN	2	3	0.0555282324327609	1	1	NaN	27	1	27	2	121	221	321	NaN	521	0.563394676428288	2	1	NaN	2411913.6830667	NaN	2411914.6664458	2411915.18300842
23	20	0	0	90	36.1581920903955	36.241610738255	11	0.366705415919423	2	9	2	NaN	2	4	0.0555282324327609	1	1	NaN	28	1	28	2	121	221	321	NaN	521	0.240238776430488	2	1	NaN	2411916.5666629	NaN	2411917.5500789	2411918.06662802
23	20	0	0	90	36.1581920903955	36.241610738255	21	0.700073975846171	2	4	6	NaN	1	4	0.0555282324327609	1	1	NaN	29	1	29	2	121	221	321	NaN	521	0.216937776654959	1	1	NaN	2411919.133603	NaN	2411920.1169889	2411920.63354552
23	20	0	0	90	36.1581920903955	36.241610738255	14	0.466715983897448	2	6	2	NaN	1	4	0.0555282324327609	1	1	NaN	30	1	30	2	121	221	321	NaN	521	0.291144424118102	1	1	NaN	2411921.6671781	NaN	2411922.6505901	2411923.16712688
23	20	0	0	90	36.1581920903955	36.241610738255	21	0.700073975846171	2	11	5	NaN	2	5	0.0555282324327609	1	1	NaN	31	1	31	2	121	221	321	NaN	521	1.40330697642639	2	1	NaN	2411926.2676114	NaN	2411927.2510089	2411927.76758612
23	20	0	0	90	36.1581920903955	36.241610738255	13	0.433379127904773	2	10	5	NaN	2	4	0.0555282324327609	1	1	NaN	32	1	32	2	121	221	321	NaN	521	0.398199927993119	2	1	NaN	2411929.9846394	NaN	2411930.968061	2411931.48461657
23	20	0	0	90	36.1581920903955	36.241610738255	23	0.766747687831521	2	3	4	NaN	1	4	0.0555282324327609	1	1	NaN	33	1	33	2	121	221	321	NaN	521	1.07727043610066	1	1	NaN	2411933.0016351	NaN	2411933.9850228	2411934.50157296
23	20	0	0	90	36.1581920903955	36.241610738255	14	0.466715983897448	2	10	3	NaN	2	4	0.0555282324327609	1	1	NaN	34	1	34	2	121	221	321	NaN	521	0.228504076134413	2	1	NaN	2411936.4019606	NaN	2411937.3853678	2411937.90190832
23	20	0	0	90	36.1581920903955	36.241610738255	18	0.600063407868147	2	3	6	NaN	1	5	0.0555282324327609	1	1	NaN	35	1	35	2	121	221	321	NaN	521	0.598472528159618	2	0	NaN	2411938.9522125	NaN	2411939.9356045	2411940.45216757
23	20	0	0	90	36.1581920903955	36.241610738255	12	0.400042271912098	2	10	3	NaN	2	4	0.0555282324327609	1	1	NaN	36	1	36	2	121	221	321	NaN	521	0.737660028040409	2	1	NaN	2412031.6613076	NaN	2412032.6447096	2412033.16126937
23	20	0	0	90	36.1581920903955	36.241610738255	20	0.666737119853497	2	1	1	NaN	1	4	0.0555282324327609	1	1	NaN	37	1	37	2	121	221	321	NaN	521	0.190566624514759	2	0	NaN	2412034.7283099	NaN	2412035.7116986	2412036.22825728
23	20	0	0	90	36.1581920903955	36.241610738255	10	0.333368559926748	2	7	2	NaN	2	5	0.0555282324327609	1	1	NaN	38	1	38	2	121	221	321	NaN	521	0.241967832669616	2	1	NaN	2412037.245216	NaN	2412038.2286021	2412038.74514607
23	20	0	0	90	36.1581920903955	36.241610738255	25	0.833421399816871	2	8	4	NaN	2	5	0.0555282324327609	1	1	NaN	39	1	39	2	121	221	321	NaN	521	0.0104877245612442	2	1	NaN	2412039.8121267	NaN	2412040.7955418	2412041.31207068
23	20	0	0	90	36.1581920903955	36.241610738255	7	0.233357991948724	2	3	6	NaN	1	3	0.0555282324327609	1	1	NaN	40	1	40	2	121	221	321	NaN	521	0.0850357278250158	1	1	NaN	2412042.1456924	NaN	2412043.129114	2412043.64565047
23	20	0	0	90	36.1581920903955	36.241610738255	24	0.800084543824196	2	12	3	NaN	2	3	0.0555282324327609	1	1	NaN	41	1	41	2	121	221	321	NaN	521	0.0849015763960779	2	1	NaN	2412044.5459231	NaN	2412045.5293101	2412046.04586182
23	20	0	0	90	36.1581920903955	36.241610738255	14	0.466715983897448	2	2	4	NaN	1	3	0.0555282324327609	1	1	NaN	42	1	42	2	121	221	321	NaN	521	0.267780776135623	1	1	NaN	2412046.9628565	NaN	2412047.9462287	2412048.46278892
23	20	0	0	90	36.1581920903955	36.241610738255	22	0.733410831838846	2	3	2	NaN	1	5	0.0555282324327609	1	1	NaN	43	1	43	2	121	221	321	NaN	521	0.396265627816319	1	1	NaN	2412049.5464166	NaN	2412050.5298041	2412051.04637537
23	20	0	0	90	36.1581920903955	36.241610738255	15	0.500052839890123	2	11	4	NaN	2	5	0.0555282324327609	1	1	NaN	44	1	44	2	121	221	321	NaN	521	0.271428576670587	2	1	NaN	2412052.2633586	NaN	2412053.2467535	2412053.76328322
23	20	0	0	90	36.1581920903955	36.241610738255	14	0.466715983897448	2	11	6	NaN	2	4	0.0555282324327609	1	1	NaN	45	1	45	2	121	221	321	NaN	521	0.0103986281901598	1	0	NaN	2412054.8469393	NaN	2412055.8303203	2412056.34687247
23	20	0	0	90	36.1581920903955	36.241610738255	13	0.433379127904773	2	8	3	NaN	2	4	0.0555282324327609	1	1	NaN	46	1	46	2	121	221	321	NaN	521	0.0983017203398049	2	1	NaN	2412057.1803746	NaN	2412058.1638995	2412058.68043338
23	20	0	0	90	36.1581920903955	36.241610738255	13	0.433379127904773	2	6	4	NaN	1	4	0.0555282324327609	1	1	NaN	47	1	47	2	121	221	321	NaN	521	0.0652229767292738	1	1	NaN	2412059.597284	NaN	2412060.5808057	2412061.09736282
23	20	0	0	90	36.1581920903955	36.241610738255	9	0.300031703934073	2	8	4	NaN	2	4	0.0555282324327609	1	1	NaN	48	1	48	2	121	221	321	NaN	521	0.010395928286016	2	1	NaN	2412061.98099	NaN	2412062.9643796	2412063.48093217
23	20	0	0	90	36.1581920903955	36.241610738255	17	0.566726551875472	2	12	3	NaN	2	3	0.0555282324327609	1	1	NaN	49	1	49	2	121	221	321	NaN	521	0.236596176400781	2	1	NaN	2412064.2979034	NaN	2412065.2812807	2412065.79781592
23	20	0	0	90	36.1581920903955	36.241610738255	25	0.833421399816871	2	3	3	NaN	1	4	0.0555282324327609	1	1	NaN	50	1	50	2	121	221	321	NaN	521	0.230927076656371	1	1	NaN	2412066.8481268	NaN	2412067.8315146	2412068.34805432
23	20	0	0	90	36.1581920903955	36.241610738255	21	0.700073975846171	2	8	5	NaN	2	3	0.0555282324327609	1	1	NaN	51	1	51	2	121	221	321	NaN	521	0.112437376752496	2	1	NaN	2412069.3983901	NaN	2412070.3817642	2412070.89830372
23	20	0	0	90	36.1581920903955	36.241610738255	15	0.500052839890123	2	10	3	NaN	2	5	0.0555282324327609	1	1	NaN	52	1	52	2	121	221	321	NaN	521	0.214494439773262	1	0	NaN	2412071.8319386	NaN	2412072.8153542	2412073.33187806
23	20	0	0	90	36.1581920903955	36.241610738255	20	0.666737119853497	2	11	6	NaN	2	3	0.0555282324327609	1	1	NaN	53	1	53	2	121	221	321	NaN	521	1.99335372820497	2	1	NaN	2412074.3655037	NaN	2412075.3489959	2412075.86545917
23	20	0	0	90	36.1581920903955	36.241610738255	18	0.600063407868147	2	10	5	NaN	2	5	0.0555282324327609	1	1	NaN	54	1	54	2	121	221	321	NaN	521	0.316066576633602	2	1	NaN	2412078.6826361	NaN	2412079.6659857	2412080.18255412
23	20	0	0	90	36.1581920903955	36.241610738255	8	0.266694847941399	2	9	4	NaN	2	4	0.0555282324327609	1	1	NaN	55	1	55	2	121	221	321	NaN	521	0.281686832662672	2	1	NaN	2412081.3328686	NaN	2412082.3162645	2412082.83280767
23	20	0	0	90	36.1581920903955	36.241610738255	19	0.633400263860822	2	8	2	NaN	2	5	0.0555282324327609	1	1	NaN	56	1	56	2	121	221	321	NaN	521	0.353993328288198	2	1	NaN	2412083.9330085	NaN	2412084.9165194	2412085.43306557
23	20	0	0	90	36.1581920903955	36.241610738255	21	0.700073975846171	2	12	6	NaN	2	5	0.0555282324327609	1	1	NaN	57	1	57	2	121	221	321	NaN	521	0.302654727827758	2	1	NaN	2412086.5999298	NaN	2412087.5835409	2412088.09999227
23	20	0	0	90	36.1581920903955	36.241610738255	12	0.400042271912098	2	10	6	NaN	2	5	0.0555282324327609	1	1	NaN	58	1	58	2	121	221	321	NaN	521	0.308955828193575	2	1	NaN	2412089.2336262	NaN	2412090.2170488	2412090.73359457
23	20	0	0	90	36.1581920903955	36.241610738255	18	0.600063407868147	2	12	4	NaN	2	3	0.0555282324327609	1	1	NaN	59	1	59	2	121	221	321	NaN	521	0.259869827888906	2	1	NaN	2412091.8672385	NaN	2412092.8506397	2412093.36718497
23	20	0	0	90	36.1581920903955	36.241610738255	16	0.533389695882797	2	7	5	NaN	2	3	0.0555282324327609	1	1	NaN	60	1	60	2	121	221	321	NaN	521	0.180047240108252	2	1	NaN	2412094.4508371	NaN	2412095.4342292	2412095.95076306
23	20	0	0	90	36.1581920903955	36.241610738255	24	0.800084543824196	2	5	2	NaN	1	3	0.0555282324327609	1	1	NaN	61	1	61	2	121	221	321	NaN	521	0.367688528262079	2	0	NaN	2412096.950963	NaN	2412097.9344756	2412098.45103067
23	20	0	0	90	36.1581920903955	36.241610738255	6	0.200021135956049	2	12	5	NaN	2	4	0.0555282324327609	1	1	NaN	62	1	62	2	121	221	321	NaN	521	0.236286428291351	2	1	NaN	2412099.6346765	NaN	2412100.6180735	2412101.13462947
23	20	0	0	90	36.1581920903955	36.241610738255	17	0.566726551875472	2	11	4	NaN	2	4	0.0555282324327609	1	1	NaN	63	1	63	2	121	221	321	NaN	521	0.0104654282331467	2	1	NaN	2412102.2015966	NaN	2412103.184983	2412103.70152587
23	20	0	0	90	36.1581920903955	36.241610738255	9	0.300031703934073	2	10	5	NaN	2	5	0.0555282324327609	1	1	NaN	64	2	1	2	121	221	321	NaN	521	0.250793376471847	2	1	NaN	2412110.0523297	NaN	2412111.0357647	2412111.55228932
23	20	0	0	90	36.1581920903955	36.241610738255	12	0.400042271912098	2	5	3	NaN	1	5	0.0555282324327609	1	1	NaN	65	2	2	2	121	221	321	NaN	521	0.182794828433543	1	1	NaN	2412112.935964	NaN	2412113.9193704	2412114.43591847
23	20	0	0	90	36.1581920903955	36.241610738255	7	0.233357991948724	2	11	5	NaN	2	3	0.0555282324327609	1	1	NaN	66	2	3	2	121	221	321	NaN	521	0.0820159763097763	2	1	NaN	2412115.4528776	NaN	2412116.4362959	2412116.95283352
23	20	0	0	90	36.1581920903955	36.241610738255	19	0.633400263860822	2	4	3	NaN	1	5	0.0555282324327609	1	1	NaN	67	2	4	2	121	221	321	NaN	521	0.0104189766570926	1	1	NaN	2412118.3031084	NaN	2412119.2865247	2412119.80310112
23	20	0	0	90	36.1581920903955	36.241610738255	7	0.233357991948724	2	5	6	NaN	1	4	0.0555282324327609	1	1	NaN	68	2	5	2	121	221	321	NaN	521	0.0177833479829133	1	1	NaN	2412120.6367323	NaN	2412121.6201418	2412122.13669355
23	20	0	0	90	36.1581920903955	36.241610738255	11	0.366705415919423	2	6	3	NaN	1	5	0.0555282324327609	1	1	NaN	69	2	6	2	121	221	321	NaN	521	0.372477476485074	1	1	NaN	2412122.9702267	NaN	2412123.9537829	2412124.47022462
23	20	0	0	90	36.1581920903955	36.241610738255	11	0.366705415919423	2	2	6	NaN	1	5	0.0555282324327609	1	1	NaN	70	2	7	2	121	221	321	NaN	521	0.136919436044991	1	1	NaN	2412125.6539031	NaN	2412126.6372902	2412127.15382516
23	20	0	0	90	36.1581920903955	36.241610738255	6	0.200021135956049	2	9	6	NaN	2	5	0.0555282324327609	1	1	NaN	71	2	8	2	121	221	321	NaN	521	0.0627089282497764	1	0	NaN	2412128.1042284	NaN	2412129.0875277	2412129.60407357
23	20	0	0	90	36.1581920903955	36.241610738255	12	0.400042271912098	2	7	5	NaN	2	5	0.0555282324327609	1	1	NaN	72	2	9	2	121	221	321	NaN	521	0.0632078764028847	2	1	NaN	2412130.4878311	NaN	2412131.4711062	2412131.98762902
23	20	0	0	90	36.1581920903955	36.241610738255	17	0.566726551875472	2	10	4	NaN	2	5	0.0555282324327609	1	1	NaN	73	2	10	2	121	221	321	NaN	521	0.224000892136246	2	1	NaN	2412132.8712848	NaN	2412133.8546625	2412134.37120901
23	20	0	0	90	36.1581920903955	36.241610738255	7	0.233357991948724	2	4	4	NaN	1	3	0.0555282324327609	1	1	NaN	74	2	11	2	121	221	321	NaN	521	0.289467628113925	1	1	NaN	2412135.4214121	NaN	2412136.4048916	2412136.92145827
23	20	0	0	90	36.1581920903955	36.241610738255	18	0.600063407868147	2	9	5	NaN	2	4	0.0555282324327609	1	1	NaN	75	2	12	2	121	221	321	NaN	521	0.272907424718142	2	1	NaN	2412138.0384337	NaN	2412139.0218404	2412139.53838308
23	20	0	0	90	36.1581920903955	36.241610738255	8	0.266694847941399	2	5	5	NaN	1	5	0.0555282324327609	1	1	NaN	76	2	13	2	121	221	321	NaN	521	0.31221217662096	1	1	NaN	2412140.6386783	NaN	2412141.6221215	2412142.13862712
23	20	0	0	90	36.1581920903955	36.241610738255	9	0.300031703934073	2	11	4	NaN	2	3	0.0555282324327609	1	1	NaN	77	2	14	2	121	221	321	NaN	521	0.246921724174172	2	1	NaN	2412143.6722031	NaN	2412144.6557692	2412145.17226248
23	20	0	0	90	36.1581920903955	36.241610738255	14	0.466715983897448	2	12	3	NaN	2	4	0.0555282324327609	1	1	NaN	78	2	15	2	121	221	321	NaN	521	0.848114896100014	2	1	NaN	2412146.2392525	NaN	2412147.2226511	2412147.7391857
23	20	0	0	90	36.1581920903955	36.241610738255	18	0.600063407868147	2	6	6	NaN	1	3	0.0555282324327609	1	1	NaN	79	2	16	2	121	221	321	NaN	521	0.408431076444685	1	1	NaN	2412149.4228939	NaN	2412150.4062739	2412150.92282882
23	20	0	0	90	36.1581920903955	36.241610738255	14	0.466715983897448	2	4	5	NaN	1	4	0.0555282324327609	1	1	NaN	80	2	17	2	121	221	321	NaN	521	0.387735880445689	1	1	NaN	2412152.1396875	NaN	2412153.1232593	2412153.63976232
23	20	0	0	90	36.1581920903955	36.241610738255	6	0.200021135956049	2	3	4	NaN	1	5	0.0555282324327609	1	1	NaN	81	2	18	2	121	221	321	NaN	521	0.502811076585203	1	1	NaN	2412154.8399653	NaN	2412155.8235054	2412156.34002052
23	20	0	0	90	36.1581920903955	36.241610738255	8	0.266694847941399	2	8	4	NaN	2	3	0.0555282324327609	1	1	NaN	82	2	19	2	121	221	321	NaN	521	0.382258576806635	2	1	NaN	2412157.6569033	NaN	2412158.6404261	2412159.15697732
23	20	0	0	90	36.1581920903955	36.241610738255	6	0.200021135956049	2	6	3	NaN	1	4	0.0555282324327609	1	1	NaN	83	2	20	2	121	221	321	NaN	521	0.265107676386833	1	1	NaN	2412160.5739535	NaN	2412161.5573697	2412162.07393242
23	20	0	0	90	36.1581920903955	36.241610738255	11	0.366705415919423	2	11	6	NaN	2	4	0.0555282324327609	1	1	NaN	84	2	21	2	121	221	321	NaN	521	0.185659976676106	2	1	NaN	2412163.1575807	NaN	2412164.1409722	2412164.65750362
23	20	0	0	90	36.1581920903955	36.241610738255	15	0.500052839890123	2	4	1	NaN	1	3	0.0555282324327609	1	1	NaN	85	2	22	2	121	221	321	NaN	521	0.346327188424766	1	1	NaN	2412165.9243824	NaN	2412166.9079212	2412167.42444711
23	20	0	0	90	36.1581920903955	36.241610738255	25	0.833421399816871	2	7	4	NaN	2	5	0.0555282324327609	1	1	NaN	86	2	23	2	121	221	321	NaN	521	0.335826132446527	2	1	NaN	2412168.5914419	NaN	2412169.5748816	2412170.09138617
23	20	0	0	90	36.1581920903955	36.241610738255	0	0	1	12	2	NaN	2	4	0.0555282324327609	1	1	NaN	87	2	24	2	111	211	311	NaN	511	0.168445928022265	2	1	NaN	2412171.5583825	NaN	2412172.5418076	2412173.05833587
23	20	0	0	90	36.1581920903955	36.241610738255	24	0.800084543824196	2	2	4	NaN	1	3	0.0555282324327609	1	1	NaN	88	2	25	2	121	221	321	NaN	521	0.389276180416346	1	1	NaN	2412174.2419663	NaN	2412175.2253987	2412175.74195032
23	20	0	0	90	36.1581920903955	36.241610738255	6	0.200021135956049	2	11	4	NaN	2	5	0.0555282324327609	1	1	NaN	89	2	26	2	121	221	321	NaN	521	1.77733212802559	2	1	NaN	2412177.5256075	NaN	2412178.509052	2412179.02560517
23	20	0	0	90	36.1581920903955	36.241610738255	16	0.533389695882797	2	8	1	NaN	2	3	0.0555282324327609	1	1	NaN	90	2	27	2	121	221	321	NaN	521	0.0104507803916931	2	1	NaN	2412181.6260705	NaN	2412182.6094532	2412183.12598412
23	20	0	0	90	36.1581920903955	36.241610738255	22	0.733410831838846	2	8	1	NaN	2	5	0.0555282324327609	1	1	NaN	91	2	28	2	121	221	321	NaN	521	2.10359799256548	2	1	NaN	2412183.9594904	NaN	2412184.9430435	2412185.45956061
23	20	0	0	90	36.1581920903955	36.241610738255	23	0.766747687831521	2	12	3	NaN	2	5	0.0555282324327609	1	1	NaN	92	2	29	2	121	221	321	NaN	521	0.0104128764942288	2	1	NaN	2412188.8434472	NaN	2412189.8268317	2412190.34335632
23	20	0	0	90	36.1581920903955	36.241610738255	14	0.466715983897448	2	4	4	NaN	1	4	0.0555282324327609	1	1	NaN	93	2	30	2	121	221	321	NaN	521	0.010414176620543	2	0	NaN	2412191.1768423	NaN	2412192.1603874	2412192.67693012
23	20	0	0	90	36.1581920903955	36.241610738255	16	0.533389695882797	2	1	3	NaN	1	4	0.0555282324327609	1	1	NaN	94	2	31	2	121	221	321	NaN	521	0.864355876576155	1	1	NaN	2412193.5104118	NaN	2412194.4939285	2412195.01048992
23	20	0	0	90	36.1581920903955	36.241610738255	17	0.566726551875472	2	9	1	NaN	2	3	0.0555282324327609	1	1	NaN	95	2	32	2	121	221	321	NaN	521	0.0104315280914307	2	1	NaN	2412197.1441979	NaN	2412198.1276459	2412198.64419947
23	20	0	0	90	36.1581920903955	36.241610738255	8	0.266694847941399	2	7	5	NaN	2	3	0.0555282324327609	1	1	NaN	96	2	33	2	121	221	321	NaN	521	0.290223228279501	2	1	NaN	2412199.4611846	NaN	2412200.444531	2412200.96106917
23	20	0	0	90	36.1581920903955	36.241610738255	17	0.566726551875472	2	9	3	NaN	2	4	0.0555282324327609	1	1	NaN	97	2	34	2	121	221	321	NaN	521	0.67336002830416	2	1	NaN	2412202.0780534	NaN	2412203.0614871	2412203.57801237
23	20	0	0	90	36.1581920903955	36.241610738255	10	0.333368559926748	2	12	5	NaN	2	5	0.0555282324327609	1	1	NaN	98	2	35	2	121	221	321	NaN	521	0.0246357284486294	2	1	NaN	2412205.0783543	NaN	2412206.0617259	2412206.57829397
23	20	0	0	90	36.1581920903955	36.241610738255	10	0.333368559926748	2	4	4	NaN	1	5	0.0555282324327609	1	1	NaN	99	2	36	2	121	221	321	NaN	521	0.162254576571286	1	1	NaN	2412207.4285909	NaN	2412208.4119784	2412208.92851692
23	20	0	0	90	36.1581920903955	36.241610738255	0	0	1	9	4	NaN	2	3	0.0555282324327609	1	1	NaN	100	2	37	2	111	211	311	NaN	511	0.311215676367283	1	0	NaN	2412209.912031	NaN	2412210.8955391	2412211.41210842
23	20	0	0	90	36.1581920903955	36.241610738255	20	0.666737119853497	2	12	3	NaN	2	3	0.0555282324327609	1	1	NaN	101	2	38	2	121	221	321	NaN	521	0.0105077726766467	2	1	NaN	2412212.5456282	NaN	2412213.5291565	2412214.04569343
23	20	0	0	90	36.1581920903955	36.241610738255	13	0.433379127904773	2	3	1	NaN	1	4	0.0555282324327609	1	1	NaN	102	2	39	2	121	221	321	NaN	521	0.528147873003036	1	1	NaN	2412214.8792448	NaN	2412215.8627059	2412216.37924643
23	20	0	0	90	36.1581920903955	36.241610738255	18	0.600063407868147	2	5	4	NaN	1	4	0.0555282324327609	1	1	NaN	103	2	40	2	121	221	321	NaN	521	0.365386388264596	1	1	NaN	2412217.7296014	NaN	2412218.7129897	2412219.22952811
23	20	0	0	90	36.1581920903955	36.241610738255	16	0.533389695882797	2	12	5	NaN	2	5	0.0555282324327609	1	1	NaN	104	2	41	2	121	221	321	NaN	521	0.289527328219265	2	1	NaN	2412220.429849	NaN	2412221.4132686	2412221.92979827
23	20	0	0	90	36.1581920903955	36.241610738255	25	0.833421399816871	2	6	2	NaN	1	3	0.0555282324327609	1	1	NaN	105	2	42	2	121	221	321	NaN	521	0.115954427979887	1	1	NaN	2412223.5468317	NaN	2412224.530236	2412225.04677477
23	20	0	0	90	36.1581920903955	36.241610738255	21	0.700073975846171	2	6	1	NaN	1	4	0.0555282324327609	1	1	NaN	106	2	43	2	121	221	321	NaN	521	0.61883057653904	1	1	NaN	2412226.5804271	NaN	2412227.5638506	2412228.08040782
23	20	0	0	90	36.1581920903955	36.241610738255	0	0	1	3	5	NaN	1	3	0.0555282324327609	1	1	NaN	107	2	44	2	111	211	311	NaN	511	0.340911176521331	1	1	NaN	2412229.5141301	NaN	2412230.4975033	2412231.01402242
23	20	0	0	90	36.1581920903955	36.241610738255	15	0.500052839890123	2	3	1	NaN	1	3	0.0555282324327609	1	1	NaN	108	2	45	2	121	221	321	NaN	521	0.31248267646879	1	1	NaN	2412232.6143505	NaN	2412233.5977954	2412234.11432032
23	20	0	0	90	36.1581920903955	36.241610738255	23	0.766747687831521	2	7	3	NaN	2	3	0.0555282324327609	1	1	NaN	109	2	46	2	121	221	321	NaN	521	0.358461528085172	2	1	NaN	2412235.2646653	NaN	2412236.2480471	2412236.76458847
23	20	0	0	90	36.1581920903955	36.241610738255	8	0.266694847941399	2	6	3	NaN	1	3	0.0555282324327609	1	1	NaN	110	2	47	2	121	221	321	NaN	521	0.363099576439708	1	1	NaN	2412237.9482274	NaN	2412238.9316579	2412239.44818792
23	20	0	0	90	36.1581920903955	36.241610738255	8	0.266694847941399	2	1	6	NaN	1	4	0.0555282324327609	1	1	NaN	111	2	48	2	121	221	321	NaN	521	0.289379376452416	1	1	NaN	2412241.181884	NaN	2412242.1653142	2412242.68182942
23	20	0	0	90	36.1581920903955	36.241610738255	10	0.333368559926748	2	2	1	NaN	1	5	0.0555282324327609	1	1	NaN	112	2	49	2	121	221	321	NaN	521	0.213234776630998	1	1	NaN	2412244.282201	NaN	2412245.2656156	2412245.78214042
23	20	0	0	90	36.1581920903955	36.241610738255	13	0.433379127904773	2	3	5	NaN	1	5	0.0555282324327609	1	1	NaN	113	2	50	2	121	221	321	NaN	521	0.0104772765189409	1	1	NaN	2412247.3324597	NaN	2412248.3158953	2412248.83243682
23	20	0	0	90	36.1581920903955	36.241610738255	12	0.400042271912098	2	3	5	NaN	1	5	0.0555282324327609	1	1	NaN	114	2	51	2	121	221	321	NaN	521	0.245242076460272	1	1	NaN	2412249.6659435	NaN	2412250.649328	2412251.16600932
23	20	0	0	90	36.1581920903955	36.241610738255	7	0.233357991948724	2	12	5	NaN	2	5	0.0555282324327609	1	1	NaN	115	2	52	2	121	221	321	NaN	521	0.0103976805694401	2	1	NaN	2412252.583081	NaN	2412253.5663861	2412254.08295112
23	20	0	0	90	36.1581920903955	36.241610738255	22	0.733410831838846	2	2	2	NaN	1	4	0.0555282324327609	1	1	NaN	116	2	53	2	121	221	321	NaN	521	0.218618176411837	1	1	NaN	2412255.1164771	NaN	2412256.1000021	2412256.61653632
23	20	0	0	90	36.1581920903955	36.241610738255	20	0.666737119853497	2	5	1	NaN	1	4	0.0555282324327609	1	1	NaN	117	2	54	2	121	221	321	NaN	521	0.188643124420196	1	1	NaN	2412257.6501901	NaN	2412258.6335717	2412259.15011428
23	20	0	0	90	36.1581920903955	36.241610738255	22	0.733410831838846	2	6	5	NaN	1	5	0.0555282324327609	1	1	NaN	118	2	55	2	121	221	321	NaN	521	0.0717373280785978	1	1	NaN	2412260.167093	NaN	2412261.1505228	2412261.66703167
23	20	0	0	90	36.1581920903955	36.241610738255	18	0.600063407868147	2	12	2	NaN	2	4	0.0555282324327609	1	1	NaN	119	2	56	2	121	221	321	NaN	521	0.0404041400179267	2	1	NaN	2412262.5505859	NaN	2412263.5340606	2412264.05060656
23	20	0	0	90	36.1581920903955	36.241610738255	16	0.533389695882797	2	4	1	NaN	1	3	0.0555282324327609	1	1	NaN	120	2	57	2	121	221	321	NaN	521	0.225791128352284	2	0	NaN	2412264.9175557	NaN	2412265.9009573	2412266.41750377
23	20	0	0	90	36.1581920903955	36.241610738255	22	0.733410831838846	2	5	1	NaN	1	3	0.0555282324327609	1	1	NaN	121	2	58	2	121	221	321	NaN	521	0.155946628190577	1	1	NaN	2412267.4510175	NaN	2412268.4345597	2412268.95110027
23	20	0	0	90	36.1581920903955	36.241610738255	8	0.266694847941399	2	4	3	NaN	1	3	0.0555282324327609	1	1	NaN	122	2	59	2	121	221	321	NaN	521	0.225013024639338	1	1	NaN	2412269.9180039	NaN	2412270.9014579	2412271.41798418
23	20	0	0	90	36.1581920903955	36.241610738255	14	0.466715983897448	2	7	5	NaN	2	3	0.0555282324327609	1	1	NaN	123	2	60	2	121	221	321	NaN	521	0.170756428036839	2	1	NaN	2412272.4681695	NaN	2412273.4516965	2412273.96824397
23	20	0	0	90	36.1581920903955	36.241610738255	17	0.566726551875472	2	12	4	NaN	2	5	0.0555282324327609	1	1	NaN	124	2	61	2	121	221	321	NaN	521	0.0104758767411113	2	1	NaN	2412274.9518937	NaN	2412275.9352791	2412276.45181602
23	20	0	0	90	36.1581920903955	36.241610738255	23	0.766747687831521	2	7	2	NaN	2	5	0.0555282324327609	1	1	NaN	125	2	62	2	121	221	321	NaN	521	0.0415650280192494	2	1	NaN	2412277.2854456	NaN	2412278.2688343	2412278.78538667
23	20	0	0	90	36.1581920903955	36.241610738255	10	0.333368559926748	2	10	2	NaN	2	4	0.0555282324327609	1	1	NaN	126	2	63	2	121	221	321	NaN	521	0.0102377482689917	2	1	NaN	2412279.8356838	NaN	2412280.8190957	2412281.33564965
23	20	0	0	90	36.1581920903955	36.241610738255	23	0.766747687831521	2	8	5	NaN	2	4	0.0555282324327609	1	1	NaN	127	3	1	2	121	221	321	NaN	521	0.133414040319622	2	1	NaN	2412292.9535921	NaN	2412293.9370728	2412294.45358736
23	20	0	0	90	36.1581920903955	36.241610738255	18	0.600063407868147	2	8	6	NaN	2	4	0.0555282324327609	1	1	NaN	128	3	2	2	121	221	321	NaN	521	0.282983236480504	2	1	NaN	2412295.4205347	NaN	2412296.4040187	2412296.92050076
23	20	0	0	90	36.1581920903955	36.241610738255	14	0.466715983897448	2	11	3	NaN	2	5	0.0555282324327609	1	1	NaN	129	3	3	2	121	221	321	NaN	521	0.667021899949759	2	1	NaN	2412298.0206664	NaN	2412299.0042139	2412299.5207576
23	20	0	0	90	36.1581920903955	36.241610738255	23	0.766747687831521	2	4	3	NaN	1	5	0.0555282324327609	1	1	NaN	130	3	4	2	121	221	321	NaN	521	0.298473576083779	1	1	NaN	2412301.0044685	NaN	2412301.9878179	2412302.50436902
23	20	0	0	90	36.1581920903955	36.241610738255	16	0.533389695882797	2	4	5	NaN	1	5	0.0555282324327609	1	1	NaN	131	3	5	2	121	221	321	NaN	521	2.31940922793001	1	1	NaN	2412303.6880026	NaN	2412304.6714335	2412305.18797357
23	20	0	0	90	36.1581920903955	36.241610738255	8	0.266694847941399	2	3	2	NaN	1	4	0.0555282324327609	1	1	NaN	132	3	6	2	121	221	321	NaN	521	0.37230012472719	1	1	NaN	2412308.5384362	NaN	2412309.5218045	2412310.03844938
23	20	0	0	90	36.1581920903955	36.241610738255	19	0.633400263860822	2	6	3	NaN	1	5	0.0555282324327609	1	1	NaN	133	3	7	2	121	221	321	NaN	521	0.293717176187783	1	1	NaN	2412314.8891049	NaN	2412315.8725394	2412316.38906672
23	20	0	0	90	36.1581920903955	36.241610738255	24	0.800084543824196	2	11	4	NaN	2	4	0.0555282324327609	1	1	NaN	134	3	8	2	121	221	321	NaN	521	0.0536194765008986	2	1	NaN	2412317.4892578	NaN	2412318.472777	2412318.98932022
23	20	0	0	90	36.1581920903955	36.241610738255	15	0.500052839890123	2	4	2	NaN	1	4	0.0555282324327609	1	1	NaN	135	3	9	2	121	221	321	NaN	521	0.278682476375252	1	1	NaN	2412320.2561933	NaN	2412321.2397315	2412321.75626542
23	20	0	0	90	36.1581920903955	36.241610738255	17	0.566726551875472	2	3	4	NaN	1	4	0.0555282324327609	1	1	NaN	136	3	10	2	121	221	321	NaN	521	1.85594338038936	2	0	NaN	2412326.0236212	NaN	2412327.0069762	2412327.52349172
23	20	0	0	90	36.1581920903955	36.241610738255	6	0.200021135956049	2	9	4	NaN	2	5	0.0555282324327609	1	1	NaN	137	3	11	2	121	221	321	NaN	521	0.166835784446448	2	1	NaN	2412330.6406916	NaN	2412331.6240445	2412332.14061302
23	20	0	0	90	36.1581920903955	36.241610738255	7	0.233357991948724	2	1	3	NaN	1	4	0.0555282324327609	1	1	NaN	138	3	12	2	121	221	321	NaN	521	0.713819924276322	1	1	NaN	2412335.9412109	NaN	2412336.9246051	2412337.44113028
23	20	0	0	90	36.1581920903955	36.241610738255	13	0.433379127904773	2	1	4	NaN	1	3	0.0555282324327609	1	1	NaN	139	3	13	2	121	221	321	NaN	521	0.187100088223815	1	1	NaN	2412342.4918002	NaN	2412343.475238	2412343.99178681
23	20	0	0	90	36.1581920903955	36.241610738255	25	0.833421399816871	2	6	1	NaN	1	3	0.0555282324327609	1	1	NaN	140	3	14	2	121	221	321	NaN	521	0.631096527911723	1	1	NaN	2412377.911971	NaN	2412378.8953651	2412379.41192717
23	20	0	0	90	36.1581920903955	36.241610738255	13	0.433379127904773	2	9	1	NaN	2	5	0.0555282324327609	1	1	NaN	141	3	15	2	121	221	321	NaN	521	0.993230528198183	1	0	NaN	2412380.8622599	NaN	2412381.8456849	2412382.36221717
23	20	0	0	90	36.1581920903955	36.241610738255	17	0.566726551875472	2	8	1	NaN	2	4	0.0555282324327609	1	1	NaN	142	3	16	2	121	221	321	NaN	521	0.0103915366344154	2	1	NaN	2412384.1792377	NaN	2412385.1626601	2412385.67920526
23	20	0	0	90	36.1581920903955	36.241610738255	10	0.333368559926748	2	8	6	NaN	2	3	0.0555282324327609	1	1	NaN	143	3	17	2	121	221	321	NaN	521	0.408209476619959	2	1	NaN	2412387.0628187	NaN	2412388.0463149	2412388.56282332
23	20	0	0	90	36.1581920903955	36.241610738255	10	0.333368559926748	2	1	1	NaN	1	3	0.0555282324327609	1	1	NaN	144	3	18	2	121	221	321	NaN	521	0.737358380109072	2	0	NaN	2412389.8297819	NaN	2412390.8132061	2412391.32976172
23	20	0	0	90	36.1581920903955	36.241610738255	0	0	1	11	5	NaN	2	4	0.0555282324327609	1	1	NaN	145	3	19	2	111	211	311	NaN	511	0.143427184317261	2	1	NaN	2412392.8800043	NaN	2412393.863523	2412394.38006712
23	20	0	0	90	36.1581920903955	36.241610738255	20	0.666737119853497	2	7	1	NaN	2	5	0.0555282324327609	1	1	NaN	146	3	20	2	121	221	321	NaN	521	0.0282940282486379	2	1	NaN	2412395.3470243	NaN	2412396.3304108	2412396.84696307
23	20	0	0	90	36.1581920903955	36.241610738255	21	0.700073975846171	2	11	2	NaN	2	4	0.0555282324327609	1	1	NaN	147	3	21	2	121	221	321	NaN	521	0.318399624433368	2	1	NaN	2412397.6972448	NaN	2412398.6806548	2412399.19719018
23	20	0	0	90	36.1581920903955	36.241610738255	20	0.666737119853497	2	6	2	NaN	1	5	0.0555282324327609	1	1	NaN	148	3	22	2	121	221	321	NaN	521	0.0104103763587773	1	1	NaN	2412400.3475281	NaN	2412401.3308318	2412401.84744882
23	20	0	0	90	36.1581920903955	36.241610738255	12	0.400042271912098	2	4	1	NaN	1	4	0.0555282324327609	1	1	NaN	149	3	23	2	121	221	321	NaN	521	0.230157624464482	1	1	NaN	2412402.6810773	NaN	2412403.6644761	2412404.18101338
23	20	0	0	90	36.1581920903955	36.241610738255	12	0.400042271912098	2	3	3	NaN	1	4	0.0555282324327609	1	1	NaN	150	3	24	2	121	221	321	NaN	521	0.103848080616444	1	1	NaN	2412405.2313062	NaN	2412406.2147502	2412406.73127172
23	20	0	0	90	36.1581920903955	36.241610738255	25	0.833421399816871	2	9	5	NaN	2	3	0.0555282324327609	1	1	NaN	151	3	25	2	121	221	321	NaN	521	0.0168826766312122	2	1	NaN	2412407.9982662	NaN	2412408.9816582	2412409.49821912
23	20	0	0	90	36.1581920903955	36.241610738255	11	0.366705415919423	2	3	5	NaN	1	5	0.0555282324327609	1	1	NaN	152	3	26	2	121	221	321	NaN	521	0.0565214999951422	1	1	NaN	2412410.7985428	NaN	2412411.7818492	2412412.2985024
23	20	0	0	90	36.1581920903955	36.241610738255	15	0.500052839890123	2	5	2	NaN	1	3	0.0555282324327609	1	1	NaN	153	3	27	2	121	221	321	NaN	521	1.47575392806903	2	0	NaN	2412413.5154303	NaN	2412414.4988838	2412415.01541657
23	20	0	0	90	36.1581920903955	36.241610738255	16	0.533389695882797	2	11	6	NaN	2	5	0.0555282324327609	1	1	NaN	154	3	28	2	121	221	321	NaN	521	0.259682776406407	1	0	NaN	2412417.3158525	NaN	2412418.2992453	2412418.81579042
23	20	0	0	90	36.1581920903955	36.241610738255	25	0.833421399816871	2	1	1	NaN	1	4	0.0555282324327609	1	1	NaN	155	3	29	2	121	221	321	NaN	521	0.010477876290679	1	1	NaN	2412419.8992911	NaN	2412420.882863	2412421.39937122
23	20	0	0	90	36.1581920903955	36.241610738255	12	0.400042271912098	2	4	6	NaN	1	4	0.0555282324327609	1	1	NaN	156	3	30	2	121	221	321	NaN	521	0.918896228075027	1	1	NaN	2412422.2163254	NaN	2412423.1997307	2412423.71626297
23	20	0	0	90	36.1581920903955	36.241610738255	18	0.600063407868147	2	1	4	NaN	1	4	0.0555282324327609	1	1	NaN	157	3	31	2	121	221	321	NaN	521	0.0532245240174234	1	1	NaN	2412425.4499029	NaN	2412426.4333792	2412426.94991088
23	20	0	0	90	36.1581920903955	36.241610738255	12	0.400042271912098	2	11	3	NaN	2	3	0.0555282324327609	1	1	NaN	158	3	32	2	121	221	321	NaN	521	0.950336328241974	1	0	NaN	2412428.616931	NaN	2412429.6003589	2412430.11689727
23	20	0	0	90	36.1581920903955	36.241610738255	12	0.400042271912098	2	12	1	NaN	2	3	0.0555282324327609	1	1	NaN	159	3	33	2	121	221	321	NaN	521	0.0105988243594766	2	1	NaN	2412431.8839516	NaN	2412432.8673447	2412433.38388958
23	20	0	0	90	36.1581920903955	36.241610738255	17	0.566726551875472	2	5	2	NaN	1	3	0.0555282324327609	1	1	NaN	160	3	34	2	121	221	321	NaN	521	0.26311422791332	1	1	NaN	2412435.1841299	NaN	2412436.1676513	2412436.68422297
23	20	0	0	90	36.1581920903955	36.241610738255	11	0.366705415919423	2	7	4	NaN	2	3	0.0555282324327609	1	1	NaN	161	3	35	2	121	221	321	NaN	521	0.0104555282741785	2	1	NaN	2412437.9512101	NaN	2412438.9346131	2412439.45114847
23	20	0	0	90	36.1581920903955	36.241610738255	20	0.666737119853497	2	4	2	NaN	1	3	0.0555282324327609	1	1	NaN	162	3	36	2	121	221	321	NaN	521	0.450382124632597	1	1	NaN	2412440.4846913	NaN	2412441.4681821	2412441.98473478
23	20	0	0	90	36.1581920903955	36.241610738255	15	0.500052839890123	2	3	5	NaN	1	4	0.0555282324327609	1	1	NaN	163	3	37	2	121	221	321	NaN	521	0.187448828015476	1	1	NaN	2412443.4516942	NaN	2412444.4351481	2412444.95168987
23	20	0	0	90	36.1581920903955	36.241610738255	17	0.566726551875472	2	8	6	NaN	2	3	0.0555282324327609	1	1	NaN	164	3	38	2	121	221	321	NaN	521	0.956391828134656	2	1	NaN	2412446.035257	NaN	2412447.0187479	2412447.53528107
23	20	0	0	90	36.1581920903955	36.241610738255	8	0.266694847941399	2	2	1	NaN	1	3	0.0555282324327609	1	1	NaN	165	3	39	2	121	221	321	NaN	521	0.144175176508725	1	1	NaN	2412449.3189802	NaN	2412450.3023923	2412450.81894802
23	20	0	0	90	36.1581920903955	36.241610738255	0	0	1	1	3	NaN	1	5	0.0555282324327609	1	1	NaN	166	3	40	2	111	211	311	NaN	511	0.273087976500392	2	0	NaN	2412452.0859119	NaN	2412453.0693113	2412453.58587492
23	20	0	0	90	36.1581920903955	36.241610738255	17	0.566726551875472	2	6	6	NaN	1	5	0.0555282324327609	1	1	NaN	167	3	41	2	121	221	321	NaN	521	0.0104543804191053	1	1	NaN	2412454.6861884	NaN	2412455.6695705	2412456.18613112
23	20	0	0	90	36.1581920903955	36.241610738255	10	0.333368559926748	2	9	1	NaN	2	3	0.0555282324327609	1	1	NaN	168	3	42	2	121	221	321	NaN	521	1.00388382421806	2	1	NaN	2412457.0197985	NaN	2412458.0031171	2412458.51967768
23	20	0	0	90	36.1581920903955	36.241610738255	16	0.533389695882797	2	12	5	NaN	2	3	0.0555282324327609	1	1	NaN	169	3	43	2	121	221	321	NaN	521	0.765778076834977	1	0	NaN	2412460.3533982	NaN	2412461.3367912	2412461.85336042
23	20	0	0	90	36.1581920903955	36.241610738255	25	0.833421399816871	2	12	2	NaN	2	5	0.0555282324327609	1	1	NaN	170	3	44	2	121	221	321	NaN	521	0.010448272805661	1	0	NaN	2412463.4370296	NaN	2412464.4203965	2412464.93697733
23	20	0	0	90	36.1581920903955	36.241610738255	13	0.433379127904773	2	7	1	NaN	2	4	0.0555282324327609	1	1	NaN	171	3	45	2	121	221	321	NaN	521	0.0104299322701991	1	0	NaN	2412466.4039764	NaN	2412467.387382	2412467.90394167
23	20	0	0	90	36.1581920903955	36.241610738255	23	0.766747687831521	2	5	5	NaN	1	3	0.0555282324327609	1	1	NaN	172	3	46	2	121	221	321	NaN	521	0.010459927842021	1	1	NaN	2412469.204262	NaN	2412470.1876747	2412470.70421897
23	20	0	0	90	36.1581920903955	36.241610738255	22	0.733410831838846	2	2	2	NaN	1	5	0.0555282324327609	1	1	NaN	173	3	47	2	121	221	321	NaN	521	0.357806624379009	1	1	NaN	2412471.5378161	NaN	2412472.5212455	2412473.03778288
23	20	0	0	90	36.1581920903955	36.241610738255	16	0.533389695882797	2	9	2	NaN	2	4	0.0555282324327609	1	1	NaN	174	3	48	2	121	221	321	NaN	521	0.0104464283213019	2	1	NaN	2412474.2214266	NaN	2412475.2048153	2412475.72137767
23	20	0	0	90	36.1581920903955	36.241610738255	10	0.333368559926748	2	7	1	NaN	2	5	0.0555282324327609	1	1	NaN	175	3	49	2	121	221	321	NaN	521	0.108134224545211	2	1	NaN	2412476.5550162	NaN	2412477.5383967	2412478.05493438
23	20	0	0	90	36.1581920903955	36.241610738255	7	0.233357991948724	2	3	1	NaN	1	4	0.0555282324327609	1	1	NaN	176	3	50	2	121	221	321	NaN	521	0.0104120764881372	1	1	NaN	2412478.9885783	NaN	2412479.9719465	2412480.48849762
23	20	0	0	90	36.1581920903955	36.241610738255	25	0.833421399816871	2	12	5	NaN	2	5	0.0555282324327609	1	1	NaN	177	3	51	2	121	221	321	NaN	521	0.557646776549518	2	1	NaN	2412481.3221174	NaN	2412482.3055322	2412482.82206902
23	20	0	0	90	36.1581920903955	36.241610738255	19	0.633400263860822	2	12	1	NaN	2	4	0.0555282324327609	1	1	NaN	178	3	52	2	121	221	321	NaN	521	0.0104796765372157	2	1	NaN	2412484.572442	NaN	2412485.5558733	2412486.07238312
23	20	0	0	90	36.1581920903955	36.241610738255	13	0.433379127904773	2	4	4	NaN	1	3	0.0555282324327609	1	1	NaN	179	3	53	2	121	221	321	NaN	521	0.181340376380831	2	0	NaN	2412486.9060035	NaN	2412487.8894686	2412488.40594612
23	20	0	0	90	36.1581920903955	36.241610738255	10	0.333368559926748	2	8	2	NaN	2	5	0.0555282324327609	1	1	NaN	180	3	54	2	121	221	321	NaN	521	0.0970028284937143	2	1	NaN	2412489.4061466	NaN	2412490.3896648	2412490.90620237
23	20	0	0	90	36.1581920903955	36.241610738255	18	0.600063407868147	2	8	3	NaN	2	3	0.0555282324327609	1	1	NaN	181	3	55	2	121	221	321	NaN	521	0.720635176636279	2	1	NaN	2412491.8231371	NaN	2412492.8065566	2412493.32310632
23	20	0	0	90	36.1581920903955	36.241610738255	0	0	1	2	4	NaN	1	3	0.0555282324327609	1	1	NaN	182	3	56	2	111	211	311	NaN	511	0.0103961280547082	1	1	NaN	2412494.8734613	NaN	2412495.8568532	2412496.37341817
23	20	0	0	90	36.1581920903955	36.241610738255	23	0.766747687831521	2	1	5	NaN	1	4	0.0555282324327609	1	1	NaN	183	3	57	2	121	221	321	NaN	521	0.736822176259011	1	1	NaN	2412497.1903446	NaN	2412498.1737353	2412498.69029332
23	20	0	0	90	36.1581920903955	36.241610738255	12	0.400042271912098	2	5	3	NaN	1	4	0.0555282324327609	1	1	NaN	184	3	58	2	121	221	321	NaN	521	0.13873478025198	1	1	NaN	2412500.5406528	NaN	2412501.5240821	2412502.04062682
23	20	0	0	90	36.1581920903955	36.241610738255	12	0.400042271912098	2	11	4	NaN	2	3	0.0555282324327609	1	1	NaN	185	3	59	2	121	221	321	NaN	521	0.343706340063363	2	1	NaN	2412503.0075933	NaN	2412503.9909938	2412504.50752746
23	20	0	0	90	36.1581920903955	36.241610738255	9	0.300031703934073	2	12	5	NaN	2	5	0.0555282324327609	1	1	NaN	186	3	60	2	121	221	321	NaN	521	0.0103931282646954	2	1	NaN	2412505.6745351	NaN	2412506.6579244	2412507.17448007
23	20	0	0	90	36.1581920903955	36.241610738255	21	0.700073975846171	2	3	2	NaN	1	4	0.0555282324327609	1	1	NaN	187	3	61	2	121	221	321	NaN	521	0.0105975726619363	1	1	NaN	2412508.0080668	NaN	2412508.9914733	2412509.50802173
23	20	0	0	90	36.1581920903955	36.241610738255	17	0.566726551875472	2	1	4	NaN	1	5	0.0555282324327609	1	1	NaN	188	3	62	2	121	221	321	NaN	521	0.0103813805617392	2	0	NaN	2412510.3916222	NaN	2412511.3750685	2412511.89158762
23	20	0	0	90	36.1581920903955	36.241610738255	20	0.666737119853497	2	5	6	NaN	1	5	0.0555282324327609	1	1	NaN	189	3	63	2	121	221	321	NaN	521	0.0822195764631033	1	1	NaN	2412512.7252322	NaN	2412513.7085989	2412514.22514922
23	20	0	0	90	36.1581920903955	36.241610738255	23	0.766747687831521	2	11	1	NaN	2	3	0.0555282324327609	1	1	NaN	190	4	1	2	121	221	321	NaN	521	0.383204328361899	1	0	NaN	2412519.7759403	NaN	2412520.7593172	2412521.27584077
23	20	0	0	90	36.1581920903955	36.241610738255	23	0.766747687831521	2	8	5	NaN	2	5	0.0555282324327609	1	1	NaN	191	4	2	2	121	221	321	NaN	521	0.339569328352809	2	1	NaN	2412522.4761605	NaN	2412523.4595241	2412523.97611187
23	20	0	0	90	36.1581920903955	36.241610738255	8	0.266694847941399	2	8	2	NaN	2	3	0.0555282324327609	1	1	NaN	192	4	3	2	121	221	321	NaN	521	0.58948607230559	1	0	NaN	2412525.2097455	NaN	2412526.1931613	2412526.70970003
23	20	0	0	90	36.1581920903955	36.241610738255	9	0.300031703934073	2	11	1	NaN	2	4	0.0555282324327609	1	1	NaN	193	4	4	2	121	221	321	NaN	521	0.39299567649141	2	1	NaN	2412528.126747	NaN	2412529.110121	2412529.62666192
23	20	0	0	90	36.1581920903955	36.241610738255	16	0.533389695882797	2	1	1	NaN	1	4	0.0555282324327609	1	1	NaN	194	4	5	2	121	221	321	NaN	521	0.417672444134951	2	0	NaN	2412530.8936299	NaN	2412531.877048	2412532.39360156
23	20	0	0	90	36.1581920903955	36.241610738255	6	0.200021135956049	2	4	1	NaN	1	4	0.0555282324327609	1	1	NaN	195	4	6	2	121	221	321	NaN	521	1.14218127634376	1	1	NaN	2412533.777264	NaN	2412534.7606716	2412535.27721232
23	20	0	0	90	36.1581920903955	36.241610738255	6	0.200021135956049	2	8	1	NaN	2	5	0.0555282324327609	1	1	NaN	196	4	7	2	121	221	321	NaN	521	0.0105362683534622	2	1	NaN	2412537.2442727	NaN	2412538.2276881	2412538.74422023
23	20	0	0	90	36.1581920903955	36.241610738255	8	0.266694847941399	2	12	6	NaN	2	4	0.0555282324327609	1	1	NaN	197	4	8	2	121	221	321	NaN	521	0.0104604768566787	2	1	NaN	2412539.5778558	NaN	2412540.5612316	2412541.07777572
23	20	0	0	90	36.1581920903955	36.241610738255	7	0.233357991948724	2	2	3	NaN	1	4	0.0555282324327609	1	1	NaN	198	4	9	2	121	221	321	NaN	521	0.369231824297458	2	0	NaN	2412542.4781048	NaN	2412543.4615219	2412543.97806598
23	20	0	0	90	36.1581920903955	36.241610738255	0	0	1	8	3	NaN	2	5	0.0555282324327609	1	1	NaN	199	4	10	2	111	211	311	NaN	511	0.301438472699374	2	1	NaN	2412545.1784132	NaN	2412546.1617736	2412546.67832743
23	20	0	0	90	36.1581920903955	36.241610738255	17	0.566726551875472	2	2	5	NaN	1	4	0.0555282324327609	1	1	NaN	200	4	11	2	121	221	321	NaN	521	0.0103506925515831	1	1	NaN	2412547.7953232	NaN	2412548.7787227	2412549.29526451
23	20	0	0	90	36.1581920903955	36.241610738255	17	0.566726551875472	2	5	6	NaN	1	5	0.0555282324327609	1	1	NaN	201	4	12	2	121	221	321	NaN	521	0.179633927997202	1	1	NaN	2412550.5955733	NaN	2412551.578992	2412552.09553657
23	20	0	0	90	36.1581920903955	36.241610738255	13	0.433379127904773	2	1	5	NaN	1	5	0.0555282324327609	1	1	NaN	202	4	13	2	121	221	321	NaN	521	0.703688476700336	2	0	NaN	2412553.0958273	NaN	2412554.0792331	2412554.59578242
23	20	0	0	90	36.1581920903955	36.241610738255	6	0.200021135956049	2	4	3	NaN	1	3	0.0555282324327609	1	1	NaN	203	4	14	2	121	221	321	NaN	521	0.159110099542886	2	0	NaN	2412556.1128041	NaN	2412557.0961708	2412557.6127535
23	20	0	0	90	36.1581920903955	36.241610738255	24	0.800084543824196	2	10	4	NaN	2	5	0.0555282324327609	1	1	NaN	204	4	15	2	121	221	321	NaN	521	0.149914624169469	2	1	NaN	2412558.7296847	NaN	2412559.7131421	2412560.22966088
23	20	0	0	90	36.1581920903955	36.241610738255	11	0.366705415919423	2	10	6	NaN	2	5	0.0555282324327609	1	1	NaN	205	4	16	2	121	221	321	NaN	521	0.0104119763709605	2	1	NaN	2412561.1967011	NaN	2412562.1799993	2412562.69656372
23	20	0	0	90	36.1581920903955	36.241610738255	9	0.300031703934073	2	10	4	NaN	2	4	0.0555282324327609	1	1	NaN	206	4	17	2	121	221	321	NaN	521	0.0853974726051092	2	1	NaN	2412563.5300635	NaN	2412564.5135728	2412565.03013673
23	20	0	0	90	36.1581920903955	36.241610738255	16	0.533389695882797	2	11	3	NaN	2	5	0.0555282324327609	1	1	NaN	207	4	18	2	121	221	321	NaN	521	0.0104612284339964	2	1	NaN	2412565.9303788	NaN	2412566.9138275	2412567.43039047
23	20	0	0	90	36.1581920903955	36.241610738255	12	0.400042271912098	2	6	6	NaN	1	4	0.0555282324327609	1	1	NaN	208	4	19	2	121	221	321	NaN	521	0.0104133766144514	1	1	NaN	2412568.2638781	NaN	2412569.2473802	2412569.76392652
23	20	0	0	90	36.1581920903955	36.241610738255	24	0.800084543824196	2	2	2	NaN	1	3	0.0555282324327609	1	1	NaN	209	4	20	2	121	221	321	NaN	521	0.0104286768473685	1	1	NaN	2412570.9143425	NaN	2412571.8976517	2412572.41419372
23	20	0	0	90	36.1581920903955	36.241610738255	12	0.400042271912098	2	1	4	NaN	1	5	0.0555282324327609	1	1	NaN	210	4	21	2	121	221	321	NaN	521	0.0105178244411945	1	1	NaN	2412573.247849	NaN	2412574.2312269	2412574.74774548
23	20	0	0	90	36.1581920903955	36.241610738255	24	0.800084543824196	2	1	2	NaN	1	5	0.0555282324327609	1	1	NaN	211	4	22	2	121	221	321	NaN	521	0.0102523961104453	1	1	NaN	2412575.8646445	NaN	2412576.8481309	2412577.3646848
23	20	0	0	90	36.1581920903955	36.241610738255	11	0.366705415919423	2	6	5	NaN	1	5	0.0555282324327609	1	1	NaN	212	4	23	2	121	221	321	NaN	521	0.0579033279791474	1	1	NaN	2412578.1816342	NaN	2412579.1650469	2412579.68156937
23	20	0	0	90	36.1581920903955	36.241610738255	20	0.666737119853497	2	4	6	NaN	1	4	0.0555282324327609	1	1	NaN	213	4	24	2	121	221	321	NaN	521	0.066979524679482	1	1	NaN	2412580.5483985	NaN	2412581.5319294	2412582.04846428
23	20	0	0	90	36.1581920903955	36.241610738255	19	0.633400263860822	2	4	2	NaN	1	3	0.0555282324327609	1	1	NaN	214	4	25	2	121	221	321	NaN	521	0.0104077765718102	1	1	NaN	2412583.3321418	NaN	2412584.3155197	2412584.83208142
23	20	0	0	90	36.1581920903955	36.241610738255	18	0.600063407868147	2	7	1	NaN	2	4	0.0555282324327609	1	1	NaN	215	4	26	2	121	221	321	NaN	521	0.204051976557821	2	1	NaN	2412585.7156916	NaN	2412586.6991125	2412587.21563962
23	20	0	0	90	36.1581920903955	36.241610738255	15	0.500052839890123	2	2	3	NaN	1	3	0.0555282324327609	1	1	NaN	216	4	27	2	121	221	321	NaN	521	0.0868096766062081	1	1	NaN	2412588.2326089	NaN	2412589.2160123	2412589.73255072
23	20	0	0	90	36.1581920903955	36.241610738255	24	0.800084543824196	2	9	4	NaN	2	5	0.0555282324327609	1	1	NaN	217	4	28	2	121	221	321	NaN	521	0.0186753924936056	2	1	NaN	2412590.7327362	NaN	2412591.7162524	2412592.23280411
23	20	0	0	90	36.1581920903955	36.241610738255	10	0.333368559926748	2	2	1	NaN	1	5	0.0555282324327609	1	1	NaN	218	4	29	2	121	221	321	NaN	521	0.0210388763807714	1	1	NaN	2412593.0664975	NaN	2412594.0498585	2412594.56636612
23	20	0	0	90	36.1581920903955	36.241610738255	24	0.800084543824196	2	3	2	NaN	1	3	0.0555282324327609	1	1	NaN	219	4	30	2	121	221	321	NaN	521	0.118506428319961	1	1	NaN	2412595.6333954	NaN	2412596.6167168	2412597.13329307
23	20	0	0	90	36.1581920903955	36.241610738255	6	0.200021135956049	2	11	2	NaN	2	3	0.0555282324327609	1	1	NaN	220	4	31	2	121	221	321	NaN	521	1.09996324405074	2	1	NaN	2412598.0835348	NaN	2412599.0669882	2412599.58354966
23	20	0	0	90	36.1581920903955	36.241610738255	24	0.800084543824196	2	4	3	NaN	1	5	0.0555282324327609	1	1	NaN	221	4	32	2	121	221	321	NaN	521	0.155302276834846	2	0	NaN	2412601.5005896	NaN	2412602.4840047	2412603.00053492
23	20	0	0	90	36.1581920903955	36.241610738255	16	0.533389695882797	2	2	5	NaN	1	3	0.0555282324327609	1	1	NaN	222	4	33	2	121	221	321	NaN	521	0.428561676293612	1	1	NaN	2412604.0508669	NaN	2412605.0342306	2412605.55077542
23	20	0	0	90	36.1581920903955	36.241610738255	17	0.566726551875472	2	1	6	NaN	1	5	0.0555282324327609	1	1	NaN	223	4	34	2	121	221	321	NaN	521	0.144983928184956	1	1	NaN	2412606.9344316	NaN	2412607.9178972	2412608.43440947
23	20	0	0	90	36.1581920903955	36.241610738255	20	0.666737119853497	2	3	1	NaN	1	3	0.0555282324327609	1	1	NaN	224	4	35	2	121	221	321	NaN	521	0.0105046802200377	1	1	NaN	2412609.4013883	NaN	2412610.3847743	2412610.90130842
23	20	0	0	90	36.1581920903955	36.241610738255	18	0.600063407868147	2	11	3	NaN	2	3	0.0555282324327609	1	1	NaN	225	4	36	2	121	221	321	NaN	521	0.0725155766122043	1	0	NaN	2412611.7349319	NaN	2412612.7183693	2412613.23486212
23	20	0	0	90	36.1581920903955	36.241610738255	19	0.633400263860822	2	7	6	NaN	2	4	0.0555282324327609	1	1	NaN	226	4	37	2	121	221	321	NaN	521	0.0104082766920328	2	1	NaN	2412614.5850844	NaN	2412615.5686046	2412616.08513692
23	20	0	0	90	36.1581920903955	36.241610738255	23	0.766747687831521	2	10	1	NaN	2	3	0.0555282324327609	1	1	NaN	227	4	38	2	121	221	321	NaN	521	0.200821476522833	2	1	NaN	2412616.918766	NaN	2412617.902162	2412618.41870352
23	20	0	0	90	36.1581920903955	36.241610738255	21	0.700073975846171	2	9	6	NaN	2	5	0.0555282324327609	1	1	NaN	228	4	39	2	121	221	321	NaN	521	0.146576676517725	2	1	NaN	2412619.4688783	NaN	2412620.4524312	2412620.96897642
23	20	0	0	90	36.1581920903955	36.241610738255	22	0.733410831838846	2	7	1	NaN	2	5	0.0555282324327609	1	1	NaN	229	4	40	2	121	221	321	NaN	521	0.317569273058325	2	1	NaN	2412622.3859793	NaN	2412623.369363	2412623.88590603
23	20	0	0	90	36.1581920903955	36.241610738255	11	0.366705415919423	2	5	4	NaN	1	4	0.0555282324327609	1	1	NaN	230	4	41	2	121	221	321	NaN	521	0.312008176464587	1	1	NaN	2412625.119541	NaN	2412626.1029732	2412626.61950692
23	20	0	0	90	36.1581920903955	36.241610738255	24	0.800084543824196	2	6	3	NaN	1	4	0.0555282324327609	1	1	NaN	231	4	42	2	121	221	321	NaN	521	0.118233476299793	1	1	NaN	2412627.7531744	NaN	2412628.7365648	2412629.25309772
23	20	0	0	90	36.1581920903955	36.241610738255	7	0.233357991948724	2	8	6	NaN	2	4	0.0555282324327609	1	1	NaN	232	4	43	2	121	221	321	NaN	521	1.11413432797417	1	0	NaN	2412630.2533772	NaN	2412631.23682	2412631.75335107
23	20	0	0	90	36.1581920903955	36.241610738255	16	0.533389695882797	2	6	5	NaN	1	5	0.0555282324327609	1	1	NaN	233	4	44	2	121	221	321	NaN	521	0.0804420281201601	2	0	NaN	2412633.6870941	NaN	2412634.6704443	2412635.18701537
23	20	0	0	90	36.1581920903955	36.241610738255	6	0.200021135956049	2	10	2	NaN	2	3	0.0555282324327609	1	1	NaN	234	4	45	2	121	221	321	NaN	521	0.392093476373702	2	1	NaN	2412636.0871894	NaN	2412637.0707064	2412637.58724642
23	20	0	0	90	36.1581920903955	36.241610738255	12	0.400042271912098	2	1	2	NaN	1	3	0.0555282324327609	1	1	NaN	235	4	46	2	121	221	321	NaN	521	0.396402628161013	1	1	NaN	2412639.1876019	NaN	2412640.1710149	2412640.68756257
23	20	0	0	90	36.1581920903955	36.241610738255	9	0.300031703934073	2	3	6	NaN	1	5	0.0555282324327609	1	1	NaN	236	4	47	2	121	221	321	NaN	521	0.423312824219465	1	1	NaN	2412641.9044495	NaN	2412642.8879482	2412643.40450008
23	20	0	0	90	36.1581920903955	36.241610738255	8	0.266694847941399	2	10	5	NaN	2	3	0.0555282324327609	1	1	NaN	237	4	48	2	121	221	321	NaN	521	0.225486532784998	1	0	NaN	2412644.6381476	NaN	2412645.6215596	2412646.13809197
23	20	0	0	90	36.1581920903955	36.241610738255	9	0.300031703934073	2	3	4	NaN	1	3	0.0555282324327609	1	1	NaN	238	4	49	2	121	221	321	NaN	521	0.203120776452124	1	1	NaN	2412647.1883869	NaN	2412648.1718067	2412648.68834162
23	20	0	0	90	36.1581920903955	36.241610738255	22	0.733410831838846	2	10	1	NaN	2	3	0.0555282324327609	1	1	NaN	239	4	50	2	121	221	321	NaN	521	0.149742984212935	2	1	NaN	2412649.7220881	NaN	2412650.7053828	2412651.22193032
23	20	0	0	90	36.1581920903955	36.241610738255	13	0.433379127904773	2	12	3	NaN	2	5	0.0555282324327609	1	1	NaN	240	4	51	2	121	221	321	NaN	521	0.254940120503306	2	1	NaN	2412652.6889212	NaN	2412653.6723078	2412654.18888098
23	20	0	0	90	36.1581920903955	36.241610738255	9	0.300031703934073	2	9	6	NaN	2	5	0.0555282324327609	1	1	NaN	241	4	52	2	121	221	321	NaN	521	0.188391676172614	1	0	NaN	2412655.5392432	NaN	2412656.5226529	2412657.03915742
23	20	0	0	90	36.1581920903955	36.241610738255	18	0.600063407868147	2	4	3	NaN	1	4	0.0555282324327609	1	1	NaN	242	4	53	2	121	221	321	NaN	521	0.200690292287618	1	1	NaN	2412658.0394877	NaN	2412659.0228662	2412659.53941891
23	20	0	0	90	36.1581920903955	36.241610738255	25	0.833421399816871	2	3	1	NaN	1	5	0.0555282324327609	1	1	NaN	243	4	54	2	121	221	321	NaN	521	0.139463447965682	1	1	NaN	2412660.556371	NaN	2412661.5397616	2412662.05635115
23	20	0	0	90	36.1581920903955	36.241610738255	0	0	1	10	4	NaN	2	5	0.0555282324327609	1	1	NaN	244	4	55	2	111	211	311	NaN	511	0.0104602766223252	2	1	NaN	2412663.0233004	NaN	2412664.0066895	2412664.52323062
23	20	0	0	90	36.1581920903955	36.241610738255	10	0.333368559926748	2	11	1	NaN	2	4	0.0555282324327609	1	1	NaN	245	4	56	2	121	221	321	NaN	521	0.847157828044146	2	1	NaN	2412665.6568868	NaN	2412666.64028	2412667.15682407
23	20	0	0	90	36.1581920903955	36.241610738255	17	0.566726551875472	2	4	5	NaN	1	5	0.0555282324327609	1	1	NaN	246	4	57	2	121	221	321	NaN	521	0.103678624145687	2	0	NaN	2412668.8238573	NaN	2412669.8072901	2412670.32379208
23	20	0	0	90	36.1581920903955	36.241610738255	8	0.266694847941399	2	9	6	NaN	2	3	0.0555282324327609	1	1	NaN	247	4	58	2	121	221	321	NaN	521	0.446892580483109	2	1	NaN	2412671.2407739	NaN	2412672.2241883	2412672.74069732
23	20	0	0	90	36.1581920903955	36.241610738255	15	0.500052839890123	2	12	2	NaN	2	4	0.0555282324327609	1	1	NaN	248	4	59	2	121	221	321	NaN	521	0.23184977658093	2	1	NaN	2412674.0075855	NaN	2412674.9911103	2412675.50764182
23	20	0	0	90	36.1581920903955	36.241610738255	11	0.366705415919423	2	3	3	NaN	1	4	0.0555282324327609	1	1	NaN	249	4	60	2	121	221	321	NaN	521	0.334611732512712	1	1	NaN	2412676.8413005	NaN	2412677.8247097	2412678.34124887
23	20	0	0	90	36.1581920903955	36.241610738255	20	0.666737119853497	2	1	6	NaN	1	5	0.0555282324327609	1	1	NaN	250	4	61	2	121	221	321	NaN	521	0.231329976581037	1	1	NaN	2412680.0082666	NaN	2412680.9917022	2412681.50824332
23	20	0	0	90	36.1581920903955	36.241610738255	9	0.300031703934073	2	2	3	NaN	1	3	0.0555282324327609	1	1	NaN	251	4	62	2	121	221	321	NaN	521	0.110585076268762	1	1	NaN	2412683.0252765	NaN	2412684.0086269	2412684.52520392
23	20	0	0	90	36.1581920903955	36.241610738255	14	0.466715983897448	2	5	5	NaN	1	4	0.0555282324327609	1	1	NaN	252	4	63	2	121	221	321	NaN	521	0.0848097763955593	1	1	NaN	2412685.4588402	NaN	2412686.4422239	2412686.95877302
23	20	0	0	90	36.1581920903955	36.241610738255	24	0.800084543824196	2	8	5	NaN	2	5	0.0555282324327609	1	1	NaN	253	5	1	2	121	221	321	NaN	521	0.0103977280668914	2	1	NaN	2412698.7768009	NaN	2412699.7602169	2412700.27676047
23	20	0	0	90	36.1581920903955	36.241610738255	13	0.433379127904773	2	8	4	NaN	2	3	0.0555282324327609	1	1	NaN	254	5	2	2	121	221	321	NaN	521	1.01750593259931	2	1	NaN	2412701.1102962	NaN	2412702.093758	2412702.61031137
23	20	0	0	90	36.1581920903955	36.241610738255	25	0.833421399816871	2	11	5	NaN	2	5	0.0555282324327609	1	1	NaN	255	5	3	2	121	221	321	NaN	521	0.171252227853984	2	1	NaN	2412704.4607104	NaN	2412705.4440886	2412705.96062387
23	20	0	0	90	36.1581920903955	36.241610738255	15	0.500052839890123	2	8	4	NaN	2	4	0.0555282324327609	1	1	NaN	256	5	4	2	121	221	321	NaN	521	0.0104776765219867	2	1	NaN	2412707.3776346	NaN	2412708.3609767	2412708.87757972
23	20	0	0	90	36.1581920903955	36.241610738255	8	0.266694847941399	2	7	2	NaN	2	3	0.0555282324327609	1	1	NaN	257	5	5	2	121	221	321	NaN	521	0.125559328123927	2	1	NaN	2412710.1945569	NaN	2412711.1780113	2412711.69452687
23	20	0	0	90	36.1581920903955	36.241610738255	9	0.300031703934073	2	9	2	NaN	2	3	0.0555282324327609	1	1	NaN	258	5	6	2	121	221	321	NaN	521	0.0994497281499207	2	1	NaN	2412713.0280617	NaN	2412714.0115958	2412714.52813487
23	20	0	0	90	36.1581920903955	36.241610738255	6	0.200021135956049	2	1	4	NaN	1	4	0.0555282324327609	1	1	NaN	259	5	7	2	121	221	321	NaN	521	0.0104143763892353	1	1	NaN	2412715.7784691	NaN	2412716.7618692	2412717.27840122
23	20	0	0	90	36.1581920903955	36.241610738255	6	0.200021135956049	2	3	4	NaN	1	5	0.0555282324327609	1	1	NaN	260	5	8	2	121	221	321	NaN	521	0.270239632111043	1	1	NaN	2412718.7453915	NaN	2412719.7288071	2412720.24536577
23	20	0	0	90	36.1581920903955	36.241610738255	0	0	1	9	4	NaN	2	3	0.0555282324327609	1	1	NaN	261	5	9	2	111	211	311	NaN	511	0.340819528326392	2	1	NaN	2412721.7790339	NaN	2412722.7624582	2412723.27900127
23	20	0	0	90	36.1581920903955	36.241610738255	16	0.533389695882797	2	7	2	NaN	2	3	0.0555282324327609	1	1	NaN	262	5	10	2	121	221	321	NaN	521	0.0104863243177533	2	1	NaN	2412725.91276	NaN	2412726.8961786	2412727.41272588
23	20	0	0	90	36.1581920903955	36.241610738255	21	0.700073975846171	2	7	6	NaN	2	5	0.0555282324327609	1	1	NaN	263	5	11	2	121	221	321	NaN	521	0.226953076198697	2	1	NaN	2412729.0130303	NaN	2412729.996495	2412730.51303832
23	20	0	0	90	36.1581920903955	36.241610738255	24	0.800084543824196	2	6	3	NaN	1	4	0.0555282324327609	1	1	NaN	264	5	12	2	121	221	321	NaN	521	0.010394228156656	1	1	NaN	2412731.8633354	NaN	2412732.8467359	2412733.36333857
23	20	0	0	90	36.1581920903955	36.241610738255	19	0.633400263860822	2	5	1	NaN	1	3	0.0555282324327609	1	1	NaN	265	5	13	2	121	221	321	NaN	521	0.218764828052372	1	1	NaN	2412734.196945	NaN	2412735.18033	2412735.69688477
23	20	0	0	90	36.1581920903955	36.241610738255	0	0	1	7	3	NaN	2	5	0.0555282324327609	1	1	NaN	266	5	14	2	111	211	311	NaN	511	0.0104803764261305	2	1	NaN	2412737.0472745	NaN	2412738.0306126	2412738.54717802
23	20	0	0	90	36.1581920903955	36.241610738255	14	0.466715983897448	2	1	3	NaN	1	5	0.0555282324327609	1	1	NaN	267	5	15	2	121	221	321	NaN	521	0.15081729600206	1	1	NaN	2412739.8808284	NaN	2412740.8642702	2412741.3807765
23	20	0	0	90	36.1581920903955	36.241610738255	23	0.766747687831521	2	12	4	NaN	2	3	0.0555282324327609	1	1	NaN	268	5	16	2	121	221	321	NaN	521	0.327118272893131	1	0	NaN	2412742.6810728	NaN	2412743.6645068	2412744.18104953
23	20	0	0	90	36.1581920903955	36.241610738255	7	0.233357991948724	2	11	4	NaN	2	4	0.0555282324327609	1	1	NaN	269	5	17	2	121	221	321	NaN	521	0.942133276257664	2	1	NaN	2412747.6815511	NaN	2412748.664979	2412749.18154532
23	20	0	0	90	36.1581920903955	36.241610738255	21	0.700073975846171	2	12	6	NaN	2	5	0.0555282324327609	1	1	NaN	270	5	18	2	121	221	321	NaN	521	0.338452076539397	2	1	NaN	2412751.1652658	NaN	2412752.1486651	2412752.66522912
23	20	0	0	90	36.1581920903955	36.241610738255	15	0.500052839890123	2	1	5	NaN	1	4	0.0555282324327609	1	1	NaN	271	5	19	2	121	221	321	NaN	521	0.304096824489534	1	1	NaN	2412754.2156022	NaN	2412755.1989751	2412755.71551028
23	20	0	0	90	36.1581920903955	36.241610738255	19	0.633400263860822	2	9	4	NaN	2	4	0.0555282324327609	1	1	NaN	272	5	20	2	121	221	321	NaN	521	0.206550976727158	2	1	NaN	2412756.8491911	NaN	2412757.8326048	2412758.34909642
23	20	0	0	90	36.1581920903955	36.241610738255	16	0.533389695882797	2	2	6	NaN	1	3	0.0555282324327609	1	1	NaN	273	5	21	2	121	221	321	NaN	521	1.13122757617384	1	1	NaN	2412761.3329095	NaN	2412762.31633	2412762.83289412
23	20	0	0	90	36.1581920903955	36.241610738255	14	0.466715983897448	2	2	4	NaN	1	5	0.0555282324327609	1	1	NaN	274	5	22	2	121	221	321	NaN	521	0.520474124699831	1	1	NaN	2412764.7831648	NaN	2412765.7666723	2412766.28321128
23	20	0	0	90	36.1581920903955	36.241610738255	25	0.833421399816871	2	2	5	NaN	1	5	0.0555282324327609	1	1	NaN	275	5	23	2	121	221	321	NaN	521	0.22318947641179	1	1	NaN	2412768.2169185	NaN	2412769.2003607	2412769.71688402
23	20	0	0	90	36.1581920903955	36.241610738255	20	0.666737119853497	2	8	3	NaN	2	4	0.0555282324327609	1	1	NaN	276	5	24	2	121	221	321	NaN	521	0.382965576369315	2	1	NaN	2412771.2172268	NaN	2412772.2006416	2412772.71717262
23	20	0	0	90	36.1581920903955	36.241610738255	19	0.633400263860822	2	8	2	NaN	2	3	0.0555282324327609	1	1	NaN	277	5	25	2	121	221	321	NaN	521	0.0102968001738191	1	0	NaN	2412773.9175754	NaN	2412774.9009349	2412775.4174633
23	20	0	0	90	36.1581920903955	36.241610738255	23	0.766747687831521	2	10	3	NaN	2	4	0.0555282324327609	1	1	NaN	278	5	26	2	121	221	321	NaN	521	0.0105178281664848	1	0	NaN	2412776.8676836	NaN	2412777.8511916	2412778.36773887
23	20	0	0	90	36.1581920903955	36.241610738255	8	0.266694847941399	2	5	4	NaN	1	3	0.0555282324327609	1	1	NaN	279	5	27	2	121	221	321	NaN	521	0.286307876463979	1	1	NaN	2412780.2014411	NaN	2412781.18486	2412781.70140462
23	20	0	0	90	36.1581920903955	36.241610738255	18	0.600063407868147	2	3	3	NaN	1	3	0.0555282324327609	1	1	NaN	280	5	28	2	121	221	321	NaN	521	0.179106828290969	1	1	NaN	2412783.0850511	NaN	2412784.0684652	2412784.58500797
23	20	0	0	90	36.1581920903955	36.241610738255	11	0.366705415919423	2	4	5	NaN	1	4	0.0555282324327609	1	1	NaN	281	5	29	2	121	221	321	NaN	521	0.0104805761948228	1	1	NaN	2412785.5853224	NaN	2412786.5687226	2412787.08525742
23	20	0	0	90	36.1581920903955	36.241610738255	13	0.433379127904773	2	9	5	NaN	2	5	0.0555282324327609	1	1	NaN	282	5	30	2	121	221	321	NaN	521	0.010473576374352	1	0	NaN	2412787.9188735	NaN	2412788.9022802	2412789.41881892
23	20	0	0	90	36.1581920903955	36.241610738255	15	0.500052839890123	2	2	2	NaN	1	5	0.0555282324327609	1	1	NaN	283	5	31	2	121	221	321	NaN	521	0.110579828266054	1	1	NaN	2412790.3689886	NaN	2412791.3525434	2412791.86904997
23	20	0	0	90	36.1581920903955	36.241610738255	14	0.466715983897448	2	9	1	NaN	2	3	0.0555282324327609	1	1	NaN	284	5	32	2	121	221	321	NaN	521	0.0104117766022682	2	1	NaN	2412792.8027006	NaN	2412793.7860614	2412794.30262442
23	20	0	0	90	36.1581920903955	36.241610738255	15	0.500052839890123	2	7	6	NaN	2	3	0.0555282324327609	1	1	NaN	285	5	33	2	121	221	321	NaN	521	2.37547578010708	2	1	NaN	2412795.1361473	NaN	2412796.1196618	2412796.63620772
23	20	0	0	90	36.1581920903955	36.241610738255	11	0.366705415919423	2	10	2	NaN	2	4	0.0555282324327609	1	1	NaN	286	5	34	2	121	221	321	NaN	521	0.353519576601684	2	1	NaN	2412800.0700791	NaN	2412801.0534699	2412801.57000532
23	20	0	0	90	36.1581920903955	36.241610738255	23	0.766747687831521	2	1	4	NaN	1	3	0.0555282324327609	1	1	NaN	287	5	35	2	121	221	321	NaN	521	0.374075428117067	1	1	NaN	2412803.3537128	NaN	2412804.3371341	2412804.85366837
23	20	0	0	90	36.1581920903955	36.241610738255	22	0.733410831838846	2	1	2	NaN	1	4	0.0555282324327609	1	1	NaN	288	5	36	2	121	221	321	NaN	521	0.20231402805075	1	1	NaN	2412806.0373809	NaN	2412807.0206932	2412807.53726657
23	20	0	0	90	36.1581920903955	36.241610738255	10	0.333368559926748	2	12	1	NaN	2	3	0.0555282324327609	1	1	NaN	289	5	37	2	121	221	321	NaN	521	0.293952776584774	1	0	NaN	2412808.5542365	NaN	2412809.537643	2412810.05416742
23	20	0	0	90	36.1581920903955	36.241610738255	13	0.433379127904773	2	11	2	NaN	2	5	0.0555282324327609	1	1	NaN	290	5	38	2	121	221	321	NaN	521	0.0104763768613338	2	1	NaN	2412811.4538684	NaN	2412812.437907	2412812.95446432
23	20	0	0	90	36.1581920903955	36.241610738255	7	0.233357991948724	2	7	4	NaN	2	4	0.0555282324327609	1	1	NaN	291	5	39	2	121	221	321	NaN	521	0.330308276694268	2	1	NaN	2412815.4215495	NaN	2412816.4049681	2412816.92151512
23	20	0	0	90	36.1581920903955	36.241610738255	22	0.733410831838846	2	4	5	NaN	1	3	0.0555282324327609	1	1	NaN	292	5	40	2	121	221	321	NaN	521	0.0698096323758364	2	0	NaN	2412818.5218251	NaN	2412819.5052769	2412820.02181847
23	20	0	0	90	36.1581920903955	36.241610738255	20	0.666737119853497	2	9	5	NaN	2	5	0.0555282324327609	1	1	NaN	293	5	41	2	121	221	321	NaN	521	0.140092876274139	2	1	NaN	2412821.5555034	NaN	2412822.5389048	2412823.05544772
23	20	0	0	90	36.1581920903955	36.241610738255	12	0.400042271912098	2	8	1	NaN	2	5	0.0555282324327609	1	1	NaN	294	5	42	2	121	221	321	NaN	521	0.0996398278512061	2	1	NaN	2412824.9724101	NaN	2412825.9559124	2412826.47245287
23	20	0	0	90	36.1581920903955	36.241610738255	16	0.533389695882797	2	10	3	NaN	2	3	0.0555282324327609	1	1	NaN	295	5	43	2	121	221	321	NaN	521	0.0749199283309281	2	1	NaN	2412827.7727436	NaN	2412828.756216	2412829.27271987
23	20	0	0	90	36.1581920903955	36.241610738255	18	0.600063407868147	2	1	1	NaN	1	4	0.0555282324327609	1	1	NaN	296	5	44	2	121	221	321	NaN	521	0.248512776102871	1	1	NaN	2412830.4396948	NaN	2412831.4230272	2412831.93964952
23	20	0	0	90	36.1581920903955	36.241610738255	21	0.700073975846171	2	10	1	NaN	2	3	0.0555282324327609	1	1	NaN	297	5	45	2	121	221	321	NaN	521	0.499569892417639	2	1	NaN	2412834.1566853	NaN	2412835.1401652	2412835.65669921
23	20	0	0	90	36.1581920903955	36.241610738255	14	0.466715983897448	2	9	2	NaN	2	5	0.0555282324327609	1	1	NaN	298	5	46	2	121	221	321	NaN	521	0.274450628552586	2	1	NaN	2412836.9737218	NaN	2412837.9571531	2412838.47363407
23	20	0	0	90	36.1581920903955	36.241610738255	24	0.800084543824196	2	7	3	NaN	2	5	0.0555282324327609	1	1	NaN	299	5	47	2	121	221	321	NaN	521	0.0104518765583634	2	1	NaN	2412839.557285	NaN	2412840.5406868	2412841.05721412
23	20	0	0	90	36.1581920903955	36.241610738255	11	0.366705415919423	2	1	3	NaN	1	3	0.0555282324327609	1	1	NaN	300	5	48	2	121	221	321	NaN	521	0.204811276402324	1	1	NaN	2412841.8908254	NaN	2412842.8742157	2412843.39077652
23	20	0	0	90	36.1581920903955	36.241610738255	6	0.200021135956049	2	5	4	NaN	1	5	0.0555282324327609	1	1	NaN	301	5	49	2	121	221	321	NaN	521	0.0104134762659669	1	1	NaN	2412844.4077532	NaN	2412845.3911662	2412845.90768532
23	20	0	0	90	36.1581920903955	36.241610738255	7	0.233357991948724	2	5	3	NaN	1	5	0.0555282324327609	1	1	NaN	302	5	50	2	121	221	321	NaN	521	0.668013432528824	1	1	NaN	2412847.3080285	NaN	2412848.2914228	2412848.80797627
23	20	0	0	90	36.1581920903955	36.241610738255	15	0.500052839890123	2	1	2	NaN	1	4	0.0555282324327609	1	1	NaN	303	5	51	2	121	221	321	NaN	521	0.348625776357949	1	1	NaN	2412850.2915431	NaN	2412851.2750627	2412851.79160532
23	20	0	0	90	36.1581920903955	36.241610738255	22	0.733410831838846	2	10	6	NaN	2	4	0.0555282324327609	1	1	NaN	304	5	52	2	121	221	321	NaN	521	0.0102253998629749	2	1	NaN	2412853.4085814	NaN	2412854.3920328	2412854.9085805
23	20	0	0	90	36.1581920903955	36.241610738255	25	0.833421399816871	2	10	5	NaN	2	5	0.0555282324327609	1	1	NaN	305	5	53	2	121	221	321	NaN	521	0.0103906281292439	2	1	NaN	2412855.8755015	NaN	2412856.8590111	2412857.37550607
23	20	0	0	90	36.1581920903955	36.241610738255	23	0.766747687831521	2	6	1	NaN	1	5	0.0555282324327609	1	1	NaN	306	5	54	2	121	221	321	NaN	521	0.0103950281627476	1	1	NaN	2412858.6924734	NaN	2412859.675875	2412860.19244417
23	20	0	0	90	36.1581920903955	36.241610738255	17	0.566726551875472	2	3	2	NaN	1	5	0.0555282324327609	1	1	NaN	307	5	55	2	121	221	321	NaN	521	0.14167172042653	1	1	NaN	2412861.0260559	NaN	2412862.0094495	2412862.52598538
23	20	0	0	90	36.1581920903955	36.241610738255	9	0.300031703934073	2	4	2	NaN	1	3	0.0555282324327609	1	1	NaN	308	5	56	2	121	221	321	NaN	521	0.705914827995002	2	0	NaN	2412863.52626	NaN	2412864.5096921	2412865.02623987
23	20	0	0	90	36.1581920903955	36.241610738255	19	0.633400263860822	2	5	1	NaN	1	5	0.0555282324327609	1	1	NaN	309	5	57	2	121	221	321	NaN	521	0.688920076470822	1	1	NaN	2412866.5431992	NaN	2412867.526682	2412868.04318852
23	20	0	0	90	36.1581920903955	36.241610738255	13	0.433379127904773	2	4	1	NaN	1	3	0.0555282324327609	1	1	NaN	310	5	58	2	121	221	321	NaN	521	0.167476627975702	2	0	NaN	2412869.5602194	NaN	2412870.5436182	2412871.06016037
23	20	0	0	90	36.1581920903955	36.241610738255	13	0.433379127904773	2	7	5	NaN	2	4	0.0555282324327609	1	1	NaN	311	5	59	2	121	221	321	NaN	521	0.764374999795109	2	1	NaN	2412872.0436785	NaN	2412873.0271617	2412873.5437655
23	20	0	0	90	36.1581920903955	36.241610738255	11	0.366705415919423	2	8	1	NaN	2	3	0.0555282324327609	1	1	NaN	312	5	60	2	121	221	321	NaN	521	0.010495672468096	2	1	NaN	2412875.1274387	NaN	2412876.1108795	2412876.62737853
23	20	0	0	90	36.1581920903955	36.241610738255	22	0.733410831838846	2	4	4	NaN	1	5	0.0555282324327609	1	1	NaN	313	5	61	2	121	221	321	NaN	521	0.204801428131759	1	1	NaN	2412877.6109508	NaN	2412878.594403	2412879.11095177
23	20	0	0	90	36.1581920903955	36.241610738255	14	0.466715983897448	2	8	5	NaN	2	3	0.0555282324327609	1	1	NaN	314	5	62	2	121	221	321	NaN	521	0.28044257638976	2	1	NaN	2412880.3112857	NaN	2412881.2946676	2412881.81121432
23	20	0	0	90	36.1581920903955	36.241610738255	14	0.466715983897448	2	10	5	NaN	2	4	0.0555282324327609	1	1	NaN	315	5	63	2	121	221	321	NaN	521	0.0162261324003339	2	1	NaN	2412882.9115699	NaN	2412883.8949307	2412884.41146947
23	20	0	0	90	36.1581920903955	36.241610738255	14	0.466715983897448	2	3	6	NaN	1	3	0.0555282324327609	1	1	NaN	316	6	1	2	121	221	321	NaN	521	2.70050242450088	2	0	NaN	2412906.9472195	NaN	2412907.9306012	2412908.44715578
23	20	0	0	90	36.1581920903955	36.241610738255	13	0.433379127904773	2	5	6	NaN	1	4	0.0555282324327609	1	1	NaN	317	6	2	2	121	221	321	NaN	521	0.795307976193726	2	0	NaN	2412911.9810521	NaN	2412912.964448	2412913.48098472
23	20	0	0	90	36.1581920903955	36.241610738255	16	0.533389695882797	2	6	6	NaN	1	4	0.0555282324327609	1	1	NaN	318	6	3	2	121	221	321	NaN	521	0.182381332851946	1	1	NaN	2412915.0980251	NaN	2412916.0814239	2412916.59796477
23	20	0	0	90	36.1581920903955	36.241610738255	19	0.633400263860822	2	9	1	NaN	2	5	0.0555282324327609	1	1	NaN	319	6	4	2	121	221	321	NaN	521	0.795996176544577	2	1	NaN	2412917.9315219	NaN	2412918.9150396	2412919.43156822
23	20	0	0	90	36.1581920903955	36.241610738255	18	0.600063407868147	2	5	2	NaN	1	4	0.0555282324327609	1	1	NaN	320	6	5	2	121	221	321	NaN	521	0.0104109765961766	1	1	NaN	2412921.048615	NaN	2412922.0320057	2412922.54854102
23	20	0	0	90	36.1581920903955	36.241610738255	11	0.366705415919423	2	11	6	NaN	2	4	0.0555282324327609	1	1	NaN	321	6	6	2	121	221	321	NaN	521	0.930372328031808	1	0	NaN	2412923.3654959	NaN	2412924.3489144	2412924.86546017
23	20	0	0	90	36.1581920903955	36.241610738255	16	0.533389695882797	2	10	4	NaN	2	4	0.0555282324327609	1	1	NaN	322	6	7	2	121	221	321	NaN	521	0.968134276103228	1	0	NaN	2412926.6158239	NaN	2412927.5992515	2412928.11576002
23	20	0	0	90	36.1581920903955	36.241610738255	9	0.300031703934073	2	12	1	NaN	2	3	0.0555282324327609	1	1	NaN	323	6	8	2	121	221	321	NaN	521	0.612311132717878	2	1	NaN	2412929.8994701	NaN	2412930.8829059	2412931.39947027
23	20	0	0	90	36.1581920903955	36.241610738255	17	0.566726551875472	2	11	2	NaN	2	5	0.0555282324327609	1	1	NaN	324	6	9	2	121	221	321	NaN	521	0.010413384065032	2	1	NaN	2412932.8331147	NaN	2412933.8165078	2412934.33304252
23	20	0	0	90	36.1581920903955	36.241610738255	23	0.766747687831521	2	9	6	NaN	2	5	0.0555282324327609	1	1	NaN	325	6	10	2	121	221	321	NaN	521	0.0492315241135657	2	1	NaN	2412935.1665222	NaN	2412936.1499519	2412936.66658758
23	20	0	0	90	36.1581920903955	36.241610738255	0	0	1	5	6	NaN	1	3	0.0555282324327609	1	1	NaN	326	6	11	2	111	211	311	NaN	511	0.626332576386631	2	0	NaN	2412937.533548	NaN	2412938.5169669	2412939.03349392
23	20	0	0	90	36.1581920903955	36.241610738255	23	0.766747687831521	2	5	6	NaN	1	3	0.0555282324327609	1	1	NaN	327	6	12	2	121	221	321	NaN	521	0.452690128237009	2	0	NaN	2412940.4838575	NaN	2412941.4672747	2412941.98378377
23	20	0	0	90	36.1581920903955	36.241610738255	9	0.300031703934073	2	1	2	NaN	1	4	0.0555282324327609	1	1	NaN	328	6	13	2	121	221	321	NaN	521	0.517008876428008	1	1	NaN	2412943.250841	NaN	2412944.23419	2412944.75072992
23	20	0	0	90	36.1581920903955	36.241610738255	23	0.766747687831521	2	3	4	NaN	1	3	0.0555282324327609	1	1	NaN	329	6	14	2	121	221	321	NaN	521	0.627994728274643	1	1	NaN	2412946.084277	NaN	2412947.0677787	2412947.58433137
23	20	0	0	90	36.1581920903955	36.241610738255	15	0.500052839890123	2	7	2	NaN	2	5	0.0555282324327609	1	1	NaN	330	6	15	2	121	221	321	NaN	521	0.645357276313007	2	1	NaN	2412949.0347731	NaN	2412950.0180973	2412950.53462092
23	20	0	0	90	36.1581920903955	36.241610738255	16	0.533389695882797	2	8	2	NaN	2	3	0.0555282324327609	1	1	NaN	331	6	16	2	121	221	321	NaN	521	1.0786976441741	2	1	NaN	2412952.0016648	NaN	2412952.9850344	2412953.50158336
23	20	0	0	90	36.1581920903955	36.241610738255	0	0	1	4	5	NaN	1	4	0.0555282324327609	1	1	NaN	332	6	17	2	111	211	311	NaN	511	0.90203522471711	2	0	NaN	2412955.4019815	NaN	2412956.3853767	2412956.90190888
23	20	0	0	90	36.1581920903955	36.241610738255	24	0.800084543824196	2	1	4	NaN	1	4	0.0555282324327609	1	1	NaN	333	6	18	2	121	221	321	NaN	521	0.309061128180474	1	1	NaN	2412958.6189453	NaN	2412959.6023316	2412960.11890147
23	20	0	0	90	36.1581920903955	36.241610738255	7	0.233357991948724	2	9	3	NaN	2	4	0.0555282324327609	1	1	NaN	334	6	19	2	121	221	321	NaN	521	0.307352676521987	1	0	NaN	2412961.2525389	NaN	2412962.2359514	2412962.75249472
23	20	0	0	90	36.1581920903955	36.241610738255	22	0.733410831838846	2	11	2	NaN	2	4	0.0555282324327609	1	1	NaN	335	6	20	2	121	221	321	NaN	521	0.337821176741272	1	0	NaN	2412963.8860917	NaN	2412964.8695414	2412965.38607162
23	20	0	0	90	36.1581920903955	36.241610738255	18	0.600063407868147	2	9	3	NaN	2	5	0.0555282324327609	1	1	NaN	336	6	21	2	121	221	321	NaN	521	0.0103792883455753	2	1	NaN	2412966.5530529	NaN	2412967.5364703	2412968.05301061
23	20	0	0	90	36.1581920903955	36.241610738255	25	0.833421399816871	2	4	6	NaN	1	5	0.0555282324327609	1	1	NaN	337	6	22	2	121	221	321	NaN	521	0.0104751763865352	1	1	NaN	2412968.8866437	NaN	2412969.8700369	2412970.38657262
23	20	0	0	90	36.1581920903955	36.241610738255	21	0.700073975846171	2	4	2	NaN	1	4	0.0555282324327609	1	1	NaN	338	6	23	2	121	221	321	NaN	521	0.0522886766120791	2	0	NaN	2412971.2035279	NaN	2412972.1869263	2412972.70346302
23	20	0	0	90	36.1581920903955	36.241610738255	0	0	1	4	4	NaN	1	4	0.0555282324327609	1	1	NaN	339	6	24	2	111	211	311	NaN	511	0.709707428235561	2	0	NaN	2412973.5703291	NaN	2412974.5538293	2412975.07036867
23	20	0	0	90	36.1581920903955	36.241610738255	20	0.666737119853497	2	8	4	NaN	2	5	0.0555282324327609	1	1	NaN	340	6	25	2	121	221	321	NaN	521	0.324393140152097	2	1	NaN	2412976.604075	NaN	2412977.5873742	2412978.10399416
23	20	0	0	90	36.1581920903955	36.241610738255	17	0.566726551875472	2	7	5	NaN	2	5	0.0555282324327609	1	1	NaN	341	6	26	2	121	221	321	NaN	521	0.73079817648977	2	1	NaN	2412979.237656	NaN	2412980.2210379	2412980.73758412
23	20	0	0	90	36.1581920903955	36.241610738255	17	0.566726551875472	2	6	6	NaN	1	4	0.0555282324327609	1	1	NaN	342	6	27	2	121	221	321	NaN	521	0.496371676679701	1	1	NaN	2412982.2879612	NaN	2412983.2713403	2412983.78787992
23	20	0	0	90	36.1581920903955	36.241610738255	10	0.333368559926748	2	10	2	NaN	2	5	0.0555282324327609	1	1	NaN	343	6	28	2	121	221	321	NaN	521	0.460303976666182	2	1	NaN	2412985.1715631	NaN	2412986.1549615	2412986.67151032
23	20	0	0	90	36.1581920903955	36.241610738255	12	0.400042271912098	2	2	2	NaN	1	3	0.0555282324327609	1	1	NaN	344	6	29	2	121	221	321	NaN	521	0.381863576825708	1	1	NaN	2412987.9385107	NaN	2412988.9219048	2412989.43844872
23	20	0	0	90	36.1581920903955	36.241610738255	20	0.666737119853497	2	6	5	NaN	1	4	0.0555282324327609	1	1	NaN	345	6	30	2	121	221	321	NaN	521	0.337716528214514	2	0	NaN	2412990.6387567	NaN	2412991.6221877	2412992.13870887
23	20	0	0	90	36.1581920903955	36.241610738255	13	0.433379127904773	2	2	6	NaN	1	4	0.0555282324327609	1	1	NaN	346	6	31	2	121	221	321	NaN	521	0.254341976717114	1	1	NaN	2412993.3056934	NaN	2412994.289096	2412994.80563742
23	20	0	0	90	36.1581920903955	36.241610738255	6	0.200021135956049	2	2	6	NaN	1	3	0.0555282324327609	1	1	NaN	347	6	32	2	121	221	321	NaN	521	0.103293424006552	1	1	NaN	2412995.8726577	NaN	2412996.8560065	2412997.37255048
23	20	0	0	90	36.1581920903955	36.241610738255	7	0.233357991948724	2	12	2	NaN	2	3	0.0555282324327609	1	1	NaN	348	6	33	2	121	221	321	NaN	521	0.10999842826277	2	1	NaN	2412998.3061896	NaN	2412999.2895805	2412999.80611697
23	20	0	0	90	36.1581920903955	36.241610738255	10	0.333368559926748	2	3	6	NaN	1	4	0.0555282324327609	1	1	NaN	349	6	34	2	121	221	321	NaN	521	1.08459698036313	1	1	NaN	2413001.1398082	NaN	2413002.1231698	2413002.63973202
23	20	0	0	90	36.1581920903955	36.241610738255	13	0.433379127904773	2	10	6	NaN	2	3	0.0555282324327609	1	1	NaN	350	6	35	2	121	221	321	NaN	521	0.363125276751816	1	0	NaN	2413004.5567994	NaN	2413005.5401998	2413006.05673772
23	20	0	0	90	36.1581920903955	36.241610738255	10	0.333368559926748	2	9	3	NaN	2	5	0.0555282324327609	1	1	NaN	351	6	36	2	121	221	321	NaN	521	0.504149480257183	2	1	NaN	2413007.2403837	NaN	2413008.2237872	2413008.74033932
23	20	0	0	90	36.1581920903955	36.241610738255	24	0.800084543824196	2	7	6	NaN	2	3	0.0555282324327609	1	1	NaN	352	6	37	2	121	221	321	NaN	521	0.0103673399426043	2	1	NaN	2413010.0572034	NaN	2413011.0407299	2413011.55727936
23	20	0	0	90	36.1581920903955	36.241610738255	25	0.833421399816871	2	2	6	NaN	1	3	0.0555282324327609	1	1	NaN	353	6	38	2	121	221	321	NaN	521	1.28914077673107	2	0	NaN	2413012.3908159	NaN	2413013.3743057	2413013.89084002
23	20	0	0	90	36.1581920903955	36.241610738255	25	0.833421399816871	2	1	2	NaN	1	3	0.0555282324327609	1	1	NaN	354	6	39	2	121	221	321	NaN	521	0.424719124101102	1	1	NaN	2413015.9911065	NaN	2413016.9746978	2413017.49118238
23	20	0	0	90	36.1581920903955	36.241610738255	18	0.600063407868147	2	11	5	NaN	2	3	0.0555282324327609	1	1	NaN	355	6	40	2	121	221	321	NaN	521	0.491239980328828	2	1	NaN	2413018.7248673	NaN	2413019.7082527	2413020.22479532
23	20	0	0	90	36.1581920903955	36.241610738255	0	0	1	3	3	NaN	1	3	0.0555282324327609	1	1	NaN	356	6	41	2	111	211	311	NaN	511	0.426546676550061	1	1	NaN	2413021.5417862	NaN	2413022.5251829	2413023.04173672
23	20	0	0	90	36.1581920903955	36.241610738255	22	0.733410831838846	2	9	3	NaN	2	4	0.0555282324327609	1	1	NaN	357	6	42	2	121	221	321	NaN	521	0.388584380038083	1	0	NaN	2413024.2920665	NaN	2413025.2754259	2413025.79200272
23	20	0	0	90	36.1581920903955	36.241610738255	19	0.633400263860822	2	12	2	NaN	2	4	0.0555282324327609	1	1	NaN	358	6	43	2	121	221	321	NaN	521	0.135665328241885	2	1	NaN	2413026.9923301	NaN	2413027.975733	2413028.49227717
23	20	0	0	90	36.1581920903955	36.241610738255	19	0.633400263860822	2	1	5	NaN	1	5	0.0555282324327609	1	1	NaN	359	6	44	2	121	221	321	NaN	521	0.0104059763252735	1	1	NaN	2413029.4425891	NaN	2413030.4259489	2413030.94251242
23	20	0	0	90	36.1581920903955	36.241610738255	15	0.500052839890123	2	6	1	NaN	1	5	0.0555282324327609	1	1	NaN	360	6	45	2	121	221	321	NaN	521	0.159860476385802	1	1	NaN	2413031.7761664	NaN	2413032.759512	2413033.27606982
23	20	0	0	90	36.1581920903955	36.241610738255	6	0.200021135956049	2	7	3	NaN	2	4	0.0555282324327609	1	1	NaN	361	6	46	2	121	221	321	NaN	521	0.0103912283666432	1	0	NaN	2413034.7430617	NaN	2413035.7264923	2413036.24303527
23	20	0	0	90	36.1581920903955	36.241610738255	14	0.466715983897448	2	12	4	NaN	2	5	0.0555282324327609	1	1	NaN	362	6	47	2	121	221	321	NaN	521	0.0103929280303419	2	1	NaN	2413037.0766525	NaN	2413038.0600893	2413038.57659927
23	20	0	0	90	36.1581920903955	36.241610738255	20	0.666737119853497	2	10	4	NaN	2	4	0.0555282324327609	1	1	NaN	363	6	48	2	121	221	321	NaN	521	0.0104260765947402	2	1	NaN	2413039.4103308	NaN	2413040.3936135	2413040.91014842
23	20	0	0	90	36.1581920903955	36.241610738255	9	0.300031703934073	2	8	6	NaN	2	4	0.0555282324327609	1	1	NaN	364	6	49	2	121	221	321	NaN	521	0.173513228073716	2	1	NaN	2413041.8103183	NaN	2413042.7938493	2413043.31039407
23	20	0	0	90	36.1581920903955	36.241610738255	22	0.733410831838846	2	11	2	NaN	2	4	0.0555282324327609	1	1	NaN	365	6	50	2	121	221	321	NaN	521	0.121830676682293	1	0	NaN	2413044.3106864	NaN	2413045.2941034	2413045.81065132
23	20	0	0	90	36.1581920903955	36.241610738255	0	0	1	8	1	NaN	2	3	0.0555282324327609	1	1	NaN	366	6	51	2	111	211	311	NaN	511	0.0104788765311241	2	1	NaN	2413046.7608152	NaN	2413047.7443316	2413048.26088102
23	20	0	0	90	36.1581920903955	36.241610738255	17	0.566726551875472	2	10	6	NaN	2	3	0.0555282324327609	1	1	NaN	367	6	52	2	121	221	321	NaN	521	0.745552628301084	2	1	NaN	2413049.0943616	NaN	2413050.0779018	2413050.59443717
23	20	0	0	90	36.1581920903955	36.241610738255	19	0.633400263860822	2	3	1	NaN	1	4	0.0555282324327609	1	1	NaN	368	6	53	2	121	221	321	NaN	521	0.214623800013214	1	1	NaN	2413052.1615802	NaN	2413053.1448689	2413053.6614224
23	20	0	0	90	36.1581920903955	36.241610738255	21	0.700073975846171	2	6	5	NaN	1	3	0.0555282324327609	1	1	NaN	369	6	54	2	121	221	321	NaN	521	0.0104447323828936	1	1	NaN	2413054.6950675	NaN	2413055.6784497	2413056.19498867
23	20	0	0	90	36.1581920903955	36.241610738255	0	0	1	10	4	NaN	2	4	0.0555282324327609	1	1	NaN	370	6	55	2	111	211	311	NaN	511	0.275846876669675	2	1	NaN	2413057.0285943	NaN	2413058.0120058	2413058.52855062
23	20	0	0	90	36.1581920903955	36.241610738255	21	0.700073975846171	2	5	5	NaN	1	3	0.0555282324327609	1	1	NaN	371	6	56	2	121	221	321	NaN	521	0.139455324038863	2	0	NaN	2413059.6288685	NaN	2413060.6122496	2413061.12880198
23	20	0	0	90	36.1581920903955	36.241610738255	19	0.633400263860822	2	7	4	NaN	2	3	0.0555282324327609	1	1	NaN	372	6	57	2	121	221	321	NaN	521	0.128336876630783	2	1	NaN	2413062.0957731	NaN	2413063.0792084	2413063.59571452
23	20	0	0	90	36.1581920903955	36.241610738255	19	0.633400263860822	2	10	2	NaN	2	4	0.0555282324327609	1	1	NaN	373	6	58	2	121	221	321	NaN	521	0.0104527282528579	2	1	NaN	2413064.5460133	NaN	2413065.5294166	2413066.04595957
23	20	0	0	90	36.1581920903955	36.241610738255	19	0.633400263860822	2	11	2	NaN	2	3	0.0555282324327609	1	1	NaN	374	6	59	2	121	221	321	NaN	521	0.0104076764546335	2	1	NaN	2413066.8795801	NaN	2413067.8629519	2413068.37951502
23	20	0	0	90	36.1581920903955	36.241610738255	23	0.766747687831521	2	2	4	NaN	1	5	0.0555282324327609	1	1	NaN	375	6	60	2	121	221	321	NaN	521	0.122937228530645	1	1	NaN	2413069.2131358	NaN	2413070.1965235	2413070.71309147
23	20	0	0	90	36.1581920903955	36.241610738255	11	0.366705415919423	2	7	4	NaN	2	4	0.0555282324327609	1	1	NaN	376	6	61	2	121	221	321	NaN	521	0.0104741766117513	1	0	NaN	2413071.6467071	NaN	2413072.6301184	2413073.14664942
23	20	0	0	90	36.1581920903955	36.241610738255	17	0.566726551875472	2	2	3	NaN	1	5	0.0555282324327609	1	1	NaN	377	6	62	2	121	221	321	NaN	521	0.699145080521703	2	0	NaN	2413074.1969716	NaN	2413075.1803476	2413075.69690532
23	20	0	0	90	36.1581920903955	36.241610738255	21	0.700073975846171	2	2	5	NaN	1	4	0.0555282324327609	1	1	NaN	378	6	63	2	121	221	321	NaN	521	0.209898892324418	1	1	NaN	2413077.2139251	NaN	2413078.1973425	2413078.71386951
23	20	0	0	90	36.1581920903955	36.241610738255	13	0.433379127904773	2	5	1	NaN	1	4	0.0555282324327609	1	1	NaN	379	7	1	2	121	221	321	NaN	521	0.010392228141427	2	0	NaN	2413085.2146942	NaN	2413086.198125	2413086.71465377
23	20	0	0	90	36.1581920903955	36.241610738255	20	0.666737119853497	2	11	3	NaN	2	4	0.0555282324327609	1	1	NaN	380	7	2	2	121	221	321	NaN	521	0.101972532458603	1	0	NaN	2413088.2982185	NaN	2413089.2817461	2413089.79827977
23	20	0	0	90	36.1581920903955	36.241610738255	8	0.266694847941399	2	12	6	NaN	2	4	0.0555282324327609	1	1	NaN	381	7	3	2	121	221	321	NaN	521	0.312667776830494	2	1	NaN	2413091.4152994	NaN	2413092.3986773	2413092.91525482
23	20	0	0	90	36.1581920903955	36.241610738255	18	0.600063407868147	2	4	2	NaN	1	4	0.0555282324327609	1	1	NaN	382	7	4	2	121	221	321	NaN	521	0.431998476851732	1	1	NaN	2413094.2322384	NaN	2413095.2156818	2413095.73220962
23	20	0	0	90	36.1581920903955	36.241610738255	13	0.433379127904773	2	2	5	NaN	1	4	0.0555282324327609	1	1	NaN	383	7	5	2	121	221	321	NaN	521	0.311794232577085	1	1	NaN	2413143.320447	NaN	2413144.3038107	2413144.82035277
23	20	0	0	90	36.1581920903955	36.241610738255	14	0.466715983897448	2	6	6	NaN	1	3	0.0555282324327609	1	1	NaN	384	7	6	2	121	221	321	NaN	521	0.359984823968261	1	1	NaN	2413146.1206735	NaN	2413147.1040566	2413147.62062428
23	20	0	0	90	36.1581920903955	36.241610738255	9	0.300031703934073	2	6	5	NaN	1	4	0.0555282324327609	1	1	NaN	385	7	7	2	121	221	321	NaN	521	0.204102192539722	1	1	NaN	2413148.8042829	NaN	2413149.7877156	2413150.30421821
23	20	0	0	90	36.1581920903955	36.241610738255	12	0.400042271912098	2	9	5	NaN	2	5	0.0555282324327609	1	1	NaN	386	7	8	2	121	221	321	NaN	521	0.0105721647851169	2	1	NaN	2413151.321197	NaN	2413152.304598	2413152.82112594
23	20	0	0	90	36.1581920903955	36.241610738255	11	0.366705415919423	2	9	2	NaN	2	4	0.0555282324327609	1	1	NaN	387	7	9	2	121	221	321	NaN	521	0.258010176476091	1	0	NaN	2413153.6546283	NaN	2413154.6381796	2413155.15469212
23	20	0	0	90	36.1581920903955	36.241610738255	9	0.300031703934073	2	2	3	NaN	1	4	0.0555282324327609	1	1	NaN	388	7	10	2	121	221	321	NaN	521	0.26652157632634	1	1	NaN	2413156.4216624	NaN	2413157.4050949	2413157.92162762
23	20	0	0	90	36.1581920903955	36.241610738255	16	0.533389695882797	2	9	4	NaN	2	5	0.0555282324327609	1	1	NaN	389	7	11	2	121	221	321	NaN	521	0.199000427965075	2	1	NaN	2413159.5052664	NaN	2413160.4887218	2413161.00527417
23	20	0	0	90	36.1581920903955	36.241610738255	21	0.700073975846171	2	10	3	NaN	2	3	0.0555282324327609	1	1	NaN	390	7	12	2	121	221	321	NaN	521	0.214562372304499	2	1	NaN	2413162.5056021	NaN	2413163.4890144	2413164.00555893
23	20	0	0	90	36.1581920903955	36.241610738255	25	0.833421399816871	2	4	1	NaN	1	4	0.0555282324327609	1	1	NaN	391	7	13	2	121	221	321	NaN	521	0.292314588092268	2	0	NaN	2413165.5559261	NaN	2413166.5393265	2413167.05587191
23	20	0	0	90	36.1581920903955	36.241610738255	7	0.233357991948724	2	7	4	NaN	2	3	0.0555282324327609	1	1	NaN	392	7	14	2	121	221	321	NaN	521	0.0834311442449689	2	1	NaN	2413168.1728394	NaN	2413169.1562465	2413169.67278786
23	20	0	0	90	36.1581920903955	36.241610738255	19	0.633400263860822	2	1	3	NaN	1	4	0.0555282324327609	1	1	NaN	393	7	15	2	121	221	321	NaN	521	0.227164624258876	1	1	NaN	2413170.5729773	NaN	2413171.5565223	2413172.07302348
23	20	0	0	90	36.1581920903955	36.241610738255	16	0.533389695882797	2	5	5	NaN	1	5	0.0555282324327609	1	1	NaN	394	7	16	2	121	221	321	NaN	521	0.263000476174057	1	1	NaN	2413173.6727287	NaN	2413174.6568014	2413175.17332312
23	20	0	0	90	36.1581920903955	36.241610738255	25	0.833421399816871	2	5	4	NaN	1	4	0.0555282324327609	1	1	NaN	395	7	17	2	121	221	321	NaN	521	0.327002088073641	1	1	NaN	2413176.6568983	NaN	2413177.640421	2413178.15696011
23	20	0	0	90	36.1581920903955	36.241610738255	21	0.700073975846171	2	1	6	NaN	1	3	0.0555282324327609	1	1	NaN	396	7	18	2	121	221	321	NaN	521	0.0104812765493989	2	0	NaN	2413179.6072874	NaN	2413180.5907122	2413181.10723482
23	20	0	0	90	36.1581920903955	36.241610738255	19	0.633400263860822	2	2	1	NaN	1	3	0.0555282324327609	1	1	NaN	397	7	19	2	121	221	321	NaN	521	0.139817772898823	1	1	NaN	2413181.9407415	NaN	2413182.9242841	2413183.44079743
23	20	0	0	90	36.1581920903955	36.241610738255	16	0.533389695882797	2	5	3	NaN	1	4	0.0555282324327609	1	1	NaN	398	7	20	2	121	221	321	NaN	521	0.224575027823448	1	1	NaN	2413184.4076758	NaN	2413185.3911616	2413185.90771987
23	20	0	0	90	36.1581920903955	36.241610738255	18	0.600063407868147	2	2	1	NaN	1	4	0.0555282324327609	1	1	NaN	399	7	21	2	121	221	321	NaN	521	0.0103638926520944	1	1	NaN	2413186.958058	NaN	2413187.941407	2413188.45796181
23	20	0	0	90	36.1581920903955	36.241610738255	9	0.300031703934073	2	4	5	NaN	1	4	0.0555282324327609	1	1	NaN	400	7	22	2	121	221	321	NaN	521	0.0528052765876055	1	1	NaN	2413189.2917026	NaN	2413190.2750334	2413190.79152302
23	20	0	0	90	36.1581920903955	36.241610738255	13	0.433379127904773	2	6	4	NaN	1	3	0.0555282324327609	1	1	NaN	401	7	23	2	121	221	321	NaN	521	0.253045883961022	1	1	NaN	2413191.6751574	NaN	2413192.6585725	2413193.17509012
23	20	0	0	90	36.1581920903955	36.241610738255	24	0.800084543824196	2	4	4	NaN	1	5	0.0555282324327609	1	1	NaN	402	7	24	2	121	221	321	NaN	521	0.109487328212708	2	0	NaN	2413194.2585584	NaN	2413195.2421385	2413195.75868747
23	20	0	0	90	36.1581920903955	36.241610738255	23	0.766747687831521	2	2	5	NaN	1	3	0.0555282324327609	1	1	NaN	403	7	25	2	121	221	321	NaN	521	0.193968276493251	1	1	NaN	2413197.1423268	NaN	2413198.1257536	2413198.64228922
23	20	0	0	90	36.1581920903955	36.241610738255	8	0.266694847941399	2	11	6	NaN	2	4	0.0555282324327609	1	1	NaN	404	7	26	2	121	221	321	NaN	521	0.0104778767563403	1	0	NaN	2413199.7425857	NaN	2413200.725993	2413201.24254842
23	20	0	0	90	36.1581920903955	36.241610738255	0	0	1	7	1	NaN	2	5	0.0555282324327609	1	1	NaN	405	7	27	2	111	211	311	NaN	511	0.964205176569521	2	1	NaN	2413202.0761914	NaN	2413203.0596045	2413203.57611122
23	20	0	0	90	36.1581920903955	36.241610738255	25	0.833421399816871	2	5	2	NaN	1	5	0.0555282324327609	1	1	NaN	406	7	28	2	121	221	321	NaN	521	0.184871836099774	1	1	NaN	2413205.3598537	NaN	2413206.3432268	2413206.85977716
23	20	0	0	90	36.1581920903955	36.241610738255	25	0.833421399816871	2	11	3	NaN	2	4	0.0555282324327609	1	1	NaN	407	7	29	2	121	221	321	NaN	521	0.396340784151107	2	1	NaN	2413207.8600148	NaN	2413208.8434667	2413209.36000892
23	20	0	0	90	36.1581920903955	36.241610738255	15	0.500052839890123	2	11	1	NaN	2	4	0.0555282324327609	1	1	NaN	408	7	30	2	121	221	321	NaN	521	0.148217380512506	2	1	NaN	2413211.0602945	NaN	2413212.0437879	2413212.56032792
23	20	0	0	90	36.1581920903955	36.241610738255	11	0.366705415919423	2	12	1	NaN	2	5	0.0555282324327609	1	1	NaN	409	7	31	2	121	221	321	NaN	521	0.01047757640481	2	1	NaN	2413213.5272116	NaN	2413214.5107047	2413215.02723862
23	20	0	0	90	36.1581920903955	36.241610738255	22	0.733410831838846	2	12	6	NaN	2	3	0.0555282324327609	1	1	NaN	410	7	32	2	121	221	321	NaN	521	0.010560124181211	2	1	NaN	2413215.8776499	NaN	2413216.8609225	2413217.37746608
23	20	0	0	90	36.1581920903955	36.241610738255	24	0.800084543824196	2	12	2	NaN	2	5	0.0555282324327609	1	1	NaN	411	7	33	2	121	221	321	NaN	521	1.30128988064826	2	1	NaN	2413218.2109886	NaN	2413219.1945034	2413219.71102812
23	20	0	0	90	36.1581920903955	36.241610738255	6	0.200021135956049	2	12	4	NaN	2	3	0.0555282324327609	1	1	NaN	412	7	34	2	121	221	321	NaN	521	0.010483976919204	1	0	NaN	2413221.8281284	NaN	2413222.811536	2413223.32804752
23	20	0	0	90	36.1581920903955	36.241610738255	23	0.766747687831521	2	9	5	NaN	2	3	0.0555282324327609	1	1	NaN	413	7	35	2	121	221	321	NaN	521	0.310986424330622	2	1	NaN	2413224.1616828	NaN	2413225.1450931	2413225.66162868
23	20	0	0	90	36.1581920903955	36.241610738255	21	0.700073975846171	2	8	5	NaN	2	5	0.0555282324327609	1	1	NaN	414	7	36	2	121	221	321	NaN	521	0.0103717404417694	2	1	NaN	2413226.7953787	NaN	2413227.778691	2413228.29521156
23	20	0	0	90	36.1581920903955	36.241610738255	9	0.300031703934073	2	5	6	NaN	1	4	0.0555282324327609	1	1	NaN	415	7	37	2	121	221	321	NaN	521	0.023274227976799	1	1	NaN	2413229.128787	NaN	2413230.1122452	2413230.62877467
23	20	0	0	90	36.1581920903955	36.241610738255	11	0.366705415919423	2	12	6	NaN	2	3	0.0555282324327609	1	1	NaN	416	7	38	2	121	221	321	NaN	521	0.0893524880520999	2	1	NaN	2413231.4790588	NaN	2413232.4624465	2413232.97899601
23	20	0	0	90	36.1581920903955	36.241610738255	25	0.833421399816871	2	10	3	NaN	2	5	0.0555282324327609	1	1	NaN	417	7	39	2	121	221	321	NaN	521	0.112528524361551	1	0	NaN	2413233.8959649	NaN	2413234.8793302	2413235.39589358
23	20	0	0	90	36.1581920903955	36.241610738255	20	0.666737119853497	2	12	3	NaN	2	4	0.0555282324327609	1	1	NaN	418	7	40	2	121	221	321	NaN	521	0.638979628216475	2	1	NaN	2413236.3295308	NaN	2413237.3129215	2413237.82947907
23	20	0	0	90	36.1581920903955	36.241610738255	15	0.500052839890123	2	9	1	NaN	2	4	0.0555282324327609	1	1	NaN	419	7	41	2	121	221	321	NaN	521	0.0104838763363659	1	0	NaN	2413239.2964726	NaN	2413240.2798775	2413240.79643652
23	20	0	0	90	36.1581920903955	36.241610738255	24	0.800084543824196	2	5	1	NaN	1	5	0.0555282324327609	1	1	NaN	420	7	42	2	121	221	321	NaN	521	0.0423604766838253	1	1	NaN	2413241.6300594	NaN	2413242.6134928	2413243.12999672
23	20	0	0	90	36.1581920903955	36.241610738255	20	0.666737119853497	2	7	2	NaN	2	5	0.0555282324327609	1	1	NaN	421	7	43	2	121	221	321	NaN	521	0.251147876493633	2	1	NaN	2413243.996965	NaN	2413244.980344	2413245.49689842
23	20	0	0	90	36.1581920903955	36.241610738255	11	0.366705415919423	2	5	5	NaN	1	3	0.0555282324327609	1	1	NaN	422	7	44	2	121	221	321	NaN	521	0.516967076808214	1	1	NaN	2413246.5638767	NaN	2413247.5472552	2413248.06381472
23	20	0	0	90	36.1581920903955	36.241610738255	6	0.200021135956049	2	8	6	NaN	2	4	0.0555282324327609	1	1	NaN	423	7	45	2	121	221	321	NaN	521	0.23420397657901	2	1	NaN	2413249.4141506	NaN	2413250.3975545	2413250.91408662
23	20	0	0	90	36.1581920903955	36.241610738255	7	0.233357991948724	2	10	2	NaN	2	5	0.0555282324327609	1	1	NaN	424	7	46	2	121	221	321	NaN	521	0.204125628340989	2	1	NaN	2413251.9642524	NaN	2413252.9478345	2413253.46434807
23	20	0	0	90	36.1581920903955	36.241610738255	19	0.633400263860822	2	2	2	NaN	1	4	0.0555282324327609	1	1	NaN	425	7	47	2	121	221	321	NaN	521	0.162908176425844	1	1	NaN	2413254.7813362	NaN	2413255.7647598	2413256.28130022
23	20	0	0	90	36.1581920903955	36.241610738255	23	0.766747687831521	2	4	6	NaN	1	3	0.0555282324327609	1	1	NaN	426	7	48	2	121	221	321	NaN	521	0.505137440282851	2	0	NaN	2413257.831636	NaN	2413258.815045	2413259.33158966
23	20	0	0	90	36.1581920903955	36.241610738255	14	0.466715983897448	2	7	3	NaN	2	4	0.0555282324327609	1	1	NaN	427	7	49	2	121	221	321	NaN	521	0.0104641281068325	1	0	NaN	2413260.8152471	NaN	2413261.7986758	2413262.31520967
23	20	0	0	90	36.1581920903955	36.241610738255	8	0.266694847941399	2	3	5	NaN	1	4	0.0555282324327609	1	1	NaN	428	7	50	2	121	221	321	NaN	521	0.291442136280239	1	1	NaN	2413263.1487598	NaN	2413264.1322201	2413264.64877566
23	20	0	0	90	36.1581920903955	36.241610738255	20	0.666737119853497	2	10	1	NaN	2	3	0.0555282324327609	1	1	NaN	429	7	51	2	121	221	321	NaN	521	0.115855180192739	2	1	NaN	2413267.3325288	NaN	2413268.3159599	2413268.83253362
23	20	0	0	90	36.1581920903955	36.241610738255	9	0.300031703934073	2	5	4	NaN	1	4	0.0555282324327609	1	1	NaN	430	7	52	2	121	221	321	NaN	521	0.344134576618671	1	1	NaN	2413273.8164078	NaN	2413274.7999252	2413275.31648882
23	20	0	0	90	36.1581920903955	36.241610738255	15	0.500052839890123	2	10	6	NaN	2	3	0.0555282324327609	1	1	NaN	431	7	53	2	121	221	321	NaN	521	0.380987832322717	2	1	NaN	2413276.4834945	NaN	2413277.4669417	2413277.98341697
23	20	0	0	90	36.1581920903955	36.241610738255	9	0.300031703934073	2	7	3	NaN	2	4	0.0555282324327609	1	1	NaN	432	7	54	2	121	221	321	NaN	521	0.27060272404924	2	1	NaN	2413280.2338685	NaN	2413281.2172591	2413281.73377458
23	20	0	0	90	36.1581920903955	36.241610738255	20	0.666737119853497	2	2	4	NaN	1	3	0.0555282324327609	1	1	NaN	433	7	55	2	121	221	321	NaN	521	0.326106324326247	1	1	NaN	2413283.2508351	NaN	2413284.234212	2413284.75073778
23	20	0	0	90	36.1581920903955	36.241610738255	12	0.400042271912098	2	12	4	NaN	2	5	0.0555282324327609	1	1	NaN	434	7	56	2	121	221	321	NaN	521	1.52445147652179	1	0	NaN	2413286.8844791	NaN	2413287.8677612	2413288.38443772
23	20	0	0	90	36.1581920903955	36.241610738255	16	0.533389695882797	2	3	2	NaN	1	4	0.0555282324327609	1	1	NaN	435	7	57	2	121	221	321	NaN	521	0.484770324546844	1	1	NaN	2413291.2516293	NaN	2413292.2349758	2413292.75152028
23	20	0	0	90	36.1581920903955	36.241610738255	18	0.600063407868147	2	2	1	NaN	1	3	0.0555282324327609	1	1	NaN	436	7	58	2	121	221	321	NaN	521	0.469141028355807	1	1	NaN	2413294.0518492	NaN	2413295.0352816	2413295.55180767
23	20	0	0	90	36.1581920903955	36.241610738255	19	0.633400263860822	2	6	2	NaN	1	5	0.0555282324327609	1	1	NaN	437	7	59	2	121	221	321	NaN	521	0.372750344220549	1	1	NaN	2413296.8521394	NaN	2413297.8355762	2413298.35208386
23	20	0	0	90	36.1581920903955	36.241610738255	22	0.733410831838846	2	12	1	NaN	2	3	0.0555282324327609	1	1	NaN	438	7	60	2	121	221	321	NaN	521	0.112161876633763	2	1	NaN	2413299.5524026	NaN	2413300.5358446	2413301.05234132
23	20	0	0	90	36.1581920903955	36.241610738255	7	0.233357991948724	2	10	2	NaN	2	3	0.0555282324327609	1	1	NaN	439	7	61	2	121	221	321	NaN	521	0.182937372941524	2	1	NaN	2413301.9859896	NaN	2413302.9693742	2413303.48590563
23	20	0	0	90	36.1581920903955	36.241610738255	22	0.733410831838846	2	7	6	NaN	2	5	0.0555282324327609	1	1	NaN	440	7	62	2	121	221	321	NaN	521	0.226871080230922	2	1	NaN	2413305.0696192	NaN	2413306.0530097	2413306.56955292
23	20	0	0	90	36.1581920903955	36.241610738255	7	0.233357991948724	2	1	6	NaN	1	4	0.0555282324327609	1	1	NaN	441	7	63	2	121	221	321	NaN	521	0.0104784765280783	1	1	NaN	2413308.2530907	NaN	2413309.2366547	2413309.75320172
23	20	0	0	90	36.1581920903955	36.241610738255	7	0.233357991948724	2	4	6	NaN	1	4	0.0555282324327609	1	1	NaN	442	8	1	2	121	221	321	NaN	521	0.202524476218969	2	0	NaN	2413314.8539417	NaN	2413315.8372049	2413316.35384582
23	20	0	0	90	36.1581920903955	36.241610738255	6	0.200021135956049	2	6	4	NaN	1	4	0.0555282324327609	1	1	NaN	443	8	2	2	121	221	321	NaN	521	0.010391587857157	1	1	NaN	2413317.5208183	NaN	2413318.5042339	2413319.02077021
23	20	0	0	90	36.1581920903955	36.241610738255	15	0.500052839890123	2	12	6	NaN	2	4	0.0555282324327609	1	1	NaN	444	8	3	2	121	221	321	NaN	521	1.19677299261093	2	1	NaN	2413320.3877833	NaN	2413321.3711895	2413321.88772401
23	20	0	0	90	36.1581920903955	36.241610738255	22	0.733410831838846	2	1	5	NaN	1	3	0.0555282324327609	1	1	NaN	445	8	4	2	121	221	321	NaN	521	0.31967783626169	1	1	NaN	2413323.9047894	NaN	2413324.888217	2413325.40473126
23	20	0	0	90	36.1581920903955	36.241610738255	12	0.400042271912098	2	9	3	NaN	2	3	0.0555282324327609	1	1	NaN	446	8	5	2	121	221	321	NaN	521	2.58138624019921	2	1	NaN	2413326.5550627	NaN	2413327.5384904	2413328.05499586
23	20	0	0	90	36.1581920903955	36.241610738255	10	0.333368559926748	2	6	2	NaN	1	5	0.0555282324327609	1	1	NaN	447	8	6	2	121	221	321	NaN	521	0.862050576601177	1	1	NaN	2413331.7389291	NaN	2413332.7222699	2413333.23884072
23	20	0	0	90	36.1581920903955	36.241610738255	25	0.833421399816871	2	8	4	NaN	2	4	0.0555282324327609	1	1	NaN	448	8	7	2	121	221	321	NaN	521	0.3983413442038	2	1	NaN	2413334.9224165	NaN	2413335.905952	2413336.42248716
23	20	0	0	90	36.1581920903955	36.241610738255	13	0.433379127904773	2	11	1	NaN	2	4	0.0555282324327609	1	1	NaN	449	8	8	2	121	221	321	NaN	521	1.09241963224486	2	1	NaN	2413337.9561502	NaN	2413338.939568	2413339.45610967
23	20	0	0	90	36.1581920903955	36.241610738255	7	0.233357991948724	2	2	3	NaN	1	3	0.0555282324327609	1	1	NaN	450	8	9	2	121	221	321	NaN	521	2.50410458398983	2	0	NaN	2413341.6565428	NaN	2413342.6399992	2413343.15647212
23	20	0	0	90	36.1581920903955	36.241610738255	15	0.500052839890123	2	6	4	NaN	1	3	0.0555282324327609	1	1	NaN	451	8	10	2	121	221	321	NaN	521	3.76687637623399	1	1	NaN	2413346.4736936	NaN	2413347.4570695	2413347.97362362
23	20	0	0	90	36.1581920903955	36.241610738255	18	0.600063407868147	2	6	2	NaN	1	3	0.0555282324327609	1	1	NaN	452	8	11	2	121	221	321	NaN	521	3.01890758797526	1	1	NaN	2413352.5574863	NaN	2413353.5410037	2413354.05753951
23	20	0	0	90	36.1581920903955	36.241610738255	6	0.200021135956049	2	1	6	NaN	1	5	0.0555282324327609	1	1	NaN	453	8	12	2	121	221	321	NaN	521	3.70119982399046	1	1	NaN	2413357.8914498	NaN	2413358.8748558	2413359.39138998
23	20	0	0	90	36.1581920903955	36.241610738255	24	0.800084543824196	2	9	3	NaN	2	4	0.0555282324327609	1	1	NaN	454	8	13	2	121	221	321	NaN	521	0.812240192200989	2	1	NaN	2413363.9087343	NaN	2413364.8921404	2413365.40865451
23	20	0	0	90	36.1581920903955	36.241610738255	21	0.700073975846171	2	3	5	NaN	1	4	0.0555282324327609	1	1	NaN	455	8	14	2	121	221	321	NaN	521	0.895223980303854	1	1	NaN	2413367.425582	NaN	2413368.409149	2413368.92566752
23	20	0	0	90	36.1581920903955	36.241610738255	11	0.366705415919423	2	8	2	NaN	2	4	0.0555282324327609	1	1	NaN	456	8	15	2	121	221	321	NaN	521	0.510283428244293	2	1	NaN	2413370.6426042	NaN	2413371.6261014	2413372.14264667
23	20	0	0	90	36.1581920903955	36.241610738255	9	0.300031703934073	2	1	6	NaN	1	5	0.0555282324327609	1	1	NaN	457	8	16	2	121	221	321	NaN	521	0.196094036567956	2	0	NaN	2413373.4763367	NaN	2413374.4597212	2413374.97626786
