subjno	age	gender	isPractice	viewdist	CmToPixX	CmToPixY	SOA_frm	SOA_time	targNum	targID	targExample	targRace	targGender	firstTargPos	contrast	familiarity	curr_staircase	iStair	TrialNum	BlockNum	blktrl	sessionNum	TC_FIXATION	TC_RSVP_START	TC_RSVP_END	TC_BLANK	TC_RESPONSE_ONSET	RT2afc	resp_2afc	acc	RSVPOnsetVBL	RSVPOnsetTime	RSVPOffsetVBL	RSVPOffsetTime	startrt_2afc
109	18	1	0	90	36.1581920903955	36.241610738255	13	0.433359887879342	2	2	1	NaN	1	4	0.0565952662433556	0	1	NaN	1	1	1	1	120	220	320	NaN	520	1.67788742575794	2	0	NaN	3791725.8527179	NaN	3791726.8360469	3791727.36913327
109	18	1	0	90	36.1581920903955	36.241610738255	6	0.200012255944312	2	11	3	NaN	2	5	0.0565952662433556	0	1	NaN	2	1	2	1	120	220	320	NaN	520	6.88340282579884	1	0	NaN	3791729.903094	NaN	3791730.8863873	3791731.41953377
109	18	1	0	90	36.1581920903955	36.241610738255	25	0.833384399767965	2	8	3	NaN	2	4	0.0565952662433556	0	1	NaN	3	1	3	1	120	220	320	NaN	520	4.24342064233497	1	0	NaN	3791739.3038063	NaN	3791740.2872417	3791740.80379426
109	18	1	0	90	36.1581920903955	36.241610738255	23	0.766713647786528	2	5	2	NaN	1	3	0.0565952662433556	0	1	NaN	4	1	4	1	120	220	320	NaN	520	1.88408936839551	2	0	NaN	3791745.8711541	NaN	3791746.8545374	3791747.37110193
109	18	1	0	90	36.1581920903955	36.241610738255	9	0.300018383916467	2	7	6	NaN	2	5	0.0565952662433556	0	1	NaN	5	1	5	1	120	220	320	NaN	520	4.90958312060684	1	0	NaN	3791750.2209484	NaN	3791751.2049706	3791751.72153358
109	18	1	0	90	36.1581920903955	36.241610738255	25	0.833384399767965	2	12	5	NaN	2	4	0.0565952662433556	0	1	NaN	6	1	6	1	120	220	320	NaN	520	4.23560826806352	2	1	NaN	3791757.4556595	NaN	3791758.4390107	3791758.95557033
109	18	1	0	90	36.1581920903955	36.241610738255	0	0	1	7	3	NaN	2	4	0.0565952662433556	0	1	NaN	7	1	7	1	110	210	310	NaN	510	5.03603772073984	2	1	NaN	3791764.0229384	NaN	3791765.0063173	3791765.52289088
109	18	1	0	90	36.1581920903955	36.241610738255	10	0.333353759907186	2	11	2	NaN	2	4	0.0565952662433556	0	1	NaN	8	1	8	1	120	220	320	NaN	520	1.34957086853683	2	1	NaN	3791771.3736976	NaN	3791772.3570453	3791772.87361273
109	18	1	0	90	36.1581920903955	36.241610738255	14	0.46669526387006	2	7	5	NaN	2	5	0.0565952662433556	0	1	NaN	9	1	9	1	120	220	320	NaN	520	17.1862214677967	2	1	NaN	3791775.0407012	NaN	3791776.0240928	3791776.54063613
109	18	1	0	90	36.1581920903955	36.241610738255	23	0.766713647786528	2	9	6	NaN	2	4	0.0565952662433556	0	1	NaN	10	1	10	1	120	220	320	NaN	520	1.60623256815597	2	1	NaN	3791794.6922121	NaN	3791795.6760692	3791796.19256243
109	18	1	0	90	36.1581920903955	36.241610738255	12	0.400024511888623	2	5	4	NaN	1	4	0.0565952662433556	0	1	NaN	11	1	11	1	120	220	320	NaN	520	0.856509168166667	1	1	NaN	3791798.6263434	NaN	3791799.6097367	3791800.12628643
109	18	1	0	90	36.1581920903955	36.241610738255	14	0.46669526387006	2	6	3	NaN	1	5	0.0565952662433556	0	1	NaN	12	1	12	1	120	220	320	NaN	520	0.600994025822729	1	1	NaN	3791801.8099775	NaN	3791802.7933812	3791803.30993877
109	18	1	0	90	36.1581920903955	36.241610738255	8	0.266683007925749	2	7	1	NaN	2	5	0.0565952662433556	0	1	NaN	13	1	13	1	120	220	320	NaN	520	0.635981568135321	2	1	NaN	3791804.7269376	NaN	3791805.7103375	3791806.22689483
109	18	1	0	90	36.1581920903955	36.241610738255	17	0.566701391842216	2	7	6	NaN	2	3	0.0565952662433556	0	1	NaN	14	1	14	1	120	220	320	NaN	520	0.885777668096125	2	1	NaN	3791807.6772337	NaN	3791808.6606347	3791809.17717923
109	18	1	0	90	36.1581920903955	36.241610738255	22	0.733378271795809	2	4	3	NaN	1	5	0.0565952662433556	0	1	NaN	15	1	15	1	120	220	320	NaN	520	0.573525520507246	1	1	NaN	3791810.8774704	NaN	3791811.8609407	3791812.37748808
109	18	1	0	90	36.1581920903955	36.241610738255	12	0.400024511888623	2	12	1	NaN	2	5	0.0565952662433556	0	1	NaN	16	1	16	1	120	220	320	NaN	520	1.59323126776144	1	0	NaN	3791813.7778234	NaN	3791814.7612115	3791815.27777393
109	18	1	0	90	36.1581920903955	36.241610738255	14	0.46669526387006	2	10	5	NaN	2	5	0.0565952662433556	0	1	NaN	17	1	17	1	120	220	320	NaN	520	0.493110168259591	1	0	NaN	3791817.6782233	NaN	3791818.6615981	3791819.17816153
109	18	1	0	90	36.1581920903955	36.241610738255	20	0.666707519814372	2	5	4	NaN	1	4	0.0565952662433556	0	1	NaN	18	1	18	1	120	220	320	NaN	520	1.42025366798043	2	0	NaN	3791820.495027	NaN	3791821.4785969	3791821.99510673
109	18	1	0	90	36.1581920903955	36.241610738255	19	0.633372143823653	2	4	4	NaN	1	5	0.0565952662433556	0	1	NaN	19	1	19	1	120	220	320	NaN	520	0.755230268463492	1	1	NaN	3791824.6954612	NaN	3791825.6789775	3791826.19552003
109	18	1	0	90	36.1581920903955	36.241610738255	9	0.300018383916467	2	4	1	NaN	1	4	0.0565952662433556	0	1	NaN	20	1	20	1	120	220	320	NaN	520	0.599427968263626	1	1	NaN	3791827.9959358	NaN	3791828.979301	3791829.49584243
109	18	1	0	90	36.1581920903955	36.241610738255	14	0.46669526387006	2	1	6	NaN	1	3	0.0565952662433556	0	1	NaN	21	1	21	1	120	220	320	NaN	520	1.53994682058692	1	1	NaN	3791831.0629812	NaN	3791832.0462584	3791832.56281628
109	18	1	0	90	36.1581920903955	36.241610738255	23	0.766713647786528	2	3	6	NaN	1	5	0.0565952662433556	0	1	NaN	22	1	22	1	120	220	320	NaN	520	4.12207136815414	1	1	NaN	3791834.9132167	NaN	3791835.8966261	3791836.41318493
109	18	1	0	90	36.1581920903955	36.241610738255	11	0.366689135897905	2	12	4	NaN	2	3	0.0565952662433556	0	1	NaN	23	1	23	1	120	220	320	NaN	520	0.80691396817565	2	1	NaN	3791841.3638715	NaN	3791842.3472714	3791842.86382873
109	18	1	0	90	36.1581920903955	36.241610738255	12	0.400024511888623	2	3	3	NaN	1	4	0.0565952662433556	0	1	NaN	24	1	24	1	120	220	320	NaN	520	2.28151312097907	1	1	NaN	3791844.4975322	NaN	3791845.4809478	3791845.99746538
109	18	1	0	90	36.1581920903955	36.241610738255	17	0.566701391842216	2	12	3	NaN	2	3	0.0565952662433556	0	1	NaN	25	1	25	1	120	220	320	NaN	520	1.37722041551024	2	1	NaN	3791849.0980599	NaN	3791850.081367	3791850.59791428
109	18	1	0	90	36.1581920903955	36.241610738255	13	0.433359887879342	2	6	6	NaN	1	5	0.0565952662433556	0	1	NaN	26	1	26	1	120	220	320	NaN	520	0.429021942429245	1	1	NaN	3791852.7983573	NaN	3791853.7817252	3791854.29829336
109	18	1	0	90	36.1581920903955	36.241610738255	22	0.733378271795809	2	5	2	NaN	1	5	0.0565952662433556	0	1	NaN	27	1	27	1	120	220	320	NaN	520	0.238364842254668	1	1	NaN	3791855.5486263	NaN	3791856.5320071	3791857.04856446
109	18	1	0	90	36.1581920903955	36.241610738255	19	0.633372143823653	2	5	1	NaN	1	5	0.0565952662433556	0	1	NaN	28	1	28	1	120	220	320	NaN	520	0.824295768048614	1	1	NaN	3791858.0988601	NaN	3791859.0822543	3791859.59880373
109	18	1	0	90	36.1581920903955	36.241610738255	14	0.46669526387006	2	4	3	NaN	1	3	0.0565952662433556	0	1	NaN	29	1	29	1	120	220	320	NaN	520	0.426306221168488	1	1	NaN	3791861.2491571	NaN	3791862.2325436	3791862.74911538
109	18	1	0	90	36.1581920903955	36.241610738255	16	0.533366015851498	2	5	3	NaN	1	3	0.0565952662433556	0	1	NaN	30	1	30	1	120	220	320	NaN	520	0.541499268263578	2	0	NaN	3791864.3494223	NaN	3791865.3328874	3791865.84941163
109	18	1	0	90	36.1581920903955	36.241610738255	25	0.833384399767965	2	7	5	NaN	2	3	0.0565952662433556	0	1	NaN	31	1	31	1	120	220	320	NaN	520	0.547029868233949	2	1	NaN	3791867.2163752	NaN	3791868.1998235	3791868.71635943
109	18	1	0	90	36.1581920903955	36.241610738255	17	0.566701391842216	2	9	3	NaN	2	4	0.0565952662433556	0	1	NaN	32	1	32	1	120	220	320	NaN	520	0.415662668179721	2	1	NaN	3791870.0833179	NaN	3791871.0668111	3791871.58331203
109	18	1	0	90	36.1581920903955	36.241610738255	11	0.366689135897905	2	8	1	NaN	2	5	0.0565952662433556	0	1	NaN	33	1	33	1	120	220	320	NaN	520	4.25838486803696	1	0	NaN	3791872.8169762	NaN	3791873.8003724	3791874.31691783
109	18	1	0	90	36.1581920903955	36.241610738255	6	0.200012255944312	2	7	3	NaN	2	3	0.0565952662433556	0	1	NaN	34	1	34	1	120	220	320	NaN	520	0.690093768294901	2	1	NaN	3791879.4009712	NaN	3791880.3843444	3791880.90089083
109	18	1	0	90	36.1581920903955	36.241610738255	8	0.266683007925749	2	10	3	NaN	2	5	0.0565952662433556	0	1	NaN	35	1	35	1	120	220	320	NaN	520	0.489475473295897	2	1	NaN	3791882.4178946	NaN	3791883.4013547	3791883.91786403
109	18	1	0	90	36.1581920903955	36.241610738255	16	0.533366015851498	2	8	5	NaN	2	5	0.0565952662433556	0	1	NaN	36	1	36	1	120	220	320	NaN	520	0.672070215456188	1	0	NaN	3791885.2348774	NaN	3791886.2182447	3791886.73480088
109	18	1	0	90	36.1581920903955	36.241610738255	25	0.833384399767965	2	11	4	NaN	2	3	0.0565952662433556	0	1	NaN	37	1	37	1	120	220	320	NaN	520	0.576530615799129	2	1	NaN	3791888.2184818	NaN	3791889.2018835	3791889.71842828
109	18	1	0	90	36.1581920903955	36.241610738255	13	0.433359887879342	2	12	4	NaN	2	4	0.0565952662433556	0	1	NaN	38	1	38	1	120	220	320	NaN	520	0.989323615562171	2	1	NaN	3791891.1021132	NaN	3791892.0854976	3791892.60204158
109	18	1	0	90	36.1581920903955	36.241610738255	0	0	1	11	3	NaN	2	3	0.0565952662433556	0	1	NaN	39	1	39	1	110	210	310	NaN	510	0.78511552605778	2	1	NaN	3791894.4024319	NaN	3791895.3858099	3791895.90238137
109	18	1	0	90	36.1581920903955	36.241610738255	21	0.700042895805091	2	12	4	NaN	2	3	0.0565952662433556	0	1	NaN	40	1	40	1	120	220	320	NaN	520	4.55625606840476	2	1	NaN	3791897.5027451	NaN	3791898.4861034	3791899.00268093
109	18	1	0	90	36.1581920903955	36.241610738255	25	0.833384399767965	2	10	4	NaN	2	5	0.0565952662433556	0	1	NaN	41	1	41	1	120	220	320	NaN	520	2.12084096809849	2	1	NaN	3791904.3699363	NaN	3791905.3534605	3791905.87002503
109	18	1	0	90	36.1581920903955	36.241610738255	17	0.566701391842216	2	3	2	NaN	1	4	0.0565952662433556	0	1	NaN	42	1	42	1	120	220	320	NaN	520	1.27166922064498	1	1	NaN	3791908.8038348	NaN	3791909.7872746	3791910.30379618
109	18	1	0	90	36.1581920903955	36.241610738255	12	0.400024511888623	2	3	1	NaN	1	5	0.0565952662433556	0	1	NaN	43	1	43	1	120	220	320	NaN	520	0.415541894733906	1	1	NaN	3791912.3875273	NaN	3791913.3709109	3791913.88748131
109	18	1	0	90	36.1581920903955	36.241610738255	7	0.23334763193503	2	4	2	NaN	1	4	0.0565952662433556	0	1	NaN	44	1	44	1	120	220	320	NaN	520	0.514068568125367	1	1	NaN	3791915.1211185	NaN	3791916.1044964	3791916.62107103
109	18	1	0	90	36.1581920903955	36.241610738255	11	0.366689135897905	2	5	1	NaN	1	3	0.0565952662433556	0	1	NaN	45	1	45	1	120	220	320	NaN	520	0.609389168210328	1	1	NaN	3791917.9380737	NaN	3791918.9214667	3791919.43801403
109	18	1	0	90	36.1581920903955	36.241610738255	19	0.633372143823653	2	2	6	NaN	1	4	0.0565952662433556	0	1	NaN	46	1	46	1	120	220	320	NaN	520	0.492039662785828	1	1	NaN	3791920.8550483	NaN	3791921.838419	3791922.35497094
109	18	1	0	90	36.1581920903955	36.241610738255	16	0.533366015851498	2	5	5	NaN	1	4	0.0565952662433556	0	1	NaN	47	1	47	1	120	220	320	NaN	520	0.763936415780336	1	1	NaN	3791923.6553292	NaN	3791924.6387	3791925.15524828
109	18	1	0	90	36.1581920903955	36.241610738255	21	0.700042895805091	2	11	3	NaN	2	5	0.0565952662433556	0	1	NaN	48	1	48	1	120	220	320	NaN	520	0.560113368090242	2	1	NaN	3791926.7388681	NaN	3791927.7223781	3791928.23888833
109	18	1	0	90	36.1581920903955	36.241610738255	11	0.366689135897905	2	9	4	NaN	2	5	0.0565952662433556	0	1	NaN	49	1	49	1	120	220	320	NaN	520	0.461272068321705	2	1	NaN	3791930.0058908	NaN	3791930.9893072	3791931.50587363
109	18	1	0	90	36.1581920903955	36.241610738255	8	0.266683007925749	2	8	6	NaN	2	5	0.0565952662433556	0	1	NaN	50	1	50	1	120	220	320	NaN	520	2.35851516807452	2	1	NaN	3791932.7727367	NaN	3791933.7562572	3791934.27281493
109	18	1	0	90	36.1581920903955	36.241610738255	23	0.766713647786528	2	5	3	NaN	1	5	0.0565952662433556	0	1	NaN	51	1	51	1	120	220	320	NaN	520	0.587226315401495	1	1	NaN	3791937.4399908	NaN	3791938.4233897	3791938.93992868
109	18	1	0	90	36.1581920903955	36.241610738255	9	0.300018383916467	2	6	3	NaN	1	3	0.0565952662433556	0	1	NaN	52	1	52	1	120	220	320	NaN	520	1.27866476820782	1	1	NaN	3791940.3402939	NaN	3791941.3236675	3791941.84022433
109	18	1	0	90	36.1581920903955	36.241610738255	15	0.500030639860779	2	5	2	NaN	1	5	0.0565952662433556	0	1	NaN	53	1	53	1	120	220	320	NaN	520	1.08717242069542	1	1	NaN	3791943.9239582	NaN	3791944.9073276	3791945.42390708
109	18	1	0	90	36.1581920903955	36.241610738255	20	0.666707519814372	2	12	6	NaN	2	3	0.0565952662433556	0	1	NaN	54	1	54	1	120	220	320	NaN	520	0.751227268017828	2	1	NaN	3791947.3242949	NaN	3791948.3076901	3791948.82423793
109	18	1	0	90	36.1581920903955	36.241610738255	18	0.600036767832935	2	8	2	NaN	2	4	0.0565952662433556	0	1	NaN	55	1	55	1	120	220	320	NaN	520	0.956294320523739	2	1	NaN	3791950.3912588	NaN	3791951.3746588	3791951.89120508
109	18	1	0	90	36.1581920903955	36.241610738255	14	0.46669526387006	2	1	1	NaN	1	4	0.0565952662433556	0	1	NaN	56	1	56	1	120	220	320	NaN	520	0.833323168102652	1	1	NaN	3791953.65827	NaN	3791954.6416354	3791955.15819543
109	18	1	0	90	36.1581920903955	36.241610738255	7	0.23334763193503	2	7	4	NaN	2	3	0.0565952662433556	0	1	NaN	57	1	57	1	120	220	320	NaN	520	4.71477626776323	1	0	NaN	3791956.8085652	NaN	3791957.7919455	3791958.30851163
109	18	1	0	90	36.1581920903955	36.241610738255	21	0.700042895805091	2	1	5	NaN	1	5	0.0565952662433556	0	1	NaN	58	1	58	1	120	220	320	NaN	520	1.97671916801482	1	1	NaN	3791963.8425883	NaN	3791964.8259683	3791965.34252823
109	18	1	0	90	36.1581920903955	36.241610738255	11	0.366689135897905	2	6	5	NaN	1	3	0.0565952662433556	0	1	NaN	59	1	59	1	120	220	320	NaN	520	1.03673419449478	1	1	NaN	3791968.1263621	NaN	3791969.1097538	3791969.62629851
109	18	1	0	90	36.1581920903955	36.241610738255	20	0.666707519814372	2	1	6	NaN	1	3	0.0565952662433556	0	1	NaN	60	1	60	1	120	220	320	NaN	520	5.96644672099501	1	1	NaN	3791971.4765451	NaN	3791972.4600704	3791972.97662258
109	18	1	0	90	36.1581920903955	36.241610738255	10	0.333353759907186	2	2	3	NaN	1	5	0.0565952662433556	0	1	NaN	61	1	61	1	120	220	320	NaN	520	2.42640376836061	2	0	NaN	3791979.7608807	NaN	3791980.7442471	3791981.26076923
109	18	1	0	90	36.1581920903955	36.241610738255	14	0.46669526387006	2	6	6	NaN	1	5	0.0565952662433556	0	1	NaN	62	1	62	1	120	220	320	NaN	520	1.12490806821734	1	1	NaN	3791984.4946064	NaN	3791985.477985	3791985.99455933
109	18	1	0	90	36.1581920903955	36.241610738255	12	0.400024511888623	2	9	3	NaN	2	4	0.0565952662433556	0	1	NaN	63	1	63	1	120	220	320	NaN	520	0.635027668438852	2	1	NaN	3791987.9282857	NaN	3791988.9116668	3791989.42823473
109	18	1	0	90	36.1581920903955	36.241610738255	10	0.333353759907186	2	6	6	NaN	1	5	0.0565952662433556	0	1	NaN	64	2	1	1	120	220	320	NaN	520	0.823479994665831	1	1	NaN	3792017.3478436	NaN	3792018.3312235	3792018.84780511
109	18	1	0	90	36.1581920903955	36.241610738255	13	0.433359887879342	2	10	6	NaN	2	5	0.0565952662433556	0	1	NaN	65	2	2	1	120	220	320	NaN	520	0.761695262975991	1	0	NaN	3792020.4815028	NaN	3792021.4648885	3792021.98142934
109	18	1	0	90	36.1581920903955	36.241610738255	0	0	1	11	3	NaN	2	3	0.0565952662433556	0	1	NaN	66	2	3	1	110	210	310	NaN	510	0.624172868207097	2	1	NaN	3792023.9151713	NaN	3792024.8985521	3792025.41511153
109	18	1	0	90	36.1581920903955	36.241610738255	0	0	1	2	3	NaN	1	5	0.0565952662433556	0	1	NaN	67	2	4	1	110	210	310	NaN	510	0.602478368207812	1	1	NaN	3792026.8488683	NaN	3792027.8321675	3792028.34871983
109	18	1	0	90	36.1581920903955	36.241610738255	25	0.833384399767965	2	12	5	NaN	2	5	0.0565952662433556	0	1	NaN	68	2	5	1	120	220	320	NaN	520	0.9814572208561	1	0	NaN	3792029.7657328	NaN	3792030.749136	3792031.26567928
109	18	1	0	90	36.1581920903955	36.241610738255	24	0.800049023777247	2	4	2	NaN	1	4	0.0565952662433556	0	1	NaN	69	2	6	1	120	220	320	NaN	520	0.713259320706129	1	1	NaN	3792033.0660022	NaN	3792034.0494536	3792034.56601178
109	18	1	0	90	36.1581920903955	36.241610738255	24	0.800049023777247	2	2	1	NaN	1	3	0.0565952662433556	0	1	NaN	70	2	7	1	120	220	320	NaN	520	0.535926068201661	1	1	NaN	3792036.0996941	NaN	3792037.083072	3792037.59963603
109	18	1	0	90	36.1581920903955	36.241610738255	13	0.433359887879342	2	3	2	NaN	1	4	0.0565952662433556	0	1	NaN	71	2	8	1	120	220	320	NaN	520	0.693620068021119	1	1	NaN	3792038.9499687	NaN	3792039.9333634	3792040.44991053
109	18	1	0	90	36.1581920903955	36.241610738255	25	0.833384399767965	2	1	1	NaN	1	3	0.0565952662433556	0	1	NaN	72	2	9	1	120	220	320	NaN	520	1.70122176781297	1	1	NaN	3792041.9501209	NaN	3792042.9336468	3792043.45021673
109	18	1	0	90	36.1581920903955	36.241610738255	11	0.366689135897905	2	1	2	NaN	1	4	0.0565952662433556	0	1	NaN	73	2	10	1	120	220	320	NaN	520	0.93186421552673	1	1	NaN	3792045.9673331	NaN	3792046.9507109	3792047.46727548
109	18	1	0	90	36.1581920903955	36.241610738255	17	0.566701391842216	2	1	4	NaN	1	4	0.0565952662433556	0	1	NaN	74	2	11	1	120	220	320	NaN	520	1.0415720208548	1	1	NaN	3792049.2176552	NaN	3792050.2010295	3792050.71759898
109	18	1	0	90	36.1581920903955	36.241610738255	24	0.800049023777247	2	9	1	NaN	2	5	0.0565952662433556	0	1	NaN	75	2	12	1	120	220	320	NaN	520	0.659292420838028	2	1	NaN	3792052.5679795	NaN	3792053.5514306	3792054.06791558
109	18	1	0	90	36.1581920903955	36.241610738255	23	0.766713647786528	2	8	5	NaN	2	5	0.0565952662433556	0	1	NaN	76	2	13	1	120	220	320	NaN	520	0.596403836738318	2	1	NaN	3792055.5349239	NaN	3792056.5183335	3792057.03488336
109	18	1	0	90	36.1581920903955	36.241610738255	11	0.366689135897905	2	5	1	NaN	1	5	0.0565952662433556	0	1	NaN	77	2	14	1	120	220	320	NaN	520	0.83929381519556	1	1	NaN	3792058.4518878	NaN	3792059.435274	3792059.95183338
109	18	1	0	90	36.1581920903955	36.241610738255	12	0.400024511888623	2	12	6	NaN	2	5	0.0565952662433556	0	1	NaN	78	2	15	1	120	220	320	NaN	520	1.84925816813484	1	0	NaN	3792061.6020832	NaN	3792062.585587	3792063.10214243
109	18	1	0	90	36.1581920903955	36.241610738255	22	0.733378271795809	2	9	4	NaN	2	5	0.0565952662433556	0	1	NaN	79	2	16	1	120	220	320	NaN	520	0.649941368028522	2	1	NaN	3792065.7692733	NaN	3792066.7526715	3792067.26921943
109	18	1	0	90	36.1581920903955	36.241610738255	0	0	1	3	5	NaN	1	3	0.0565952662433556	0	1	NaN	80	2	17	1	110	210	310	NaN	510	0.619473668280989	1	1	NaN	3792068.7362284	NaN	3792069.7196161	3792070.23617863
109	18	1	0	90	36.1581920903955	36.241610738255	18	0.600036767832935	2	6	2	NaN	1	4	0.0565952662433556	0	1	NaN	81	2	18	1	120	220	320	NaN	520	0.663034668192267	1	1	NaN	3792072.0365294	NaN	3792073.0199387	3792073.53649523
109	18	1	0	90	36.1581920903955	36.241610738255	12	0.400024511888623	2	7	1	NaN	2	3	0.0565952662433556	0	1	NaN	82	2	19	1	120	220	320	NaN	520	2.08748732088134	1	0	NaN	3792075.020185	NaN	3792076.0036259	3792076.52013278
109	18	1	0	90	36.1581920903955	36.241610738255	25	0.833384399767965	2	3	5	NaN	1	5	0.0565952662433556	0	1	NaN	83	2	20	1	120	220	320	NaN	520	1.2468196679838	1	1	NaN	3792079.420646	NaN	3792080.4040518	3792080.92055713
109	18	1	0	90	36.1581920903955	36.241610738255	7	0.23334763193503	2	12	3	NaN	2	5	0.0565952662433556	0	1	NaN	84	2	21	1	120	220	320	NaN	520	0.695619715377688	2	1	NaN	3792082.9876334	NaN	3792083.9710392	3792084.48757688
109	18	1	0	90	36.1581920903955	36.241610738255	13	0.433359887879342	2	9	4	NaN	2	5	0.0565952662433556	0	1	NaN	85	2	22	1	120	220	320	NaN	520	0.903293421026319	2	1	NaN	3792085.9878857	NaN	3792086.9713055	3792087.48788048
109	18	1	0	90	36.1581920903955	36.241610738255	15	0.500030639860779	2	2	3	NaN	1	3	0.0565952662433556	0	1	NaN	86	2	23	1	120	220	320	NaN	520	2.04674526769668	2	0	NaN	3792089.2048789	NaN	3792090.1883067	3792090.70486283
109	18	1	0	90	36.1581920903955	36.241610738255	9	0.300018383916467	2	1	3	NaN	1	4	0.0565952662433556	0	1	NaN	87	2	24	1	120	220	320	NaN	520	5.5753286681138	1	1	NaN	3792093.5720049	NaN	3792094.5553997	3792095.07195933
109	18	1	0	90	36.1581920903955	36.241610738255	7	0.23334763193503	2	10	5	NaN	2	5	0.0565952662433556	0	1	NaN	88	2	25	1	120	220	320	NaN	520	2.36363472091034	1	0	NaN	3792101.4561046	NaN	3792102.4395035	3792102.95606618
109	18	1	0	90	36.1581920903955	36.241610738255	10	0.333353759907186	2	8	2	NaN	2	5	0.0565952662433556	0	1	NaN	89	2	26	1	120	220	320	NaN	520	1.42413816833869	2	1	NaN	3792106.1232764	NaN	3792107.1066363	3792107.62317993
109	18	1	0	90	36.1581920903955	36.241610738255	18	0.600036767832935	2	1	4	NaN	1	3	0.0565952662433556	0	1	NaN	90	2	27	1	120	220	320	NaN	520	3.32233043108135	2	0	NaN	3792109.8568629	NaN	3792110.8403327	3792111.35689407
109	18	1	0	90	36.1581920903955	36.241610738255	23	0.766713647786528	2	1	5	NaN	1	4	0.0565952662433556	0	1	NaN	91	2	28	1	120	220	320	NaN	520	4.35260885255411	2	0	NaN	3792115.4908231	NaN	3792116.4742179	3792116.99077095
109	18	1	0	90	36.1581920903955	36.241610738255	23	0.766713647786528	2	6	2	NaN	1	3	0.0565952662433556	0	1	NaN	92	2	29	1	120	220	320	NaN	520	0.909163515549153	1	1	NaN	3792122.1581796	NaN	3792123.1415434	3792123.65809498
109	18	1	0	90	36.1581920903955	36.241610738255	19	0.633372143823653	2	11	2	NaN	2	5	0.0565952662433556	0	1	NaN	93	2	30	1	120	220	320	NaN	520	2.73214776813984	2	1	NaN	3792125.3751327	NaN	3792126.358518	3792126.87507253
109	18	1	0	90	36.1581920903955	36.241610738255	12	0.400024511888623	2	2	2	NaN	1	4	0.0565952662433556	0	1	NaN	94	2	31	1	120	220	320	NaN	520	0.786531668156385	1	1	NaN	3792130.4089353	NaN	3792131.3923525	3792131.90890063
109	18	1	0	90	36.1581920903955	36.241610738255	7	0.23334763193503	2	11	6	NaN	2	3	0.0565952662433556	0	1	NaN	95	2	32	1	120	220	320	NaN	520	1.89421616820619	1	0	NaN	3792133.5093104	NaN	3792134.4926475	3792135.00920503
109	18	1	0	90	36.1581920903955	36.241610738255	0	0	1	2	1	NaN	1	3	0.0565952662433556	0	1	NaN	96	2	33	1	110	210	310	NaN	510	1.97386256791651	2	0	NaN	3792137.7096498	NaN	3792138.6930762	3792139.20963233
109	18	1	0	90	36.1581920903955	36.241610738255	25	0.833384399767965	2	5	4	NaN	1	5	0.0565952662433556	0	1	NaN	97	2	34	1	120	220	320	NaN	520	2.20994096808136	1	1	NaN	3792141.9934254	NaN	3792142.9768521	3792143.49337553
109	18	1	0	90	36.1581920903955	36.241610738255	18	0.600036767832935	2	9	6	NaN	2	3	0.0565952662433556	0	1	NaN	98	2	35	1	120	220	320	NaN	520	1.35686016827822	2	1	NaN	3792146.5104931	NaN	3792147.4939247	3792148.01048803
109	18	1	0	90	36.1581920903955	36.241610738255	13	0.433359887879342	2	2	6	NaN	1	4	0.0565952662433556	0	1	NaN	99	2	36	1	120	220	320	NaN	520	0.834389368072152	2	0	NaN	3792150.5608212	NaN	3792151.5443738	3792152.06088793
109	18	1	0	90	36.1581920903955	36.241610738255	15	0.500030639860779	2	11	4	NaN	2	3	0.0565952662433556	0	1	NaN	100	2	37	1	120	220	320	NaN	520	0.644244415219873	2	1	NaN	3792153.7112553	NaN	3792154.694716	3792155.21119218
109	18	1	0	90	36.1581920903955	36.241610738255	18	0.600036767832935	2	6	5	NaN	1	5	0.0565952662433556	0	1	NaN	101	2	38	1	120	220	320	NaN	520	1.34955492103472	2	0	NaN	3792156.6782084	NaN	3792157.6616016	3792158.17816228
109	18	1	0	90	36.1581920903955	36.241610738255	17	0.566701391842216	2	6	2	NaN	1	4	0.0565952662433556	0	1	NaN	102	2	39	1	120	220	320	NaN	520	0.594175220932811	1	1	NaN	3792160.3452542	NaN	3792161.3286414	3792161.84518618
109	18	1	0	90	36.1581920903955	36.241610738255	9	0.300018383916467	2	11	5	NaN	2	4	0.0565952662433556	0	1	NaN	103	2	40	1	120	220	320	NaN	520	3.30195956816897	1	0	NaN	3792163.2455395	NaN	3792164.2289228	3792164.74547463
109	18	1	0	90	36.1581920903955	36.241610738255	25	0.833384399767965	2	3	5	NaN	1	3	0.0565952662433556	0	1	NaN	104	2	41	1	120	220	320	NaN	520	0.932781021110713	1	1	NaN	3792168.8627583	NaN	3792169.8461392	3792170.36269448
109	18	1	0	90	36.1581920903955	36.241610738255	9	0.300018383916467	2	11	5	NaN	2	4	0.0565952662433556	0	1	NaN	105	2	42	1	120	220	320	NaN	520	3.05841028457507	1	0	NaN	3792172.1130385	NaN	3792173.0963763	3792173.61301422
109	18	1	0	90	36.1581920903955	36.241610738255	15	0.500030639860779	2	11	4	NaN	2	5	0.0565952662433556	0	1	NaN	106	2	43	1	120	220	320	NaN	520	2.86732852039859	2	1	NaN	3792177.4802806	NaN	3792178.4636403	3792178.98019908
109	18	1	0	90	36.1581920903955	36.241610738255	16	0.533366015851498	2	11	2	NaN	2	5	0.0565952662433556	0	1	NaN	107	2	44	1	120	220	320	NaN	520	0.707440873142332	2	1	NaN	3792182.66411	NaN	3792183.6474846	3792184.16405203
109	18	1	0	90	36.1581920903955	36.241610738255	6	0.200012255944312	2	8	1	NaN	2	4	0.0565952662433556	0	1	NaN	108	2	45	1	120	220	320	NaN	520	0.450408715289086	2	1	NaN	3792185.6809535	NaN	3792186.6644345	3792187.18100558
109	18	1	0	90	36.1581920903955	36.241610738255	12	0.400024511888623	2	8	1	NaN	2	5	0.0565952662433556	0	1	NaN	109	2	46	1	120	220	320	NaN	520	0.843722268007696	2	1	NaN	3792188.4479909	NaN	3792189.4313849	3792189.94794263
109	18	1	0	90	36.1581920903955	36.241610738255	20	0.666707519814372	2	10	5	NaN	2	5	0.0565952662433556	0	1	NaN	110	2	47	1	120	220	320	NaN	520	0.421495868358761	1	0	NaN	3792191.5983101	NaN	3792192.5817147	3792193.09825303
109	18	1	0	90	36.1581920903955	36.241610738255	17	0.566701391842216	2	4	3	NaN	1	4	0.0565952662433556	0	1	NaN	111	2	48	1	120	220	320	NaN	520	0.511543267872185	1	1	NaN	3792194.3319244	NaN	3792195.3153108	3792195.83185683
109	18	1	0	90	36.1581920903955	36.241610738255	8	0.266683007925749	2	3	5	NaN	1	4	0.0565952662433556	0	1	NaN	112	2	49	1	120	220	320	NaN	520	0.414055431261659	1	1	NaN	3792197.1655161	NaN	3792198.148924	3792198.66546987
109	18	1	0	90	36.1581920903955	36.241610738255	21	0.700042895805091	2	2	2	NaN	1	4	0.0565952662433556	0	1	NaN	113	2	50	1	120	220	320	NaN	520	0.440304268151522	1	1	NaN	3792199.8991271	NaN	3792200.8825461	3792201.39906713
109	18	1	0	90	36.1581920903955	36.241610738255	7	0.23334763193503	2	7	6	NaN	2	4	0.0565952662433556	0	1	NaN	114	2	51	1	120	220	320	NaN	520	0.666007989551872	2	1	NaN	3792202.6494021	NaN	3792203.6328396	3792204.14934261
109	18	1	0	90	36.1581920903955	36.241610738255	12	0.400024511888623	2	10	5	NaN	2	3	0.0565952662433556	0	1	NaN	115	2	52	1	120	220	320	NaN	520	0.610525215510279	1	0	NaN	3792205.633054	NaN	3792206.6164092	3792207.13297228
109	18	1	0	90	36.1581920903955	36.241610738255	25	0.833384399767965	2	6	2	NaN	1	4	0.0565952662433556	0	1	NaN	116	2	53	1	120	220	320	NaN	520	0.58949586795643	1	1	NaN	3792208.5499768	NaN	3792209.5333786	3792210.04992103
109	18	1	0	90	36.1581920903955	36.241610738255	23	0.766713647786528	2	4	4	NaN	1	3	0.0565952662433556	0	1	NaN	117	2	54	1	120	220	320	NaN	520	2.38524253107607	1	1	NaN	3792211.4502808	NaN	3792212.4336462	3792212.95021567
109	18	1	0	90	36.1581920903955	36.241610738255	8	0.266683007925749	2	10	1	NaN	2	5	0.0565952662433556	0	1	NaN	118	2	55	1	120	220	320	NaN	520	0.453155267983675	1	0	NaN	3792216.1505648	NaN	3792217.1341149	3792217.65066283
109	18	1	0	90	36.1581920903955	36.241610738255	10	0.333353759907186	2	6	4	NaN	1	5	0.0565952662433556	0	1	NaN	119	2	56	1	120	220	320	NaN	520	0.542003473266959	1	1	NaN	3792218.9176506	NaN	3792219.9010532	3792220.41761233
109	18	1	0	90	36.1581920903955	36.241610738255	20	0.666707519814372	2	9	5	NaN	2	5	0.0565952662433556	0	1	NaN	120	2	57	1	120	220	320	NaN	520	0.523687568027526	2	1	NaN	3792221.7679407	NaN	3792222.7513271	3792223.26788923
109	18	1	0	90	36.1581920903955	36.241610738255	6	0.200012255944312	2	10	6	NaN	2	5	0.0565952662433556	0	1	NaN	121	2	58	1	120	220	320	NaN	520	0.465979468077421	2	1	NaN	3792224.6015681	NaN	3792225.5849804	3792226.10149283
109	18	1	0	90	36.1581920903955	36.241610738255	9	0.300018383916467	2	10	1	NaN	2	5	0.0565952662433556	0	1	NaN	122	2	59	1	120	220	320	NaN	520	0.346341867931187	2	1	NaN	3792227.3851735	NaN	3792228.3685808	3792228.88510493
109	18	1	0	90	36.1581920903955	36.241610738255	23	0.766713647786528	2	3	3	NaN	1	5	0.0565952662433556	0	1	NaN	123	2	60	1	120	220	320	NaN	520	0.343522315379232	1	1	NaN	3792230.0521054	NaN	3792231.0354742	3792231.55203608
109	18	1	0	90	36.1581920903955	36.241610738255	20	0.666707519814372	2	8	4	NaN	2	4	0.0565952662433556	0	1	NaN	124	2	61	1	120	220	320	NaN	520	0.42961027380079	2	1	NaN	3792232.7023406	NaN	3792233.685757	3792234.20229993
109	18	1	0	90	36.1581920903955	36.241610738255	19	0.633372143823653	2	2	4	NaN	1	3	0.0565952662433556	0	1	NaN	125	2	62	1	120	220	320	NaN	520	1.67936486797407	2	0	NaN	3792235.452642	NaN	3792236.4359873	3792236.95256363
109	18	1	0	90	36.1581920903955	36.241610738255	22	0.733378271795809	2	5	5	NaN	1	4	0.0565952662433556	0	1	NaN	126	2	63	1	120	220	320	NaN	520	1.39921676833183	1	1	NaN	3792239.4363449	NaN	3792240.4197239	3792240.93629803
109	18	1	0	90	36.1581920903955	36.241610738255	23	0.766713647786528	2	4	2	NaN	1	3	0.0565952662433556	0	1	NaN	127	3	1	1	120	220	320	NaN	520	1.85421492066234	1	1	NaN	3792269.5893057	NaN	3792270.5726802	3792271.08924958
109	18	1	0	90	36.1581920903955	36.241610738255	9	0.300018383916467	2	6	3	NaN	1	3	0.0565952662433556	0	1	NaN	128	3	2	1	120	220	320	NaN	520	0.543344862759113	2	0	NaN	3792273.7563994	NaN	3792274.7397798	3792275.25632514
109	18	1	0	90	36.1581920903955	36.241610738255	25	0.833384399767965	2	8	4	NaN	2	3	0.0565952662433556	0	1	NaN	129	3	3	1	120	220	320	NaN	520	0.180645615328103	2	1	NaN	3792276.6233437	NaN	3792277.6067243	3792278.12327018
109	18	1	0	90	36.1581920903955	36.241610738255	6	0.200012255944312	2	6	1	NaN	1	4	0.0565952662433556	0	1	NaN	130	3	4	1	120	220	320	NaN	520	0.463940321002156	1	1	NaN	3792279.12359	NaN	3792280.1069704	3792280.62353128
109	18	1	0	90	36.1581920903955	36.241610738255	25	0.833384399767965	2	4	5	NaN	1	5	0.0565952662433556	0	1	NaN	131	3	5	1	120	220	320	NaN	520	0.464727920945734	1	1	NaN	3792281.907179	NaN	3792282.890587	3792283.40713238
109	18	1	0	90	36.1581920903955	36.241610738255	24	0.800049023777247	2	10	3	NaN	2	4	0.0565952662433556	0	1	NaN	132	3	6	1	120	220	320	NaN	520	1.62760476814583	2	1	NaN	3792284.8241707	NaN	3792285.8075305	3792286.32408033
109	18	1	0	90	36.1581920903955	36.241610738255	9	0.300018383916467	2	2	5	NaN	1	3	0.0565952662433556	0	1	NaN	133	3	7	1	120	220	320	NaN	520	0.534023968037218	2	0	NaN	3792288.7578577	NaN	3792289.741269	3792290.25781053
109	18	1	0	90	36.1581920903955	36.241610738255	14	0.46669526387006	2	12	1	NaN	2	4	0.0565952662433556	0	1	NaN	134	3	8	1	120	220	320	NaN	520	0.635849968530238	1	0	NaN	3792291.6081451	NaN	3792292.5915249	3792293.10807913
109	18	1	0	90	36.1581920903955	36.241610738255	13	0.433359887879342	2	11	6	NaN	2	3	0.0565952662433556	0	1	NaN	135	3	9	1	120	220	320	NaN	520	0.493196167983115	2	1	NaN	3792294.5584293	NaN	3792295.5418121	3792296.05836963
109	18	1	0	90	36.1581920903955	36.241610738255	10	0.333353759907186	2	3	4	NaN	1	3	0.0565952662433556	0	1	NaN	136	3	10	1	120	220	320	NaN	520	0.373254768084735	1	1	NaN	3792297.3587451	NaN	3792298.342102	3792298.85864573
109	18	1	0	90	36.1581920903955	36.241610738255	7	0.23334763193503	2	9	1	NaN	2	3	0.0565952662433556	0	1	NaN	137	3	11	1	120	220	320	NaN	520	5.62552092084661	1	0	NaN	3792300.0423212	NaN	3792301.0256929	3792301.54224448
109	18	1	0	90	36.1581920903955	36.241610738255	18	0.600036767832935	2	4	4	NaN	1	4	0.0565952662433556	0	1	NaN	138	3	12	1	120	220	320	NaN	520	0.627556468360126	1	1	NaN	3792307.976404	NaN	3792308.9597864	3792309.47635603
109	18	1	0	90	36.1581920903955	36.241610738255	7	0.23334763193503	2	4	5	NaN	1	4	0.0565952662433556	0	1	NaN	139	3	13	1	120	220	320	NaN	520	0.614016968291253	1	1	NaN	3792310.9100536	NaN	3792311.8934288	3792312.40998803
109	18	1	0	90	36.1581920903955	36.241610738255	23	0.766713647786528	2	12	2	NaN	2	3	0.0565952662433556	0	1	NaN	140	3	14	1	120	220	320	NaN	520	0.368655015714467	2	1	NaN	3792313.8269917	NaN	3792314.8103849	3792315.32694928
109	18	1	0	90	36.1581920903955	36.241610738255	16	0.533366015851498	2	4	5	NaN	1	4	0.0565952662433556	0	1	NaN	141	3	15	1	120	220	320	NaN	520	0.477233868092299	1	1	NaN	3792316.5106051	NaN	3792317.4939815	3792318.01053563
109	18	1	0	90	36.1581920903955	36.241610738255	7	0.23334763193503	2	2	4	NaN	1	3	0.0565952662433556	0	1	NaN	142	3	16	1	120	220	320	NaN	520	0.741617768071592	2	0	NaN	3792319.2941861	NaN	3792320.2775815	3792320.79413373
109	18	1	0	90	36.1581920903955	36.241610738255	8	0.266683007925749	2	11	2	NaN	2	3	0.0565952662433556	0	1	NaN	143	3	17	1	120	220	320	NaN	520	7.11480931565166	1	0	NaN	3792322.3611733	NaN	3792323.3445895	3792323.86109828
109	18	1	0	90	36.1581920903955	36.241610738255	13	0.433359887879342	2	3	3	NaN	1	3	0.0565952662433556	0	1	NaN	144	3	18	1	120	220	320	NaN	520	0.696379468310624	1	1	NaN	3792331.7954295	NaN	3792332.778845	3792333.29536463
109	18	1	0	90	36.1581920903955	36.241610738255	13	0.433359887879342	2	5	3	NaN	1	3	0.0565952662433556	0	1	NaN	145	3	19	1	120	220	320	NaN	520	0.567680067848414	1	1	NaN	3792334.7957609	NaN	3792335.7790434	3792336.29566843
109	18	1	0	90	36.1581920903955	36.241610738255	15	0.500030639860779	2	10	6	NaN	2	5	0.0565952662433556	0	1	NaN	146	3	20	1	120	220	320	NaN	520	0.612368520349264	2	1	NaN	3792337.6792453	NaN	3792338.6627221	3792339.17928248
109	18	1	0	90	36.1581920903955	36.241610738255	12	0.400024511888623	2	1	6	NaN	1	5	0.0565952662433556	0	1	NaN	147	3	21	1	120	220	320	NaN	520	0.607370468322188	2	0	NaN	3792340.5962717	NaN	3792341.5796893	3792342.09622793
109	18	1	0	90	36.1581920903955	36.241610738255	9	0.300018383916467	2	1	5	NaN	1	5	0.0565952662433556	0	1	NaN	148	3	22	1	120	220	320	NaN	520	0.586399015504867	2	0	NaN	3792343.5132729	NaN	3792344.4966674	3792345.01318948
109	18	1	0	90	36.1581920903955	36.241610738255	15	0.500030639860779	2	7	2	NaN	2	5	0.0565952662433556	0	1	NaN	149	3	23	1	120	220	320	NaN	520	0.510163268540055	2	1	NaN	3792346.4135292	NaN	3792347.3969263	3792347.91346563
109	18	1	0	90	36.1581920903955	36.241610738255	18	0.600036767832935	2	10	6	NaN	2	3	0.0565952662433556	0	1	NaN	150	3	24	1	120	220	320	NaN	520	0.50929896812886	2	1	NaN	3792349.230481	NaN	3792350.2138681	3792350.73041133
109	18	1	0	90	36.1581920903955	36.241610738255	18	0.600036767832935	2	11	5	NaN	2	5	0.0565952662433556	0	1	NaN	151	3	25	1	120	220	320	NaN	520	0.556309742387384	2	1	NaN	3792352.0474046	NaN	3792353.0307053	3792353.54736826
109	18	1	0	90	36.1581920903955	36.241610738255	21	0.700042895805091	2	9	1	NaN	2	3	0.0565952662433556	0	1	NaN	152	3	26	1	120	220	320	NaN	520	2.04967032046989	1	0	NaN	3792354.9143631	NaN	3792355.8977455	3792356.41431188
109	18	1	0	90	36.1581920903955	36.241610738255	23	0.766713647786528	2	2	6	NaN	1	5	0.0565952662433556	0	1	NaN	153	3	27	1	120	220	320	NaN	520	0.250722115393728	2	0	NaN	3792359.2814524	NaN	3792360.2648566	3792360.78139368
109	18	1	0	90	36.1581920903955	36.241610738255	17	0.566701391842216	2	6	3	NaN	1	5	0.0565952662433556	0	1	NaN	154	3	28	1	120	220	320	NaN	520	0.531705873087049	1	1	NaN	3792361.8483708	NaN	3792362.8317545	3792363.34832463
109	18	1	0	90	36.1581920903955	36.241610738255	15	0.500030639860779	2	3	4	NaN	1	4	0.0565952662433556	0	1	NaN	155	3	29	1	120	220	320	NaN	520	0.161417420953512	1	1	NaN	3792364.6986522	NaN	3792365.6820439	3792366.19860538
109	18	1	0	90	36.1581920903955	36.241610738255	16	0.533366015851498	2	3	4	NaN	1	5	0.0565952662433556	0	1	NaN	156	3	30	1	120	220	320	NaN	520	0.358176568057388	1	1	NaN	3792367.1654395	NaN	3792368.1489623	3792368.66550413
109	18	1	0	90	36.1581920903955	36.241610738255	10	0.333353759907186	2	2	2	NaN	1	4	0.0565952662433556	0	1	NaN	157	3	31	1	120	220	320	NaN	520	0.18734641559422	2	0	NaN	3792369.8324849	NaN	3792370.8158911	3792371.33243458
109	18	1	0	90	36.1581920903955	36.241610738255	0	0	1	8	4	NaN	2	5	0.0565952662433556	0	1	NaN	158	3	32	1	110	210	310	NaN	510	0.135154968127608	2	1	NaN	3792372.3327446	NaN	3792373.3161273	3792373.83267953
109	18	1	0	90	36.1581920903955	36.241610738255	23	0.766713647786528	2	10	2	NaN	2	4	0.0565952662433556	0	1	NaN	159	3	33	1	120	220	320	NaN	520	0.0845500682480633	2	1	NaN	3792374.7829765	NaN	3792375.7663744	3792376.28293233
109	18	1	0	90	36.1581920903955	36.241610738255	11	0.366689135897905	2	9	3	NaN	2	3	0.0565952662433556	0	1	NaN	160	3	34	1	120	220	320	NaN	520	0.172445368021727	1	0	NaN	3792377.1832108	NaN	3792378.1666035	3792378.68315953
109	18	1	0	90	36.1581920903955	36.241610738255	22	0.733378271795809	2	12	1	NaN	2	3	0.0565952662433556	0	1	NaN	161	3	35	1	120	220	320	NaN	520	3.08101052092388	1	0	NaN	3792379.6667936	NaN	3792380.650249	3792381.16673388
109	18	1	0	90	36.1581920903955	36.241610738255	16	0.533366015851498	2	8	5	NaN	2	3	0.0565952662433556	0	1	NaN	162	3	36	1	120	220	320	NaN	520	4.52029596827924	2	1	NaN	3792385.067312	NaN	3792386.0507175	3792386.56726583
109	18	1	0	90	36.1581920903955	36.241610738255	24	0.800049023777247	2	7	3	NaN	2	4	0.0565952662433556	0	1	NaN	163	3	37	1	120	220	320	NaN	520	0.606716367881745	2	1	NaN	3792391.9013236	NaN	3792392.8847344	3792393.40127763
109	18	1	0	90	36.1581920903955	36.241610738255	17	0.566701391842216	2	5	2	NaN	1	4	0.0565952662433556	0	1	NaN	164	3	38	1	120	220	320	NaN	520	0.0103628258220851	1	1	NaN	3792394.8182853	NaN	3792395.8016937	3792396.31822747
109	18	1	0	90	36.1581920903955	36.241610738255	18	0.600036767832935	2	7	2	NaN	2	4	0.0565952662433556	0	1	NaN	165	3	39	1	120	220	320	NaN	520	4.62058762088418	1	0	NaN	3792397.1351725	NaN	3792398.1185715	3792398.63515048
109	18	1	0	90	36.1581920903955	36.241610738255	6	0.200012255944312	2	7	2	NaN	2	5	0.0565952662433556	0	1	NaN	166	3	40	1	120	220	320	NaN	520	0.148921678774059	1	0	NaN	3792404.1191777	NaN	3792405.1025884	3792405.61915702
109	18	1	0	90	36.1581920903955	36.241610738255	10	0.333353759907186	2	11	4	NaN	2	4	0.0565952662433556	0	1	NaN	167	3	41	1	120	220	320	NaN	520	1.72172511508688	1	0	NaN	3792406.5860735	NaN	3792407.5694984	3792408.08604208
109	18	1	0	90	36.1581920903955	36.241610738255	18	0.600036767832935	2	9	4	NaN	2	4	0.0565952662433556	0	1	NaN	168	3	42	1	120	220	320	NaN	520	1.00011426815763	1	0	NaN	3792410.6198451	NaN	3792411.6032046	3792412.11980283
109	18	1	0	90	36.1581920903955	36.241610738255	6	0.200012255944312	2	2	1	NaN	1	3	0.0565952662433556	0	1	NaN	169	3	43	1	120	220	320	NaN	520	0.546908921096474	2	0	NaN	3792413.9368191	NaN	3792414.9202239	3792415.43677238
109	18	1	0	90	36.1581920903955	36.241610738255	18	0.600036767832935	2	7	1	NaN	2	4	0.0565952662433556	0	1	NaN	170	3	44	1	120	220	320	NaN	520	4.03254546783864	2	1	NaN	3792416.8037927	NaN	3792417.7871622	3792418.30371943
109	18	1	0	90	36.1581920903955	36.241610738255	14	0.46669526387006	2	9	4	NaN	2	5	0.0565952662433556	0	1	NaN	171	3	45	1	120	220	320	NaN	520	0.233389568515122	1	0	NaN	3792423.1543958	NaN	3792424.1377911	3792424.65434133
109	18	1	0	90	36.1581920903955	36.241610738255	9	0.300018383916467	2	9	3	NaN	2	4	0.0565952662433556	0	1	NaN	172	3	46	1	120	220	320	NaN	520	0.227553968317807	1	0	NaN	3792425.7046532	NaN	3792426.6880698	3792427.20459483
109	18	1	0	90	36.1581920903955	36.241610738255	22	0.733378271795809	2	10	1	NaN	2	3	0.0565952662433556	0	1	NaN	173	3	47	1	120	220	320	NaN	520	3.6219115681015	2	1	NaN	3792428.2382386	NaN	3792429.2216152	3792429.73817883
109	18	1	0	90	36.1581920903955	36.241610738255	14	0.46669526387006	2	2	4	NaN	1	4	0.0565952662433556	0	1	NaN	174	3	48	1	120	220	320	NaN	520	4.97559086838737	2	0	NaN	3792434.1721708	NaN	3792435.1555428	3792435.67209323
109	18	1	0	90	36.1581920903955	36.241610738255	15	0.500030639860779	2	3	4	NaN	1	4	0.0565952662433556	0	1	NaN	175	3	49	1	120	220	320	NaN	520	3.82007391564548	1	1	NaN	3792441.4560874	NaN	3792442.4395847	3792442.95613598
109	18	1	0	90	36.1581920903955	36.241610738255	15	0.500030639860779	2	4	2	NaN	1	5	0.0565952662433556	0	1	NaN	176	3	50	1	120	220	320	NaN	520	8.06198716815561	1	1	NaN	3792447.5901226	NaN	3792448.5735279	3792449.09007273
109	18	1	0	90	36.1581920903955	36.241610738255	12	0.400024511888623	2	10	5	NaN	2	5	0.0565952662433556	0	1	NaN	177	3	51	1	120	220	320	NaN	520	1.30236936826259	1	0	NaN	3792457.957765	NaN	3792458.9412212	3792459.45775833
109	18	1	0	90	36.1581920903955	36.241610738255	12	0.400024511888623	2	6	5	NaN	1	3	0.0565952662433556	0	1	NaN	178	3	52	1	120	220	320	NaN	520	0.941068468149751	1	1	NaN	3792461.5748351	NaN	3792462.5582279	3792463.07478373
109	18	1	0	90	36.1581920903955	36.241610738255	14	0.46669526387006	2	10	1	NaN	2	4	0.0565952662433556	0	1	NaN	179	3	53	1	120	220	320	NaN	520	4.86683526821434	2	1	NaN	3792464.8251739	NaN	3792465.8085504	3792466.32510503
109	18	1	0	90	36.1581920903955	36.241610738255	19	0.633372143823653	2	6	6	NaN	1	3	0.0565952662433556	0	1	NaN	180	3	54	1	120	220	320	NaN	520	0.787096668034792	1	1	NaN	3792472.0090674	NaN	3792472.9926005	3792473.50914093
109	18	1	0	90	36.1581920903955	36.241610738255	6	0.200012255944312	2	9	5	NaN	2	3	0.0565952662433556	0	1	NaN	181	3	55	1	120	220	320	NaN	520	0.646720989607275	1	0	NaN	3792475.1094994	NaN	3792476.0929013	3792476.60945461
109	18	1	0	90	36.1581920903955	36.241610738255	13	0.433359887879342	2	1	5	NaN	1	3	0.0565952662433556	0	1	NaN	182	3	56	1	120	220	320	NaN	520	0.871348668355495	1	1	NaN	3792478.0764971	NaN	3792479.0598515	3792479.57640683
109	18	1	0	90	36.1581920903955	36.241610738255	24	0.800049023777247	2	6	3	NaN	1	4	0.0565952662433556	0	1	NaN	183	3	57	1	120	220	320	NaN	520	1.48771856818348	1	1	NaN	3792481.2601071	NaN	3792482.2434962	3792482.76005773
109	18	1	0	90	36.1581920903955	36.241610738255	20	0.666707519814372	2	3	5	NaN	1	3	0.0565952662433556	0	1	NaN	184	3	58	1	120	220	320	NaN	520	0.999230267945677	1	1	NaN	3792485.0604942	NaN	3792486.0438823	3792486.56043153
109	18	1	0	90	36.1581920903955	36.241610738255	19	0.633372143823653	2	3	6	NaN	1	4	0.0565952662433556	0	1	NaN	185	3	59	1	120	220	320	NaN	520	1.05069001531228	1	1	NaN	3792488.3774814	NaN	3792489.3608787	3792489.87741348
109	18	1	0	90	36.1581920903955	36.241610738255	19	0.633372143823653	2	8	4	NaN	2	3	0.0565952662433556	0	1	NaN	186	3	60	1	120	220	320	NaN	520	1.80378406820819	1	0	NaN	3792491.7444654	NaN	3792492.727855	3792493.24441353
109	18	1	0	90	36.1581920903955	36.241610738255	17	0.566701391842216	2	7	6	NaN	2	5	0.0565952662433556	0	1	NaN	187	3	61	1	120	220	320	NaN	520	1.37472086818889	1	0	NaN	3792495.8615545	NaN	3792496.8449389	3792497.36149503
109	18	1	0	90	36.1581920903955	36.241610738255	16	0.533366015851498	2	6	2	NaN	1	4	0.0565952662433556	0	1	NaN	188	3	62	1	120	220	320	NaN	520	0.649655668064952	1	1	NaN	3792499.7784608	NaN	3792500.7619921	3792501.27854113
109	18	1	0	90	36.1581920903955	36.241610738255	8	0.266683007925749	2	1	1	NaN	1	3	0.0565952662433556	0	1	NaN	189	3	63	1	120	220	320	NaN	520	0.434831520542502	1	1	NaN	3792502.7455572	NaN	3792503.7289381	3792504.24550158
109	18	1	0	90	36.1581920903955	36.241610738255	10	0.333353759907186	2	12	2	NaN	2	3	0.0565952662433556	0	1	NaN	190	4	1	1	120	220	320	NaN	520	0.403503962792456	2	1	NaN	3792525.4643696	NaN	3792526.4478521	3792526.96438964
109	18	1	0	90	36.1581920903955	36.241610738255	12	0.400024511888623	2	11	3	NaN	2	4	0.0565952662433556	0	1	NaN	191	4	2	1	120	220	320	NaN	520	0.374885067809373	2	1	NaN	3792528.1813976	NaN	3792529.1647973	3792529.68132953
109	18	1	0	90	36.1581920903955	36.241610738255	9	0.300018383916467	2	3	1	NaN	1	4	0.0565952662433556	0	1	NaN	192	4	3	1	120	220	320	NaN	520	0.731307820416987	2	0	NaN	3792530.8650007	NaN	3792531.8483789	3792532.36493458
109	18	1	0	90	36.1581920903955	36.241610738255	21	0.700042895805091	2	1	2	NaN	1	3	0.0565952662433556	0	1	NaN	193	4	4	1	120	220	320	NaN	520	0.816703821066767	2	0	NaN	3792533.915275	NaN	3792534.898675	3792535.41523288
109	18	1	0	90	36.1581920903955	36.241610738255	11	0.366689135897905	2	10	2	NaN	2	4	0.0565952662433556	0	1	NaN	194	4	5	1	120	220	320	NaN	520	0.52308392059058	1	0	NaN	3792537.0489387	NaN	3792538.0323185	3792538.54887538
109	18	1	0	90	36.1581920903955	36.241610738255	16	0.533366015851498	2	7	3	NaN	2	3	0.0565952662433556	0	1	NaN	195	4	6	1	120	220	320	NaN	520	2.17771986778826	1	0	NaN	3792539.8824068	NaN	3792540.8659263	3792541.38248023
109	18	1	0	90	36.1581920903955	36.241610738255	16	0.533366015851498	2	3	6	NaN	1	3	0.0565952662433556	0	1	NaN	196	4	7	1	120	220	320	NaN	520	0.581374068278819	1	1	NaN	3792544.382978	NaN	3792545.3663787	3792545.88292083
109	18	1	0	90	36.1581920903955	36.241610738255	19	0.633372143823653	2	7	2	NaN	2	5	0.0565952662433556	0	1	NaN	197	4	8	1	120	220	320	NaN	520	1.01668571028858	2	1	NaN	3792547.283279	NaN	3792548.2666623	3792548.78323169
109	18	1	0	90	36.1581920903955	36.241610738255	22	0.733378271795809	2	6	4	NaN	1	5	0.0565952662433556	0	1	NaN	198	4	9	1	120	220	320	NaN	520	0.459558273665607	1	1	NaN	3792550.6002441	NaN	3792551.5836606	3792552.10020263
109	18	1	0	90	36.1581920903955	36.241610738255	11	0.366689135897905	2	3	2	NaN	1	3	0.0565952662433556	0	1	NaN	199	4	10	1	120	220	320	NaN	520	0.516797667834908	1	1	NaN	3792553.3672143	NaN	3792554.3505904	3792554.86714173
109	18	1	0	90	36.1581920903955	36.241610738255	19	0.633372143823653	2	1	5	NaN	1	5	0.0565952662433556	0	1	NaN	200	4	11	1	120	220	320	NaN	520	0.715196968056262	1	1	NaN	3792556.2007979	NaN	3792557.1842015	3792557.70075353
109	18	1	0	90	36.1581920903955	36.241610738255	12	0.400024511888623	2	11	1	NaN	2	4	0.0565952662433556	0	1	NaN	201	4	12	1	120	220	320	NaN	520	2.95352852577344	1	0	NaN	3792559.2344354	NaN	3792560.2178219	3792560.73438547
109	18	1	0	90	36.1581920903955	36.241610738255	15	0.500030639860779	2	10	3	NaN	2	5	0.0565952662433556	0	1	NaN	202	4	13	1	120	220	320	NaN	520	0.382507468108088	1	0	NaN	3792564.5016267	NaN	3792565.48501	3792566.00156233
109	18	1	0	90	36.1581920903955	36.241610738255	16	0.533366015851498	2	12	4	NaN	2	3	0.0565952662433556	0	1	NaN	203	4	14	1	120	220	320	NaN	520	0.354482667986304	2	1	NaN	3792567.2018975	NaN	3792568.1852683	3792568.70183453
109	18	1	0	90	36.1581920903955	36.241610738255	6	0.200012255944312	2	1	2	NaN	1	3	0.0565952662433556	0	1	NaN	204	4	15	1	120	220	320	NaN	520	0.391442968510091	1	1	NaN	3792569.8688144	NaN	3792570.8522175	3792571.36876363
109	18	1	0	90	36.1581920903955	36.241610738255	15	0.500030639860779	2	9	6	NaN	2	3	0.0565952662433556	0	1	NaN	205	4	16	1	120	220	320	NaN	520	1.97140716807917	1	0	NaN	3792572.5690964	NaN	3792573.5524758	3792574.06901973
109	18	1	0	90	36.1581920903955	36.241610738255	16	0.533366015851498	2	7	6	NaN	2	4	0.0565952662433556	0	1	NaN	206	4	17	1	120	220	320	NaN	520	0.775184489786625	1	0	NaN	3792576.8527155	NaN	3792577.8362488	3792578.35278861
109	18	1	0	90	36.1581920903955	36.241610738255	8	0.266683007925749	2	6	4	NaN	1	5	0.0565952662433556	0	1	NaN	207	4	18	1	120	220	320	NaN	520	1.01971096778288	1	1	NaN	3792579.9364771	NaN	3792580.9198686	3792581.43641223
109	18	1	0	90	36.1581920903955	36.241610738255	16	0.533366015851498	2	1	3	NaN	1	5	0.0565952662433556	0	1	NaN	208	4	19	1	120	220	320	NaN	520	2.67797446809709	1	1	NaN	3792583.2701278	NaN	3792584.253526	3792584.77007253
109	18	1	0	90	36.1581920903955	36.241610738255	16	0.533366015851498	2	9	4	NaN	2	4	0.0565952662433556	0	1	NaN	209	4	20	1	120	220	320	NaN	520	0.34982416825369	2	1	NaN	3792588.2706337	NaN	3792589.2540175	3792589.77056433
109	18	1	0	90	36.1581920903955	36.241610738255	24	0.800049023777247	2	5	5	NaN	1	4	0.0565952662433556	0	1	NaN	210	4	21	1	120	220	320	NaN	520	0.41845762077719	1	1	NaN	3792590.937527	NaN	3792591.9208547	3792592.43749488
109	18	1	0	90	36.1581920903955	36.241610738255	18	0.600036767832935	2	11	1	NaN	2	5	0.0565952662433556	0	1	NaN	211	4	22	1	120	220	320	NaN	520	0.389318367931992	2	1	NaN	3792593.6711761	NaN	3792594.6545392	3792595.17111343
109	18	1	0	90	36.1581920903955	36.241610738255	7	0.23334763193503	2	5	3	NaN	1	4	0.0565952662433556	0	1	NaN	212	4	23	1	120	220	320	NaN	520	0.272643867880106	1	1	NaN	3792596.3714592	NaN	3792597.3548049	3792597.87137163
109	18	1	0	90	36.1581920903955	36.241610738255	14	0.46669526387006	2	7	6	NaN	2	4	0.0565952662433556	0	1	NaN	213	4	24	1	120	220	320	NaN	520	0.321514568291605	1	0	NaN	3792598.9550224	NaN	3792599.9383894	3792600.45495083
109	18	1	0	90	36.1581920903955	36.241610738255	0	0	1	9	1	NaN	2	5	0.0565952662433556	0	1	NaN	214	4	25	1	110	210	310	NaN	510	0.295555667951703	1	0	NaN	3792601.5885997	NaN	3792602.5720051	3792603.08855023
109	18	1	0	90	36.1581920903955	36.241610738255	14	0.46669526387006	2	5	6	NaN	1	3	0.0565952662433556	0	1	NaN	215	4	26	1	120	220	320	NaN	520	0.535650667734444	1	1	NaN	3792604.1888388	NaN	3792605.1722597	3792605.68880263
109	18	1	0	90	36.1581920903955	36.241610738255	24	0.800049023777247	2	12	3	NaN	2	3	0.0565952662433556	0	1	NaN	216	4	27	1	120	220	320	NaN	520	0.45306196808815	2	1	NaN	3792607.0391491	NaN	3792608.0225189	3792608.53908323
109	18	1	0	90	36.1581920903955	36.241610738255	11	0.366689135897905	2	2	2	NaN	1	3	0.0565952662433556	0	1	NaN	217	4	28	1	120	220	320	NaN	520	1.20634816819802	2	0	NaN	3792609.8060845	NaN	3792610.7894651	3792611.30601353
109	18	1	0	90	36.1581920903955	36.241610738255	6	0.200012255944312	2	1	3	NaN	1	4	0.0565952662433556	0	1	NaN	218	4	29	1	120	220	320	NaN	520	0.441105768084526	2	0	NaN	3792613.3230844	NaN	3792614.3064722	3792614.82303843
109	18	1	0	90	36.1581920903955	36.241610738255	8	0.266683007925749	2	8	1	NaN	2	5	0.0565952662433556	0	1	NaN	219	4	30	1	120	220	320	NaN	520	0.586801768280566	2	1	NaN	3792616.0733758	NaN	3792617.0567426	3792617.57329913
109	18	1	0	90	36.1581920903955	36.241610738255	8	0.266683007925749	2	6	6	NaN	1	3	0.0565952662433556	0	1	NaN	220	4	31	1	120	220	320	NaN	520	0.166519868187606	1	1	NaN	3792618.973634	NaN	3792619.957036	3792620.47359253
109	18	1	0	90	36.1581920903955	36.241610738255	13	0.433359887879342	2	9	3	NaN	2	3	0.0565952662433556	0	1	NaN	221	4	32	1	120	220	320	NaN	520	0.202845567837358	2	1	NaN	3792621.4572243	NaN	3792622.4405898	3792622.95715863
109	18	1	0	90	36.1581920903955	36.241610738255	25	0.833384399767965	2	2	5	NaN	1	4	0.0565952662433556	0	1	NaN	222	4	33	1	120	220	320	NaN	520	1.13433892093599	2	0	NaN	3792623.9741337	NaN	3792624.9575354	3792625.47408238
109	18	1	0	90	36.1581920903955	36.241610738255	23	0.766713647786528	2	8	4	NaN	2	5	0.0565952662433556	0	1	NaN	223	4	34	1	120	220	320	NaN	520	0.795717868022621	1	0	NaN	3792627.4244832	NaN	3792628.4078649	3792628.92441073
109	18	1	0	90	36.1581920903955	36.241610738255	20	0.666707519814372	2	11	3	NaN	2	5	0.0565952662433556	0	1	NaN	224	4	35	1	120	220	320	NaN	520	0.2550228680484	2	1	NaN	3792630.5414453	NaN	3792631.5248411	3792632.04139403
109	18	1	0	90	36.1581920903955	36.241610738255	13	0.433359887879342	2	8	2	NaN	2	4	0.0565952662433556	0	1	NaN	225	4	36	1	120	220	320	NaN	520	0.631800652481616	2	1	NaN	3792633.1083582	NaN	3792634.0916522	3792634.60830225
109	18	1	0	90	36.1581920903955	36.241610738255	18	0.600036767832935	2	12	5	NaN	2	5	0.0565952662433556	0	1	NaN	226	4	37	1	120	220	320	NaN	520	0.337494720704854	2	1	NaN	3792636.0586547	NaN	3792637.0419442	3792637.55860678
109	18	1	0	90	36.1581920903955	36.241610738255	22	0.733378271795809	2	8	3	NaN	2	4	0.0565952662433556	0	1	NaN	227	4	38	1	120	220	320	NaN	520	0.439250626135617	2	1	NaN	3792638.7089049	NaN	3792639.6923034	3792640.20886627
109	18	1	0	90	36.1581920903955	36.241610738255	24	0.800049023777247	2	11	1	NaN	2	4	0.0565952662433556	0	1	NaN	228	4	39	1	120	220	320	NaN	520	0.409268620889634	2	1	NaN	3792641.459189	NaN	3792642.4425635	3792642.95913468
109	18	1	0	90	36.1581920903955	36.241610738255	8	0.266683007925749	2	11	5	NaN	2	4	0.0565952662433556	0	1	NaN	229	4	40	1	120	220	320	NaN	520	0.395905368030071	2	1	NaN	3792644.1761995	NaN	3792645.1595006	3792645.67606853
109	18	1	0	90	36.1581920903955	36.241610738255	19	0.633372143823653	2	9	6	NaN	2	4	0.0565952662433556	0	1	NaN	230	4	41	1	120	220	320	NaN	520	0.303681968245655	2	1	NaN	3792646.8762667	NaN	3792647.8598204	3792648.37633513
109	18	1	0	90	36.1581920903955	36.241610738255	16	0.533366015851498	2	2	4	NaN	1	5	0.0565952662433556	0	1	NaN	231	4	42	1	120	220	320	NaN	520	0.01042176829651	1	1	NaN	3792649.4933278	NaN	3792650.4766876	3792650.99325063
109	18	1	0	90	36.1581920903955	36.241610738255	20	0.666707519814372	2	7	5	NaN	2	5	0.0565952662433556	0	1	NaN	232	4	43	1	120	220	320	NaN	520	0.426305615343153	1	0	NaN	3792651.8102037	NaN	3792652.7935816	3792653.31014138
109	18	1	0	90	36.1581920903955	36.241610738255	7	0.23334763193503	2	11	1	NaN	2	5	0.0565952662433556	0	1	NaN	233	4	44	1	120	220	320	NaN	520	0.412252041976899	2	1	NaN	3792654.5438178	NaN	3792655.5272019	3792656.04376156
109	18	1	0	90	36.1581920903955	36.241610738255	20	0.666707519814372	2	3	2	NaN	1	3	0.0565952662433556	0	1	NaN	234	4	45	1	120	220	320	NaN	520	0.463529368396848	1	1	NaN	3792657.2607298	NaN	3792658.2441219	3792658.76068823
109	18	1	0	90	36.1581920903955	36.241610738255	18	0.600036767832935	2	3	6	NaN	1	5	0.0565952662433556	0	1	NaN	235	4	46	1	120	220	320	NaN	520	0.576486631296575	2	0	NaN	3792660.0277589	NaN	3792661.0110564	3792661.52762567
109	18	1	0	90	36.1581920903955	36.241610738255	23	0.766713647786528	2	6	4	NaN	1	4	0.0565952662433556	0	1	NaN	236	4	47	1	120	220	320	NaN	520	0.381262168288231	1	1	NaN	3792662.9113116	NaN	3792663.8946887	3792664.41123233
109	18	1	0	90	36.1581920903955	36.241610738255	19	0.633372143823653	2	10	2	NaN	2	4	0.0565952662433556	0	1	NaN	237	4	48	1	120	220	320	NaN	520	0.520546042360365	1	0	NaN	3792665.6114124	NaN	3792666.5949622	3792667.11151346
109	18	1	0	90	36.1581920903955	36.241610738255	24	0.800049023777247	2	1	5	NaN	1	4	0.0565952662433556	0	1	NaN	238	4	49	1	120	220	320	NaN	520	0.542829867918044	2	0	NaN	3792668.4451631	NaN	3792669.4285492	3792669.94511293
109	18	1	0	90	36.1581920903955	36.241610738255	15	0.500030639860779	2	6	2	NaN	1	3	0.0565952662433556	0	1	NaN	239	4	50	1	120	220	320	NaN	520	0.229048968292773	1	1	NaN	3792671.29544	NaN	3792672.2788334	3792672.79539033
109	18	1	0	90	36.1581920903955	36.241610738255	9	0.300018383916467	2	8	6	NaN	2	4	0.0565952662433556	0	1	NaN	240	4	51	1	120	220	320	NaN	520	0.383285968098789	1	0	NaN	3792673.8290667	NaN	3792674.812444	3792675.32897143
109	18	1	0	90	36.1581920903955	36.241610738255	6	0.200012255944312	2	3	1	NaN	1	4	0.0565952662433556	0	1	NaN	241	4	52	1	120	220	320	NaN	520	0.410849415231496	2	0	NaN	3792676.5292883	NaN	3792677.5126968	3792678.02924198
109	18	1	0	90	36.1581920903955	36.241610738255	0	0	1	1	2	NaN	1	5	0.0565952662433556	0	1	NaN	242	4	53	1	110	210	310	NaN	510	0.541892467997968	1	1	NaN	3792679.2463159	NaN	3792680.2296683	3792680.74616983
109	18	1	0	90	36.1581920903955	36.241610738255	14	0.46669526387006	2	11	2	NaN	2	5	0.0565952662433556	0	1	NaN	243	4	54	1	120	220	320	NaN	520	0.499692468438298	2	1	NaN	3792682.0963842	NaN	3792683.0798949	3792683.59644923
109	18	1	0	90	36.1581920903955	36.241610738255	17	0.566701391842216	2	3	2	NaN	1	4	0.0565952662433556	0	1	NaN	244	4	55	1	120	220	320	NaN	520	0.394693467766047	1	1	NaN	3792684.9133357	NaN	3792685.8968277	3792686.41339883
109	18	1	0	90	36.1581920903955	36.241610738255	17	0.566701391842216	2	4	5	NaN	1	3	0.0565952662433556	0	1	NaN	245	4	56	1	120	220	320	NaN	520	0.430494820699096	1	1	NaN	3792687.6137197	NaN	3792688.5971147	3792689.11366008
109	18	1	0	90	36.1581920903955	36.241610738255	20	0.666707519814372	2	4	6	NaN	1	4	0.0565952662433556	0	1	NaN	246	4	57	1	120	220	320	NaN	520	0.544222568161786	1	1	NaN	3792690.3638622	NaN	3792691.3473838	3792691.86393843
109	18	1	0	90	36.1581920903955	36.241610738255	0	0	1	6	6	NaN	1	5	0.0565952662433556	0	1	NaN	247	4	58	1	110	210	310	NaN	510	0.446284820791334	1	1	NaN	3792693.2142774	NaN	3792694.1976552	3792694.71422228
109	18	1	0	90	36.1581920903955	36.241610738255	11	0.366689135897905	2	7	2	NaN	2	5	0.0565952662433556	0	1	NaN	248	4	59	1	120	220	320	NaN	520	0.535098168067634	2	1	NaN	3792695.9811874	NaN	3792696.9645946	3792697.48115403
109	18	1	0	90	36.1581920903955	36.241610738255	8	0.266683007925749	2	2	1	NaN	1	5	0.0565952662433556	0	1	NaN	249	4	60	1	120	220	320	NaN	520	0.669116568285972	2	0	NaN	3792698.8314974	NaN	3792699.8148895	3792700.33143203
109	18	1	0	90	36.1581920903955	36.241610738255	24	0.800049023777247	2	3	6	NaN	1	3	0.0565952662433556	0	1	NaN	250	4	61	1	120	220	320	NaN	520	1.16554152080789	2	0	NaN	3792701.8150944	NaN	3792702.7985395	3792703.31506408
109	18	1	0	90	36.1581920903955	36.241610738255	8	0.266683007925749	2	7	3	NaN	2	4	0.0565952662433556	0	1	NaN	251	4	62	1	120	220	320	NaN	520	0.481627768371254	2	1	NaN	3792705.2988087	NaN	3792706.282171	3792706.79873263
109	18	1	0	90	36.1581920903955	36.241610738255	19	0.633372143823653	2	4	1	NaN	1	5	0.0565952662433556	0	1	NaN	252	4	63	1	120	220	320	NaN	520	0.169233168009669	1	1	NaN	3792708.0990703	NaN	3792709.0824561	3792709.59900773
109	18	1	0	90	36.1581920903955	36.241610738255	11	0.366689135897905	2	3	1	NaN	1	3	0.0565952662433556	0	1	NaN	253	5	1	1	120	220	320	NaN	520	0.650312820915133	1	1	NaN	3792727.8342731	NaN	3792728.8177298	3792729.33428748
109	18	1	0	90	36.1581920903955	36.241610738255	9	0.300018383916467	2	9	5	NaN	2	4	0.0565952662433556	0	1	NaN	254	5	2	1	120	220	320	NaN	520	0.323084815405309	2	1	NaN	3792730.8013073	NaN	3792731.7846788	3792732.30124078
109	18	1	0	90	36.1581920903955	36.241610738255	11	0.366689135897905	2	4	4	NaN	1	4	0.0565952662433556	0	1	NaN	255	5	3	1	120	220	320	NaN	520	0.481321120634675	1	1	NaN	3792733.4348829	NaN	3792734.4183413	3792734.93483748
109	18	1	0	90	36.1581920903955	36.241610738255	9	0.300018383916467	2	12	3	NaN	2	5	0.0565952662433556	0	1	NaN	256	5	4	1	120	220	320	NaN	520	2.57701396849006	1	0	NaN	3792736.2351727	NaN	3792737.2185729	3792737.73510743
109	18	1	0	90	36.1581920903955	36.241610738255	17	0.566701391842216	2	5	5	NaN	1	5	0.0565952662433556	0	1	NaN	257	5	5	1	120	220	320	NaN	520	0.877166620455682	1	1	NaN	3792741.1189776	NaN	3792742.1023727	3792742.61891728
109	18	1	0	90	36.1581920903955	36.241610738255	20	0.666707519814372	2	6	3	NaN	1	4	0.0565952662433556	0	1	NaN	258	5	6	1	120	220	320	NaN	520	0.453697168268263	2	0	NaN	3792744.3026429	NaN	3792745.2860161	3792745.80256553
109	18	1	0	90	36.1581920903955	36.241610738255	17	0.566701391842216	2	11	2	NaN	2	5	0.0565952662433556	0	1	NaN	259	5	7	1	120	220	320	NaN	520	0.478663389571011	2	1	NaN	3792747.0694278	NaN	3792748.052954	3792748.56950851
109	18	1	0	90	36.1581920903955	36.241610738255	20	0.666707519814372	2	9	3	NaN	2	4	0.0565952662433556	0	1	NaN	260	5	8	1	120	220	320	NaN	520	0.534430267754942	2	1	NaN	3792749.8698371	NaN	3792750.8532365	3792751.36977693
109	18	1	0	90	36.1581920903955	36.241610738255	24	0.800049023777247	2	4	3	NaN	1	5	0.0565952662433556	0	1	NaN	261	5	9	1	120	220	320	NaN	520	0.260176215320826	2	0	NaN	3792752.7200472	NaN	3792753.7035192	3792754.22005658
109	18	1	0	90	36.1581920903955	36.241610738255	12	0.400024511888623	2	5	1	NaN	1	4	0.0565952662433556	0	1	NaN	262	5	10	1	120	220	320	NaN	520	0.420679315458983	1	1	NaN	3792755.3036982	NaN	3792756.2870976	3792756.80364258
109	18	1	0	90	36.1581920903955	36.241610738255	24	0.800049023777247	2	10	6	NaN	2	5	0.0565952662433556	0	1	NaN	263	5	11	1	120	220	320	NaN	520	0.374906368087977	2	1	NaN	3792758.0373073	NaN	3792759.020698	3792759.53725643
109	18	1	0	90	36.1581920903955	36.241610738255	11	0.366689135897905	2	10	4	NaN	2	5	0.0565952662433556	0	1	NaN	264	5	12	1	120	220	320	NaN	520	0.451394968200475	2	1	NaN	3792760.7208921	NaN	3792761.7042926	3792762.22084413
109	18	1	0	90	36.1581920903955	36.241610738255	22	0.733378271795809	2	4	1	NaN	1	3	0.0565952662433556	0	1	NaN	265	5	13	1	120	220	320	NaN	520	0.428829568438232	2	0	NaN	3792763.48784	NaN	3792764.4712436	3792764.98779033
109	18	1	0	90	36.1581920903955	36.241610738255	20	0.666707519814372	2	4	1	NaN	1	3	0.0565952662433556	0	1	NaN	266	5	14	1	120	220	320	NaN	520	0.615236021112651	1	1	NaN	3792766.2214423	NaN	3792767.2048439	3792767.72138638
109	18	1	0	90	36.1581920903955	36.241610738255	21	0.700042895805091	2	3	1	NaN	1	4	0.0565952662433556	0	1	NaN	267	5	15	1	120	220	320	NaN	520	1.40151396812871	2	0	NaN	3792769.1550656	NaN	3792770.1384773	3792770.65501373
109	18	1	0	90	36.1581920903955	36.241610738255	11	0.366689135897905	2	12	6	NaN	2	5	0.0565952662433556	0	1	NaN	268	5	16	1	120	220	320	NaN	520	0.588250267785043	1	0	NaN	3792772.8721122	NaN	3792773.8554868	3792774.37203693
109	18	1	0	90	36.1581920903955	36.241610738255	25	0.833384399767965	2	10	6	NaN	2	4	0.0565952662433556	0	1	NaN	269	5	17	1	120	220	320	NaN	520	0.439827020745724	2	1	NaN	3792775.7723863	NaN	3792776.7558033	3792777.27232298
109	18	1	0	90	36.1581920903955	36.241610738255	16	0.533366015851498	2	9	2	NaN	2	4	0.0565952662433556	0	1	NaN	270	5	18	1	120	220	320	NaN	520	0.409720668103546	2	1	NaN	3792778.5225965	NaN	3792779.5060665	3792780.02259063
109	18	1	0	90	36.1581920903955	36.241610738255	10	0.333353759907186	2	5	6	NaN	1	5	0.0565952662433556	0	1	NaN	271	5	19	1	120	220	320	NaN	520	0.380187515635043	1	1	NaN	3792781.2562619	NaN	3792782.2396401	3792782.75619728
109	18	1	0	90	36.1581920903955	36.241610738255	6	0.200012255944312	2	11	4	NaN	2	5	0.0565952662433556	0	1	NaN	272	5	20	1	120	220	320	NaN	520	0.423628368414938	2	1	NaN	3792783.956508	NaN	3792784.9399023	3792785.45646163
109	18	1	0	90	36.1581920903955	36.241610738255	24	0.800049023777247	2	8	5	NaN	2	5	0.0565952662433556	0	1	NaN	273	5	21	1	120	220	320	NaN	520	0.506683820392936	2	1	NaN	3792786.6901114	NaN	3792787.6735439	3792788.19006948
109	18	1	0	90	36.1581920903955	36.241610738255	15	0.500030639860779	2	12	6	NaN	2	4	0.0565952662433556	0	1	NaN	274	5	22	1	120	220	320	NaN	520	0.497254720423371	2	1	NaN	3792789.5070526	NaN	3792790.490463	3792791.00701518
109	18	1	0	90	36.1581920903955	36.241610738255	10	0.333353759907186	2	4	3	NaN	1	4	0.0565952662433556	0	1	NaN	275	5	23	1	120	220	320	NaN	520	0.40069746831432	2	0	NaN	3792792.3240068	NaN	3792793.3073778	3792793.82395243
109	18	1	0	90	36.1581920903955	36.241610738255	9	0.300018383916467	2	5	2	NaN	1	3	0.0565952662433556	0	1	NaN	276	5	24	1	120	220	320	NaN	520	0.475445615593344	1	1	NaN	3792795.0409494	NaN	3792796.0243745	3792796.54089088
109	18	1	0	90	36.1581920903955	36.241610738255	6	0.200012255944312	2	6	1	NaN	1	5	0.0565952662433556	0	1	NaN	277	5	25	1	120	220	320	NaN	520	0.227792420890182	1	1	NaN	3792797.8245434	NaN	3792798.8079465	3792799.32450028
109	18	1	0	90	36.1581920903955	36.241610738255	10	0.333353759907186	2	8	5	NaN	2	3	0.0565952662433556	0	1	NaN	278	5	26	1	120	220	320	NaN	520	3.06216886779293	1	0	NaN	3792800.3579933	NaN	3792801.3415273	3792801.85807353
109	18	1	0	90	36.1581920903955	36.241610738255	6	0.200012255944312	2	4	6	NaN	1	3	0.0565952662433556	0	1	NaN	279	5	27	1	120	220	320	NaN	520	0.543191368225962	1	1	NaN	3792805.7253302	NaN	3792806.7087143	3792807.22527583
109	18	1	0	90	36.1581920903955	36.241610738255	11	0.366689135897905	2	6	4	NaN	1	3	0.0565952662433556	0	1	NaN	280	5	28	1	120	220	320	NaN	520	0.4206404206343	1	1	NaN	3792808.5755914	NaN	3792809.5589887	3792810.07555568
109	18	1	0	90	36.1581920903955	36.241610738255	16	0.533366015851498	2	6	5	NaN	1	3	0.0565952662433556	0	1	NaN	281	5	29	1	120	220	320	NaN	520	0.183488220907748	1	1	NaN	3792811.3092042	NaN	3792812.2926329	3792812.80915838
109	18	1	0	90	36.1581920903955	36.241610738255	7	0.23334763193503	2	6	5	NaN	1	3	0.0565952662433556	0	1	NaN	282	5	30	1	120	220	320	NaN	520	0.562808915507048	1	1	NaN	3792813.8094453	NaN	3792814.792848	3792815.30940008
109	18	1	0	90	36.1581920903955	36.241610738255	7	0.23334763193503	2	8	3	NaN	2	3	0.0565952662433556	0	1	NaN	283	5	31	1	120	220	320	NaN	520	1.951243636664	1	0	NaN	3792816.6931136	NaN	3792817.6764531	3792818.19301316
109	18	1	0	90	36.1581920903955	36.241610738255	21	0.700042895805091	2	3	3	NaN	1	4	0.0565952662433556	0	1	NaN	284	5	32	1	120	220	320	NaN	520	0.500658867880702	1	1	NaN	3792820.9601787	NaN	3792821.9435719	3792822.46011553
109	18	1	0	90	36.1581920903955	36.241610738255	24	0.800049023777247	2	8	1	NaN	2	3	0.0565952662433556	0	1	NaN	285	5	33	1	120	220	320	NaN	520	0.483651415444911	1	0	NaN	3792823.7770984	NaN	3792824.7605072	3792825.27703988
109	18	1	0	90	36.1581920903955	36.241610738255	12	0.400024511888623	2	4	6	NaN	1	5	0.0565952662433556	0	1	NaN	286	5	34	1	120	220	320	NaN	520	0.507045715581626	1	1	NaN	3792826.5773947	NaN	3792827.5607674	3792828.07731068
109	18	1	0	90	36.1581920903955	36.241610738255	22	0.733378271795809	2	7	2	NaN	2	4	0.0565952662433556	0	1	NaN	287	5	35	1	120	220	320	NaN	520	0.66610008943826	1	0	NaN	3792829.3943096	NaN	3792830.3776969	3792830.89426611
109	18	1	0	90	36.1581920903955	36.241610738255	15	0.500030639860779	2	9	5	NaN	2	3	0.0565952662433556	0	1	NaN	288	5	36	1	120	220	320	NaN	520	0.331069068051875	2	1	NaN	3792832.3778003	NaN	3792833.3613351	3792833.87788783
109	18	1	0	90	36.1581920903955	36.241610738255	6	0.200012255944312	2	4	1	NaN	1	3	0.0565952662433556	0	1	NaN	289	5	37	1	120	220	320	NaN	520	0.337078767828643	1	1	NaN	3792835.0115119	NaN	3792835.99492	3792836.51148283
109	18	1	0	90	36.1581920903955	36.241610738255	10	0.333353759907186	2	9	1	NaN	2	5	0.0565952662433556	0	1	NaN	290	5	38	1	120	220	320	NaN	520	0.390983268152922	2	1	NaN	3792837.6617954	NaN	3792838.6451885	3792839.16173933
109	18	1	0	90	36.1581920903955	36.241610738255	22	0.733378271795809	2	11	3	NaN	2	4	0.0565952662433556	0	1	NaN	291	5	39	1	120	220	320	NaN	520	0.282762468326837	2	1	NaN	3792840.3620555	NaN	3792841.3454565	3792841.86199883
109	18	1	0	90	36.1581920903955	36.241610738255	17	0.566701391842216	2	10	3	NaN	2	3	0.0565952662433556	0	1	NaN	292	5	40	1	120	220	320	NaN	520	0.458292868454009	1	0	NaN	3792842.9623044	NaN	3792843.9457006	3792844.46225973
109	18	1	0	90	36.1581920903955	36.241610738255	22	0.733378271795809	2	8	3	NaN	2	3	0.0565952662433556	0	1	NaN	293	5	41	1	120	220	320	NaN	520	1.69950071536005	2	1	NaN	3792845.729258	NaN	3792846.7126483	3792847.22920308
109	18	1	0	90	36.1581920903955	36.241610738255	0	0	1	7	4	NaN	2	4	0.0565952662433556	0	1	NaN	294	5	42	1	110	210	310	NaN	510	0.554494868498296	2	1	NaN	3792849.7462952	NaN	3792850.7297155	3792851.24625613
109	18	1	0	90	36.1581920903955	36.241610738255	0	0	1	4	5	NaN	1	3	0.0565952662433556	0	1	NaN	295	5	43	1	110	210	310	NaN	510	0.447066268417984	2	0	NaN	3792852.6132606	NaN	3792853.5966404	3792854.11320563
109	18	1	0	90	36.1581920903955	36.241610738255	15	0.500030639860779	2	1	4	NaN	1	3	0.0565952662433556	0	1	NaN	296	5	44	1	120	220	320	NaN	520	0.352084468118846	2	0	NaN	3792855.3802075	NaN	3792856.3635967	3792856.88016133
109	18	1	0	90	36.1581920903955	36.241610738255	17	0.566701391842216	2	8	2	NaN	2	5	0.0565952662433556	0	1	NaN	297	5	45	1	120	220	320	NaN	520	0.373698242474347	2	1	NaN	3792858.0471285	NaN	3792859.0305405	3792859.54707846
109	18	1	0	90	36.1581920903955	36.241610738255	14	0.46669526387006	2	3	4	NaN	1	3	0.0565952662433556	0	1	NaN	298	5	46	1	120	220	320	NaN	520	0.281711268238723	2	0	NaN	3792860.7306207	NaN	3792861.7141234	3792862.23066953
109	18	1	0	90	36.1581920903955	36.241610738255	13	0.433359887879342	2	7	5	NaN	2	3	0.0565952662433556	0	1	NaN	299	5	47	1	120	220	320	NaN	520	0.41748716821894	2	1	NaN	3792863.3309807	NaN	3792864.3144236	3792864.83092433
109	18	1	0	90	36.1581920903955	36.241610738255	7	0.23334763193503	2	1	4	NaN	1	3	0.0565952662433556	0	1	NaN	300	5	48	1	120	220	320	NaN	520	1.00387746794149	1	1	NaN	3792866.0646294	NaN	3792867.0479834	3792867.56452713
109	18	1	0	90	36.1581920903955	36.241610738255	25	0.833384399767965	2	1	5	NaN	1	4	0.0565952662433556	0	1	NaN	301	5	49	1	120	220	320	NaN	520	0.470867720898241	1	1	NaN	3792869.3815809	NaN	3792870.3649642	3792870.88153068
109	18	1	0	90	36.1581920903955	36.241610738255	19	0.633372143823653	2	12	5	NaN	2	5	0.0565952662433556	0	1	NaN	302	5	50	1	120	220	320	NaN	520	0.327613568399101	1	0	NaN	3792872.1651713	NaN	3792873.1485781	3792873.66513363
109	18	1	0	90	36.1581920903955	36.241610738255	19	0.633372143823653	2	7	5	NaN	2	5	0.0565952662433556	0	1	NaN	303	5	51	1	120	220	320	NaN	520	0.4540282683447	2	1	NaN	3792874.7986368	NaN	3792875.7821592	3792876.29872623
109	18	1	0	90	36.1581920903955	36.241610738255	13	0.433359887879342	2	12	2	NaN	2	3	0.0565952662433556	0	1	NaN	304	5	52	1	120	220	320	NaN	520	0.478793573565781	1	0	NaN	3792877.5657243	NaN	3792878.5491023	3792879.06566373
109	18	1	0	90	36.1581920903955	36.241610738255	22	0.733378271795809	2	7	1	NaN	2	4	0.0565952662433556	0	1	NaN	305	5	53	1	120	220	320	NaN	520	0.430589667987078	1	0	NaN	3792880.3658691	NaN	3792881.349378	3792881.86594033
109	18	1	0	90	36.1581920903955	36.241610738255	19	0.633372143823653	2	10	6	NaN	2	5	0.0565952662433556	0	1	NaN	306	5	54	1	120	220	320	NaN	520	0.200305668171495	2	1	NaN	3792883.1162496	NaN	3792884.0996819	3792884.61621253
109	18	1	0	90	36.1581920903955	36.241610738255	25	0.833384399767965	2	6	1	NaN	1	3	0.0565952662433556	0	1	NaN	307	5	55	1	120	220	320	NaN	520	0.379347594454885	1	1	NaN	3792885.6331774	NaN	3792886.6165682	3792887.13313861
109	18	1	0	90	36.1581920903955	36.241610738255	22	0.733378271795809	2	1	2	NaN	1	5	0.0565952662433556	0	1	NaN	308	5	56	1	120	220	320	NaN	520	0.352040768135339	1	1	NaN	3792888.3168095	NaN	3792889.3001708	3792889.81671073
109	18	1	0	90	36.1581920903955	36.241610738255	10	0.333353759907186	2	1	2	NaN	1	3	0.0565952662433556	0	1	NaN	309	5	57	1	120	220	320	NaN	520	0.437023720704019	1	1	NaN	3792890.9836899	NaN	3792891.9669931	3792892.48364598
109	18	1	0	90	36.1581920903955	36.241610738255	25	0.833384399767965	2	11	2	NaN	2	5	0.0565952662433556	0	1	NaN	310	5	58	1	120	220	320	NaN	520	0.814827268011868	1	0	NaN	3792893.7339621	NaN	3792894.7173674	3792895.23391423
109	18	1	0	90	36.1581920903955	36.241610738255	9	0.300018383916467	2	3	6	NaN	1	5	0.0565952662433556	0	1	NaN	311	5	59	1	120	220	320	NaN	520	0.52875261567533	1	1	NaN	3792896.8676054	NaN	3792897.851015	3792898.36755168
109	18	1	0	90	36.1581920903955	36.241610738255	23	0.766713647786528	2	9	2	NaN	2	5	0.0565952662433556	0	1	NaN	312	5	60	1	120	220	320	NaN	520	0.471623594872653	2	1	NaN	3792899.7011609	NaN	3792900.6846156	3792901.20117171
109	18	1	0	90	36.1581920903955	36.241610738255	24	0.800049023777247	2	1	6	NaN	1	4	0.0565952662433556	0	1	NaN	313	5	61	1	120	220	320	NaN	520	2.42406656825915	2	0	NaN	3792902.4848294	NaN	3792903.4682295	3792903.98478143
109	18	1	0	90	36.1581920903955	36.241610738255	0	0	1	12	3	NaN	2	5	0.0565952662433556	0	1	NaN	314	5	62	1	110	210	310	NaN	510	0.193901367951185	2	1	NaN	3792907.2186426	NaN	3792908.2020118	3792908.71857193
109	18	1	0	90	36.1581920903955	36.241610738255	21	0.700042895805091	2	4	1	NaN	1	3	0.0565952662433556	0	1	NaN	315	5	63	1	120	220	320	NaN	520	0.349732968024909	1	1	NaN	3792909.7188789	NaN	3792910.7022752	3792911.21882073
109	18	1	0	90	36.1581920903955	36.241610738255	19	0.633372143823653	2	9	2	NaN	2	3	0.0565952662433556	0	1	NaN	316	6	1	1	120	220	320	NaN	520	0.531263773329556	2	1	NaN	3792930.937618	NaN	3792931.9210536	3792932.43757103
109	18	1	0	90	36.1581920903955	36.241610738255	12	0.400024511888623	2	9	5	NaN	2	3	0.0565952662433556	0	1	NaN	317	6	2	1	120	220	320	NaN	520	0.384880967903882	2	1	NaN	3792933.7879044	NaN	3792934.7713002	3792935.28785073
109	18	1	0	90	36.1581920903955	36.241610738255	13	0.433359887879342	2	5	5	NaN	1	4	0.0565952662433556	0	1	NaN	318	6	3	1	120	220	320	NaN	520	0.348370068240911	1	1	NaN	3792936.4881723	NaN	3792937.4715587	3792937.98810843
109	18	1	0	90	36.1581920903955	36.241610738255	25	0.833384399767965	2	5	6	NaN	1	4	0.0565952662433556	0	1	NaN	319	6	4	1	120	220	320	NaN	520	0.345461267977953	1	1	NaN	3792939.1550894	NaN	3792940.1384829	3792940.65504173
109	18	1	0	90	36.1581920903955	36.241610738255	23	0.766713647786528	2	10	5	NaN	2	4	0.0565952662433556	0	1	NaN	320	6	5	1	120	220	320	NaN	520	0.311400120612234	2	1	NaN	3792941.8053573	NaN	3792942.7887508	3792943.30530688
109	18	1	0	90	36.1581920903955	36.241610738255	20	0.666707519814372	2	2	3	NaN	1	4	0.0565952662433556	0	1	NaN	321	6	6	1	120	220	320	NaN	520	0.366243868134916	1	1	NaN	3792944.4223023	NaN	3792945.4056666	3792945.92222363
109	18	1	0	90	36.1581920903955	36.241610738255	8	0.266683007925749	2	5	6	NaN	1	5	0.0565952662433556	0	1	NaN	322	6	7	1	120	220	320	NaN	520	0.346572568174452	1	1	NaN	3792947.1058776	NaN	3792948.0892874	3792948.60582703
109	18	1	0	90	36.1581920903955	36.241610738255	16	0.533366015851498	2	12	1	NaN	2	4	0.0565952662433556	0	1	NaN	323	6	8	1	120	220	320	NaN	520	0.255767573136836	1	0	NaN	3792949.7728267	NaN	3792950.7562057	3792951.27275373
109	18	1	0	90	36.1581920903955	36.241610738255	22	0.733378271795809	2	12	6	NaN	2	5	0.0565952662433556	0	1	NaN	324	6	9	1	120	220	320	NaN	520	0.280766720883548	1	0	NaN	3792952.3397265	NaN	3792953.3231103	3792953.83967608
109	18	1	0	90	36.1581920903955	36.241610738255	14	0.46669526387006	2	11	5	NaN	2	3	0.0565952662433556	0	1	NaN	325	6	10	1	120	220	320	NaN	520	0.736938068177551	1	0	NaN	3792954.9399877	NaN	3792955.9233793	3792956.43992793
109	18	1	0	90	36.1581920903955	36.241610738255	18	0.600036767832935	2	1	3	NaN	1	3	0.0565952662433556	0	1	NaN	326	6	11	1	120	220	320	NaN	520	0.358186968136579	1	1	NaN	3792957.9902828	NaN	3792958.9736756	3792959.49023253
109	18	1	0	90	36.1581920903955	36.241610738255	6	0.200012255944312	2	12	5	NaN	2	5	0.0565952662433556	0	1	NaN	327	6	12	1	120	220	320	NaN	520	0.531736220698804	1	0	NaN	3792960.6572174	NaN	3792961.6406874	3792962.15718018
109	18	1	0	90	36.1581920903955	36.241610738255	12	0.400024511888623	2	8	5	NaN	2	4	0.0565952662433556	0	1	NaN	328	6	13	1	120	220	320	NaN	520	1.00093476800248	1	0	NaN	3792963.5075033	NaN	3792964.4908869	3792965.00746023
109	18	1	0	90	36.1581920903955	36.241610738255	15	0.500030639860779	2	1	4	NaN	1	3	0.0565952662433556	0	1	NaN	329	6	14	1	120	220	320	NaN	520	0.324128163047135	1	1	NaN	3792966.8244847	NaN	3792967.8079247	3792968.32443114
109	18	1	0	90	36.1581920903955	36.241610738255	25	0.833384399767965	2	7	2	NaN	2	3	0.0565952662433556	0	1	NaN	330	6	15	1	120	220	320	NaN	520	0.450548520777375	2	1	NaN	3792969.458079	NaN	3792970.4414708	3792970.95802598
109	18	1	0	90	36.1581920903955	36.241610738255	13	0.433359887879342	2	7	1	NaN	2	5	0.0565952662433556	0	1	NaN	331	6	16	1	120	220	320	NaN	520	1.77947986265644	1	0	NaN	3792972.2249947	NaN	3792973.208403	3792973.72496054
109	18	1	0	90	36.1581920903955	36.241610738255	13	0.433359887879342	2	11	1	NaN	2	4	0.0565952662433556	0	1	NaN	332	6	17	1	120	220	320	NaN	520	0.679989925585687	2	1	NaN	3792976.3087649	NaN	3792977.2921409	3792977.80868917
109	18	1	0	90	36.1581920903955	36.241610738255	21	0.700042895805091	2	4	6	NaN	1	4	0.0565952662433556	0	1	NaN	333	6	18	1	120	220	320	NaN	520	0.543966867960989	1	1	NaN	3792979.3090555	NaN	3792980.2924249	3792980.80898763
109	18	1	0	90	36.1581920903955	36.241610738255	10	0.333353759907186	2	4	2	NaN	1	3	0.0565952662433556	0	1	NaN	334	6	19	1	120	220	320	NaN	520	0.453644467983395	1	1	NaN	3792982.1592742	NaN	3792983.1427688	3792983.65926963
109	18	1	0	90	36.1581920903955	36.241610738255	14	0.46669526387006	2	2	2	NaN	1	3	0.0565952662433556	0	1	NaN	335	6	20	1	120	220	320	NaN	520	2.15874129440635	1	1	NaN	3792984.9262682	NaN	3792985.9096606	3792986.42622041
109	18	1	0	90	36.1581920903955	36.241610738255	10	0.333353759907186	2	5	4	NaN	1	5	0.0565952662433556	0	1	NaN	336	6	21	1	120	220	320	NaN	520	1.07532592117786	2	0	NaN	3792989.3933557	NaN	3792990.3767612	3792990.89331578
109	18	1	0	90	36.1581920903955	36.241610738255	16	0.533366015851498	2	11	5	NaN	2	5	0.0565952662433556	0	1	NaN	337	6	22	1	120	220	320	NaN	520	0.267985320650041	1	0	NaN	3792992.7769028	NaN	3792993.7604258	3792994.27698128
109	18	1	0	90	36.1581920903955	36.241610738255	12	0.400024511888623	2	1	2	NaN	1	5	0.0565952662433556	0	1	NaN	338	6	23	1	120	220	320	NaN	520	0.524100920651108	1	1	NaN	3792995.3606542	NaN	3792996.3440085	3792996.86056818
109	18	1	0	90	36.1581920903955	36.241610738255	20	0.666707519814372	2	5	3	NaN	1	4	0.0565952662433556	0	1	NaN	339	6	24	1	120	220	320	NaN	520	1.33839126816019	1	1	NaN	3792998.1942508	NaN	3792999.1776499	3792999.69417543
109	18	1	0	90	36.1581920903955	36.241610738255	21	0.700042895805091	2	10	2	NaN	2	5	0.0565952662433556	0	1	NaN	340	6	25	1	120	220	320	NaN	520	2.24834732105955	2	1	NaN	3793001.8445851	NaN	3793002.8279889	3793003.34455518
109	18	1	0	90	36.1581920903955	36.241610738255	17	0.566701391842216	2	8	3	NaN	2	5	0.0565952662433556	0	1	NaN	341	6	26	1	120	220	320	NaN	520	0.42590672057122	1	0	NaN	3793006.3950938	NaN	3793007.3784245	3793007.89498718
109	18	1	0	90	36.1581920903955	36.241610738255	10	0.333353759907186	2	7	4	NaN	2	4	0.0565952662433556	0	1	NaN	342	6	27	1	120	220	320	NaN	520	0.444392020814121	1	0	NaN	3793009.1287331	NaN	3793010.1120327	3793010.62858898
109	18	1	0	90	36.1581920903955	36.241610738255	8	0.266683007925749	2	9	5	NaN	2	3	0.0565952662433556	0	1	NaN	343	6	28	1	120	220	320	NaN	520	0.525741820689291	1	0	NaN	3793011.8788547	NaN	3793012.8622997	3793013.37886178
109	18	1	0	90	36.1581920903955	36.241610738255	6	0.200012255944312	2	3	3	NaN	1	4	0.0565952662433556	0	1	NaN	344	6	29	1	120	220	320	NaN	520	1.0761723681353	1	1	NaN	3793014.7123802	NaN	3793015.6958153	3793016.21246333
109	18	1	0	90	36.1581920903955	36.241610738255	20	0.666707519814372	2	2	4	NaN	1	4	0.0565952662433556	0	1	NaN	345	6	30	1	120	220	320	NaN	520	0.228526568040252	1	1	NaN	3793018.0960437	NaN	3793019.0795718	3793019.59613353
109	18	1	0	90	36.1581920903955	36.241610738255	21	0.700042895805091	2	11	4	NaN	2	3	0.0565952662433556	0	1	NaN	346	6	31	1	120	220	320	NaN	520	0.350178367923945	2	1	NaN	3793020.6464411	NaN	3793021.6298344	3793022.14638573
109	18	1	0	90	36.1581920903955	36.241610738255	22	0.733378271795809	2	3	2	NaN	1	5	0.0565952662433556	0	1	NaN	347	6	32	1	120	220	320	NaN	520	0.555964715778828	1	1	NaN	3793023.2966869	NaN	3793024.2800825	3793024.79663788
109	18	1	0	90	36.1581920903955	36.241610738255	7	0.23334763193503	2	10	2	NaN	2	5	0.0565952662433556	0	1	NaN	348	6	33	1	120	220	320	NaN	520	0.689432872924954	2	1	NaN	3793026.1636303	NaN	3793027.1470519	3793027.66359943
109	18	1	0	90	36.1581920903955	36.241610738255	17	0.566701391842216	2	11	1	NaN	2	5	0.0565952662433556	0	1	NaN	349	6	34	1	120	220	320	NaN	520	0.0104262684471905	2	1	NaN	3793029.1639536	NaN	3793030.1473357	3793030.66388453
109	18	1	0	90	36.1581920903955	36.241610738255	15	0.500030639860779	2	2	6	NaN	1	3	0.0565952662433556	0	1	NaN	350	6	35	1	120	220	320	NaN	520	0.291806368157268	2	0	NaN	3793031.4808298	NaN	3793032.4642134	3793032.98078503
109	18	1	0	90	36.1581920903955	36.241610738255	19	0.633372143823653	2	1	6	NaN	1	5	0.0565952662433556	0	1	NaN	351	6	36	1	120	220	320	NaN	520	0.0356926205568016	1	1	NaN	3793034.08109	NaN	3793035.0644561	3793035.58103928
109	18	1	0	90	36.1581920903955	36.241610738255	6	0.200012255944312	2	10	1	NaN	2	4	0.0565952662433556	0	1	NaN	352	6	37	1	120	220	320	NaN	520	0.22137931548059	2	1	NaN	3793036.4311769	NaN	3793037.4147061	3793037.93126028
109	18	1	0	90	36.1581920903955	36.241610738255	19	0.633372143823653	2	12	5	NaN	2	5	0.0565952662433556	0	1	NaN	353	6	38	1	120	220	320	NaN	520	0.0104060680605471	2	1	NaN	3793038.9648933	NaN	3793039.9482952	3793040.46484233
109	18	1	0	90	36.1581920903955	36.241610738255	8	0.266683007925749	2	2	2	NaN	1	4	0.0565952662433556	0	1	NaN	354	6	39	1	120	220	320	NaN	520	0.922907457686961	2	0	NaN	3793041.2818186	NaN	3793042.2651721	3793042.78175524
109	18	1	0	90	36.1581920903955	36.241610738255	0	0	1	9	2	NaN	2	4	0.0565952662433556	0	1	NaN	355	6	40	1	110	210	310	NaN	510	0.305486368015409	1	0	NaN	3793044.5153212	NaN	3793045.4988741	3793046.01539153
109	18	1	0	90	36.1581920903955	36.241610738255	24	0.800049023777247	2	5	4	NaN	1	5	0.0565952662433556	0	1	NaN	356	6	41	1	120	220	320	NaN	520	0.464237220585346	1	1	NaN	3793047.1323787	NaN	3793048.1157721	3793048.63232078
109	18	1	0	90	36.1581920903955	36.241610738255	24	0.800049023777247	2	11	4	NaN	2	3	0.0565952662433556	0	1	NaN	357	6	42	1	120	220	320	NaN	520	0.577403168193996	2	1	NaN	3793049.8993328	NaN	3793050.8827077	3793051.39925183
109	18	1	0	90	36.1581920903955	36.241610738255	13	0.433359887879342	2	1	6	NaN	1	5	0.0565952662433556	0	1	NaN	358	6	43	1	120	220	320	NaN	520	3.04598352080211	2	0	NaN	3793052.7829229	NaN	3793053.7663354	3793054.28287478
109	18	1	0	90	36.1581920903955	36.241610738255	0	0	1	5	1	NaN	1	5	0.0565952662433556	0	1	NaN	359	6	44	1	110	210	310	NaN	510	0.702429567929357	2	0	NaN	3793058.1501338	NaN	3793059.1335174	3793059.65006283
109	18	1	0	90	36.1581920903955	36.241610738255	17	0.566701391842216	2	12	4	NaN	2	5	0.0565952662433556	0	1	NaN	360	6	45	1	120	220	320	NaN	520	0.429938368033618	1	0	NaN	3793061.1670981	NaN	3793062.1504776	3793062.66703573
109	18	1	0	90	36.1581920903955	36.241610738255	10	0.333353759907186	2	1	3	NaN	1	5	0.0565952662433556	0	1	NaN	361	6	46	1	120	220	320	NaN	520	0.272087067831308	2	0	NaN	3793063.9006796	NaN	3793064.8840877	3793065.40063183
109	18	1	0	90	36.1581920903955	36.241610738255	16	0.533366015851498	2	4	2	NaN	1	5	0.0565952662433556	0	1	NaN	362	6	47	1	120	220	320	NaN	520	0.0104221682995558	1	1	NaN	3793066.4842794	NaN	3793067.4676783	3793067.98422283
109	18	1	0	90	36.1581920903955	36.241610738255	10	0.333353759907186	2	10	1	NaN	2	5	0.0565952662433556	0	1	NaN	363	6	48	1	120	220	320	NaN	520	0.0104079679585993	2	1	NaN	3793068.8012564	NaN	3793069.7845577	3793070.30111633
109	18	1	0	90	36.1581920903955	36.241610738255	21	0.700042895805091	2	6	1	NaN	1	4	0.0565952662433556	0	1	NaN	364	6	49	1	120	220	320	NaN	520	0.382660620845854	1	1	NaN	3793071.1179591	NaN	3793072.1014493	3793072.61800658
109	18	1	0	90	36.1581920903955	36.241610738255	15	0.500030639860779	2	5	6	NaN	1	3	0.0565952662433556	0	1	NaN	365	6	50	1	120	220	320	NaN	520	0.0504516204819083	1	1	NaN	3793073.8183404	NaN	3793074.8017187	3793075.31826808
109	18	1	0	90	36.1581920903955	36.241610738255	22	0.733378271795809	2	2	1	NaN	1	3	0.0565952662433556	0	1	NaN	366	6	51	1	120	220	320	NaN	520	0.283889768179506	1	1	NaN	3793076.1852651	NaN	3793077.1686205	3793077.68517683
109	18	1	0	90	36.1581920903955	36.241610738255	20	0.666707519814372	2	1	1	NaN	1	5	0.0565952662433556	0	1	NaN	367	6	52	1	120	220	320	NaN	520	0.155297468416393	1	1	NaN	3793078.7854976	NaN	3793079.7689459	3793080.28542833
109	18	1	0	90	36.1581920903955	36.241610738255	6	0.200012255944312	2	5	5	NaN	1	5	0.0565952662433556	0	1	NaN	368	6	53	1	120	220	320	NaN	520	0.160765215754509	1	1	NaN	3793081.2522586	NaN	3793082.2357866	3793082.75233208
109	18	1	0	90	36.1581920903955	36.241610738255	12	0.400024511888623	2	7	4	NaN	2	5	0.0565952662433556	0	1	NaN	369	6	54	1	120	220	320	NaN	520	0.380802368279546	2	1	NaN	3793083.735965	NaN	3793084.7194259	3793085.23590903
109	18	1	0	90	36.1581920903955	36.241610738255	15	0.500030639860779	2	7	4	NaN	2	4	0.0565952662433556	0	1	NaN	370	6	55	1	120	220	320	NaN	520	2.23289276799187	2	1	NaN	3793086.4362317	NaN	3793087.4196352	3793087.93617843
109	18	1	0	90	36.1581920903955	36.241610738255	9	0.300018383916467	2	12	4	NaN	2	5	0.0565952662433556	0	1	NaN	371	6	56	1	120	220	320	NaN	520	1.89039646834135	1	0	NaN	3793090.9866954	NaN	3793091.9700592	3793092.48662093
109	18	1	0	90	36.1581920903955	36.241610738255	6	0.200012255944312	2	9	2	NaN	2	5	0.0565952662433556	0	1	NaN	372	6	57	1	120	220	320	NaN	520	0.705975815653801	1	0	NaN	3793095.1871073	NaN	3793096.1704869	3793096.68703358
109	18	1	0	90	36.1581920903955	36.241610738255	21	0.700042895805091	2	7	6	NaN	2	3	0.0565952662433556	0	1	NaN	373	6	58	1	120	220	320	NaN	520	0.416857568081468	2	1	NaN	3793098.204071	NaN	3793099.1874422	3793099.70399593
109	18	1	0	90	36.1581920903955	36.241610738255	23	0.766713647786528	2	2	5	NaN	1	5	0.0565952662433556	0	1	NaN	374	6	59	1	120	220	320	NaN	520	0.411107815802097	1	1	NaN	3793100.9376585	NaN	3793101.9210192	3793102.43760818
109	18	1	0	90	36.1581920903955	36.241610738255	6	0.200012255944312	2	8	2	NaN	2	3	0.0565952662433556	0	1	NaN	375	6	60	1	120	220	320	NaN	520	0.230347968172282	1	0	NaN	3793103.6545844	NaN	3793104.6379677	3793105.15453533
109	18	1	0	90	36.1581920903955	36.241610738255	14	0.46669526387006	2	8	3	NaN	2	5	0.0565952662433556	0	1	NaN	376	6	61	1	120	220	320	NaN	520	1.1727755679749	1	0	NaN	3793106.2880506	NaN	3793107.271581	3793107.78812883
109	18	1	0	90	36.1581920903955	36.241610738255	7	0.23334763193503	2	12	2	NaN	2	3	0.0565952662433556	0	1	NaN	377	6	62	1	120	220	320	NaN	520	2.48132886830717	1	0	NaN	3793109.7718648	NaN	3793110.7552422	3793111.27180203
109	18	1	0	90	36.1581920903955	36.241610738255	7	0.23334763193503	2	8	1	NaN	2	4	0.0565952662433556	0	1	NaN	378	6	63	1	120	220	320	NaN	520	0.456486468203366	1	0	NaN	3793114.5723276	NaN	3793115.5557207	3793116.07228183
109	18	1	0	90	36.1581920903955	36.241610738255	0	0	1	10	1	NaN	2	5	0.0565952662433556	0	1	NaN	379	7	1	1	110	210	310	NaN	510	0.878878420684487	2	1	NaN	3793136.9578589	NaN	3793137.9412474	3793138.45780828
109	18	1	0	90	36.1581920903955	36.241610738255	14	0.46669526387006	2	3	3	NaN	1	3	0.0565952662433556	0	1	NaN	380	7	2	1	120	220	320	NaN	520	0.614604400005192	2	0	NaN	3793140.15819	NaN	3793141.14157	3793141.6581468
109	18	1	0	90	36.1581920903955	36.241610738255	19	0.633372143823653	2	8	6	NaN	2	3	0.0565952662433556	0	1	NaN	381	7	3	1	120	220	320	NaN	520	0.417458068113774	2	1	NaN	3793143.0917301	NaN	3793144.0751905	3793144.59174343
109	18	1	0	90	36.1581920903955	36.241610738255	18	0.600036767832935	2	2	6	NaN	1	3	0.0565952662433556	0	1	NaN	382	7	4	1	120	220	320	NaN	520	0.515852020587772	2	0	NaN	3793145.8253733	NaN	3793146.8087875	3793147.32535258
109	18	1	0	90	36.1581920903955	36.241610738255	24	0.800049023777247	2	6	4	NaN	1	3	0.0565952662433556	0	1	NaN	383	7	5	1	120	220	320	NaN	520	0.377710667904466	1	1	NaN	3793148.659018	NaN	3793149.6424576	3793150.15895313
109	18	1	0	90	36.1581920903955	36.241610738255	21	0.700042895805091	2	10	4	NaN	2	5	0.0565952662433556	0	1	NaN	384	7	6	1	120	220	320	NaN	520	0.390171568375081	2	1	NaN	3793151.3426013	NaN	3793152.3259976	3793152.84255353
109	18	1	0	90	36.1581920903955	36.241610738255	16	0.533366015851498	2	1	3	NaN	1	5	0.0565952662433556	0	1	NaN	385	7	7	1	120	220	320	NaN	520	0.514291026163846	1	1	NaN	3793154.0428678	NaN	3793155.0262626	3793155.54281357
109	18	1	0	90	36.1581920903955	36.241610738255	11	0.366689135897905	2	2	4	NaN	1	4	0.0565952662433556	0	1	NaN	386	7	8	1	120	220	320	NaN	520	0.672306710388511	1	1	NaN	3793156.8764915	NaN	3793157.8599045	3793158.37643299
109	18	1	0	90	36.1581920903955	36.241610738255	13	0.433359887879342	2	10	5	NaN	2	5	0.0565952662433556	0	1	NaN	387	7	9	1	120	220	320	NaN	520	0.521144068334252	1	0	NaN	3793159.8601136	NaN	3793160.8434937	3793161.36005433
109	18	1	0	90	36.1581920903955	36.241610738255	18	0.600036767832935	2	4	6	NaN	1	4	0.0565952662433556	0	1	NaN	388	7	10	1	120	220	320	NaN	520	0.374965073540807	2	0	NaN	3793162.6935909	NaN	3793163.6771167	3793164.19367243
109	18	1	0	90	36.1581920903955	36.241610738255	7	0.23334763193503	2	2	2	NaN	1	4	0.0565952662433556	0	1	NaN	389	7	11	1	120	220	320	NaN	520	0.0104088680818677	1	1	NaN	3793166.377026	NaN	3793167.3608078	3793167.87737083
109	18	1	0	90	36.1581920903955	36.241610738255	25	0.833384399767965	2	4	2	NaN	1	5	0.0565952662433556	0	1	NaN	390	7	12	1	120	220	320	NaN	520	0.126438968349248	1	1	NaN	3793168.6942248	NaN	3793169.6777031	3793170.19426033
109	18	1	0	90	36.1581920903955	36.241610738255	22	0.733378271795809	2	11	6	NaN	2	5	0.0565952662433556	0	1	NaN	391	7	13	1	120	220	320	NaN	520	0.0104247154667974	2	1	NaN	3793171.1445457	NaN	3793172.1279634	3793172.64449108
109	18	1	0	90	36.1581920903955	36.241610738255	21	0.700042895805091	2	6	5	NaN	1	3	0.0565952662433556	0	1	NaN	392	7	14	1	120	220	320	NaN	520	0.0103914733044803	1	1	NaN	3793173.4781159	NaN	3793174.4615115	3793174.97806593
109	18	1	0	90	36.1581920903955	36.241610738255	0	0	1	12	1	NaN	2	3	0.0565952662433556	0	1	NaN	393	7	15	1	110	210	310	NaN	510	0.202032515313476	2	1	NaN	3793175.7950068	NaN	3793176.778421	3793177.29495778
109	18	1	0	90	36.1581920903955	36.241610738255	0	0	1	3	5	NaN	1	5	0.0565952662433556	0	1	NaN	394	7	16	1	110	210	310	NaN	510	1.42091826815158	1	1	NaN	3793178.3119166	NaN	3793179.2953223	3793179.81187783
109	18	1	0	90	36.1581920903955	36.241610738255	0	0	1	5	3	NaN	1	3	0.0565952662433556	0	1	NaN	395	7	17	1	110	210	310	NaN	510	0.119274394586682	1	1	NaN	3793182.0456174	NaN	3793183.0290324	3793183.54557521
109	18	1	0	90	36.1581920903955	36.241610738255	23	0.766713647786528	2	11	6	NaN	2	3	0.0565952662433556	0	1	NaN	396	7	18	1	120	220	320	NaN	520	0.453833368141204	1	0	NaN	3793184.4791013	NaN	3793185.4625895	3793185.97914023
109	18	1	0	90	36.1581920903955	36.241610738255	6	0.200012255944312	2	5	1	NaN	1	5	0.0565952662433556	0	1	NaN	397	7	19	1	120	220	320	NaN	520	1.63072546804324	1	1	NaN	3793187.2461205	NaN	3793188.2295391	3793188.74609343
109	18	1	0	90	36.1581920903955	36.241610738255	18	0.600036767832935	2	3	5	NaN	1	4	0.0565952662433556	0	1	NaN	398	7	20	1	120	220	320	NaN	520	1.38454294204712	1	1	NaN	3793191.1965225	NaN	3793192.1799039	3793192.69647026
109	18	1	0	90	36.1581920903955	36.241610738255	20	0.666707519814372	2	10	2	NaN	2	4	0.0565952662433556	0	1	NaN	399	7	21	1	120	220	320	NaN	520	0.996332268230617	2	1	NaN	3793194.8967524	NaN	3793195.8803331	3793196.39683523
109	18	1	0	90	36.1581920903955	36.241610738255	23	0.766713647786528	2	7	4	NaN	2	3	0.0565952662433556	0	1	NaN	400	7	22	1	120	220	320	NaN	520	1.2960923681967	2	1	NaN	3793198.1973648	NaN	3793199.1806109	3793199.69715663
109	18	1	0	90	36.1581920903955	36.241610738255	8	0.266683007925749	2	12	2	NaN	2	4	0.0565952662433556	0	1	NaN	401	7	23	1	120	220	320	NaN	520	1.07954396819696	1	0	NaN	3793201.7975664	NaN	3793202.7809648	3793203.29750373
109	18	1	0	90	36.1581920903955	36.241610738255	13	0.433359887879342	2	4	4	NaN	1	3	0.0565952662433556	0	1	NaN	402	7	24	1	120	220	320	NaN	520	0.279932315461338	2	0	NaN	3793205.1810813	NaN	3793206.1646125	3793206.68117138
109	18	1	0	90	36.1581920903955	36.241610738255	18	0.600036767832935	2	8	6	NaN	2	4	0.0565952662433556	0	1	NaN	403	7	25	1	120	220	320	NaN	520	0.935506820678711	2	1	NaN	3793207.7814861	NaN	3793208.7648795	3793209.28145598
109	18	1	0	90	36.1581920903955	36.241610738255	8	0.266683007925749	2	4	6	NaN	1	4	0.0565952662433556	0	1	NaN	404	7	26	1	120	220	320	NaN	520	0.461165394634008	1	1	NaN	3793211.031801	NaN	3793212.0151887	3793212.53175481
109	18	1	0	90	36.1581920903955	36.241610738255	16	0.533366015851498	2	2	5	NaN	1	3	0.0565952662433556	0	1	NaN	405	7	27	1	120	220	320	NaN	520	0.342211220879108	1	1	NaN	3793213.7987292	NaN	3793214.7821474	3793215.29869568
109	18	1	0	90	36.1581920903955	36.241610738255	12	0.400024511888623	2	2	5	NaN	1	5	0.0565952662433556	0	1	NaN	406	7	28	1	120	220	320	NaN	520	0.548481567762792	1	1	NaN	3793216.4488765	NaN	3793217.4323821	3793217.94896023
109	18	1	0	90	36.1581920903955	36.241610738255	14	0.46669526387006	2	4	3	NaN	1	4	0.0565952662433556	0	1	NaN	407	7	29	1	120	220	320	NaN	520	4.161240268033	1	1	NaN	3793219.3159495	NaN	3793220.2993511	3793220.81589873
109	18	1	0	90	36.1581920903955	36.241610738255	23	0.766713647786528	2	1	4	NaN	1	3	0.0565952662433556	0	1	NaN	408	7	30	1	120	220	320	NaN	520	0.71735505759716	1	1	NaN	3793225.7999423	NaN	3793226.7833136	3793227.29986944
109	18	1	0	90	36.1581920903955	36.241610738255	21	0.700042895805091	2	9	6	NaN	2	3	0.0565952662433556	0	1	NaN	409	7	31	1	120	220	320	NaN	520	3.18778056791052	2	1	NaN	3793228.8335493	NaN	3793229.8169573	3793230.33350063
109	18	1	0	90	36.1581920903955	36.241610738255	19	0.633372143823653	2	11	6	NaN	2	4	0.0565952662433556	0	1	NaN	410	7	32	1	120	220	320	NaN	520	0.374808768276125	2	1	NaN	3793234.3339767	NaN	3793235.3174838	3793235.83404493
109	18	1	0	90	36.1581920903955	36.241610738255	25	0.833384399767965	2	9	1	NaN	2	5	0.0565952662433556	0	1	NaN	411	7	33	1	120	220	320	NaN	520	0.0435731154866517	2	1	NaN	3793237.017659	NaN	3793238.0010836	3793238.51762788
109	18	1	0	90	36.1581920903955	36.241610738255	7	0.23334763193503	2	6	3	NaN	1	4	0.0565952662433556	0	1	NaN	412	7	34	1	120	220	320	NaN	520	0.325493768323213	1	1	NaN	3793239.3679322	NaN	3793240.351313	3793240.86786403
109	18	1	0	90	36.1581920903955	36.241610738255	18	0.600036767832935	2	10	4	NaN	2	3	0.0565952662433556	0	1	NaN	413	7	35	1	120	220	320	NaN	520	0.627509120851755	2	1	NaN	3793242.001375	NaN	3793242.9849211	3793243.50145668
109	18	1	0	90	36.1581920903955	36.241610738255	21	0.700042895805091	2	7	5	NaN	2	3	0.0565952662433556	0	1	NaN	414	7	36	1	120	220	320	NaN	520	0.477784268092364	2	1	NaN	3793244.9351578	NaN	3793245.9185338	3793246.43507753
109	18	1	0	90	36.1581920903955	36.241610738255	24	0.800049023777247	2	7	3	NaN	2	4	0.0565952662433556	0	1	NaN	415	7	37	1	120	220	320	NaN	520	0.0542357205413282	2	1	NaN	3793247.7187322	NaN	3793248.7021456	3793249.21868748
109	18	1	0	90	36.1581920903955	36.241610738255	22	0.733378271795809	2	9	3	NaN	2	4	0.0565952662433556	0	1	NaN	416	7	38	1	120	220	320	NaN	520	0.639356015250087	1	0	NaN	3793250.0856234	NaN	3793251.0690236	3793251.58558348
109	18	1	0	90	36.1581920903955	36.241610738255	20	0.666707519814372	2	11	6	NaN	2	3	0.0565952662433556	0	1	NaN	417	7	39	1	120	220	320	NaN	520	0.969041367992759	2	1	NaN	3793253.0358788	NaN	3793254.0193262	3793254.53587093
109	18	1	0	90	36.1581920903955	36.241610738255	11	0.366689135897905	2	11	1	NaN	2	5	0.0565952662433556	0	1	NaN	418	7	40	1	120	220	320	NaN	520	0.773545626085252	2	1	NaN	3793256.3194783	NaN	3793257.3029759	3793257.81953147
109	18	1	0	90	36.1581920903955	36.241610738255	11	0.366689135897905	2	7	1	NaN	2	4	0.0565952662433556	0	1	NaN	419	7	41	1	120	220	320	NaN	520	0.746048868168145	1	0	NaN	3793259.4032096	NaN	3793260.3866222	3793260.90317123
109	18	1	0	90	36.1581920903955	36.241610738255	18	0.600036767832935	2	12	6	NaN	2	5	0.0565952662433556	0	1	NaN	420	7	42	1	120	220	320	NaN	520	5.6474206680432	1	0	NaN	3793262.4535417	NaN	3793263.4369146	3793263.95346543
109	18	1	0	90	36.1581920903955	36.241610738255	8	0.266683007925749	2	1	1	NaN	1	3	0.0565952662433556	0	1	NaN	421	7	43	1	120	220	320	NaN	520	4.4880820158869	2	0	NaN	3793270.4209655	NaN	3793271.404361	3793271.92091218
109	18	1	0	90	36.1581920903955	36.241610738255	15	0.500030639860779	2	4	5	NaN	1	4	0.0565952662433556	0	1	NaN	422	7	44	1	120	220	320	NaN	520	1.16750421561301	1	1	NaN	3793277.2216332	NaN	3793278.2050248	3793278.72158438
109	18	1	0	90	36.1581920903955	36.241610738255	24	0.800049023777247	2	3	2	NaN	1	4	0.0565952662433556	0	1	NaN	423	7	45	1	120	220	320	NaN	520	0.443772167898715	1	1	NaN	3793280.7053142	NaN	3793281.6887193	3793282.20525423
109	18	1	0	90	36.1581920903955	36.241610738255	13	0.433359887879342	2	8	2	NaN	2	4	0.0565952662433556	0	1	NaN	424	7	46	1	120	220	320	NaN	520	1.5335678732954	1	0	NaN	3793283.4556008	NaN	3793284.4389728	3793284.95553843
109	18	1	0	90	36.1581920903955	36.241610738255	22	0.733378271795809	2	1	1	NaN	1	3	0.0565952662433556	0	1	NaN	425	7	47	1	120	220	320	NaN	520	0.627398220822215	1	1	NaN	3793287.3059601	NaN	3793288.2893623	3793288.80590978
109	18	1	0	90	36.1581920903955	36.241610738255	23	0.766713647786528	2	11	6	NaN	2	5	0.0565952662433556	0	1	NaN	426	7	48	1	120	220	320	NaN	520	0.477541915606707	2	1	NaN	3793290.2395825	NaN	3793291.2229705	3793291.73952758
109	18	1	0	90	36.1581920903955	36.241610738255	10	0.333353759907186	2	10	3	NaN	2	5	0.0565952662433556	0	1	NaN	427	7	49	1	120	220	320	NaN	520	0.293212799821049	1	0	NaN	3793293.0398669	NaN	3793294.0232629	3793294.5398356
109	18	1	0	90	36.1581920903955	36.241610738255	17	0.566701391842216	2	10	2	NaN	2	4	0.0565952662433556	0	1	NaN	428	7	50	1	120	220	320	NaN	520	0.340838168282062	1	0	NaN	3793295.6399881	NaN	3793296.6234991	3793297.14005833
109	18	1	0	90	36.1581920903955	36.241610738255	10	0.333353759907186	2	7	1	NaN	2	4	0.0565952662433556	0	1	NaN	429	7	51	1	120	220	320	NaN	520	0.82531052082777	1	0	NaN	3793298.3236944	NaN	3793299.3070077	3793299.82365748
109	18	1	0	90	36.1581920903955	36.241610738255	9	0.300018383916467	2	4	1	NaN	1	3	0.0565952662433556	0	1	NaN	430	7	52	1	120	220	320	NaN	520	0.37953646807	1	1	NaN	3793301.457354	NaN	3793302.4407349	3793302.95729823
109	18	1	0	90	36.1581920903955	36.241610738255	8	0.266683007925749	2	9	4	NaN	2	4	0.0565952662433556	0	1	NaN	431	7	53	1	120	220	320	NaN	520	0.375780520960689	1	0	NaN	3793304.157633	NaN	3793305.1410028	3793305.65755908
109	18	1	0	90	36.1581920903955	36.241610738255	15	0.500030639860779	2	12	6	NaN	2	3	0.0565952662433556	0	1	NaN	432	7	54	1	120	220	320	NaN	520	0.403873015660793	1	0	NaN	3793306.8412339	NaN	3793307.8246026	3793308.34116518
109	18	1	0	90	36.1581920903955	36.241610738255	6	0.200012255944312	2	2	3	NaN	1	3	0.0565952662433556	0	1	NaN	433	7	55	1	120	220	320	NaN	520	0.398883268237114	2	0	NaN	3793309.5581557	NaN	3793310.5415567	3793311.05809903
109	18	1	0	90	36.1581920903955	36.241610738255	9	0.300018383916467	2	2	1	NaN	1	3	0.0565952662433556	0	1	NaN	434	7	56	1	120	220	320	NaN	520	0.338292167987674	2	0	NaN	3793312.2750922	NaN	3793313.2584603	3793313.77502253
109	18	1	0	90	36.1581920903955	36.241610738255	16	0.533366015851498	2	10	4	NaN	2	5	0.0565952662433556	0	1	NaN	435	7	57	1	120	220	320	NaN	520	0.168197294697165	2	1	NaN	3793314.9254298	NaN	3793315.9087362	3793316.42529251
109	18	1	0	90	36.1581920903955	36.241610738255	16	0.533366015851498	2	10	4	NaN	2	3	0.0565952662433556	0	1	NaN	436	7	58	1	120	220	320	NaN	520	0.756089167669415	2	1	NaN	3793317.4089172	NaN	3793318.3923087	3793318.90886053
109	18	1	0	90	36.1581920903955	36.241610738255	7	0.23334763193503	2	5	5	NaN	1	4	0.0565952662433556	0	1	NaN	437	7	59	1	120	220	320	NaN	520	0.401576520875096	1	1	NaN	3793320.4757643	NaN	3793321.4592957	3793321.97582928
109	18	1	0	90	36.1581920903955	36.241610738255	24	0.800049023777247	2	12	3	NaN	2	3	0.0565952662433556	0	1	NaN	438	7	60	1	120	220	320	NaN	520	0.220627368427813	2	1	NaN	3793323.1928406	NaN	3793324.1762195	3793324.69276883
109	18	1	0	90	36.1581920903955	36.241610738255	11	0.366689135897905	2	11	5	NaN	2	3	0.0565952662433556	0	1	NaN	439	7	61	1	120	220	320	NaN	520	0.0948191895149648	1	0	NaN	3793325.7262826	NaN	3793326.7098065	3793327.22635631
109	18	1	0	90	36.1581920903955	36.241610738255	7	0.23334763193503	2	3	1	NaN	1	4	0.0565952662433556	0	1	NaN	440	7	62	1	120	220	320	NaN	520	0.326801694463938	2	0	NaN	3793328.1265032	NaN	3793329.1100201	3793329.62658941
109	18	1	0	90	36.1581920903955	36.241610738255	7	0.23334763193503	2	9	5	NaN	2	4	0.0565952662433556	0	1	NaN	441	7	63	1	120	220	320	NaN	520	0.0368384681642056	2	1	NaN	3793330.760161	NaN	3793331.7436348	3793332.26018253
109	18	1	0	90	36.1581920903955	36.241610738255	0	0	1	6	1	NaN	1	5	0.0565952662433556	0	1	NaN	442	8	1	1	110	210	310	NaN	510	0.0104109682142735	1	1	NaN	3793344.0115756	NaN	3793344.9949327	3793345.51147563
109	18	1	0	90	36.1581920903955	36.241610738255	12	0.400024511888623	2	6	2	NaN	1	5	0.0565952662433556	0	1	NaN	443	8	2	1	120	220	320	NaN	520	2.05310656828806	1	1	NaN	3793346.3284137	NaN	3793347.3118143	3793347.82836953
109	18	1	0	90	36.1581920903955	36.241610738255	10	0.333353759907186	2	3	4	NaN	1	3	0.0565952662433556	0	1	NaN	444	8	3	1	120	220	320	NaN	520	0.181650668382645	2	0	NaN	3793350.6955363	NaN	3793351.6789039	3793352.19547323
109	18	1	0	90	36.1581920903955	36.241610738255	23	0.766713647786528	2	7	5	NaN	2	5	0.0565952662433556	0	1	NaN	445	8	4	1	120	220	320	NaN	520	0.233310168143362	2	1	NaN	3793353.1957822	NaN	3793354.179171	3793354.69570963
109	18	1	0	90	36.1581920903955	36.241610738255	25	0.833384399767965	2	9	1	NaN	2	4	0.0565952662433556	0	1	NaN	446	8	5	1	120	220	320	NaN	520	0.115175668150187	2	1	NaN	3793355.7460165	NaN	3793356.7294275	3793357.24596453
109	18	1	0	90	36.1581920903955	36.241610738255	17	0.566701391842216	2	9	6	NaN	2	5	0.0565952662433556	0	1	NaN	447	8	6	1	120	220	320	NaN	520	0.257654915563762	2	1	NaN	3793358.1795891	NaN	3793359.1629944	3793359.67953778
109	18	1	0	90	36.1581920903955	36.241610738255	14	0.46669526387006	2	5	1	NaN	1	4	0.0565952662433556	0	1	NaN	448	8	7	1	120	220	320	NaN	520	0.0506486422382295	1	1	NaN	3793360.7464811	NaN	3793361.7298882	3793362.24646056
109	18	1	0	90	36.1581920903955	36.241610738255	6	0.200012255944312	2	12	1	NaN	2	5	0.0565952662433556	0	1	NaN	449	8	8	1	120	220	320	NaN	520	0.010379973333329	2	1	NaN	3793363.1133191	NaN	3793364.0968026	3793364.61335843
109	18	1	0	90	36.1581920903955	36.241610738255	15	0.500030639860779	2	6	5	NaN	1	3	0.0565952662433556	0	1	NaN	450	8	9	1	120	220	320	NaN	520	0.286088120657951	1	1	NaN	3793365.446961	NaN	3793366.4303648	3793366.94692008
109	18	1	0	90	36.1581920903955	36.241610738255	15	0.500030639860779	2	8	3	NaN	2	3	0.0565952662433556	0	1	NaN	451	8	10	1	120	220	320	NaN	520	0.133940568193793	1	0	NaN	3793368.0472301	NaN	3793369.0306212	3793369.54716603
109	18	1	0	90	36.1581920903955	36.241610738255	22	0.733378271795809	2	2	5	NaN	1	5	0.0565952662433556	0	1	NaN	452	8	11	1	120	220	320	NaN	520	0.0278540309518576	1	1	NaN	3793370.4974725	NaN	3793371.4808636	3793371.99741217
109	18	1	0	90	36.1581920903955	36.241610738255	17	0.566701391842216	2	2	6	NaN	1	3	0.0565952662433556	0	1	NaN	453	8	12	1	120	220	320	NaN	520	0.309800867922604	2	0	NaN	3793372.8477079	NaN	3793373.831079	3793374.34764273
109	18	1	0	90	36.1581920903955	36.241610738255	0	0	1	4	3	NaN	1	5	0.0565952662433556	0	1	NaN	454	8	13	1	110	210	310	NaN	510	0.108648620545864	2	0	NaN	3793375.46462	NaN	3793376.4480134	3793376.96457198
109	18	1	0	90	36.1581920903955	36.241610738255	8	0.266683007925749	2	12	2	NaN	2	4	0.0565952662433556	0	1	NaN	455	8	14	1	120	220	320	NaN	520	0.0103943208232522	2	1	NaN	3793377.8814078	NaN	3793378.8649111	3793379.38147538
109	18	1	0	90	36.1581920903955	36.241610738255	12	0.400024511888623	2	4	4	NaN	1	5	0.0565952662433556	0	1	NaN	456	8	15	1	120	220	320	NaN	520	0.0104078683070838	1	1	NaN	3793380.1984269	NaN	3793381.181813	3793381.69836263
