subjno	age	gender	isPractice	viewdist	CmToPixX	CmToPixY	SOA_frm	SOA_time	targNum	targID	targExample	targRace	targGender	firstTargPos	contrast	familiarity	curr_staircase	iStair	TrialNum	BlockNum	blktrl	sessionNum	TC_FIXATION	TC_RSVP_START	TC_RSVP_END	TC_BLANK	TC_RESPONSE_ONSET	RT2afc	resp_2afc	acc	RSVPOnsetVBL	RSVPOnsetTime	RSVPOffsetVBL	RSVPOffsetTime	startrt_2afc
13	21	0	0	90	36.1581920903955	36.241610738255	15	0.500052959751338	2	3	5	NaN	1	5	0.0528131511792984	1	1	NaN	1	1	1	2	121	221	321	NaN	521	0.9549141805619	1	1	NaN	2498532.2596132	NaN	2498533.242881	2498533.77598442
13	21	0	0	90	36.1581920903955	36.241610738255	13	0.433379231784493	2	7	4	NaN	2	3	0.0528131511792984	1	1	NaN	2	1	2	2	121	221	321	NaN	521	0.213169232476503	2	1	NaN	2498535.5932199	NaN	2498536.5765087	2498537.10964687
13	21	0	0	90	36.1581920903955	36.241610738255	21	0.700074143651873	2	11	5	NaN	2	4	0.0528131511792984	1	1	NaN	3	1	3	2	121	221	321	NaN	521	0.247452432755381	2	1	NaN	2498538.1432673	NaN	2498539.1267143	2498539.64322237
13	21	0	0	90	36.1581920903955	36.241610738255	13	0.433379231784493	2	11	2	NaN	2	3	0.0528131511792984	1	1	NaN	4	1	4	2	121	221	321	NaN	521	0.326352380216122	2	1	NaN	2498541.1768457	NaN	2498542.1602866	2498542.67685712
13	21	0	0	90	36.1581920903955	36.241610738255	9	0.300031775850803	2	10	5	NaN	2	4	0.0528131511792984	1	1	NaN	5	1	5	2	121	221	321	NaN	521	0.155543924309313	2	1	NaN	2498543.8270519	NaN	2498544.810567	2498545.32711468
13	21	0	0	90	36.1581920903955	36.241610738255	13	0.433379231784493	2	10	2	NaN	2	3	0.0528131511792984	1	1	NaN	6	1	6	2	121	221	321	NaN	521	0.200487828347832	2	1	NaN	2498546.3107292	NaN	2498547.2941199	2498547.81068727
13	21	0	0	90	36.1581920903955	36.241610738255	6	0.200021183900535	2	9	3	NaN	2	5	0.0528131511792984	1	1	NaN	7	1	7	2	121	221	321	NaN	521	0.195050576236099	2	1	NaN	2498548.8276402	NaN	2498549.8110583	2498550.32759672
13	21	0	0	90	36.1581920903955	36.241610738255	13	0.433379231784493	2	9	3	NaN	2	5	0.0528131511792984	1	1	NaN	8	1	8	2	121	221	321	NaN	521	0.151914076879621	2	1	NaN	2498551.5113083	NaN	2498552.4946497	2498553.01119442
13	21	0	0	90	36.1581920903955	36.241610738255	18	0.600063551701605	2	2	1	NaN	1	4	0.0528131511792984	1	1	NaN	9	1	9	2	121	221	321	NaN	521	0.212670824024826	1	1	NaN	2498553.9781185	NaN	2498554.9615985	2498555.47810408
13	21	0	0	90	36.1581920903955	36.241610738255	15	0.500052959751338	2	5	4	NaN	1	4	0.0528131511792984	1	1	NaN	10	1	10	2	121	221	321	NaN	521	0.245528628118336	1	1	NaN	2498556.761745	NaN	2498557.7451589	2498558.26171487
13	21	0	0	90	36.1581920903955	36.241610738255	17	0.566726687718183	2	1	5	NaN	1	4	0.0528131511792984	1	1	NaN	11	1	11	2	121	221	321	NaN	521	0.200494780670851	1	1	NaN	2498559.478606	NaN	2498560.4620996	2498560.97865592
13	21	0	0	90	36.1581920903955	36.241610738255	25	0.833421599585563	2	1	2	NaN	1	3	0.0528131511792984	1	1	NaN	12	1	12	2	121	221	321	NaN	521	0.355257580522448	1	1	NaN	2498561.9956276	NaN	2498562.9790135	2498563.49557052
13	21	0	0	90	36.1581920903955	36.241610738255	16	0.53338982373476	2	9	6	NaN	2	5	0.0528131511792984	1	1	NaN	13	1	13	2	121	221	321	NaN	521	0.192107076290995	2	1	NaN	2498564.8625388	NaN	2498565.8459584	2498566.36251672
13	21	0	0	90	36.1581920903955	36.241610738255	25	0.833421599585563	2	10	5	NaN	2	4	0.0528131511792984	1	1	NaN	14	1	14	2	121	221	321	NaN	521	0.34485022816807	2	1	NaN	2498567.4461596	NaN	2498568.4295551	2498568.94609437
13	21	0	0	90	36.1581920903955	36.241610738255	8	0.26669491186738	2	5	4	NaN	1	5	0.0528131511792984	1	1	NaN	15	1	15	2	121	221	321	NaN	521	0.231187276542187	1	1	NaN	2498570.279738	NaN	2498571.263053	2498571.77970442
13	21	0	0	90	36.1581920903955	36.241610738255	16	0.53338982373476	2	10	4	NaN	2	5	0.0528131511792984	1	1	NaN	16	1	16	2	121	221	321	NaN	521	0.250581528060138	2	1	NaN	2498572.9966779	NaN	2498573.9800933	2498574.49664747
13	21	0	0	90	36.1581920903955	36.241610738255	0	0	1	8	1	NaN	2	5	0.0528131511792984	1	1	NaN	17	1	17	2	111	211	311	NaN	511	0.123670228291303	2	1	NaN	2498575.5634693	NaN	2498576.5470366	2498577.06356717
13	21	0	0	90	36.1581920903955	36.241610738255	20	0.66673727966845	2	5	1	NaN	1	3	0.0528131511792984	1	1	NaN	18	1	18	2	121	221	321	NaN	521	0.153744687791914	1	1	NaN	2498577.9971856	NaN	2498578.9805627	2498579.49713121
13	21	0	0	90	36.1581920903955	36.241610738255	22	0.733411007635295	2	5	1	NaN	1	5	0.0528131511792984	1	1	NaN	19	1	19	2	121	221	321	NaN	521	0.103556888177991	1	1	NaN	2498580.6474552	NaN	2498581.6308611	2498582.14739531
13	21	0	0	90	36.1581920903955	36.241610738255	6	0.200021183900535	2	3	4	NaN	1	3	0.0528131511792984	1	1	NaN	20	1	20	2	121	221	321	NaN	521	0.185217176564038	1	1	NaN	2498583.1976765	NaN	2498584.1810952	2498584.69764352
13	21	0	0	90	36.1581920903955	36.241610738255	9	0.300031775850803	2	9	1	NaN	2	5	0.0528131511792984	1	1	NaN	21	1	21	2	121	221	321	NaN	521	0.693252176512033	2	1	NaN	2498585.6979295	NaN	2498586.6812647	2498587.19788662
13	21	0	0	90	36.1581920903955	36.241610738255	20	0.66673727966845	2	4	5	NaN	1	3	0.0528131511792984	1	1	NaN	22	1	22	2	121	221	321	NaN	521	0.384419576264918	1	1	NaN	2498590.7984201	NaN	2498591.7818409	2498592.29839422
13	21	0	0	90	36.1581920903955	36.241610738255	13	0.433379231784493	2	6	1	NaN	1	5	0.0528131511792984	1	1	NaN	23	1	23	2	121	221	321	NaN	521	0.636261876672506	1	1	NaN	2498593.4987081	NaN	2498594.4821024	2498594.99865052
13	21	0	0	90	36.1581920903955	36.241610738255	14	0.466716095767915	2	9	4	NaN	2	5	0.0528131511792984	1	1	NaN	24	1	24	2	121	221	321	NaN	521	0.198476528283209	2	1	NaN	2498598.2324773	NaN	2498599.2159038	2498599.73245647
13	21	0	0	90	36.1581920903955	36.241610738255	9	0.300031775850803	2	6	2	NaN	1	3	0.0528131511792984	1	1	NaN	25	1	25	2	121	221	321	NaN	521	0.235061628278345	1	1	NaN	2498600.9160782	NaN	2498601.8994984	2498602.41605357
13	21	0	0	90	36.1581920903955	36.241610738255	12	0.40004236780107	2	12	5	NaN	2	4	0.0528131511792984	1	1	NaN	26	1	26	2	121	221	321	NaN	521	0.513835176825523	2	1	NaN	2498603.7329166	NaN	2498604.7164457	2498605.23300042
13	21	0	0	90	36.1581920903955	36.241610738255	18	0.600063551701605	2	12	2	NaN	2	3	0.0528131511792984	1	1	NaN	27	1	27	2	121	221	321	NaN	521	0.135489628184587	2	1	NaN	2498606.7833441	NaN	2498607.766751	2498608.28329867
13	21	0	0	90	36.1581920903955	36.241610738255	25	0.833421599585563	2	12	6	NaN	2	5	0.0528131511792984	1	1	NaN	28	1	28	2	121	221	321	NaN	521	0.262939224019647	2	1	NaN	2498610.0003401	NaN	2498610.983727	2498611.50027738
13	21	0	0	90	36.1581920903955	36.241610738255	20	0.66673727966845	2	12	3	NaN	2	5	0.0528131511792984	1	1	NaN	29	1	29	2	121	221	321	NaN	521	0.167087176349014	2	1	NaN	2498612.5839236	NaN	2498613.5673204	2498614.08386902
13	21	0	0	90	36.1581920903955	36.241610738255	19	0.633400415685028	2	3	1	NaN	1	5	0.0528131511792984	1	1	NaN	30	1	30	2	121	221	321	NaN	521	0.163709128275514	1	1	NaN	2498615.0674968	NaN	2498616.0508934	2498616.56743677
13	21	0	0	90	36.1581920903955	36.241610738255	25	0.833421599585563	2	9	2	NaN	2	4	0.0528131511792984	1	1	NaN	31	1	31	2	121	221	321	NaN	521	0.211463028565049	2	1	NaN	2498618.0677622	NaN	2498619.0511854	2498619.56773817
13	21	0	0	90	36.1581920903955	36.241610738255	24	0.80008473560214	2	4	6	NaN	1	4	0.0528131511792984	1	1	NaN	32	1	32	2	121	221	321	NaN	521	0.202659428585321	1	1	NaN	2498621.0847307	NaN	2498622.068151	2498622.58470277
13	21	0	0	90	36.1581920903955	36.241610738255	17	0.566726687718183	2	12	6	NaN	2	5	0.0528131511792984	1	1	NaN	33	1	33	2	121	221	321	NaN	521	0.218469976447523	2	1	NaN	2498623.8683665	NaN	2498624.851796	2498625.36830282
13	21	0	0	90	36.1581920903955	36.241610738255	7	0.233358047883958	2	7	1	NaN	2	5	0.0528131511792984	1	1	NaN	34	1	34	2	121	221	321	NaN	521	0.0771156763657928	2	1	NaN	2498626.4019399	NaN	2498627.3853377	2498627.90188072
13	21	0	0	90	36.1581920903955	36.241610738255	15	0.500052959751338	2	10	6	NaN	2	5	0.0528131511792984	1	1	NaN	35	1	35	2	121	221	321	NaN	521	0.097366476431489	2	1	NaN	2498628.8854873	NaN	2498629.8689167	2498630.38547102
13	21	0	0	90	36.1581920903955	36.241610738255	6	0.200021183900535	2	10	5	NaN	2	4	0.0528131511792984	1	1	NaN	36	1	36	2	121	221	321	NaN	521	0.384944128338248	1	0	NaN	2498631.3024961	NaN	2498632.2858181	2498632.80237597
13	21	0	0	90	36.1581920903955	36.241610738255	17	0.566726687718183	2	3	4	NaN	1	3	0.0528131511792984	1	1	NaN	37	1	37	2	121	221	321	NaN	521	0.116501828189939	1	1	NaN	2498634.0026919	NaN	2498634.9860844	2498635.50263627
13	21	0	0	90	36.1581920903955	36.241610738255	23	0.766747871618718	2	6	3	NaN	1	5	0.0528131511792984	1	1	NaN	38	1	38	2	121	221	321	NaN	521	0.139146732632071	1	1	NaN	2498636.4362528	NaN	2498637.4196629	2498637.93621597
13	21	0	0	90	36.1581920903955	36.241610738255	14	0.466716095767915	2	12	2	NaN	2	3	0.0528131511792984	1	1	NaN	39	1	39	2	121	221	321	NaN	521	0.200416876468807	2	1	NaN	2498638.8865014	NaN	2498639.8699038	2498640.38645392
13	21	0	0	90	36.1581920903955	36.241610738255	16	0.53338982373476	2	1	1	NaN	1	5	0.0528131511792984	1	1	NaN	40	1	40	2	121	221	321	NaN	521	0.0435550766997039	1	1	NaN	2498641.403429	NaN	2498642.3868194	2498642.90336542
13	21	0	0	90	36.1581920903955	36.241610738255	12	0.40004236780107	2	4	4	NaN	1	5	0.0528131511792984	1	1	NaN	41	1	41	2	121	221	321	NaN	521	0.173242927994579	1	1	NaN	2498643.7536464	NaN	2498644.7370479	2498645.25359557
13	21	0	0	90	36.1581920903955	36.241610738255	17	0.566726687718183	2	3	2	NaN	1	3	0.0528131511792984	1	1	NaN	42	1	42	2	121	221	321	NaN	521	0.165670776739717	1	1	NaN	2498646.7372542	NaN	2498647.7206724	2498648.23721412
13	21	0	0	90	36.1581920903955	36.241610738255	19	0.633400415685028	2	1	2	NaN	1	3	0.0528131511792984	1	1	NaN	43	1	43	2	121	221	321	NaN	521	0.0501224282197654	1	1	NaN	2498649.2207342	NaN	2498650.2042438	2498650.72079187
13	21	0	0	90	36.1581920903955	36.241610738255	7	0.233358047883958	2	10	1	NaN	2	3	0.0528131511792984	1	1	NaN	44	1	44	2	121	221	321	NaN	521	2.22318847663701	2	1	NaN	2498651.6877371	NaN	2498652.671157	2498653.18770172
13	21	0	0	90	36.1581920903955	36.241610738255	23	0.766747871618718	2	8	5	NaN	2	5	0.0528131511792984	1	1	NaN	45	1	45	2	121	221	321	NaN	521	0.417404876556247	2	1	NaN	2498656.2215947	NaN	2498657.2049417	2498657.72148202
13	21	0	0	90	36.1581920903955	36.241610738255	12	0.40004236780107	2	2	1	NaN	1	5	0.0528131511792984	1	1	NaN	46	1	46	2	121	221	321	NaN	521	0.0103924279101193	1	1	NaN	2498660.4385424	NaN	2498661.4220212	2498661.93856057
13	21	0	0	90	36.1581920903955	36.241610738255	18	0.600063551701605	2	2	1	NaN	1	4	0.0528131511792984	1	1	NaN	47	1	47	2	121	221	321	NaN	521	0.435407944023609	1	1	NaN	2498662.7554084	NaN	2498663.7389128	2498664.25545786
13	21	0	0	90	36.1581920903955	36.241610738255	18	0.600063551701605	2	5	5	NaN	1	4	0.0528131511792984	1	1	NaN	48	1	48	2	121	221	321	NaN	521	0.1811269284226	1	1	NaN	2498665.5058822	NaN	2498666.4891829	2498667.00573327
13	21	0	0	90	36.1581920903955	36.241610738255	12	0.40004236780107	2	2	5	NaN	1	5	0.0528131511792984	1	1	NaN	49	1	49	2	121	221	321	NaN	521	0.160868676379323	2	0	NaN	2498668.0060222	NaN	2498668.9894324	2498669.50597312
13	21	0	0	90	36.1581920903955	36.241610738255	9	0.300031775850803	2	10	6	NaN	2	5	0.0528131511792984	1	1	NaN	50	1	50	2	121	221	321	NaN	521	0.0104063283652067	2	1	NaN	2498670.4729325	NaN	2498671.4563185	2498671.97288537
13	21	0	0	90	36.1581920903955	36.241610738255	24	0.80008473560214	2	6	5	NaN	1	4	0.0528131511792984	1	1	NaN	51	1	51	2	121	221	321	NaN	521	0.0971205281093717	2	0	NaN	2498672.7898116	NaN	2498673.7732333	2498674.28978307
13	21	0	0	90	36.1581920903955	36.241610738255	25	0.833421599585563	2	8	5	NaN	2	3	0.0528131511792984	1	1	NaN	52	1	52	2	121	221	321	NaN	521	0.328588280361146	2	1	NaN	2498675.2066302	NaN	2498676.1901677	2498676.70668602
13	21	0	0	90	36.1581920903955	36.241610738255	14	0.466716095767915	2	10	2	NaN	2	3	0.0528131511792984	1	1	NaN	53	1	53	2	121	221	321	NaN	521	0.230541280470788	2	1	NaN	2498677.8402899	NaN	2498678.8237171	2498679.34027712
13	21	0	0	90	36.1581920903955	36.241610738255	8	0.26669491186738	2	4	4	NaN	1	5	0.0528131511792984	1	1	NaN	54	1	54	2	121	221	321	NaN	521	0.224811328109354	1	1	NaN	2498680.390585	NaN	2498681.3739752	2498681.89052267
13	21	0	0	90	36.1581920903955	36.241610738255	10	0.333368639834225	2	12	4	NaN	2	3	0.0528131511792984	1	1	NaN	55	1	55	2	121	221	321	NaN	521	0.138838976621628	2	1	NaN	2498682.9240308	NaN	2498683.9075638	2498684.42410012
13	21	0	0	90	36.1581920903955	36.241610738255	11	0.366705503817648	2	3	5	NaN	1	4	0.0528131511792984	1	1	NaN	56	1	56	2	121	221	321	NaN	521	0.215822228230536	1	1	NaN	2498685.5910584	NaN	2498686.5744857	2498687.09103337
13	21	0	0	90	36.1581920903955	36.241610738255	11	0.366705503817648	2	11	3	NaN	2	5	0.0528131511792984	1	1	NaN	57	1	57	2	121	221	321	NaN	521	0.220005928073078	2	1	NaN	2498688.4907331	NaN	2498689.4747872	2498689.99132697
13	21	0	0	90	36.1581920903955	36.241610738255	24	0.80008473560214	2	9	6	NaN	2	5	0.0528131511792984	1	1	NaN	58	1	58	2	121	221	321	NaN	521	0.47193142818287	2	1	NaN	2498691.1749671	NaN	2498692.1583692	2498692.67491077
13	21	0	0	90	36.1581920903955	36.241610738255	19	0.633400415685028	2	11	2	NaN	2	3	0.0528131511792984	1	1	NaN	59	1	59	2	121	221	321	NaN	521	0.191724928095937	2	1	NaN	2498693.9752187	NaN	2498694.9586467	2498695.47519297
13	21	0	0	90	36.1581920903955	36.241610738255	25	0.833421599585563	2	5	3	NaN	1	4	0.0528131511792984	1	1	NaN	60	1	60	2	121	221	321	NaN	521	0.20590362790972	1	1	NaN	2498696.6253933	NaN	2498697.6088914	2498698.12544967
13	21	0	0	90	36.1581920903955	36.241610738255	14	0.466716095767915	2	11	5	NaN	2	3	0.0528131511792984	1	1	NaN	61	1	61	2	121	221	321	NaN	521	0.0959735768847167	2	1	NaN	2498699.159031	NaN	2498700.1425201	2498700.65903182
13	21	0	0	90	36.1581920903955	36.241610738255	22	0.733411007635295	2	3	3	NaN	1	5	0.0528131511792984	1	1	NaN	62	1	62	2	121	221	321	NaN	521	0.167399680707604	1	1	NaN	2498701.575991	NaN	2498702.5593865	2498703.07595912
13	21	0	0	90	36.1581920903955	36.241610738255	21	0.700074143651873	2	3	6	NaN	1	3	0.0528131511792984	1	1	NaN	63	1	63	2	121	221	321	NaN	521	0.0354550280608237	1	1	NaN	2498704.0595719	NaN	2498705.0429627	2498705.55951417
13	21	0	0	90	36.1581920903955	36.241610738255	16	0.53338982373476	2	2	6	NaN	1	5	0.0528131511792984	1	1	NaN	64	2	1	2	121	221	321	NaN	521	0.0609887279570103	1	1	NaN	2498710.4101794	NaN	2498711.3936102	2498711.91014717
13	21	0	0	90	36.1581920903955	36.241610738255	0	0	1	3	6	NaN	1	5	0.0528131511792984	1	1	NaN	65	2	2	2	111	211	311	NaN	511	0.126111980527639	1	1	NaN	2498712.7769656	NaN	2498713.760485	2498714.27704422
13	21	0	0	90	36.1581920903955	36.241610738255	25	0.833421599585563	2	7	6	NaN	2	4	0.0528131511792984	1	1	NaN	66	2	3	2	121	221	321	NaN	521	0.188484828453511	2	1	NaN	2498715.2106658	NaN	2498716.1940654	2498716.71061327
13	21	0	0	90	36.1581920903955	36.241610738255	12	0.40004236780107	2	8	4	NaN	2	4	0.0528131511792984	1	1	NaN	67	2	4	2	121	221	321	NaN	521	0.0961438803933561	2	1	NaN	2498717.7109518	NaN	2498718.6943119	2498719.21086202
13	21	0	0	90	36.1581920903955	36.241610738255	25	0.833421599585563	2	12	5	NaN	2	4	0.0528131511792984	1	1	NaN	68	2	5	2	121	221	321	NaN	521	0.197268328163773	1	0	NaN	2498720.3778152	NaN	2498721.3612231	2498721.87778757
13	21	0	0	90	36.1581920903955	36.241610738255	17	0.566726687718183	2	10	1	NaN	2	3	0.0528131511792984	1	1	NaN	69	2	6	2	121	221	321	NaN	521	0.104335428215563	2	1	NaN	2498722.8947582	NaN	2498723.8781496	2498724.39470587
13	21	0	0	90	36.1581920903955	36.241610738255	20	0.66673727966845	2	6	4	NaN	1	3	0.0528131511792984	1	1	NaN	70	2	7	2	121	221	321	NaN	521	0.111298776231706	1	1	NaN	2498725.3116325	NaN	2498726.2950528	2498726.81160252
13	21	0	0	90	36.1581920903955	36.241610738255	14	0.466716095767915	2	3	1	NaN	1	5	0.0528131511792984	1	1	NaN	71	2	8	2	121	221	321	NaN	521	0.174672928173095	1	1	NaN	2498727.7285718	NaN	2498728.7119571	2498729.22850367
13	21	0	0	90	36.1581920903955	36.241610738255	20	0.66673727966845	2	7	1	NaN	2	3	0.0528131511792984	1	1	NaN	72	2	9	2	121	221	321	NaN	521	0.219137728214264	2	1	NaN	2498730.2121469	NaN	2498731.1956012	2498731.71208627
13	21	0	0	90	36.1581920903955	36.241610738255	23	0.766747871618718	2	12	2	NaN	2	5	0.0528131511792984	1	1	NaN	73	2	10	2	121	221	321	NaN	521	0.109414276666939	2	1	NaN	2498732.7456411	NaN	2498733.7291148	2498734.24566522
13	21	0	0	90	36.1581920903955	36.241610738255	17	0.566726687718183	2	12	4	NaN	2	4	0.0528131511792984	1	1	NaN	74	2	11	2	121	221	321	NaN	521	0.0844287765212357	2	1	NaN	2498735.1626393	NaN	2498736.1459347	2498736.66256842
13	21	0	0	90	36.1581920903955	36.241610738255	13	0.433379231784493	2	5	3	NaN	1	5	0.0528131511792984	1	1	NaN	75	2	12	2	121	221	321	NaN	521	0.100311176385731	2	0	NaN	2498737.5628635	NaN	2498738.5462233	2498739.06279882
13	21	0	0	90	36.1581920903955	36.241610738255	11	0.366705503817648	2	12	5	NaN	2	5	0.0528131511792984	1	1	NaN	76	2	13	2	121	221	321	NaN	521	0.0593939279206097	2	1	NaN	2498739.9797541	NaN	2498740.9632083	2498741.47971657
13	21	0	0	90	36.1581920903955	36.241610738255	10	0.333368639834225	2	7	4	NaN	2	5	0.0528131511792984	1	1	NaN	77	2	14	2	121	221	321	NaN	521	0.220425180159509	2	1	NaN	2498742.3466807	NaN	2498743.3300592	2498743.84661672
13	21	0	0	90	36.1581920903955	36.241610738255	18	0.600063551701605	2	8	1	NaN	2	4	0.0528131511792984	1	1	NaN	78	2	15	2	121	221	321	NaN	521	0.0104182767681777	2	1	NaN	2498744.8802361	NaN	2498745.8636534	2498746.38018782
13	21	0	0	90	36.1581920903955	36.241610738255	14	0.466716095767915	2	10	5	NaN	2	5	0.0528131511792984	1	1	NaN	79	2	16	2	121	221	321	NaN	521	0.0899966801516712	2	1	NaN	2498747.1971383	NaN	2498748.1805563	2498748.69708312
13	21	0	0	90	36.1581920903955	36.241610738255	23	0.766747871618718	2	2	5	NaN	1	4	0.0528131511792984	1	1	NaN	80	2	17	2	121	221	321	NaN	521	0.218140027951449	1	1	NaN	2498749.5972692	NaN	2498750.5807452	2498751.09732407
13	21	0	0	90	36.1581920903955	36.241610738255	20	0.66673727966845	2	5	5	NaN	1	4	0.0528131511792984	1	1	NaN	81	2	18	2	121	221	321	NaN	521	0.318602724466473	1	1	NaN	2498752.4642868	NaN	2498753.4477089	2498753.96427038
13	21	0	0	90	36.1581920903955	36.241610738255	9	0.300031775850803	2	12	3	NaN	2	5	0.0528131511792984	1	1	NaN	82	2	19	2	121	221	321	NaN	521	0.0104033765383065	2	1	NaN	2498755.4312457	NaN	2498756.4146656	2498756.93122892
13	21	0	0	90	36.1581920903955	36.241610738255	13	0.433379231784493	2	2	2	NaN	1	5	0.0528131511792984	1	1	NaN	83	2	20	2	121	221	321	NaN	521	0.291033528279513	1	1	NaN	2498757.7481856	NaN	2498758.7316173	2498759.24812507
13	21	0	0	90	36.1581920903955	36.241610738255	11	0.366705503817648	2	6	6	NaN	1	4	0.0528131511792984	1	1	NaN	84	2	21	2	121	221	321	NaN	521	9.52983992826194	2	0	NaN	2498760.3649667	NaN	2498761.3485025	2498761.86505197
13	21	0	0	90	36.1581920903955	36.241610738255	24	0.80008473560214	2	8	6	NaN	2	3	0.0528131511792984	1	1	NaN	85	2	22	2	121	221	321	NaN	521	0.262934276368469	2	1	NaN	2498772.2162581	NaN	2498773.1996628	2498773.71620212
13	21	0	0	90	36.1581920903955	36.241610738255	20	0.66673727966845	2	11	6	NaN	2	4	0.0528131511792984	1	1	NaN	86	2	23	2	121	221	321	NaN	521	0.0559390801936388	2	1	NaN	2498774.9832008	NaN	2498775.966581	2498776.48314362
13	21	0	0	90	36.1581920903955	36.241610738255	18	0.600063551701605	2	11	5	NaN	2	5	0.0528131511792984	1	1	NaN	87	2	24	2	121	221	321	NaN	521	0.408917528111488	2	1	NaN	2498777.3499948	NaN	2498778.3335135	2498778.85005047
13	21	0	0	90	36.1581920903955	36.241610738255	11	0.366705503817648	2	3	1	NaN	1	5	0.0528131511792984	1	1	NaN	88	2	25	2	121	221	321	NaN	521	0.227298976387829	1	1	NaN	2498780.0837117	NaN	2498781.0670981	2498781.58365002
13	21	0	0	90	36.1581920903955	36.241610738255	8	0.26669491186738	2	2	1	NaN	1	4	0.0528131511792984	1	1	NaN	89	2	26	2	121	221	321	NaN	521	1.26102472795174	2	0	NaN	2498782.633953	NaN	2498783.6173413	2498784.13390157
13	21	0	0	90	36.1581920903955	36.241610738255	18	0.600063551701605	2	4	5	NaN	1	5	0.0528131511792984	1	1	NaN	90	2	27	2	121	221	321	NaN	521	1.30149747664109	1	1	NaN	2498786.2176463	NaN	2498787.2009485	2498787.71758192
13	21	0	0	90	36.1581920903955	36.241610738255	14	0.466716095767915	2	4	1	NaN	1	4	0.0528131511792984	1	1	NaN	91	2	28	2	121	221	321	NaN	521	0.20513212820515	1	1	NaN	2498790.0178897	NaN	2498791.0014072	2498791.51795847
13	21	0	0	90	36.1581920903955	36.241610738255	8	0.26669491186738	2	1	6	NaN	1	4	0.0528131511792984	1	1	NaN	92	2	29	2	121	221	321	NaN	521	1.41629782831296	1	1	NaN	2498792.5349214	NaN	2498793.5183165	2498794.03487647
13	21	0	0	90	36.1581920903955	36.241610738255	9	0.300031775850803	2	8	3	NaN	2	5	0.0528131511792984	1	1	NaN	93	2	30	2	121	221	321	NaN	521	0.243777628056705	2	1	NaN	2498796.4353048	NaN	2498797.4186167	2498797.93526157
13	21	0	0	90	36.1581920903955	36.241610738255	25	0.833421599585563	2	6	6	NaN	1	3	0.0528131511792984	1	1	NaN	94	2	31	2	121	221	321	NaN	521	0.0896548279561102	1	1	NaN	2498799.0855439	NaN	2498800.0689524	2498800.58551777
13	21	0	0	90	36.1581920903955	36.241610738255	20	0.66673727966845	2	9	1	NaN	2	3	0.0528131511792984	1	1	NaN	95	2	32	2	121	221	321	NaN	521	0.240377828478813	2	1	NaN	2498801.7191348	NaN	2498802.7025576	2498803.21910167
13	21	0	0	90	36.1581920903955	36.241610738255	24	0.80008473560214	2	6	1	NaN	1	4	0.0528131511792984	1	1	NaN	96	2	33	2	121	221	321	NaN	521	0.211840276606381	1	1	NaN	2498804.4192966	NaN	2498805.4028271	2498805.91937712
13	21	0	0	90	36.1581920903955	36.241610738255	25	0.833421599585563	2	6	5	NaN	1	5	0.0528131511792984	1	1	NaN	97	2	34	2	121	221	321	NaN	521	0.201617228332907	1	1	NaN	2498807.0695539	NaN	2498808.0530812	2498808.56962717
13	21	0	0	90	36.1581920903955	36.241610738255	6	0.200021183900535	2	10	2	NaN	2	5	0.0528131511792984	1	1	NaN	98	2	35	2	121	221	321	NaN	521	0.212535827886313	2	1	NaN	2498809.5865823	NaN	2498810.5699897	2498811.08655377
13	21	0	0	90	36.1581920903955	36.241610738255	15	0.500052959751338	2	9	5	NaN	2	4	0.0528131511792984	1	1	NaN	99	2	36	2	121	221	321	NaN	521	0.824123980477452	2	1	NaN	2498812.103506	NaN	2498813.0869234	2498813.60346332
13	21	0	0	90	36.1581920903955	36.241610738255	9	0.300031775850803	2	2	1	NaN	1	5	0.0528131511792984	1	1	NaN	100	2	37	2	121	221	321	NaN	521	0.251146876253188	1	1	NaN	2498815.4204721	NaN	2498816.403947	2498816.92044622
13	21	0	0	90	36.1581920903955	36.241610738255	24	0.80008473560214	2	9	6	NaN	2	4	0.0528131511792984	1	1	NaN	101	2	38	2	121	221	321	NaN	521	0.309857580345124	2	1	NaN	2498818.1373096	NaN	2498819.1208344	2498819.63738912
13	21	0	0	90	36.1581920903955	36.241610738255	19	0.633400415685028	2	7	2	NaN	2	3	0.0528131511792984	1	1	NaN	102	2	39	2	121	221	321	NaN	521	0.158375976607203	2	1	NaN	2498820.9206366	NaN	2498821.9044448	2498822.42098652
13	21	0	0	90	36.1581920903955	36.241610738255	0	0	1	4	2	NaN	1	4	0.0528131511792984	1	1	NaN	103	2	40	2	111	211	311	NaN	511	0.123721040319651	2	0	NaN	2498823.3879515	NaN	2498824.3713615	2498824.88790456
13	21	0	0	90	36.1581920903955	36.241610738255	25	0.833421599585563	2	7	3	NaN	2	4	0.0528131511792984	1	1	NaN	104	2	41	2	121	221	321	NaN	521	0.115176176652312	2	1	NaN	2498825.9881802	NaN	2498826.9716165	2498827.48815362
13	21	0	0	90	36.1581920903955	36.241610738255	16	0.53338982373476	2	7	1	NaN	2	5	0.0528131511792984	1	1	NaN	105	2	42	2	121	221	321	NaN	521	0.0980738326907158	1	0	NaN	2498828.4049915	NaN	2498829.3885117	2498829.90505547
13	21	0	0	90	36.1581920903955	36.241610738255	18	0.600063551701605	2	7	3	NaN	2	4	0.0528131511792984	1	1	NaN	106	2	43	2	121	221	321	NaN	521	0.0732869924977422	2	1	NaN	2498830.8220166	NaN	2498831.8054184	2498832.32196391
13	21	0	0	90	36.1581920903955	36.241610738255	18	0.600063551701605	2	7	4	NaN	2	4	0.0528131511792984	1	1	NaN	107	2	44	2	121	221	321	NaN	521	0.129645084030926	1	0	NaN	2498833.2054488	NaN	2498834.1889846	2498834.70553042
13	21	0	0	90	36.1581920903955	36.241610738255	6	0.200021183900535	2	11	6	NaN	2	5	0.0528131511792984	1	1	NaN	108	2	45	2	121	221	321	NaN	521	0.0554178766906261	2	1	NaN	2498835.6558125	NaN	2498836.6392407	2498837.15576962
13	21	0	0	90	36.1581920903955	36.241610738255	10	0.333368639834225	2	5	6	NaN	1	3	0.0528131511792984	1	1	NaN	109	2	46	2	121	221	321	NaN	521	0.240296576637775	1	1	NaN	2498838.0225828	NaN	2498839.00611	2498839.52267502
13	21	0	0	90	36.1581920903955	36.241610738255	13	0.433379231784493	2	8	1	NaN	2	5	0.0528131511792984	1	1	NaN	110	2	47	2	121	221	321	NaN	521	0.0982658243738115	2	1	NaN	2498840.5729579	NaN	2498841.5563751	2498842.07291468
13	21	0	0	90	36.1581920903955	36.241610738255	15	0.500052959751338	2	11	6	NaN	2	3	0.0528131511792984	1	1	NaN	111	2	48	2	121	221	321	NaN	521	0.0893225478939712	2	1	NaN	2498842.9897688	NaN	2498843.9732745	2498844.48985415
13	21	0	0	90	36.1581920903955	36.241610738255	8	0.26669491186738	2	7	2	NaN	2	4	0.0528131511792984	1	1	NaN	112	2	49	2	121	221	321	NaN	521	0.0104192765429616	2	1	NaN	2498845.3901027	NaN	2498846.3735085	2498846.89005912
13	21	0	0	90	36.1581920903955	36.241610738255	19	0.633400415685028	2	1	4	NaN	1	4	0.0528131511792984	1	1	NaN	113	2	50	2	121	221	321	NaN	521	0.212313136085868	1	1	NaN	2498847.7069401	NaN	2498848.6904074	2498849.20696506
13	21	0	0	90	36.1581920903955	36.241610738255	0	0	1	10	2	NaN	2	4	0.0528131511792984	1	1	NaN	114	2	51	2	111	211	311	NaN	511	0.0793530801311135	2	1	NaN	2498850.2239452	NaN	2498851.2073295	2498851.72387632
13	21	0	0	90	36.1581920903955	36.241610738255	25	0.833421599585563	2	11	2	NaN	2	4	0.0528131511792984	1	1	NaN	115	2	52	2	121	221	321	NaN	521	0.151884880382568	2	1	NaN	2498852.6076076	NaN	2498853.5908881	2498854.10745652
13	21	0	0	90	36.1581920903955	36.241610738255	15	0.500052959751338	2	1	3	NaN	1	5	0.0528131511792984	1	1	NaN	116	2	53	2	121	221	321	NaN	521	0.133022476453334	1	1	NaN	2498855.0744124	NaN	2498856.057789	2498856.57434752
13	21	0	0	90	36.1581920903955	36.241610738255	11	0.366705503817648	2	2	1	NaN	1	3	0.0528131511792984	1	1	NaN	117	2	54	2	121	221	321	NaN	521	0.242705128155649	1	1	NaN	2498857.5246756	NaN	2498858.5080386	2498859.02458567
13	21	0	0	90	36.1581920903955	36.241610738255	18	0.600063551701605	2	10	3	NaN	2	3	0.0528131511792984	1	1	NaN	118	2	55	2	121	221	321	NaN	521	0.171713428106159	2	1	NaN	2498860.0915453	NaN	2498861.0749554	2498861.59151317
13	21	0	0	90	36.1581920903955	36.241610738255	17	0.566726687718183	2	5	2	NaN	1	4	0.0528131511792984	1	1	NaN	119	2	56	2	121	221	321	NaN	521	0.0104198241606355	1	1	NaN	2498862.575143	NaN	2498863.5585334	2498864.07507678
13	21	0	0	90	36.1581920903955	36.241610738255	18	0.600063551701605	2	6	2	NaN	1	5	0.0528131511792984	1	1	NaN	120	2	57	2	121	221	321	NaN	521	0.0585630922578275	1	1	NaN	2498864.9085813	NaN	2498865.8921256	2498866.40865201
13	21	0	0	90	36.1581920903955	36.241610738255	6	0.200021183900535	2	1	6	NaN	1	4	0.0528131511792984	1	1	NaN	121	2	58	2	121	221	321	NaN	521	1.52357208030298	1	1	NaN	2498867.2754725	NaN	2498868.2589798	2498868.77554892
13	21	0	0	90	36.1581920903955	36.241610738255	9	0.300031775850803	2	2	6	NaN	1	4	0.0528131511792984	1	1	NaN	122	2	59	2	121	221	321	NaN	521	0.137858976610005	1	1	NaN	2498871.1093125	NaN	2498872.0927133	2498872.60925522
13	21	0	0	90	36.1581920903955	36.241610738255	17	0.566726687718183	2	6	2	NaN	1	5	0.0528131511792984	1	1	NaN	123	2	60	2	121	221	321	NaN	521	0.231673228088766	1	1	NaN	2498873.5594101	NaN	2498874.5429511	2498875.05949277
13	21	0	0	90	36.1581920903955	36.241610738255	0	0	1	7	6	NaN	2	5	0.0528131511792984	1	1	NaN	124	2	61	2	111	211	311	NaN	511	0.938153128139675	2	1	NaN	2498876.0931448	NaN	2498877.0765326	2498877.59308237
13	21	0	0	90	36.1581920903955	36.241610738255	22	0.733411007635295	2	5	3	NaN	1	4	0.0528131511792984	1	1	NaN	125	2	62	2	121	221	321	NaN	521	0.0964248762466013	1	1	NaN	2498879.5269467	NaN	2498880.5102351	2498881.02675052
13	21	0	0	90	36.1581920903955	36.241610738255	15	0.500052959751338	2	10	3	NaN	2	5	0.0528131511792984	1	1	NaN	126	2	63	2	121	221	321	NaN	521	0.0374685283750296	2	1	NaN	2498882.3936109	NaN	2498883.3771251	2498883.89369767
13	21	0	0	90	36.1581920903955	36.241610738255	8	0.26669491186738	2	11	4	NaN	2	4	0.0528131511792984	1	1	NaN	127	3	1	2	121	221	321	NaN	521	0.676499376539141	2	1	NaN	2499097.9315898	NaN	2499098.9149795	2499099.43152412
13	21	0	0	90	36.1581920903955	36.241610738255	24	0.80008473560214	2	1	2	NaN	1	3	0.0528131511792984	1	1	NaN	128	3	2	2	121	221	321	NaN	521	0.0977596282027662	1	1	NaN	2499101.3819547	NaN	2499102.3653222	2499102.88186327
13	21	0	0	90	36.1581920903955	36.241610738255	13	0.433379231784493	2	2	2	NaN	1	4	0.0528131511792984	1	1	NaN	129	3	3	2	121	221	321	NaN	521	0.144825528375804	1	1	NaN	2499103.7988267	NaN	2499104.7822253	2499105.29877157
13	21	0	0	90	36.1581920903955	36.241610738255	13	0.433379231784493	2	12	5	NaN	2	4	0.0528131511792984	1	1	NaN	130	3	4	2	121	221	321	NaN	521	0.0224778247065842	2	1	NaN	2499106.2490758	NaN	2499107.2324614	2499107.74901178
13	21	0	0	90	36.1581920903955	36.241610738255	14	0.466716095767915	2	11	3	NaN	2	3	0.0528131511792984	1	1	NaN	131	3	5	2	121	221	321	NaN	521	0.0103284362703562	2	1	NaN	2499108.5826461	NaN	2499109.5660291	2499110.08258506
13	21	0	0	90	36.1581920903955	36.241610738255	10	0.333368639834225	2	4	2	NaN	1	5	0.0528131511792984	1	1	NaN	132	3	6	2	121	221	321	NaN	521	0.0104101286269724	2	0	NaN	2499110.8994397	NaN	2499111.8829351	2499112.39946317
13	21	0	0	90	36.1581920903955	36.241610738255	9	0.300031775850803	2	4	4	NaN	1	3	0.0528131511792984	1	1	NaN	133	3	7	2	121	221	321	NaN	521	0.055214328225702	1	1	NaN	2499113.2163837	NaN	2499114.1998083	2499114.71635697
13	21	0	0	90	36.1581920903955	36.241610738255	11	0.366705503817648	2	9	4	NaN	2	4	0.0528131511792984	1	1	NaN	134	3	8	2	121	221	321	NaN	521	0.0722721279598773	2	1	NaN	2499115.5831999	NaN	2499116.5667476	2499117.08325767
13	21	0	0	90	36.1581920903955	36.241610738255	11	0.366705503817648	2	10	4	NaN	2	5	0.0528131511792984	1	1	NaN	135	3	9	2	121	221	321	NaN	521	0.0103315361775458	2	1	NaN	2499117.966872	NaN	2499118.950275	2499119.46682846
13	21	0	0	90	36.1581920903955	36.241610738255	11	0.366705503817648	2	9	5	NaN	2	5	0.0528131511792984	1	1	NaN	136	3	10	2	121	221	321	NaN	521	0.0918799284845591	1	0	NaN	2499120.2837866	NaN	2499121.2671743	2499121.78372587
13	21	0	0	90	36.1581920903955	36.241610738255	17	0.566726687718183	2	11	4	NaN	2	4	0.0528131511792984	1	1	NaN	137	3	11	2	121	221	321	NaN	521	0.0103892283514142	2	1	NaN	2499122.6840132	NaN	2499123.6674105	2499124.18395697
13	21	0	0	90	36.1581920903955	36.241610738255	16	0.53338982373476	2	2	4	NaN	1	3	0.0528131511792984	1	1	NaN	138	3	12	2	121	221	321	NaN	521	0.190158928278834	1	1	NaN	2499125.0175697	NaN	2499126.0009763	2499126.51752067
13	21	0	0	90	36.1581920903955	36.241610738255	10	0.333368639834225	2	10	1	NaN	2	4	0.0528131511792984	1	1	NaN	139	3	13	2	121	221	321	NaN	521	0.0819242764264345	2	1	NaN	2499127.517822	NaN	2499128.5012195	2499129.01776112
13	21	0	0	90	36.1581920903955	36.241610738255	6	0.200021183900535	2	4	2	NaN	1	4	0.0528131511792984	1	1	NaN	140	3	14	2	121	221	321	NaN	521	0.297600128222257	1	1	NaN	2499129.918021	NaN	2499130.901457	2499131.41800657
13	21	0	0	90	36.1581920903955	36.241610738255	16	0.53338982373476	2	12	1	NaN	2	4	0.0528131511792984	1	1	NaN	141	3	15	2	121	221	321	NaN	521	0.296511824242771	2	1	NaN	2499132.5348395	NaN	2499133.5183785	2499134.03492148
13	21	0	0	90	36.1581920903955	36.241610738255	13	0.433379231784493	2	3	4	NaN	1	5	0.0528131511792984	1	1	NaN	142	3	16	2	121	221	321	NaN	521	0.0196921764872968	1	1	NaN	2499135.2519051	NaN	2499136.2353105	2499136.75185872
13	21	0	0	90	36.1581920903955	36.241610738255	7	0.233358047883958	2	9	3	NaN	2	3	0.0528131511792984	1	1	NaN	143	3	17	2	121	221	321	NaN	521	0.0104112764820457	2	1	NaN	2499137.585353	NaN	2499138.5688611	2499139.08541752
13	21	0	0	90	36.1581920903955	36.241610738255	6	0.200021183900535	2	5	4	NaN	1	5	0.0528131511792984	1	1	NaN	144	3	18	2	121	221	321	NaN	521	0.208689980208874	1	1	NaN	2499139.919031	NaN	2499140.9024357	2499141.41898992
13	21	0	0	90	36.1581920903955	36.241610738255	13	0.433379231784493	2	4	4	NaN	1	5	0.0528131511792984	1	1	NaN	145	3	19	2	121	221	321	NaN	521	0.82770377676934	1	1	NaN	2499142.4359773	NaN	2499143.4193508	2499143.93589652
13	21	0	0	90	36.1581920903955	36.241610738255	19	0.633400415685028	2	10	5	NaN	2	5	0.0528131511792984	1	1	NaN	146	3	20	2	121	221	321	NaN	521	0.0622112881392241	2	1	NaN	2499145.5696018	NaN	2499146.5530009	2499147.06955021
13	21	0	0	90	36.1581920903955	36.241610738255	19	0.633400415685028	2	11	3	NaN	2	4	0.0528131511792984	1	1	NaN	147	3	21	2	121	221	321	NaN	521	0.551227128133178	2	1	NaN	2499147.9363692	NaN	2499148.9198845	2499149.43644597
13	21	0	0	90	36.1581920903955	36.241610738255	18	0.600063551701605	2	10	1	NaN	2	3	0.0528131511792984	1	1	NaN	148	3	22	2	121	221	321	NaN	521	0.228600428439677	2	1	NaN	2499150.8034431	NaN	2499151.7868424	2499152.30338337
13	21	0	0	90	36.1581920903955	36.241610738255	11	0.366705503817648	2	7	1	NaN	2	3	0.0528131511792984	1	1	NaN	149	3	23	2	121	221	321	NaN	521	0.0860463166609406	2	1	NaN	2499153.5537062	NaN	2499154.5371053	2499155.05365668
13	21	0	0	90	36.1581920903955	36.241610738255	7	0.233358047883958	2	6	1	NaN	1	3	0.0528131511792984	1	1	NaN	150	3	24	2	121	221	321	NaN	521	0.111053328029811	1	1	NaN	2499156.1206371	NaN	2499157.1040293	2499157.62057027
13	21	0	0	90	36.1581920903955	36.241610738255	18	0.600063551701605	2	11	1	NaN	2	4	0.0528131511792984	1	1	NaN	151	3	25	2	121	221	321	NaN	521	0.654746024403721	2	1	NaN	2499158.7207727	NaN	2499159.704286	2499160.22082878
13	21	0	0	90	36.1581920903955	36.241610738255	0	0	1	1	3	NaN	1	5	0.0528131511792984	1	1	NaN	152	3	26	2	111	211	311	NaN	511	0.113802928011864	2	0	NaN	2499162.0378637	NaN	2499163.0212679	2499163.53782407
13	21	0	0	90	36.1581920903955	36.241610738255	13	0.433379231784493	2	6	2	NaN	1	5	0.0528131511792984	1	1	NaN	153	3	27	2	121	221	321	NaN	521	0.146647343877703	2	0	NaN	2499164.6213688	NaN	2499165.6048779	2499166.12141126
13	21	0	0	90	36.1581920903955	36.241610738255	10	0.333368639834225	2	1	6	NaN	1	5	0.0528131511792984	1	1	NaN	154	3	28	2	121	221	321	NaN	521	0.217228176537901	1	1	NaN	2499167.2383769	NaN	2499168.2217843	2499168.73832972
13	21	0	0	90	36.1581920903955	36.241610738255	20	0.66673727966845	2	8	1	NaN	2	3	0.0528131511792984	1	1	NaN	155	3	29	2	121	221	321	NaN	521	0.123979976400733	2	1	NaN	2499169.9719956	NaN	2499170.9553895	2499171.47193092
13	21	0	0	90	36.1581920903955	36.241610738255	0	0	1	11	1	NaN	2	5	0.0528131511792984	1	1	NaN	156	3	30	2	111	211	311	NaN	511	0.154952528420836	2	1	NaN	2499172.5887897	NaN	2499173.5723141	2499174.08885447
13	21	0	0	90	36.1581920903955	36.241610738255	12	0.40004236780107	2	9	2	NaN	2	5	0.0528131511792984	1	1	NaN	157	3	31	2	121	221	321	NaN	521	0.144243424292654	2	1	NaN	2499175.0557053	NaN	2499176.0392063	2499176.55576238
13	21	0	0	90	36.1581920903955	36.241610738255	8	0.26669491186738	2	12	1	NaN	2	3	0.0528131511792984	1	1	NaN	158	3	32	2	121	221	321	NaN	521	0.0104264239780605	2	1	NaN	2499177.5059788	NaN	2499178.4894631	2499179.00600398
13	21	0	0	90	36.1581920903955	36.241610738255	25	0.833421599585563	2	10	3	NaN	2	3	0.0528131511792984	1	1	NaN	159	3	33	2	121	221	321	NaN	521	0.072744776494801	2	1	NaN	2499179.8228342	NaN	2499180.8063512	2499181.32289722
13	21	0	0	90	36.1581920903955	36.241610738255	25	0.833421599585563	2	3	3	NaN	1	5	0.0528131511792984	1	1	NaN	160	3	34	2	121	221	321	NaN	521	0.361147228162736	1	1	NaN	2499182.2064142	NaN	2499183.1899196	2499183.70647577
13	21	0	0	90	36.1581920903955	36.241610738255	11	0.366705503817648	2	6	5	NaN	1	4	0.0528131511792984	1	1	NaN	161	3	35	2	121	221	321	NaN	521	0.510719524230808	1	1	NaN	2499184.8733279	NaN	2499185.8568631	2499186.37339348
13	21	0	0	90	36.1581920903955	36.241610738255	25	0.833421599585563	2	4	5	NaN	1	4	0.0528131511792984	1	1	NaN	162	3	36	2	121	221	321	NaN	521	0.165011927951127	2	0	NaN	2499187.7070616	NaN	2499188.6905087	2499189.20701497
13	21	0	0	90	36.1581920903955	36.241610738255	24	0.80008473560214	2	1	1	NaN	1	4	0.0528131511792984	1	1	NaN	163	3	37	2	121	221	321	NaN	521	0.065192976500839	1	1	NaN	2499190.1906232	NaN	2499191.174038	2499191.69058802
13	21	0	0	90	36.1581920903955	36.241610738255	22	0.733411007635295	2	2	6	NaN	1	4	0.0528131511792984	1	1	NaN	164	3	38	2	121	221	321	NaN	521	0.0734498766250908	1	1	NaN	2499192.574241	NaN	2499193.5576104	2499194.07416022
13	21	0	0	90	36.1581920903955	36.241610738255	0	0	1	12	6	NaN	2	4	0.0528131511792984	1	1	NaN	165	3	39	2	111	211	311	NaN	511	0.0103946402668953	2	1	NaN	2499194.9577748	NaN	2499195.9411766	2499196.45775206
13	21	0	0	90	36.1581920903955	36.241610738255	12	0.40004236780107	2	11	3	NaN	2	4	0.0528131511792984	1	1	NaN	166	3	40	2	121	221	321	NaN	521	0.39628362422809	2	1	NaN	2499197.2913378	NaN	2499198.2747363	2499198.79127828
13	21	0	0	90	36.1581920903955	36.241610738255	21	0.700074143651873	2	8	5	NaN	2	5	0.0528131511792984	1	1	NaN	167	3	41	2	121	221	321	NaN	521	0.0781708280555904	2	1	NaN	2499200.2415015	NaN	2499201.225065	2499201.74158207
13	21	0	0	90	36.1581920903955	36.241610738255	12	0.40004236780107	2	10	5	NaN	2	4	0.0528131511792984	1	1	NaN	168	3	42	2	121	221	321	NaN	521	0.0104107768274844	2	1	NaN	2499202.6251997	NaN	2499203.6085888	2499204.12513752
13	21	0	0	90	36.1581920903955	36.241610738255	9	0.300031775850803	2	3	2	NaN	1	5	0.0528131511792984	1	1	NaN	169	3	43	2	121	221	321	NaN	521	0.409968528430909	1	1	NaN	2499204.9420982	NaN	2499205.9254445	2499206.44203907
13	21	0	0	90	36.1581920903955	36.241610738255	10	0.333368639834225	2	7	5	NaN	2	4	0.0528131511792984	1	1	NaN	170	3	44	2	121	221	321	NaN	521	1.22199342818931	2	1	NaN	2499208.0256303	NaN	2499209.0091138	2499209.52566707
13	21	0	0	90	36.1581920903955	36.241610738255	23	0.766747871618718	2	1	4	NaN	1	5	0.0528131511792984	1	1	NaN	171	3	45	2	121	221	321	NaN	521	0.216893176082522	1	1	NaN	2499211.7427293	NaN	2499212.7261653	2499213.24269892
13	21	0	0	90	36.1581920903955	36.241610738255	21	0.700074143651873	2	2	3	NaN	1	3	0.0528131511792984	1	1	NaN	172	3	46	2	121	221	321	NaN	521	0.0147776282392442	1	1	NaN	2499214.3930228	NaN	2499215.3764143	2499215.89296897
13	21	0	0	90	36.1581920903955	36.241610738255	13	0.433379231784493	2	9	4	NaN	2	5	0.0528131511792984	1	1	NaN	173	3	47	2	121	221	321	NaN	521	0.121177276596427	2	1	NaN	2499216.7266616	NaN	2499217.7099928	2499218.22652902
13	21	0	0	90	36.1581920903955	36.241610738255	17	0.566726687718183	2	9	6	NaN	2	3	0.0528131511792984	1	1	NaN	174	3	48	2	121	221	321	NaN	521	0.0876743765547872	2	1	NaN	2499219.1601464	NaN	2499220.1435502	2499220.66009702
13	21	0	0	90	36.1581920903955	36.241610738255	8	0.26669491186738	2	4	3	NaN	1	5	0.0528131511792984	1	1	NaN	175	3	49	2	121	221	321	NaN	521	0.0633777882903814	1	1	NaN	2499221.5603952	NaN	2499222.5437913	2499223.06034631
13	21	0	0	90	36.1581920903955	36.241610738255	22	0.733411007635295	2	11	4	NaN	2	5	0.0528131511792984	1	1	NaN	176	3	50	2	121	221	321	NaN	521	0.239754176698625	2	1	NaN	2499223.9439597	NaN	2499224.9273518	2499225.44390852
13	21	0	0	90	36.1581920903955	36.241610738255	6	0.200021183900535	2	9	2	NaN	2	3	0.0528131511792984	1	1	NaN	177	3	51	2	121	221	321	NaN	521	0.0104087763465941	2	1	NaN	2499226.4942149	NaN	2499227.4776029	2499227.99415132
13	21	0	0	90	36.1581920903955	36.241610738255	24	0.80008473560214	2	10	2	NaN	2	4	0.0528131511792984	1	1	NaN	178	3	52	2	121	221	321	NaN	521	0.0587082281708717	2	1	NaN	2499228.8610738	NaN	2499229.8445062	2499230.36105267
13	21	0	0	90	36.1581920903955	36.241610738255	7	0.233358047883958	2	12	6	NaN	2	5	0.0528131511792984	1	1	NaN	179	3	53	2	121	221	321	NaN	521	1.10791747644544	2	1	NaN	2499231.2280044	NaN	2499232.2114124	2499232.72794992
13	21	0	0	90	36.1581920903955	36.241610738255	25	0.833421599585563	2	2	3	NaN	1	3	0.0528131511792984	1	1	NaN	180	3	54	2	121	221	321	NaN	521	0.82851002831012	1	1	NaN	2499234.8116533	NaN	2499235.7950865	2499236.31163227
13	21	0	0	90	36.1581920903955	36.241610738255	16	0.53338982373476	2	5	6	NaN	1	3	0.0528131511792984	1	1	NaN	181	3	55	2	121	221	321	NaN	521	0.471077076625079	1	1	NaN	2499238.1286539	NaN	2499239.1120776	2499239.62862952
13	21	0	0	90	36.1581920903955	36.241610738255	19	0.633400415685028	2	12	3	NaN	2	3	0.0528131511792984	1	1	NaN	182	3	56	2	121	221	321	NaN	521	0.201033576857299	2	1	NaN	2499241.07884	NaN	2499242.0623741	2499242.57891432
13	21	0	0	90	36.1581920903955	36.241610738255	21	0.700074143651873	2	9	2	NaN	2	4	0.0528131511792984	1	1	NaN	183	3	57	2	121	221	321	NaN	521	0.3005805243738	2	1	NaN	2499243.7791978	NaN	2499244.7626402	2499245.27917948
13	21	0	0	90	36.1581920903955	36.241610738255	17	0.566726687718183	2	2	6	NaN	1	5	0.0528131511792984	1	1	NaN	184	3	58	2	121	221	321	NaN	521	0.164831527974457	1	1	NaN	2499246.5628591	NaN	2499247.5462139	2499248.06279267
13	21	0	0	90	36.1581920903955	36.241610738255	10	0.333368639834225	2	2	4	NaN	1	4	0.0528131511792984	1	1	NaN	185	3	59	2	121	221	321	NaN	521	0.145809876732528	1	1	NaN	2499249.4465923	NaN	2499250.4298384	2499250.94640862
13	21	0	0	90	36.1581920903955	36.241610738255	21	0.700074143651873	2	6	3	NaN	1	5	0.0528131511792984	1	1	NaN	186	3	60	2	121	221	321	NaN	521	0.167167180217803	1	1	NaN	2499251.8967178	NaN	2499252.8800995	2499253.39665302
13	21	0	0	90	36.1581920903955	36.241610738255	21	0.700074143651873	2	2	5	NaN	1	5	0.0528131511792984	1	1	NaN	187	3	61	2	121	221	321	NaN	521	0.226140328217298	1	1	NaN	2499254.6136036	NaN	2499255.5970339	2499256.11358377
13	21	0	0	90	36.1581920903955	36.241610738255	13	0.433379231784493	2	11	4	NaN	2	3	0.0528131511792984	1	1	NaN	188	3	62	2	121	221	321	NaN	521	0.56460112053901	2	1	NaN	2499257.747124	NaN	2499258.7306529	2499259.24722738
13	21	0	0	90	36.1581920903955	36.241610738255	12	0.40004236780107	2	4	3	NaN	1	3	0.0528131511792984	1	1	NaN	189	3	63	2	121	221	321	NaN	521	0.152171276509762	1	1	NaN	2499262.2476902	NaN	2499263.2311695	2499263.74766352
13	21	0	0	90	36.1581920903955	36.241610738255	12	0.40004236780107	2	1	6	NaN	1	3	0.0528131511792984	1	1	NaN	190	4	1	2	121	221	321	NaN	521	0.0659805769100785	1	1	NaN	2499276.9657803	NaN	2499277.9492258	2499278.46577232
13	21	0	0	90	36.1581920903955	36.241610738255	21	0.700074143651873	2	4	3	NaN	1	3	0.0528131511792984	1	1	NaN	191	4	2	2	121	221	321	NaN	521	0.0748038277961314	1	1	NaN	2499279.3493793	NaN	2499280.3327929	2499280.84934057
13	21	0	0	90	36.1581920903955	36.241610738255	22	0.733411007635295	2	12	4	NaN	2	5	0.0528131511792984	1	1	NaN	192	4	3	2	121	221	321	NaN	521	1.36278482805938	2	1	NaN	2499281.7328511	NaN	2499282.7163618	2499283.23291597
13	21	0	0	90	36.1581920903955	36.241610738255	16	0.53338982373476	2	11	2	NaN	2	5	0.0528131511792984	1	1	NaN	193	4	4	2	121	221	321	NaN	521	0.615277428179979	2	1	NaN	2499285.4166483	NaN	2499286.4000526	2499286.91660277
13	21	0	0	90	36.1581920903955	36.241610738255	15	0.500052959751338	2	6	6	NaN	1	3	0.0528131511792984	1	1	NaN	194	4	5	2	121	221	321	NaN	521	0.0342179243452847	1	1	NaN	2499288.3336042	NaN	2499289.3170238	2499289.83356008
13	21	0	0	90	36.1581920903955	36.241610738255	21	0.700074143651873	2	4	6	NaN	1	4	0.0528131511792984	1	1	NaN	195	4	6	2	121	221	321	NaN	521	0.460343428421766	2	0	NaN	2499290.6838494	NaN	2499291.6672417	2499292.18378637
13	21	0	0	90	36.1581920903955	36.241610738255	14	0.466716095767915	2	1	2	NaN	1	5	0.0528131511792984	1	1	NaN	196	4	7	2	121	221	321	NaN	521	0.16512487642467	1	1	NaN	2499293.4507664	NaN	2499294.4341832	2499294.95072562
13	21	0	0	90	36.1581920903955	36.241610738255	8	0.26669491186738	2	12	4	NaN	2	4	0.0528131511792984	1	1	NaN	197	4	8	2	121	221	321	NaN	521	0.162836380302906	2	1	NaN	2499296.3010436	NaN	2499297.2844573	2499297.80101052
13	21	0	0	90	36.1581920903955	36.241610738255	21	0.700074143651873	2	1	5	NaN	1	5	0.0528131511792984	1	1	NaN	198	4	9	2	121	221	321	NaN	521	0.0399321285076439	1	1	NaN	2499298.9679917	NaN	2499299.9514516	2499300.46794097
13	21	0	0	90	36.1581920903955	36.241610738255	14	0.466716095767915	2	4	3	NaN	1	3	0.0528131511792984	1	1	NaN	199	4	10	2	121	221	321	NaN	521	0.737739328294992	1	1	NaN	2499301.318166	NaN	2499302.3016134	2499302.81817187
13	21	0	0	90	36.1581920903955	36.241610738255	18	0.600063551701605	2	6	5	NaN	1	3	0.0528131511792984	1	1	NaN	200	4	11	2	121	221	321	NaN	521	0.103419276420027	1	1	NaN	2499304.3685395	NaN	2499305.3519101	2499305.86846782
13	21	0	0	90	36.1581920903955	36.241610738255	18	0.600063551701605	2	9	1	NaN	2	3	0.0528131511792984	1	1	NaN	201	4	12	2	121	221	321	NaN	521	0.147072128485888	2	1	NaN	2499306.8688417	NaN	2499307.8521204	2499308.36871877
13	21	0	0	90	36.1581920903955	36.241610738255	25	0.833421599585563	2	2	5	NaN	1	3	0.0528131511792984	1	1	NaN	202	4	13	2	121	221	321	NaN	521	0.0104136765003204	1	1	NaN	2499309.502234	NaN	2499310.485758	2499311.00229912
13	21	0	0	90	36.1581920903955	36.241610738255	6	0.200021183900535	2	5	5	NaN	1	4	0.0528131511792984	1	1	NaN	203	4	14	2	121	221	321	NaN	521	6.82874442450702	1	1	NaN	2499311.8191507	NaN	2499312.8026535	2499313.31919358
13	21	0	0	90	36.1581920903955	36.241610738255	6	0.200021183900535	2	7	5	NaN	2	4	0.0528131511792984	1	1	NaN	204	4	15	2	121	221	321	NaN	521	0.0105332243256271	2	1	NaN	2499320.9700126	NaN	2499321.9535573	2499322.47009808
13	21	0	0	90	36.1581920903955	36.241610738255	20	0.66673727966845	2	4	6	NaN	1	3	0.0528131511792984	1	1	NaN	205	4	16	2	121	221	321	NaN	521	0.0103981285355985	1	1	NaN	2499323.5537109	NaN	2499324.5371338	2499325.05368007
13	21	0	0	90	36.1581920903955	36.241610738255	8	0.26669491186738	2	10	5	NaN	2	3	0.0528131511792984	1	1	NaN	206	4	17	2	121	221	321	NaN	521	0.0834112768061459	2	1	NaN	2499326.0206312	NaN	2499327.0040253	2499327.52059422
13	21	0	0	90	36.1581920903955	36.241610738255	20	0.66673727966845	2	11	4	NaN	2	5	0.0528131511792984	1	1	NaN	207	4	18	2	121	221	321	NaN	521	0.241650224197656	2	1	NaN	2499328.6542167	NaN	2499329.6376436	2499330.15418028
13	21	0	0	90	36.1581920903955	36.241610738255	19	0.633400415685028	2	4	4	NaN	1	4	0.0528131511792984	1	1	NaN	208	4	19	2	121	221	321	NaN	521	0.251760527957231	2	0	NaN	2499331.2044781	NaN	2499332.187893	2499332.70444017
13	21	0	0	90	36.1581920903955	36.241610738255	7	0.233358047883958	2	10	4	NaN	2	3	0.0528131511792984	1	1	NaN	209	4	20	2	121	221	321	NaN	521	0.164771880488843	2	1	NaN	2499333.7714043	NaN	2499334.7548062	2499335.27135882
13	21	0	0	90	36.1581920903955	36.241610738255	9	0.300031775850803	2	8	2	NaN	2	4	0.0528131511792984	1	1	NaN	210	4	21	2	121	221	321	NaN	521	0.937589876353741	2	1	NaN	2499336.2383028	NaN	2499337.2216967	2499337.73826732
13	21	0	0	90	36.1581920903955	36.241610738255	21	0.700074143651873	2	10	3	NaN	2	3	0.0528131511792984	1	1	NaN	211	4	22	2	121	221	321	NaN	521	0.079373580403626	2	1	NaN	2499339.4886431	NaN	2499340.4720221	2499340.98858342
13	21	0	0	90	36.1581920903955	36.241610738255	20	0.66673727966845	2	1	4	NaN	1	5	0.0528131511792984	1	1	NaN	212	4	23	2	121	221	321	NaN	521	0.0637181284837425	1	1	NaN	2499341.8722113	NaN	2499342.8555829	2499343.37215737
13	21	0	0	90	36.1581920903955	36.241610738255	25	0.833421599585563	2	5	3	NaN	1	4	0.0528131511792984	1	1	NaN	213	4	24	2	121	221	321	NaN	521	0.184594180434942	1	1	NaN	2499344.2558012	NaN	2499345.239213	2499345.75571522
13	21	0	0	90	36.1581920903955	36.241610738255	24	0.80008473560214	2	2	4	NaN	1	5	0.0528131511792984	1	1	NaN	214	4	25	2	121	221	321	NaN	521	0.155845928005874	1	1	NaN	2499346.7558876	NaN	2499347.7394223	2499348.25596797
13	21	0	0	90	36.1581920903955	36.241610738255	17	0.566726687718183	2	10	2	NaN	2	5	0.0528131511792984	1	1	NaN	215	4	26	2	121	221	321	NaN	521	0.128964576870203	2	1	NaN	2499349.2227953	NaN	2499350.2063114	2499350.72286872
13	21	0	0	90	36.1581920903955	36.241610738255	16	0.53338982373476	2	5	2	NaN	1	5	0.0528131511792984	1	1	NaN	216	4	27	2	121	221	321	NaN	521	0.0555139766074717	1	1	NaN	2499351.6565094	NaN	2499352.6398951	2499353.15644212
13	21	0	0	90	36.1581920903955	36.241610738255	9	0.300031775850803	2	5	5	NaN	1	4	0.0528131511792984	1	1	NaN	217	4	28	2	121	221	321	NaN	521	0.744425976648927	1	1	NaN	2499354.0232737	NaN	2499355.006795	2499355.52334872
13	21	0	0	90	36.1581920903955	36.241610738255	8	0.26669491186738	2	5	3	NaN	1	3	0.0528131511792984	1	1	NaN	218	4	29	2	121	221	321	NaN	521	0.118579728063196	1	1	NaN	2499357.0736884	NaN	2499358.0571247	2499358.57364817
13	21	0	0	90	36.1581920903955	36.241610738255	18	0.600063551701605	2	12	1	NaN	2	5	0.0528131511792984	1	1	NaN	219	4	30	2	121	221	321	NaN	521	0.609293124172837	2	1	NaN	2499360.3906626	NaN	2499361.3740772	2499361.89063318
13	21	0	0	90	36.1581920903955	36.241610738255	17	0.566726687718183	2	8	5	NaN	2	5	0.0528131511792984	1	1	NaN	220	4	31	2	121	221	321	NaN	521	0.036868576426059	2	1	NaN	2499364.2910459	NaN	2499365.2744853	2499365.79101912
13	21	0	0	90	36.1581920903955	36.241610738255	11	0.366705503817648	2	1	3	NaN	1	3	0.0528131511792984	1	1	NaN	221	4	32	2	121	221	321	NaN	521	0.0307198804803193	1	1	NaN	2499366.6413053	NaN	2499367.6246982	2499368.14125802
13	21	0	0	90	36.1581920903955	36.241610738255	16	0.53338982373476	2	4	1	NaN	1	4	0.0528131511792984	1	1	NaN	222	4	33	2	121	221	321	NaN	521	0.359698576387018	1	1	NaN	2499369.2080915	NaN	2499370.1916267	2499370.70816552
13	21	0	0	90	36.1581920903955	36.241610738255	17	0.566726687718183	2	7	4	NaN	2	4	0.0528131511792984	1	1	NaN	223	4	34	2	121	221	321	NaN	521	0.172582244034857	2	1	NaN	2499371.8918289	NaN	2499372.8752141	2499373.39176466
13	21	0	0	90	36.1581920903955	36.241610738255	16	0.53338982373476	2	10	6	NaN	2	5	0.0528131511792984	1	1	NaN	224	4	35	2	121	221	321	NaN	521	0.385148787871003	2	1	NaN	2499374.5587526	NaN	2499375.5420437	2499376.05870481
13	21	0	0	90	36.1581920903955	36.241610738255	0	0	1	1	4	NaN	1	5	0.0528131511792984	1	1	NaN	225	4	36	2	111	211	311	NaN	511	0.0503300279378891	2	0	NaN	2499377.3256514	NaN	2499378.3090825	2499378.82562927
13	21	0	0	90	36.1581920903955	36.241610738255	13	0.433379231784493	2	10	6	NaN	2	5	0.0528131511792984	1	1	NaN	226	4	37	2	121	221	321	NaN	521	0.114795776549727	1	0	NaN	2499379.7092327	NaN	2499380.6926412	2499381.20920812
13	21	0	0	90	36.1581920903955	36.241610738255	12	0.40004236780107	2	5	4	NaN	1	4	0.0528131511792984	1	1	NaN	227	4	38	2	121	221	321	NaN	521	0.113057487644255	1	1	NaN	2499382.1428198	NaN	2499383.1262243	2499383.64277861
13	21	0	0	90	36.1581920903955	36.241610738255	7	0.233358047883958	2	8	2	NaN	2	5	0.0528131511792984	1	1	NaN	228	4	39	2	121	221	321	NaN	521	0.0562756764702499	2	1	NaN	2499384.559735	NaN	2499385.5431165	2499386.05967772
13	21	0	0	90	36.1581920903955	36.241610738255	22	0.733411007635295	2	10	3	NaN	2	4	0.0528131511792984	1	1	NaN	229	4	40	2	121	221	321	NaN	521	0.0974095803685486	2	1	NaN	2499386.9266315	NaN	2499387.9100261	2499388.42658332
13	21	0	0	90	36.1581920903955	36.241610738255	19	0.633400415685028	2	2	3	NaN	1	4	0.0528131511792984	1	1	NaN	230	4	41	2	121	221	321	NaN	521	0.0164026762358844	1	1	NaN	2499389.343501	NaN	2499390.3269803	2499390.84347972
13	21	0	0	90	36.1581920903955	36.241610738255	10	0.333368639834225	2	3	3	NaN	1	3	0.0528131511792984	1	1	NaN	231	4	42	2	121	221	321	NaN	521	0.274098380003124	1	1	NaN	2499391.8936501	NaN	2499392.8771948	2499393.39373772
13	21	0	0	90	36.1581920903955	36.241610738255	10	0.333368639834225	2	10	4	NaN	2	5	0.0528131511792984	1	1	NaN	232	4	43	2	121	221	321	NaN	521	0.610525628086179	1	0	NaN	2499394.4773801	NaN	2499395.4607717	2499395.97732257
13	21	0	0	90	36.1581920903955	36.241610738255	19	0.633400415685028	2	10	1	NaN	2	5	0.0528131511792984	1	1	NaN	233	4	44	2	121	221	321	NaN	521	0.100996128283441	2	1	NaN	2499397.4109864	NaN	2499398.3943843	2499398.91094467
13	21	0	0	90	36.1581920903955	36.241610738255	7	0.233358047883958	2	5	2	NaN	1	4	0.0528131511792984	1	1	NaN	234	4	45	2	121	221	321	NaN	521	0.236007728148252	2	0	NaN	2499399.8278925	NaN	2499400.8112995	2499401.32784817
13	21	0	0	90	36.1581920903955	36.241610738255	19	0.633400415685028	2	3	5	NaN	1	3	0.0528131511792984	1	1	NaN	235	4	46	2	121	221	321	NaN	521	0.158548343926668	1	1	NaN	2499402.5614565	NaN	2499403.5448896	2499404.06144426
13	21	0	0	90	36.1581920903955	36.241610738255	12	0.40004236780107	2	11	6	NaN	2	5	0.0528131511792984	1	1	NaN	236	4	47	2	121	221	321	NaN	521	0.13171967677772	2	1	NaN	2499405.0282918	NaN	2499406.0118092	2499406.52835622
13	21	0	0	90	36.1581920903955	36.241610738255	13	0.433379231784493	2	5	6	NaN	1	4	0.0528131511792984	1	1	NaN	237	4	48	2	121	221	321	NaN	521	0.575310276355594	1	1	NaN	2499407.7286425	NaN	2499408.7121097	2499409.22861622
13	21	0	0	90	36.1581920903955	36.241610738255	10	0.333368639834225	2	9	5	NaN	2	3	0.0528131511792984	1	1	NaN	238	4	49	2	121	221	321	NaN	521	0.0170439765788615	1	0	NaN	2499410.8789548	NaN	2499411.8624105	2499412.37892482
13	21	0	0	90	36.1581920903955	36.241610738255	11	0.366705503817648	2	7	1	NaN	2	4	0.0528131511792984	1	1	NaN	239	4	50	2	121	221	321	NaN	521	0.0875701764598489	2	1	NaN	2499413.512523	NaN	2499414.4959694	2499415.01251662
13	21	0	0	90	36.1581920903955	36.241610738255	12	0.40004236780107	2	6	5	NaN	1	3	0.0528131511792984	1	1	NaN	240	4	51	2	121	221	321	NaN	521	0.319191628135741	2	0	NaN	2499415.9126783	NaN	2499416.8962143	2499417.41276367
13	21	0	0	90	36.1581920903955	36.241610738255	20	0.66673727966845	2	6	5	NaN	1	5	0.0528131511792984	1	1	NaN	241	4	52	2	121	221	321	NaN	521	0.493984336499125	1	1	NaN	2499418.5462572	NaN	2499419.5297997	2499420.04634566
13	21	0	0	90	36.1581920903955	36.241610738255	21	0.700074143651873	2	12	5	NaN	2	5	0.0528131511792984	1	1	NaN	242	4	53	2	121	221	321	NaN	521	0.010405876673758	2	1	NaN	2499423.5135279	NaN	2499424.4969549	2499425.01350852
13	21	0	0	90	36.1581920903955	36.241610738255	20	0.66673727966845	2	9	6	NaN	2	4	0.0528131511792984	1	1	NaN	243	4	54	2	121	221	321	NaN	521	0.0104331243783236	2	1	NaN	2499426.130418	NaN	2499427.1138776	2499427.63042148
13	21	0	0	90	36.1581920903955	36.241610738255	17	0.566726687718183	2	4	5	NaN	1	5	0.0528131511792984	1	1	NaN	244	4	55	2	121	221	321	NaN	521	0.0886112242005765	1	1	NaN	2499428.4472511	NaN	2499429.4307659	2499429.94732638
13	21	0	0	90	36.1581920903955	36.241610738255	23	0.766747871618718	2	5	2	NaN	1	4	0.0528131511792984	1	1	NaN	245	4	56	2	121	221	321	NaN	521	0.512432928197086	1	1	NaN	2499430.8475952	NaN	2499431.8309929	2499432.34755227
13	21	0	0	90	36.1581920903955	36.241610738255	24	0.80008473560214	2	2	5	NaN	1	3	0.0528131511792984	1	1	NaN	246	4	57	2	121	221	321	NaN	521	0.0475395279936492	1	1	NaN	2499433.6644617	NaN	2499434.6479561	2499435.16450117
13	21	0	0	90	36.1581920903955	36.241610738255	14	0.466716095767915	2	8	6	NaN	2	4	0.0528131511792984	1	1	NaN	247	4	58	2	121	221	321	NaN	521	0.0967155764810741	2	1	NaN	2499436.0314542	NaN	2499437.0148895	2499437.53139432
13	21	0	0	90	36.1581920903955	36.241610738255	0	0	1	11	5	NaN	2	3	0.0528131511792984	1	1	NaN	248	4	59	2	111	211	311	NaN	511	0.249713424127549	2	1	NaN	2499438.5983431	NaN	2499439.5817697	2499440.09830928
13	21	0	0	90	36.1581920903955	36.241610738255	9	0.300031775850803	2	7	6	NaN	2	4	0.0528131511792984	1	1	NaN	249	4	60	2	121	221	321	NaN	521	0.453196428250521	2	1	NaN	2499441.3153206	NaN	2499442.2986944	2499442.81525557
13	21	0	0	90	36.1581920903955	36.241610738255	9	0.300031775850803	2	9	3	NaN	2	5	0.0528131511792984	1	1	NaN	250	4	61	2	121	221	321	NaN	521	0.240183776244521	2	1	NaN	2499444.4321449	NaN	2499445.4156669	2499445.93222092
13	21	0	0	90	36.1581920903955	36.241610738255	19	0.633400415685028	2	9	1	NaN	2	3	0.0528131511792984	1	1	NaN	251	4	62	2	121	221	321	NaN	521	0.100096280220896	2	1	NaN	2499448.5158855	NaN	2499449.4993984	2499450.01596642
13	21	0	0	90	36.1581920903955	36.241610738255	0	0	1	7	6	NaN	2	3	0.0528131511792984	1	1	NaN	252	4	63	2	111	211	311	NaN	511	0.594422528054565	2	1	NaN	2499450.9496085	NaN	2499451.9329849	2499452.44953337
13	21	0	0	90	36.1581920903955	36.241610738255	18	0.600063551701605	2	5	6	NaN	1	4	0.0528131511792984	1	1	NaN	253	5	1	2	121	221	321	NaN	521	0.549200728069991	1	1	NaN	2499456.866803	NaN	2499457.8502197	2499458.36677967
13	21	0	0	90	36.1581920903955	36.241610738255	12	0.40004236780107	2	3	5	NaN	1	4	0.0528131511792984	1	1	NaN	254	5	2	2	121	221	321	NaN	521	0.0903900763951242	2	0	NaN	2499459.7337837	NaN	2499460.7171768	2499461.23371962
13	21	0	0	90	36.1581920903955	36.241610738255	17	0.566726687718183	2	1	2	NaN	1	3	0.0528131511792984	1	1	NaN	255	5	3	2	121	221	321	NaN	521	0.0581031767651439	1	1	NaN	2499462.1340195	NaN	2499463.1174184	2499463.63396712
13	21	0	0	90	36.1581920903955	36.241610738255	22	0.733411007635295	2	6	4	NaN	1	3	0.0528131511792984	1	1	NaN	256	5	4	2	121	221	321	NaN	521	0.203247028402984	1	1	NaN	2499464.5010635	NaN	2499465.4843093	2499466.00085807
13	21	0	0	90	36.1581920903955	36.241610738255	20	0.66673727966845	2	1	5	NaN	1	5	0.0528131511792984	1	1	NaN	257	5	5	2	121	221	321	NaN	521	0.222222928423434	1	1	NaN	2499467.0178268	NaN	2499468.0012674	2499468.51777897
13	21	0	0	90	36.1581920903955	36.241610738255	17	0.566726687718183	2	4	1	NaN	1	5	0.0528131511792984	1	1	NaN	258	5	6	2	121	221	321	NaN	521	0.0886813281103969	1	1	NaN	2499469.551424	NaN	2499470.5348074	2499471.05136267
13	21	0	0	90	36.1581920903955	36.241610738255	21	0.700074143651873	2	3	3	NaN	1	4	0.0528131511792984	1	1	NaN	259	5	7	2	121	221	321	NaN	521	0.0484779765829444	1	1	NaN	2499471.9516676	NaN	2499472.9350211	2499473.45158602
13	21	0	0	90	36.1581920903955	36.241610738255	15	0.500052959751338	2	6	4	NaN	1	5	0.0528131511792984	1	1	NaN	260	5	8	2	121	221	321	NaN	521	0.0894817281514406	1	1	NaN	2499474.3185563	NaN	2499475.3019438	2499475.81849577
13	21	0	0	90	36.1581920903955	36.241610738255	19	0.633400415685028	2	2	4	NaN	1	5	0.0528131511792984	1	1	NaN	261	5	9	2	121	221	321	NaN	521	0.0103871282190084	2	0	NaN	2499476.718782	NaN	2499477.7021847	2499478.21873187
13	21	0	0	90	36.1581920903955	36.241610738255	16	0.53338982373476	2	11	5	NaN	2	3	0.0528131511792984	1	1	NaN	262	5	10	2	121	221	321	NaN	521	0.0684945285320282	2	1	NaN	2499479.0357125	NaN	2499480.0190689	2499480.53562497
13	21	0	0	90	36.1581920903955	36.241610738255	10	0.333368639834225	2	11	1	NaN	2	3	0.0528131511792984	1	1	NaN	263	5	11	2	121	221	321	NaN	521	0.0609042281284928	2	1	NaN	2499481.4191198	NaN	2499482.4026468	2499482.91918507
13	21	0	0	90	36.1581920903955	36.241610738255	21	0.700074143651873	2	6	6	NaN	1	5	0.0528131511792984	1	1	NaN	264	5	12	2	121	221	321	NaN	521	0.125347428023815	1	1	NaN	2499483.8027834	NaN	2499484.7862102	2499485.30276067
13	21	0	0	90	36.1581920903955	36.241610738255	14	0.466716095767915	2	2	6	NaN	1	5	0.0528131511792984	1	1	NaN	265	5	13	2	121	221	321	NaN	521	0.107744528446347	1	1	NaN	2499486.23627	NaN	2499487.2197754	2499487.73633377
13	21	0	0	90	36.1581920903955	36.241610738255	7	0.233358047883958	2	11	2	NaN	2	5	0.0528131511792984	1	1	NaN	266	5	14	2	121	221	321	NaN	521	0.0830800281837583	2	1	NaN	2499488.6533474	NaN	2499489.6366795	2499490.15322917
13	21	0	0	90	36.1581920903955	36.241610738255	21	0.700074143651873	2	5	3	NaN	1	4	0.0528131511792984	1	1	NaN	267	5	15	2	121	221	321	NaN	521	0.0104219764471054	1	1	NaN	2499491.0535375	NaN	2499492.0368951	2499492.55346372
13	21	0	0	90	36.1581920903955	36.241610738255	0	0	1	6	2	NaN	1	5	0.0528131511792984	1	1	NaN	268	5	16	2	111	211	311	NaN	511	1.67559078056365	1	1	NaN	2499493.6204319	NaN	2499494.6038464	2499495.12039142
13	21	0	0	90	36.1581920903955	36.241610738255	24	0.80008473560214	2	7	5	NaN	2	3	0.0528131511792984	1	1	NaN	269	5	17	2	121	221	321	NaN	521	0.275945276487619	2	1	NaN	2499497.6040446	NaN	2499498.5875669	2499499.10410422
13	21	0	0	90	36.1581920903955	36.241610738255	25	0.833421599585563	2	4	6	NaN	1	5	0.0528131511792984	1	1	NaN	270	5	18	2	121	221	321	NaN	521	0.156760676763952	1	1	NaN	2499500.1877835	NaN	2499501.1711914	2499501.68770432
13	21	0	0	90	36.1581920903955	36.241610738255	6	0.200021183900535	2	4	1	NaN	1	4	0.0528131511792984	1	1	NaN	271	5	19	2	121	221	321	NaN	521	0.0104308729059994	1	1	NaN	2499502.6546258	NaN	2499503.6380496	2499504.15460053
13	21	0	0	90	36.1581920903955	36.241610738255	6	0.200021183900535	2	2	4	NaN	1	5	0.0528131511792984	1	1	NaN	272	5	20	2	121	221	321	NaN	521	0.0126428878866136	1	1	NaN	2499504.9714362	NaN	2499505.9549465	2499506.47150831
13	21	0	0	90	36.1581920903955	36.241610738255	13	0.433379231784493	2	8	2	NaN	2	3	0.0528131511792984	1	1	NaN	273	5	21	2	121	221	321	NaN	521	0.127519328147173	2	1	NaN	2499507.305097	NaN	2499508.2885878	2499508.80506507
13	21	0	0	90	36.1581920903955	36.241610738255	15	0.500052959751338	2	8	3	NaN	2	3	0.0528131511792984	1	1	NaN	274	5	22	2	121	221	321	NaN	521	0.178482080344111	2	1	NaN	2499509.821956	NaN	2499510.8054043	2499511.32197432
13	21	0	0	90	36.1581920903955	36.241610738255	24	0.80008473560214	2	5	2	NaN	1	4	0.0528131511792984	1	1	NaN	275	5	23	2	121	221	321	NaN	521	0.0104092764668167	1	1	NaN	2499512.3056122	NaN	2499513.2890102	2499513.80555372
13	21	0	0	90	36.1581920903955	36.241610738255	23	0.766747871618718	2	10	4	NaN	2	3	0.0528131511792984	1	1	NaN	276	5	24	2	121	221	321	NaN	521	0.174646676518023	2	1	NaN	2499514.9058407	NaN	2499515.8892706	2499516.40581452
13	21	0	0	90	36.1581920903955	36.241610738255	19	0.633400415685028	2	6	2	NaN	1	5	0.0528131511792984	1	1	NaN	277	5	25	2	121	221	321	NaN	521	0.179229476489127	1	1	NaN	2499517.3894585	NaN	2499518.3728415	2499518.88938432
13	21	0	0	90	36.1581920903955	36.241610738255	10	0.333368639834225	2	6	3	NaN	1	5	0.0528131511792984	1	1	NaN	278	5	26	2	121	221	321	NaN	521	0.207081628032029	1	1	NaN	2499519.8730151	NaN	2499520.8564378	2499521.37295887
13	21	0	0	90	36.1581920903955	36.241610738255	7	0.233358047883958	2	7	2	NaN	2	3	0.0528131511792984	1	1	NaN	279	5	27	2	121	221	321	NaN	521	0.174775876570493	2	1	NaN	2499522.4732433	NaN	2499523.4566807	2499523.97321242
13	21	0	0	90	36.1581920903955	36.241610738255	15	0.500052959751338	2	11	3	NaN	2	3	0.0528131511792984	1	1	NaN	280	5	28	2	121	221	321	NaN	521	0.3790672281757	2	1	NaN	2499524.9735174	NaN	2499525.9569212	2499526.47345917
13	21	0	0	90	36.1581920903955	36.241610738255	23	0.766747871618718	2	11	1	NaN	2	4	0.0528131511792984	1	1	NaN	281	5	29	2	121	221	321	NaN	521	0.199014643672854	2	1	NaN	2499527.6571046	NaN	2499528.6405115	2499529.15706136
13	21	0	0	90	36.1581920903955	36.241610738255	22	0.733411007635295	2	12	6	NaN	2	4	0.0528131511792984	1	1	NaN	282	5	30	2	121	221	321	NaN	521	0.209291980136186	2	1	NaN	2499530.7907832	NaN	2499531.7741506	2499532.29071022
13	21	0	0	90	36.1581920903955	36.241610738255	20	0.66673727966845	2	3	3	NaN	1	3	0.0528131511792984	1	1	NaN	283	5	31	2	121	221	321	NaN	521	0.256781928241253	1	1	NaN	2499533.607695	NaN	2499534.5910976	2499535.10764947
13	21	0	0	90	36.1581920903955	36.241610738255	19	0.633400415685028	2	5	6	NaN	1	5	0.0528131511792984	1	1	NaN	284	5	32	2	121	221	321	NaN	521	0.105579424183816	1	1	NaN	2499536.7746826	NaN	2499537.7580673	2499538.27461658
13	21	0	0	90	36.1581920903955	36.241610738255	23	0.766747871618718	2	3	2	NaN	1	5	0.0528131511792984	1	1	NaN	285	5	33	2	121	221	321	NaN	521	0.247169476468116	1	1	NaN	2499539.4248311	NaN	2499540.4083426	2499540.92487982
13	21	0	0	90	36.1581920903955	36.241610738255	14	0.466716095767915	2	12	5	NaN	2	5	0.0528131511792984	1	1	NaN	286	5	34	2	121	221	321	NaN	521	0.152375928126276	2	1	NaN	2499541.9918723	NaN	2499542.9752567	2499543.49180707
13	21	0	0	90	36.1581920903955	36.241610738255	14	0.466716095767915	2	5	4	NaN	1	5	0.0528131511792984	1	1	NaN	287	5	35	2	121	221	321	NaN	521	0.0452754278667271	1	1	NaN	2499544.4587791	NaN	2499545.4421436	2499545.95871867
13	21	0	0	90	36.1581920903955	36.241610738255	10	0.333368639834225	2	5	1	NaN	1	3	0.0528131511792984	1	1	NaN	288	5	36	2	121	221	321	NaN	521	0.318960228003561	1	1	NaN	2499546.8255453	NaN	2499547.8090642	2499548.32561567
13	21	0	0	90	36.1581920903955	36.241610738255	13	0.433379231784493	2	1	6	NaN	1	4	0.0528131511792984	1	1	NaN	289	5	37	2	121	221	321	NaN	521	0.0275579765439034	2	0	NaN	2499549.4926213	NaN	2499550.4759942	2499550.99254072
13	21	0	0	90	36.1581920903955	36.241610738255	0	0	1	5	5	NaN	1	5	0.0528131511792984	1	1	NaN	290	5	38	2	111	211	311	NaN	511	0.101437280420214	1	1	NaN	2499551.8428354	NaN	2499552.8262164	2499553.34276972
13	21	0	0	90	36.1581920903955	36.241610738255	18	0.600063551701605	2	8	4	NaN	2	4	0.0528131511792984	1	1	NaN	291	5	39	2	121	221	321	NaN	521	0.148706728126854	2	1	NaN	2499554.2597404	NaN	2499555.2431244	2499555.75968037
13	21	0	0	90	36.1581920903955	36.241610738255	14	0.466716095767915	2	8	3	NaN	2	3	0.0528131511792984	1	1	NaN	292	5	40	2	121	221	321	NaN	521	0.089556532446295	2	1	NaN	2499556.7266547	NaN	2499557.7100279	2499558.22659147
13	21	0	0	90	36.1581920903955	36.241610738255	21	0.700074143651873	2	1	4	NaN	1	3	0.0528131511792984	1	1	NaN	293	5	41	2	121	221	321	NaN	521	0.129302576184273	1	1	NaN	2499559.1267337	NaN	2499560.1102766	2499560.62681642
13	21	0	0	90	36.1581920903955	36.241610738255	22	0.733411007635295	2	4	5	NaN	1	3	0.0528131511792984	1	1	NaN	294	5	42	2	121	221	321	NaN	521	0.159586780238897	1	1	NaN	2499561.5771031	NaN	2499562.560508	2499563.07708162
13	21	0	0	90	36.1581920903955	36.241610738255	12	0.40004236780107	2	1	3	NaN	1	5	0.0528131511792984	1	1	NaN	295	5	43	2	121	221	321	NaN	521	0.10827117646113	1	1	NaN	2499564.0441028	NaN	2499565.027424	2499565.54396122
13	21	0	0	90	36.1581920903955	36.241610738255	9	0.300031775850803	2	12	4	NaN	2	3	0.0528131511792984	1	1	NaN	296	5	44	2	121	221	321	NaN	521	0.723684776574373	1	0	NaN	2499566.4608203	NaN	2499567.4443289	2499567.96086462
13	21	0	0	90	36.1581920903955	36.241610738255	12	0.40004236780107	2	7	5	NaN	2	3	0.0528131511792984	1	1	NaN	297	5	45	2	121	221	321	NaN	521	0.867838628590107	2	1	NaN	2499569.6445847	NaN	2499570.6279724	2499571.14452427
13	21	0	0	90	36.1581920903955	36.241610738255	12	0.40004236780107	2	9	2	NaN	2	5	0.0528131511792984	1	1	NaN	298	5	46	2	121	221	321	NaN	521	3.50793683249503	2	1	NaN	2499572.8282173	NaN	2499573.8116111	2499574.32816017
13	21	0	0	90	36.1581920903955	36.241610738255	22	0.733411007635295	2	8	5	NaN	2	3	0.0528131511792984	1	1	NaN	299	5	47	2	121	221	321	NaN	521	0.0935482764616609	2	1	NaN	2499579.1784325	NaN	2499580.1622775	2499580.67878272
13	21	0	0	90	36.1581920903955	36.241610738255	22	0.733411007635295	2	1	5	NaN	1	5	0.0528131511792984	1	1	NaN	300	5	48	2	121	221	321	NaN	521	0.0370151284150779	1	1	NaN	2499581.5791194	NaN	2499582.5624763	2499583.07902707
13	21	0	0	90	36.1581920903955	36.241610738255	17	0.566726687718183	2	11	1	NaN	2	3	0.0528131511792984	1	1	NaN	301	5	49	2	121	221	321	NaN	521	0.0709911282174289	2	1	NaN	2499583.9292912	NaN	2499584.9126934	2499585.42925807
13	21	0	0	90	36.1581920903955	36.241610738255	19	0.633400415685028	2	4	3	NaN	1	5	0.0528131511792984	1	1	NaN	302	5	50	2	121	221	321	NaN	521	0.0227618240751326	1	1	NaN	2499586.529586	NaN	2499587.5129811	2499588.02951498
13	21	0	0	90	36.1581920903955	36.241610738255	23	0.766747871618718	2	7	3	NaN	2	3	0.0528131511792984	1	1	NaN	303	5	51	2	121	221	321	NaN	521	1.3208956765011	2	1	NaN	2499589.6798431	NaN	2499590.6632706	2499591.17981172
13	21	0	0	90	36.1581920903955	36.241610738255	21	0.700074143651873	2	10	1	NaN	2	5	0.0528131511792984	1	1	NaN	304	5	52	2	121	221	321	NaN	521	0.142654380295426	2	1	NaN	2499594.3135367	NaN	2499595.2970374	2499595.81360782
13	21	0	0	90	36.1581920903955	36.241610738255	8	0.26669491186738	2	7	3	NaN	2	3	0.0528131511792984	1	1	NaN	305	5	53	2	121	221	321	NaN	521	0.165514976717532	2	1	NaN	2499596.9472225	NaN	2499597.9306497	2499598.44719182
13	21	0	0	90	36.1581920903955	36.241610738255	24	0.80008473560214	2	8	3	NaN	2	3	0.0528131511792984	1	1	NaN	306	5	54	2	121	221	321	NaN	521	0.265820427797735	2	1	NaN	2499599.4308413	NaN	2499600.4142266	2499600.93078307
13	21	0	0	90	36.1581920903955	36.241610738255	18	0.600063551701605	2	3	4	NaN	1	4	0.0528131511792984	1	1	NaN	307	5	55	2	121	221	321	NaN	521	0.110613376367837	1	1	NaN	2499602.0976447	NaN	2499603.081088	2499603.59770012
13	21	0	0	90	36.1581920903955	36.241610738255	23	0.766747871618718	2	6	3	NaN	1	4	0.0528131511792984	1	1	NaN	308	5	56	2	121	221	321	NaN	521	0.107106728479266	1	1	NaN	2499604.5812235	NaN	2499605.564714	2499606.08128037
13	21	0	0	90	36.1581920903955	36.241610738255	21	0.700074143651873	2	7	5	NaN	2	5	0.0528131511792984	1	1	NaN	309	5	57	2	121	221	321	NaN	521	0.224559828173369	2	1	NaN	2499607.6314969	NaN	2499608.6150303	2499609.13158717
13	21	0	0	90	36.1581920903955	36.241610738255	18	0.600063551701605	2	9	4	NaN	2	5	0.0528131511792984	1	1	NaN	310	5	58	2	121	221	321	NaN	521	0.187044476624578	2	1	NaN	2499610.1652427	NaN	2499611.1486151	2499611.66516152
13	21	0	0	90	36.1581920903955	36.241610738255	22	0.733411007635295	2	10	6	NaN	2	5	0.0528131511792984	1	1	NaN	311	5	59	2	121	221	321	NaN	521	0.116822087671608	2	1	NaN	2499612.915448	NaN	2499613.8988878	2499614.41543321
13	21	0	0	90	36.1581920903955	36.241610738255	22	0.733411007635295	2	9	5	NaN	2	3	0.0528131511792984	1	1	NaN	312	5	60	2	121	221	321	NaN	521	0.0599220767617226	2	1	NaN	2499615.5323854	NaN	2499616.51586	2499617.03236042
13	21	0	0	90	36.1581920903955	36.241610738255	8	0.26669491186738	2	9	6	NaN	2	5	0.0528131511792984	1	1	NaN	313	5	61	2	121	221	321	NaN	521	0.0691222767345607	1	0	NaN	2499617.8991583	NaN	2499618.8826908	2499619.39925512
13	21	0	0	90	36.1581920903955	36.241610738255	8	0.26669491186738	2	8	3	NaN	2	3	0.0528131511792984	1	1	NaN	314	5	62	2	121	221	321	NaN	521	0.12555657653138	2	1	NaN	2499620.2828716	NaN	2499621.2662748	2499621.78282382
13	21	0	0	90	36.1581920903955	36.241610738255	7	0.233358047883958	2	8	3	NaN	2	3	0.0528131511792984	1	1	NaN	315	5	63	2	121	221	321	NaN	521	0.209125628229231	2	1	NaN	2499623.583173	NaN	2499624.5665935	2499625.08314357
13	21	0	0	90	36.1581920903955	36.241610738255	16	0.53338982373476	2	6	6	NaN	1	5	0.0528131511792984	1	1	NaN	316	6	1	2	121	221	321	NaN	521	0.0889081284403801	1	1	NaN	2499632.3673692	NaN	2499633.3507811	2499633.86734897
13	21	0	0	90	36.1581920903955	36.241610738255	16	0.53338982373476	2	1	1	NaN	1	4	0.0528131511792984	1	1	NaN	317	6	2	2	121	221	321	NaN	521	0.128823728300631	1	1	NaN	2499634.7676283	NaN	2499635.7510268	2499636.26757527
13	21	0	0	90	36.1581920903955	36.241610738255	8	0.26669491186738	2	2	2	NaN	1	5	0.0528131511792984	1	1	NaN	318	6	3	2	121	221	321	NaN	521	0.182561328168958	1	1	NaN	2499637.2178893	NaN	2499638.2012806	2499638.71782167
13	21	0	0	90	36.1581920903955	36.241610738255	16	0.53338982373476	2	9	3	NaN	2	4	0.0528131511792984	1	1	NaN	319	6	4	2	121	221	321	NaN	521	0.834202776663005	2	1	NaN	2499639.7181301	NaN	2499640.7014778	2499641.21806582
13	21	0	0	90	36.1581920903955	36.241610738255	8	0.26669491186738	2	10	3	NaN	2	5	0.0528131511792984	1	1	NaN	320	6	5	2	121	221	321	NaN	521	0.27582602808252	2	1	NaN	2499642.8684337	NaN	2499643.8518186	2499644.36837997
13	21	0	0	90	36.1581920903955	36.241610738255	6	0.200021183900535	2	6	1	NaN	1	3	0.0528131511792984	1	1	NaN	321	6	6	2	121	221	321	NaN	521	0.296359828207642	1	1	NaN	2499645.7520218	NaN	2499646.7354399	2499647.25199487
13	21	0	0	90	36.1581920903955	36.241610738255	7	0.233358047883958	2	2	6	NaN	1	4	0.0528131511792984	1	1	NaN	322	6	7	2	121	221	321	NaN	521	0.499657827895135	2	0	NaN	2499649.4689302	NaN	2499650.452497	2499650.96902097
13	21	0	0	90	36.1581920903955	36.241610738255	23	0.766747871618718	2	4	1	NaN	1	4	0.0528131511792984	1	1	NaN	323	6	8	2	121	221	321	NaN	521	0.218887128401548	1	1	NaN	2499652.469341	NaN	2499653.4527607	2499653.96932027
13	21	0	0	90	36.1581920903955	36.241610738255	19	0.633400415685028	2	6	5	NaN	1	4	0.0528131511792984	1	1	NaN	324	6	9	2	121	221	321	NaN	521	0.173404124099761	1	1	NaN	2499655.0030443	NaN	2499655.9863547	2499656.50289748
13	21	0	0	90	36.1581920903955	36.241610738255	23	0.766747871618718	2	3	2	NaN	1	5	0.0528131511792984	1	1	NaN	325	6	10	2	121	221	321	NaN	521	0.161898332182318	1	1	NaN	2499657.4865509	NaN	2499658.4699676	2499658.98647817
13	21	0	0	90	36.1581920903955	36.241610738255	13	0.433379231784493	2	4	5	NaN	1	3	0.0528131511792984	1	1	NaN	326	6	11	2	121	221	321	NaN	521	0.0563468243926764	2	0	NaN	2499660.1200367	NaN	2499661.1035602	2499661.62006598
13	21	0	0	90	36.1581920903955	36.241610738255	10	0.333368639834225	2	2	2	NaN	1	3	0.0528131511792984	1	1	NaN	327	6	12	2	121	221	321	NaN	521	0.0105382245965302	1	1	NaN	2499662.4868965	NaN	2499663.4704142	2499663.98698768
13	21	0	0	90	36.1581920903955	36.241610738255	7	0.233358047883958	2	12	2	NaN	2	4	0.0528131511792984	1	1	NaN	328	6	13	2	121	221	321	NaN	521	0.228341676294804	2	1	NaN	2499664.820568	NaN	2499665.8039732	2499666.32056122
13	21	0	0	90	36.1581920903955	36.241610738255	6	0.200021183900535	2	7	1	NaN	2	3	0.0528131511792984	1	1	NaN	329	6	14	2	121	221	321	NaN	521	0.214584924746305	2	1	NaN	2499667.554153	NaN	2499668.5375883	2499669.05412648
13	21	0	0	90	36.1581920903955	36.241610738255	11	0.366705503817648	2	1	3	NaN	1	4	0.0528131511792984	1	1	NaN	330	6	15	2	121	221	321	NaN	521	0.746027376502752	1	1	NaN	2499670.2544204	NaN	2499671.2378345	2499671.75439332
13	21	0	0	90	36.1581920903955	36.241610738255	12	0.40004236780107	2	6	1	NaN	1	4	0.0528131511792984	1	1	NaN	331	6	16	2	121	221	321	NaN	521	0.194058776367456	2	0	NaN	2499673.4547888	NaN	2499674.438157	2499674.95470282
13	21	0	0	90	36.1581920903955	36.241610738255	22	0.733411007635295	2	2	3	NaN	1	5	0.0528131511792984	1	1	NaN	332	6	17	2	121	221	321	NaN	521	0.181542124599218	1	1	NaN	2499676.5549497	NaN	2499677.5384992	2499678.05500638
13	21	0	0	90	36.1581920903955	36.241610738255	16	0.53338982373476	2	8	4	NaN	2	4	0.0528131511792984	1	1	NaN	333	6	18	2	121	221	321	NaN	521	1.00421182438731	2	1	NaN	2499679.1885321	NaN	2499680.1720554	2499680.68861518
13	21	0	0	90	36.1581920903955	36.241610738255	10	0.333368639834225	2	3	6	NaN	1	3	0.0528131511792984	1	1	NaN	334	6	19	2	121	221	321	NaN	521	0.224538492504507	1	1	NaN	2499682.8723104	NaN	2499683.8557698	2499684.37231241
13	21	0	0	90	36.1581920903955	36.241610738255	22	0.733411007635295	2	1	1	NaN	1	5	0.0528131511792984	1	1	NaN	335	6	20	2	121	221	321	NaN	521	0.475855228025466	1	1	NaN	2499685.5725083	NaN	2499686.5560309	2499687.07256197
13	21	0	0	90	36.1581920903955	36.241610738255	12	0.40004236780107	2	10	3	NaN	2	3	0.0528131511792984	1	1	NaN	336	6	21	2	121	221	321	NaN	521	0.0603543282486498	2	1	NaN	2499688.3562324	NaN	2499689.3396095	2499689.85617727
13	21	0	0	90	36.1581920903955	36.241610738255	22	0.733411007635295	2	11	6	NaN	2	3	0.0528131511792984	1	1	NaN	337	6	22	2	121	221	321	NaN	521	0.131347628310323	2	1	NaN	2499690.7731128	NaN	2499691.7565253	2499692.27308047
13	21	0	0	90	36.1581920903955	36.241610738255	22	0.733411007635295	2	9	2	NaN	2	3	0.0528131511792984	1	1	NaN	338	6	23	2	121	221	321	NaN	521	0.218267876189202	2	1	NaN	2499693.9899855	NaN	2499694.9735124	2499695.49005182
13	21	0	0	90	36.1581920903955	36.241610738255	0	0	1	2	1	NaN	1	3	0.0528131511792984	1	1	NaN	339	6	24	2	111	211	311	NaN	511	0.133660028222948	1	1	NaN	2499696.7070549	NaN	2499697.6904376	2499698.20699647
13	21	0	0	90	36.1581920903955	36.241610738255	20	0.66673727966845	2	12	2	NaN	2	5	0.0528131511792984	1	1	NaN	340	6	25	2	121	221	321	NaN	521	0.196615628432482	2	1	NaN	2499699.5239623	NaN	2499700.507383	2499701.02393627
13	21	0	0	90	36.1581920903955	36.241610738255	23	0.766747871618718	2	12	1	NaN	2	3	0.0528131511792984	1	1	NaN	341	6	26	2	121	221	321	NaN	521	0.729937076102942	2	1	NaN	2499702.3909191	NaN	2499703.3743325	2499703.89087732
13	21	0	0	90	36.1581920903955	36.241610738255	0	0	1	6	3	NaN	1	5	0.0528131511792984	1	1	NaN	342	6	27	2	111	211	311	NaN	511	0.623297228477895	2	0	NaN	2499705.6411622	NaN	2499706.6246582	2499707.14120927
13	21	0	0	90	36.1581920903955	36.241610738255	15	0.500052959751338	2	4	6	NaN	1	3	0.0528131511792984	1	1	NaN	343	6	28	2	121	221	321	NaN	521	0.249801180325449	2	0	NaN	2499708.7748619	NaN	2499709.758295	2499710.27483812
13	21	0	0	90	36.1581920903955	36.241610738255	22	0.733411007635295	2	7	4	NaN	2	3	0.0528131511792984	1	1	NaN	344	6	29	2	121	221	321	NaN	521	0.10736487666145	2	1	NaN	2499711.5251348	NaN	2499712.5085644	2499713.02510962
13	21	0	0	90	36.1581920903955	36.241610738255	7	0.233358047883958	2	5	3	NaN	1	5	0.0528131511792984	1	1	NaN	345	6	30	2	121	221	321	NaN	521	0.138760376721621	1	1	NaN	2499713.9419745	NaN	2499714.9254677	2499715.44201252
13	21	0	0	90	36.1581920903955	36.241610738255	11	0.366705503817648	2	10	6	NaN	2	4	0.0528131511792984	1	1	NaN	346	6	31	2	121	221	321	NaN	521	0.673430180177093	2	1	NaN	2499716.558904	NaN	2499717.542406	2499718.05894492
13	21	0	0	90	36.1581920903955	36.241610738255	18	0.600063551701605	2	3	2	NaN	1	5	0.0528131511792984	1	1	NaN	347	6	32	2	121	221	321	NaN	521	0.132150176446885	1	1	NaN	2499719.8927251	NaN	2499720.8760459	2499721.39259782
13	21	0	0	90	36.1581920903955	36.241610738255	22	0.733411007635295	2	3	1	NaN	1	4	0.0528131511792984	1	1	NaN	348	6	33	2	121	221	321	NaN	521	0.0974826402962208	1	1	NaN	2499722.3428962	NaN	2499723.3262729	2499723.84284496
13	21	0	0	90	36.1581920903955	36.241610738255	23	0.766747871618718	2	11	6	NaN	2	3	0.0528131511792984	1	1	NaN	349	6	34	2	121	221	321	NaN	521	0.0646452284418046	2	1	NaN	2499724.7597988	NaN	2499725.743245	2499726.25974067
13	21	0	0	90	36.1581920903955	36.241610738255	15	0.500052959751338	2	8	2	NaN	2	5	0.0528131511792984	1	1	NaN	350	6	35	2	121	221	321	NaN	521	0.0102551961317658	2	1	NaN	2499727.226682	NaN	2499728.2101049	2499728.7266671
13	21	0	0	90	36.1581920903955	36.241610738255	23	0.766747871618718	2	9	1	NaN	2	5	0.0528131511792984	1	1	NaN	351	6	36	2	121	221	321	NaN	521	0.297570527996868	2	1	NaN	2499729.7269868	NaN	2499730.7103541	2499731.22689857
13	21	0	0	90	36.1581920903955	36.241610738255	15	0.500052959751338	2	12	4	NaN	2	3	0.0528131511792984	1	1	NaN	352	6	37	2	121	221	321	NaN	521	0.424924876540899	2	1	NaN	2499732.5438769	NaN	2499733.5272976	2499734.04385642
13	21	0	0	90	36.1581920903955	36.241610738255	21	0.700074143651873	2	8	3	NaN	2	3	0.0528131511792984	1	1	NaN	353	6	38	2	121	221	321	NaN	521	0.0936030279844999	2	1	NaN	2499735.6108569	NaN	2499736.5942616	2499737.11080707
13	21	0	0	90	36.1581920903955	36.241610738255	14	0.466716095767915	2	6	4	NaN	1	4	0.0528131511792984	1	1	NaN	354	6	39	2	121	221	321	NaN	521	0.235398024320602	2	0	NaN	2499738.0610791	NaN	2499739.0444945	2499739.56105478
13	21	0	0	90	36.1581920903955	36.241610738255	24	0.80008473560214	2	11	6	NaN	2	3	0.0528131511792984	1	1	NaN	355	6	40	2	121	221	321	NaN	521	0.159070680383593	2	1	NaN	2499740.9613719	NaN	2499741.9447889	2499742.46134302
13	21	0	0	90	36.1581920903955	36.241610738255	9	0.300031775850803	2	6	6	NaN	1	4	0.0528131511792984	1	1	NaN	356	6	41	2	121	221	321	NaN	521	0.108192627783865	1	1	NaN	2499743.4281645	NaN	2499744.4117292	2499744.92824727
13	21	0	0	90	36.1581920903955	36.241610738255	24	0.80008473560214	2	3	1	NaN	1	4	0.0528131511792984	1	1	NaN	357	6	42	2	121	221	321	NaN	521	1.06206332799047	2	0	NaN	2499746.178595	NaN	2499747.1619607	2499747.67851587
13	21	0	0	90	36.1581920903955	36.241610738255	0	0	1	5	6	NaN	1	5	0.0528131511792984	1	1	NaN	358	6	43	2	111	211	311	NaN	511	0.407382276374847	1	1	NaN	2499749.7455842	NaN	2499750.7289815	2499751.24552762
13	21	0	0	90	36.1581920903955	36.241610738255	20	0.66673727966845	2	10	4	NaN	2	5	0.0528131511792984	1	1	NaN	359	6	44	2	121	221	321	NaN	521	0.0226318244822323	2	1	NaN	2499754.1459979	NaN	2499755.129413	2499755.64595918
13	21	0	0	90	36.1581920903955	36.241610738255	17	0.566726687718183	2	9	4	NaN	2	4	0.0528131511792984	1	1	NaN	360	6	45	2	121	221	321	NaN	521	0.0649822764098644	2	1	NaN	2499756.4795661	NaN	2499757.4629768	2499757.97952782
13	21	0	0	90	36.1581920903955	36.241610738255	11	0.366705503817648	2	8	4	NaN	2	5	0.0528131511792984	1	1	NaN	361	6	46	2	121	221	321	NaN	521	0.153615528251976	2	1	NaN	2499758.8630306	NaN	2499759.846554	2499760.36310047
13	21	0	0	90	36.1581920903955	36.241610738255	9	0.300031775850803	2	4	2	NaN	1	5	0.0528131511792984	1	1	NaN	362	6	47	2	121	221	321	NaN	521	0.166409376543015	2	0	NaN	2499761.3300524	NaN	2499762.3134656	2499762.82999682
13	21	0	0	90	36.1581920903955	36.241610738255	25	0.833421599585563	2	1	1	NaN	1	3	0.0528131511792984	1	1	NaN	363	6	48	2	121	221	321	NaN	521	0.17941767256707	2	0	NaN	2499763.8136438	NaN	2499764.7970396	2499765.31357723
13	21	0	0	90	36.1581920903955	36.241610738255	0	0	1	12	6	NaN	2	5	0.0528131511792984	1	1	NaN	364	6	49	2	111	211	311	NaN	511	1.01538322819397	2	1	NaN	2499766.2970876	NaN	2499767.2806446	2499767.79716517
13	21	0	0	90	36.1581920903955	36.241610738255	9	0.300031775850803	2	11	5	NaN	2	3	0.0528131511792984	1	1	NaN	365	6	50	2	121	221	321	NaN	521	0.274365027900785	2	1	NaN	2499769.61419	NaN	2499770.5976003	2499771.11415397
13	21	0	0	90	36.1581920903955	36.241610738255	13	0.433379231784493	2	12	3	NaN	2	4	0.0528131511792984	1	1	NaN	366	6	51	2	121	221	321	NaN	521	0.17852892819792	1	0	NaN	2499772.2144598	NaN	2499773.1978381	2499773.71440817
13	21	0	0	90	36.1581920903955	36.241610738255	19	0.633400415685028	2	8	1	NaN	2	4	0.0528131511792984	1	1	NaN	367	6	52	2	121	221	321	NaN	521	0.12571028014645	2	1	NaN	2499774.7147182	NaN	2499775.6981009	2499776.21464462
13	21	0	0	90	36.1581920903955	36.241610738255	23	0.766747871618718	2	1	5	NaN	1	3	0.0528131511792984	1	1	NaN	368	6	53	2	121	221	321	NaN	521	0.0104147763922811	2	0	NaN	2499777.1482631	NaN	2499778.1316866	2499778.64822602
13	21	0	0	90	36.1581920903955	36.241610738255	25	0.833421599585563	2	9	1	NaN	2	5	0.0528131511792984	1	1	NaN	369	6	54	2	121	221	321	NaN	521	0.143355480395257	2	1	NaN	2499779.4651855	NaN	2499780.4485668	2499780.96512192
13	21	0	0	90	36.1581920903955	36.241610738255	16	0.53338982373476	2	3	3	NaN	1	5	0.0528131511792984	1	1	NaN	370	6	55	2	121	221	321	NaN	521	0.229558876249939	1	1	NaN	2499781.9154027	NaN	2499782.8988589	2499783.41536342
13	21	0	0	90	36.1581920903955	36.241610738255	15	0.500052959751338	2	2	3	NaN	1	5	0.0528131511792984	1	1	NaN	371	6	56	2	121	221	321	NaN	521	0.11963867675513	1	1	NaN	2499784.4489934	NaN	2499785.4323966	2499785.94893652
13	21	0	0	90	36.1581920903955	36.241610738255	17	0.566726687718183	2	7	6	NaN	2	3	0.0528131511792984	1	1	NaN	372	6	57	2	121	221	321	NaN	521	0.0104147763922811	2	1	NaN	2499786.8825707	NaN	2499787.8659697	2499788.38251632
13	21	0	0	90	36.1581920903955	36.241610738255	20	0.66673727966845	2	3	5	NaN	1	4	0.0528131511792984	1	1	NaN	373	6	58	2	121	221	321	NaN	521	0.336592327803373	1	1	NaN	2499789.2161437	NaN	2499790.1995197	2499790.71607977
13	21	0	0	90	36.1581920903955	36.241610738255	6	0.200021183900535	2	3	1	NaN	1	3	0.0528131511792984	1	1	NaN	374	6	59	2	121	221	321	NaN	521	0.472982076462358	1	1	NaN	2499791.9997883	NaN	2499792.9831358	2499793.49968082
13	21	0	0	90	36.1581920903955	36.241610738255	6	0.200021183900535	2	8	6	NaN	2	3	0.0528131511792984	1	1	NaN	375	6	60	2	121	221	321	NaN	521	0.361799927894026	2	1	NaN	2499794.9666959	NaN	2499795.9500903	2499796.46663417
13	21	0	0	90	36.1581920903955	36.241610738255	24	0.80008473560214	2	11	3	NaN	2	4	0.0528131511792984	1	1	NaN	376	6	61	2	121	221	321	NaN	521	0.134269976522774	1	0	NaN	2499797.6503724	NaN	2499798.6337057	2499799.15024882
13	21	0	0	90	36.1581920903955	36.241610738255	16	0.53338982373476	2	3	2	NaN	1	3	0.0528131511792984	1	1	NaN	377	6	62	2	121	221	321	NaN	521	0.210081828292459	2	0	NaN	2499800.3505615	NaN	2499801.3339555	2499801.85049917
13	21	0	0	90	36.1581920903955	36.241610738255	8	0.26669491186738	2	9	5	NaN	2	3	0.0528131511792984	1	1	NaN	378	6	63	2	121	221	321	NaN	521	0.108451576437801	2	1	NaN	2499803.0841921	NaN	2499804.0675293	2499804.58410252
13	21	0	0	90	36.1581920903955	36.241610738255	14	0.466716095767915	2	1	3	NaN	1	4	0.0528131511792984	1	1	NaN	379	7	1	2	121	221	321	NaN	521	0.0626468281261623	1	1	NaN	2499815.4020072	NaN	2499816.3854286	2499816.90197937
13	21	0	0	90	36.1581920903955	36.241610738255	6	0.200021183900535	2	11	1	NaN	2	5	0.0528131511792984	1	1	NaN	380	7	2	2	121	221	321	NaN	521	0.15977482823655	2	1	NaN	2499817.7689231	NaN	2499818.7523287	2499819.26888227
13	21	0	0	90	36.1581920903955	36.241610738255	14	0.466716095767915	2	6	4	NaN	1	3	0.0528131511792984	1	1	NaN	381	7	3	2	121	221	321	NaN	521	0.0447989762760699	1	1	NaN	2499820.2358186	NaN	2499821.2192245	2499821.73578652
13	21	0	0	90	36.1581920903955	36.241610738255	12	0.40004236780107	2	7	6	NaN	2	4	0.0528131511792984	1	1	NaN	382	7	4	2	121	221	321	NaN	521	0.0103946281597018	2	1	NaN	2499822.6027502	NaN	2499823.5861617	2499824.10268097
13	21	0	0	90	36.1581920903955	36.241610738255	20	0.66673727966845	2	2	4	NaN	1	4	0.0528131511792984	1	1	NaN	383	7	5	2	121	221	321	NaN	521	0.010414176620543	1	1	NaN	2499824.9196404	NaN	2499825.9030321	2499826.41957622
13	21	0	0	90	36.1581920903955	36.241610738255	14	0.466716095767915	2	3	6	NaN	1	3	0.0528131511792984	1	1	NaN	384	7	6	2	121	221	321	NaN	521	0.28866562852636	1	1	NaN	2499828.7200005	NaN	2499829.7033929	2499830.21994577
13	21	0	0	90	36.1581920903955	36.241610738255	11	0.366705503817648	2	4	3	NaN	1	3	0.0528131511792984	1	1	NaN	385	7	7	2	121	221	321	NaN	521	0.280352076515555	1	1	NaN	2499831.3202572	NaN	2499832.3036688	2499832.82020432
13	21	0	0	90	36.1581920903955	36.241610738255	6	0.200021183900535	2	12	1	NaN	2	3	0.0528131511792984	1	1	NaN	386	7	8	2	121	221	321	NaN	521	0.864027780480683	2	1	NaN	2499833.9205149	NaN	2499834.9039155	2499835.42047132
13	21	0	0	90	36.1581920903955	36.241610738255	10	0.333368639834225	2	1	6	NaN	1	3	0.0528131511792984	1	1	NaN	387	7	9	2	121	221	321	NaN	521	0.128534028306603	1	1	NaN	2499837.1041632	NaN	2499838.0875738	2499838.60410347
13	21	0	0	90	36.1581920903955	36.241610738255	22	0.733411007635295	2	8	6	NaN	2	4	0.0528131511792984	1	1	NaN	388	7	10	2	121	221	321	NaN	521	0.198891776613891	1	0	NaN	2499839.5377076	NaN	2499840.5211353	2499841.03768672
13	21	0	0	90	36.1581920903955	36.241610738255	20	0.66673727966845	2	10	2	NaN	2	4	0.0528131511792984	1	1	NaN	389	7	11	2	121	221	321	NaN	521	0.0104115763679147	2	1	NaN	2499842.2379918	NaN	2499843.2213986	2499843.73794032
13	21	0	0	90	36.1581920903955	36.241610738255	16	0.53338982373476	2	6	1	NaN	1	5	0.0528131511792984	1	1	NaN	390	7	12	2	121	221	321	NaN	521	0.133791324216872	1	1	NaN	2499844.5547744	NaN	2499845.5382922	2499846.05483818
13	21	0	0	90	36.1581920903955	36.241610738255	16	0.53338982373476	2	7	3	NaN	2	4	0.0528131511792984	1	1	NaN	391	7	13	2	121	221	321	NaN	521	0.0914616761729121	2	1	NaN	2499847.0049982	NaN	2499847.9885389	2499848.50507752
13	21	0	0	90	36.1581920903955	36.241610738255	0	0	1	9	6	NaN	2	3	0.0528131511792984	1	1	NaN	392	7	14	2	111	211	311	NaN	511	0.0511836800724268	2	1	NaN	2499849.4053095	NaN	2499850.3887866	2499850.90533662
13	21	0	0	90	36.1581920903955	36.241610738255	10	0.333368639834225	2	8	5	NaN	2	4	0.0528131511792984	1	1	NaN	393	7	15	2	121	221	321	NaN	521	0.100403528194875	1	0	NaN	2499851.7721608	NaN	2499852.7556694	2499853.27221337
13	21	0	0	90	36.1581920903955	36.241610738255	18	0.600063551701605	2	1	1	NaN	1	4	0.0528131511792984	1	1	NaN	394	7	16	2	121	221	321	NaN	521	0.0103923282586038	1	1	NaN	2499854.1891869	NaN	2499855.1725768	2499855.68912317
13	21	0	0	90	36.1581920903955	36.241610738255	15	0.500052959751338	2	2	2	NaN	1	5	0.0528131511792984	1	1	NaN	395	7	17	2	121	221	321	NaN	521	0.0702170766890049	1	1	NaN	2499856.5227573	NaN	2499857.5061405	2499858.02268012
13	21	0	0	90	36.1581920903955	36.241610738255	9	0.300031775850803	2	3	4	NaN	1	4	0.0528131511792984	1	1	NaN	396	7	18	2	121	221	321	NaN	521	0.0103455842472613	1	1	NaN	2499858.9064007	NaN	2499859.8897333	2499860.40625272
13	21	0	0	90	36.1581920903955	36.241610738255	7	0.233358047883958	2	6	1	NaN	1	5	0.0528131511792984	1	1	NaN	397	7	19	2	121	221	321	NaN	521	0.064956528134644	1	1	NaN	2499861.2398664	NaN	2499862.223253	2499862.73981687
13	21	0	0	90	36.1581920903955	36.241610738255	17	0.566726687718183	2	5	5	NaN	1	4	0.0528131511792984	1	1	NaN	398	7	20	2	121	221	321	NaN	521	0.12180208042264	1	1	NaN	2499863.6067742	NaN	2499864.5901727	2499865.10671812
13	21	0	0	90	36.1581920903955	36.241610738255	20	0.66673727966845	2	7	5	NaN	2	5	0.0528131511792984	1	1	NaN	399	7	21	2	121	221	321	NaN	521	0.136344576720148	2	1	NaN	2499866.0402286	NaN	2499867.0237364	2499867.54027662
13	21	0	0	90	36.1581920903955	36.241610738255	20	0.66673727966845	2	2	2	NaN	1	3	0.0528131511792984	1	1	NaN	400	7	22	2	121	221	321	NaN	521	0.0701272767037153	1	1	NaN	2499868.4905895	NaN	2499869.4739738	2499869.99054512
13	21	0	0	90	36.1581920903955	36.241610738255	23	0.766747871618718	2	2	3	NaN	1	4	0.0528131511792984	1	1	NaN	401	7	23	2	121	221	321	NaN	521	0.638778776861727	1	1	NaN	2499870.874138	NaN	2499871.857532	2499872.37408522
13	21	0	0	90	36.1581920903955	36.241610738255	11	0.366705503817648	2	12	1	NaN	2	3	0.0528131511792984	1	1	NaN	402	7	24	2	121	221	321	NaN	521	0.232669076416641	2	1	NaN	2499873.8244369	NaN	2499874.8078286	2499875.32438342
13	21	0	0	90	36.1581920903955	36.241610738255	8	0.26669491186738	2	1	1	NaN	1	4	0.0528131511792984	1	1	NaN	403	7	25	2	121	221	321	NaN	521	0.204579028300941	1	1	NaN	2499876.5078934	NaN	2499877.4914309	2499878.00798257
13	21	0	0	90	36.1581920903955	36.241610738255	19	0.633400415685028	2	7	2	NaN	2	5	0.0528131511792984	1	1	NaN	404	7	26	2	121	221	321	NaN	521	0.45218682801351	2	1	NaN	2499879.3249931	NaN	2499880.3083506	2499880.82492297
13	21	0	0	90	36.1581920903955	36.241610738255	9	0.300031775850803	2	11	2	NaN	2	4	0.0528131511792984	1	1	NaN	405	7	27	2	121	221	321	NaN	521	0.105568176601082	2	1	NaN	2499882.1752205	NaN	2499883.1586586	2499883.67519412
13	21	0	0	90	36.1581920903955	36.241610738255	0	0	1	8	4	NaN	2	4	0.0528131511792984	1	1	NaN	406	7	28	2	111	211	311	NaN	511	0.0632302765734494	2	1	NaN	2499884.6254624	NaN	2499885.6088692	2499886.12543452
13	21	0	0	90	36.1581920903955	36.241610738255	7	0.233358047883958	2	3	4	NaN	1	5	0.0528131511792984	1	1	NaN	407	7	29	2	121	221	321	NaN	521	0.76138678798452	1	1	NaN	2499887.1756197	NaN	2499888.1591545	2499888.67569991
13	21	0	0	90	36.1581920903955	36.241610738255	18	0.600063551701605	2	1	5	NaN	1	5	0.0528131511792984	1	1	NaN	408	7	30	2	121	221	321	NaN	521	1.77173852780834	2	0	NaN	2499890.5095806	NaN	2499891.4927984	2499892.00935907
13	21	0	0	90	36.1581920903955	36.241610738255	17	0.566726687718183	2	8	2	NaN	2	4	0.0528131511792984	1	1	NaN	409	7	31	2	121	221	321	NaN	521	0.219188076909631	2	1	NaN	2499895.9099005	NaN	2499896.893334	2499897.40987712
13	21	0	0	90	36.1581920903955	36.241610738255	8	0.26669491186738	2	3	1	NaN	1	3	0.0528131511792984	1	1	NaN	410	7	32	2	121	221	321	NaN	521	0.462434028275311	1	1	NaN	2499898.6101966	NaN	2499899.5935964	2499900.11014317
13	21	0	0	90	36.1581920903955	36.241610738255	19	0.633400415685028	2	9	4	NaN	2	3	0.0528131511792984	1	1	NaN	411	7	33	2	121	221	321	NaN	521	0.592767176683992	1	0	NaN	2499901.5438462	NaN	2499902.5272203	2499903.04377172
13	21	0	0	90	36.1581920903955	36.241610738255	15	0.500052959751338	2	7	1	NaN	2	4	0.0528131511792984	1	1	NaN	412	7	34	2	121	221	321	NaN	521	0.155911027919501	2	1	NaN	2499904.4607654	NaN	2499905.4441595	2499905.96074187
13	21	0	0	90	36.1581920903955	36.241610738255	15	0.500052959751338	2	1	2	NaN	1	3	0.0528131511792984	1	1	NaN	413	7	35	2	121	221	321	NaN	521	0.0104176765307784	1	1	NaN	2499907.1111211	NaN	2499908.094443	2499908.61097882
13	21	0	0	90	36.1581920903955	36.241610738255	7	0.233358047883958	2	11	1	NaN	2	4	0.0528131511792984	1	1	NaN	414	7	36	2	121	221	321	NaN	521	0.20396618032828	2	1	NaN	2499909.4445981	NaN	2499910.4279885	2499910.94454642
13	21	0	0	90	36.1581920903955	36.241610738255	0	0	1	4	1	NaN	1	5	0.0528131511792984	1	1	NaN	415	7	37	2	111	211	311	NaN	511	0.103208927903324	2	0	NaN	2499911.9615876	NaN	2499912.9449187	2499913.46146307
13	21	0	0	90	36.1581920903955	36.241610738255	11	0.366705503817648	2	8	1	NaN	2	5	0.0528131511792984	1	1	NaN	416	7	38	2	121	221	321	NaN	521	0.0714641762897372	2	1	NaN	2499914.5449998	NaN	2499915.5284723	2499916.04504812
13	21	0	0	90	36.1581920903955	36.241610738255	22	0.733411007635295	2	7	2	NaN	2	3	0.0528131511792984	1	1	NaN	417	7	39	2	121	221	321	NaN	521	0.0794062283821404	2	1	NaN	2499917.1453252	NaN	2499918.1287359	2499918.64529887
13	21	0	0	90	36.1581920903955	36.241610738255	0	0	1	3	5	NaN	1	4	0.0528131511792984	1	1	NaN	418	7	40	2	111	211	311	NaN	511	0.223195180296898	1	1	NaN	2499919.5456023	NaN	2499920.5289814	2499921.04554352
13	21	0	0	90	36.1581920903955	36.241610738255	13	0.433379231784493	2	3	6	NaN	1	4	0.0528131511792984	1	1	NaN	419	7	41	2	121	221	321	NaN	521	0.0102941924706101	1	1	NaN	2499922.245935	NaN	2499923.229233	2499923.74580711
13	21	0	0	90	36.1581920903955	36.241610738255	8	0.26669491186738	2	6	2	NaN	1	4	0.0528131511792984	1	1	NaN	420	7	42	2	121	221	321	NaN	521	0.445964628364891	1	1	NaN	2499924.5626224	NaN	2499925.5461326	2499926.06270227
13	21	0	0	90	36.1581920903955	36.241610738255	21	0.700074143651873	2	12	3	NaN	2	5	0.0528131511792984	1	1	NaN	421	7	43	2	121	221	321	NaN	521	0.342939276248217	2	1	NaN	2499927.3296872	NaN	2499928.313092	2499928.82963102
13	21	0	0	90	36.1581920903955	36.241610738255	18	0.600063551701605	2	4	6	NaN	1	5	0.0528131511792984	1	1	NaN	422	7	44	2	121	221	321	NaN	521	0.332927376497537	1	1	NaN	2499930.3799981	NaN	2499931.3633854	2499931.87992572
13	21	0	0	90	36.1581920903955	36.241610738255	14	0.466716095767915	2	9	3	NaN	2	3	0.0528131511792984	1	1	NaN	423	7	45	2	121	221	321	NaN	521	0.332397424150258	2	1	NaN	2499934.7803924	NaN	2499935.7638073	2499936.28035708
13	21	0	0	90	36.1581920903955	36.241610738255	19	0.633400415685028	2	12	3	NaN	2	4	0.0528131511792984	1	1	NaN	424	7	46	2	121	221	321	NaN	521	0.650501028168947	2	1	NaN	2499937.4306801	NaN	2499938.414082	2499938.93063167
13	21	0	0	90	36.1581920903955	36.241610738255	21	0.700074143651873	2	7	5	NaN	2	3	0.0528131511792984	1	1	NaN	425	7	47	2	121	221	321	NaN	521	0.282499376684427	2	1	NaN	2499940.4142705	NaN	2499941.3977129	2499941.91424952
13	21	0	0	90	36.1581920903955	36.241610738255	14	0.466716095767915	2	7	4	NaN	2	3	0.0528131511792984	1	1	NaN	426	7	48	2	121	221	321	NaN	521	0.290486080572009	2	1	NaN	2499943.0145648	NaN	2499943.9979421	2499944.51451232
13	21	0	0	90	36.1581920903955	36.241610738255	11	0.366705503817648	2	2	4	NaN	1	3	0.0528131511792984	1	1	NaN	427	7	49	2	121	221	321	NaN	521	0.241591576486826	1	1	NaN	2499946.0315457	NaN	2499947.014939	2499947.53146742
13	21	0	0	90	36.1581920903955	36.241610738255	25	0.833421599585563	2	3	2	NaN	1	4	0.0528131511792984	1	1	NaN	428	7	50	2	121	221	321	NaN	521	0.156864680349827	1	1	NaN	2499948.7317609	NaN	2499949.7151826	2499950.23174032
13	21	0	0	90	36.1581920903955	36.241610738255	24	0.80008473560214	2	12	1	NaN	2	5	0.0528131511792984	1	1	NaN	429	7	51	2	121	221	321	NaN	521	0.186200928408653	2	1	NaN	2499951.1987222	NaN	2499952.182101	2499952.69865067
13	21	0	0	90	36.1581920903955	36.241610738255	23	0.766747871618718	2	9	2	NaN	2	3	0.0528131511792984	1	1	NaN	430	7	52	2	121	221	321	NaN	521	0.263125880155712	2	1	NaN	2499953.8656327	NaN	2499954.849026	2499955.36557942
13	21	0	0	90	36.1581920903955	36.241610738255	6	0.200021183900535	2	12	6	NaN	2	3	0.0528131511792984	1	1	NaN	431	7	53	2	121	221	321	NaN	521	0.176248376257718	2	1	NaN	2499956.6325331	NaN	2499957.6160154	2499958.13251152
13	21	0	0	90	36.1581920903955	36.241610738255	12	0.40004236780107	2	12	3	NaN	2	3	0.0528131511792984	1	1	NaN	432	7	54	2	121	221	321	NaN	521	0.0679963766597211	2	1	NaN	2499959.3327921	NaN	2499960.3162183	2499960.83278112
13	21	0	0	90	36.1581920903955	36.241610738255	8	0.26669491186738	2	11	2	NaN	2	4	0.0528131511792984	1	1	NaN	433	7	55	2	121	221	321	NaN	521	0.236139127984643	2	1	NaN	2499961.9330559	NaN	2499962.9164879	2499963.43303217
13	21	0	0	90	36.1581920903955	36.241610738255	15	0.500052959751338	2	4	4	NaN	1	3	0.0528131511792984	1	1	NaN	434	7	56	2	121	221	321	NaN	521	0.894771880470216	2	0	NaN	2499964.6493443	NaN	2499965.6333965	2499966.14997222
13	21	0	0	90	36.1581920903955	36.241610738255	16	0.53338982373476	2	4	5	NaN	1	4	0.0528131511792984	1	1	NaN	435	7	57	2	121	221	321	NaN	521	0.118415928445756	2	0	NaN	2499968.050323	NaN	2499969.0337492	2499969.55029817
13	21	0	0	90	36.1581920903955	36.241610738255	24	0.80008473560214	2	7	6	NaN	2	3	0.0528131511792984	1	1	NaN	436	7	58	2	121	221	321	NaN	521	0.309541980270296	2	1	NaN	2499970.6671322	NaN	2499971.6506751	2499972.16722992
13	21	0	0	90	36.1581920903955	36.241610738255	24	0.80008473560214	2	4	6	NaN	1	3	0.0528131511792984	1	1	NaN	437	7	59	2	121	221	321	NaN	521	0.125039876438677	1	1	NaN	2499973.2842044	NaN	2499974.2676209	2499974.78414382
13	21	0	0	90	36.1581920903955	36.241610738255	0	0	1	10	6	NaN	2	4	0.0528131511792984	1	1	NaN	438	7	60	2	111	211	311	NaN	511	0.274956128560007	1	0	NaN	2499975.7176307	NaN	2499976.70117	2499977.21772467
13	21	0	0	90	36.1581920903955	36.241610738255	24	0.80008473560214	2	10	1	NaN	2	4	0.0528131511792984	1	1	NaN	439	7	61	2	121	221	321	NaN	521	1.01343192812055	2	1	NaN	2499978.4513838	NaN	2499979.4347664	2499979.95133217
13	21	0	0	90	36.1581920903955	36.241610738255	10	0.333368639834225	2	4	2	NaN	1	3	0.0528131511792984	1	1	NaN	440	7	62	2	121	221	321	NaN	521	0.0317626241594553	1	1	NaN	2499982.1851104	NaN	2499983.1684681	2499983.68501498
13	21	0	0	90	36.1581920903955	36.241610738255	23	0.766747871618718	2	5	5	NaN	1	3	0.0528131511792984	1	1	NaN	441	7	63	2	121	221	321	NaN	521	0.121485476382077	1	1	NaN	2499984.5352807	NaN	2499985.5187023	2499986.03525262
13	21	0	0	90	36.1581920903955	36.241610738255	12	0.40004236780107	2	3	3	NaN	1	5	0.0528131511792984	1	1	NaN	442	8	1	2	121	221	321	NaN	521	0.200231828261167	1	1	NaN	2499991.5526685	NaN	2499992.536106	2499993.05260807
13	21	0	0	90	36.1581920903955	36.241610738255	14	0.466716095767915	2	2	5	NaN	1	5	0.0528131511792984	1	1	NaN	443	8	2	2	121	221	321	NaN	521	0.372775172814727	1	1	NaN	2499994.4362655	NaN	2499995.4196743	2499995.93621953
13	21	0	0	90	36.1581920903955	36.241610738255	17	0.566726687718183	2	2	2	NaN	1	5	0.0528131511792984	1	1	NaN	444	8	3	2	121	221	321	NaN	521	0.264929476194084	1	1	NaN	2499997.119884	NaN	2499998.1032824	2499998.61981742
13	21	0	0	90	36.1581920903955	36.241610738255	15	0.500052959751338	2	7	2	NaN	2	5	0.0528131511792984	1	1	NaN	445	8	4	2	121	221	321	NaN	521	0.281458728015423	2	1	NaN	2499999.7034581	NaN	2500000.68684	2500001.20340217
13	21	0	0	90	36.1581920903955	36.241610738255	23	0.766747871618718	2	4	2	NaN	1	5	0.0528131511792984	1	1	NaN	446	8	5	2	121	221	321	NaN	521	0.105168028268963	1	1	NaN	2500002.3037034	NaN	2500003.2870935	2500003.80366177
13	21	0	0	90	36.1581920903955	36.241610738255	6	0.200021183900535	2	1	4	NaN	1	5	0.0528131511792984	1	1	NaN	447	8	6	2	121	221	321	NaN	521	0.112271480727941	1	1	NaN	2500004.720475	NaN	2500005.7040131	2500006.22057202
13	21	0	0	90	36.1581920903955	36.241610738255	10	0.333368639834225	2	8	4	NaN	2	4	0.0528131511792984	1	1	NaN	448	8	7	2	121	221	321	NaN	521	0.0945862280204892	2	1	NaN	2500007.1541921	NaN	2500008.1375881	2500008.65414087
13	21	0	0	90	36.1581920903955	36.241610738255	14	0.466716095767915	2	7	2	NaN	2	4	0.0528131511792984	1	1	NaN	449	8	8	2	121	221	321	NaN	521	0.18973342794925	2	1	NaN	2500009.5711068	NaN	2500010.5544864	2500011.07104667
13	21	0	0	90	36.1581920903955	36.241610738255	15	0.500052959751338	2	12	5	NaN	2	4	0.0528131511792984	1	1	NaN	450	8	9	2	121	221	321	NaN	521	0.0894633764401078	2	1	NaN	2500012.0713302	NaN	2500013.0547317	2500013.57127872
13	21	0	0	90	36.1581920903955	36.241610738255	25	0.833421599585563	2	11	4	NaN	2	4	0.0528131511792984	1	1	NaN	451	8	10	2	121	221	321	NaN	521	0.273201076313853	1	0	NaN	2500014.4716436	NaN	2500015.454985	2500015.97152012
13	21	0	0	90	36.1581920903955	36.241610738255	24	0.80008473560214	2	3	6	NaN	1	3	0.0528131511792984	1	1	NaN	452	8	11	2	121	221	321	NaN	521	0.113772832322866	1	1	NaN	2500017.0551349	NaN	2500018.0385867	2500018.55511257
13	21	0	0	90	36.1581920903955	36.241610738255	22	0.733411007635295	2	4	3	NaN	1	5	0.0528131511792984	1	1	NaN	453	8	12	2	121	221	321	NaN	521	0.385234380140901	1	1	NaN	2500019.4719331	NaN	2500020.4554654	2500020.97201452
13	21	0	0	90	36.1581920903955	36.241610738255	23	0.766747871618718	2	8	4	NaN	2	4	0.0528131511792984	1	1	NaN	454	8	13	2	121	221	321	NaN	521	0.140943876467645	2	1	NaN	2500022.1723383	NaN	2500023.1557341	2500023.67227502
13	21	0	0	90	36.1581920903955	36.241610738255	19	0.633400415685028	2	8	6	NaN	2	4	0.0528131511792984	1	1	NaN	455	8	14	2	121	221	321	NaN	521	0.090409932192415	2	1	NaN	2500024.6225761	NaN	2500025.6059639	2500026.12252717
13	21	0	0	90	36.1581920903955	36.241610738255	9	0.300031775850803	2	7	3	NaN	2	5	0.0528131511792984	1	1	NaN	456	8	15	2	121	221	321	NaN	521	0.0900772279128432	2	1	NaN	2500027.0226607	NaN	2500028.0062351	2500028.52276017
13	21	0	0	90	36.1581920903955	36.241610738255	11	0.366705503817648	2	5	4	NaN	1	5	0.0528131511792984	1	1	NaN	457	8	16	2	121	221	321	NaN	521	0.0104248244315386	1	1	NaN	2500029.42292	NaN	2500030.406442	2500030.92298148
