subjno	age	gender	isPractice	viewdist	CmToPixX	CmToPixY	SOA_frm	SOA_time	targNum	targID	targExample	targRace	targGender	firstTargPos	contrast	familiarity	curr_staircase	iStair	TrialNum	BlockNum	blktrl	sessionNum	TC_FIXATION	TC_RSVP_START	TC_RSVP_END	TC_BLANK	TC_RESPONSE_ONSET	RT2afc	resp_2afc	acc	RSVPOnsetVBL	RSVPOnsetTime	RSVPOffsetVBL	RSVPOffsetTime	startrt_2afc
101	21	0	0	90	36.1581920903955	36.241610738255	13	0.433363475725055	2	11	1	NaN	2	5	0.0305027806128239	1	1	NaN	1	1	1	2	121	221	321	NaN	521	0.248343274928629	1	0	NaN	4559864.8877987	NaN	4559865.8710553	4559866.40419732
101	21	0	0	90	36.1581920903955	36.241610738255	7	0.233349563851953	2	11	5	NaN	2	5	0.0305027806128239	1	1	NaN	2	1	2	2	121	221	321	NaN	521	0.591707774437964	2	1	NaN	4559867.5047012	NaN	4559868.4879949	4559869.02112073
101	21	0	0	90	36.1581920903955	36.241610738255	20	0.666713039577007	2	4	5	NaN	1	5	0.0305027806128239	1	1	NaN	3	1	3	2	121	221	321	NaN	521	0.52262113802135	1	1	NaN	4559870.4381437	NaN	4559871.4215334	4559871.93807896
101	21	0	0	90	36.1581920903955	36.241610738255	16	0.533370431661606	2	6	6	NaN	1	3	0.0305027806128239	1	1	NaN	4	1	4	2	121	221	321	NaN	521	0.42409366928041	1	1	NaN	4559873.2883252	NaN	4559874.2718053	4559874.78836043
101	21	0	0	90	36.1581920903955	36.241610738255	6	0.200013911873102	2	5	5	NaN	1	4	0.0305027806128239	1	1	NaN	5	1	5	2	121	221	321	NaN	521	0.449790822342038	2	0	NaN	4559876.0386796	NaN	4559877.0220773	4559877.53862298
101	21	0	0	90	36.1581920903955	36.241610738255	11	0.366692171767354	2	3	3	NaN	1	5	0.0305027806128239	1	1	NaN	6	1	6	2	121	221	321	NaN	521	0.338499218225479	1	1	NaN	4559878.8221508	NaN	4559879.8056877	4559880.32224178
101	21	0	0	90	36.1581920903955	36.241610738255	11	0.366692171767354	2	5	4	NaN	1	5	0.0305027806128239	1	1	NaN	7	1	7	2	121	221	321	NaN	521	0.320167894475162	1	1	NaN	4559881.4725363	NaN	4559882.4559457	4559882.97250411
101	21	0	0	90	36.1581920903955	36.241610738255	17	0.566706083640456	2	3	5	NaN	1	5	0.0305027806128239	1	1	NaN	8	1	8	2	121	221	321	NaN	521	0.294193669222295	2	0	NaN	4559884.1061225	NaN	4559885.0895353	4559885.60607673
101	21	0	0	90	36.1581920903955	36.241610738255	24	0.800055647492409	2	8	3	NaN	2	3	0.0305027806128239	1	1	NaN	9	1	9	2	121	221	321	NaN	521	0.0103925224393606	1	0	NaN	4559886.7229224	NaN	4559887.706459	4559888.22300678
101	21	0	0	90	36.1581920903955	36.241610738255	15	0.500034779682755	2	6	1	NaN	1	5	0.0305027806128239	1	1	NaN	10	1	10	2	121	221	321	NaN	521	0.311916422098875	1	1	NaN	4559889.0566177	NaN	4559890.0400038	4559890.55656918
101	21	0	0	90	36.1581920903955	36.241610738255	24	0.800055647492409	2	5	1	NaN	1	3	0.0305027806128239	1	1	NaN	11	1	11	2	121	221	321	NaN	521	0.198322269134223	1	1	NaN	4559891.6902117	NaN	4559892.6736221	4559893.19016083
101	21	0	0	90	36.1581920903955	36.241610738255	22	0.733384343534708	2	1	2	NaN	1	4	0.0305027806128239	1	1	NaN	12	1	12	2	121	221	321	NaN	521	0.201410423032939	1	1	NaN	4559894.2071405	NaN	4559895.1905283	4559895.70707318
101	21	0	0	90	36.1581920903955	36.241610738255	11	0.366692171767354	2	6	5	NaN	1	3	0.0305027806128239	1	1	NaN	13	1	13	2	121	221	321	NaN	521	0.100454022176564	2	0	NaN	4559896.7240385	NaN	4559897.7074479	4559898.22399238
101	21	0	0	90	36.1581920903955	36.241610738255	17	0.566706083640456	2	9	1	NaN	2	4	0.0305027806128239	1	1	NaN	14	1	14	2	121	221	321	NaN	521	0.811811022460461	1	0	NaN	4559899.1409299	NaN	4559900.12433	4559900.64089868
101	21	0	0	90	36.1581920903955	36.241610738255	15	0.500034779682755	2	10	6	NaN	2	5	0.0305027806128239	1	1	NaN	15	1	15	2	121	221	321	NaN	521	0.221934421919286	1	0	NaN	4559902.2746079	NaN	4559903.2579879	4559903.77453588
101	21	0	0	90	36.1581920903955	36.241610738255	7	0.233349563851953	2	2	6	NaN	1	4	0.0305027806128239	1	1	NaN	16	1	16	2	121	221	321	NaN	521	0.184614269994199	1	1	NaN	4559904.8082043	NaN	4559905.7915731	4559906.30812183
101	21	0	0	90	36.1581920903955	36.241610738255	23	0.766719995513558	2	12	6	NaN	2	3	0.0305027806128239	1	1	NaN	17	1	17	2	121	221	321	NaN	521	0.124061017297208	1	0	NaN	4559907.3084162	NaN	4559908.2918207	4559908.80836758
101	21	0	0	90	36.1581920903955	36.241610738255	14	0.466699127703905	2	5	3	NaN	1	4	0.0305027806128239	1	1	NaN	18	1	18	2	121	221	321	NaN	521	0.122824869118631	1	1	NaN	4559909.7420056	NaN	4559910.7253882	4559911.24193333
101	21	0	0	90	36.1581920903955	36.241610738255	7	0.233349563851953	2	9	1	NaN	2	5	0.0305027806128239	1	1	NaN	19	1	19	2	121	221	321	NaN	521	0.672693721950054	2	1	NaN	4559912.1755578	NaN	4559913.1589799	4559913.67551008
101	21	0	0	90	36.1581920903955	36.241610738255	13	0.433363475725055	2	1	5	NaN	1	4	0.0305027806128239	1	1	NaN	20	1	20	2	121	221	321	NaN	521	0.289599222131073	1	1	NaN	4559915.159184	NaN	4559916.1425915	4559916.65914188
101	21	0	0	90	36.1581920903955	36.241610738255	22	0.733384343534708	2	9	4	NaN	2	4	0.0305027806128239	1	1	NaN	21	1	21	2	121	221	321	NaN	521	0.256316617131233	1	0	NaN	4559917.7761258	NaN	4559918.7595106	4559919.27606408
101	21	0	0	90	36.1581920903955	36.241610738255	20	0.666713039577007	2	11	1	NaN	2	3	0.0305027806128239	1	1	NaN	22	1	22	2	121	221	321	NaN	521	0.0104220695793629	1	0	NaN	4559920.3597119	NaN	4559921.3430927	4559921.85964883
101	21	0	0	90	36.1581920903955	36.241610738255	25	0.833391299471259	2	1	1	NaN	1	5	0.0305027806128239	1	1	NaN	23	1	23	2	121	221	321	NaN	521	0.010271342471242	2	0	NaN	4559922.6932709	NaN	4559923.6766624	4559924.19320806
101	21	0	0	90	36.1581920903955	36.241610738255	9	0.300020867809653	2	7	3	NaN	2	4	0.0305027806128239	1	1	NaN	24	1	24	2	121	221	321	NaN	521	0.0457176696509123	1	0	NaN	4559925.0268129	NaN	4559926.0101982	4559926.52676653
101	21	0	0	90	36.1581920903955	36.241610738255	21	0.700048691555858	2	6	2	NaN	1	4	0.0305027806128239	1	1	NaN	25	1	25	2	121	221	321	NaN	521	0.470738969743252	1	1	NaN	4559927.3935984	NaN	4559928.3771682	4559928.89366183
101	21	0	0	90	36.1581920903955	36.241610738255	9	0.300020867809653	2	10	3	NaN	2	3	0.0305027806128239	1	1	NaN	26	1	26	2	121	221	321	NaN	521	0.231216968968511	1	0	NaN	4559930.1773252	NaN	4559931.1607196	4559931.67727963
101	21	0	0	90	36.1581920903955	36.241610738255	12	0.400027823746204	2	1	5	NaN	1	3	0.0305027806128239	1	1	NaN	27	1	27	2	121	221	321	NaN	521	0.248863423243165	1	1	NaN	4559932.7275872	NaN	4559933.7109554	4559934.22752688
101	21	0	0	90	36.1581920903955	36.241610738255	10	0.333356519788504	2	5	6	NaN	1	3	0.0305027806128239	1	1	NaN	28	1	28	2	121	221	321	NaN	521	0.0104049695655704	1	1	NaN	4559935.2945014	NaN	4559936.277893	4559936.79444203
101	21	0	0	90	36.1581920903955	36.241610738255	8	0.266685215830803	2	5	3	NaN	1	5	0.0305027806128239	1	1	NaN	29	1	29	2	121	221	321	NaN	521	0.116539569571614	1	1	NaN	4559937.6280573	NaN	4559938.6114495	4559939.12800203
101	21	0	0	90	36.1581920903955	36.241610738255	9	0.300020867809653	2	9	6	NaN	2	5	0.0305027806128239	1	1	NaN	30	1	30	2	121	221	321	NaN	521	0.130990169011056	1	0	NaN	4559940.0615097	NaN	4559941.0450283	4559941.56157823
101	21	0	0	90	36.1581920903955	36.241610738255	0	0	1	5	2	NaN	1	3	0.0305027806128239	1	1	NaN	31	1	31	2	111	211	311	NaN	511	0.0968684228137136	1	1	NaN	4559942.5118585	NaN	4559943.4952554	4559944.01182258
101	21	0	0	90	36.1581920903955	36.241610738255	6	0.200013911873102	2	8	1	NaN	2	3	0.0305027806128239	1	1	NaN	32	1	32	2	121	221	321	NaN	521	0.13565996941179	1	0	NaN	4559944.9287999	NaN	4559945.9122062	4559946.42872253
101	21	0	0	90	36.1581920903955	36.241610738255	13	0.433363475725055	2	10	5	NaN	2	4	0.0305027806128239	1	1	NaN	33	1	33	2	121	221	321	NaN	521	0.010387422516942	1	0	NaN	4559947.3790131	NaN	4559948.3624313	4559948.87896908
101	21	0	0	90	36.1581920903955	36.241610738255	18	0.600041735619307	2	2	6	NaN	1	5	0.0305027806128239	1	1	NaN	34	1	34	2	121	221	321	NaN	521	0.429631169885397	1	1	NaN	4559949.7791161	NaN	4559950.7626555	4559951.27920433
101	21	0	0	90	36.1581920903955	36.241610738255	16	0.533370431661606	2	3	1	NaN	1	4	0.0305027806128239	1	1	NaN	35	1	35	2	121	221	321	NaN	521	0.143224575556815	1	1	NaN	4559952.5295175	NaN	4559953.5129228	4559954.02947692
101	21	0	0	90	36.1581920903955	36.241610738255	7	0.233349563851953	2	12	3	NaN	2	3	0.0305027806128239	1	1	NaN	36	1	36	2	121	221	321	NaN	521	0.364750174805522	2	1	NaN	4559954.9798293	NaN	4559955.9631528	4559956.47971973
101	21	0	0	90	36.1581920903955	36.241610738255	23	0.766719995513558	2	8	1	NaN	2	3	0.0305027806128239	1	1	NaN	37	1	37	2	121	221	321	NaN	521	0.0103893224149942	2	1	NaN	4559957.6633893	NaN	4559958.6467641	4559959.16330618
101	21	0	0	90	36.1581920903955	36.241610738255	19	0.633377387598157	2	5	3	NaN	1	4	0.0305027806128239	1	1	NaN	38	1	38	2	121	221	321	NaN	521	0.311584217473865	1	1	NaN	4559960.0969664	NaN	4559961.0803344	4559961.59687718
101	21	0	0	90	36.1581920903955	36.241610738255	15	0.500034779682755	2	11	2	NaN	2	4	0.0305027806128239	1	1	NaN	39	1	39	2	121	221	321	NaN	521	0.118155621923506	2	1	NaN	4559962.7305229	NaN	4559963.7139299	4559964.23047928
101	21	0	0	90	36.1581920903955	36.241610738255	9	0.300020867809653	2	10	1	NaN	2	4	0.0305027806128239	1	1	NaN	40	1	40	2	121	221	321	NaN	521	0.27629656996578	1	0	NaN	4559965.1640795	NaN	4559966.1474949	4559966.66405173
101	21	0	0	90	36.1581920903955	36.241610738255	21	0.700048691555858	2	9	3	NaN	2	5	0.0305027806128239	1	1	NaN	41	1	41	2	121	221	321	NaN	521	0.381200069561601	2	1	NaN	4559967.7477164	NaN	4559968.7310822	4559969.24762523
101	21	0	0	90	36.1581920903955	36.241610738255	13	0.433363475725055	2	7	4	NaN	2	3	0.0305027806128239	1	1	NaN	42	1	42	2	121	221	321	NaN	521	0.21702647022903	1	0	NaN	4559970.4313132	NaN	4559971.41468	4559971.93123613
101	21	0	0	90	36.1581920903955	36.241610738255	16	0.533370431661606	2	3	6	NaN	1	4	0.0305027806128239	1	1	NaN	43	1	43	2	121	221	321	NaN	521	0.0358034754171968	1	1	NaN	4559972.964874	NaN	4559973.9482855	4559974.46482022
101	21	0	0	90	36.1581920903955	36.241610738255	20	0.666713039577007	2	12	4	NaN	2	3	0.0305027806128239	1	1	NaN	44	1	44	2	121	221	321	NaN	521	0.0104077691212296	2	1	NaN	4559975.3150902	NaN	4559976.2984911	4559976.81504633
101	21	0	0	90	36.1581920903955	36.241610738255	0	0	1	10	1	NaN	2	4	0.0305027806128239	1	1	NaN	45	1	45	2	111	211	311	NaN	511	0.248556463979185	2	1	NaN	4559977.6319204	NaN	4559978.6153911	4559979.13192854
101	21	0	0	90	36.1581920903955	36.241610738255	25	0.833391299471259	2	11	5	NaN	2	3	0.0305027806128239	1	1	NaN	46	1	46	2	121	221	321	NaN	521	0.386123469099402	2	1	NaN	4559980.1989191	NaN	4559981.1823069	4559981.69885873
101	21	0	0	90	36.1581920903955	36.241610738255	7	0.233349563851953	2	1	6	NaN	1	4	0.0305027806128239	1	1	NaN	47	1	47	2	121	221	321	NaN	521	0.010395722463727	2	0	NaN	4559982.8823721	NaN	4559983.8659051	4559984.38245488
101	21	0	0	90	36.1581920903955	36.241610738255	6	0.200013911873102	2	6	3	NaN	1	5	0.0305027806128239	1	1	NaN	48	1	48	2	121	221	321	NaN	521	0.0334129696711898	1	1	NaN	4559985.1992771	NaN	4559986.182812	4559986.69935093
101	21	0	0	90	36.1581920903955	36.241610738255	18	0.600041735619307	2	3	5	NaN	1	5	0.0305027806128239	1	1	NaN	49	1	49	2	121	221	321	NaN	521	0.0510915694758296	2	0	NaN	4559987.5494959	NaN	4559988.5330279	4559989.04957053
101	21	0	0	90	36.1581920903955	36.241610738255	12	0.400027823746204	2	10	5	NaN	2	3	0.0305027806128239	1	1	NaN	50	1	50	2	121	221	321	NaN	521	0.204186175018549	1	0	NaN	4559989.9164301	NaN	4559990.8999222	4559991.41647873
101	21	0	0	90	36.1581920903955	36.241610738255	0	0	1	8	3	NaN	2	3	0.0305027806128239	1	1	NaN	51	1	51	2	111	211	311	NaN	511	0.0628428226336837	2	1	NaN	4559992.4334552	NaN	4559993.4168488	4559993.93339098
101	21	0	0	90	36.1581920903955	36.241610738255	25	0.833391299471259	2	10	6	NaN	2	5	0.0305027806128239	1	1	NaN	52	1	52	2	121	221	321	NaN	521	0.12759302649647	1	0	NaN	4559994.8170019	NaN	4559995.8004885	4559996.31696697
101	21	0	0	90	36.1581920903955	36.241610738255	20	0.666713039577007	2	7	4	NaN	2	5	0.0305027806128239	1	1	NaN	53	1	53	2	121	221	321	NaN	521	0.0103912753984332	2	1	NaN	4559997.2505116	NaN	4559998.2339722	4559998.75053862
101	21	0	0	90	36.1581920903955	36.241610738255	11	0.366692171767354	2	5	5	NaN	1	4	0.0305027806128239	1	1	NaN	54	1	54	2	121	221	321	NaN	521	0.0104223173111677	1	1	NaN	4559999.5673406	NaN	4560000.5508698	4560001.06742208
101	21	0	0	90	36.1581920903955	36.241610738255	14	0.466699127703905	2	3	2	NaN	1	4	0.0305027806128239	1	1	NaN	55	1	55	2	121	221	321	NaN	521	0.164342222735286	1	1	NaN	4560001.8843689	NaN	4560002.8678208	4560003.38432148
101	21	0	0	90	36.1581920903955	36.241610738255	22	0.733384343534708	2	8	1	NaN	2	5	0.0305027806128239	1	1	NaN	56	1	56	2	121	221	321	NaN	521	0.0104195177555084	2	1	NaN	4560004.3512791	NaN	4560005.3346882	4560005.85122058
101	21	0	0	90	36.1581920903955	36.241610738255	0	0	1	6	6	NaN	1	3	0.0305027806128239	1	1	NaN	57	1	57	2	111	211	311	NaN	511	0.196496422402561	1	1	NaN	4560006.6681716	NaN	4560007.6515723	4560008.16812418
101	21	0	0	90	36.1581920903955	36.241610738255	15	0.500034779682755	2	5	4	NaN	1	5	0.0305027806128239	1	1	NaN	58	1	58	2	121	221	321	NaN	521	0.439653375186026	2	0	NaN	4560009.1850753	NaN	4560010.1684871	4560010.68504272
101	21	0	0	90	36.1581920903955	36.241610738255	13	0.433363475725055	2	3	5	NaN	1	3	0.0305027806128239	1	1	NaN	59	1	59	2	121	221	321	NaN	521	0.249365522526205	1	1	NaN	4560011.9353511	NaN	4560012.918734	4560013.43531008
101	21	0	0	90	36.1581920903955	36.241610738255	9	0.300020867809653	2	5	2	NaN	1	4	0.0305027806128239	1	1	NaN	60	1	60	2	121	221	321	NaN	521	0.010425116866827	1	1	NaN	4560014.4856253	NaN	4560015.4690101	4560015.98555288
101	21	0	0	90	36.1581920903955	36.241610738255	23	0.766719995513558	2	3	5	NaN	1	4	0.0305027806128239	1	1	NaN	61	1	61	2	121	221	321	NaN	521	0.0104363635182381	1	1	NaN	4560016.8191832	NaN	4560017.8025732	4560018.31911664
101	21	0	0	90	36.1581920903955	36.241610738255	24	0.800055647492409	2	3	6	NaN	1	4	0.0305027806128239	1	1	NaN	62	1	62	2	121	221	321	NaN	521	0.208099369890988	2	0	NaN	4560019.1527193	NaN	4560020.1361328	4560020.65267513
101	21	0	0	90	36.1581920903955	36.241610738255	25	0.833391299471259	2	7	1	NaN	2	5	0.0305027806128239	1	1	NaN	63	1	63	2	121	221	321	NaN	521	0.162999723106623	1	0	NaN	4560021.6695515	NaN	4560022.6530536	4560023.16959838
101	21	0	0	90	36.1581920903955	36.241610738255	16	0.533370431661606	2	8	4	NaN	2	3	0.0305027806128239	1	1	NaN	64	2	1	2	121	221	321	NaN	521	0.15665889531374	1	0	NaN	4560031.4039359	NaN	4560032.3873368	4560032.9038984
101	21	0	0	90	36.1581920903955	36.241610738255	20	0.666713039577007	2	4	1	NaN	1	3	0.0305027806128239	1	1	NaN	65	2	2	2	121	221	321	NaN	521	0.665736017748713	2	0	NaN	4560033.8708523	NaN	4560034.8542397	4560035.37079378
101	21	0	0	90	36.1581920903955	36.241610738255	15	0.500034779682755	2	2	3	NaN	1	4	0.0305027806128239	1	1	NaN	66	2	3	2	121	221	321	NaN	521	0.258269074372947	1	1	NaN	4560036.8544675	NaN	4560037.8378606	4560038.35442303
101	21	0	0	90	36.1581920903955	36.241610738255	17	0.566706083640456	2	6	6	NaN	1	3	0.0305027806128239	1	1	NaN	67	2	4	2	121	221	321	NaN	521	0.0985672697424889	1	1	NaN	4560039.4380468	NaN	4560040.4214628	4560040.93800423
101	21	0	0	90	36.1581920903955	36.241610738255	24	0.800055647492409	2	3	1	NaN	1	5	0.0305027806128239	1	1	NaN	68	2	5	2	121	221	321	NaN	521	0.313736323267221	1	1	NaN	4560041.8549442	NaN	4560042.8383628	4560043.35491368
101	21	0	0	90	36.1581920903955	36.241610738255	21	0.700048691555858	2	10	6	NaN	2	3	0.0305027806128239	1	1	NaN	69	2	6	2	121	221	321	NaN	521	0.0104163698852062	2	1	NaN	4560044.471775	NaN	4560045.4553098	4560045.97182973
101	21	0	0	90	36.1581920903955	36.241610738255	9	0.300020867809653	2	5	6	NaN	1	5	0.0305027806128239	1	1	NaN	70	2	7	2	121	221	321	NaN	521	0.0104343174025416	1	1	NaN	4560046.7887746	NaN	4560047.7722013	4560048.28873478
101	21	0	0	90	36.1581920903955	36.241610738255	24	0.800055647492409	2	10	4	NaN	2	5	0.0305027806128239	1	1	NaN	71	2	8	2	121	221	321	NaN	521	0.0102848894894123	2	1	NaN	4560049.1223343	NaN	4560050.1057612	4560050.62230211
101	21	0	0	90	36.1581920903955	36.241610738255	6	0.200013911873102	2	1	6	NaN	1	5	0.0305027806128239	1	1	NaN	72	2	9	2	121	221	321	NaN	521	0.0103949224576354	1	1	NaN	4560051.439261	NaN	4560052.4226425	4560052.93918328
101	21	0	0	90	36.1581920903955	36.241610738255	12	0.400027823746204	2	9	5	NaN	2	5	0.0305027806128239	1	1	NaN	73	2	10	2	121	221	321	NaN	521	0.172500517219305	1	0	NaN	4560053.7561404	NaN	4560054.7395311	4560055.25607918
101	21	0	0	90	36.1581920903955	36.241610738255	11	0.366692171767354	2	8	5	NaN	2	3	0.0305027806128239	1	1	NaN	74	2	11	2	121	221	321	NaN	521	0.0103947231546044	1	0	NaN	4560056.2396433	NaN	4560057.2231162	4560057.73965868
101	21	0	0	90	36.1581920903955	36.241610738255	14	0.466699127703905	2	6	1	NaN	1	3	0.0305027806128239	1	1	NaN	75	2	12	2	121	221	321	NaN	521	1.02779046911746	1	1	NaN	4560058.5732605	NaN	4560059.5566734	4560060.07321643
101	21	0	0	90	36.1581920903955	36.241610738255	7	0.233349563851953	2	10	3	NaN	2	4	0.0305027806128239	1	1	NaN	76	2	13	2	121	221	321	NaN	521	0.0103947231546044	2	1	NaN	4560061.9069286	NaN	4560062.8903336	4560063.40688298
101	21	0	0	90	36.1581920903955	36.241610738255	10	0.333356519788504	2	8	6	NaN	2	4	0.0305027806128239	1	1	NaN	77	2	14	2	121	221	321	NaN	521	1.36822286900133	1	0	NaN	4560064.2404868	NaN	4560065.2238959	4560065.74043923
101	21	0	0	90	36.1581920903955	36.241610738255	6	0.200013911873102	2	6	2	NaN	1	5	0.0305027806128239	1	1	NaN	78	2	15	2	121	221	321	NaN	521	0.156926670111716	1	1	NaN	4560067.9241688	NaN	4560068.9076348	4560069.42413183
101	21	0	0	90	36.1581920903955	36.241610738255	10	0.333356519788504	2	11	5	NaN	2	5	0.0305027806128239	1	1	NaN	79	2	16	2	121	221	321	NaN	521	2.04154035914689	2	1	NaN	4560070.3910882	NaN	4560071.3745144	4560071.89104344
101	21	0	0	90	36.1581920903955	36.241610738255	12	0.400027823746204	2	4	1	NaN	1	3	0.0305027806128239	1	1	NaN	80	2	17	2	121	221	321	NaN	521	0.41912161745131	1	1	NaN	4560074.7414884	NaN	4560075.7249281	4560076.24147568
101	21	0	0	90	36.1581920903955	36.241610738255	6	0.200013911873102	2	10	2	NaN	2	5	0.0305027806128239	1	1	NaN	81	2	18	2	121	221	321	NaN	521	0.117869969457388	2	1	NaN	4560077.4751164	NaN	4560078.4585049	4560078.97507363
101	21	0	0	90	36.1581920903955	36.241610738255	25	0.833391299471259	2	3	6	NaN	1	3	0.0305027806128239	1	1	NaN	82	2	19	2	121	221	321	NaN	521	0.0104420641437173	2	0	NaN	4560079.9086945	NaN	4560080.8921124	4560081.40865004
101	21	0	0	90	36.1581920903955	36.241610738255	10	0.333356519788504	2	8	6	NaN	2	3	0.0305027806128239	1	1	NaN	83	2	20	2	121	221	321	NaN	521	0.295004417188466	2	1	NaN	4560082.2255853	NaN	4560083.2089901	4560083.72553858
101	21	0	0	90	36.1581920903955	36.241610738255	19	0.633377387598157	2	3	3	NaN	1	3	0.0305027806128239	1	1	NaN	84	2	21	2	121	221	321	NaN	521	0.150630816817284	1	1	NaN	4560084.8423968	NaN	4560085.8259288	4560086.34246198
101	21	0	0	90	36.1581920903955	36.241610738255	10	0.333356519788504	2	4	6	NaN	1	3	0.0305027806128239	1	1	NaN	85	2	22	2	121	221	321	NaN	521	0.0106228226795793	2	0	NaN	4560087.3094265	NaN	4560088.2928261	4560088.80938268
101	21	0	0	90	36.1581920903955	36.241610738255	10	0.333356519788504	2	2	1	NaN	1	3	0.0305027806128239	1	1	NaN	86	2	23	2	121	221	321	NaN	521	0.334077695384622	2	0	NaN	4560089.6431012	NaN	4560090.6264015	4560091.1429519
101	21	0	0	90	36.1581920903955	36.241610738255	20	0.666713039577007	2	9	2	NaN	2	4	0.0305027806128239	1	1	NaN	87	2	24	2	121	221	321	NaN	521	0.0104217175394297	1	0	NaN	4560092.2932382	NaN	4560093.2766349	4560093.79319998
101	21	0	0	90	36.1581920903955	36.241610738255	8	0.266685215830803	2	9	5	NaN	2	3	0.0305027806128239	1	1	NaN	88	2	25	2	121	221	321	NaN	521	0.31022836919874	1	0	NaN	4560094.6268061	NaN	4560095.6102182	4560096.12675723
101	21	0	0	90	36.1581920903955	36.241610738255	8	0.266685215830803	2	4	3	NaN	1	5	0.0305027806128239	1	1	NaN	89	2	26	2	121	221	321	NaN	521	0.445118736475706	1	1	NaN	4560097.2436006	NaN	4560098.2271151	4560098.74368476
101	21	0	0	90	36.1581920903955	36.241610738255	13	0.433363475725055	2	5	2	NaN	1	3	0.0305027806128239	1	1	NaN	90	2	27	2	121	221	321	NaN	521	0.359046016819775	2	0	NaN	4560099.9939993	NaN	4560100.9774128	4560101.49395278
101	21	0	0	90	36.1581920903955	36.241610738255	25	0.833391299471259	2	6	6	NaN	1	3	0.0305027806128239	1	1	NaN	91	2	28	2	121	221	321	NaN	521	0.124225569888949	1	1	NaN	4560102.6609793	NaN	4560103.6443363	4560104.16087703
101	21	0	0	90	36.1581920903955	36.241610738255	14	0.466699127703905	2	11	5	NaN	2	4	0.0305027806128239	1	1	NaN	92	2	29	2	121	221	321	NaN	521	0.31414697971195	1	0	NaN	4560105.0945017	NaN	4560106.0779049	4560106.59446092
101	21	0	0	90	36.1581920903955	36.241610738255	25	0.833391299471259	2	1	6	NaN	1	5	0.0305027806128239	1	1	NaN	93	2	30	2	121	221	321	NaN	521	0.297065869905055	1	1	NaN	4560107.7280948	NaN	4560108.7114981	4560109.22805283
101	21	0	0	90	36.1581920903955	36.241610738255	21	0.700048691555858	2	3	4	NaN	1	3	0.0305027806128239	1	1	NaN	94	2	31	2	121	221	321	NaN	521	0.207725422456861	1	1	NaN	4560110.3450225	NaN	4560111.3284229	4560111.84497318
101	21	0	0	90	36.1581920903955	36.241610738255	19	0.633377387598157	2	6	2	NaN	1	5	0.0305027806128239	1	1	NaN	95	2	32	2	121	221	321	NaN	521	0.298926116898656	2	0	NaN	4560112.8619437	NaN	4560113.8453314	4560114.36188028
101	21	0	0	90	36.1581920903955	36.241610738255	0	0	1	1	4	NaN	1	4	0.0305027806128239	1	1	NaN	96	2	33	2	111	211	311	NaN	511	0.0658927224576473	1	1	NaN	4560115.4788516	NaN	4560116.4622607	4560116.97881568
101	21	0	0	90	36.1581920903955	36.241610738255	0	0	1	5	4	NaN	1	5	0.0305027806128239	1	1	NaN	97	2	34	2	111	211	311	NaN	511	0.0104088690131903	1	1	NaN	4560117.8456294	NaN	4560118.8292371	4560119.34570463
101	21	0	0	90	36.1581920903955	36.241610738255	7	0.233349563851953	2	12	3	NaN	2	3	0.0305027806128239	1	1	NaN	98	2	35	2	121	221	321	NaN	521	0.0103454794734716	1	0	NaN	4560120.179327	NaN	4560121.162729	4560121.67927392
101	21	0	0	90	36.1581920903955	36.241610738255	6	0.200013911873102	2	8	2	NaN	2	4	0.0305027806128239	1	1	NaN	99	2	36	2	121	221	321	NaN	521	0.224274422973394	2	1	NaN	4560122.5128868	NaN	4560123.4962744	4560124.01283748
101	21	0	0	90	36.1581920903955	36.241610738255	14	0.466699127703905	2	4	1	NaN	1	4	0.0305027806128239	1	1	NaN	100	2	37	2	121	221	321	NaN	521	0.242693069390953	1	1	NaN	4560125.0464578	NaN	4560126.0298662	4560126.54640843
101	21	0	0	90	36.1581920903955	36.241610738255	22	0.733384343534708	2	2	2	NaN	1	4	0.0305027806128239	1	1	NaN	101	2	38	2	121	221	321	NaN	521	0.356432617641985	1	1	NaN	4560127.5967042	NaN	4560128.5801175	4560129.09666848
101	21	0	0	90	36.1581920903955	36.241610738255	11	0.366692171767354	2	2	5	NaN	1	3	0.0305027806128239	1	1	NaN	102	2	39	2	121	221	321	NaN	521	0.153228317387402	1	1	NaN	4560130.2637295	NaN	4560131.2470802	4560131.76359348
101	21	0	0	90	36.1581920903955	36.241610738255	24	0.800055647492409	2	6	4	NaN	1	5	0.0305027806128239	1	1	NaN	103	2	40	2	121	221	321	NaN	521	0.0104063693434	2	0	NaN	4560132.7305369	NaN	4560133.713927	4560134.23050133
101	21	0	0	90	36.1581920903955	36.241610738255	9	0.300020867809653	2	8	5	NaN	2	5	0.0305027806128239	1	1	NaN	104	2	41	2	121	221	321	NaN	521	0.217606223188341	2	1	NaN	4560135.0473191	NaN	4560136.0308301	4560136.54740218
101	21	0	0	90	36.1581920903955	36.241610738255	17	0.566706083640456	2	12	5	NaN	2	5	0.0305027806128239	1	1	NaN	105	2	42	2	121	221	321	NaN	521	0.284112869761884	2	1	NaN	4560137.58104	NaN	4560138.5644288	4560139.08097223
101	21	0	0	90	36.1581920903955	36.241610738255	10	0.333356519788504	2	7	3	NaN	2	5	0.0305027806128239	1	1	NaN	106	2	43	2	121	221	321	NaN	521	0.0103779751807451	2	1	NaN	4560140.1812412	NaN	4560141.164692	4560141.68124103
101	21	0	0	90	36.1581920903955	36.241610738255	12	0.400027823746204	2	5	5	NaN	1	4	0.0305027806128239	1	1	NaN	107	2	44	2	121	221	321	NaN	521	0.278928369283676	2	0	NaN	4560142.4980539	NaN	4560143.4815803	4560143.99813163
101	21	0	0	90	36.1581920903955	36.241610738255	21	0.700048691555858	2	4	3	NaN	1	5	0.0305027806128239	1	1	NaN	108	2	45	2	121	221	321	NaN	521	0.102328422479331	1	1	NaN	4560145.0984607	NaN	4560146.08185	4560146.59838948
101	21	0	0	90	36.1581920903955	36.241610738255	17	0.566706083640456	2	11	3	NaN	2	3	0.0305027806128239	1	1	NaN	109	2	46	2	121	221	321	NaN	521	0.0104221170768142	2	1	NaN	4560147.5153553	NaN	4560148.4987381	4560149.01529078
101	21	0	0	90	36.1581920903955	36.241610738255	12	0.400027823746204	2	2	6	NaN	1	3	0.0305027806128239	1	1	NaN	110	2	47	2	121	221	321	NaN	521	0.248794122599065	1	1	NaN	4560149.8322481	NaN	4560150.8156423	4560151.33218338
101	21	0	0	90	36.1581920903955	36.241610738255	8	0.266685215830803	2	3	6	NaN	1	4	0.0305027806128239	1	1	NaN	111	2	48	2	121	221	321	NaN	521	0.345636117272079	1	1	NaN	4560152.3991674	NaN	4560153.3825338	4560153.89910298
101	21	0	0	90	36.1581920903955	36.241610738255	8	0.266685215830803	2	6	2	NaN	1	4	0.0305027806128239	1	1	NaN	112	2	49	2	121	221	321	NaN	521	0.359443722292781	1	1	NaN	4560155.0494168	NaN	4560156.032824	4560156.54936398
101	21	0	0	90	36.1581920903955	36.241610738255	0	0	1	4	4	NaN	1	4	0.0305027806128239	1	1	NaN	113	2	50	2	111	211	311	NaN	511	0.315841926261783	2	0	NaN	4560157.7330022	NaN	4560158.7164039	4560159.23295497
101	21	0	0	90	36.1581920903955	36.241610738255	8	0.266685215830803	2	7	1	NaN	2	5	0.0305027806128239	1	1	NaN	114	2	51	2	121	221	321	NaN	521	0.226254422217607	1	0	NaN	4560160.3666379	NaN	4560161.350008	4560161.86655568
101	21	0	0	90	36.1581920903955	36.241610738255	13	0.433363475725055	2	6	6	NaN	1	5	0.0305027806128239	1	1	NaN	115	2	52	2	121	221	321	NaN	521	0.179988970048726	2	0	NaN	4560162.9168795	NaN	4560163.9002537	4560164.41679553
101	21	0	0	90	36.1581920903955	36.241610738255	24	0.800055647492409	2	4	5	NaN	1	4	0.0305027806128239	1	1	NaN	116	2	53	2	121	221	321	NaN	521	0.296776290051639	1	1	NaN	4560165.4003041	NaN	4560166.3838085	4560166.90037611
101	21	0	0	90	36.1581920903955	36.241610738255	12	0.400027823746204	2	6	1	NaN	1	5	0.0305027806128239	1	1	NaN	117	2	54	2	121	221	321	NaN	521	0.407457469031215	1	1	NaN	4560168.017344	NaN	4560169.0007561	4560169.51729673
101	21	0	0	90	36.1581920903955	36.241610738255	22	0.733384343534708	2	10	5	NaN	2	3	0.0305027806128239	1	1	NaN	118	2	55	2	121	221	321	NaN	521	0.346841769292951	1	0	NaN	4560170.7341836	NaN	4560171.7176962	4560172.23422763
101	21	0	0	90	36.1581920903955	36.241610738255	11	0.366692171767354	2	2	2	NaN	1	5	0.0305027806128239	1	1	NaN	119	2	56	2	121	221	321	NaN	521	0.0104059698060155	1	1	NaN	4560173.4012245	NaN	4560174.3846305	4560174.90115873
101	21	0	0	90	36.1581920903955	36.241610738255	8	0.266685215830803	2	12	2	NaN	2	3	0.0305027806128239	1	1	NaN	120	2	57	2	121	221	321	NaN	521	0.0103982230648398	1	0	NaN	4560175.7347712	NaN	4560176.7181716	4560177.23473028
101	21	0	0	90	36.1581920903955	36.241610738255	20	0.666713039577007	2	10	4	NaN	2	5	0.0305027806128239	1	1	NaN	121	2	58	2	121	221	321	NaN	521	0.0103893224149942	2	1	NaN	4560178.0516521	NaN	4560179.0350707	4560179.55162688
101	21	0	0	90	36.1581920903955	36.241610738255	21	0.700048691555858	2	12	4	NaN	2	4	0.0305027806128239	1	1	NaN	122	2	59	2	121	221	321	NaN	521	0.135512623004615	2	1	NaN	4560180.3852451	NaN	4560181.3686361	4560181.88518628
101	21	0	0	90	36.1581920903955	36.241610738255	12	0.400027823746204	2	11	2	NaN	2	4	0.0305027806128239	1	1	NaN	123	2	60	2	121	221	321	NaN	521	0.0294538699090481	2	1	NaN	4560182.8354644	NaN	4560183.8188782	4560184.33542833
101	21	0	0	90	36.1581920903955	36.241610738255	7	0.233349563851953	2	4	4	NaN	1	4	0.0305027806128239	1	1	NaN	124	2	61	2	121	221	321	NaN	521	0.064033922739327	1	1	NaN	4560185.1689185	NaN	4560186.1524389	4560186.66899128
101	21	0	0	90	36.1581920903955	36.241610738255	6	0.200013911873102	2	7	6	NaN	2	5	0.0305027806128239	1	1	NaN	125	2	62	2	121	221	321	NaN	521	0.120557121932507	2	1	NaN	4560187.5525991	NaN	4560188.5360021	4560189.05256098
101	21	0	0	90	36.1581920903955	36.241610738255	14	0.466699127703905	2	9	3	NaN	2	4	0.0305027806128239	1	1	NaN	126	2	63	2	121	221	321	NaN	521	0.223045622929931	2	1	NaN	4560189.9861776	NaN	4560190.9695612	4560191.48612418
101	21	0	0	90	36.1581920903955	36.241610738255	20	0.666713039577007	2	8	4	NaN	2	3	0.0305027806128239	1	1	NaN	127	3	1	2	121	221	321	NaN	521	0.0103988228365779	2	1	NaN	4560196.4537156	NaN	4560197.4368821	4560197.95342338
101	21	0	0	90	36.1581920903955	36.241610738255	8	0.266685215830803	2	11	1	NaN	2	5	0.0305027806128239	1	1	NaN	128	3	2	2	121	221	321	NaN	521	0.0104207694530487	1	0	NaN	4560198.7703697	NaN	4560199.7537725	4560200.27032693
101	21	0	0	90	36.1581920903955	36.241610738255	14	0.466699127703905	2	8	3	NaN	2	3	0.0305027806128239	1	1	NaN	129	3	3	2	121	221	321	NaN	521	0.0891706747934222	2	1	NaN	4560201.1039138	NaN	4560202.0873362	4560202.60389073
101	21	0	0	90	36.1581920903955	36.241610738255	0	0	1	8	2	NaN	2	5	0.0305027806128239	1	1	NaN	130	3	4	2	111	211	311	NaN	511	0.112728269770741	2	1	NaN	4560203.504163	NaN	4560204.4875725	4560205.00411423
101	21	0	0	90	36.1581920903955	36.241610738255	7	0.233349563851953	2	7	5	NaN	2	5	0.0305027806128239	1	1	NaN	131	3	5	2	121	221	321	NaN	521	0.0102824894711375	2	1	NaN	4560205.9210742	NaN	4560206.9043847	4560207.42103391
101	21	0	0	90	36.1581920903955	36.241610738255	25	0.833391299471259	2	5	5	NaN	1	3	0.0305027806128239	1	1	NaN	132	3	6	2	121	221	321	NaN	521	0.0104210693389177	2	0	NaN	4560208.2379659	NaN	4560209.2213707	4560209.73791353
101	21	0	0	90	36.1581920903955	36.241610738255	7	0.233349563851953	2	5	3	NaN	1	4	0.0305027806128239	1	1	NaN	133	3	7	2	121	221	321	NaN	521	0.0103943226858974	2	0	NaN	4560210.5548646	NaN	4560211.5382655	4560212.05481148
101	21	0	0	90	36.1581920903955	36.241610738255	20	0.666713039577007	2	5	3	NaN	1	3	0.0305027806128239	1	1	NaN	134	3	8	2	121	221	321	NaN	521	0.0102721424773335	1	1	NaN	4560212.871767	NaN	4560213.855208	4560214.37170766
101	21	0	0	90	36.1581920903955	36.241610738255	18	0.600041735619307	2	12	6	NaN	2	4	0.0305027806128239	1	1	NaN	135	3	9	2	121	221	321	NaN	521	0.0104054221883416	1	0	NaN	4560215.2053715	NaN	4560216.1887181	4560216.70527688
101	21	0	0	90	36.1581920903955	36.241610738255	7	0.233349563851953	2	8	2	NaN	2	3	0.0305027806128239	1	1	NaN	136	3	10	2	121	221	321	NaN	521	0.0104077691212296	1	0	NaN	4560217.5222397	NaN	4560218.5056175	4560219.02216443
101	21	0	0	90	36.1581920903955	36.241610738255	7	0.233349563851953	2	9	1	NaN	2	4	0.0305027806128239	1	1	NaN	137	3	11	2	121	221	321	NaN	521	0.0104497643187642	1	0	NaN	4560219.8557833	NaN	4560220.8391818	4560221.35571874
101	21	0	0	90	36.1581920903955	36.241610738255	23	0.766719995513558	2	9	6	NaN	2	4	0.0305027806128239	1	1	NaN	138	3	12	2	121	221	321	NaN	521	1.57224436942488	1	0	NaN	4560222.1725376	NaN	4560223.156054	4560223.67262443
101	21	0	0	90	36.1581920903955	36.241610738255	22	0.733384343534708	2	9	2	NaN	2	4	0.0305027806128239	1	1	NaN	139	3	13	2	121	221	321	NaN	521	1.12875411752611	2	1	NaN	4560226.0562805	NaN	4560227.0398032	4560227.55634018
101	21	0	0	90	36.1581920903955	36.241610738255	21	0.700048691555858	2	2	2	NaN	1	5	0.0305027806128239	1	1	NaN	140	3	14	2	121	221	321	NaN	521	0.56904852297157	2	0	NaN	4560229.6400348	NaN	4560230.6234818	4560231.14001438
101	21	0	0	90	36.1581920903955	36.241610738255	8	0.266685215830803	2	9	4	NaN	2	5	0.0305027806128239	1	1	NaN	141	3	15	2	121	221	321	NaN	521	0.101248143240809	2	1	NaN	4560232.5237044	NaN	4560233.5070797	4560234.02363896
101	21	0	0	90	36.1581920903955	36.241610738255	15	0.500034779682755	2	3	2	NaN	1	5	0.0305027806128239	1	1	NaN	142	3	16	2	121	221	321	NaN	521	0.0203898698091507	2	0	NaN	4560234.9406093	NaN	4560235.9239916	4560236.44054563
101	21	0	0	90	36.1581920903955	36.241610738255	24	0.800055647492409	2	2	4	NaN	1	4	0.0305027806128239	1	1	NaN	143	3	17	2	121	221	321	NaN	521	0.0148102222010493	1	1	NaN	4560237.2740459	NaN	4560238.2575513	4560238.77410538
101	21	0	0	90	36.1581920903955	36.241610738255	20	0.666713039577007	2	9	5	NaN	2	4	0.0305027806128239	1	1	NaN	144	3	18	2	121	221	321	NaN	521	0.460893369279802	2	1	NaN	4560240.3244363	NaN	4560241.3078517	4560241.82439723
101	21	0	0	90	36.1581920903955	36.241610738255	15	0.500034779682755	2	9	6	NaN	2	4	0.0305027806128239	1	1	NaN	145	3	19	2	121	221	321	NaN	521	0.0104060228914022	2	1	NaN	4560243.1080557	NaN	4560244.0914612	4560244.60800788
101	21	0	0	90	36.1581920903955	36.241610738255	6	0.200013911873102	2	12	5	NaN	2	3	0.0305027806128239	1	1	NaN	146	3	20	2	121	221	321	NaN	521	0.0104976547881961	2	1	NaN	4560245.4250507	NaN	4560246.408386	4560246.92489455
101	21	0	0	90	36.1581920903955	36.241610738255	22	0.733384343534708	2	5	1	NaN	1	4	0.0305027806128239	1	1	NaN	147	3	21	2	121	221	321	NaN	521	0.411015317775309	2	0	NaN	4560247.7417625	NaN	4560248.725249	4560249.24179218
101	21	0	0	90	36.1581920903955	36.241610738255	21	0.700048691555858	2	1	4	NaN	1	4	0.0305027806128239	1	1	NaN	148	3	22	2	121	221	321	NaN	521	0.493577921763062	1	1	NaN	4560250.4754359	NaN	4560251.4588587	4560251.97539588
101	21	0	0	90	36.1581920903955	36.241610738255	13	0.433363475725055	2	1	3	NaN	1	4	0.0305027806128239	1	1	NaN	149	3	23	2	121	221	321	NaN	521	0.237517721951008	2	0	NaN	4560253.2757259	NaN	4560254.2591136	4560254.77567858
101	21	0	0	90	36.1581920903955	36.241610738255	12	0.400027823746204	2	8	6	NaN	2	5	0.0305027806128239	1	1	NaN	150	3	24	2	121	221	321	NaN	521	0.286970469169319	2	1	NaN	4560255.8259858	NaN	4560256.8093859	4560257.32592633
101	21	0	0	90	36.1581920903955	36.241610738255	16	0.533370431661606	2	4	3	NaN	1	5	0.0305027806128239	1	1	NaN	151	3	25	2	121	221	321	NaN	521	0.342743769288063	1	1	NaN	4560258.4262268	NaN	4560259.4096325	4560259.92618143
101	21	0	0	90	36.1581920903955	36.241610738255	20	0.666713039577007	2	6	4	NaN	1	5	0.0305027806128239	1	1	NaN	152	3	26	2	121	221	321	NaN	521	0.0104123689234257	2	0	NaN	4560261.076482	NaN	4560262.0598907	4560262.57644483
101	21	0	0	90	36.1581920903955	36.241610738255	14	0.466699127703905	2	10	5	NaN	2	4	0.0305027806128239	1	1	NaN	153	3	27	2	121	221	321	NaN	521	0.223549623042345	2	1	NaN	4560263.3933839	NaN	4560264.3767881	4560264.89333178
101	21	0	0	90	36.1581920903955	36.241610738255	25	0.833391299471259	2	6	3	NaN	1	3	0.0305027806128239	1	1	NaN	154	3	28	2	121	221	321	NaN	521	0.282171769067645	1	1	NaN	4560265.9269655	NaN	4560266.91037	4560267.42691163
101	21	0	0	90	36.1581920903955	36.241610738255	25	0.833391299471259	2	9	2	NaN	2	4	0.0305027806128239	1	1	NaN	155	3	29	2	121	221	321	NaN	521	0.22616512235254	1	0	NaN	4560268.5272283	NaN	4560269.5106447	4560270.02717688
101	21	0	0	90	36.1581920903955	36.241610738255	23	0.766719995513558	2	7	3	NaN	2	4	0.0305027806128239	1	1	NaN	156	3	30	2	121	221	321	NaN	521	0.353739969432354	2	1	NaN	4560271.1274813	NaN	4560272.1109572	4560272.62743183
101	21	0	0	90	36.1581920903955	36.241610738255	20	0.666713039577007	2	12	1	NaN	2	5	0.0305027806128239	1	1	NaN	157	3	31	2	121	221	321	NaN	521	0.286592822521925	2	1	NaN	4560273.7944099	NaN	4560274.7778109	4560275.29436128
101	21	0	0	90	36.1581920903955	36.241610738255	15	0.500034779682755	2	7	1	NaN	2	4	0.0305027806128239	1	1	NaN	158	3	32	2	121	221	321	NaN	521	0.150334716774523	2	1	NaN	4560276.3946848	NaN	4560277.3780616	4560277.89461508
101	21	0	0	90	36.1581920903955	36.241610738255	23	0.766719995513558	2	12	4	NaN	2	4	0.0305027806128239	1	1	NaN	159	3	33	2	121	221	321	NaN	521	0.0103935217484832	1	0	NaN	4560278.86159	NaN	4560279.8449732	4560280.36152788
101	21	0	0	90	36.1581920903955	36.241610738255	9	0.300020867809653	2	4	4	NaN	1	3	0.0305027806128239	1	1	NaN	160	3	34	2	121	221	321	NaN	521	0.0629603695124388	1	1	NaN	4560281.5617215	NaN	4560282.5452324	4560283.06178183
101	21	0	0	90	36.1581920903955	36.241610738255	8	0.266685215830803	2	2	5	NaN	1	5	0.0305027806128239	1	1	NaN	161	3	35	2	121	221	321	NaN	521	0.0316418232396245	2	0	NaN	4560283.9453948	NaN	4560284.9287986	4560285.44535218
101	21	0	0	90	36.1581920903955	36.241610738255	19	0.633377387598157	2	9	5	NaN	2	4	0.0305027806128239	1	1	NaN	162	3	36	2	121	221	321	NaN	521	0.0104117691516876	1	0	NaN	4560286.2956567	NaN	4560287.2790334	4560287.79558843
101	21	0	0	90	36.1581920903955	36.241610738255	8	0.266685215830803	2	10	1	NaN	2	4	0.0305027806128239	1	1	NaN	163	3	37	2	121	221	321	NaN	521	0.132124022580683	1	0	NaN	4560288.6292064	NaN	4560289.6125979	4560290.12915008
101	21	0	0	90	36.1581920903955	36.241610738255	16	0.533370431661606	2	9	2	NaN	2	5	0.0305027806128239	1	1	NaN	164	3	38	2	121	221	321	NaN	521	0.041460364125669	1	0	NaN	4560291.0794316	NaN	4560292.062833	4560292.57938264
101	21	0	0	90	36.1581920903955	36.241610738255	9	0.300020867809653	2	6	4	NaN	1	3	0.0305027806128239	1	1	NaN	165	3	39	2	121	221	321	NaN	521	0.0594444703310728	2	0	NaN	4560293.4295413	NaN	4560294.4131421	4560294.92962973
101	21	0	0	90	36.1581920903955	36.241610738255	8	0.266685215830803	2	7	2	NaN	2	4	0.0305027806128239	1	1	NaN	166	3	40	2	121	221	321	NaN	521	0.29281406942755	2	1	NaN	4560295.7966304	NaN	4560296.7799733	4560297.29651383
101	21	0	0	90	36.1581920903955	36.241610738255	15	0.500034779682755	2	9	5	NaN	2	4	0.0305027806128239	1	1	NaN	167	3	41	2	121	221	321	NaN	521	0.0103745749220252	1	0	NaN	4560298.3968311	NaN	4560299.3802228	4560299.89677662
101	21	0	0	90	36.1581920903955	36.241610738255	6	0.200013911873102	2	2	2	NaN	1	4	0.0305027806128239	1	1	NaN	168	3	42	2	121	221	321	NaN	521	0.0104207694530487	1	1	NaN	4560300.7137302	NaN	4560301.6971167	4560302.21367143
101	21	0	0	90	36.1581920903955	36.241610738255	22	0.733384343534708	2	7	5	NaN	2	4	0.0305027806128239	1	1	NaN	169	3	43	2	121	221	321	NaN	521	0.0103922225534916	2	1	NaN	4560303.0304838	NaN	4560304.0139942	4560304.53055888
101	21	0	0	90	36.1581920903955	36.241610738255	12	0.400027823746204	2	8	2	NaN	2	3	0.0305027806128239	1	1	NaN	170	3	44	2	121	221	321	NaN	521	0.010418170131743	1	0	NaN	4560305.3641537	NaN	4560306.347556	4560306.86412103
101	21	0	0	90	36.1581920903955	36.241610738255	12	0.400027823746204	2	4	1	NaN	1	3	0.0305027806128239	1	1	NaN	171	3	45	2	121	221	321	NaN	521	0.816305422224104	2	0	NaN	4560307.6810789	NaN	4560308.6644705	4560309.18102288
101	21	0	0	90	36.1581920903955	36.241610738255	0	0	1	3	1	NaN	1	4	0.0305027806128239	1	1	NaN	172	3	46	2	111	211	311	NaN	511	0.210601969622076	2	0	NaN	4560310.8147183	NaN	4560311.7980994	4560312.31465983
101	21	0	0	90	36.1581920903955	36.241610738255	25	0.833391299471259	2	8	3	NaN	2	4	0.0305027806128239	1	1	NaN	173	3	47	2	121	221	321	NaN	521	0.0104036228731275	2	1	NaN	4560313.3316784	NaN	4560314.3150139	4560314.83157118
101	21	0	0	90	36.1581920903955	36.241610738255	9	0.300020867809653	2	7	2	NaN	2	5	0.0305027806128239	1	1	NaN	174	3	48	2	121	221	321	NaN	521	0.232076769694686	2	1	NaN	4560315.6652125	NaN	4560316.6485919	4560317.16513213
101	21	0	0	90	36.1581920903955	36.241610738255	10	0.333356519788504	2	3	2	NaN	1	3	0.0305027806128239	1	1	NaN	175	3	49	2	121	221	321	NaN	521	0.0104079693555832	2	0	NaN	4560318.1987584	NaN	4560319.1821671	4560319.69871383
101	21	0	0	90	36.1581920903955	36.241610738255	9	0.300020867809653	2	1	1	NaN	1	5	0.0305027806128239	1	1	NaN	176	3	50	2	121	221	321	NaN	521	1.04461946990341	1	1	NaN	4560320.5323311	NaN	4560321.5157246	4560322.03227323
101	21	0	0	90	36.1581920903955	36.241610738255	19	0.633377387598157	2	11	3	NaN	2	5	0.0305027806128239	1	1	NaN	177	3	51	2	121	221	321	NaN	521	0.806376222521067	1	0	NaN	4560323.882558	NaN	4560324.8660605	4560325.38261458
101	21	0	0	90	36.1581920903955	36.241610738255	13	0.433363475725055	2	8	6	NaN	2	3	0.0305027806128239	1	1	NaN	178	3	52	2	121	221	321	NaN	521	0.0104100694879889	2	1	NaN	4560326.9995314	NaN	4560327.9830135	4560328.49958433
101	21	0	0	90	36.1581920903955	36.241610738255	14	0.466699127703905	2	2	1	NaN	1	4	0.0305027806128239	1	1	NaN	179	3	53	2	121	221	321	NaN	521	0.0103970225900412	2	0	NaN	4560329.333276	NaN	4560330.3165965	4560330.83314768
101	21	0	0	90	36.1581920903955	36.241610738255	10	0.333356519788504	2	3	4	NaN	1	5	0.0305027806128239	1	1	NaN	180	3	54	2	121	221	321	NaN	521	0.142604269087315	1	1	NaN	4560331.6667771	NaN	4560332.6501574	4560333.16670383
101	21	0	0	90	36.1581920903955	36.241610738255	22	0.733384343534708	2	11	2	NaN	2	3	0.0305027806128239	1	1	NaN	181	3	55	2	121	221	321	NaN	521	0.0103932227939367	2	1	NaN	4560334.1336759	NaN	4560335.1170682	4560335.63361588
101	21	0	0	90	36.1581920903955	36.241610738255	18	0.600041735619307	2	12	1	NaN	2	5	0.0305027806128239	1	1	NaN	182	3	56	2	121	221	321	NaN	521	0.0306851696223021	2	1	NaN	4560336.4505641	NaN	4560337.4338593	4560337.95051493
101	21	0	0	90	36.1581920903955	36.241610738255	14	0.466699127703905	2	7	6	NaN	2	4	0.0305027806128239	1	1	NaN	183	3	57	2	121	221	321	NaN	521	0.25684591755271	2	1	NaN	4560338.7841212	NaN	4560339.7675084	4560340.28406568
101	21	0	0	90	36.1581920903955	36.241610738255	15	0.500034779682755	2	6	4	NaN	1	4	0.0305027806128239	1	1	NaN	184	3	58	2	121	221	321	NaN	521	1.16222426947206	1	1	NaN	4560341.3509151	NaN	4560342.3344734	4560342.85098353
101	21	0	0	90	36.1581920903955	36.241610738255	25	0.833391299471259	2	12	6	NaN	2	3	0.0305027806128239	1	1	NaN	185	3	59	2	121	221	321	NaN	521	0.0103889219462872	2	1	NaN	4560344.818051	NaN	4560345.8014734	4560346.31799968
101	21	0	0	90	36.1581920903955	36.241610738255	0	0	1	1	1	NaN	1	4	0.0305027806128239	1	1	NaN	186	3	60	2	111	211	311	NaN	511	0.0104174697771668	1	1	NaN	4560347.1516409	NaN	4560348.1350099	4560348.65155693
101	21	0	0	90	36.1581920903955	36.241610738255	20	0.666713039577007	2	7	1	NaN	2	4	0.0305027806128239	1	1	NaN	187	3	61	2	121	221	321	NaN	521	1.56493077520281	1	0	NaN	4560349.4685087	NaN	4560350.451894	4560350.96845683
101	21	0	0	90	36.1581920903955	36.241610738255	7	0.233349563851953	2	3	4	NaN	1	5	0.0305027806128239	1	1	NaN	188	3	62	2	121	221	321	NaN	521	1.01683352235705	1	1	NaN	4560353.3522343	NaN	4560354.3355961	4560354.85217028
101	21	0	0	90	36.1581920903955	36.241610738255	22	0.733384343534708	2	3	2	NaN	1	3	0.0305027806128239	1	1	NaN	189	3	63	2	121	221	321	NaN	521	0.0103907231241465	1	1	NaN	4560356.6858762	NaN	4560357.6692813	4560358.18582818
101	21	0	0	90	36.1581920903955	36.241610738255	24	0.800055647492409	2	7	5	NaN	2	3	0.0305027806128239	1	1	NaN	190	4	1	2	121	221	321	NaN	521	3.03778962325305	2	1	NaN	4560385.955421	NaN	4560386.9387209	4560387.45536388
101	21	0	0	90	36.1581920903955	36.241610738255	24	0.800055647492409	2	11	2	NaN	2	3	0.0305027806128239	1	1	NaN	191	4	2	2	121	221	321	NaN	521	0.399373769760132	2	1	NaN	4560391.305919	NaN	4560392.2893807	4560392.80589183
101	21	0	0	90	36.1581920903955	36.241610738255	12	0.400027823746204	2	3	2	NaN	1	3	0.0305027806128239	1	1	NaN	192	4	3	2	121	221	321	NaN	521	0.0104024698957801	1	1	NaN	4560394.0228778	NaN	4560395.0062838	4560395.52283173
101	21	0	0	90	36.1581920903955	36.241610738255	11	0.366692171767354	2	7	6	NaN	2	3	0.0305027806128239	1	1	NaN	193	4	4	2	121	221	321	NaN	521	1.19729172252119	1	0	NaN	4560396.3397686	NaN	4560397.3231721	4560397.83971988
101	21	0	0	90	36.1581920903955	36.241610738255	16	0.533370431661606	2	5	5	NaN	1	4	0.0305027806128239	1	1	NaN	194	4	5	2	121	221	321	NaN	521	0.568258922547102	2	0	NaN	4560399.8567826	NaN	4560400.8401918	4560401.35673878
101	21	0	0	90	36.1581920903955	36.241610738255	21	0.700048691555858	2	1	5	NaN	1	3	0.0305027806128239	1	1	NaN	195	4	6	2	121	221	321	NaN	521	0.0769348694011569	2	0	NaN	4560402.7405094	NaN	4560403.7237978	4560404.24034523
101	21	0	0	90	36.1581920903955	36.241610738255	25	0.833391299471259	2	2	5	NaN	1	5	0.0305027806128239	1	1	NaN	196	4	7	2	121	221	321	NaN	521	2.19450731761754	1	1	NaN	4560405.5905695	NaN	4560406.5740905	4560407.09063088
101	21	0	0	90	36.1581920903955	36.241610738255	12	0.400027823746204	2	6	5	NaN	1	4	0.0305027806128239	1	1	NaN	197	4	8	2	121	221	321	NaN	521	0.334084722213447	2	0	NaN	4560410.0911102	NaN	4560411.0745229	4560411.59107918
101	21	0	0	90	36.1581920903955	36.241610738255	11	0.366692171767354	2	4	3	NaN	1	4	0.0305027806128239	1	1	NaN	198	4	9	2	121	221	321	NaN	521	0.212001017294824	1	1	NaN	4560412.7413977	NaN	4560413.7247884	4560414.24132768
101	21	0	0	90	36.1581920903955	36.241610738255	24	0.800055647492409	2	11	1	NaN	2	5	0.0305027806128239	1	1	NaN	199	4	10	2	121	221	321	NaN	521	0.438506127335131	2	1	NaN	4560415.2749589	NaN	4560416.2583614	4560416.77492417
101	21	0	0	90	36.1581920903955	36.241610738255	16	0.533370431661606	2	11	6	NaN	2	4	0.0305027806128239	1	1	NaN	200	4	11	2	121	221	321	NaN	521	0.0102832419797778	1	0	NaN	4560418.0252467	NaN	4560419.0086074	4560419.52519766
101	21	0	0	90	36.1581920903955	36.241610738255	8	0.266685215830803	2	11	4	NaN	2	5	0.0305027806128239	1	1	NaN	201	4	12	2	121	221	321	NaN	521	0.69031891785562	2	1	NaN	4560420.3587852	NaN	4560421.3422292	4560421.85875388
101	21	0	0	90	36.1581920903955	36.241610738255	0	0	1	9	2	NaN	2	3	0.0305027806128239	1	1	NaN	202	4	13	2	111	211	311	NaN	511	0.554151717573404	2	1	NaN	4560423.3591105	NaN	4560424.3424947	4560424.85904408
101	21	0	0	90	36.1581920903955	36.241610738255	23	0.766719995513558	2	7	2	NaN	2	4	0.0305027806128239	1	1	NaN	203	4	14	2	121	221	321	NaN	521	1.65734136942774	1	0	NaN	4560426.3759507	NaN	4560427.3594577	4560427.87602003
101	21	0	0	90	36.1581920903955	36.241610738255	17	0.566706083640456	2	12	4	NaN	2	4	0.0305027806128239	1	1	NaN	204	4	15	2	121	221	321	NaN	521	0.442406269721687	2	1	NaN	4560430.3431398	NaN	4560431.3265144	4560431.84306843
101	21	0	0	90	36.1581920903955	36.241610738255	7	0.233349563851953	2	3	5	NaN	1	3	0.0305027806128239	1	1	NaN	205	4	16	2	121	221	321	NaN	521	0.37203876953572	2	0	NaN	4560433.0933764	NaN	4560434.0767815	4560434.59333013
101	21	0	0	90	36.1581920903955	36.241610738255	14	0.466699127703905	2	3	3	NaN	1	4	0.0305027806128239	1	1	NaN	206	4	17	2	121	221	321	NaN	521	0.0103903226554394	1	1	NaN	4560435.776985	NaN	4560436.7603822	4560437.27692398
101	21	0	0	90	36.1581920903955	36.241610738255	9	0.300020867809653	2	2	6	NaN	1	5	0.0305027806128239	1	1	NaN	207	4	18	2	121	221	321	NaN	521	0.010424917563796	2	0	NaN	4560438.0938678	NaN	4560439.0772773	4560439.59382658
101	21	0	0	90	36.1581920903955	36.241610738255	19	0.633377387598157	2	8	4	NaN	2	5	0.0305027806128239	1	1	NaN	208	4	19	2	121	221	321	NaN	521	0.357752569019794	1	0	NaN	4560440.4274371	NaN	4560441.4108491	4560441.92738253
101	21	0	0	90	36.1581920903955	36.241610738255	9	0.300020867809653	2	11	3	NaN	2	4	0.0305027806128239	1	1	NaN	209	4	20	2	121	221	321	NaN	521	0.114998569712043	2	1	NaN	4560443.0942826	NaN	4560444.0777667	4560444.59431223
101	21	0	0	90	36.1581920903955	36.241610738255	24	0.800055647492409	2	9	1	NaN	2	5	0.0305027806128239	1	1	NaN	210	4	21	2	121	221	321	NaN	521	0.377628774382174	1	0	NaN	4560445.5279488	NaN	4560446.511338	4560447.02789443
101	21	0	0	90	36.1581920903955	36.241610738255	6	0.200013911873102	2	12	5	NaN	2	5	0.0305027806128239	1	1	NaN	211	4	22	2	121	221	321	NaN	521	0.0103834746405482	1	0	NaN	4560448.2281928	NaN	4560449.2115945	4560449.72815553
101	21	0	0	90	36.1581920903955	36.241610738255	21	0.700048691555858	2	11	5	NaN	2	5	0.0305027806128239	1	1	NaN	212	4	23	2	121	221	321	NaN	521	0.0104092694818974	2	1	NaN	4560450.5451137	NaN	4560451.5285425	4560452.04505113
101	21	0	0	90	36.1581920903955	36.241610738255	15	0.500034779682755	2	8	6	NaN	2	3	0.0305027806128239	1	1	NaN	213	4	24	2	121	221	321	NaN	521	0.114550322294235	2	1	NaN	4560452.8786545	NaN	4560453.8620554	4560454.37861318
101	21	0	0	90	36.1581920903955	36.241610738255	11	0.366692171767354	2	4	2	NaN	1	4	0.0305027806128239	1	1	NaN	214	4	25	2	121	221	321	NaN	521	0.0104813063517213	2	0	NaN	4560455.3122409	NaN	4560456.2956323	4560456.81217259
101	21	0	0	90	36.1581920903955	36.241610738255	21	0.700048691555858	2	5	4	NaN	1	3	0.0305027806128239	1	1	NaN	215	4	26	2	121	221	321	NaN	521	1.33118191733956	2	0	NaN	4560457.6624695	NaN	4560458.6458617	4560459.16240938
101	21	0	0	90	36.1581920903955	36.241610738255	19	0.633377387598157	2	2	4	NaN	1	3	0.0305027806128239	1	1	NaN	216	4	27	2	121	221	321	NaN	521	0.480786522850394	1	1	NaN	4560461.3128313	NaN	4560462.2962311	4560462.81277448
101	21	0	0	90	36.1581920903955	36.241610738255	16	0.533370431661606	2	12	6	NaN	2	5	0.0305027806128239	1	1	NaN	217	4	28	2	121	221	321	NaN	521	0.0102972369641066	2	1	NaN	4560464.0964439	NaN	4560465.0798248	4560465.59638446
101	21	0	0	90	36.1581920903955	36.241610738255	17	0.566706083640456	2	2	1	NaN	1	5	0.0305027806128239	1	1	NaN	218	4	29	2	121	221	321	NaN	521	0.0104228174313903	1	1	NaN	4560466.4300052	NaN	4560467.413432	4560467.92994228
101	21	0	0	90	36.1581920903955	36.241610738255	19	0.633377387598157	2	5	2	NaN	1	5	0.0305027806128239	1	1	NaN	219	4	30	2	121	221	321	NaN	521	0.0104151694104075	1	1	NaN	4560468.7635418	NaN	4560469.7469625	4560470.26349913
101	21	0	0	90	36.1581920903955	36.241610738255	0	0	1	12	2	NaN	2	4	0.0305027806128239	1	1	NaN	220	4	31	2	111	211	311	NaN	511	0.0104064233601093	1	0	NaN	4560471.0804432	NaN	4560472.0638321	4560472.58039918
101	21	0	0	90	36.1581920903955	36.241610738255	11	0.366692171767354	2	10	5	NaN	2	5	0.0305027806128239	1	1	NaN	221	4	32	2	121	221	321	NaN	521	0.0104109700769186	2	1	NaN	4560473.4140078	NaN	4560474.3974477	4560474.91395523
101	21	0	0	90	36.1581920903955	36.241610738255	10	0.333356519788504	2	10	2	NaN	2	4	0.0305027806128239	1	1	NaN	222	4	33	2	121	221	321	NaN	521	0.0103935226798058	2	1	NaN	4560475.7307867	NaN	4560476.7143065	4560477.23085168
101	21	0	0	90	36.1581920903955	36.241610738255	18	0.600041735619307	2	10	2	NaN	2	5	0.0305027806128239	1	1	NaN	223	4	34	2	121	221	321	NaN	521	0.0104233175516129	2	1	NaN	4560478.047794	NaN	4560479.0312067	4560479.54775048
101	21	0	0	90	36.1581920903955	36.241610738255	17	0.566706083640456	2	5	1	NaN	1	3	0.0305027806128239	1	1	NaN	224	4	35	2	121	221	321	NaN	521	0.0104091698303819	2	0	NaN	4560480.3646942	NaN	4560481.3481488	4560481.86463653
101	21	0	0	90	36.1581920903955	36.241610738255	22	0.733384343534708	2	12	2	NaN	2	4	0.0305027806128239	1	1	NaN	225	4	36	2	121	221	321	NaN	521	1.14396237023175	2	1	NaN	4560482.6816779	NaN	4560483.664963	4560484.18153143
101	21	0	0	90	36.1581920903955	36.241610738255	11	0.366692171767354	2	9	6	NaN	2	3	0.0305027806128239	1	1	NaN	226	4	37	2	121	221	321	NaN	521	0.165335070341825	2	1	NaN	4560486.1319368	NaN	4560487.115329	4560487.63186933
101	21	0	0	90	36.1581920903955	36.241610738255	15	0.500034779682755	2	10	6	NaN	2	4	0.0305027806128239	1	1	NaN	227	4	38	2	121	221	321	NaN	521	0.0104722697287798	2	1	NaN	4560488.9989594	NaN	4560489.9822761	4560490.49881843
101	21	0	0	90	36.1581920903955	36.241610738255	15	0.500034779682755	2	8	5	NaN	2	5	0.0305027806128239	1	1	NaN	228	4	39	2	121	221	321	NaN	521	0.381173980422318	2	1	NaN	4560491.3324365	NaN	4560492.3158363	4560492.83238832
101	21	0	0	90	36.1581920903955	36.241610738255	14	0.466699127703905	2	5	3	NaN	1	5	0.0305027806128239	1	1	NaN	229	4	40	2	121	221	321	NaN	521	0.0567105701193213	2	0	NaN	4560494.0326969	NaN	4560495.0161007	4560495.53264763
101	21	0	0	90	36.1581920903955	36.241610738255	6	0.200013911873102	2	7	2	NaN	2	5	0.0305027806128239	1	1	NaN	230	4	41	2	121	221	321	NaN	521	0.0256960224360228	2	1	NaN	4560496.3996009	NaN	4560497.3830016	4560497.89955458
101	21	0	0	90	36.1581920903955	36.241610738255	17	0.566706083640456	2	8	6	NaN	2	5	0.0305027806128239	1	1	NaN	231	4	42	2	121	221	321	NaN	521	0.420429769903421	2	1	NaN	4560498.7331544	NaN	4560499.7165646	4560500.23310633
101	21	0	0	90	36.1581920903955	36.241610738255	21	0.700048691555858	2	8	4	NaN	2	3	0.0305027806128239	1	1	NaN	232	4	43	2	121	221	321	NaN	521	0.182830070145428	1	0	NaN	4560501.4667695	NaN	4560502.4501681	4560502.96671803
101	21	0	0	90	36.1581920903955	36.241610738255	23	0.766719995513558	2	11	4	NaN	2	5	0.0305027806128239	1	1	NaN	233	4	44	2	121	221	321	NaN	521	1.75434111710638	2	1	NaN	4560503.9670005	NaN	4560504.9504115	4560505.46695528
101	21	0	0	90	36.1581920903955	36.241610738255	8	0.266685215830803	2	8	4	NaN	2	4	0.0305027806128239	1	1	NaN	234	4	45	2	121	221	321	NaN	521	0.0712952222675085	2	1	NaN	4560508.0339353	NaN	4560509.0174809	4560509.53402748
101	21	0	0	90	36.1581920903955	36.241610738255	0	0	1	4	2	NaN	1	3	0.0305027806128239	1	1	NaN	235	4	46	2	111	211	311	NaN	511	1.28808722272515	1	1	NaN	4560510.4176425	NaN	4560511.4010453	4560511.91759938
101	21	0	0	90	36.1581920903955	36.241610738255	15	0.500034779682755	2	11	6	NaN	2	3	0.0305027806128239	1	1	NaN	236	4	47	2	121	221	321	NaN	521	0.0104230176657438	1	0	NaN	4560514.0178898	NaN	4560515.0014148	4560515.51794298
101	21	0	0	90	36.1581920903955	36.241610738255	10	0.333356519788504	2	1	1	NaN	1	3	0.0305027806128239	1	1	NaN	237	4	48	2	121	221	321	NaN	521	1.61829966958612	1	1	NaN	4560516.3349184	NaN	4560517.3182759	4560517.83484533
101	21	0	0	90	36.1581920903955	36.241610738255	22	0.733384343534708	2	7	6	NaN	2	5	0.0305027806128239	1	1	NaN	238	4	49	2	121	221	321	NaN	521	0.428600174374878	2	1	NaN	4560520.2686343	NaN	4560521.2520495	4560521.76856893
101	21	0	0	90	36.1581920903955	36.241610738255	9	0.300020867809653	2	12	3	NaN	2	5	0.0305027806128239	1	1	NaN	239	4	50	2	121	221	321	NaN	521	0.0864584697410464	2	1	NaN	4560523.0188746	NaN	4560524.0022858	4560524.51882653
101	21	0	0	90	36.1581920903955	36.241610738255	17	0.566706083640456	2	1	5	NaN	1	5	0.0305027806128239	1	1	NaN	240	4	51	2	121	221	321	NaN	521	0.0543561168015003	2	0	NaN	4560525.4189976	NaN	4560526.4025079	4560526.91905858
101	21	0	0	90	36.1581920903955	36.241610738255	8	0.266685215830803	2	12	6	NaN	2	4	0.0305027806128239	1	1	NaN	241	4	52	2	121	221	321	NaN	521	0.719717837870121	2	1	NaN	4560527.7860182	NaN	4560528.7694177	4560529.28596696
101	21	0	0	90	36.1581920903955	36.241610738255	18	0.600041735619307	2	4	2	NaN	1	4	0.0305027806128239	1	1	NaN	242	4	53	2	121	221	321	NaN	521	0.0103851221501827	1	1	NaN	4560530.8196473	NaN	4560531.8030478	4560532.31959708
101	21	0	0	90	36.1581920903955	36.241610738255	16	0.533370431661606	2	4	2	NaN	1	5	0.0305027806128239	1	1	NaN	243	4	54	2	121	221	321	NaN	521	0.152907770127058	1	1	NaN	4560533.1365571	NaN	4560534.1199395	4560534.63648523
101	21	0	0	90	36.1581920903955	36.241610738255	24	0.800055647492409	2	12	2	NaN	2	4	0.0305027806128239	1	1	NaN	244	4	55	2	121	221	321	NaN	521	0.0104431640356779	2	1	NaN	4560535.6034502	NaN	4560536.5868396	4560537.10339844
101	21	0	0	90	36.1581920903955	36.241610738255	8	0.266685215830803	2	8	1	NaN	2	5	0.0305027806128239	1	1	NaN	245	4	56	2	121	221	321	NaN	521	0.449168869294226	1	0	NaN	4560537.920361	NaN	4560538.9037471	4560539.42029973
101	21	0	0	90	36.1581920903955	36.241610738255	22	0.733384343534708	2	12	4	NaN	2	4	0.0305027806128239	1	1	NaN	246	4	57	2	121	221	321	NaN	521	0.30678572319448	2	1	NaN	4560541.0706049	NaN	4560542.0540572	4560542.57060798
101	21	0	0	90	36.1581920903955	36.241610738255	6	0.200013911873102	2	10	2	NaN	2	5	0.0305027806128239	1	1	NaN	247	4	58	2	121	221	321	NaN	521	0.665731617249548	2	1	NaN	4560543.6875824	NaN	4560544.6709809	4560545.18752318
101	21	0	0	90	36.1581920903955	36.241610738255	22	0.733384343534708	2	11	4	NaN	2	3	0.0305027806128239	1	1	NaN	248	4	59	2	121	221	321	NaN	521	0.0104056233540177	2	1	NaN	4560546.671215	NaN	4560547.6545891	4560548.17115868
101	21	0	0	90	36.1581920903955	36.241610738255	17	0.566706083640456	2	3	3	NaN	1	3	0.0305027806128239	1	1	NaN	249	4	60	2	121	221	321	NaN	521	0.269486822187901	1	1	NaN	4560548.9881291	NaN	4560549.9714877	4560550.48805268
101	21	0	0	90	36.1581920903955	36.241610738255	21	0.700048691555858	2	4	4	NaN	1	3	0.0305027806128239	1	1	NaN	250	4	61	2	121	221	321	NaN	521	0.0103876227512956	1	1	NaN	4560551.5716918	NaN	4560552.555067	4560553.07163728
101	21	0	0	90	36.1581920903955	36.241610738255	13	0.433363475725055	2	2	3	NaN	1	4	0.0305027806128239	1	1	NaN	251	4	62	2	121	221	321	NaN	521	0.0104348640888929	1	1	NaN	4560553.8885918	NaN	4560554.8719935	4560555.38852484
101	21	0	0	90	36.1581920903955	36.241610738255	6	0.200013911873102	2	5	1	NaN	1	5	0.0305027806128239	1	1	NaN	252	4	63	2	121	221	321	NaN	521	0.0103963231667876	1	1	NaN	4560556.2054716	NaN	4560557.1888986	4560557.70542698
101	21	0	0	90	36.1581920903955	36.241610738255	19	0.633377387598157	2	10	1	NaN	2	5	0.0305027806128239	1	1	NaN	253	5	1	2	121	221	321	NaN	521	0.0255097690969706	2	1	NaN	4560560.6559245	NaN	4560561.6392957	4560562.15586443
101	21	0	0	90	36.1581920903955	36.241610738255	6	0.200013911873102	2	9	2	NaN	2	3	0.0305027806128239	1	1	NaN	254	5	2	2	121	221	321	NaN	521	1.35623217001557	2	1	NaN	4560562.9895726	NaN	4560563.9728609	4560564.48942563
101	21	0	0	90	36.1581920903955	36.241610738255	17	0.566706083640456	2	2	1	NaN	1	5	0.0305027806128239	1	1	NaN	255	5	3	2	121	221	321	NaN	521	0.256901369430125	1	1	NaN	4560566.6564933	NaN	4560567.6398984	4560568.15644683
101	21	0	0	90	36.1581920903955	36.241610738255	7	0.233349563851953	2	8	2	NaN	2	4	0.0305027806128239	1	1	NaN	256	5	4	2	121	221	321	NaN	521	0.0103860748931766	2	1	NaN	4560569.2233904	NaN	4560570.206819	4560570.72337153
101	21	0	0	90	36.1581920903955	36.241610738255	18	0.600041735619307	2	9	3	NaN	2	4	0.0305027806128239	1	1	NaN	257	5	5	2	121	221	321	NaN	521	0.0104285180568695	2	1	NaN	4560571.5403181	NaN	4560572.5236937	4560573.04025418
101	21	0	0	90	36.1581920903955	36.241610738255	0	0	1	2	3	NaN	1	5	0.0305027806128239	1	1	NaN	258	5	6	2	111	211	311	NaN	511	0.239742275327444	1	1	NaN	4560573.8737354	NaN	4560574.8572728	4560575.37382712
101	21	0	0	90	36.1581920903955	36.241610738255	22	0.733384343534708	2	6	5	NaN	1	5	0.0305027806128239	1	1	NaN	259	5	7	2	121	221	321	NaN	521	0.0104098217561841	1	1	NaN	4560576.4241197	NaN	4560577.4075251	4560577.92408188
101	21	0	0	90	36.1581920903955	36.241610738255	20	0.666713039577007	2	5	5	NaN	1	3	0.0305027806128239	1	1	NaN	260	5	8	2	121	221	321	NaN	521	0.756437322124839	1	1	NaN	4560578.7410138	NaN	4560579.7243967	4560580.24097128
101	21	0	0	90	36.1581920903955	36.241610738255	17	0.566706083640456	2	1	3	NaN	1	3	0.0305027806128239	1	1	NaN	261	5	9	2	121	221	321	NaN	521	0.0103897219523787	2	0	NaN	4560581.8079814	NaN	4560582.7913863	4560583.30794468
101	21	0	0	90	36.1581920903955	36.241610738255	11	0.366692171767354	2	1	4	NaN	1	5	0.0305027806128239	1	1	NaN	262	5	10	2	121	221	321	NaN	521	0.0104073686525226	2	0	NaN	4560584.1248786	NaN	4560585.1082832	4560585.62482893
101	21	0	0	90	36.1581920903955	36.241610738255	12	0.400027823746204	2	10	6	NaN	2	3	0.0305027806128239	1	1	NaN	263	5	11	2	121	221	321	NaN	521	0.0104037225246429	1	0	NaN	4560586.4417638	NaN	4560587.4251682	4560587.94173028
101	21	0	0	90	36.1581920903955	36.241610738255	19	0.633377387598157	2	8	1	NaN	2	4	0.0305027806128239	1	1	NaN	264	5	12	2	121	221	321	NaN	521	0.0667707696557045	1	0	NaN	4560588.7586606	NaN	4560589.7420746	4560590.25862463
101	21	0	0	90	36.1581920903955	36.241610738255	7	0.233349563851953	2	10	2	NaN	2	3	0.0305027806128239	1	1	NaN	265	5	13	2	121	221	321	NaN	521	0.010410469956696	2	1	NaN	4560591.1422769	NaN	4560592.1256451	4560592.64218543
101	21	0	0	90	36.1581920903955	36.241610738255	21	0.700048691555858	2	8	6	NaN	2	3	0.0305027806128239	1	1	NaN	266	5	14	2	121	221	321	NaN	521	1.37188866920769	2	1	NaN	4560593.5251022	NaN	4560594.5091858	4560595.02574983
101	21	0	0	90	36.1581920903955	36.241610738255	8	0.266685215830803	2	2	1	NaN	1	4	0.0305027806128239	1	1	NaN	267	5	15	2	121	221	321	NaN	521	0.368204674683511	1	1	NaN	4560597.209496	NaN	4560598.1928885	4560598.70945713
101	21	0	0	90	36.1581920903955	36.241610738255	14	0.466699127703905	2	4	5	NaN	1	4	0.0305027806128239	1	1	NaN	268	5	16	2	121	221	321	NaN	521	0.292466069571674	2	0	NaN	4560599.8930883	NaN	4560600.8764975	4560601.39304083
101	21	0	0	90	36.1581920903955	36.241610738255	25	0.833391299471259	2	12	1	NaN	2	3	0.0305027806128239	1	1	NaN	269	5	17	2	121	221	321	NaN	521	0.268421822227538	2	1	NaN	4560602.4933748	NaN	4560603.4767547	4560603.99330278
101	21	0	0	90	36.1581920903955	36.241610738255	18	0.600041735619307	2	10	3	NaN	2	3	0.0305027806128239	1	1	NaN	270	5	18	2	121	221	321	NaN	521	0.108418917283416	1	0	NaN	4560605.0769313	NaN	4560606.0604205	4560606.57688288
101	21	0	0	90	36.1581920903955	36.241610738255	15	0.500034779682755	2	1	2	NaN	1	5	0.0305027806128239	1	1	NaN	271	5	19	2	121	221	321	NaN	521	0.131804822012782	1	1	NaN	4560607.4938381	NaN	4560608.4772455	4560608.99378958
101	21	0	0	90	36.1581920903955	36.241610738255	24	0.800055647492409	2	2	6	NaN	1	4	0.0305027806128239	1	1	NaN	272	5	20	2	121	221	321	NaN	521	0.0104052694514394	1	1	NaN	4560609.9440991	NaN	4560610.9274946	4560611.44403813
101	21	0	0	90	36.1581920903955	36.241610738255	15	0.500034779682755	2	3	2	NaN	1	4	0.0305027806128239	1	1	NaN	273	5	21	2	121	221	321	NaN	521	0.010410669259727	1	1	NaN	4560612.2609899	NaN	4560613.2443795	4560613.76092143
101	21	0	0	90	36.1581920903955	36.241610738255	16	0.533370431661606	2	2	5	NaN	1	3	0.0305027806128239	1	1	NaN	274	5	22	2	121	221	321	NaN	521	0.0104018226265907	1	1	NaN	4560614.5945339	NaN	4560615.5779387	4560616.09449718
101	21	0	0	90	36.1581920903955	36.241610738255	8	0.266685215830803	2	3	3	NaN	1	4	0.0305027806128239	1	1	NaN	275	5	23	2	121	221	321	NaN	521	0.722009869292378	1	1	NaN	4560616.9114507	NaN	4560617.8948408	4560618.41138453
101	21	0	0	90	36.1581920903955	36.241610738255	13	0.433363475725055	2	4	6	NaN	1	4	0.0305027806128239	1	1	NaN	276	5	24	2	121	221	321	NaN	521	0.264687317423522	1	1	NaN	4560619.9449379	NaN	4560620.9284617	4560621.44500798
101	21	0	0	90	36.1581920903955	36.241610738255	12	0.400027823746204	2	2	5	NaN	1	5	0.0305027806128239	1	1	NaN	277	5	25	2	121	221	321	NaN	521	0.0103705748915672	2	0	NaN	4560622.5286502	NaN	4560623.5120932	4560624.02860763
101	21	0	0	90	36.1581920903955	36.241610738255	19	0.633377387598157	2	3	6	NaN	1	5	0.0305027806128239	1	1	NaN	278	5	26	2	121	221	321	NaN	521	0.0103935226798058	1	1	NaN	4560624.8455402	NaN	4560625.8289521	4560626.34550248
101	21	0	0	90	36.1581920903955	36.241610738255	12	0.400027823746204	2	7	5	NaN	2	5	0.0305027806128239	1	1	NaN	279	5	27	2	121	221	321	NaN	521	0.742768222466111	2	1	NaN	4560627.1791097	NaN	4560628.1625171	4560628.67906648
101	21	0	0	90	36.1581920903955	36.241610738255	10	0.333356519788504	2	6	3	NaN	1	5	0.0305027806128239	1	1	NaN	280	5	28	2	121	221	321	NaN	521	0.010410669259727	2	0	NaN	4560630.2294245	NaN	4560631.2127305	4560631.72936043
101	21	0	0	90	36.1581920903955	36.241610738255	12	0.400027823746204	2	1	5	NaN	1	5	0.0305027806128239	1	1	NaN	281	5	29	2	121	221	321	NaN	521	0.0104045690968633	2	0	NaN	4560632.5629542	NaN	4560633.5463705	4560634.06291753
101	21	0	0	90	36.1581920903955	36.241610738255	11	0.366692171767354	2	9	4	NaN	2	4	0.0305027806128239	1	1	NaN	282	5	30	2	121	221	321	NaN	521	0.0104254689067602	2	1	NaN	4560634.8798822	NaN	4560635.863262	4560636.37981903
101	21	0	0	90	36.1581920903955	36.241610738255	25	0.833391299471259	2	4	6	NaN	1	4	0.0305027806128239	1	1	NaN	283	5	31	2	121	221	321	NaN	521	0.0103944223374128	2	0	NaN	4560637.1967604	NaN	4560638.1801634	4560638.69670838
101	21	0	0	90	36.1581920903955	36.241610738255	9	0.300020867809653	2	3	6	NaN	1	4	0.0305027806128239	1	1	NaN	284	5	32	2	121	221	321	NaN	521	0.335387469269335	1	1	NaN	4560639.5303347	NaN	4560640.5137251	4560641.03026683
101	21	0	0	90	36.1581920903955	36.241610738255	8	0.266685215830803	2	6	4	NaN	1	3	0.0305027806128239	1	1	NaN	285	5	33	2	121	221	321	NaN	521	0.0104107698425651	1	1	NaN	4560642.1804551	NaN	4560643.163984	4560643.68053403
101	21	0	0	90	36.1581920903955	36.241610738255	14	0.466699127703905	2	11	5	NaN	2	3	0.0305027806128239	1	1	NaN	286	5	34	2	121	221	321	NaN	521	0.010409570299089	1	0	NaN	4560644.5141514	NaN	4560645.497548	4560646.01409173
101	21	0	0	90	36.1581920903955	36.241610738255	21	0.700048691555858	2	3	1	NaN	1	4	0.0305027806128239	1	1	NaN	287	5	35	2	121	221	321	NaN	521	0.0103918230161071	1	1	NaN	4560646.8309867	NaN	4560647.8144487	4560648.33099298
101	21	0	0	90	36.1581920903955	36.241610738255	17	0.566706083640456	2	9	1	NaN	2	4	0.0305027806128239	1	1	NaN	288	5	36	2	121	221	321	NaN	521	0.0104102687910199	1	0	NaN	4560649.1646099	NaN	4560650.1480002	4560650.66454673
101	21	0	0	90	36.1581920903955	36.241610738255	18	0.600041735619307	2	7	5	NaN	2	3	0.0305027806128239	1	1	NaN	289	5	37	2	121	221	321	NaN	521	0.0642273174598813	2	1	NaN	4560651.4813649	NaN	4560652.4649044	4560652.98144888
101	21	0	0	90	36.1581920903955	36.241610738255	22	0.733384343534708	2	1	4	NaN	1	4	0.0305027806128239	1	1	NaN	290	5	38	2	121	221	321	NaN	521	0.68882302287966	1	1	NaN	4560653.8650768	NaN	4560654.8484434	4560655.36501088
101	21	0	0	90	36.1581920903955	36.241610738255	23	0.766719995513558	2	2	3	NaN	1	3	0.0305027806128239	1	1	NaN	291	5	39	2	121	221	321	NaN	521	0.010406069457531	1	1	NaN	4560656.8653676	NaN	4560657.8487567	4560658.36531343
101	21	0	0	90	36.1581920903955	36.241610738255	11	0.366692171767354	2	12	5	NaN	2	3	0.0305027806128239	1	1	NaN	292	5	40	2	121	221	321	NaN	521	1.17148892208934	2	1	NaN	4560659.1822763	NaN	4560660.1656523	4560660.68219748
101	21	0	0	90	36.1581920903955	36.241610738255	10	0.333356519788504	2	1	4	NaN	1	4	0.0305027806128239	1	1	NaN	293	5	41	2	121	221	321	NaN	521	0.0798661233857274	1	1	NaN	4560662.6659051	NaN	4560663.6493288	4560664.16588318
101	21	0	0	90	36.1581920903955	36.241610738255	0	0	1	7	1	NaN	2	3	0.0305027806128239	1	1	NaN	294	5	42	2	111	211	311	NaN	511	0.0104072690010071	2	1	NaN	4560665.0494846	NaN	4560666.0328987	4560666.54944273
101	21	0	0	90	36.1581920903955	36.241610738255	6	0.200013911873102	2	11	6	NaN	2	4	0.0305027806128239	1	1	NaN	295	5	43	2	121	221	321	NaN	521	0.211228869855404	2	1	NaN	4560667.3664398	NaN	4560668.3497891	4560668.86634153
101	21	0	0	90	36.1581920903955	36.241610738255	17	0.566706083640456	2	7	4	NaN	2	4	0.0305027806128239	1	1	NaN	296	5	44	2	121	221	321	NaN	521	0.206028117798269	1	0	NaN	4560669.8832902	NaN	4560670.8667026	4560671.38324998
101	21	0	0	90	36.1581920903955	36.241610738255	23	0.766719995513558	2	10	2	NaN	2	4	0.0305027806128239	1	1	NaN	297	5	45	2	121	221	321	NaN	521	0.209521322511137	2	1	NaN	4560672.4002259	NaN	4560673.383619	4560673.90017278
101	21	0	0	90	36.1581920903955	36.241610738255	18	0.600041735619307	2	5	4	NaN	1	4	0.0305027806128239	1	1	NaN	298	5	46	2	121	221	321	NaN	521	1.11678986996412	1	1	NaN	4560674.9171506	NaN	4560675.9005329	4560676.41708363
101	21	0	0	90	36.1581920903955	36.241610738255	19	0.633377387598157	2	12	6	NaN	2	3	0.0305027806128239	1	1	NaN	299	5	47	2	121	221	321	NaN	521	0.226684422232211	1	0	NaN	4560678.3507956	NaN	4560679.3341922	4560679.85076558
101	21	0	0	90	36.1581920903955	36.241610738255	24	0.800055647492409	2	10	4	NaN	2	5	0.0305027806128239	1	1	NaN	300	5	48	2	121	221	321	NaN	521	0.0104040689766407	2	1	NaN	4560680.8843828	NaN	4560681.867789	4560682.38432993
101	21	0	0	90	36.1581920903955	36.241610738255	23	0.766719995513558	2	5	1	NaN	1	4	0.0305027806128239	1	1	NaN	301	5	49	2	121	221	321	NaN	521	0.0104306172579527	1	1	NaN	4560683.2179431	NaN	4560684.2013482	4560684.71789278
101	21	0	0	90	36.1581920903955	36.241610738255	25	0.833391299471259	2	5	4	NaN	1	4	0.0305027806128239	1	1	NaN	302	5	50	2	121	221	321	NaN	521	0.0103959226980805	2	0	NaN	4560685.5348614	NaN	4560686.5182426	4560687.03478418
101	21	0	0	90	36.1581920903955	36.241610738255	18	0.600041735619307	2	2	1	NaN	1	5	0.0305027806128239	1	1	NaN	303	5	51	2	121	221	321	NaN	521	1.53290012292564	2	0	NaN	4560687.8684214	NaN	4560688.8518024	4560689.36835518
101	21	0	0	90	36.1581920903955	36.241610738255	21	0.700048691555858	2	11	5	NaN	2	4	0.0305027806128239	1	1	NaN	304	5	52	2	121	221	321	NaN	521	0.162857569754124	2	1	NaN	4560691.7187761	NaN	4560692.7021846	4560693.21873253
101	21	0	0	90	36.1581920903955	36.241610738255	7	0.233349563851953	2	6	2	NaN	1	4	0.0305027806128239	1	1	NaN	305	5	53	2	121	221	321	NaN	521	0.0103183854371309	1	1	NaN	4560694.2023636	NaN	4560695.1857582	4560695.70230921
101	21	0	0	90	36.1581920903955	36.241610738255	17	0.566706083640456	2	10	3	NaN	2	3	0.0305027806128239	1	1	NaN	306	5	54	2	121	221	321	NaN	521	0.769704769365489	1	0	NaN	4560696.5359089	NaN	4560697.5193004	4560698.03586523
101	21	0	0	90	36.1581920903955	36.241610738255	10	0.333356519788504	2	7	6	NaN	2	5	0.0305027806128239	1	1	NaN	307	5	55	2	121	221	321	NaN	521	0.222045523114502	2	1	NaN	4560699.6194356	NaN	4560700.6029568	4560701.11951458
101	21	0	0	90	36.1581920903955	36.241610738255	11	0.366692171767354	2	7	1	NaN	2	5	0.0305027806128239	1	1	NaN	308	5	56	2	121	221	321	NaN	521	0.360565669834614	2	1	NaN	4560702.1531543	NaN	4560703.1365331	4560703.65309093
101	21	0	0	90	36.1581920903955	36.241610738255	16	0.533370431661606	2	10	4	NaN	2	5	0.0305027806128239	1	1	NaN	309	5	57	2	121	221	321	NaN	521	0.381208317354321	2	1	NaN	4560704.8367382	NaN	4560705.8201852	4560706.33668108
101	21	0	0	90	36.1581920903955	36.241610738255	8	0.266685215830803	2	4	3	NaN	1	4	0.0305027806128239	1	1	NaN	310	5	58	2	121	221	321	NaN	521	0.217625664547086	2	0	NaN	4560707.5202014	NaN	4560708.5037112	4560709.02027974
101	21	0	0	90	36.1581920903955	36.241610738255	0	0	1	3	1	NaN	1	4	0.0305027806128239	1	1	NaN	311	5	59	2	111	211	311	NaN	511	0.0103936223313212	1	1	NaN	4560710.0537785	NaN	4560711.0373138	4560711.55386598
101	21	0	0	90	36.1581920903955	36.241610738255	0	0	1	11	6	NaN	2	3	0.0305027806128239	1	1	NaN	312	5	60	2	111	211	311	NaN	511	0.0104153696447611	1	0	NaN	4560712.3708023	NaN	4560713.3542008	4560713.87075563
101	21	0	0	90	36.1581920903955	36.241610738255	20	0.666713039577007	2	3	4	NaN	1	4	0.0305027806128239	1	1	NaN	313	5	61	2	121	221	321	NaN	521	0.0103939231485128	1	1	NaN	4560714.6876972	NaN	4560715.6711469	4560716.18764528
101	21	0	0	90	36.1581920903955	36.241610738255	19	0.633377387598157	2	7	3	NaN	2	4	0.0305027806128239	1	1	NaN	314	5	62	2	121	221	321	NaN	521	0.64368976932019	2	1	NaN	4560717.0379216	NaN	4560718.0213355	4560718.53787913
101	21	0	0	90	36.1581920903955	36.241610738255	16	0.533370431661606	2	7	5	NaN	2	4	0.0305027806128239	1	1	NaN	315	5	63	2	121	221	321	NaN	521	0.010407823137939	2	1	NaN	4560719.9882246	NaN	4560720.9716241	4560721.48817648
101	21	0	0	90	36.1581920903955	36.241610738255	22	0.733384343534708	2	6	2	NaN	1	4	0.0305027806128239	1	1	NaN	316	6	1	2	121	221	321	NaN	521	0.201225037686527	1	1	NaN	4560725.0887174	NaN	4560726.0721234	4560726.58867016
101	21	0	0	90	36.1581920903955	36.241610738255	12	0.400027823746204	2	12	1	NaN	2	3	0.0305027806128239	1	1	NaN	317	6	2	2	121	221	321	NaN	521	0.0104245692491531	2	1	NaN	4560727.6056689	NaN	4560728.5890359	4560729.10558413
101	21	0	0	90	36.1581920903955	36.241610738255	25	0.833391299471259	2	11	1	NaN	2	4	0.0305027806128239	1	1	NaN	318	6	3	2	121	221	321	NaN	521	0.0103946225717664	2	1	NaN	4560729.9392092	NaN	4560730.9226034	4560731.43915168
101	21	0	0	90	36.1581920903955	36.241610738255	15	0.500034779682755	2	5	1	NaN	1	5	0.0305027806128239	1	1	NaN	319	6	4	2	121	221	321	NaN	521	0.010394474491477	1	1	NaN	4560732.2559692	NaN	4560733.2394943	4560733.75604863
101	21	0	0	90	36.1581920903955	36.241610738255	14	0.466699127703905	2	7	4	NaN	2	4	0.0305027806128239	1	1	NaN	320	6	5	2	121	221	321	NaN	521	0.0103934220969677	1	0	NaN	4560734.5729898	NaN	4560735.556387	4560736.07294218
101	21	0	0	90	36.1581920903955	36.241610738255	9	0.300020867809653	2	9	6	NaN	2	3	0.0305027806128239	1	1	NaN	321	6	6	2	121	221	321	NaN	521	0.215846822597086	1	0	NaN	4560736.8897619	NaN	4560737.8732844	4560738.38982658
101	21	0	0	90	36.1581920903955	36.241610738255	17	0.566706083640456	2	6	5	NaN	1	4	0.0305027806128239	1	1	NaN	322	6	7	2	121	221	321	NaN	521	0.0104841599240899	1	1	NaN	4560739.4235413	NaN	4560740.406873	4560740.92340514
101	21	0	0	90	36.1581920903955	36.241610738255	11	0.366692171767354	2	12	5	NaN	2	3	0.0305027806128239	1	1	NaN	323	6	8	2	121	221	321	NaN	521	0.0104156695306301	2	1	NaN	4560741.7570138	NaN	4560742.7404247	4560743.25697143
101	21	0	0	90	36.1581920903955	36.241610738255	6	0.200013911873102	2	3	3	NaN	1	3	0.0305027806128239	1	1	NaN	324	6	9	2	121	221	321	NaN	521	0.0103987222537398	1	1	NaN	4560744.073775	NaN	4560745.0573111	4560745.57386478
101	21	0	0	90	36.1581920903955	36.241610738255	9	0.300020867809653	2	3	4	NaN	1	3	0.0305027806128239	1	1	NaN	325	6	10	2	121	221	321	NaN	521	0.0104215694591403	1	1	NaN	4560746.3907101	NaN	4560747.3742146	4560747.89076193
101	21	0	0	90	36.1581920903955	36.241610738255	16	0.533370431661606	2	12	4	NaN	2	3	0.0305027806128239	1	1	NaN	326	6	11	2	121	221	321	NaN	521	1.25412682257593	2	1	NaN	4560748.7076174	NaN	4560749.6911094	4560750.20765928
101	21	0	0	90	36.1581920903955	36.241610738255	13	0.433363475725055	2	11	4	NaN	2	3	0.0305027806128239	1	1	NaN	327	6	12	2	121	221	321	NaN	521	0.271146836690605	1	0	NaN	4560752.2747441	NaN	4560753.2581642	4560753.77469586
101	21	0	0	90	36.1581920903955	36.241610738255	14	0.466699127703905	2	2	5	NaN	1	3	0.0305027806128239	1	1	NaN	328	6	13	2	121	221	321	NaN	521	0.295396169647574	1	1	NaN	4560754.8583586	NaN	4560755.84174	4560756.35825553
101	21	0	0	90	36.1581920903955	36.241610738255	25	0.833391299471259	2	4	2	NaN	1	3	0.0305027806128239	1	1	NaN	329	6	14	2	121	221	321	NaN	521	0.0104287173599005	1	1	NaN	4560757.4752382	NaN	4560758.4586346	4560758.97518758
101	21	0	0	90	36.1581920903955	36.241610738255	0	0	1	7	2	NaN	2	5	0.0305027806128239	1	1	NaN	330	6	15	2	111	211	311	NaN	511	0.0103945229202509	2	1	NaN	4560759.7921219	NaN	4560760.7755395	4560761.29208578
101	21	0	0	90	36.1581920903955	36.241610738255	13	0.433363475725055	2	10	4	NaN	2	4	0.0305027806128239	1	1	NaN	331	6	16	2	121	221	321	NaN	521	0.0104202320799232	2	1	NaN	4560762.1090531	NaN	4560763.0924279	4560763.60898387
101	21	0	0	90	36.1581920903955	36.241610738255	25	0.833391299471259	2	10	3	NaN	2	5	0.0305027806128239	1	1	NaN	332	6	17	2	121	221	321	NaN	521	0.0104134231805801	2	1	NaN	4560764.425926	NaN	4560765.4093259	4560765.92587478
101	21	0	0	90	36.1581920903955	36.241610738255	7	0.233349563851953	2	5	6	NaN	1	3	0.0305027806128239	1	1	NaN	333	6	18	2	121	221	321	NaN	521	0.498780068941414	1	1	NaN	4560766.7428256	NaN	4560767.726182	4560768.24276533
101	21	0	0	90	36.1581920903955	36.241610738255	10	0.333356519788504	2	9	4	NaN	2	4	0.0305027806128239	1	1	NaN	334	6	19	2	121	221	321	NaN	521	0.210277022793889	1	0	NaN	4560769.5596238	NaN	4560770.5431545	4560771.05970488
101	21	0	0	90	36.1581920903955	36.241610738255	0	0	1	9	3	NaN	2	3	0.0305027806128239	1	1	NaN	335	6	20	2	111	211	311	NaN	511	0.0127338692545891	1	0	NaN	4560772.0933597	NaN	4560773.076748	4560773.59328663
101	21	0	0	90	36.1581920903955	36.241610738255	16	0.533370431661606	2	9	6	NaN	2	3	0.0305027806128239	1	1	NaN	336	6	21	2	121	221	321	NaN	521	0.278675022535026	1	0	NaN	4560774.4268965	NaN	4560775.4102864	4560775.92684688
101	21	0	0	90	36.1581920903955	36.241610738255	8	0.266685215830803	2	1	4	NaN	1	3	0.0305027806128239	1	1	NaN	337	6	22	2	121	221	321	NaN	521	0.190676869824529	2	0	NaN	4560777.0271484	NaN	4560778.0105568	4560778.52710133
101	21	0	0	90	36.1581920903955	36.241610738255	7	0.233349563851953	2	11	2	NaN	2	3	0.0305027806128239	1	1	NaN	338	6	23	2	121	221	321	NaN	521	0.250503122806549	2	1	NaN	4560779.5274156	NaN	4560780.5107886	4560781.02735728
101	21	0	0	90	36.1581920903955	36.241610738255	20	0.666713039577007	2	2	5	NaN	1	5	0.0305027806128239	1	1	NaN	339	6	24	2	121	221	321	NaN	521	0.0104386694729328	1	1	NaN	4560782.0943232	NaN	4560783.0777156	4560783.59426593
101	21	0	0	90	36.1581920903955	36.241610738255	18	0.600041735619307	2	6	1	NaN	1	5	0.0305027806128239	1	1	NaN	340	6	25	2	121	221	321	NaN	521	0.0103935226798058	1	1	NaN	4560784.4278682	NaN	4560785.4112741	4560785.92782708
101	21	0	0	90	36.1581920903955	36.241610738255	6	0.200013911873102	2	11	6	NaN	2	3	0.0305027806128239	1	1	NaN	341	6	26	2	121	221	321	NaN	521	1.6089902697131	2	1	NaN	4560786.7446381	NaN	4560787.7281749	4560788.24472193
101	21	0	0	90	36.1581920903955	36.241610738255	0	0	1	2	6	NaN	1	5	0.0305027806128239	1	1	NaN	342	6	27	2	111	211	311	NaN	511	0.0104264169931412	1	1	NaN	4560790.6618275	NaN	4560791.6452289	4560792.16177418
101	21	0	0	90	36.1581920903955	36.241610738255	19	0.633377387598157	2	4	5	NaN	1	5	0.0305027806128239	1	1	NaN	343	6	28	2	121	221	321	NaN	521	0.0711005702614784	1	1	NaN	4560792.9787478	NaN	4560793.9621207	4560794.47867053
101	21	0	0	90	36.1581920903955	36.241610738255	13	0.433363475725055	2	7	3	NaN	2	3	0.0305027806128239	1	1	NaN	344	6	29	2	121	221	321	NaN	521	0.431468769907951	1	0	NaN	4560795.3621599	NaN	4560796.3457767	4560796.86223693
101	21	0	0	90	36.1581920903955	36.241610738255	19	0.633377387598157	2	4	5	NaN	1	3	0.0305027806128239	1	1	NaN	345	6	30	2	121	221	321	NaN	521	0.601247670128942	1	1	NaN	4560798.1125547	NaN	4560799.0959599	4560799.61251083
101	21	0	0	90	36.1581920903955	36.241610738255	13	0.433363475725055	2	3	6	NaN	1	3	0.0305027806128239	1	1	NaN	346	6	31	2	121	221	321	NaN	521	0.0103891221806407	1	1	NaN	4560801.0295124	NaN	4560802.0129113	4560802.52946098
101	21	0	0	90	36.1581920903955	36.241610738255	18	0.600041735619307	2	6	5	NaN	1	3	0.0305027806128239	1	1	NaN	347	6	32	2	121	221	321	NaN	521	0.311347517184913	1	1	NaN	4560803.3464093	NaN	4560804.3297999	4560804.84635838
101	21	0	0	90	36.1581920903955	36.241610738255	11	0.366692171767354	2	11	1	NaN	2	5	0.0305027806128239	1	1	NaN	348	6	33	2	121	221	321	NaN	521	0.0225649224594235	2	1	NaN	4560805.9634407	NaN	4560806.9467277	4560807.46328288
101	21	0	0	90	36.1581920903955	36.241610738255	20	0.666713039577007	2	6	1	NaN	1	3	0.0305027806128239	1	1	NaN	349	6	34	2	121	221	321	NaN	521	0.0104058701545	1	1	NaN	4560808.2968766	NaN	4560809.2802885	4560809.79684983
101	21	0	0	90	36.1581920903955	36.241610738255	11	0.366692171767354	2	8	2	NaN	2	4	0.0305027806128239	1	1	NaN	350	6	35	2	121	221	321	NaN	521	0.0102854901924729	2	1	NaN	4560810.6138023	NaN	4560811.5971898	4560812.11374001
101	21	0	0	90	36.1581920903955	36.241610738255	21	0.700048691555858	2	9	6	NaN	2	3	0.0305027806128239	1	1	NaN	351	6	36	2	121	221	321	NaN	521	1.10313847009093	2	1	NaN	4560812.9307448	NaN	4560813.9140839	4560814.43062543
101	21	0	0	90	36.1581920903955	36.241610738255	20	0.666713039577007	2	1	5	NaN	1	5	0.0305027806128239	1	1	NaN	352	6	37	2	121	221	321	NaN	521	0.365954422391951	1	1	NaN	4560816.347684	NaN	4560817.3310937	4560817.84763558
101	21	0	0	90	36.1581920903955	36.241610738255	20	0.666713039577007	2	11	6	NaN	2	4	0.0305027806128239	1	1	NaN	353	6	38	2	121	221	321	NaN	521	0.0751168746501207	2	1	NaN	4560819.0146269	NaN	4560819.9980114	4560820.51456243
101	21	0	0	90	36.1581920903955	36.241610738255	23	0.766719995513558	2	8	3	NaN	2	5	0.0305027806128239	1	1	NaN	354	6	39	2	121	221	321	NaN	521	0.123699974268675	2	1	NaN	4560821.3981877	NaN	4560822.3815999	4560822.89813513
101	21	0	0	90	36.1581920903955	36.241610738255	25	0.833391299471259	2	8	4	NaN	2	5	0.0305027806128239	1	1	NaN	355	6	40	2	121	221	321	NaN	521	1.24992336984724	1	0	NaN	4560823.8317431	NaN	4560824.8151492	4560825.33169753
101	21	0	0	90	36.1581920903955	36.241610738255	6	0.200013911873102	2	4	4	NaN	1	3	0.0305027806128239	1	1	NaN	356	6	41	2	121	221	321	NaN	521	0.322956622578204	2	0	NaN	4560827.3987787	NaN	4560828.3821751	4560828.89872108
101	21	0	0	90	36.1581920903955	36.241610738255	9	0.300020867809653	2	2	6	NaN	1	5	0.0305027806128239	1	1	NaN	357	6	42	2	121	221	321	NaN	521	0.0103301322087646	2	0	NaN	4560830.032453	NaN	4560831.015761	4560831.53230677
101	21	0	0	90	36.1581920903955	36.241610738255	10	0.333356519788504	2	11	3	NaN	2	3	0.0305027806128239	1	1	NaN	358	6	43	2	121	221	321	NaN	521	0.188794270157814	2	1	NaN	4560832.349252	NaN	4560833.3326544	4560833.84920873
101	21	0	0	90	36.1581920903955	36.241610738255	19	0.633377387598157	2	1	3	NaN	1	4	0.0305027806128239	1	1	NaN	359	6	44	2	121	221	321	NaN	521	0.304153669625521	2	0	NaN	4560834.849366	NaN	4560835.8328794	4560836.34945113
101	21	0	0	90	36.1581920903955	36.241610738255	8	0.266685215830803	2	10	4	NaN	2	5	0.0305027806128239	1	1	NaN	360	6	45	2	121	221	321	NaN	521	0.0103914225474	1	0	NaN	4560837.4664353	NaN	4560838.4498361	4560838.96637168
101	21	0	0	90	36.1581920903955	36.241610738255	25	0.833391299471259	2	2	2	NaN	1	3	0.0305027806128239	1	1	NaN	361	6	46	2	121	221	321	NaN	521	0.0103738754987717	1	1	NaN	4560839.783262	NaN	4560840.7667195	4560841.28326972
101	21	0	0	90	36.1581920903955	36.241610738255	23	0.766719995513558	2	2	4	NaN	1	4	0.0305027806128239	1	1	NaN	362	6	47	2	121	221	321	NaN	521	0.0694966223090887	2	0	NaN	4560842.1001	NaN	4560843.0836102	4560843.60016338
101	21	0	0	90	36.1581920903955	36.241610738255	23	0.766719995513558	2	6	5	NaN	1	5	0.0305027806128239	1	1	NaN	363	6	48	2	121	221	321	NaN	521	1.54201066959649	2	0	NaN	4560844.4837942	NaN	4560845.4671847	4560845.98372523
101	21	0	0	90	36.1581920903955	36.241610738255	12	0.400027823746204	2	9	1	NaN	2	4	0.0305027806128239	1	1	NaN	364	6	49	2	121	221	321	NaN	521	0.043753569945693	1	0	NaN	4560848.3340272	NaN	4560849.317561	4560849.83411133
101	21	0	0	90	36.1581920903955	36.241610738255	18	0.600041735619307	2	1	2	NaN	1	4	0.0305027806128239	1	1	NaN	365	6	50	2	121	221	321	NaN	521	0.101423769257963	2	0	NaN	4560850.6843067	NaN	4560851.6677906	4560852.18433173
101	21	0	0	90	36.1581920903955	36.241610738255	21	0.700048691555858	2	10	5	NaN	2	3	0.0305027806128239	1	1	NaN	366	6	51	2	121	221	321	NaN	521	0.0103778745979071	1	0	NaN	4560853.1012883	NaN	4560854.0846962	4560854.60124473
101	21	0	0	90	36.1581920903955	36.241610738255	13	0.433363475725055	2	8	1	NaN	2	3	0.0305027806128239	1	1	NaN	367	6	52	2	121	221	321	NaN	521	0.0104186702519655	2	1	NaN	4560855.4348457	NaN	4560856.4182536	4560856.93480203
101	21	0	0	90	36.1581920903955	36.241610738255	18	0.600041735619307	2	11	2	NaN	2	3	0.0305027806128239	1	1	NaN	368	6	53	2	121	221	321	NaN	521	0.0103305317461491	1	0	NaN	4560857.7518238	NaN	4560858.7351548	4560859.25169837
101	21	0	0	90	36.1581920903955	36.241610738255	16	0.533370431661606	2	11	3	NaN	2	3	0.0305027806128239	1	1	NaN	369	6	54	2	121	221	321	NaN	521	0.0104864062741399	1	0	NaN	4560860.0686541	NaN	4560861.0520795	4560861.56859379
101	21	0	0	90	36.1581920903955	36.241610738255	13	0.433363475725055	2	12	6	NaN	2	4	0.0305027806128239	1	1	NaN	370	6	55	2	121	221	321	NaN	521	0.464403169229627	1	0	NaN	4560862.3855496	NaN	4560863.3689352	4560863.88548873
101	21	0	0	90	36.1581920903955	36.241610738255	23	0.766719995513558	2	1	1	NaN	1	3	0.0305027806128239	1	1	NaN	371	6	56	2	121	221	321	NaN	521	0.937423417344689	2	0	NaN	4560865.1523306	NaN	4560866.1359053	4560866.65242168
101	21	0	0	90	36.1581920903955	36.241610738255	18	0.600041735619307	2	11	1	NaN	2	4	0.0305027806128239	1	1	NaN	372	6	57	2	121	221	321	NaN	521	0.376875722780824	2	1	NaN	4560868.7695335	NaN	4560869.7529441	4560870.26944588
101	21	0	0	90	36.1581920903955	36.241610738255	7	0.233349563851953	2	4	1	NaN	1	4	0.0305027806128239	1	1	NaN	373	6	58	2	121	221	321	NaN	521	0.0104095693677664	2	0	NaN	4560871.4530892	NaN	4560872.4364955	4560872.95304153
101	21	0	0	90	36.1581920903955	36.241610738255	14	0.466699127703905	2	12	3	NaN	2	4	0.0305027806128239	1	1	NaN	374	6	59	2	121	221	321	NaN	521	0.216203874908388	1	0	NaN	4560873.7699861	NaN	4560874.7533927	4560875.26994252
101	21	0	0	90	36.1581920903955	36.241610738255	23	0.766719995513558	2	11	4	NaN	2	3	0.0305027806128239	1	1	NaN	375	6	60	2	121	221	321	NaN	521	0.17032536957413	1	0	NaN	4560876.3035619	NaN	4560877.286865	4560877.80351453
101	21	0	0	90	36.1581920903955	36.241610738255	9	0.300020867809653	2	11	3	NaN	2	3	0.0305027806128239	1	1	NaN	376	6	61	2	121	221	321	NaN	521	0.36681146454066	2	1	NaN	4560878.7871571	NaN	4560879.7705546	4560880.28708834
101	21	0	0	90	36.1581920903955	36.241610738255	10	0.333356519788504	2	6	1	NaN	1	4	0.0305027806128239	1	1	NaN	377	6	62	2	121	221	321	NaN	521	0.0103989224880934	1	1	NaN	4560881.4707643	NaN	4560882.4541403	4560882.97069998
101	21	0	0	90	36.1581920903955	36.241610738255	24	0.800055647492409	2	4	6	NaN	1	5	0.0305027806128239	1	1	NaN	378	6	63	2	121	221	321	NaN	521	0.0104247173294425	1	1	NaN	4560883.7876401	NaN	4560884.7710233	4560885.28758878
101	21	0	0	90	36.1581920903955	36.241610738255	9	0.300020867809653	2	8	4	NaN	2	3	0.0305027806128239	1	1	NaN	379	7	1	2	121	221	321	NaN	521	0.0103951226919889	1	0	NaN	4560890.9716567	NaN	4560891.9550764	4560892.47162598
101	21	0	0	90	36.1581920903955	36.241610738255	7	0.233349563851953	2	6	4	NaN	1	4	0.0305027806128239	1	1	NaN	380	7	2	2	121	221	321	NaN	521	0.0104060703888535	1	1	NaN	4560893.2885516	NaN	4560894.2719666	4560894.78851593
101	21	0	0	90	36.1581920903955	36.241610738255	11	0.366692171767354	2	1	6	NaN	1	5	0.0305027806128239	1	1	NaN	381	7	3	2	121	221	321	NaN	521	1.46772034280002	2	0	NaN	4560895.6221446	NaN	4560896.6055425	4560897.12208346
101	21	0	0	90	36.1581920903955	36.241610738255	13	0.433363475725055	2	4	1	NaN	1	5	0.0305027806128239	1	1	NaN	382	7	4	2	121	221	321	NaN	521	0.65220426954329	2	0	NaN	4560899.4058392	NaN	4560900.3892409	4560900.90578453
101	21	0	0	90	36.1581920903955	36.241610738255	15	0.500034779682755	2	2	2	NaN	1	4	0.0305027806128239	1	1	NaN	383	7	5	2	121	221	321	NaN	521	0.749373022466898	1	1	NaN	4560902.3728026	NaN	4560903.3562025	4560903.87274498
101	21	0	0	90	36.1581920903955	36.241610738255	6	0.200013911873102	2	9	5	NaN	2	3	0.0305027806128239	1	1	NaN	384	7	6	2	121	221	321	NaN	521	0.010383621789515	1	0	NaN	4560905.4397554	NaN	4560906.4231488	4560906.93971088
101	21	0	0	90	36.1581920903955	36.241610738255	22	0.733384343534708	2	3	4	NaN	1	3	0.0305027806128239	1	1	NaN	385	7	7	2	121	221	321	NaN	521	12.1806923691183	2	0	NaN	4560907.7733356	NaN	4560908.756731	4560909.27326843
101	21	0	0	90	36.1581920903955	36.241610738255	25	0.833391299471259	2	9	4	NaN	2	3	0.0305027806128239	1	1	NaN	386	7	8	2	121	221	321	NaN	521	0.407073512673378	1	0	NaN	4560922.274745	NaN	4560923.2581413	4560923.77469739
101	21	0	0	90	36.1581920903955	36.241610738255	22	0.733384343534708	2	8	5	NaN	2	5	0.0305027806128239	1	1	NaN	387	7	9	2	121	221	321	NaN	521	0.3460947368294	2	1	NaN	4560924.991681	NaN	4560925.9751945	4560926.49163906
101	21	0	0	90	36.1581920903955	36.241610738255	11	0.366692171767354	2	3	3	NaN	1	3	0.0305027806128239	1	1	NaN	388	7	10	2	121	221	321	NaN	521	0.0553452223539352	1	1	NaN	4560927.658611	NaN	4560928.6420151	4560929.15855458
101	21	0	0	90	36.1581920903955	36.241610738255	23	0.766719995513558	2	6	5	NaN	1	4	0.0305027806128239	1	1	NaN	389	7	11	2	121	221	321	NaN	521	0.176564017310739	2	0	NaN	4560930.0255165	NaN	4560931.0089184	4560931.52545308
101	21	0	0	90	36.1581920903955	36.241610738255	19	0.633377387598157	2	6	3	NaN	1	4	0.0305027806128239	1	1	NaN	390	7	12	2	121	221	321	NaN	521	0.0104114692658186	1	1	NaN	4560932.5090828	NaN	4560933.4925128	4560934.00904083
101	21	0	0	90	36.1581920903955	36.241610738255	16	0.533370431661606	2	2	3	NaN	1	5	0.0305027806128239	1	1	NaN	391	7	13	2	121	221	321	NaN	521	0.0879241228103638	1	1	NaN	4560934.825989	NaN	4560935.8093826	4560936.32592998
101	21	0	0	90	36.1581920903955	36.241610738255	25	0.833391299471259	2	3	5	NaN	1	4	0.0305027806128239	1	1	NaN	392	7	14	2	121	221	321	NaN	521	0.0102763427421451	1	1	NaN	4560937.2261913	NaN	4560938.2096106	4560938.72617546
101	21	0	0	90	36.1581920903955	36.241610738255	16	0.533370431661606	2	6	6	NaN	1	5	0.0305027806128239	1	1	NaN	393	7	15	2	121	221	321	NaN	521	0.498453674837947	1	1	NaN	4560939.5431114	NaN	4560940.5265209	4560941.04306403
101	21	0	0	90	36.1581920903955	36.241610738255	12	0.400027823746204	2	7	2	NaN	2	3	0.0305027806128239	1	1	NaN	394	7	16	2	121	221	321	NaN	521	0.0339871747419238	1	0	NaN	4560942.3600368	NaN	4560943.3434633	4560943.86001103
101	21	0	0	90	36.1581920903955	36.241610738255	6	0.200013911873102	2	1	1	NaN	1	5	0.0305027806128239	1	1	NaN	395	7	17	2	121	221	321	NaN	521	0.010432917624712	1	1	NaN	4560944.7102847	NaN	4560945.6936895	4560946.21023048
101	21	0	0	90	36.1581920903955	36.241610738255	9	0.300020867809653	2	6	4	NaN	1	3	0.0305027806128239	1	1	NaN	396	7	18	2	121	221	321	NaN	521	0.0104170171543956	1	1	NaN	4560947.0271774	NaN	4560948.0105942	4560948.52713288
101	21	0	0	90	36.1581920903955	36.241610738255	0	0	1	11	4	NaN	2	5	0.0305027806128239	1	1	NaN	397	7	19	2	111	211	311	NaN	511	0.0103908227756619	1	0	NaN	4560949.360747	NaN	4560950.3441273	4560950.86069188
101	21	0	0	90	36.1581920903955	36.241610738255	23	0.766719995513558	2	3	1	NaN	1	3	0.0305027806128239	1	1	NaN	398	7	20	2	121	221	321	NaN	521	0.0103596271947026	1	1	NaN	4560951.6776565	NaN	4560952.6610279	4560953.17758077
101	21	0	0	90	36.1581920903955	36.241610738255	7	0.233349563851953	2	7	6	NaN	2	4	0.0305027806128239	1	1	NaN	399	7	21	2	121	221	321	NaN	521	0.0104197170585394	2	1	NaN	4560953.9946069	NaN	4560954.9779344	4560955.49449308
101	21	0	0	90	36.1581920903955	36.241610738255	21	0.700048691555858	2	12	2	NaN	2	3	0.0305027806128239	1	1	NaN	400	7	22	2	121	221	321	NaN	521	1.13038506917655	2	1	NaN	4560956.3113477	NaN	4560957.294731	4560957.81136983
101	21	0	0	90	36.1581920903955	36.241610738255	19	0.633377387598157	2	12	1	NaN	2	3	0.0305027806128239	1	1	NaN	401	7	23	2	121	221	321	NaN	521	0.0103938225656748	2	1	NaN	4560959.7617674	NaN	4560960.7451703	4560961.26171598
101	21	0	0	90	36.1581920903955	36.241610738255	12	0.400027823746204	2	5	2	NaN	1	4	0.0305027806128239	1	1	NaN	402	7	24	2	121	221	321	NaN	521	0.0104096699506044	1	1	NaN	4560962.0953181	NaN	4560963.0787267	4560963.59527743
101	21	0	0	90	36.1581920903955	36.241610738255	11	0.366692171767354	2	6	3	NaN	1	3	0.0305027806128239	1	1	NaN	403	7	25	2	121	221	321	NaN	521	0.0104111693799496	1	1	NaN	4560964.4288954	NaN	4560965.4122904	4560965.92883603
101	21	0	0	90	36.1581920903955	36.241610738255	16	0.533370431661606	2	1	4	NaN	1	3	0.0305027806128239	1	1	NaN	404	7	26	2	121	221	321	NaN	521	0.0104177696630359	1	1	NaN	4560966.7458009	NaN	4560967.7291629	4560968.24572523
101	21	0	0	90	36.1581920903955	36.241610738255	18	0.600041735619307	2	9	2	NaN	2	3	0.0305027806128239	1	1	NaN	405	7	27	2	121	221	321	NaN	521	1.13861246965826	1	0	NaN	4560969.0794364	NaN	4560970.0627654	4560970.57929353
101	21	0	0	90	36.1581920903955	36.241610738255	14	0.466699127703905	2	1	2	NaN	1	4	0.0305027806128239	1	1	NaN	406	7	28	2	121	221	321	NaN	521	0.0104092694818974	2	0	NaN	4560972.5296687	NaN	4560973.5130532	4560974.02962683
101	21	0	0	90	36.1581920903955	36.241610738255	16	0.533370431661606	2	10	6	NaN	2	4	0.0305027806128239	1	1	NaN	407	7	29	2	121	221	321	NaN	521	0.579443323425949	2	1	NaN	4560974.8464457	NaN	4560975.8299935	4560976.34652768
101	21	0	0	90	36.1581920903955	36.241610738255	13	0.433363475725055	2	12	5	NaN	2	4	0.0305027806128239	1	1	NaN	408	7	30	2	121	221	321	NaN	521	0.0103933224454522	2	1	NaN	4560977.7468538	NaN	4560978.7302681	4560979.24681208
101	21	0	0	90	36.1581920903955	36.241610738255	17	0.566706083640456	2	4	6	NaN	1	3	0.0305027806128239	1	1	NaN	409	7	31	2	121	221	321	NaN	521	0.0103881228715181	1	1	NaN	4560980.0636445	NaN	4560981.0471604	4560981.56371108
101	21	0	0	90	36.1581920903955	36.241610738255	11	0.366692171767354	2	11	6	NaN	2	5	0.0305027806128239	1	1	NaN	410	7	32	2	121	221	321	NaN	521	0.010414769873023	2	1	NaN	4560982.6472245	NaN	4560983.6307496	4560984.14729893
101	21	0	0	90	36.1581920903955	36.241610738255	10	0.333356519788504	2	9	3	NaN	2	4	0.0305027806128239	1	1	NaN	411	7	33	2	121	221	321	NaN	521	0.0104371635243297	2	1	NaN	4560984.9642298	NaN	4560985.9476624	4560986.46418654
101	21	0	0	90	36.1581920903955	36.241610738255	24	0.800055647492409	2	12	3	NaN	2	5	0.0305027806128239	1	1	NaN	412	7	34	2	121	221	321	NaN	521	0.113097868859768	2	1	NaN	4560987.2810281	NaN	4560988.2645346	4560988.78107653
101	21	0	0	90	36.1581920903955	36.241610738255	19	0.633377387598157	2	2	4	NaN	1	3	0.0305027806128239	1	1	NaN	413	7	35	2	121	221	321	NaN	521	0.0103945229202509	1	1	NaN	4560989.7147022	NaN	4560990.6981156	4560991.21465508
101	21	0	0	90	36.1581920903955	36.241610738255	21	0.700048691555858	2	2	1	NaN	1	5	0.0305027806128239	1	1	NaN	414	7	36	2	121	221	321	NaN	521	0.0104201696813107	1	1	NaN	4560992.0481329	NaN	4560993.0316716	4560993.54821013
101	21	0	0	90	36.1581920903955	36.241610738255	12	0.400027823746204	2	3	2	NaN	1	4	0.0305027806128239	1	1	NaN	415	7	37	2	121	221	321	NaN	521	1.3721612226218	1	1	NaN	4560994.3817708	NaN	4560995.3652373	4560995.88177588
101	21	0	0	90	36.1581920903955	36.241610738255	19	0.633377387598157	2	1	5	NaN	1	5	0.0305027806128239	1	1	NaN	416	7	38	2	121	221	321	NaN	521	0.0103774750605226	1	1	NaN	4560998.0655278	NaN	4560999.0489198	4560999.56547883
101	21	0	0	90	36.1581920903955	36.241610738255	18	0.600041735619307	2	8	1	NaN	2	4	0.0305027806128239	1	1	NaN	417	7	39	2	121	221	321	NaN	521	0.0103921229019761	1	0	NaN	4561000.3824161	NaN	4561001.3658209	4561001.88236878
101	21	0	0	90	36.1581920903955	36.241610738255	24	0.800055647492409	2	9	3	NaN	2	4	0.0305027806128239	1	1	NaN	418	7	40	2	121	221	321	NaN	521	0.0104073695838451	1	0	NaN	4561002.6991766	NaN	4561003.6827173	4561004.19925813
101	21	0	0	90	36.1581920903955	36.241610738255	14	0.466699127703905	2	9	1	NaN	2	3	0.0305027806128239	1	1	NaN	419	7	41	2	121	221	321	NaN	521	1.46593241766095	2	1	NaN	4561005.0161969	NaN	4561005.9996087	4561006.51615198
101	21	0	0	90	36.1581920903955	36.241610738255	15	0.500034779682755	2	12	3	NaN	2	5	0.0305027806128239	1	1	NaN	420	7	42	2	121	221	321	NaN	521	1.35495016910136	2	1	NaN	4561008.783278	NaN	4561009.766633	4561010.28318683
101	21	0	0	90	36.1581920903955	36.241610738255	18	0.600041735619307	2	8	3	NaN	2	4	0.0305027806128239	1	1	NaN	421	7	43	2	121	221	321	NaN	521	0.559773368760943	1	0	NaN	4561012.4502589	NaN	4561013.4335425	4561013.95021623
101	21	0	0	90	36.1581920903955	36.241610738255	19	0.633377387598157	2	10	5	NaN	2	4	0.0305027806128239	1	1	NaN	422	7	44	2	121	221	321	NaN	521	0.0103795751929283	2	1	NaN	4561015.31721	NaN	4561016.3006239	4561016.81717242
101	21	0	0	90	36.1581920903955	36.241610738255	17	0.566706083640456	2	8	3	NaN	2	3	0.0305027806128239	1	1	NaN	423	7	45	2	121	221	321	NaN	521	0.0103935226798058	1	0	NaN	4561017.6507777	NaN	4561018.6341856	4561019.15072788
101	21	0	0	90	36.1581920903955	36.241610738255	16	0.533370431661606	2	5	6	NaN	1	5	0.0305027806128239	1	1	NaN	424	7	46	2	121	221	321	NaN	521	0.0104043688625097	1	1	NaN	4561019.9675477	NaN	4561020.9510992	4561021.46762193
101	21	0	0	90	36.1581920903955	36.241610738255	15	0.500034779682755	2	4	5	NaN	1	3	0.0305027806128239	1	1	NaN	425	7	47	2	121	221	321	NaN	521	0.0103934230282903	2	0	NaN	4561022.2845803	NaN	4561023.2679711	4561023.78451808
101	21	0	0	90	36.1581920903955	36.241610738255	7	0.233349563851953	2	2	4	NaN	1	5	0.0305027806128239	1	1	NaN	426	7	48	2	121	221	321	NaN	521	0.0103824744001031	1	1	NaN	4561024.6015722	NaN	4561025.5848684	4561026.10141633
101	21	0	0	90	36.1581920903955	36.241610738255	13	0.433363475725055	2	6	1	NaN	1	5	0.0305027806128239	1	1	NaN	427	7	49	2	121	221	321	NaN	521	0.0836957218125463	1	1	NaN	4561026.9183562	NaN	4561027.9017401	4561028.41830688
101	21	0	0	90	36.1581920903955	36.241610738255	10	0.333356519788504	2	5	3	NaN	1	5	0.0305027806128239	1	1	NaN	428	7	50	2	121	221	321	NaN	521	0.0104221692308784	2	0	NaN	4561029.3185848	NaN	4561030.3019901	4561030.81853703
101	21	0	0	90	36.1581920903955	36.241610738255	15	0.500034779682755	2	4	2	NaN	1	5	0.0305027806128239	1	1	NaN	429	7	51	2	121	221	321	NaN	521	0.0104002691805363	1	1	NaN	4561031.6355023	NaN	4561032.6188893	4561033.13544103
101	21	0	0	90	36.1581920903955	36.241610738255	16	0.533370431661606	2	8	5	NaN	2	3	0.0305027806128239	1	1	NaN	430	7	52	2	121	221	321	NaN	521	0.010406069457531	1	0	NaN	4561033.9523247	NaN	4561034.935762	4561035.45232513
101	21	0	0	90	36.1581920903955	36.241610738255	14	0.466699127703905	2	12	4	NaN	2	3	0.0305027806128239	1	1	NaN	431	7	53	2	121	221	321	NaN	521	0.0104087693616748	2	1	NaN	4561036.2859528	NaN	4561037.2693572	4561037.78588923
101	21	0	0	90	36.1581920903955	36.241610738255	0	0	1	12	2	NaN	2	5	0.0305027806128239	1	1	NaN	432	7	54	2	111	211	311	NaN	511	0.0104039693251252	2	1	NaN	4561038.6028572	NaN	4561039.5862364	4561040.10278143
101	21	0	0	90	36.1581920903955	36.241610738255	15	0.500034779682755	2	7	4	NaN	2	3	0.0305027806128239	1	1	NaN	433	7	55	2	121	221	321	NaN	521	0.361958069726825	2	1	NaN	4561040.9363991	NaN	4561041.9198001	4561042.43634553
101	21	0	0	90	36.1581920903955	36.241610738255	13	0.433363475725055	2	9	3	NaN	2	4	0.0305027806128239	1	1	NaN	434	7	56	2	121	221	321	NaN	521	0.0942102689296007	1	0	NaN	4561043.6199949	NaN	4561044.6034025	4561045.11994263
101	21	0	0	90	36.1581920903955	36.241610738255	21	0.700048691555858	2	6	3	NaN	1	5	0.0305027806128239	1	1	NaN	435	7	57	2	121	221	321	NaN	521	0.0103785749524832	1	1	NaN	4561046.0369079	NaN	4561047.0203051	4561047.53685743
101	21	0	0	90	36.1581920903955	36.241610738255	9	0.300020867809653	2	1	6	NaN	1	4	0.0305027806128239	1	1	NaN	436	7	58	2	121	221	321	NaN	521	1.57622356899083	1	1	NaN	4561048.3536459	NaN	4561049.3371971	4561049.85374273
101	21	0	0	90	36.1581920903955	36.241610738255	12	0.400027823746204	2	12	1	NaN	2	5	0.0305027806128239	1	1	NaN	437	7	59	2	121	221	321	NaN	521	0.291815117001534	2	1	NaN	4561052.2541811	NaN	4561053.2375595	4561053.75412168
101	21	0	0	90	36.1581920903955	36.241610738255	15	0.500034779682755	2	12	1	NaN	2	4	0.0305027806128239	1	1	NaN	438	7	60	2	121	221	321	NaN	521	0.124083222821355	1	0	NaN	4561054.8543039	NaN	4561055.8378157	4561056.35438158
101	21	0	0	90	36.1581920903955	36.241610738255	7	0.233349563851953	2	1	3	NaN	1	3	0.0305027806128239	1	1	NaN	439	7	61	2	121	221	321	NaN	521	0.658060675486922	1	1	NaN	4561057.2879277	NaN	4561058.2714061	4561058.78795272
101	21	0	0	90	36.1581920903955	36.241610738255	24	0.800055647492409	2	5	1	NaN	1	3	0.0305027806128239	1	1	NaN	440	7	62	2	121	221	321	NaN	521	0.0103940228000283	2	0	NaN	4561060.2549878	NaN	4561061.238363	4561061.75490998
101	21	0	0	90	36.1581920903955	36.241610738255	6	0.200013911873102	2	3	5	NaN	1	5	0.0305027806128239	1	1	NaN	441	7	63	2	121	221	321	NaN	521	0.0302927894517779	2	0	NaN	4561062.5717731	NaN	4561063.5552586	4561064.07180791
101	21	0	0	90	36.1581920903955	36.241610738255	18	0.600041735619307	2	5	4	NaN	1	3	0.0305027806128239	1	1	NaN	442	8	1	2	121	221	321	NaN	521	0.157796823419631	2	0	NaN	4561067.1724233	NaN	4561068.1557122	4561068.67225548
101	21	0	0	90	36.1581920903955	36.241610738255	8	0.266685215830803	2	5	6	NaN	1	4	0.0305027806128239	1	1	NaN	443	8	2	2	121	221	321	NaN	521	0.0109796226024628	1	1	NaN	4561069.6390867	NaN	4561070.6226161	4561071.13917178
101	21	0	0	90	36.1581920903955	36.241610738255	23	0.766719995513558	2	10	2	NaN	2	3	0.0305027806128239	1	1	NaN	444	8	3	2	121	221	321	NaN	521	1.31768612191081	2	1	NaN	4561071.9727263	NaN	4561072.956183	4561073.47273088
101	21	0	0	90	36.1581920903955	36.241610738255	17	0.566706083640456	2	11	2	NaN	2	5	0.0305027806128239	1	1	NaN	445	8	4	2	121	221	321	NaN	521	0.0102694425731897	2	1	NaN	4561075.6064712	NaN	4561076.5898728	4561077.10643026
101	21	0	0	90	36.1581920903955	36.241610738255	22	0.733384343534708	2	4	4	NaN	1	4	0.0305027806128239	1	1	NaN	446	8	5	2	121	221	321	NaN	521	0.0104340640828013	1	1	NaN	4561077.9233615	NaN	4561078.9068092	4561079.42330904
101	21	0	0	90	36.1581920903955	36.241610738255	17	0.566706083640456	2	10	3	NaN	2	4	0.0305027806128239	1	1	NaN	447	8	6	2	121	221	321	NaN	521	0.0104068266227841	2	1	NaN	4561080.2401335	NaN	4561081.2236459	4561081.74020647
101	21	0	0	90	36.1581920903955	36.241610738255	24	0.800055647492409	2	1	3	NaN	1	3	0.0305027806128239	1	1	NaN	448	8	7	2	121	221	321	NaN	521	0.010276242159307	1	1	NaN	4561082.8070251	NaN	4561083.7904759	4561084.30713346
101	21	0	0	90	36.1581920903955	36.241610738255	11	0.366692171767354	2	10	1	NaN	2	3	0.0305027806128239	1	1	NaN	449	8	8	2	121	221	321	NaN	521	1.27034636959434	1	0	NaN	4561085.1240628	NaN	4561086.1074556	4561086.62401643
101	21	0	0	90	36.1581920903955	36.241610738255	9	0.300020867809653	2	12	5	NaN	2	3	0.0305027806128239	1	1	NaN	450	8	9	2	121	221	321	NaN	521	0.598668422549963	2	1	NaN	4561088.7077612	NaN	4561089.691167	4561090.20771148
101	21	0	0	90	36.1581920903955	36.241610738255	23	0.766719995513558	2	4	1	NaN	1	3	0.0305027806128239	1	1	NaN	451	8	10	2	121	221	321	NaN	521	0.473771168850362	1	1	NaN	4561091.6247304	NaN	4561092.6081111	4561093.12466273
101	21	0	0	90	36.1581920903955	36.241610738255	21	0.700048691555858	2	7	5	NaN	2	4	0.0305027806128239	1	1	NaN	452	8	11	2	121	221	321	NaN	521	0.290157022885978	2	1	NaN	4561094.4083214	NaN	4561095.3917033	4561095.90827158
101	21	0	0	90	36.1581920903955	36.241610738255	20	0.666713039577007	2	8	2	NaN	2	5	0.0305027806128239	1	1	NaN	453	8	12	2	121	221	321	NaN	521	0.0104027697816491	2	1	NaN	4561097.0084505	NaN	4561097.9919744	4561098.50851603
101	21	0	0	90	36.1581920903955	36.241610738255	24	0.800055647492409	2	8	5	NaN	2	4	0.0305027806128239	1	1	NaN	454	8	13	2	121	221	321	NaN	521	0.0103948228061199	2	1	NaN	4561099.3254695	NaN	4561100.3088769	4561100.82541268
101	21	0	0	90	36.1581920903955	36.241610738255	22	0.733384343534708	2	4	6	NaN	1	4	0.0305027806128239	1	1	NaN	455	8	14	2	121	221	321	NaN	521	0.0711334692314267	1	1	NaN	4561101.6590176	NaN	4561102.6424206	4561103.15898113
