subjno	age	gender	isPractice	viewdist	CmToPixX	CmToPixY	SOA_frm	SOA_time	targNum	targID	targExample	targRace	targGender	firstTargPos	contrast	familiarity	curr_staircase	iStair	TrialNum	BlockNum	blktrl	sessionNum	TC_FIXATION	TC_RSVP_START	TC_RSVP_END	TC_BLANK	TC_RESPONSE_ONSET	RT2afc	resp_2afc	acc	RSVPOnsetVBL	RSVPOnsetTime	RSVPOffsetVBL	RSVPOffsetTime	startrt_2afc
87	18	0	0	90	36.1581920903955	36.241610738255	9	0.300029075704515	2	4	4	NaN	1	4	0.0399923138539248	1	1	NaN	1	1	1	2	121	221	321	NaN	521	0.672593679279089	2	0	NaN	4824308.9095124	NaN	4824309.8928463	4824310.42597002
87	18	0	0	90	36.1581920903955	36.241610738255	10	0.333365639671683	2	4	3	NaN	1	4	0.0399923138539248	1	1	NaN	2	1	2	2	121	221	321	NaN	521	0.0112597793340683	1	1	NaN	4824311.9598464	NaN	4824312.9431287	4824313.47628022
87	18	0	0	90	36.1581920903955	36.241610738255	24	0.80007753521204	2	4	2	NaN	1	3	0.0399923138539248	1	1	NaN	3	1	3	2	121	221	321	NaN	521	0.128570286557078	2	0	NaN	4824314.3098988	NaN	4824315.2932519	4824315.80983791
87	18	0	0	90	36.1581920903955	36.241610738255	16	0.533385023474693	2	9	3	NaN	2	3	0.0399923138539248	1	1	NaN	4	1	4	2	121	221	321	NaN	521	0.366163874976337	2	1	NaN	4824316.7600919	NaN	4824317.7435189	4824318.26007533
87	18	0	0	90	36.1581920903955	36.241610738255	8	0.266692511737347	2	9	3	NaN	2	3	0.0399923138539248	1	1	NaN	5	1	5	2	121	221	321	NaN	521	0.0104218758642673	2	1	NaN	4824319.4437247	NaN	4824320.4271315	4824320.94367822
87	18	0	0	90	36.1581920903955	36.241610738255	18	0.60005815140903	2	12	1	NaN	2	5	0.0399923138539248	1	1	NaN	6	1	6	2	121	221	321	NaN	521	0.244170375168324	2	1	NaN	4824321.7940151	NaN	4824322.7773576	4824323.29390302
87	18	0	0	90	36.1581920903955	36.241610738255	11	0.366702203638852	2	1	5	NaN	1	5	0.0399923138539248	1	1	NaN	7	1	7	2	121	221	321	NaN	521	0.181195328012109	1	1	NaN	4824324.3609345	NaN	4824325.3443211	4824325.86082337
87	18	0	0	90	36.1581920903955	36.241610738255	13	0.433375331573188	2	1	3	NaN	1	5	0.0399923138539248	1	1	NaN	8	1	8	2	121	221	321	NaN	521	0.904973475262523	2	0	NaN	4824326.8610608	NaN	4824327.8445184	4824328.36107132
87	18	0	0	90	36.1581920903955	36.241610738255	24	0.80007753521204	2	1	2	NaN	1	4	0.0399923138539248	1	1	NaN	9	1	9	2	121	221	321	NaN	521	0.90438951831311	1	1	NaN	4824330.078192	NaN	4824331.0614903	4824331.57804538
87	18	0	0	90	36.1581920903955	36.241610738255	8	0.266692511737347	2	4	3	NaN	1	4	0.0399923138539248	1	1	NaN	10	1	10	2	121	221	321	NaN	521	0.463375219143927	1	1	NaN	4824333.2950949	NaN	4824334.2784904	4824334.79503188
87	18	0	0	90	36.1581920903955	36.241610738255	9	0.300029075704515	2	8	5	NaN	2	4	0.0399923138539248	1	1	NaN	11	1	11	2	121	221	321	NaN	521	0.455515227280557	2	1	NaN	4824336.0785963	NaN	4824337.0620928	4824337.57864887
87	18	0	0	90	36.1581920903955	36.241610738255	22	0.733404407277703	2	7	3	NaN	2	3	0.0399923138539248	1	1	NaN	12	1	12	2	121	221	321	NaN	521	0.504222775809467	1	0	NaN	4824338.8622961	NaN	4824339.8456859	4824340.36224542
87	18	0	0	90	36.1581920903955	36.241610738255	7	0.233355947770178	2	11	1	NaN	2	3	0.0399923138539248	1	1	NaN	13	1	13	2	121	221	321	NaN	521	0.671211775392294	2	1	NaN	4824341.6792422	NaN	4824342.6626425	4824343.17919722
87	18	0	0	90	36.1581920903955	36.241610738255	24	0.80007753521204	2	5	3	NaN	1	4	0.0399923138539248	1	1	NaN	14	1	14	2	121	221	321	NaN	521	0.630525575019419	1	1	NaN	4824344.6794001	NaN	4824345.6629401	4824346.17948463
87	18	0	0	90	36.1581920903955	36.241610738255	24	0.80007753521204	2	10	5	NaN	2	4	0.0399923138539248	1	1	NaN	15	1	15	2	121	221	321	NaN	521	0.616301327012479	2	1	NaN	4824347.6298335	NaN	4824348.6132282	4824349.12978317
87	18	0	0	90	36.1581920903955	36.241610738255	13	0.433375331573188	2	2	4	NaN	1	3	0.0399923138539248	1	1	NaN	16	1	16	2	121	221	321	NaN	521	0.450950582511723	1	1	NaN	4824350.563438	NaN	4824351.5468507	4824352.06340912
87	18	0	0	90	36.1581920903955	36.241610738255	10	0.333365639671683	2	9	5	NaN	2	3	0.0399923138539248	1	1	NaN	17	1	17	2	121	221	321	NaN	521	0.379478027112782	1	0	NaN	4824353.3303826	NaN	4824354.3138076	4824354.83034217
87	18	0	0	90	36.1581920903955	36.241610738255	10	0.333365639671683	2	8	3	NaN	2	3	0.0399923138539248	1	1	NaN	18	1	18	2	121	221	321	NaN	521	0.44743016269058	2	1	NaN	4824356.0306492	NaN	4824357.014052	4824357.53060294
87	18	0	0	90	36.1581920903955	36.241610738255	17	0.566721587441862	2	10	6	NaN	2	4	0.0399923138539248	1	1	NaN	19	1	19	2	121	221	321	NaN	521	0.624906275421381	1	0	NaN	4824358.7976052	NaN	4824359.7809996	4824360.29754432
87	18	0	0	90	36.1581920903955	36.241610738255	11	0.366702203638852	2	7	3	NaN	2	5	0.0399923138539248	1	1	NaN	20	1	20	2	121	221	321	NaN	521	0.402417727746069	1	0	NaN	4824361.7478987	NaN	4824362.7312842	4824363.24784497
87	18	0	0	90	36.1581920903955	36.241610738255	6	0.20001938380301	2	2	6	NaN	1	5	0.0399923138539248	1	1	NaN	21	1	21	2	121	221	321	NaN	521	0.413269975222647	1	1	NaN	4824364.4648174	NaN	4824365.4482159	4824365.96476892
87	18	0	0	90	36.1581920903955	36.241610738255	17	0.566721587441862	2	4	3	NaN	1	4	0.0399923138539248	1	1	NaN	22	1	22	2	121	221	321	NaN	521	0.408011927269399	1	1	NaN	4824367.1984205	NaN	4824368.1818247	4824368.69837647
87	18	0	0	90	36.1581920903955	36.241610738255	17	0.566721587441862	2	10	1	NaN	2	3	0.0399923138539248	1	1	NaN	23	1	23	2	121	221	321	NaN	521	0.858089275658131	2	1	NaN	4824369.9320223	NaN	4824370.9154292	4824371.43196732
87	18	0	0	90	36.1581920903955	36.241610738255	18	0.60005815140903	2	6	2	NaN	1	4	0.0399923138539248	1	1	NaN	24	1	24	2	121	221	321	NaN	521	0.218844775110483	1	1	NaN	4824373.1156835	NaN	4824374.0990657	4824374.61561282
87	18	0	0	90	36.1581920903955	36.241610738255	19	0.633394715376198	2	5	4	NaN	1	5	0.0399923138539248	1	1	NaN	25	1	25	2	121	221	321	NaN	521	0.0104094753041863	1	1	NaN	4824375.6657903	NaN	4824376.6493964	4824377.16586042
87	18	0	0	90	36.1581920903955	36.241610738255	10	0.333365639671683	2	3	2	NaN	1	4	0.0399923138539248	1	1	NaN	26	1	26	2	121	221	321	NaN	521	0.878988775424659	2	0	NaN	4824377.9995136	NaN	4824378.9828943	4824379.49942632
87	18	0	0	90	36.1581920903955	36.241610738255	6	0.20001938380301	2	3	3	NaN	1	3	0.0399923138539248	1	1	NaN	27	1	27	2	121	221	321	NaN	521	0.870931923389435	1	1	NaN	4824381.1997874	NaN	4824382.1831905	4824382.69974338
87	18	0	0	90	36.1581920903955	36.241610738255	19	0.633394715376198	2	6	2	NaN	1	5	0.0399923138539248	1	1	NaN	28	1	28	2	121	221	321	NaN	521	0.494698274880648	1	1	NaN	4824384.3833204	NaN	4824385.3668292	4824385.88339053
87	18	0	0	90	36.1581920903955	36.241610738255	23	0.766740971244872	2	11	6	NaN	2	4	0.0399923138539248	1	1	NaN	29	1	29	2	121	221	321	NaN	521	0.606225927360356	2	1	NaN	4824387.2003799	NaN	4824388.1837877	4824388.70033827
87	18	0	0	90	36.1581920903955	36.241610738255	22	0.733404407277703	2	12	6	NaN	2	5	0.0399923138539248	1	1	NaN	30	1	30	2	121	221	321	NaN	521	0.01040627527982	1	0	NaN	4824390.1338881	NaN	4824391.1174802	4824391.63395222
87	18	0	0	90	36.1581920903955	36.241610738255	21	0.700067843310535	2	2	4	NaN	1	3	0.0399923138539248	1	1	NaN	31	1	31	2	121	221	321	NaN	521	0.0104123754426837	1	1	NaN	4824392.4675842	NaN	4824393.4509719	4824393.96752352
87	18	0	0	90	36.1581920903955	36.241610738255	7	0.233355947770178	2	11	4	NaN	2	3	0.0399923138539248	1	1	NaN	32	1	32	2	121	221	321	NaN	521	0.189923075027764	2	1	NaN	4824394.7844667	NaN	4824395.7678656	4824396.28441073
87	18	0	0	90	36.1581920903955	36.241610738255	12	0.40003876760602	2	2	6	NaN	1	4	0.0399923138539248	1	1	NaN	33	1	33	2	121	221	321	NaN	521	0.689505623653531	2	0	NaN	4824397.2847015	NaN	4824398.2681269	4824398.78465848
87	18	0	0	90	36.1581920903955	36.241610738255	18	0.60005815140903	2	11	5	NaN	2	3	0.0399923138539248	1	1	NaN	34	1	34	2	121	221	321	NaN	521	0.13658017013222	2	1	NaN	4824400.3015973	NaN	4824401.2850676	4824401.80162463
87	18	0	0	90	36.1581920903955	36.241610738255	12	0.40003876760602	2	1	3	NaN	1	3	0.0399923138539248	1	1	NaN	35	1	35	2	121	221	321	NaN	521	0.462485223077238	1	1	NaN	4824402.7519236	NaN	4824403.7353042	4824404.25186368
87	18	0	0	90	36.1581920903955	36.241610738255	11	0.366702203638852	2	2	4	NaN	1	4	0.0399923138539248	1	1	NaN	36	1	36	2	121	221	321	NaN	521	0.439099474810064	1	1	NaN	4824405.5355281	NaN	4824406.5189204	4824407.03547713
87	18	0	0	90	36.1581920903955	36.241610738255	13	0.433375331573188	2	5	1	NaN	1	5	0.0399923138539248	1	1	NaN	37	1	37	2	121	221	321	NaN	521	0.359636574983597	2	0	NaN	4824408.3024598	NaN	4824409.2858463	4824409.80240873
87	18	0	0	90	36.1581920903955	36.241610738255	8	0.266692511737347	2	1	1	NaN	1	5	0.0399923138539248	1	1	NaN	38	1	38	2	121	221	321	NaN	521	0.212942575104535	2	0	NaN	4824410.9692628	NaN	4824411.9527585	4824412.46933882
87	18	0	0	90	36.1581920903955	36.241610738255	20	0.666731279343367	2	10	4	NaN	2	3	0.0399923138539248	1	1	NaN	39	1	39	2	121	221	321	NaN	521	0.087395423091948	2	1	NaN	4824413.5029764	NaN	4824414.4863774	4824415.00291258
87	18	0	0	90	36.1581920903955	36.241610738255	19	0.633394715376198	2	2	3	NaN	1	5	0.0399923138539248	1	1	NaN	40	1	40	2	121	221	321	NaN	521	0.414969374425709	1	1	NaN	4824415.9032249	NaN	4824416.8866549	4824417.40315823
87	18	0	0	90	36.1581920903955	36.241610738255	12	0.40003876760602	2	5	3	NaN	1	4	0.0399923138539248	1	1	NaN	41	1	41	2	121	221	321	NaN	521	0.473444774746895	1	1	NaN	4824418.6368026	NaN	4824419.6201874	4824420.13675452
87	18	0	0	90	36.1581920903955	36.241610738255	18	0.60005815140903	2	12	1	NaN	2	5	0.0399923138539248	1	1	NaN	42	1	42	2	121	221	321	NaN	521	0.15373647492379	2	1	NaN	4824421.420432	NaN	4824422.4038223	4824422.92036942
87	18	0	0	90	36.1581920903955	36.241610738255	9	0.300029075704515	2	9	3	NaN	2	5	0.0399923138539248	1	1	NaN	43	1	43	2	121	221	321	NaN	521	0.550760274752975	1	0	NaN	4824423.8874076	NaN	4824424.8707379	4824425.38726973
87	18	0	0	90	36.1581920903955	36.241610738255	9	0.300029075704515	2	10	1	NaN	2	4	0.0399923138539248	1	1	NaN	44	1	44	2	121	221	321	NaN	521	0.0104094753041863	2	1	NaN	4824426.754172	NaN	4824427.7376727	4824428.25422372
87	18	0	0	90	36.1581920903955	36.241610738255	14	0.466711895540357	2	5	1	NaN	1	5	0.0399923138539248	1	1	NaN	45	1	45	2	121	221	321	NaN	521	0.0104475701227784	2	0	NaN	4824429.0710382	NaN	4824430.054575	4824430.57111193
87	18	0	0	90	36.1581920903955	36.241610738255	17	0.566721587441862	2	5	5	NaN	1	4	0.0399923138539248	1	1	NaN	46	1	46	2	121	221	321	NaN	521	0.010406575165689	2	0	NaN	4824431.4047359	NaN	4824432.3881611	4824432.90467723
87	18	0	0	90	36.1581920903955	36.241610738255	19	0.633394715376198	2	3	2	NaN	1	5	0.0399923138539248	1	1	NaN	47	1	47	2	121	221	321	NaN	521	0.0104199228808284	1	1	NaN	4824433.7216469	NaN	4824434.7050117	4824435.22156808
87	18	0	0	90	36.1581920903955	36.241610738255	10	0.333365639671683	2	12	5	NaN	2	3	0.0399923138539248	1	1	NaN	48	1	48	2	121	221	321	NaN	521	0.240027875639498	1	0	NaN	4824436.0385549	NaN	4824437.0219192	4824437.53847042
87	18	0	0	90	36.1581920903955	36.241610738255	6	0.20001938380301	2	1	5	NaN	1	4	0.0399923138539248	1	1	NaN	49	1	49	2	121	221	321	NaN	521	0.0173547752201557	1	1	NaN	4824438.5886641	NaN	4824439.5721525	4824440.08871892
87	18	0	0	90	36.1581920903955	36.241610738255	14	0.466711895540357	2	1	4	NaN	1	3	0.0399923138539248	1	1	NaN	50	1	50	2	121	221	321	NaN	521	0.0104104755446315	1	1	NaN	4824440.9222071	NaN	4824441.9057392	4824442.42228542
87	18	0	0	90	36.1581920903955	36.241610738255	10	0.333365639671683	2	9	1	NaN	2	3	0.0399923138539248	1	1	NaN	51	1	51	2	121	221	321	NaN	521	0.0104118753224611	1	0	NaN	4824443.239157	NaN	4824444.2226278	4824444.73917252
87	18	0	0	90	36.1581920903955	36.241610738255	22	0.733404407277703	2	11	3	NaN	2	4	0.0399923138539248	1	1	NaN	52	1	52	2	121	221	321	NaN	521	0.0104542225599289	2	1	NaN	4824445.5727936	NaN	4824446.5561983	4824447.07274058
87	18	0	0	90	36.1581920903955	36.241610738255	23	0.766740971244872	2	9	6	NaN	2	5	0.0399923138539248	1	1	NaN	53	1	53	2	121	221	321	NaN	521	0.0104091754183173	1	0	NaN	4824447.8895817	NaN	4824448.8731715	4824449.38963522
87	18	0	0	90	36.1581920903955	36.241610738255	13	0.433375331573188	2	11	3	NaN	2	3	0.0399923138539248	1	1	NaN	54	1	54	2	121	221	321	NaN	521	0.0103872269392014	1	0	NaN	4824450.2066491	NaN	4824451.1899822	4824451.70652947
87	18	0	0	90	36.1581920903955	36.241610738255	16	0.533385023474693	2	3	4	NaN	1	5	0.0399923138539248	1	1	NaN	55	1	55	2	121	221	321	NaN	521	0.0104477712884545	1	1	NaN	4824452.5234797	NaN	4824453.5068561	4824454.02341883
87	18	0	0	90	36.1581920903955	36.241610738255	23	0.766740971244872	2	7	6	NaN	2	5	0.0399923138539248	1	1	NaN	56	1	56	2	121	221	321	NaN	521	0.0103940274566412	2	1	NaN	4824454.8569163	NaN	4824455.8404315	4824456.35698767
87	18	0	0	90	36.1581920903955	36.241610738255	16	0.533385023474693	2	1	4	NaN	1	4	0.0399923138539248	1	1	NaN	57	1	57	2	121	221	321	NaN	521	0.0104238223284483	1	1	NaN	4824457.1739308	NaN	4824458.1573474	4824458.67388128
87	18	0	0	90	36.1581920903955	36.241610738255	20	0.666731279343367	2	11	3	NaN	2	5	0.0399923138539248	1	1	NaN	58	1	58	2	121	221	321	NaN	521	0.604257075116038	2	1	NaN	4824459.4908122	NaN	4824460.4742349	4824460.99076982
87	18	0	0	90	36.1581920903955	36.241610738255	7	0.233355947770178	2	2	3	NaN	1	4	0.0399923138539248	1	1	NaN	59	1	59	2	121	221	321	NaN	521	0.686725275591016	1	1	NaN	4824462.4077785	NaN	4824463.3911786	4824463.90773072
87	18	0	0	90	36.1581920903955	36.241610738255	16	0.533385023474693	2	7	2	NaN	2	3	0.0399923138539248	1	1	NaN	60	1	60	2	121	221	321	NaN	521	0.0863707754760981	2	1	NaN	4824465.408084	NaN	4824466.3914791	4824466.90801982
87	18	0	0	90	36.1581920903955	36.241610738255	6	0.20001938380301	2	8	5	NaN	2	4	0.0399923138539248	1	1	NaN	61	1	61	2	121	221	321	NaN	521	0.150496470741928	2	1	NaN	4824467.8082988	NaN	4824468.7916888	4824469.30824983
87	18	0	0	90	36.1581920903955	36.241610738255	19	0.633394715376198	2	7	6	NaN	2	4	0.0399923138539248	1	1	NaN	62	1	62	2	121	221	321	NaN	521	0.587129174731672	2	1	NaN	4824470.2750939	NaN	4824471.2586163	4824471.77516402
87	18	0	0	90	36.1581920903955	36.241610738255	14	0.466711895540357	2	2	2	NaN	1	4	0.0399923138539248	1	1	NaN	63	1	63	2	121	221	321	NaN	521	0.62298992741853	1	1	NaN	4824473.1755033	NaN	4824474.1589181	4824474.67545657
87	18	0	0	90	36.1581920903955	36.241610738255	14	0.466711895540357	2	4	6	NaN	1	4	0.0399923138539248	1	1	NaN	64	2	1	2	121	221	321	NaN	521	0.647643227130175	2	0	NaN	4824493.1107715	NaN	4824494.0942024	4824494.61074567
87	18	0	0	90	36.1581920903955	36.241610738255	0	0	1	1	3	NaN	1	3	0.0399923138539248	1	1	NaN	65	2	2	2	111	211	311	NaN	511	0.616715775802732	2	0	NaN	4824496.0777523	NaN	4824497.0611709	4824497.57769682
87	18	0	0	90	36.1581920903955	36.241610738255	17	0.566721587441862	2	7	3	NaN	2	3	0.0399923138539248	1	1	NaN	66	2	3	2	121	221	321	NaN	521	0.0104067279025912	1	0	NaN	4824499.0113862	NaN	4824499.9947853	4824500.51132457
87	18	0	0	90	36.1581920903955	36.241610738255	23	0.766740971244872	2	8	2	NaN	2	3	0.0399923138539248	1	1	NaN	67	2	4	2	121	221	321	NaN	521	0.0104107754305005	1	0	NaN	4824501.3283055	NaN	4824502.3116594	4824502.82821792
87	18	0	0	90	36.1581920903955	36.241610738255	0	0	1	10	3	NaN	2	4	0.0399923138539248	1	1	NaN	68	2	5	2	111	211	311	NaN	511	0.0104245226830244	2	1	NaN	4824503.6618196	NaN	4824504.6452214	4824505.16178188
87	18	0	0	90	36.1581920903955	36.241610738255	10	0.333365639671683	2	2	3	NaN	1	3	0.0399923138539248	1	1	NaN	69	2	6	2	121	221	321	NaN	521	0.0104053756222129	2	0	NaN	4824505.9787235	NaN	4824506.9621355	4824507.47867262
87	18	0	0	90	36.1581920903955	36.241610738255	20	0.666731279343367	2	5	3	NaN	1	3	0.0399923138539248	1	1	NaN	70	2	7	2	121	221	321	NaN	521	0.0104146748781204	1	1	NaN	4824508.2956342	NaN	4824509.2790208	4824509.79556413
87	18	0	0	90	36.1581920903955	36.241610738255	17	0.566721587441862	2	8	5	NaN	2	4	0.0399923138539248	1	1	NaN	71	2	8	2	121	221	321	NaN	521	0.0104330237954855	2	1	NaN	4824510.6291789	NaN	4824511.6124793	4824512.12913248
87	18	0	0	90	36.1581920903955	36.241610738255	6	0.20001938380301	2	5	1	NaN	1	3	0.0399923138539248	1	1	NaN	72	2	9	2	121	221	321	NaN	521	0.0104052750393748	1	1	NaN	4824512.9460683	NaN	4824513.9294789	4824514.44603223
87	18	0	0	90	36.1581920903955	36.241610738255	23	0.766740971244872	2	5	2	NaN	1	4	0.0399923138539248	1	1	NaN	73	2	10	2	121	221	321	NaN	521	0.367564227432013	2	0	NaN	4824515.2629732	NaN	4824516.2463602	4824516.76292027
87	18	0	0	90	36.1581920903955	36.241610738255	15	0.500048459507525	2	6	3	NaN	1	4	0.0399923138539248	1	1	NaN	74	2	11	2	121	221	321	NaN	521	0.660154274664819	1	1	NaN	4824517.9465726	NaN	4824518.9299867	4824519.44651682
87	18	0	0	90	36.1581920903955	36.241610738255	17	0.566721587441862	2	1	3	NaN	1	5	0.0399923138539248	1	1	NaN	75	2	12	2	121	221	321	NaN	521	0.508420375175774	1	1	NaN	4824520.9302059	NaN	4824521.9136171	4824522.43015093
87	18	0	0	90	36.1581920903955	36.241610738255	23	0.766740971244872	2	8	2	NaN	2	5	0.0399923138539248	1	1	NaN	76	2	13	2	121	221	321	NaN	521	0.595159527845681	2	1	NaN	4824523.7471587	NaN	4824524.7305344	4824525.24709297
87	18	0	0	90	36.1581920903955	36.241610738255	18	0.60005815140903	2	2	3	NaN	1	4	0.0399923138539248	1	1	NaN	77	2	14	2	121	221	321	NaN	521	1.06288302689791	1	1	NaN	4824526.6473143	NaN	4824527.6308216	4824528.14737647
87	18	0	0	90	36.1581920903955	36.241610738255	22	0.733404407277703	2	1	4	NaN	1	5	0.0399923138539248	1	1	NaN	78	2	15	2	121	221	321	NaN	521	0.552140074782073	2	0	NaN	4824530.0144232	NaN	4824530.9978233	4824531.51436973
87	18	0	0	90	36.1581920903955	36.241610738255	22	0.733404407277703	2	5	1	NaN	1	4	0.0399923138539248	1	1	NaN	79	2	16	2	121	221	321	NaN	521	0.0104098757728934	1	1	NaN	4824532.8813822	NaN	4824533.864783	4824534.38131692
87	18	0	0	90	36.1581920903955	36.241610738255	15	0.500048459507525	2	7	2	NaN	2	5	0.0399923138539248	1	1	NaN	80	2	17	2	121	221	321	NaN	521	0.0104084750637412	2	1	NaN	4824535.19826	NaN	4824536.1816684	4824536.69821163
87	18	0	0	90	36.1581920903955	36.241610738255	13	0.433375331573188	2	9	4	NaN	2	5	0.0399923138539248	1	1	NaN	81	2	18	2	121	221	321	NaN	521	0.370700774714351	2	1	NaN	4824537.5318327	NaN	4824538.5152113	4824539.03177253
87	18	0	0	90	36.1581920903955	36.241610738255	12	0.40003876760602	2	12	3	NaN	2	3	0.0399923138539248	1	1	NaN	82	2	19	2	121	221	321	NaN	521	0.103014775551856	1	0	NaN	4824540.2153107	NaN	4824541.1988334	4824541.71536812
87	18	0	0	90	36.1581920903955	36.241610738255	23	0.766740971244872	2	3	5	NaN	1	3	0.0399923138539248	1	1	NaN	83	2	20	2	121	221	321	NaN	521	0.0541407745331526	1	1	NaN	4824542.6323916	NaN	4824543.6157214	4824544.13227593
87	18	0	0	90	36.1581920903955	36.241610738255	24	0.80007753521204	2	8	1	NaN	2	3	0.0399923138539248	1	1	NaN	84	2	21	2	121	221	321	NaN	521	0.375454622320831	2	1	NaN	4824544.9992394	NaN	4824545.9825287	4824546.49918118
87	18	0	0	90	36.1581920903955	36.241610738255	11	0.366702203638852	2	8	1	NaN	2	5	0.0399923138539248	1	1	NaN	85	2	22	2	121	221	321	NaN	521	0.0103940274566412	1	0	NaN	4824547.6828112	NaN	4824548.6662251	4824549.18278187
87	18	0	0	90	36.1581920903955	36.241610738255	15	0.500048459507525	2	11	2	NaN	2	5	0.0399923138539248	1	1	NaN	86	2	23	2	121	221	321	NaN	521	0.670734123326838	2	1	NaN	4824549.9996331	NaN	4824550.9831173	4824551.49966128
87	18	0	0	90	36.1581920903955	36.241610738255	25	0.833414099179208	2	9	5	NaN	2	3	0.0399923138539248	1	1	NaN	87	2	24	2	121	221	321	NaN	521	0.446944975294173	2	1	NaN	4824552.9834622	NaN	4824553.9667781	4824554.48330072
87	18	0	0	90	36.1581920903955	36.241610738255	14	0.466711895540357	2	3	3	NaN	1	3	0.0399923138539248	1	1	NaN	88	2	25	2	121	221	321	NaN	521	0.528442823328078	1	1	NaN	4824555.7502856	NaN	4824556.7337111	4824557.25022838
87	18	0	0	90	36.1581920903955	36.241610738255	24	0.80007753521204	2	3	6	NaN	1	3	0.0399923138539248	1	1	NaN	89	2	26	2	121	221	321	NaN	521	0.0104117756709456	1	1	NaN	4824558.6005677	NaN	4824559.5839674	4824560.10051002
87	18	0	0	90	36.1581920903955	36.241610738255	10	0.333365639671683	2	2	1	NaN	1	3	0.0399923138539248	1	1	NaN	90	2	27	2	121	221	321	NaN	521	0.02429642342031	2	0	NaN	4824560.9341307	NaN	4824561.9175339	4824562.43407118
87	18	0	0	90	36.1581920903955	36.241610738255	0	0	1	10	1	NaN	2	3	0.0399923138539248	1	1	NaN	91	2	28	2	111	211	311	NaN	511	0.0104202227666974	1	0	NaN	4824563.2678002	NaN	4824564.2511689	4824564.76763198
87	18	0	0	90	36.1581920903955	36.241610738255	17	0.566721587441862	2	11	4	NaN	2	5	0.0399923138539248	1	1	NaN	92	2	29	2	121	221	321	NaN	521	0.437269222922623	2	1	NaN	4824565.6012541	NaN	4824566.5846442	4824567.10119438
87	18	0	0	90	36.1581920903955	36.241610738255	6	0.20001938380301	2	5	6	NaN	1	3	0.0399923138539248	1	1	NaN	93	2	30	2	121	221	321	NaN	521	0.239103674888611	2	0	NaN	4824568.3515074	NaN	4824569.334922	4824569.85147312
87	18	0	0	90	36.1581920903955	36.241610738255	15	0.500048459507525	2	2	6	NaN	1	3	0.0399923138539248	1	1	NaN	94	2	31	2	121	221	321	NaN	521	0.640544074587524	2	0	NaN	4824570.9017711	NaN	4824571.8851631	4824572.40172233
87	18	0	0	90	36.1581920903955	36.241610738255	6	0.20001938380301	2	6	6	NaN	1	5	0.0399923138539248	1	1	NaN	95	2	32	2	121	221	321	NaN	521	2.06547497492284	1	1	NaN	4824573.8854064	NaN	4824574.868823	4824575.38535433
87	18	0	0	90	36.1581920903955	36.241610738255	17	0.566721587441862	2	1	6	NaN	1	4	0.0399923138539248	1	1	NaN	96	2	33	2	121	221	321	NaN	521	0.153553322888911	1	1	NaN	4824578.2691736	NaN	4824579.2525498	4824579.76910558
87	18	0	0	90	36.1581920903955	36.241610738255	12	0.40003876760602	2	7	6	NaN	2	4	0.0399923138539248	1	1	NaN	97	2	34	2	121	221	321	NaN	521	0.702344275079668	2	1	NaN	4824580.7359429	NaN	4824581.7194713	4824582.23602112
87	18	0	0	90	36.1581920903955	36.241610738255	6	0.20001938380301	2	1	1	NaN	1	3	0.0399923138539248	1	1	NaN	98	2	35	2	121	221	321	NaN	521	0.83753767516464	1	1	NaN	4824583.752955	NaN	4824584.7364292	4824585.25299213
87	18	0	0	90	36.1581920903955	36.241610738255	20	0.666731279343367	2	12	5	NaN	2	4	0.0399923138539248	1	1	NaN	99	2	36	2	121	221	321	NaN	521	0.607453174889088	2	1	NaN	4824586.9033533	NaN	4824587.8866643	4824588.40330143
87	18	0	0	90	36.1581920903955	36.241610738255	17	0.566721587441862	2	12	2	NaN	2	3	0.0399923138539248	1	1	NaN	100	2	37	2	121	221	321	NaN	521	0.410068775527179	1	0	NaN	4824589.8203082	NaN	4824590.8037011	4824591.32025542
87	18	0	0	90	36.1581920903955	36.241610738255	21	0.700067843310535	2	11	2	NaN	2	4	0.0399923138539248	1	1	NaN	101	2	38	2	121	221	321	NaN	521	0.58958647493273	2	1	NaN	4824592.5372255	NaN	4824593.5207099	4824594.03718213
87	18	0	0	90	36.1581920903955	36.241610738255	23	0.766740971244872	2	9	5	NaN	2	4	0.0399923138539248	1	1	NaN	102	2	39	2	121	221	321	NaN	521	0.321040875278413	1	0	NaN	4824595.4375125	NaN	4824596.4209258	4824596.93746992
87	18	0	0	90	36.1581920903955	36.241610738255	18	0.60005815140903	2	4	5	NaN	1	3	0.0399923138539248	1	1	NaN	103	2	40	2	121	221	321	NaN	521	0.010303539223969	1	1	NaN	4824598.0711107	NaN	4824599.0545125	4824599.57107146
87	18	0	0	90	36.1581920903955	36.241610738255	13	0.433375331573188	2	7	4	NaN	2	5	0.0399923138539248	1	1	NaN	104	2	41	2	121	221	321	NaN	521	0.289977722801268	2	1	NaN	4824600.4046731	NaN	4824601.3879726	4824601.90462758
87	18	0	0	90	36.1581920903955	36.241610738255	20	0.666731279343367	2	3	1	NaN	1	4	0.0399923138539248	1	1	NaN	105	2	42	2	121	221	321	NaN	521	0.0103474827483296	1	1	NaN	4824603.0049303	NaN	4824603.9882252	4824604.50487322
87	18	0	0	90	36.1581920903955	36.241610738255	7	0.233355947770178	2	3	6	NaN	1	3	0.0399923138539248	1	1	NaN	106	2	43	2	121	221	321	NaN	521	0.468471791595221	1	1	NaN	4824605.3218168	NaN	4824606.3052255	4824606.82177321
87	18	0	0	90	36.1581920903955	36.241610738255	13	0.433375331573188	2	4	1	NaN	1	5	0.0399923138539248	1	1	NaN	107	2	44	2	121	221	321	NaN	521	0.133485575206578	1	1	NaN	4824608.1054397	NaN	4824609.0888311	4824609.60539472
87	18	0	0	90	36.1581920903955	36.241610738255	24	0.80007753521204	2	8	3	NaN	2	5	0.0399923138539248	1	1	NaN	108	2	45	2	121	221	321	NaN	521	0.010410875082016	1	0	NaN	4824610.5556763	NaN	4824611.5390705	4824612.05561653
87	18	0	0	90	36.1581920903955	36.241610738255	12	0.40003876760602	2	10	2	NaN	2	5	0.0399923138539248	1	1	NaN	109	2	46	2	121	221	321	NaN	521	0.0380637757480145	2	1	NaN	4824612.8725674	NaN	4824613.8559641	4824614.37251292
87	18	0	0	90	36.1581920903955	36.241610738255	19	0.633394715376198	2	2	2	NaN	1	4	0.0399923138539248	1	1	NaN	110	2	47	2	121	221	321	NaN	521	0.0104209752753377	1	1	NaN	4824615.2227903	NaN	4824616.2062068	4824616.72274362
87	18	0	0	90	36.1581920903955	36.241610738255	15	0.500048459507525	2	9	4	NaN	2	3	0.0399923138539248	1	1	NaN	111	2	48	2	121	221	321	NaN	521	0.0104087749496102	1	0	NaN	4824617.5397068	NaN	4824618.523092	4824619.03963633
87	18	0	0	90	36.1581920903955	36.241610738255	0	0	1	9	4	NaN	2	4	0.0399923138539248	1	1	NaN	112	2	49	2	111	211	311	NaN	511	0.0103948274627328	1	0	NaN	4824619.8732648	NaN	4824620.8566567	4824621.37320577
87	18	0	0	90	36.1581920903955	36.241610738255	21	0.700067843310535	2	7	4	NaN	2	4	0.0399923138539248	1	1	NaN	113	2	50	2	121	221	321	NaN	521	0.0104391230270267	2	1	NaN	4824622.1901556	NaN	4824623.1735506	4824623.69009018
87	18	0	0	90	36.1581920903955	36.241610738255	10	0.333365639671683	2	11	3	NaN	2	4	0.0399923138539248	1	1	NaN	114	2	51	2	121	221	321	NaN	521	0.0104450713843107	1	0	NaN	4824624.5069391	NaN	4824625.4904317	4824626.00698723
87	18	0	0	90	36.1581920903955	36.241610738255	8	0.266692511737347	2	4	2	NaN	1	3	0.0399923138539248	1	1	NaN	115	2	52	2	121	221	321	NaN	521	0.534223674796522	1	1	NaN	4824626.8406102	NaN	4824627.824014	4824628.34055693
87	18	0	0	90	36.1581920903955	36.241610738255	10	0.333365639671683	2	7	4	NaN	2	3	0.0399923138539248	1	1	NaN	116	2	53	2	121	221	321	NaN	521	0.0116843748837709	2	1	NaN	4824629.6908942	NaN	4824630.6742884	4824631.19083873
87	18	0	0	90	36.1581920903955	36.241610738255	10	0.333365639671683	2	6	5	NaN	1	5	0.0399923138539248	1	1	NaN	117	2	54	2	121	221	321	NaN	521	0.510886775329709	1	1	NaN	4824632.4078002	NaN	4824633.3912172	4824633.90776552
87	18	0	0	90	36.1581920903955	36.241610738255	0	0	1	6	1	NaN	1	3	0.0399923138539248	1	1	NaN	118	2	55	2	111	211	311	NaN	511	0.142735974863172	2	0	NaN	4824635.6081061	NaN	4824636.5915338	4824637.10807872
87	18	0	0	90	36.1581920903955	36.241610738255	24	0.80007753521204	2	12	3	NaN	2	5	0.0399923138539248	1	1	NaN	119	2	56	2	121	221	321	NaN	521	0.500185622833669	1	0	NaN	4824638.0583887	NaN	4824639.0417755	4824639.55832618
87	18	0	0	90	36.1581920903955	36.241610738255	11	0.366702203638852	2	6	3	NaN	1	3	0.0399923138539248	1	1	NaN	120	2	57	2	121	221	321	NaN	521	0.131571566686034	1	1	NaN	4824640.8753136	NaN	4824641.8587216	4824642.37525853
87	18	0	0	90	36.1581920903955	36.241610738255	7	0.233355947770178	2	12	3	NaN	2	4	0.0399923138539248	1	1	NaN	121	2	58	2	121	221	321	NaN	521	0.704980675131083	2	1	NaN	4824643.3255612	NaN	4824644.3089588	4824644.82551103
87	18	0	0	90	36.1581920903955	36.241610738255	16	0.533385023474693	2	2	4	NaN	1	4	0.0399923138539248	1	1	NaN	122	2	59	2	121	221	321	NaN	521	0.16941502224654	2	0	NaN	4824646.7092056	NaN	4824647.692608	4824648.20916598
87	18	0	0	90	36.1581920903955	36.241610738255	16	0.533385023474693	2	2	5	NaN	1	3	0.0399923138539248	1	1	NaN	123	2	60	2	121	221	321	NaN	521	1.42184209637344	1	1	NaN	4824649.1928092	NaN	4824650.1762036	4824650.692761
87	18	0	0	90	36.1581920903955	36.241610738255	6	0.20001938380301	2	10	5	NaN	2	5	0.0399923138539248	1	1	NaN	124	2	61	2	121	221	321	NaN	521	0.496169975027442	2	1	NaN	4824652.9265083	NaN	4824653.9099043	4824654.42644932
87	18	0	0	90	36.1581920903955	36.241610738255	11	0.366702203638852	2	11	3	NaN	2	3	0.0399923138539248	1	1	NaN	125	2	62	2	121	221	321	NaN	521	1.35937577486038	2	1	NaN	4824655.743453	NaN	4824656.7268322	4824657.24339283
87	18	0	0	90	36.1581920903955	36.241610738255	0	0	1	2	2	NaN	1	3	0.0399923138539248	1	1	NaN	126	2	63	2	111	211	311	NaN	511	0.740213674493134	2	0	NaN	4824659.4104895	NaN	4824660.3938764	4824660.91042713
87	18	0	0	90	36.1581920903955	36.241610738255	7	0.233355947770178	2	1	3	NaN	1	5	0.0399923138539248	1	1	NaN	127	3	1	2	121	221	321	NaN	521	0.643262474797666	2	0	NaN	4824669.8115166	NaN	4824670.7949005	4824671.31144653
87	18	0	0	90	36.1581920903955	36.241610738255	25	0.833414099179208	2	1	5	NaN	1	5	0.0399923138539248	1	1	NaN	128	3	2	2	121	221	321	NaN	521	0.532840434461832	1	1	NaN	4824672.7617957	NaN	4824673.7451783	4824674.26173997
87	18	0	0	90	36.1581920903955	36.241610738255	14	0.466711895540357	2	12	1	NaN	2	3	0.0399923138539248	1	1	NaN	129	3	3	2	121	221	321	NaN	521	0.474684175103903	1	0	NaN	4824675.6121324	NaN	4824676.5954656	4824677.11201402
87	18	0	0	90	36.1581920903955	36.241610738255	6	0.20001938380301	2	9	5	NaN	2	3	0.0399923138539248	1	1	NaN	130	3	4	2	121	221	321	NaN	521	2.02699837554246	1	0	NaN	4824678.3956469	NaN	4824679.3790742	4824679.89562192
87	18	0	0	90	36.1581920903955	36.241610738255	18	0.60005815140903	2	8	3	NaN	2	3	0.0399923138539248	1	1	NaN	131	3	5	2	121	221	321	NaN	521	0.956659775227308	1	0	NaN	4824682.7460921	NaN	4824683.7295017	4824684.24604862
87	18	0	0	90	36.1581920903955	36.241610738255	13	0.433375331573188	2	6	1	NaN	1	3	0.0399923138539248	1	1	NaN	132	3	6	2	121	221	321	NaN	521	0.0104067754000425	1	1	NaN	4824686.0130885	NaN	4824686.9964824	4824687.51303702
87	18	0	0	90	36.1581920903955	36.241610738255	7	0.233355947770178	2	12	6	NaN	2	5	0.0399923138539248	1	1	NaN	133	3	7	2	121	221	321	NaN	521	0.108498175628483	2	1	NaN	4824688.3299814	NaN	4824689.3134264	4824689.82992992
87	18	0	0	90	36.1581920903955	36.241610738255	0	0	1	2	1	NaN	1	4	0.0399923138539248	1	1	NaN	134	3	8	2	111	211	311	NaN	511	0.491664174944162	2	0	NaN	4824690.7468963	NaN	4824691.7302845	4824692.24683192
87	18	0	0	90	36.1581920903955	36.241610738255	17	0.566721587441862	2	5	2	NaN	1	3	0.0399923138539248	1	1	NaN	135	3	9	2	121	221	321	NaN	521	0.539884771220386	2	0	NaN	4824693.5470278	NaN	4824694.5305741	4824695.04710213
87	18	0	0	90	36.1581920903955	36.241610738255	14	0.466711895540357	2	12	2	NaN	2	4	0.0399923138539248	1	1	NaN	136	3	10	2	121	221	321	NaN	521	0.337522875517607	1	0	NaN	4824696.3972987	NaN	4824697.3808539	4824697.89739002
87	18	0	0	90	36.1581920903955	36.241610738255	25	0.833414099179208	2	5	5	NaN	1	5	0.0399923138539248	1	1	NaN	137	3	11	2	121	221	321	NaN	521	0.3273861752823	2	0	NaN	4824699.0477028	NaN	4824700.0311013	4824700.54764882
87	18	0	0	90	36.1581920903955	36.241610738255	20	0.666731279343367	2	12	2	NaN	2	3	0.0399923138539248	1	1	NaN	138	3	12	2	121	221	321	NaN	521	1.10138432309031	1	0	NaN	4824701.6813017	NaN	4824702.6647064	4824703.18124028
87	18	0	0	90	36.1581920903955	36.241610738255	0	0	1	11	1	NaN	2	3	0.0399923138539248	1	1	NaN	139	3	13	2	111	211	311	NaN	511	0.492365539073944	2	1	NaN	4824705.0982835	NaN	4824706.0818035	4824706.59825036
87	18	0	0	90	36.1581920903955	36.241610738255	23	0.766740971244872	2	2	2	NaN	1	5	0.0399923138539248	1	1	NaN	140	3	14	2	121	221	321	NaN	521	0.100317474454641	1	1	NaN	4824707.8984318	NaN	4824708.88196	4824709.39852223
87	18	0	0	90	36.1581920903955	36.241610738255	23	0.766740971244872	2	10	4	NaN	2	5	0.0399923138539248	1	1	NaN	141	3	15	2	121	221	321	NaN	521	0.651069822721183	1	0	NaN	4824710.3154771	NaN	4824711.2988811	4824711.81542698
87	18	0	0	90	36.1581920903955	36.241610738255	20	0.666731279343367	2	8	1	NaN	2	5	0.0399923138539248	1	1	NaN	142	3	16	2	121	221	321	NaN	521	5.10125079192221	2	1	NaN	4824713.6491555	NaN	4824714.6325468	4824715.14909121
87	18	0	0	90	36.1581920903955	36.241610738255	18	0.60005815140903	2	5	1	NaN	1	3	0.0399923138539248	1	1	NaN	143	3	17	2	121	221	321	NaN	521	0.0104229226708412	1	1	NaN	4824721.5332444	NaN	4824722.5166316	4824723.03319058
87	18	0	0	90	36.1581920903955	36.241610738255	13	0.433375331573188	2	2	6	NaN	1	5	0.0399923138539248	1	1	NaN	144	3	18	2	121	221	321	NaN	521	0.190606075339019	1	1	NaN	4824724.0001279	NaN	4824724.9835554	4824725.50010622
87	18	0	0	90	36.1581920903955	36.241610738255	6	0.20001938380301	2	7	5	NaN	2	5	0.0399923138539248	1	1	NaN	145	3	19	2	121	221	321	NaN	521	0.0104095749557018	1	0	NaN	4824726.5002842	NaN	4824727.4838359	4824728.00034382
87	18	0	0	90	36.1581920903955	36.241610738255	24	0.80007753521204	2	11	2	NaN	2	5	0.0399923138539248	1	1	NaN	146	3	20	2	121	221	321	NaN	521	0.197280922904611	2	1	NaN	4824728.8173013	NaN	4824729.8006895	4824730.31724118
87	18	0	0	90	36.1581920903955	36.241610738255	25	0.833414099179208	2	10	5	NaN	2	5	0.0399923138539248	1	1	NaN	147	3	21	2	121	221	321	NaN	521	0.416455574333668	2	1	NaN	4824731.3342053	NaN	4824732.3176056	4824732.83415333
87	18	0	0	90	36.1581920903955	36.241610738255	10	0.333365639671683	2	1	6	NaN	1	5	0.0399923138539248	1	1	NaN	148	3	22	2	121	221	321	NaN	521	0.0103933271020651	1	1	NaN	4824734.0678412	NaN	4824735.0512529	4824735.56776007
87	18	0	0	90	36.1581920903955	36.241610738255	23	0.766740971244872	2	5	4	NaN	1	5	0.0399923138539248	1	1	NaN	149	3	23	2	121	221	321	NaN	521	0.0104049276560545	1	1	NaN	4824736.4013691	NaN	4824737.3847986	4824737.90132817
87	18	0	0	90	36.1581920903955	36.241610738255	15	0.500048459507525	2	10	6	NaN	2	5	0.0399923138539248	1	1	NaN	150	3	24	2	121	221	321	NaN	521	0.799784975126386	1	0	NaN	4824738.7349458	NaN	4824739.7183401	4824740.23488333
87	18	0	0	90	36.1581920903955	36.241610738255	16	0.533385023474693	2	4	4	NaN	1	3	0.0399923138539248	1	1	NaN	151	3	25	2	121	221	321	NaN	521	0.442795326933265	1	1	NaN	4824741.8519133	NaN	4824742.8353112	4824743.35186017
87	18	0	0	90	36.1581920903955	36.241610738255	10	0.333365639671683	2	5	6	NaN	1	4	0.0399923138539248	1	1	NaN	152	3	26	2	121	221	321	NaN	521	0.0104090748354793	1	1	NaN	4824744.6020537	NaN	4824745.5855785	4824746.10213363
87	18	0	0	90	36.1581920903955	36.241610738255	9	0.300029075704515	2	7	1	NaN	2	3	0.0399923138539248	1	1	NaN	153	3	27	2	121	221	321	NaN	521	0.51427367515862	2	1	NaN	4824758.2368691	NaN	4824759.2202622	4824759.73679742
87	18	0	0	90	36.1581920903955	36.241610738255	8	0.266692511737347	2	2	1	NaN	1	4	0.0399923138539248	1	1	NaN	154	3	28	2	121	221	321	NaN	521	0.024296723306179	1	1	NaN	4824761.0703489	NaN	4824762.0538662	4824762.57041188
87	18	0	0	90	36.1581920903955	36.241610738255	22	0.733404407277703	2	9	2	NaN	2	3	0.0399923138539248	1	1	NaN	155	3	29	2	121	221	321	NaN	521	0.0104122748598456	1	0	NaN	4824763.4040313	NaN	4824764.3874315	4824764.90397043
87	18	0	0	90	36.1581920903955	36.241610738255	7	0.233355947770178	2	4	4	NaN	1	5	0.0399923138539248	1	1	NaN	156	3	30	2	121	221	321	NaN	521	0.0104087749496102	2	0	NaN	4824765.7376721	NaN	4824766.7209955	4824767.23754033
87	18	0	0	90	36.1581920903955	36.241610738255	11	0.366702203638852	2	5	3	NaN	1	4	0.0399923138539248	1	1	NaN	157	3	31	2	121	221	321	NaN	521	0.0104224756360054	1	1	NaN	4824768.0544779	NaN	4824769.0378819	4824769.55443192
87	18	0	0	90	36.1581920903955	36.241610738255	18	0.60005815140903	2	3	2	NaN	1	5	0.0399923138539248	1	1	NaN	158	3	32	2	121	221	321	NaN	521	0.0908633796498179	2	0	NaN	4824770.3880332	NaN	4824771.3714198	4824771.88799712
87	18	0	0	90	36.1581920903955	36.241610738255	18	0.60005815140903	2	1	1	NaN	1	4	0.0399923138539248	1	1	NaN	159	3	33	2	121	221	321	NaN	521	0.17817457485944	1	1	NaN	4824772.7883409	NaN	4824773.7716729	4824774.28823122
87	18	0	0	90	36.1581920903955	36.241610738255	21	0.700067843310535	2	6	5	NaN	1	4	0.0399923138539248	1	1	NaN	160	3	34	2	121	221	321	NaN	521	0.0104386229068041	2	0	NaN	4824775.2718639	NaN	4824776.2552543	4824776.77180278
87	18	0	0	90	36.1581920903955	36.241610738255	15	0.500048459507525	2	4	4	NaN	1	3	0.0399923138539248	1	1	NaN	161	3	35	2	121	221	321	NaN	521	0.0104095749557018	2	0	NaN	4824777.5886294	NaN	4824778.572146	4824779.08869642
87	18	0	0	90	36.1581920903955	36.241610738255	0	0	1	5	3	NaN	1	3	0.0399923138539248	1	1	NaN	162	3	36	2	111	211	311	NaN	511	0.0104087749496102	1	1	NaN	4824779.9055566	NaN	4824780.8890475	4824781.40559722
87	18	0	0	90	36.1581920903955	36.241610738255	25	0.833414099179208	2	6	2	NaN	1	3	0.0399923138539248	1	1	NaN	163	3	37	2	121	221	321	NaN	521	0.175572575069964	1	1	NaN	4824782.2392379	NaN	4824783.222619	4824783.73916152
87	18	0	0	90	36.1581920903955	36.241610738255	12	0.40003876760602	2	1	1	NaN	1	3	0.0399923138539248	1	1	NaN	164	3	38	2	121	221	321	NaN	521	0.684281178750098	2	0	NaN	4824784.7227819	NaN	4824785.7061871	4824786.22273562
87	18	0	0	90	36.1581920903955	36.241610738255	24	0.80007753521204	2	6	2	NaN	1	3	0.0399923138539248	1	1	NaN	165	3	39	2	121	221	321	NaN	521	0.988065075129271	1	1	NaN	4824787.7230984	NaN	4824788.7064779	4824789.22302452
87	18	0	0	90	36.1581920903955	36.241610738255	22	0.733404407277703	2	1	2	NaN	1	4	0.0399923138539248	1	1	NaN	166	3	40	2	121	221	321	NaN	521	0.399421374313533	1	1	NaN	4824791.0234091	NaN	4824792.0068371	4824792.52335223
87	18	0	0	90	36.1581920903955	36.241610738255	9	0.300029075704515	2	9	1	NaN	2	5	0.0399923138539248	1	1	NaN	167	3	41	2	121	221	321	NaN	521	0.0738304620608687	1	0	NaN	4824794.1570797	NaN	4824795.1404333	4824795.65698704
87	18	0	0	90	36.1581920903955	36.241610738255	6	0.20001938380301	2	12	1	NaN	2	5	0.0399923138539248	1	1	NaN	168	3	42	2	121	221	321	NaN	521	0.161490526981652	2	1	NaN	4824796.5572842	NaN	4824797.5406755	4824798.05723977
87	18	0	0	90	36.1581920903955	36.241610738255	11	0.366702203638852	2	2	4	NaN	1	5	0.0399923138539248	1	1	NaN	169	3	43	2	121	221	321	NaN	521	0.798913514241576	1	1	NaN	4824799.0242079	NaN	4824800.0075932	4824800.52414279
87	18	0	0	90	36.1581920903955	36.241610738255	6	0.20001938380301	2	9	3	NaN	2	3	0.0399923138539248	1	1	NaN	170	3	44	2	121	221	321	NaN	521	0.54568827431649	2	1	NaN	4824802.1411691	NaN	4824803.1245597	4824803.64111193
87	18	0	0	90	36.1581920903955	36.241610738255	8	0.266692511737347	2	6	5	NaN	1	4	0.0399923138539248	1	1	NaN	171	3	45	2	121	221	321	NaN	521	0.454985674470663	1	1	NaN	4824805.0081201	NaN	4824805.9915179	4824806.50805973
87	18	0	0	90	36.1581920903955	36.241610738255	17	0.566721587441862	2	12	4	NaN	2	3	0.0399923138539248	1	1	NaN	172	3	46	2	121	221	321	NaN	521	0.176023474894464	1	0	NaN	4824807.775067	NaN	4824808.7584487	4824809.27500063
87	18	0	0	90	36.1581920903955	36.241610738255	25	0.833414099179208	2	3	4	NaN	1	3	0.0399923138539248	1	1	NaN	173	3	47	2	121	221	321	NaN	521	0.0104070752859116	2	0	NaN	4824810.2584994	NaN	4824811.2420562	4824811.75857903
87	18	0	0	90	36.1581920903955	36.241610738255	19	0.633394715376198	2	8	5	NaN	2	4	0.0399923138539248	1	1	NaN	174	3	48	2	121	221	321	NaN	521	0.087314123287797	1	0	NaN	4824812.5753903	NaN	4824813.5589271	4824814.07546818
87	18	0	0	90	36.1581920903955	36.241610738255	24	0.80007753521204	2	7	5	NaN	2	5	0.0399923138539248	1	1	NaN	175	3	49	2	121	221	321	NaN	521	0.0104085747152567	1	0	NaN	4824814.9757625	NaN	4824815.9591651	4824816.47570353
87	18	0	0	90	36.1581920903955	36.241610738255	19	0.633394715376198	2	10	4	NaN	2	5	0.0399923138539248	1	1	NaN	176	3	50	2	121	221	321	NaN	521	0.0103777796030045	2	1	NaN	4824817.2925379	NaN	4824818.2760616	4824818.79260832
87	18	0	0	90	36.1581920903955	36.241610738255	24	0.80007753521204	2	6	4	NaN	1	4	0.0399923138539248	1	1	NaN	177	3	51	2	121	221	321	NaN	521	2.69318497553468	2	0	NaN	4824819.609426	NaN	4824820.5929652	4824821.10949402
87	18	0	0	90	36.1581920903955	36.241610738255	19	0.633394715376198	2	5	4	NaN	1	5	0.0399923138539248	1	1	NaN	178	3	52	2	121	221	321	NaN	521	0.388707074336708	1	1	NaN	4824824.6100362	NaN	4824825.5934421	4824826.10998593
87	18	0	0	90	36.1581920903955	36.241610738255	20	0.666731279343367	2	2	2	NaN	1	5	0.0399923138539248	1	1	NaN	179	3	53	2	121	221	321	NaN	521	0.568570175208151	1	1	NaN	4824827.3103033	NaN	4824828.2936991	4824828.81024882
87	18	0	0	90	36.1581920903955	36.241610738255	8	0.266692511737347	2	5	5	NaN	1	3	0.0399923138539248	1	1	NaN	180	3	54	2	121	221	321	NaN	521	0.620967178605497	1	1	NaN	4824830.1937828	NaN	4824831.1772809	4824831.69387752
87	18	0	0	90	36.1581920903955	36.241610738255	6	0.20001938380301	2	11	1	NaN	2	4	0.0399923138539248	1	1	NaN	181	3	55	2	121	221	321	NaN	521	0.511657075025141	2	1	NaN	4824833.1275643	NaN	4824834.1109446	4824834.62748902
87	18	0	0	90	36.1581920903955	36.241610738255	24	0.80007753521204	2	7	6	NaN	2	5	0.0399923138539248	1	1	NaN	182	3	56	2	121	221	321	NaN	521	1.35005517490208	2	1	NaN	4824835.9611975	NaN	4824836.9445531	4824837.46111162
87	18	0	0	90	36.1581920903955	36.241610738255	10	0.333365639671683	2	3	4	NaN	1	3	0.0399923138539248	1	1	NaN	183	3	57	2	121	221	321	NaN	521	0.897921474650502	1	1	NaN	4824840.0447638	NaN	4824841.0282878	4824841.54483563
87	18	0	0	90	36.1581920903955	36.241610738255	13	0.433375331573188	2	8	5	NaN	2	4	0.0399923138539248	1	1	NaN	184	3	58	2	121	221	321	NaN	521	0.0104752667248249	2	1	NaN	4824843.711801	NaN	4824844.6953184	4824845.21185763
87	18	0	0	90	36.1581920903955	36.241610738255	21	0.700067843310535	2	9	2	NaN	2	4	0.0399923138539248	1	1	NaN	185	3	59	2	121	221	321	NaN	521	0.439945323392749	2	1	NaN	4824846.4787667	NaN	4824847.4621544	4824847.97879848
87	18	0	0	90	36.1581920903955	36.241610738255	17	0.566721587441862	2	3	6	NaN	1	4	0.0399923138539248	1	1	NaN	186	3	60	2	121	221	321	NaN	521	0.522114775143564	2	0	NaN	4824849.229128	NaN	4824850.2125355	4824850.72907102
87	18	0	0	90	36.1581920903955	36.241610738255	16	0.533385023474693	2	10	3	NaN	2	5	0.0399923138539248	1	1	NaN	187	3	61	2	121	221	321	NaN	521	0.453752174973488	1	0	NaN	4824852.5294244	NaN	4824853.5128505	4824854.02940603
87	18	0	0	90	36.1581920903955	36.241610738255	23	0.766740971244872	2	12	2	NaN	2	3	0.0399923138539248	1	1	NaN	188	3	62	2	121	221	321	NaN	521	0.390400823205709	1	0	NaN	4824855.296403	NaN	4824856.2797849	4824856.79634018
87	18	0	0	90	36.1581920903955	36.241610738255	10	0.333365639671683	2	8	6	NaN	2	3	0.0399923138539248	1	1	NaN	189	3	63	2	121	221	321	NaN	521	0.0103942276909947	2	1	NaN	4824858.3798952	NaN	4824859.3634364	4824859.87998157
87	18	0	0	90	36.1581920903955	36.241610738255	18	0.60005815140903	2	10	6	NaN	2	4	0.0399923138539248	1	1	NaN	190	4	1	2	121	221	321	NaN	521	0.0104041751474142	2	1	NaN	4824866.6307115	NaN	4824867.6142462	4824868.13079252
87	18	0	0	90	36.1581920903955	36.241610738255	16	0.533385023474693	2	6	1	NaN	1	3	0.0399923138539248	1	1	NaN	191	4	2	2	121	221	321	NaN	521	0.410767535679042	1	1	NaN	4824868.9642843	NaN	4824869.9478019	4824870.46434966
87	18	0	0	90	36.1581920903955	36.241610738255	24	0.80007753521204	2	2	1	NaN	1	3	0.0399923138539248	1	1	NaN	192	4	3	2	121	221	321	NaN	521	0.0104261757805943	1	1	NaN	4824871.6980163	NaN	4824872.6813979	4824873.19795632
87	18	0	0	90	36.1581920903955	36.241610738255	25	0.833414099179208	2	12	4	NaN	2	4	0.0399923138539248	1	1	NaN	193	4	4	2	121	221	321	NaN	521	0.0104106748476624	2	1	NaN	4824874.0315651	NaN	4824875.0149413	4824875.53151842
87	18	0	0	90	36.1581920903955	36.241610738255	19	0.633394715376198	2	3	6	NaN	1	4	0.0399923138539248	1	1	NaN	194	4	5	2	121	221	321	NaN	521	0.010415474884212	1	1	NaN	4824876.365145	NaN	4824877.3485373	4824877.86507312
87	18	0	0	90	36.1581920903955	36.241610738255	22	0.733404407277703	2	8	3	NaN	2	5	0.0399923138539248	1	1	NaN	195	4	6	2	121	221	321	NaN	521	0.0104119749739766	1	0	NaN	4824878.6986897	NaN	4824879.6820995	4824880.19865793
87	18	0	0	90	36.1581920903955	36.241610738255	23	0.766740971244872	2	11	6	NaN	2	5	0.0399923138539248	1	1	NaN	196	4	7	2	121	221	321	NaN	521	0.0393584752455354	2	1	NaN	4824881.0156	NaN	4824881.9989835	4824882.51553052
87	18	0	0	90	36.1581920903955	36.241610738255	12	0.40003876760602	2	9	5	NaN	2	3	0.0399923138539248	1	1	NaN	197	4	8	2	121	221	321	NaN	521	0.377038475126028	1	0	NaN	4824883.3658313	NaN	4824884.3492104	4824884.86576473
87	18	0	0	90	36.1581920903955	36.241610738255	14	0.466711895540357	2	10	3	NaN	2	4	0.0399923138539248	1	1	NaN	198	4	9	2	121	221	321	NaN	521	0.0104033751413226	1	0	NaN	4824886.0659902	NaN	4824887.0493777	4824887.56603372
87	18	0	0	90	36.1581920903955	36.241610738255	15	0.500048459507525	2	12	4	NaN	2	4	0.0399923138539248	1	1	NaN	199	4	10	2	121	221	321	NaN	521	0.231556074693799	2	1	NaN	4824888.5996739	NaN	4824889.5830676	4824890.09961382
87	18	0	0	90	36.1581920903955	36.241610738255	15	0.500048459507525	2	7	4	NaN	2	4	0.0399923138539248	1	1	NaN	200	4	11	2	121	221	321	NaN	521	0.0104060750454664	2	1	NaN	4824891.1499216	NaN	4824892.1333347	4824892.64985953
87	18	0	0	90	36.1581920903955	36.241610738255	13	0.433375331573188	2	10	5	NaN	2	4	0.0399923138539248	1	1	NaN	201	4	12	2	121	221	321	NaN	521	0.172131475061178	2	1	NaN	4824893.466695	NaN	4824894.4502109	4824894.96675252
87	18	0	0	90	36.1581920903955	36.241610738255	16	0.533385023474693	2	6	2	NaN	1	3	0.0399923138539248	1	1	NaN	202	4	13	2	121	221	321	NaN	521	0.0104044750332832	1	1	NaN	4824895.9504182	NaN	4824896.9338186	4824897.45033152
87	18	0	0	90	36.1581920903955	36.241610738255	24	0.80007753521204	2	3	2	NaN	1	3	0.0399923138539248	1	1	NaN	203	4	14	2	121	221	321	NaN	521	0.0104136755689979	2	0	NaN	4824898.2671559	NaN	4824899.2506769	4824899.76722122
87	18	0	0	90	36.1581920903955	36.241610738255	20	0.666731279343367	2	9	3	NaN	2	4	0.0399923138539248	1	1	NaN	204	4	15	2	121	221	321	NaN	521	0.01040627527982	1	0	NaN	4824900.7341469	NaN	4824901.7175998	4824902.23413613
87	18	0	0	90	36.1581920903955	36.241610738255	12	0.40003876760602	2	4	1	NaN	1	5	0.0399923138539248	1	1	NaN	205	4	16	2	121	221	321	NaN	521	0.0104207750409842	2	0	NaN	4824903.0510288	NaN	4824904.0344873	4824904.55103153
87	18	0	0	90	36.1581920903955	36.241610738255	22	0.733404407277703	2	10	6	NaN	2	5	0.0399923138539248	1	1	NaN	206	4	17	2	121	221	321	NaN	521	0.303270527161658	1	0	NaN	4824905.3678437	NaN	4824906.351392	4824906.86793297
87	18	0	0	90	36.1581920903955	36.241610738255	15	0.500048459507525	2	8	6	NaN	2	3	0.0399923138539248	1	1	NaN	207	4	18	2	121	221	321	NaN	521	0.0104079749435186	1	0	NaN	4824907.9848395	NaN	4824908.9683014	4824909.48484783
87	18	0	0	90	36.1581920903955	36.241610738255	8	0.266692511737347	2	12	5	NaN	2	4	0.0399923138539248	1	1	NaN	208	4	19	2	121	221	321	NaN	521	0.0104138748720288	2	1	NaN	4824910.3184702	NaN	4824911.301873	4824911.81840973
87	18	0	0	90	36.1581920903955	36.241610738255	8	0.266692511737347	2	3	5	NaN	1	4	0.0399923138539248	1	1	NaN	209	4	20	2	121	221	321	NaN	521	0.640125975012779	2	0	NaN	4824912.7185711	NaN	4824913.7021004	4824914.21864743
87	18	0	0	90	36.1581920903955	36.241610738255	11	0.366702203638852	2	5	5	NaN	1	5	0.0399923138539248	1	1	NaN	210	4	21	2	121	221	321	NaN	521	0.0104085747152567	2	0	NaN	4824915.6690806	NaN	4824916.6523898	4824917.16893882
87	18	0	0	90	36.1581920903955	36.241610738255	25	0.833414099179208	2	11	5	NaN	2	4	0.0399923138539248	1	1	NaN	211	4	22	2	121	221	321	NaN	521	0.0104375230148435	1	0	NaN	4824917.9858922	NaN	4824918.9692794	4824919.48583168
87	18	0	0	90	36.1581920903955	36.241610738255	15	0.500048459507525	2	2	5	NaN	1	3	0.0399923138539248	1	1	NaN	212	4	23	2	121	221	321	NaN	521	0.692415227182209	1	1	NaN	4824920.8028281	NaN	4824921.7862275	4824922.30277757
87	18	0	0	90	36.1581920903955	36.241610738255	15	0.500048459507525	2	3	2	NaN	1	3	0.0399923138539248	1	1	NaN	213	4	24	2	121	221	321	NaN	521	0.42743022274226	2	0	NaN	4824924.219796	NaN	4824925.2032338	4824925.71977228
87	18	0	0	90	36.1581920903955	36.241610738255	11	0.366702203638852	2	9	2	NaN	2	3	0.0399923138539248	1	1	NaN	214	4	25	2	121	221	321	NaN	521	0.0104202749207616	1	0	NaN	4824927.3534466	NaN	4824928.336871	4824928.85341693
87	18	0	0	90	36.1581920903955	36.241610738255	25	0.833414099179208	2	6	5	NaN	1	3	0.0399923138539248	1	1	NaN	215	4	26	2	121	221	321	NaN	521	0.573106375522912	2	0	NaN	4824931.5537577	NaN	4824932.5372833	4824933.05383082
87	18	0	0	90	36.1581920903955	36.241610738255	19	0.633394715376198	2	4	5	NaN	1	4	0.0399923138539248	1	1	NaN	216	4	27	2	121	221	321	NaN	521	0.361337927170098	1	1	NaN	4824934.4375654	NaN	4824935.420917	4824935.93745647
87	18	0	0	90	36.1581920903955	36.241610738255	25	0.833414099179208	2	2	1	NaN	1	3	0.0399923138539248	1	1	NaN	217	4	28	2	121	221	321	NaN	521	0.0103344349190593	2	0	NaN	4824937.1044288	NaN	4824938.0878384	4824938.60437727
87	18	0	0	90	36.1581920903955	36.241610738255	9	0.300029075704515	2	4	1	NaN	1	5	0.0399923138539248	1	1	NaN	218	4	29	2	121	221	321	NaN	521	0.329246423207223	1	1	NaN	4824939.4380024	NaN	4824940.4213932	4824940.93793498
87	18	0	0	90	36.1581920903955	36.241610738255	13	0.433375331573188	2	9	1	NaN	2	5	0.0399923138539248	1	1	NaN	219	4	30	2	121	221	321	NaN	521	0.0104121752083302	1	0	NaN	4824942.1215911	NaN	4824943.1049809	4824943.62154423
87	18	0	0	90	36.1581920903955	36.241610738255	20	0.666731279343367	2	6	1	NaN	1	3	0.0399923138539248	1	1	NaN	220	4	31	2	121	221	321	NaN	521	2.71202127542347	1	1	NaN	4824944.4551522	NaN	4824945.4385532	4824945.95509532
87	18	0	0	90	36.1581920903955	36.241610738255	18	0.60005815140903	2	11	4	NaN	2	3	0.0399923138539248	1	1	NaN	221	4	32	2	121	221	321	NaN	521	0.373852827586234	2	1	NaN	4824949.4889804	NaN	4824950.4723663	4824950.98892987
87	18	0	0	90	36.1581920903955	36.241610738255	8	0.266692511737347	2	10	6	NaN	2	4	0.0399923138539248	1	1	NaN	222	4	33	2	121	221	321	NaN	521	0.0104069747030735	1	0	NaN	4824952.5391552	NaN	4824953.5226816	4824954.03922313
87	18	0	0	90	36.1581920903955	36.241610738255	15	0.500048459507525	2	1	4	NaN	1	3	0.0399923138539248	1	1	NaN	223	4	34	2	121	221	321	NaN	521	0.390702627599239	1	1	NaN	4824954.8562669	NaN	4824955.8395998	4824956.35612927
87	18	0	0	90	36.1581920903955	36.241610738255	11	0.366702203638852	2	7	2	NaN	2	3	0.0399923138539248	1	1	NaN	224	4	35	2	121	221	321	NaN	521	0.403855739161372	1	0	NaN	4824957.9230886	NaN	4824958.9065407	4824959.42309206
87	18	0	0	90	36.1581920903955	36.241610738255	21	0.700067843310535	2	8	5	NaN	2	5	0.0399923138539248	1	1	NaN	225	4	36	2	121	221	321	NaN	521	0.311161975376308	1	0	NaN	4824960.6399544	NaN	4824961.6235115	4824962.14002322
87	18	0	0	90	36.1581920903955	36.241610738255	17	0.566721587441862	2	4	2	NaN	1	4	0.0399923138539248	1	1	NaN	226	4	37	2	121	221	321	NaN	521	0.533282275311649	1	1	NaN	4824963.2736663	NaN	4824964.2569643	4824964.77361402
87	18	0	0	90	36.1581920903955	36.241610738255	22	0.733404407277703	2	2	1	NaN	1	4	0.0399923138539248	1	1	NaN	227	4	38	2	121	221	321	NaN	521	0.635670427232981	1	1	NaN	4825007.8113922	NaN	4825008.7948004	4825009.31133217
87	18	0	0	90	36.1581920903955	36.241610738255	21	0.700067843310535	2	10	5	NaN	2	4	0.0399923138539248	1	1	NaN	228	4	39	2	121	221	321	NaN	521	0.877786174416542	2	1	NaN	4825010.7616496	NaN	4825011.7450943	4825012.26162243
87	18	0	0	90	36.1581920903955	36.241610738255	7	0.233355947770178	2	10	2	NaN	2	3	0.0399923138539248	1	1	NaN	229	4	40	2	121	221	321	NaN	521	0.45867507532239	2	1	NaN	4825014.4287127	NaN	4825015.4120999	4825015.92863652
87	18	0	0	90	36.1581920903955	36.241610738255	17	0.566721587441862	2	9	6	NaN	2	5	0.0399923138539248	1	1	NaN	230	4	41	2	121	221	321	NaN	521	0.275319543667138	1	0	NaN	4825017.1954971	NaN	4825018.1790233	4825018.69557986
87	18	0	0	90	36.1581920903955	36.241610738255	10	0.333365639671683	2	1	5	NaN	1	3	0.0399923138539248	1	1	NaN	231	4	42	2	121	221	321	NaN	521	0.42717582732439	1	1	NaN	4825019.795888	NaN	4825020.7792956	4825021.29583147
87	18	0	0	90	36.1581920903955	36.241610738255	9	0.300029075704515	2	10	1	NaN	2	3	0.0399923138539248	1	1	NaN	232	4	43	2	121	221	321	NaN	521	0.324906727299094	2	1	NaN	4825022.5461514	NaN	4825023.5295723	4825024.04611247
87	18	0	0	90	36.1581920903955	36.241610738255	11	0.366702203638852	2	12	3	NaN	2	5	0.0399923138539248	1	1	NaN	233	4	44	2	121	221	321	NaN	521	0.243336974643171	2	1	NaN	4825025.1797532	NaN	4825026.1631758	4825026.67970413
87	18	0	0	90	36.1581920903955	36.241610738255	7	0.233355947770178	2	6	6	NaN	1	3	0.0399923138539248	1	1	NaN	234	4	45	2	121	221	321	NaN	521	0.420323174446821	1	1	NaN	4825027.7467652	NaN	4825028.7301225	4825029.24662463
87	18	0	0	90	36.1581920903955	36.241610738255	23	0.766740971244872	2	6	3	NaN	1	4	0.0399923138539248	1	1	NaN	235	4	46	2	121	221	321	NaN	521	0.0104216746985912	1	1	NaN	4825030.4969751	NaN	4825031.4803439	4825031.99688953
87	18	0	0	90	36.1581920903955	36.241610738255	21	0.700067843310535	2	3	3	NaN	1	4	0.0399923138539248	1	1	NaN	236	4	47	2	121	221	321	NaN	521	0.408605814911425	1	1	NaN	4825032.8305434	NaN	4825033.8139058	4825034.33044869
87	18	0	0	90	36.1581920903955	36.241610738255	16	0.533385023474693	2	12	6	NaN	2	5	0.0399923138539248	1	1	NaN	237	4	48	2	121	221	321	NaN	521	0.0498640751466155	2	1	NaN	4825035.9974782	NaN	4825036.9809099	4825037.49744022
87	18	0	0	90	36.1581920903955	36.241610738255	0	0	1	5	6	NaN	1	5	0.0399923138539248	1	1	NaN	238	4	49	2	111	211	311	NaN	511	0.49106437433511	1	1	NaN	4825038.3643769	NaN	4825039.3477702	4825039.86433113
87	18	0	0	90	36.1581920903955	36.241610738255	7	0.233355947770178	2	9	4	NaN	2	3	0.0399923138539248	1	1	NaN	239	4	50	2	121	221	321	NaN	521	0.226017275825143	2	1	NaN	4825041.1813499	NaN	4825042.1647385	4825042.68128102
87	18	0	0	90	36.1581920903955	36.241610738255	22	0.733404407277703	2	10	1	NaN	2	3	0.0399923138539248	1	1	NaN	240	4	51	2	121	221	321	NaN	521	0.0922528430819511	2	1	NaN	4825043.7149212	NaN	4825044.6983186	4825045.21486156
87	18	0	0	90	36.1581920903955	36.241610738255	0	0	1	11	3	NaN	2	3	0.0399923138539248	1	1	NaN	241	4	52	2	111	211	311	NaN	511	0.0102565959095955	2	1	NaN	4825046.1318115	NaN	4825047.1152445	4825047.6317874
87	18	0	0	90	36.1581920903955	36.241610738255	8	0.266692511737347	2	5	1	NaN	1	3	0.0399923138539248	1	1	NaN	242	4	53	2	121	221	321	NaN	521	0.0104512795805931	1	1	NaN	4825048.4485821	NaN	4825049.4321325	4825049.94865262
87	18	0	0	90	36.1581920903955	36.241610738255	19	0.633394715376198	2	4	5	NaN	1	5	0.0399923138539248	1	1	NaN	243	4	54	2	121	221	321	NaN	521	0.552750675007701	1	1	NaN	4825050.782286	NaN	4825051.7656619	4825052.28221842
87	18	0	0	90	36.1581920903955	36.241610738255	16	0.533385023474693	2	3	1	NaN	1	3	0.0399923138539248	1	1	NaN	244	4	55	2	121	221	321	NaN	521	0.57424377463758	1	1	NaN	4825053.6492164	NaN	4825054.6326175	4825055.14916262
87	18	0	0	90	36.1581920903955	36.241610738255	11	0.366702203638852	2	1	6	NaN	1	3	0.0399923138539248	1	1	NaN	245	4	56	2	121	221	321	NaN	521	0.497570475563407	1	1	NaN	4825056.5495217	NaN	4825057.5329343	4825058.04944742
87	18	0	0	90	36.1581920903955	36.241610738255	6	0.20001938380301	2	7	3	NaN	2	4	0.0399923138539248	1	1	NaN	246	4	57	2	121	221	321	NaN	521	0.121093323454261	1	0	NaN	4825059.3664478	NaN	4825060.3498735	4825060.86639108
87	18	0	0	90	36.1581920903955	36.241610738255	17	0.566721587441862	2	6	4	NaN	1	5	0.0399923138539248	1	1	NaN	247	4	58	2	121	221	321	NaN	521	0.0104057751595974	2	0	NaN	4825061.8000132	NaN	4825062.7833352	4825063.29996733
87	18	0	0	90	36.1581920903955	36.241610738255	16	0.533385023474693	2	8	1	NaN	2	3	0.0399923138539248	1	1	NaN	248	4	59	2	121	221	321	NaN	521	0.0104117747396231	1	0	NaN	4825064.1169244	NaN	4825065.100323	4825065.61685942
87	18	0	0	90	36.1581920903955	36.241610738255	21	0.700067843310535	2	4	2	NaN	1	4	0.0399923138539248	1	1	NaN	249	4	60	2	121	221	321	NaN	521	0.189007175154984	1	1	NaN	4825066.4504698	NaN	4825067.4338794	4825067.95042073
87	18	0	0	90	36.1581920903955	36.241610738255	22	0.733404407277703	2	9	4	NaN	2	5	0.0399923138539248	1	1	NaN	250	4	61	2	121	221	321	NaN	521	2.15972457546741	2	1	NaN	4825068.9673141	NaN	4825069.9508183	4825070.46733452
87	18	0	0	90	36.1581920903955	36.241610738255	19	0.633394715376198	2	7	6	NaN	2	5	0.0399923138539248	1	1	NaN	251	4	62	2	121	221	321	NaN	521	0.0281034745275974	2	1	NaN	4825073.4510698	NaN	4825074.4345771	4825074.95111663
87	18	0	0	90	36.1581920903955	36.241610738255	14	0.466711895540357	2	6	3	NaN	1	5	0.0399923138539248	1	1	NaN	252	4	63	2	121	221	321	NaN	521	0.0298242708668113	1	1	NaN	4825075.8013779	NaN	4825076.7847925	4825077.30133443
87	18	0	0	90	36.1581920903955	36.241610738255	19	0.633394715376198	2	12	1	NaN	2	3	0.0399923138539248	1	1	NaN	253	5	1	2	121	221	321	NaN	521	1.48794562369585	2	1	NaN	4825088.3192922	NaN	4825089.3027065	4825089.81924298
87	18	0	0	90	36.1581920903955	36.241610738255	11	0.366702203638852	2	6	3	NaN	1	5	0.0399923138539248	1	1	NaN	254	5	2	2	121	221	321	NaN	521	2.40670482255518	1	1	NaN	4825092.1363315	NaN	4825093.1197492	4825093.63627558
87	18	0	0	90	36.1581920903955	36.241610738255	20	0.666731279343367	2	4	3	NaN	1	3	0.0399923138539248	1	1	NaN	255	5	3	2	121	221	321	NaN	521	0.0331712439656258	1	1	NaN	4825096.8701401	NaN	4825097.8535271	4825098.37007776
87	18	0	0	90	36.1581920903955	36.241610738255	8	0.266692511737347	2	7	3	NaN	2	3	0.0399923138539248	1	1	NaN	256	5	4	2	121	221	321	NaN	521	0.153019275516272	1	0	NaN	4825099.4703998	NaN	4825100.4538149	4825100.97033312
87	18	0	0	90	36.1581920903955	36.241610738255	25	0.833414099179208	2	1	4	NaN	1	5	0.0399923138539248	1	1	NaN	257	5	5	2	121	221	321	NaN	521	0.638124034740031	2	0	NaN	4825101.9373257	NaN	4825102.9207096	4825103.43723876
87	18	0	0	90	36.1581920903955	36.241610738255	16	0.533385023474693	2	8	6	NaN	2	5	0.0399923138539248	1	1	NaN	258	5	6	2	121	221	321	NaN	521	5.41659362334758	2	1	NaN	4825105.8708839	NaN	4825106.854408	4825107.37095808
87	18	0	0	90	36.1581920903955	36.241610738255	20	0.666731279343367	2	4	1	NaN	1	5	0.0399923138539248	1	1	NaN	259	5	7	2	121	221	321	NaN	521	0.42375283036381	2	0	NaN	4825115.6718491	NaN	4825116.6553865	4825117.17193337
87	18	0	0	90	36.1581920903955	36.241610738255	8	0.266692511737347	2	9	5	NaN	2	4	0.0399923138539248	1	1	NaN	260	5	8	2	121	221	321	NaN	521	0.0738436756655574	1	0	NaN	4825118.4055829	NaN	4825119.3889808	4825119.90552642
87	18	0	0	90	36.1581920903955	36.241610738255	11	0.366702203638852	2	12	2	NaN	2	4	0.0399923138539248	1	1	NaN	261	5	9	2	121	221	321	NaN	521	0.354158527217805	2	1	NaN	4825120.7890332	NaN	4825121.7725667	4825122.28910147
87	18	0	0	90	36.1581920903955	36.241610738255	13	0.433375331573188	2	4	5	NaN	1	3	0.0399923138539248	1	1	NaN	262	5	10	2	121	221	321	NaN	521	0.0104781752452254	1	1	NaN	4825123.4727548	NaN	4825124.4561398	4825124.97270053
87	18	0	0	90	36.1581920903955	36.241610738255	16	0.533385023474693	2	12	5	NaN	2	4	0.0399923138539248	1	1	NaN	263	5	11	2	121	221	321	NaN	521	0.368870547041297	2	1	NaN	4825125.8063019	NaN	4825126.7897766	4825127.30627275
87	18	0	0	90	36.1581920903955	36.241610738255	18	0.60005815140903	2	9	6	NaN	2	3	0.0399923138539248	1	1	NaN	264	5	12	2	121	221	321	NaN	521	0.0374869275838137	2	1	NaN	4825128.4899123	NaN	4825129.4733226	4825129.98984907
87	18	0	0	90	36.1581920903955	36.241610738255	15	0.500048459507525	2	4	6	NaN	1	3	0.0399923138539248	1	1	NaN	265	5	13	2	121	221	321	NaN	521	0.0104416711255908	1	1	NaN	4825130.8401383	NaN	4825131.823555	4825132.34007553
87	18	0	0	90	36.1581920903955	36.241610738255	21	0.700067843310535	2	5	2	NaN	1	3	0.0399923138539248	1	1	NaN	266	5	14	2	121	221	321	NaN	521	0.330239723436534	1	1	NaN	4825133.1570908	NaN	4825134.1404477	4825134.65698298
87	18	0	0	90	36.1581920903955	36.241610738255	20	0.666731279343367	2	9	2	NaN	2	5	0.0399923138539248	1	1	NaN	267	5	15	2	121	221	321	NaN	521	0.0102857910096645	2	1	NaN	4825135.807295	NaN	4825136.7907055	4825137.30724331
87	18	0	0	90	36.1581920903955	36.241610738255	11	0.366702203638852	2	4	6	NaN	1	3	0.0399923138539248	1	1	NaN	268	5	16	2	121	221	321	NaN	521	0.042352975346148	1	1	NaN	4825138.1408504	NaN	4825139.1242683	4825139.64080653
87	18	0	0	90	36.1581920903955	36.241610738255	25	0.833414099179208	2	8	6	NaN	2	4	0.0399923138539248	1	1	NaN	269	5	17	2	121	221	321	NaN	521	0.0676126703619957	2	1	NaN	4825140.5077772	NaN	4825141.491209	4825142.00769613
87	18	0	0	90	36.1581920903955	36.241610738255	0	0	1	3	3	NaN	1	3	0.0399923138539248	1	1	NaN	270	5	18	2	111	211	311	NaN	511	0.010411474853754	1	1	NaN	4825143.290942	NaN	4825144.2747842	4825144.79130043
87	18	0	0	90	36.1581920903955	36.241610738255	0	0	1	9	1	NaN	2	5	0.0399923138539248	1	1	NaN	271	5	19	2	111	211	311	NaN	511	0.0103218955919147	2	1	NaN	4825145.62495	NaN	4825146.6083338	4825147.1248828
87	18	0	0	90	36.1581920903955	36.241610738255	11	0.366702203638852	2	4	2	NaN	1	5	0.0399923138539248	1	1	NaN	272	5	20	2	121	221	321	NaN	521	0.010427275672555	2	0	NaN	4825148.1583971	NaN	4825149.1419262	4825149.65845022
87	18	0	0	90	36.1581920903955	36.241610738255	20	0.666731279343367	2	10	3	NaN	2	4	0.0399923138539248	1	1	NaN	273	5	21	2	121	221	321	NaN	521	0.0105093708261847	2	1	NaN	4825150.4920389	NaN	4825151.4754813	4825151.99201093
87	18	0	0	90	36.1581920903955	36.241610738255	9	0.300029075704515	2	6	6	NaN	1	3	0.0399923138539248	1	1	NaN	274	5	22	2	121	221	321	NaN	521	0.205899330787361	1	1	NaN	4825152.8256517	NaN	4825153.8090531	4825154.32557787
87	18	0	0	90	36.1581920903955	36.241610738255	18	0.60005815140903	2	9	4	NaN	2	5	0.0399923138539248	1	1	NaN	275	5	23	2	121	221	321	NaN	521	0.185251323506236	1	0	NaN	4825155.3424328	NaN	4825156.3259589	4825156.84249928
87	18	0	0	90	36.1581920903955	36.241610738255	8	0.266692511737347	2	2	4	NaN	1	5	0.0399923138539248	1	1	NaN	276	5	24	2	121	221	321	NaN	521	0.012495675124228	2	0	NaN	4825157.8428346	NaN	4825158.8261918	4825159.34273782
87	18	0	0	90	36.1581920903955	36.241610738255	16	0.533385023474693	2	11	5	NaN	2	4	0.0399923138539248	1	1	NaN	277	5	25	2	121	221	321	NaN	521	0.0104229236021638	2	1	NaN	4825161.0763615	NaN	4825162.0598539	4825162.57638008
87	18	0	0	90	36.1581920903955	36.241610738255	9	0.300029075704515	2	12	4	NaN	2	3	0.0399923138539248	1	1	NaN	278	5	26	2	121	221	321	NaN	521	0.0104021271690726	1	0	NaN	4825163.4101099	NaN	4825164.3934038	4825164.90995247
87	18	0	0	90	36.1581920903955	36.241610738255	19	0.633394715376198	2	6	4	NaN	1	4	0.0399923138539248	1	1	NaN	279	5	27	2	121	221	321	NaN	521	0.0102849919348955	2	0	NaN	4825165.7435639	NaN	4825166.7269821	4825167.24351391
87	18	0	0	90	36.1581920903955	36.241610738255	17	0.566721587441862	2	9	6	NaN	2	3	0.0399923138539248	1	1	NaN	280	5	28	2	121	221	321	NaN	521	0.0104098748415709	1	0	NaN	4825168.0770634	NaN	4825169.0605544	4825169.57707642
87	18	0	0	90	36.1581920903955	36.241610738255	24	0.80007753521204	2	2	3	NaN	1	3	0.0399923138539248	1	1	NaN	281	5	29	2	121	221	321	NaN	521	0.010488823056221	2	0	NaN	4825170.4107423	NaN	4825171.3940928	4825171.91064358
87	18	0	0	90	36.1581920903955	36.241610738255	12	0.40003876760602	2	10	3	NaN	2	5	0.0399923138539248	1	1	NaN	282	5	30	2	121	221	321	NaN	521	0.199057674966753	2	1	NaN	4825172.7442499	NaN	4825173.7276682	4825174.24422302
87	18	0	0	90	36.1581920903955	36.241610738255	22	0.733404407277703	2	4	5	NaN	1	5	0.0399923138539248	1	1	NaN	283	5	31	2	121	221	321	NaN	521	0.106310322880745	1	1	NaN	4825175.2611787	NaN	4825176.2445781	4825176.76110838
87	18	0	0	90	36.1581920903955	36.241610738255	10	0.333365639671683	2	10	4	NaN	2	3	0.0399923138539248	1	1	NaN	284	5	32	2	121	221	321	NaN	521	0.856281574815512	2	1	NaN	4825177.6947455	NaN	4825178.6781446	4825179.19469253
87	18	0	0	90	36.1581920903955	36.241610738255	14	0.466711895540357	2	5	6	NaN	1	4	0.0399923138539248	1	1	NaN	285	5	33	2	121	221	321	NaN	521	0.88133602309972	1	1	NaN	4825180.8783982	NaN	4825181.8618082	4825182.37833488
87	18	0	0	90	36.1581920903955	36.241610738255	12	0.40003876760602	2	5	3	NaN	1	3	0.0399923138539248	1	1	NaN	286	5	34	2	121	221	321	NaN	521	0.920917375013232	1	1	NaN	4825184.078709	NaN	4825185.0621027	4825185.57864632
87	18	0	0	90	36.1581920903955	36.241610738255	21	0.700067843310535	2	9	6	NaN	2	4	0.0399923138539248	1	1	NaN	287	5	35	2	121	221	321	NaN	521	0.599026475101709	1	0	NaN	4825187.3123951	NaN	4825188.2957669	4825188.81230212
87	18	0	0	90	36.1581920903955	36.241610738255	12	0.40003876760602	2	9	4	NaN	2	4	0.0399923138539248	1	1	NaN	288	5	36	2	121	221	321	NaN	521	0.698160175234079	2	1	NaN	4825190.2291723	NaN	4825191.212722	4825191.72924632
87	18	0	0	90	36.1581920903955	36.241610738255	9	0.300029075704515	2	1	2	NaN	1	3	0.0399923138539248	1	1	NaN	289	5	37	2	121	221	321	NaN	521	1.2883190754801	2	0	NaN	4825193.2630971	NaN	4825194.2463553	4825194.76288932
87	18	0	0	90	36.1581920903955	36.241610738255	8	0.266692511737347	2	7	3	NaN	2	5	0.0399923138539248	1	1	NaN	290	5	38	2	121	221	321	NaN	521	1.40838817507029	2	1	NaN	4825196.8633071	NaN	4825197.8467533	4825198.36323822
87	18	0	0	90	36.1581920903955	36.241610738255	24	0.80007753521204	2	12	2	NaN	2	3	0.0399923138539248	1	1	NaN	291	5	39	2	121	221	321	NaN	521	2.96303377486765	1	0	NaN	4825200.5803612	NaN	4825201.5637605	4825202.08026863
87	18	0	0	90	36.1581920903955	36.241610738255	22	0.733404407277703	2	7	5	NaN	2	5	0.0399923138539248	1	1	NaN	292	5	40	2	121	221	321	NaN	521	0.479512275196612	1	0	NaN	4825205.8642036	NaN	4825206.8475909	4825207.36412222
87	18	0	0	90	36.1581920903955	36.241610738255	9	0.300029075704515	2	3	6	NaN	1	4	0.0399923138539248	1	1	NaN	293	5	41	2	121	221	321	NaN	521	0.959281422197819	1	1	NaN	4825208.6644769	NaN	4825209.6479186	4825210.16439258
87	18	0	0	90	36.1581920903955	36.241610738255	10	0.333365639671683	2	7	1	NaN	2	3	0.0399923138539248	1	1	NaN	294	5	42	2	121	221	321	NaN	521	0.35568327549845	2	1	NaN	4825211.9480016	NaN	4825212.9315196	4825213.44804692
87	18	0	0	90	36.1581920903955	36.241610738255	19	0.633394715376198	2	1	5	NaN	1	5	0.0399923138539248	1	1	NaN	295	5	43	2	121	221	321	NaN	521	0.983705774880946	2	0	NaN	4825214.6317606	NaN	4825215.615118	4825216.13164923
87	18	0	0	90	36.1581920903955	36.241610738255	17	0.566721587441862	2	2	6	NaN	1	4	0.0399923138539248	1	1	NaN	296	5	44	2	121	221	321	NaN	521	0.571749879978597	2	0	NaN	4825217.932048	NaN	4825218.915437	4825219.43197792
87	18	0	0	90	36.1581920903955	36.241610738255	12	0.40003876760602	2	2	1	NaN	1	5	0.0399923138539248	1	1	NaN	297	5	45	2	121	221	321	NaN	521	0.766981614753604	2	0	NaN	4825220.832312	NaN	4825221.815715	4825222.33225849
87	18	0	0	90	36.1581920903955	36.241610738255	6	0.20001938380301	2	8	2	NaN	2	5	0.0399923138539248	1	1	NaN	298	5	46	2	121	221	321	NaN	521	1.78715787548572	1	0	NaN	4825223.9324491	NaN	4825224.9160141	4825225.43256082
87	18	0	0	90	36.1581920903955	36.241610738255	18	0.60005815140903	2	7	5	NaN	2	3	0.0399923138539248	1	1	NaN	299	5	47	2	121	221	321	NaN	521	0.230706326663494	2	1	NaN	4825228.0330422	NaN	4825229.0163212	4825229.53297527
87	18	0	0	90	36.1581920903955	36.241610738255	21	0.700067843310535	2	11	4	NaN	2	4	0.0399923138539248	1	1	NaN	300	5	48	2	121	221	321	NaN	521	1.82799842767417	2	1	NaN	4825230.8831514	NaN	4825231.8667016	4825232.38325737
87	18	0	0	90	36.1581920903955	36.241610738255	20	0.666731279343367	2	8	4	NaN	2	4	0.0399923138539248	1	1	NaN	301	5	49	2	121	221	321	NaN	521	0.54970142710954	2	1	NaN	4825235.0337233	NaN	4825236.0171092	4825236.53365547
87	18	0	0	90	36.1581920903955	36.241610738255	10	0.333365639671683	2	10	1	NaN	2	3	0.0399923138539248	1	1	NaN	302	5	50	2	121	221	321	NaN	521	0.450784775428474	2	1	NaN	4825237.9007209	NaN	4825238.8840854	4825239.40059762
87	18	0	0	90	36.1581920903955	36.241610738255	11	0.366702203638852	2	3	1	NaN	1	4	0.0399923138539248	1	1	NaN	303	5	51	2	121	221	321	NaN	521	0.403829175047576	1	1	NaN	4825240.6676158	NaN	4825241.6510116	4825242.16753932
87	18	0	0	90	36.1581920903955	36.241610738255	17	0.566721587441862	2	11	6	NaN	2	5	0.0399923138539248	1	1	NaN	304	5	52	2	121	221	321	NaN	521	0.0300898747518659	2	1	NaN	4825243.4012116	NaN	4825244.3846121	4825244.90114773
87	18	0	0	90	36.1581920903955	36.241610738255	14	0.466711895540357	2	8	6	NaN	2	3	0.0399923138539248	1	1	NaN	305	5	53	2	121	221	321	NaN	521	0.315358879044652	1	0	NaN	4825246.2681183	NaN	4825247.2515958	4825247.76809372
87	18	0	0	90	36.1581920903955	36.241610738255	21	0.700067843310535	2	10	2	NaN	2	5	0.0399923138539248	1	1	NaN	306	5	54	2	121	221	321	NaN	521	0.010428530164063	2	1	NaN	4825248.9017464	NaN	4825249.8851656	4825250.40168867
87	18	0	0	90	36.1581920903955	36.241610738255	0	0	1	4	3	NaN	1	4	0.0399923138539248	1	1	NaN	307	5	55	2	111	211	311	NaN	511	0.460124023258686	1	1	NaN	4825251.2353044	NaN	4825252.2187088	4825252.73525098
87	18	0	0	90	36.1581920903955	36.241610738255	18	0.60005815140903	2	1	6	NaN	1	3	0.0399923138539248	1	1	NaN	308	5	56	2	121	221	321	NaN	521	0.749533727765083	1	1	NaN	4825254.0022611	NaN	4825254.9856542	4825255.50219107
87	18	0	0	90	36.1581920903955	36.241610738255	25	0.833414099179208	2	3	1	NaN	1	3	0.0399923138539248	1	1	NaN	309	5	57	2	121	221	321	NaN	521	0.49803012330085	1	1	NaN	4825257.0691914	NaN	4825258.0526133	4825258.56915688
87	18	0	0	90	36.1581920903955	36.241610738255	7	0.233355947770178	2	8	2	NaN	2	3	0.0399923138539248	1	1	NaN	310	5	58	2	121	221	321	NaN	521	0.0103946272283792	2	1	NaN	4825259.8861553	NaN	4825260.8695918	4825261.38609567
87	18	0	0	90	36.1581920903955	36.241610738255	16	0.533385023474693	2	1	2	NaN	1	4	0.0399923138539248	1	1	NaN	311	5	59	2	121	221	321	NaN	521	0.156831474974751	1	1	NaN	4825262.203068	NaN	4825263.186462	4825263.70298493
87	18	0	0	90	36.1581920903955	36.241610738255	9	0.300029075704515	2	5	5	NaN	1	3	0.0399923138539248	1	1	NaN	312	5	60	2	121	221	321	NaN	521	0.123418679460883	1	1	NaN	4825265.8200572	NaN	4825266.803496	4825267.32004362
87	18	0	0	90	36.1581920903955	36.241610738255	17	0.566721587441862	2	2	5	NaN	1	3	0.0399923138539248	1	1	NaN	313	5	61	2	121	221	321	NaN	521	0.0131317749619484	1	1	NaN	4825268.7703505	NaN	4825269.7537691	4825270.27030142
87	18	0	0	90	36.1581920903955	36.241610738255	25	0.833414099179208	2	4	2	NaN	1	5	0.0399923138539248	1	1	NaN	314	5	62	2	121	221	321	NaN	521	0.323238538578153	2	0	NaN	4825271.2205686	NaN	4825272.2039994	4825272.72055386
87	18	0	0	90	36.1581920903955	36.241610738255	13	0.433375331573188	2	1	5	NaN	1	3	0.0399923138539248	1	1	NaN	315	5	63	2	121	221	321	NaN	521	0.394883722998202	1	1	NaN	4825274.4208976	NaN	4825275.4043653	4825275.92085298
87	18	0	0	90	36.1581920903955	36.241610738255	15	0.500048459507525	2	3	4	NaN	1	5	0.0399923138539248	1	1	NaN	316	6	1	2	121	221	321	NaN	521	0.788784074597061	2	0	NaN	4825286.3387575	NaN	4825287.3221635	4825287.83869443
87	18	0	0	90	36.1581920903955	36.241610738255	21	0.700067843310535	2	3	5	NaN	1	5	0.0399923138539248	1	1	NaN	317	6	2	2	121	221	321	NaN	521	1.84809522330761	2	0	NaN	4825289.455726	NaN	4825290.4391407	4825290.95567588
87	18	0	0	90	36.1581920903955	36.241610738255	20	0.666731279343367	2	7	1	NaN	2	5	0.0399923138539248	1	1	NaN	318	6	3	2	121	221	321	NaN	521	0.68064037989825	1	0	NaN	4825293.6228183	NaN	4825294.6062002	4825295.12275272
87	18	0	0	90	36.1581920903955	36.241610738255	6	0.20001938380301	2	3	3	NaN	1	3	0.0399923138539248	1	1	NaN	319	6	4	2	121	221	321	NaN	521	0.624793030321598	1	1	NaN	4825296.6229424	NaN	4825297.6064885	4825298.12304307
87	18	0	0	90	36.1581920903955	36.241610738255	14	0.466711895540357	2	7	2	NaN	2	5	0.0399923138539248	1	1	NaN	320	6	5	2	121	221	321	NaN	521	0.0104170748963952	2	1	NaN	4825299.5567341	NaN	4825300.5401354	4825301.05666513
87	18	0	0	90	36.1581920903955	36.241610738255	16	0.533385023474693	2	5	6	NaN	1	4	0.0399923138539248	1	1	NaN	321	6	6	2	121	221	321	NaN	521	0.108903775922954	1	1	NaN	4825301.8901336	NaN	4825302.8737123	4825303.39022272
87	18	0	0	90	36.1581920903955	36.241610738255	14	0.466711895540357	2	6	6	NaN	1	3	0.0399923138539248	1	1	NaN	322	6	7	2	121	221	321	NaN	521	0.251724422909319	1	1	NaN	4825304.3238753	NaN	4825305.3072845	4825305.82379008
87	18	0	0	90	36.1581920903955	36.241610738255	24	0.80007753521204	2	5	4	NaN	1	5	0.0399923138539248	1	1	NaN	323	6	8	2	121	221	321	NaN	521	0.0104069747030735	1	1	NaN	4825306.8907924	NaN	4825307.8741831	4825308.39071673
87	18	0	0	90	36.1581920903955	36.241610738255	12	0.40003876760602	2	7	4	NaN	2	3	0.0399923138539248	1	1	NaN	324	6	9	2	121	221	321	NaN	521	0.0950473267585039	2	1	NaN	4825309.2243383	NaN	4825310.2076921	4825310.72430077
87	18	0	0	90	36.1581920903955	36.241610738255	13	0.433375331573188	2	5	5	NaN	1	4	0.0399923138539248	1	1	NaN	325	6	10	2	121	221	321	NaN	521	0.390569027513266	1	1	NaN	4825311.641248	NaN	4825312.6246533	4825313.14117987
87	18	0	0	90	36.1581920903955	36.241610738255	12	0.40003876760602	2	4	6	NaN	1	4	0.0399923138539248	1	1	NaN	326	6	11	2	121	221	321	NaN	521	0.0103687392547727	1	1	NaN	4825314.3581907	NaN	4825315.3415786	4825315.85812486
87	18	0	0	90	36.1581920903955	36.241610738255	11	0.366702203638852	2	10	2	NaN	2	4	0.0399923138539248	1	1	NaN	327	6	12	2	121	221	321	NaN	521	0.387950186617672	2	1	NaN	4825316.6917581	NaN	4825317.6751569	4825318.19168061
87	18	0	0	90	36.1581920903955	36.241610738255	14	0.466711895540357	2	1	1	NaN	1	4	0.0399923138539248	1	1	NaN	328	6	13	2	121	221	321	NaN	521	0.166908418759704	1	1	NaN	4825319.4086542	NaN	4825320.3921349	4825320.90861618
87	18	0	0	90	36.1581920903955	36.241610738255	6	0.20001938380301	2	11	4	NaN	2	3	0.0399923138539248	1	1	NaN	329	6	14	2	121	221	321	NaN	521	0.0433876272290945	2	1	NaN	4825321.892257	NaN	4825322.8756364	4825323.39218287
87	18	0	0	90	36.1581920903955	36.241610738255	23	0.766740971244872	2	12	1	NaN	2	3	0.0399923138539248	1	1	NaN	330	6	15	2	121	221	321	NaN	521	0.0104234237223864	1	0	NaN	4825324.2590439	NaN	4825325.2425566	4825325.75908088
87	18	0	0	90	36.1581920903955	36.241610738255	12	0.40003876760602	2	11	1	NaN	2	3	0.0399923138539248	1	1	NaN	331	6	16	2	121	221	321	NaN	521	0.506181191653013	2	1	NaN	4825326.9087282	NaN	4825327.8928117	4825328.40935121
87	18	0	0	90	36.1581920903955	36.241610738255	16	0.533385023474693	2	4	1	NaN	1	4	0.0399923138539248	1	1	NaN	332	6	17	2	121	221	321	NaN	521	0.0104088746011257	1	1	NaN	4825329.7430119	NaN	4825330.7264415	4825331.24295533
87	18	0	0	90	36.1581920903955	36.241610738255	23	0.766740971244872	2	3	1	NaN	1	4	0.0399923138539248	1	1	NaN	333	6	18	2	121	221	321	NaN	521	0.411309074610472	2	0	NaN	4825332.0765696	NaN	4825333.0600061	4825333.57652633
87	18	0	0	90	36.1581920903955	36.241610738255	19	0.633394715376198	2	9	1	NaN	2	4	0.0399923138539248	1	1	NaN	334	6	19	2	121	221	321	NaN	521	1.1017624232918	2	1	NaN	4825334.8101763	NaN	4825335.7935969	4825336.31012568
87	18	0	0	90	36.1581920903955	36.241610738255	6	0.20001938380301	2	10	5	NaN	2	3	0.0399923138539248	1	1	NaN	335	6	20	2	121	221	321	NaN	521	0.476738374680281	2	1	NaN	4825338.4271929	NaN	4825339.4106232	4825339.92715263
87	18	0	0	90	36.1581920903955	36.241610738255	25	0.833414099179208	2	2	2	NaN	1	3	0.0399923138539248	1	1	NaN	336	6	21	2	121	221	321	NaN	521	0.220185282640159	1	1	NaN	4825341.2274784	NaN	4825342.2108796	4825342.72742662
87	18	0	0	90	36.1581920903955	36.241610738255	20	0.666731279343367	2	7	2	NaN	2	4	0.0399923138539248	1	1	NaN	337	6	22	2	121	221	321	NaN	521	0.126474430784583	1	0	NaN	4825343.7611025	NaN	4825344.7444876	4825345.26100637
87	18	0	0	90	36.1581920903955	36.241610738255	22	0.733404407277703	2	8	1	NaN	2	5	0.0399923138539248	1	1	NaN	338	6	23	2	121	221	321	NaN	521	0.0128497751429677	2	1	NaN	4825346.1946562	NaN	4825347.1780384	4825347.69458672
87	18	0	0	90	36.1581920903955	36.241610738255	21	0.700067843310535	2	8	3	NaN	2	5	0.0399923138539248	1	1	NaN	339	6	24	2	121	221	321	NaN	521	0.010392727330327	2	1	NaN	4825348.5282119	NaN	4825349.5115879	4825350.02813767
87	18	0	0	90	36.1581920903955	36.241610738255	25	0.833414099179208	2	9	1	NaN	2	3	0.0399923138539248	1	1	NaN	340	6	25	2	121	221	321	NaN	521	0.809822275303304	1	0	NaN	4825350.8617346	NaN	4825351.8451813	4825352.36170562
87	18	0	0	90	36.1581920903955	36.241610738255	22	0.733404407277703	2	2	5	NaN	1	5	0.0399923138539248	1	1	NaN	341	6	26	2	121	221	321	NaN	521	0.644189023412764	1	1	NaN	4825353.9954078	NaN	4825354.9788124	4825355.49534128
87	18	0	0	90	36.1581920903955	36.241610738255	0	0	1	12	4	NaN	2	3	0.0399923138539248	1	1	NaN	342	6	27	2	111	211	311	NaN	511	0.773061770945787	2	1	NaN	4825356.9622668	NaN	4825357.9457547	4825358.46229613
87	18	0	0	90	36.1581920903955	36.241610738255	13	0.433375331573188	2	6	5	NaN	1	3	0.0399923138539248	1	1	NaN	343	6	28	2	121	221	321	NaN	521	0.137947427108884	2	0	NaN	4825360.0460039	NaN	4825361.0293903	4825361.54594287
87	18	0	0	90	36.1581920903955	36.241610738255	14	0.466711895540357	2	9	2	NaN	2	4	0.0399923138539248	1	1	NaN	344	6	29	2	121	221	321	NaN	521	0.774576175026596	1	0	NaN	4825362.5128998	NaN	4825363.4963202	4825364.01284963
87	18	0	0	90	36.1581920903955	36.241610738255	17	0.566721587441862	2	7	4	NaN	2	3	0.0399923138539248	1	1	NaN	345	6	30	2	121	221	321	NaN	521	0.0831029275432229	1	0	NaN	4825365.5966409	NaN	4825366.5799472	4825367.09648867
87	18	0	0	90	36.1581920903955	36.241610738255	10	0.333365639671683	2	6	4	NaN	1	5	0.0399923138539248	1	1	NaN	346	6	31	2	121	221	321	NaN	521	0.194838374853134	2	0	NaN	4825367.9968628	NaN	4825368.9801962	4825369.49671473
87	18	0	0	90	36.1581920903955	36.241610738255	13	0.433375331573188	2	12	3	NaN	2	5	0.0399923138539248	1	1	NaN	347	6	32	2	121	221	321	NaN	521	0.109960274770856	2	1	NaN	4825370.513685	NaN	4825371.4971101	4825372.01363563
87	18	0	0	90	36.1581920903955	36.241610738255	9	0.300029075704515	2	1	3	NaN	1	5	0.0399923138539248	1	1	NaN	348	6	33	2	121	221	321	NaN	521	0.263730870559812	2	0	NaN	4825373.2638309	NaN	4825374.2473799	4825374.76390243
87	18	0	0	90	36.1581920903955	36.241610738255	24	0.80007753521204	2	9	5	NaN	2	3	0.0399923138539248	1	1	NaN	349	6	34	2	121	221	321	NaN	521	0.0104800751432776	1	0	NaN	4825375.8475531	NaN	4825376.8309848	4825377.34749542
87	18	0	0	90	36.1581920903955	36.241610738255	12	0.40003876760602	2	11	3	NaN	2	4	0.0399923138539248	1	1	NaN	350	6	35	2	121	221	321	NaN	521	0.0691149746999145	2	1	NaN	4825378.5144483	NaN	4825379.4978793	4825380.01442483
87	18	0	0	90	36.1581920903955	36.241610738255	13	0.433375331573188	2	3	4	NaN	1	3	0.0399923138539248	1	1	NaN	351	6	36	2	121	221	321	NaN	521	1.029496175237	1	1	NaN	4825380.8980673	NaN	4825381.8814496	4825382.39798243
87	18	0	0	90	36.1581920903955	36.241610738255	18	0.60005815140903	2	5	1	NaN	1	4	0.0399923138539248	1	1	NaN	352	6	37	2	121	221	321	NaN	521	0.0473012709990144	2	0	NaN	4825384.2482813	NaN	4825385.2317913	4825385.74832413
87	18	0	0	90	36.1581920903955	36.241610738255	8	0.266692511737347	2	8	2	NaN	2	4	0.0399923138539248	1	1	NaN	353	6	38	2	121	221	321	NaN	521	0.832689627073705	1	0	NaN	4825386.6153019	NaN	4825387.5986968	4825388.11522027
87	18	0	0	90	36.1581920903955	36.241610738255	7	0.233355947770178	2	7	1	NaN	2	5	0.0399923138539248	1	1	NaN	354	6	39	2	121	221	321	NaN	521	0.0103548914194107	2	1	NaN	4825389.7655193	NaN	4825390.749007	4825391.26552771
87	18	0	0	90	36.1581920903955	36.241610738255	25	0.833414099179208	2	10	1	NaN	2	5	0.0399923138539248	1	1	NaN	355	6	40	2	121	221	321	NaN	521	0.804619375616312	2	1	NaN	4825392.0991521	NaN	4825393.0825339	4825393.59908582
87	18	0	0	90	36.1581920903955	36.241610738255	10	0.333365639671683	2	5	4	NaN	1	4	0.0399923138539248	1	1	NaN	356	6	41	2	121	221	321	NaN	521	0.455281374976039	1	1	NaN	4825395.2327788	NaN	4825396.2162107	4825396.73272722
87	18	0	0	90	36.1581920903955	36.241610738255	21	0.700067843310535	2	1	5	NaN	1	3	0.0399923138539248	1	1	NaN	357	6	42	2	121	221	321	NaN	521	0.0104077747091651	2	0	NaN	4825398.0162404	NaN	4825398.9998023	4825399.51633613
87	18	0	0	90	36.1581920903955	36.241610738255	12	0.40003876760602	2	6	5	NaN	1	3	0.0399923138539248	1	1	NaN	358	6	43	2	121	221	321	NaN	521	1.49822157528251	1	1	NaN	4825400.3498719	NaN	4825401.3333935	4825401.84989682
87	18	0	0	90	36.1581920903955	36.241610738255	9	0.300029075704515	2	6	4	NaN	1	5	0.0399923138539248	1	1	NaN	359	6	44	2	121	221	321	NaN	521	0.0488776275888085	2	0	NaN	4825404.1670192	NaN	4825405.1504118	4825405.66694827
87	18	0	0	90	36.1581920903955	36.241610738255	18	0.60005815140903	2	7	1	NaN	2	5	0.0399923138539248	1	1	NaN	360	6	45	2	121	221	321	NaN	521	0.0736772753298283	2	1	NaN	4825406.5339004	NaN	4825407.5173171	4825408.03384812
87	18	0	0	90	36.1581920903955	36.241610738255	17	0.566721587441862	2	6	2	NaN	1	5	0.0399923138539248	1	1	NaN	361	6	46	2	121	221	321	NaN	521	0.0104049751535058	1	1	NaN	4825408.9342444	NaN	4825409.9175502	4825410.43407843
87	18	0	0	90	36.1581920903955	36.241610738255	13	0.433375331573188	2	11	1	NaN	2	5	0.0399923138539248	1	1	NaN	362	6	47	2	121	221	321	NaN	521	0.116961774416268	2	1	NaN	4825411.2511266	NaN	4825412.2344114	4825412.75096933
87	18	0	0	90	36.1581920903955	36.241610738255	14	0.466711895540357	2	8	4	NaN	2	4	0.0399923138539248	1	1	NaN	363	6	48	2	121	221	321	NaN	521	0.010406875051558	2	1	NaN	4825413.6846029	NaN	4825414.6679944	4825415.18454842
87	18	0	0	90	36.1581920903955	36.241610738255	6	0.20001938380301	2	4	5	NaN	1	3	0.0399923138539248	1	1	NaN	364	6	49	2	121	221	321	NaN	521	0.390589675866067	1	1	NaN	4825416.0014939	NaN	4825416.9848952	4825417.50143292
87	18	0	0	90	36.1581920903955	36.241610738255	7	0.233355947770178	2	5	5	NaN	1	5	0.0399923138539248	1	1	NaN	365	6	50	2	121	221	321	NaN	521	0.553341475315392	2	0	NaN	4825418.7184536	NaN	4825419.7018464	4825420.21836333
87	18	0	0	90	36.1581920903955	36.241610738255	16	0.533385023474693	2	5	2	NaN	1	3	0.0399923138539248	1	1	NaN	366	6	51	2	121	221	321	NaN	521	0.0103923268616199	1	1	NaN	4825421.6020454	NaN	4825422.5854834	4825423.10199917
87	18	0	0	90	36.1581920903955	36.241610738255	18	0.60005815140903	2	10	6	NaN	2	4	0.0399923138539248	1	1	NaN	367	6	52	2	121	221	321	NaN	521	0.199991774745286	1	0	NaN	4825423.9356004	NaN	4825424.9190124	4825425.43555233
87	18	0	0	90	36.1581920903955	36.241610738255	18	0.60005815140903	2	8	4	NaN	2	4	0.0399923138539248	1	1	NaN	368	6	53	2	121	221	321	NaN	521	0.723379982635379	2	1	NaN	4825426.4525256	NaN	4825427.4359277	4825427.95246632
87	18	0	0	90	36.1581920903955	36.241610738255	22	0.733404407277703	2	3	1	NaN	1	4	0.0399923138539248	1	1	NaN	369	6	54	2	121	221	321	NaN	521	0.416819475591183	2	0	NaN	4825429.5026855	NaN	4825430.4862683	4825431.00276962
87	18	0	0	90	36.1581920903955	36.241610738255	9	0.300029075704515	2	11	4	NaN	2	5	0.0399923138539248	1	1	NaN	370	6	55	2	121	221	321	NaN	521	0.755267122760415	2	1	NaN	4825432.2363819	NaN	4825433.219809	4825433.73636898
87	18	0	0	90	36.1581920903955	36.241610738255	14	0.466711895540357	2	7	5	NaN	2	5	0.0399923138539248	1	1	NaN	371	6	56	2	121	221	321	NaN	521	0.0104427756741643	2	1	NaN	4825435.3034162	NaN	4825436.2867937	4825436.80332472
87	18	0	0	90	36.1581920903955	36.241610738255	7	0.233355947770178	2	2	6	NaN	1	4	0.0399923138539248	1	1	NaN	372	6	57	2	121	221	321	NaN	521	0.0268744751811028	1	1	NaN	4825437.6368304	NaN	4825438.6203445	4825439.13690132
87	18	0	0	90	36.1581920903955	36.241610738255	24	0.80007753521204	2	11	6	NaN	2	4	0.0399923138539248	1	1	NaN	373	6	58	2	121	221	321	NaN	521	0.38839047588408	2	1	NaN	4825439.9870746	NaN	4825440.9705862	4825441.48713002
87	18	0	0	90	36.1581920903955	36.241610738255	20	0.666731279343367	2	1	1	NaN	1	5	0.0399923138539248	1	1	NaN	374	6	59	2	121	221	321	NaN	521	0.0104760751128197	1	1	NaN	4825442.7041528	NaN	4825443.6875386	4825444.20405992
87	18	0	0	90	36.1581920903955	36.241610738255	7	0.233355947770178	2	3	5	NaN	1	3	0.0399923138539248	1	1	NaN	375	6	60	2	121	221	321	NaN	521	0.521893775090575	1	1	NaN	4825445.0377403	NaN	4825446.0211188	4825446.53762542
87	18	0	0	90	36.1581920903955	36.241610738255	19	0.633394715376198	2	8	3	NaN	2	5	0.0399923138539248	1	1	NaN	376	6	61	2	121	221	321	NaN	521	0.431641375645995	2	1	NaN	4825447.8878421	NaN	4825448.8712333	4825449.38789872
87	18	0	0	90	36.1581920903955	36.241610738255	0	0	1	4	4	NaN	1	5	0.0399923138539248	1	1	NaN	377	6	62	2	111	211	311	NaN	511	0.0104672275483608	2	0	NaN	4825450.6382347	NaN	4825451.6216436	4825452.13816887
87	18	0	0	90	36.1581920903955	36.241610738255	15	0.500048459507525	2	10	4	NaN	2	4	0.0399923138539248	1	1	NaN	378	6	63	2	121	221	321	NaN	521	0.24393539596349	1	0	NaN	4825452.9718784	NaN	4825453.9551993	4825454.4717471
87	18	0	0	90	36.1581920903955	36.241610738255	7	0.233355947770178	2	4	6	NaN	1	4	0.0399923138539248	1	1	NaN	379	7	1	2	121	221	321	NaN	521	1.08115117903799	1	1	NaN	4825471.806868	NaN	4825472.7903964	4825473.30691952
87	18	0	0	90	36.1581920903955	36.241610738255	25	0.833414099179208	2	8	4	NaN	2	4	0.0399923138539248	1	1	NaN	380	7	2	2	121	221	321	NaN	521	0.254935175180435	2	1	NaN	4825475.640678	NaN	4825476.6240893	4825477.14062482
87	18	0	0	90	36.1581920903955	36.241610738255	13	0.433375331573188	2	3	6	NaN	1	4	0.0399923138539248	1	1	NaN	381	7	3	2	121	221	321	NaN	521	0.607140343636274	1	1	NaN	4825479.241036	NaN	4825480.2244555	4825480.74099136
87	18	0	0	90	36.1581920903955	36.241610738255	20	0.666731279343367	2	5	4	NaN	1	3	0.0399923138539248	1	1	NaN	382	7	4	2	121	221	321	NaN	521	0.617364227771759	1	1	NaN	4825482.1745376	NaN	4825483.1580824	4825483.67460857
87	18	0	0	90	36.1581920903955	36.241610738255	19	0.633394715376198	2	12	4	NaN	2	3	0.0399923138539248	1	1	NaN	383	7	5	2	121	221	321	NaN	521	0.379507922567427	2	1	NaN	4825485.1082271	NaN	4825486.0915749	4825486.60822728
87	18	0	0	90	36.1581920903955	36.241610738255	17	0.566721587441862	2	3	4	NaN	1	4	0.0399923138539248	1	1	NaN	384	7	6	2	121	221	321	NaN	521	0.0552210230380297	1	1	NaN	4825487.8086408	NaN	4825488.7919632	4825489.30848478
87	18	0	0	90	36.1581920903955	36.241610738255	0	0	1	3	5	NaN	1	4	0.0399923138539248	1	1	NaN	385	7	7	2	111	211	311	NaN	511	0.386191823519766	2	0	NaN	4825490.9255145	NaN	4825491.9089406	4825492.42546728
87	18	0	0	90	36.1581920903955	36.241610738255	23	0.766740971244872	2	1	6	NaN	1	5	0.0399923138539248	1	1	NaN	386	7	8	2	121	221	321	NaN	521	0.581259774975479	1	1	NaN	4825493.6424525	NaN	4825494.6258626	4825495.14240703
87	18	0	0	90	36.1581920903955	36.241610738255	9	0.300029075704515	2	2	5	NaN	1	5	0.0399923138539248	1	1	NaN	387	7	9	2	121	221	321	NaN	521	0.329210475087166	2	0	NaN	4825496.5427508	NaN	4825497.5261578	4825498.04268202
87	18	0	0	90	36.1581920903955	36.241610738255	23	0.766740971244872	2	6	5	NaN	1	4	0.0399923138539248	1	1	NaN	388	7	10	2	121	221	321	NaN	521	0.0104477796703577	2	0	NaN	4825499.1763381	NaN	4825500.1597309	4825500.67628082
87	18	0	0	90	36.1581920903955	36.241610738255	7	0.233355947770178	2	5	2	NaN	1	4	0.0399923138539248	1	1	NaN	389	7	11	2	121	221	321	NaN	521	0.0104618798941374	1	1	NaN	4825501.5098907	NaN	4825502.4933231	4825503.00984012
87	18	0	0	90	36.1581920903955	36.241610738255	21	0.700067843310535	2	7	5	NaN	2	5	0.0399923138539248	1	1	NaN	390	7	12	2	121	221	321	NaN	521	0.164503375068307	2	1	NaN	4825503.843352	NaN	4825504.8268972	4825505.34340082
87	18	0	0	90	36.1581920903955	36.241610738255	12	0.40003876760602	2	12	6	NaN	2	4	0.0399923138539248	1	1	NaN	391	7	13	2	121	221	321	NaN	521	0.0104077756404877	2	1	NaN	4825506.3270409	NaN	4825507.3104587	4825507.82698102
87	18	0	0	90	36.1581920903955	36.241610738255	25	0.833414099179208	2	11	5	NaN	2	5	0.0399923138539248	1	1	NaN	392	7	14	2	121	221	321	NaN	521	0.177961775101721	1	0	NaN	4825509.0940156	NaN	4825510.0773943	4825510.59391162
87	18	0	0	90	36.1581920903955	36.241610738255	14	0.466711895540357	2	4	4	NaN	1	3	0.0399923138539248	1	1	NaN	393	7	15	2	121	221	321	NaN	521	0.353760027326643	1	1	NaN	4825512.0942622	NaN	4825513.0776772	4825513.59421737
87	18	0	0	90	36.1581920903955	36.241610738255	6	0.20001938380301	2	2	4	NaN	1	3	0.0399923138539248	1	1	NaN	394	7	16	2	121	221	321	NaN	521	0.0467412751168013	1	1	NaN	4825515.1611929	NaN	4825516.1446243	4825516.66118153
87	18	0	0	90	36.1581920903955	36.241610738255	10	0.333365639671683	2	11	5	NaN	2	4	0.0399923138539248	1	1	NaN	395	7	17	2	121	221	321	NaN	521	0.503974471241236	2	1	NaN	4825517.5281117	NaN	4825518.5115312	4825519.02808303
87	18	0	0	90	36.1581920903955	36.241610738255	15	0.500048459507525	2	6	6	NaN	1	3	0.0399923138539248	1	1	NaN	396	7	18	2	121	221	321	NaN	521	0.326421274803579	1	1	NaN	4825520.361626	NaN	4825521.3451588	4825521.86169153
87	18	0	0	90	36.1581920903955	36.241610738255	19	0.633394715376198	2	10	4	NaN	2	5	0.0399923138539248	1	1	NaN	397	7	19	2	121	221	321	NaN	521	0.876203038729727	1	0	NaN	4825523.0118609	NaN	4825523.9954444	4825524.51195456
87	18	0	0	90	36.1581920903955	36.241610738255	19	0.633394715376198	2	11	6	NaN	2	5	0.0399923138539248	1	1	NaN	398	7	20	2	121	221	321	NaN	521	0.571544575504959	2	1	NaN	4825526.2123468	NaN	4825527.1957327	4825527.71226962
87	18	0	0	90	36.1581920903955	36.241610738255	9	0.300029075704515	2	8	1	NaN	2	3	0.0399923138539248	1	1	NaN	399	7	21	2	121	221	321	NaN	521	1.36515509989113	2	1	NaN	4825529.3626227	NaN	4825530.3460443	4825530.8625739
87	18	0	0	90	36.1581920903955	36.241610738255	12	0.40003876760602	2	6	6	NaN	1	5	0.0399923138539248	1	1	NaN	400	7	22	2	121	221	321	NaN	521	0.121421091258526	1	1	NaN	4825533.0463283	NaN	4825534.0297462	4825534.54627441
87	18	0	0	90	36.1581920903955	36.241610738255	21	0.700067843310535	2	2	2	NaN	1	3	0.0399923138539248	1	1	NaN	401	7	23	2	121	221	321	NaN	521	0.255913723260164	1	1	NaN	4825535.4798401	NaN	4825536.4632796	4825536.97983468
87	18	0	0	90	36.1581920903955	36.241610738255	19	0.633394715376198	2	1	6	NaN	1	5	0.0399923138539248	1	1	NaN	402	7	24	2	121	221	321	NaN	521	0.0104241231456399	2	0	NaN	4825538.0635377	NaN	4825539.0469489	4825539.56342118
87	18	0	0	90	36.1581920903955	36.241610738255	14	0.466711895540357	2	10	2	NaN	2	5	0.0399923138539248	1	1	NaN	403	7	25	2	121	221	321	NaN	521	0.010410875082016	2	1	NaN	4825540.3970577	NaN	4825541.3804401	4825541.89699733
87	18	0	0	90	36.1581920903955	36.241610738255	7	0.233355947770178	2	9	1	NaN	2	4	0.0399923138539248	1	1	NaN	404	7	26	2	121	221	321	NaN	521	0.0104614272713661	2	1	NaN	4825542.7306106	NaN	4825543.7140171	4825544.23055467
87	18	0	0	90	36.1581920903955	36.241610738255	24	0.80007753521204	2	1	2	NaN	1	4	0.0399923138539248	1	1	NaN	405	7	27	2	121	221	321	NaN	521	0.0104036750271916	2	0	NaN	4825545.0641759	NaN	4825546.0476136	4825546.56412093
87	18	0	0	90	36.1581920903955	36.241610738255	25	0.833414099179208	2	12	1	NaN	2	5	0.0399923138539248	1	1	NaN	406	7	28	2	121	221	321	NaN	521	0.0104689272120595	1	0	NaN	4825547.3976913	NaN	4825548.3811503	4825548.89768457
87	18	0	0	90	36.1581920903955	36.241610738255	6	0.20001938380301	2	6	4	NaN	1	3	0.0399923138539248	1	1	NaN	407	7	29	2	121	221	321	NaN	521	0.010470874607563	1	1	NaN	4825549.7312946	NaN	4825550.7146912	4825551.23124633
87	18	0	0	90	36.1581920903955	36.241610738255	21	0.700067843310535	2	5	2	NaN	1	4	0.0399923138539248	1	1	NaN	408	7	30	2	121	221	321	NaN	521	0.566867674700916	1	1	NaN	4825552.0648548	NaN	4825553.0482667	4825553.56480473
87	18	0	0	90	36.1581920903955	36.241610738255	23	0.766740971244872	2	2	5	NaN	1	5	0.0399923138539248	1	1	NaN	409	7	31	2	121	221	321	NaN	521	1.46764252334833	2	0	NaN	4825554.948545	NaN	4825555.9318818	4825556.44841338
87	18	0	0	90	36.1581920903955	36.241610738255	8	0.266692511737347	2	3	4	NaN	1	5	0.0399923138539248	1	1	NaN	410	7	32	2	121	221	321	NaN	521	0.250993674620986	1	1	NaN	4825558.7488184	NaN	4825559.7322555	4825560.24879123
87	18	0	0	90	36.1581920903955	36.241610738255	25	0.833414099179208	2	5	4	NaN	1	4	0.0399923138539248	1	1	NaN	411	7	33	2	121	221	321	NaN	521	0.587355026975274	2	0	NaN	4825561.3324451	NaN	4825562.3158794	4825562.83238817
87	18	0	0	90	36.1581920903955	36.241610738255	14	0.466711895540357	2	9	2	NaN	2	5	0.0399923138539248	1	1	NaN	412	7	34	2	121	221	321	NaN	521	0.0104096829891205	1	0	NaN	4825564.2327997	NaN	4825565.2161244	4825565.73267692
87	18	0	0	90	36.1581920903955	36.241610738255	18	0.60005815140903	2	6	1	NaN	1	3	0.0399923138539248	1	1	NaN	413	7	35	2	121	221	321	NaN	521	0.0104102753102779	1	1	NaN	4825566.5662894	NaN	4825567.5496756	4825568.06622793
87	18	0	0	90	36.1581920903955	36.241610738255	8	0.266692511737347	2	6	4	NaN	1	4	0.0399923138539248	1	1	NaN	414	7	36	2	121	221	321	NaN	521	1.46859467495233	1	1	NaN	4825568.8830489	NaN	4825569.8666001	4825570.38311963
87	18	0	0	90	36.1581920903955	36.241610738255	10	0.333365639671683	2	4	2	NaN	1	3	0.0399923138539248	1	1	NaN	415	7	37	2	121	221	321	NaN	521	0.0103803798556328	2	0	NaN	4825572.6667849	NaN	4825573.6503028	4825574.16682242
87	18	0	0	90	36.1581920903955	36.241610738255	22	0.733404407277703	2	6	1	NaN	1	4	0.0399923138539248	1	1	NaN	416	7	38	2	121	221	321	NaN	521	0.463409574702382	1	1	NaN	4825575.0004474	NaN	4825575.9838641	4825576.50039043
87	18	0	0	90	36.1581920903955	36.241610738255	12	0.40003876760602	2	8	3	NaN	2	3	0.0399923138539248	1	1	NaN	417	7	39	2	121	221	321	NaN	521	1.07989352289587	2	1	NaN	4825577.7840963	NaN	4825578.7674642	4825579.28399938
87	18	0	0	90	36.1581920903955	36.241610738255	20	0.666731279343367	2	1	2	NaN	1	4	0.0399923138539248	1	1	NaN	418	7	40	2	121	221	321	NaN	521	0.543320823460817	2	0	NaN	4825581.184414	NaN	4825582.167788	4825582.68432668
87	18	0	0	90	36.1581920903955	36.241610738255	20	0.666731279343367	2	6	2	NaN	1	4	0.0399923138539248	1	1	NaN	419	7	41	2	121	221	321	NaN	521	0.0104237226769328	1	1	NaN	4825584.0513477	NaN	4825585.0347308	4825585.55127458
87	18	0	0	90	36.1581920903955	36.241610738255	9	0.300029075704515	2	3	5	NaN	1	3	0.0399923138539248	1	1	NaN	420	7	42	2	121	221	321	NaN	521	0.583621943369508	1	1	NaN	4825586.3681144	NaN	4825587.3516281	4825587.86817236
87	18	0	0	90	36.1581920903955	36.241610738255	18	0.60005815140903	2	3	6	NaN	1	4	0.0399923138539248	1	1	NaN	421	7	43	2	121	221	321	NaN	521	0.563479322940111	1	1	NaN	4825589.2683964	NaN	4825590.2519159	4825590.76845608
87	18	0	0	90	36.1581920903955	36.241610738255	19	0.633394715376198	2	11	2	NaN	2	5	0.0399923138539248	1	1	NaN	422	7	44	2	121	221	321	NaN	521	0.191707322373986	2	1	NaN	4825592.1521138	NaN	4825593.1355487	4825593.65207058
87	18	0	0	90	36.1581920903955	36.241610738255	22	0.733404407277703	2	6	3	NaN	1	4	0.0399923138539248	1	1	NaN	423	7	45	2	121	221	321	NaN	521	0.579155470244586	1	1	NaN	4825594.6689469	NaN	4825595.6524744	4825596.16899493
87	18	0	0	90	36.1581920903955	36.241610738255	13	0.433375331573188	2	8	4	NaN	2	4	0.0399923138539248	1	1	NaN	424	7	46	2	121	221	321	NaN	521	0.393026575446129	1	0	NaN	4825597.7193454	NaN	4825598.702757	4825599.21929632
87	18	0	0	90	36.1581920903955	36.241610738255	18	0.60005815140903	2	2	5	NaN	1	5	0.0399923138539248	1	1	NaN	425	7	47	2	121	221	321	NaN	521	0.628216775134206	2	0	NaN	4825600.4196195	NaN	4825601.4030291	4825601.91955412
87	18	0	0	90	36.1581920903955	36.241610738255	8	0.266692511737347	2	1	4	NaN	1	4	0.0399923138539248	1	1	NaN	426	7	48	2	121	221	321	NaN	521	0.0104226227849722	2	0	NaN	4825603.4364537	NaN	4825604.4199872	4825604.93651468
87	18	0	0	90	36.1581920903955	36.241610738255	0	0	1	8	2	NaN	2	4	0.0399923138539248	1	1	NaN	427	7	49	2	111	211	311	NaN	511	0.0460156230255961	2	1	NaN	4825605.7700005	NaN	4825606.7535305	4825607.27007358
87	18	0	0	90	36.1581920903955	36.241610738255	16	0.533385023474693	2	10	6	NaN	2	4	0.0399923138539248	1	1	NaN	428	7	50	2	121	221	321	NaN	521	0.103090787306428	1	0	NaN	4825608.1370442	NaN	4825609.1204355	4825609.63697791
87	18	0	0	90	36.1581920903955	36.241610738255	20	0.666731279343367	2	11	6	NaN	2	5	0.0399923138539248	1	1	NaN	429	7	51	2	121	221	321	NaN	521	0.565934622660279	1	0	NaN	4825610.5539571	NaN	4825611.5373519	4825612.05388428
87	18	0	0	90	36.1581920903955	36.241610738255	0	0	1	1	3	NaN	1	3	0.0399923138539248	1	1	NaN	430	7	52	2	111	211	311	NaN	511	0.0104411793872714	1	1	NaN	4825613.4374593	NaN	4825614.4209777	4825614.93750772
87	18	0	0	90	36.1581920903955	36.241610738255	8	0.266692511737347	2	12	6	NaN	2	3	0.0399923138539248	1	1	NaN	431	7	53	2	121	221	321	NaN	521	1.06855027470738	1	0	NaN	4825615.7709943	NaN	4825616.7545106	4825617.27106202
87	18	0	0	90	36.1581920903955	36.241610738255	8	0.266692511737347	2	11	5	NaN	2	5	0.0399923138539248	1	1	NaN	432	7	54	2	121	221	321	NaN	521	0.0104585271328688	2	1	NaN	4825619.1547105	NaN	4825620.1382176	4825620.65473247
87	18	0	0	90	36.1581920903955	36.241610738255	14	0.466711895540357	2	2	3	NaN	1	3	0.0399923138539248	1	1	NaN	433	7	55	2	121	221	321	NaN	521	0.199532574974	1	1	NaN	4825622.4884445	NaN	4825623.4718392	4825623.98839333
87	18	0	0	90	36.1581920903955	36.241610738255	16	0.533385023474693	2	7	6	NaN	2	5	0.0399923138539248	1	1	NaN	434	7	56	2	121	221	321	NaN	521	0.363437543623149	2	1	NaN	4825625.7888174	NaN	4825626.7721948	4825627.28872246
87	18	0	0	90	36.1581920903955	36.241610738255	16	0.533385023474693	2	11	1	NaN	2	3	0.0399923138539248	1	1	NaN	435	7	57	2	121	221	321	NaN	521	0.0715183829888701	2	1	NaN	4825628.4723684	NaN	4825629.4557837	4825629.97231632
87	18	0	0	90	36.1581920903955	36.241610738255	23	0.766740971244872	2	10	2	NaN	2	4	0.0399923138539248	1	1	NaN	436	7	58	2	121	221	321	NaN	521	0.122832274995744	2	1	NaN	4825631.7892554	NaN	4825632.7727774	4825633.28930582
87	18	0	0	90	36.1581920903955	36.241610738255	9	0.300029075704515	2	7	3	NaN	2	4	0.0399923138539248	1	1	NaN	437	7	59	2	121	221	321	NaN	521	0.313189475797117	1	0	NaN	4825634.2229045	NaN	4825635.2063421	4825635.72289232
87	18	0	0	90	36.1581920903955	36.241610738255	15	0.500048459507525	2	5	3	NaN	1	3	0.0399923138539248	1	1	NaN	438	7	60	2	121	221	321	NaN	521	0.422011975198984	1	1	NaN	4825636.8897956	NaN	4825637.8732545	4825638.38980673
87	18	0	0	90	36.1581920903955	36.241610738255	15	0.500048459507525	2	12	6	NaN	2	4	0.0399923138539248	1	1	NaN	439	7	61	2	121	221	321	NaN	521	0.096513875760138	1	0	NaN	4825639.6234735	NaN	4825640.6068698	4825641.12340522
87	18	0	0	90	36.1581920903955	36.241610738255	25	0.833414099179208	2	4	5	NaN	1	4	0.0399923138539248	1	1	NaN	440	7	62	2	121	221	321	NaN	521	0.759647474624217	2	0	NaN	4825642.0403609	NaN	4825643.0237511	4825643.54031863
87	18	0	0	90	36.1581920903955	36.241610738255	12	0.40003876760602	2	3	3	NaN	1	3	0.0399923138539248	1	1	NaN	441	7	63	2	121	221	321	NaN	521	0.396168392151594	1	1	NaN	4825645.124121	NaN	4825646.1074691	4825646.62394791
87	18	0	0	90	36.1581920903955	36.241610738255	25	0.833414099179208	2	7	5	NaN	2	3	0.0399923138539248	1	1	NaN	442	8	1	2	121	221	321	NaN	521	0.192896370775998	2	1	NaN	4825666.5594093	NaN	4825667.5428397	4825668.05938603
87	18	0	0	90	36.1581920903955	36.241610738255	24	0.80007753521204	2	9	6	NaN	2	5	0.0399923138539248	1	1	NaN	443	8	2	2	121	221	321	NaN	521	0.0198346748948097	2	1	NaN	4825669.076358	NaN	4825670.0597666	4825670.57629273
87	18	0	0	90	36.1581920903955	36.241610738255	14	0.466711895540357	2	11	4	NaN	2	3	0.0399923138539248	1	1	NaN	444	8	3	2	121	221	321	NaN	521	0.0102279996499419	2	1	NaN	4825671.4097939	NaN	4825672.3933254	4825672.9098886
87	18	0	0	90	36.1581920903955	36.241610738255	16	0.533385023474693	2	9	2	NaN	2	3	0.0399923138539248	1	1	NaN	445	8	4	2	121	221	321	NaN	521	0.384503374807537	1	0	NaN	4825673.7434917	NaN	4825674.726897	4825675.24342493
87	18	0	0	90	36.1581920903955	36.241610738255	0	0	1	12	5	NaN	2	5	0.0399923138539248	1	1	NaN	446	8	5	2	111	211	311	NaN	511	0.404306874610484	2	1	NaN	4825676.4437706	NaN	4825677.4271712	4825677.94368502
87	18	0	0	90	36.1581920903955	36.241610738255	19	0.633394715376198	2	9	3	NaN	2	4	0.0399923138539248	1	1	NaN	447	8	6	2	121	221	321	NaN	521	0.367042927071452	2	1	NaN	4825679.1772237	NaN	4825680.1606446	4825680.67729047
87	18	0	0	90	36.1581920903955	36.241610738255	12	0.40003876760602	2	3	1	NaN	1	3	0.0399923138539248	1	1	NaN	448	8	7	2	121	221	321	NaN	521	0.0104249222204089	1	1	NaN	4825681.8609636	NaN	4825682.844364	4825683.36088528
87	18	0	0	90	36.1581920903955	36.241610738255	10	0.333365639671683	2	12	4	NaN	2	5	0.0399923138539248	1	1	NaN	449	8	8	2	121	221	321	NaN	521	0.0104273306205869	2	1	NaN	4825684.194464	NaN	4825685.1779021	4825685.69445707
87	18	0	0	90	36.1581920903955	36.241610738255	9	0.300029075704515	2	11	1	NaN	2	3	0.0399923138539248	1	1	NaN	450	8	9	2	121	221	321	NaN	521	0.0104088755324483	1	0	NaN	4825686.5279501	NaN	4825687.5114396	4825688.02801302
87	18	0	0	90	36.1581920903955	36.241610738255	23	0.766740971244872	2	4	6	NaN	1	4	0.0399923138539248	1	1	NaN	451	8	10	2	121	221	321	NaN	521	0.010477127507329	2	0	NaN	4825689.2616692	NaN	4825690.2451073	4825690.76162427
87	18	0	0	90	36.1581920903955	36.241610738255	22	0.733404407277703	2	3	5	NaN	1	3	0.0399923138539248	1	1	NaN	452	8	11	2	121	221	321	NaN	521	0.0104743745177984	2	0	NaN	4825691.7785849	NaN	4825692.7620057	4825693.27853583
87	18	0	0	90	36.1581920903955	36.241610738255	7	0.233355947770178	2	8	1	NaN	2	5	0.0399923138539248	1	1	NaN	453	8	12	2	121	221	321	NaN	521	0.32021982781589	1	0	NaN	4825694.1121854	NaN	4825695.0955667	4825695.61208927
87	18	0	0	90	36.1581920903955	36.241610738255	20	0.666731279343367	2	3	2	NaN	1	3	0.0399923138539248	1	1	NaN	454	8	13	2	121	221	321	NaN	521	0.358288226649165	1	1	NaN	4825697.1457921	NaN	4825698.1291948	4825698.64572487
87	18	0	0	90	36.1581920903955	36.241610738255	13	0.433375331573188	2	7	2	NaN	2	4	0.0399923138539248	1	1	NaN	455	8	14	2	121	221	321	NaN	521	0.163490374572575	2	1	NaN	4825699.8126524	NaN	4825700.7961346	4825701.31265263
87	18	0	0	90	36.1581920903955	36.241610738255	17	0.566721587441862	2	8	6	NaN	2	4	0.0399923138539248	1	1	NaN	456	8	15	2	121	221	321	NaN	521	0.536227175034583	2	1	NaN	4825702.2963155	NaN	4825703.2796966	4825703.79622613
87	18	0	0	90	36.1581920903955	36.241610738255	7	0.233355947770178	2	6	1	NaN	1	4	0.0399923138539248	1	1	NaN	457	8	16	2	121	221	321	NaN	521	0.0104687185958028	1	1	NaN	4825705.1465636	NaN	4825706.1299772	4825706.64651718
