subjno	age	gender	isPractice	viewdist	CmToPixX	CmToPixY	SOA_frm	SOA_time	targNum	targID	targExample	targRace	targGender	firstTargPos	contrast	familiarity	curr_staircase	iStair	TrialNum	BlockNum	blktrl	sessionNum	TC_FIXATION	TC_RSVP_START	TC_RSVP_END	TC_BLANK	TC_RESPONSE_ONSET	RT2afc	resp_2afc	acc	RSVPOnsetVBL	RSVPOnsetTime	RSVPOffsetVBL	RSVPOffsetTime	startrt_2afc
53	20	0	0	90	36.1581920903955	36.241610738255	22	0.733412591852248	2	8	1	NaN	2	3	0.124892836072298	1	1	NaN	1	1	1	2	121	221	321	NaN	521	0.831830328796059	2	1	NaN	3023106.5408299	NaN	3023107.5241391	3023108.05723507
53	20	0	0	90	36.1581920903955	36.241610738255	9	0.300032423939556	2	4	3	NaN	1	4	0.124892836072298	1	1	NaN	2	1	2	2	121	221	321	NaN	521	0.326732676941901	1	1	NaN	3023109.7578287	NaN	3023110.7411152	3023111.27422262
53	20	0	0	90	36.1581920903955	36.241610738255	8	0.266695487946272	2	9	3	NaN	2	4	0.124892836072298	1	1	NaN	3	1	3	2	121	221	321	NaN	521	0.372048681136221	1	0	NaN	3023112.4245287	NaN	3023113.4079658	3023113.94115322
53	20	0	0	90	36.1581920903955	36.241610738255	19	0.633401783872396	2	6	3	NaN	1	4	0.124892836072298	1	1	NaN	4	1	4	2	121	221	321	NaN	521	0.311835824511945	1	1	NaN	3023115.1414738	NaN	3023116.1248727	3023116.64141938
53	20	0	0	90	36.1581920903955	36.241610738255	12	0.400043231919408	2	5	5	NaN	1	4	0.124892836072298	1	1	NaN	5	1	5	2	121	221	321	NaN	521	2.35808667680249	1	1	NaN	3023117.7750602	NaN	3023118.7584707	3023119.27500592
53	20	0	0	90	36.1581920903955	36.241610738255	24	0.800086463838816	2	12	3	NaN	2	5	0.124892836072298	1	1	NaN	6	1	6	2	121	221	321	NaN	521	0.553505580872297	1	0	NaN	3023122.4755137	NaN	3023123.4589154	3023123.97547792
53	20	0	0	90	36.1581920903955	36.241610738255	6	0.200021615959704	2	8	2	NaN	2	4	0.124892836072298	1	1	NaN	7	1	7	2	121	221	321	NaN	521	2.45444927690551	2	1	NaN	3023125.342415	NaN	3023126.325879	3023126.84242502
53	20	0	0	90	36.1581920903955	36.241610738255	13	0.433380167912692	2	6	5	NaN	1	3	0.124892836072298	1	1	NaN	8	1	8	2	121	221	321	NaN	521	0.902695421129465	1	1	NaN	3023130.1262683	NaN	3023131.1096709	3023131.62621508
53	20	0	0	90	36.1581920903955	36.241610738255	18	0.600064847879112	2	8	3	NaN	2	4	0.124892836072298	1	1	NaN	9	1	9	2	121	221	321	NaN	521	2.05337643250823	2	1	NaN	3023133.3431373	NaN	3023134.3266642	3023134.84320557
53	20	0	0	90	36.1581920903955	36.241610738255	25	0.8334233998321	2	12	6	NaN	2	5	0.124892836072298	1	1	NaN	10	1	10	2	121	221	321	NaN	521	0.49447132833302	2	1	NaN	3023137.7103288	NaN	3023138.6937467	3023139.21030757
53	20	0	0	90	36.1581920903955	36.241610738255	14	0.466717103905976	2	5	2	NaN	1	3	0.124892836072298	1	1	NaN	11	1	11	2	121	221	321	NaN	521	2.36569777689874	1	1	NaN	3023140.5272946	NaN	3023141.5107368	3023142.02724912
53	20	0	0	90	36.1581920903955	36.241610738255	19	0.633401783872396	2	10	4	NaN	2	4	0.124892836072298	1	1	NaN	12	1	12	2	121	221	321	NaN	521	0.402277928777039	2	1	NaN	3023145.2110836	NaN	3023146.1944902	3023146.71103507
53	20	0	0	90	36.1581920903955	36.241610738255	16	0.533390975892544	2	5	1	NaN	1	4	0.124892836072298	1	1	NaN	13	1	13	2	121	221	321	NaN	521	1.90909687709063	1	1	NaN	3023147.9280248	NaN	3023148.9114177	3023149.42796342
53	20	0	0	90	36.1581920903955	36.241610738255	10	0.33336935993284	2	7	6	NaN	2	4	0.124892836072298	1	1	NaN	14	1	14	2	121	221	321	NaN	521	0.379254076629877	2	1	NaN	3023152.1617673	NaN	3023153.1451718	3023153.66171542
53	20	0	0	90	36.1581920903955	36.241610738255	19	0.633401783872396	2	4	5	NaN	1	5	0.124892836072298	1	1	NaN	15	1	15	2	121	221	321	NaN	521	2.30300197703764	1	1	NaN	3023154.8620251	NaN	3023155.8454533	3023156.36198822
53	20	0	0	90	36.1581920903955	36.241610738255	21	0.700075655858964	2	4	5	NaN	1	3	0.124892836072298	1	1	NaN	16	1	16	2	121	221	321	NaN	521	0.470222428441048	1	1	NaN	3023159.4791693	NaN	3023160.4625593	3023160.97912917
53	20	0	0	90	36.1581920903955	36.241610738255	25	0.8334233998321	2	12	5	NaN	2	3	0.124892836072298	1	1	NaN	17	1	17	2	121	221	321	NaN	521	3.14231202472001	2	1	NaN	3023162.2627741	NaN	3023163.2461662	3023163.76270928
53	20	0	0	90	36.1581920903955	36.241610738255	11	0.366706295926124	2	12	6	NaN	2	3	0.124892836072298	1	1	NaN	18	1	18	2	121	221	321	NaN	521	0.427294977009296	2	1	NaN	3023167.7299702	NaN	3023168.7134174	3023169.22991782
53	20	0	0	90	36.1581920903955	36.241610738255	21	0.700075655858964	2	8	5	NaN	2	4	0.124892836072298	1	1	NaN	19	1	19	2	121	221	321	NaN	521	2.56481632497162	2	1	NaN	3023170.4802605	NaN	3023171.4636349	3023171.98018228
53	20	0	0	90	36.1581920903955	36.241610738255	23	0.766749527845532	2	4	5	NaN	1	5	0.124892836072298	1	1	NaN	20	1	20	2	121	221	321	NaN	521	0.288983924780041	1	1	NaN	3023175.3639082	NaN	3023176.3474413	3023176.86399148
53	20	0	0	90	36.1581920903955	36.241610738255	18	0.600064847879112	2	7	5	NaN	2	3	0.124892836072298	1	1	NaN	21	1	21	2	121	221	321	NaN	521	0.287951924838126	2	1	NaN	3023177.9809682	NaN	3023178.9643735	3023179.48091807
53	20	0	0	90	36.1581920903955	36.241610738255	18	0.600064847879112	2	12	5	NaN	2	5	0.124892836072298	1	1	NaN	22	1	22	2	121	221	321	NaN	521	2.67976077692583	2	1	NaN	3023180.5812287	NaN	3023181.5646307	3023182.08118322
53	20	0	0	90	36.1581920903955	36.241610738255	24	0.800086463838816	2	1	3	NaN	1	4	0.124892836072298	1	1	NaN	23	1	23	2	121	221	321	NaN	521	0.391592977102846	1	1	NaN	3023185.5815797	NaN	3023186.5651135	3023187.08167072
53	20	0	0	90	36.1581920903955	36.241610738255	9	0.300032423939556	2	10	3	NaN	2	3	0.124892836072298	1	1	NaN	24	1	24	2	121	221	321	NaN	521	1.94678967678919	2	1	NaN	3023188.298647	NaN	3023189.282049	3023189.79859772
53	20	0	0	90	36.1581920903955	36.241610738255	16	0.533390975892544	2	3	4	NaN	1	3	0.124892836072298	1	1	NaN	25	1	25	2	121	221	321	NaN	521	0.303598676808178	1	1	NaN	3023192.565832	NaN	3023193.5491332	3023194.06568822
53	20	0	0	90	36.1581920903955	36.241610738255	7	0.233358551952988	2	8	4	NaN	2	5	0.124892836072298	1	1	NaN	26	1	26	2	121	221	321	NaN	521	0.262520824559033	2	1	NaN	3023195.1827086	NaN	3023196.1660961	3023196.68261598
53	20	0	0	90	36.1581920903955	36.241610738255	8	0.266695487946272	2	9	6	NaN	2	3	0.124892836072298	1	1	NaN	27	1	27	2	121	221	321	NaN	521	2.62313452456146	2	1	NaN	3023197.7661523	NaN	3023198.7496547	3023199.26619318
53	20	0	0	90	36.1581920903955	36.241610738255	0	0	1	8	1	NaN	2	5	0.124892836072298	1	1	NaN	28	1	28	2	111	211	311	NaN	511	0.248652476817369	2	1	NaN	3023202.7167469	NaN	3023203.7001474	3023204.21668812
53	20	0	0	90	36.1581920903955	36.241610738255	18	0.600064847879112	2	11	6	NaN	2	3	0.124892836072298	1	1	NaN	29	1	29	2	121	221	321	NaN	521	2.97742623277009	2	1	NaN	3023205.2836716	NaN	3023206.2670518	3023206.78361017
53	20	0	0	90	36.1581920903955	36.241610738255	10	0.33336935993284	2	10	5	NaN	2	3	0.124892836072298	1	1	NaN	30	1	30	2	121	221	321	NaN	521	0.181010165251791	2	1	NaN	3023210.5841893	NaN	3023211.5675992	3023212.08411763
53	20	0	0	90	36.1581920903955	36.241610738255	22	0.733412591852248	2	1	2	NaN	1	4	0.124892836072298	1	1	NaN	31	1	31	2	121	221	321	NaN	521	1.92848192900419	1	1	NaN	3023213.0844126	NaN	3023214.0678342	3023214.58437577
53	20	0	0	90	36.1581920903955	36.241610738255	18	0.600064847879112	2	6	4	NaN	1	3	0.124892836072298	1	1	NaN	32	1	32	2	121	221	321	NaN	521	0.366420125123113	1	1	NaN	3023217.334842	NaN	3023218.3182529	3023218.83479158
53	20	0	0	90	36.1581920903955	36.241610738255	10	0.33336935993284	2	9	1	NaN	2	5	0.124892836072298	1	1	NaN	33	1	33	2	121	221	321	NaN	521	2.289406824857	2	1	NaN	3023220.2516637	NaN	3023221.2351947	3023221.75173698
53	20	0	0	90	36.1581920903955	36.241610738255	7	0.233358551952988	2	11	6	NaN	2	4	0.124892836072298	1	1	NaN	34	1	34	2	121	221	321	NaN	521	0.240489976946265	2	1	NaN	3023224.8522469	NaN	3023225.8356325	3023226.35219412
53	20	0	0	90	36.1581920903955	36.241610738255	6	0.200021615959704	2	5	1	NaN	1	5	0.124892836072298	1	1	NaN	35	1	35	2	121	221	321	NaN	521	0.291054624598473	1	1	NaN	3023227.4024979	NaN	3023228.3858972	3023228.90243898
53	20	0	0	90	36.1581920903955	36.241610738255	25	0.8334233998321	2	2	6	NaN	1	4	0.124892836072298	1	1	NaN	36	1	36	2	121	221	321	NaN	521	0.370261036325246	1	1	NaN	3023230.0027404	NaN	3023230.9861505	3023231.50270606
53	20	0	0	90	36.1581920903955	36.241610738255	12	0.400043231919408	2	9	2	NaN	2	4	0.124892836072298	1	1	NaN	37	1	37	2	121	221	321	NaN	521	0.311041677370667	2	1	NaN	3023232.6863439	NaN	3023233.669732	3023234.18629352
53	20	0	0	90	36.1581920903955	36.241610738255	9	0.300032423939556	2	12	4	NaN	2	4	0.124892836072298	1	1	NaN	38	1	38	2	121	221	321	NaN	521	2.71718522487208	2	1	NaN	3023235.3199427	NaN	3023236.3033433	3023236.81988188
53	20	0	0	90	36.1581920903955	36.241610738255	25	0.8334233998321	2	6	1	NaN	1	5	0.124892836072298	1	1	NaN	39	1	39	2	121	221	321	NaN	521	0.29965357715264	1	1	NaN	3023240.353771	NaN	3023241.3371631	3023241.85371142
53	20	0	0	90	36.1581920903955	36.241610738255	11	0.366706295926124	2	9	3	NaN	2	4	0.124892836072298	1	1	NaN	40	1	40	2	121	221	321	NaN	521	0.147481524851173	2	1	NaN	3023242.9538882	NaN	3023243.9374093	3023244.45396458
53	20	0	0	90	36.1581920903955	36.241610738255	0	0	1	3	6	NaN	1	3	0.124892836072298	1	1	NaN	41	1	41	2	111	211	311	NaN	511	2.54402627702802	1	1	NaN	3023245.4209289	NaN	3023246.4043634	3023246.92087862
53	20	0	0	90	36.1581920903955	36.241610738255	10	0.33336935993284	2	5	6	NaN	1	3	0.124892836072298	1	1	NaN	42	1	42	2	121	221	321	NaN	521	0.357160177081823	1	1	NaN	3023250.2880716	NaN	3023251.2715087	3023251.78801862
53	20	0	0	90	36.1581920903955	36.241610738255	23	0.766749527845532	2	1	3	NaN	1	5	0.124892836072298	1	1	NaN	43	1	43	2	121	221	321	NaN	521	0.626317277085036	1	1	NaN	3023252.9549988	NaN	3023253.9384161	3023254.45494642
53	20	0	0	90	36.1581920903955	36.241610738255	13	0.433380167912692	2	4	3	NaN	1	3	0.124892836072298	1	1	NaN	44	1	44	2	121	221	321	NaN	521	2.6684907246381	1	1	NaN	3023255.8886266	NaN	3023256.8720268	3023257.38858588
53	20	0	0	90	36.1581920903955	36.241610738255	10	0.33336935993284	2	10	1	NaN	2	3	0.124892836072298	1	1	NaN	45	1	45	2	121	221	321	NaN	521	0.124905776698142	2	1	NaN	3023260.8724826	NaN	3023261.8558543	3023262.37239212
53	20	0	0	90	36.1581920903955	36.241610738255	11	0.366706295926124	2	10	2	NaN	2	4	0.124892836072298	1	1	NaN	46	1	46	2	121	221	321	NaN	521	2.35526312096044	2	1	NaN	3023263.3060115	NaN	3023264.2894809	3023264.80596318
53	20	0	0	90	36.1581920903955	36.241610738255	13	0.433380167912692	2	8	3	NaN	2	4	0.124892836072298	1	1	NaN	47	1	47	2	121	221	321	NaN	521	0.487967024557292	2	1	NaN	3023267.9730221	NaN	3023268.9565567	3023269.47308928
53	20	0	0	90	36.1581920903955	36.241610738255	17	0.566727911885828	2	5	5	NaN	1	4	0.124892836072298	1	1	NaN	48	1	48	2	121	221	321	NaN	521	0.216059525031596	1	1	NaN	3023270.7734156	NaN	3023271.7568507	3023272.27336258
53	20	0	0	90	36.1581920903955	36.241610738255	8	0.266695487946272	2	3	4	NaN	1	4	0.124892836072298	1	1	NaN	49	1	49	2	121	221	321	NaN	521	0.386107577010989	1	1	NaN	3023273.3070055	NaN	3023274.290412	3023274.80695342
53	20	0	0	90	36.1581920903955	36.241610738255	23	0.766749527845532	2	5	3	NaN	1	3	0.124892836072298	1	1	NaN	50	1	50	2	121	221	321	NaN	521	1.34978457679972	1	1	NaN	3023276.0072619	NaN	3023276.9906685	3023277.50721392
53	20	0	0	90	36.1581920903955	36.241610738255	23	0.766749527845532	2	3	5	NaN	1	5	0.124892836072298	1	1	NaN	51	1	51	2	121	221	321	NaN	521	0.315229177009314	1	1	NaN	3023279.6742977	NaN	3023280.657707	3023281.17424802
53	20	0	0	90	36.1581920903955	36.241610738255	0	0	1	4	6	NaN	1	5	0.124892836072298	1	1	NaN	52	1	52	2	111	211	311	NaN	511	2.93790977681056	2	0	NaN	3023282.2912293	NaN	3023283.2746625	3023283.79116592
53	20	0	0	90	36.1581920903955	36.241610738255	16	0.533390975892544	2	11	3	NaN	2	5	0.124892836072298	1	1	NaN	53	1	53	2	121	221	321	NaN	521	0.623371280729771	2	1	NaN	3023287.5417524	NaN	3023288.5251408	3023289.04168652
53	20	0	0	90	36.1581920903955	36.241610738255	16	0.533390975892544	2	4	4	NaN	1	5	0.124892836072298	1	1	NaN	54	1	54	2	121	221	321	NaN	521	4.25030172476545	1	1	NaN	3023290.4752286	NaN	3023291.4587546	3023291.97530338
53	20	0	0	90	36.1581920903955	36.241610738255	21	0.700075655858964	2	11	5	NaN	2	4	0.124892836072298	1	1	NaN	55	1	55	2	121	221	321	NaN	521	0.106672744266689	2	1	NaN	3023297.0426745	NaN	3023298.0260593	3023298.54261976
53	20	0	0	90	36.1581920903955	36.241610738255	18	0.600064847879112	2	5	4	NaN	1	4	0.124892836072298	1	1	NaN	56	1	56	2	121	221	321	NaN	521	1.63358527701348	1	1	NaN	3023299.4594623	NaN	3023300.4429644	3023300.95951702
53	20	0	0	90	36.1581920903955	36.241610738255	17	0.566727911885828	2	7	5	NaN	2	5	0.124892836072298	1	1	NaN	57	1	57	2	121	221	321	NaN	521	0.219486324582249	2	1	NaN	3023303.4099567	NaN	3023304.3933712	3023304.90990928
53	20	0	0	90	36.1581920903955	36.241610738255	17	0.566727911885828	2	4	3	NaN	1	5	0.124892836072298	1	1	NaN	58	1	58	2	121	221	321	NaN	521	2.52587902499363	1	1	NaN	3023305.9435495	NaN	3023306.9269408	3023307.44348628
53	20	0	0	90	36.1581920903955	36.241610738255	15	0.50005403989926	2	6	1	NaN	1	4	0.124892836072298	1	1	NaN	59	1	59	2	121	221	321	NaN	521	0.308169276919216	1	1	NaN	3023310.7773543	NaN	3023311.760752	3023312.27730012
53	20	0	0	90	36.1581920903955	36.241610738255	13	0.433380167912692	2	1	2	NaN	1	4	0.124892836072298	1	1	NaN	60	1	60	2	121	221	321	NaN	521	0.22182902507484	1	1	NaN	3023313.7275138	NaN	3023314.7110678	3023315.22758987
53	20	0	0	90	36.1581920903955	36.241610738255	13	0.433380167912692	2	5	3	NaN	1	4	0.124892836072298	1	1	NaN	61	1	61	2	121	221	321	NaN	521	0.144082028418779	1	1	NaN	3023316.2612135	NaN	3023317.2446504	3023317.76117877
53	20	0	0	90	36.1581920903955	36.241610738255	16	0.533390975892544	2	10	2	NaN	2	5	0.124892836072298	1	1	NaN	62	1	62	2	121	221	321	NaN	521	6.58185632852837	2	1	NaN	3023318.7114706	NaN	3023319.694906	3023320.21141857
53	20	0	0	90	36.1581920903955	36.241610738255	6	0.200021615959704	2	3	1	NaN	1	5	0.124892836072298	1	1	NaN	63	1	63	2	121	221	321	NaN	521	0.232854925096035	2	0	NaN	3023327.6123319	NaN	3023328.5957396	3023329.11228018
53	20	0	0	90	36.1581920903955	36.241610738255	24	0.800086463838816	2	2	1	NaN	1	4	0.124892836072298	1	1	NaN	64	2	1	2	121	221	321	NaN	521	0.310974876862019	1	1	NaN	3023355.5984428	NaN	3023356.5818208	3023357.09837362
53	20	0	0	90	36.1581920903955	36.241610738255	12	0.400043231919408	2	4	6	NaN	1	4	0.124892836072298	1	1	NaN	65	2	2	2	121	221	321	NaN	521	0.269108028616756	1	1	NaN	3023358.232006	NaN	3023359.2154405	3023359.73195817
53	20	0	0	90	36.1581920903955	36.241610738255	6	0.200021615959704	2	4	6	NaN	1	3	0.124892836072298	1	1	NaN	66	2	3	2	121	221	321	NaN	521	0.101718829013407	1	1	NaN	3023360.8156092	NaN	3023361.7989959	3023362.31555207
53	20	0	0	90	36.1581920903955	36.241610738255	11	0.366706295926124	2	3	3	NaN	1	5	0.124892836072298	1	1	NaN	67	2	4	2	121	221	321	NaN	521	1.57256167661399	1	1	NaN	3023363.2325062	NaN	3023364.2158914	3023364.73244402
53	20	0	0	90	36.1581920903955	36.241610738255	25	0.8334233998321	2	1	6	NaN	1	5	0.124892836072298	1	1	NaN	68	2	5	2	121	221	321	NaN	521	0.329263225197792	1	1	NaN	3023367.1162224	NaN	3023368.0996209	3023368.61616387
53	20	0	0	90	36.1581920903955	36.241610738255	6	0.200021615959704	2	7	4	NaN	2	4	0.124892836072298	1	1	NaN	69	2	6	2	121	221	321	NaN	521	0.159527777228504	2	1	NaN	3023369.7498069	NaN	3023370.7332089	3023371.24975292
53	20	0	0	90	36.1581920903955	36.241610738255	23	0.766749527845532	2	9	5	NaN	2	3	0.124892836072298	1	1	NaN	70	2	7	2	121	221	321	NaN	521	0.252639924641699	2	1	NaN	3023372.2167275	NaN	3023373.2001435	3023373.71666448
53	20	0	0	90	36.1581920903955	36.241610738255	13	0.433380167912692	2	10	2	NaN	2	4	0.124892836072298	1	1	NaN	71	2	8	2	121	221	321	NaN	521	0.254395928699523	2	1	NaN	3023374.9669779	NaN	3023375.9503948	3023376.46694407
53	20	0	0	90	36.1581920903955	36.241610738255	8	0.266695487946272	2	4	5	NaN	1	5	0.124892836072298	1	1	NaN	72	2	9	2	121	221	321	NaN	521	0.247466477099806	1	1	NaN	3023377.533915	NaN	3023378.5172958	3023379.03385962
53	20	0	0	90	36.1581920903955	36.241610738255	8	0.266695487946272	2	5	5	NaN	1	3	0.124892836072298	1	1	NaN	73	2	10	2	121	221	321	NaN	521	2.28841822873801	2	0	NaN	3023380.1008371	NaN	3023381.0842433	3023381.60077887
53	20	0	0	90	36.1581920903955	36.241610738255	11	0.366706295926124	2	5	4	NaN	1	5	0.124892836072298	1	1	NaN	74	2	11	2	121	221	321	NaN	521	0.359999916981906	1	1	NaN	3023384.7012672	NaN	3023385.684672	3023386.20122988
53	20	0	0	90	36.1581920903955	36.241610738255	11	0.366706295926124	2	6	5	NaN	1	5	0.124892836072298	1	1	NaN	75	2	12	2	121	221	321	NaN	521	2.81313012866303	1	1	NaN	3023387.3682044	NaN	3023388.3516007	3023388.86816067
53	20	0	0	90	36.1581920903955	36.241610738255	17	0.566727911885828	2	11	1	NaN	2	4	0.124892836072298	1	1	NaN	76	2	13	2	121	221	321	NaN	521	0.279605228453875	2	1	NaN	3023392.5020365	NaN	3023393.485453	3023394.00199727
53	20	0	0	90	36.1581920903955	36.241610738255	10	0.33336935993284	2	1	3	NaN	1	3	0.124892836072298	1	1	NaN	77	2	14	2	121	221	321	NaN	521	0.319458873011172	1	1	NaN	3023395.1023005	NaN	3023396.0857407	3023396.60224513
53	20	0	0	90	36.1581920903955	36.241610738255	16	0.533390975892544	2	9	1	NaN	2	5	0.124892836072298	1	1	NaN	78	2	15	2	121	221	321	NaN	521	0.485474124550819	2	1	NaN	3023397.7358854	NaN	3023398.7193193	3023399.23583908
53	20	0	0	90	36.1581920903955	36.241610738255	8	0.266695487946272	2	8	2	NaN	2	5	0.124892836072298	1	1	NaN	79	2	16	2	121	221	321	NaN	521	0.213232244364917	2	1	NaN	3023400.5361536	NaN	3023401.5195619	3023402.03612726
53	20	0	0	90	36.1581920903955	36.241610738255	9	0.300032423939556	2	3	6	NaN	1	3	0.124892836072298	1	1	NaN	80	2	17	2	121	221	321	NaN	521	1.84824987687171	1	1	NaN	3023403.0530685	NaN	3023404.0364966	3023404.55303032
53	20	0	0	90	36.1581920903955	36.241610738255	10	0.33336935993284	2	4	5	NaN	1	3	0.124892836072298	1	1	NaN	81	2	18	2	121	221	321	NaN	521	0.433514877222478	1	1	NaN	3023407.220182	NaN	3023408.2035568	3023408.72012462
53	20	0	0	90	36.1581920903955	36.241610738255	21	0.700075655858964	2	11	5	NaN	2	3	0.124892836072298	1	1	NaN	82	2	19	2	121	221	321	NaN	521	1.21889212494716	2	1	NaN	3023409.9704194	NaN	3023410.9538207	3023411.47037888
53	20	0	0	90	36.1581920903955	36.241610738255	10	0.33336935993284	2	11	5	NaN	2	5	0.124892836072298	1	1	NaN	83	2	20	2	121	221	321	NaN	521	3.09311212832108	2	1	NaN	3023413.5040052	NaN	3023414.4874938	3023415.00406137
53	20	0	0	90	36.1581920903955	36.241610738255	17	0.566727911885828	2	1	4	NaN	1	5	0.124892836072298	1	1	NaN	84	2	21	2	121	221	321	NaN	521	0.29297182848677	1	1	NaN	3023418.9046427	NaN	3023419.8880261	3023420.40459067
53	20	0	0	90	36.1581920903955	36.241610738255	6	0.200021615959704	2	12	6	NaN	2	3	0.124892836072298	1	1	NaN	85	2	22	2	121	221	321	NaN	521	0.148185276892036	2	1	NaN	3023421.5048922	NaN	3023422.4883049	3023423.00484342
53	20	0	0	90	36.1581920903955	36.241610738255	0	0	1	5	5	NaN	1	5	0.124892836072298	1	1	NaN	86	2	23	2	111	211	311	NaN	511	0.857601377181709	1	1	NaN	3023423.9717948	NaN	3023424.9552116	3023425.47175642
53	20	0	0	90	36.1581920903955	36.241610738255	12	0.400043231919408	2	2	4	NaN	1	3	0.124892836072298	1	1	NaN	87	2	24	2	121	221	321	NaN	521	0.234863424673676	1	1	NaN	3023427.1387739	NaN	3023428.1221714	3023428.63872088
53	20	0	0	90	36.1581920903955	36.241610738255	25	0.8334233998321	2	9	1	NaN	2	5	0.124892836072298	1	1	NaN	88	2	25	2	121	221	321	NaN	521	2.1722115771845	2	1	NaN	3023429.6890188	NaN	3023430.6724419	3023431.18897282
53	20	0	0	90	36.1581920903955	36.241610738255	12	0.400043231919408	2	4	2	NaN	1	3	0.124892836072298	1	1	NaN	89	2	26	2	121	221	321	NaN	521	0.256529476959258	2	0	NaN	3023434.1727912	NaN	3023435.1562193	3023435.67274502
53	20	0	0	90	36.1581920903955	36.241610738255	25	0.8334233998321	2	8	1	NaN	2	5	0.124892836072298	1	1	NaN	90	2	27	2	121	221	321	NaN	521	0.745755476877093	2	1	NaN	3023436.7396666	NaN	3023437.7231279	3023438.23966742
53	20	0	0	90	36.1581920903955	36.241610738255	9	0.300032423939556	2	10	1	NaN	2	4	0.124892836072298	1	1	NaN	91	2	28	2	121	221	321	NaN	521	0.270776924677193	2	1	NaN	3023439.8066919	NaN	3023440.7900921	3023441.30663188
53	20	0	0	90	36.1581920903955	36.241610738255	21	0.700075655858964	2	5	3	NaN	1	4	0.124892836072298	1	1	NaN	92	2	29	2	121	221	321	NaN	521	0.447148228529841	1	1	NaN	3023442.3901563	NaN	3023443.3737189	3023443.89022307
53	20	0	0	90	36.1581920903955	36.241610738255	24	0.800086463838816	2	8	5	NaN	2	4	0.124892836072298	1	1	NaN	93	2	30	2	121	221	321	NaN	521	0.272563577163965	2	1	NaN	3023445.1571986	NaN	3023446.1406117	3023446.65715692
53	20	0	0	90	36.1581920903955	36.241610738255	12	0.400043231919408	2	6	2	NaN	1	4	0.124892836072298	1	1	NaN	94	2	31	2	121	221	321	NaN	521	0.136695528868586	1	1	NaN	3023447.7408096	NaN	3023448.724195	3023449.24074657
53	20	0	0	90	36.1581920903955	36.241610738255	9	0.300032423939556	2	6	2	NaN	1	5	0.124892836072298	1	1	NaN	95	2	32	2	121	221	321	NaN	521	0.278423876967281	1	1	NaN	3023450.1910352	NaN	3023451.1744449	3023451.69098262
53	20	0	0	90	36.1581920903955	36.241610738255	21	0.700075655858964	2	9	4	NaN	2	5	0.124892836072298	1	1	NaN	96	2	33	2	121	221	321	NaN	521	0.519058528356254	2	1	NaN	3023452.7745138	NaN	3023453.7580283	3023454.27458027
53	20	0	0	90	36.1581920903955	36.241610738255	20	0.66673871986568	2	1	1	NaN	1	3	0.124892836072298	1	1	NaN	97	2	34	2	121	221	321	NaN	521	4.43681572470814	1	1	NaN	3023455.6082317	NaN	3023456.5916501	3023457.10818988
53	20	0	0	90	36.1581920903955	36.241610738255	14	0.466717103905976	2	1	5	NaN	1	5	0.124892836072298	1	1	NaN	98	2	35	2	121	221	321	NaN	521	0.350924177095294	1	1	NaN	3023462.3589094	NaN	3023463.3423524	3023463.85884782
53	20	0	0	90	36.1581920903955	36.241610738255	25	0.8334233998321	2	7	2	NaN	2	5	0.124892836072298	1	1	NaN	99	2	36	2	121	221	321	NaN	521	0.315935320686549	2	1	NaN	3023465.0256816	NaN	3023466.0092297	3023466.52578148
53	20	0	0	90	36.1581920903955	36.241610738255	14	0.466717103905976	2	7	1	NaN	2	3	0.124892836072298	1	1	NaN	100	2	37	2	121	221	321	NaN	521	2.73804457718506	2	1	NaN	3023467.6594271	NaN	3023468.6428228	3023469.15938362
53	20	0	0	90	36.1581920903955	36.241610738255	8	0.266695487946272	2	2	5	NaN	1	5	0.124892836072298	1	1	NaN	101	2	38	2	121	221	321	NaN	521	0.71953237708658	1	1	NaN	3023472.7099085	NaN	3023473.6933601	3023474.20986082
53	20	0	0	90	36.1581920903955	36.241610738255	9	0.300032423939556	2	1	6	NaN	1	4	0.124892836072298	1	1	NaN	102	2	39	2	121	221	321	NaN	521	7.48579697683454	1	1	NaN	3023475.7435403	NaN	3023476.7269586	3023477.24349532
53	20	0	0	90	36.1581920903955	36.241610738255	11	0.366706295926124	2	4	3	NaN	1	5	0.124892836072298	1	1	NaN	103	2	40	2	121	221	321	NaN	521	0.260916024912149	1	1	NaN	3023485.5444063	NaN	3023486.5279042	3023487.04445438
53	20	0	0	90	36.1581920903955	36.241610738255	14	0.466717103905976	2	8	3	NaN	2	5	0.124892836072298	1	1	NaN	104	2	41	2	121	221	321	NaN	521	0.213328276760876	2	1	NaN	3023488.1280522	NaN	3023489.1115048	3023489.62805302
53	20	0	0	90	36.1581920903955	36.241610738255	8	0.266695487946272	2	6	3	NaN	1	3	0.124892836072298	1	1	NaN	105	2	42	2	121	221	321	NaN	521	0.23190157674253	1	1	NaN	3023490.6616918	NaN	3023491.6450794	3023492.16163752
53	20	0	0	90	36.1581920903955	36.241610738255	21	0.700075655858964	2	1	2	NaN	1	3	0.124892836072298	1	1	NaN	106	2	43	2	121	221	321	NaN	521	0.210214776918292	1	1	NaN	3023493.1951858	NaN	3023494.1786556	3023494.69521312
53	20	0	0	90	36.1581920903955	36.241610738255	20	0.66673871986568	2	11	2	NaN	2	5	0.124892836072298	1	1	NaN	107	2	44	2	121	221	321	NaN	521	2.34942577686161	2	1	NaN	3023495.7120463	NaN	3023496.6955702	3023497.21212532
53	20	0	0	90	36.1581920903955	36.241610738255	12	0.400043231919408	2	11	5	NaN	2	5	0.124892836072298	1	1	NaN	108	2	45	2	121	221	321	NaN	521	0.274104977026582	2	1	NaN	3023500.3792989	NaN	3023501.3627127	3023501.87925432
53	20	0	0	90	36.1581920903955	36.241610738255	11	0.366706295926124	2	8	3	NaN	2	3	0.124892836072298	1	1	NaN	109	2	46	2	121	221	321	NaN	521	0.298904144205153	2	1	NaN	3023502.9628845	NaN	3023503.946283	3023504.46284756
53	20	0	0	90	36.1581920903955	36.241610738255	19	0.633401783872396	2	12	2	NaN	2	3	0.124892836072298	1	1	NaN	110	2	47	2	121	221	321	NaN	521	2.29768807720393	2	1	NaN	3023505.5798105	NaN	3023506.563223	3023507.07975842
53	20	0	0	90	36.1581920903955	36.241610738255	12	0.400043231919408	2	12	2	NaN	2	5	0.124892836072298	1	1	NaN	111	2	48	2	121	221	321	NaN	521	0.248950676992536	2	1	NaN	3023510.1969289	NaN	3023511.1803559	3023511.69687582
53	20	0	0	90	36.1581920903955	36.241610738255	0	0	1	4	3	NaN	1	3	0.124892836072298	1	1	NaN	112	2	49	2	111	211	311	NaN	511	0.210018376819789	1	1	NaN	3023512.7638485	NaN	3023513.747242	3023514.26379432
53	20	0	0	90	36.1581920903955	36.241610738255	11	0.366706295926124	2	6	4	NaN	1	4	0.124892836072298	1	1	NaN	113	2	50	2	121	221	321	NaN	521	3.16513357684016	1	1	NaN	3023515.2807681	NaN	3023516.2642318	3023516.78071562
53	20	0	0	90	36.1581920903955	36.241610738255	23	0.766749527845532	2	8	1	NaN	2	4	0.124892836072298	1	1	NaN	114	2	51	2	121	221	321	NaN	521	0.264837624505162	2	1	NaN	3023520.7646409	NaN	3023521.7480387	3023522.26458058
53	20	0	0	90	36.1581920903955	36.241610738255	16	0.533390975892544	2	7	4	NaN	2	5	0.124892836072298	1	1	NaN	115	2	52	2	121	221	321	NaN	521	0.473261792212725	2	1	NaN	3023523.348103	NaN	3023524.3316245	3023524.84818001
53	20	0	0	90	36.1581920903955	36.241610738255	9	0.300032423939556	2	2	2	NaN	1	4	0.124892836072298	1	1	NaN	116	2	53	2	121	221	321	NaN	521	0.281963092274964	1	1	NaN	3023526.1318237	NaN	3023527.1152737	3023527.63178551
53	20	0	0	90	36.1581920903955	36.241610738255	18	0.600064847879112	2	11	4	NaN	2	5	0.124892836072298	1	1	NaN	117	2	54	2	121	221	321	NaN	521	0.346755077131093	2	1	NaN	3023528.8987422	NaN	3023529.8821623	3023530.39871132
53	20	0	0	90	36.1581920903955	36.241610738255	14	0.466717103905976	2	1	1	NaN	1	3	0.124892836072298	1	1	NaN	118	2	55	2	121	221	321	NaN	521	1.78586452873424	1	1	NaN	3023555.868073	NaN	3023556.8514667	3023557.36803917
53	20	0	0	90	36.1581920903955	36.241610738255	14	0.466717103905976	2	3	2	NaN	1	4	0.124892836072298	1	1	NaN	119	2	56	2	121	221	321	NaN	521	0.293450124561787	1	1	NaN	3023559.9685191	NaN	3023560.9519152	3023561.46843758
53	20	0	0	90	36.1581920903955	36.241610738255	24	0.800086463838816	2	6	4	NaN	1	5	0.124892836072298	1	1	NaN	120	2	57	2	121	221	321	NaN	521	0.236772025004029	1	1	NaN	3023562.5687743	NaN	3023563.5521585	3023564.06869848
53	20	0	0	90	36.1581920903955	36.241610738255	13	0.433380167912692	2	3	3	NaN	1	3	0.124892836072298	1	1	NaN	121	2	58	2	121	221	321	NaN	521	2.87824087683111	1	1	NaN	3023565.1188753	NaN	3023566.1024477	3023566.61893602
53	20	0	0	90	36.1581920903955	36.241610738255	22	0.733412591852248	2	12	1	NaN	2	5	0.124892836072298	1	1	NaN	122	2	59	2	121	221	321	NaN	521	2.01411697687581	1	0	NaN	3023570.31951	NaN	3023571.3029102	3023571.81944732
53	20	0	0	90	36.1581920903955	36.241610738255	22	0.733412591852248	2	6	6	NaN	1	4	0.124892836072298	1	1	NaN	123	2	60	2	121	221	321	NaN	521	0.304305225145072	1	1	NaN	3023574.6531851	NaN	3023575.6366671	3023576.15320488
53	20	0	0	90	36.1581920903955	36.241610738255	17	0.566727911885828	2	8	5	NaN	2	4	0.124892836072298	1	1	NaN	124	2	61	2	121	221	321	NaN	521	0.175858924631029	2	1	NaN	3023577.2700759	NaN	3023578.2535891	3023578.77013988
53	20	0	0	90	36.1581920903955	36.241610738255	6	0.200021615959704	2	6	5	NaN	1	3	0.124892836072298	1	1	NaN	125	2	62	2	121	221	321	NaN	521	0.339778025168926	1	1	NaN	3023579.7536433	NaN	3023580.7370611	3023581.25370668
53	20	0	0	90	36.1581920903955	36.241610738255	8	0.266695487946272	2	1	1	NaN	1	3	0.124892836072298	1	1	NaN	126	2	63	2	121	221	321	NaN	521	0.193576076999307	1	1	NaN	3023582.4040188	NaN	3023583.3874301	3023583.90397532
53	20	0	0	90	36.1581920903955	36.241610738255	13	0.433380167912692	2	11	4	NaN	2	4	0.124892836072298	1	1	NaN	127	3	1	2	121	221	321	NaN	521	0.278961076866835	2	1	NaN	3023637.3427689	NaN	3023638.3261565	3023638.84270672
53	20	0	0	90	36.1581920903955	36.241610738255	20	0.66673871986568	2	1	4	NaN	1	3	0.124892836072298	1	1	NaN	128	3	2	2	121	221	321	NaN	521	0.278760677203536	1	1	NaN	3023639.9430511	NaN	3023640.9264417	3023641.44295832
53	20	0	0	90	36.1581920903955	36.241610738255	17	0.566727911885828	2	6	2	NaN	1	4	0.124892836072298	1	1	NaN	129	3	3	2	121	221	321	NaN	521	0.292943976819515	1	1	NaN	3023642.9766402	NaN	3023643.9600181	3023644.47658582
53	20	0	0	90	36.1581920903955	36.241610738255	9	0.300032423939556	2	8	6	NaN	2	5	0.124892836072298	1	1	NaN	130	3	4	2	121	221	321	NaN	521	0.245092024561018	2	1	NaN	3023645.5769945	NaN	3023646.5602946	3023647.07684888
53	20	0	0	90	36.1581920903955	36.241610738255	17	0.566727911885828	2	3	1	NaN	1	4	0.124892836072298	1	1	NaN	131	3	5	2	121	221	321	NaN	521	2.24649729207158	1	1	NaN	3023648.1271276	NaN	3023649.1105259	3023649.62709351
53	20	0	0	90	36.1581920903955	36.241610738255	16	0.533390975892544	2	12	5	NaN	2	3	0.124892836072298	1	1	NaN	132	3	6	2	121	221	321	NaN	521	0.248541776556522	2	1	NaN	3023652.677587	NaN	3023653.6610001	3023654.17754192
53	20	0	0	90	36.1581920903955	36.241610738255	15	0.50005403989926	2	12	6	NaN	2	3	0.124892836072298	1	1	NaN	133	3	7	2	121	221	321	NaN	521	0.225298876874149	2	1	NaN	3023655.2445449	NaN	3023656.2279063	3023656.74446142
53	20	0	0	90	36.1581920903955	36.241610738255	21	0.700075655858964	2	10	2	NaN	2	5	0.124892836072298	1	1	NaN	134	3	8	2	121	221	321	NaN	521	2.81098387716338	2	1	NaN	3023657.794777	NaN	3023658.7781483	3023659.29470452
53	20	0	0	90	36.1581920903955	36.241610738255	8	0.266695487946272	2	5	1	NaN	1	4	0.124892836072298	1	1	NaN	135	3	9	2	121	221	321	NaN	521	0.309776676818728	1	1	NaN	3023662.9118075	NaN	3023663.8953269	3023664.41187182
53	20	0	0	90	36.1581920903955	36.241610738255	20	0.66673871986568	2	6	3	NaN	1	5	0.124892836072298	1	1	NaN	136	3	10	2	121	221	321	NaN	521	0.236315976828337	1	1	NaN	3023665.5455288	NaN	3023666.5289573	3023667.04547252
53	20	0	0	90	36.1581920903955	36.241610738255	11	0.366706295926124	2	5	2	NaN	1	3	0.124892836072298	1	1	NaN	137	3	11	2	121	221	321	NaN	521	0.118074028287083	1	1	NaN	3023668.0958033	NaN	3023669.0791792	3023669.59571787
53	20	0	0	90	36.1581920903955	36.241610738255	15	0.50005403989926	2	2	1	NaN	1	3	0.124892836072298	1	1	NaN	138	3	12	2	121	221	321	NaN	521	2.98864187672734	1	1	NaN	3023670.5292074	NaN	3023671.5127484	3023672.02931302
53	20	0	0	90	36.1581920903955	36.241610738255	7	0.233358551952988	2	11	2	NaN	2	4	0.124892836072298	1	1	NaN	139	3	13	2	121	221	321	NaN	521	0.679933824576437	2	1	NaN	3023675.8298608	NaN	3023676.8132695	3023677.32980998
53	20	0	0	90	36.1581920903955	36.241610738255	20	0.66673871986568	2	8	6	NaN	2	4	0.124892836072298	1	1	NaN	140	3	14	2	121	221	321	NaN	521	1.49560397677124	2	1	NaN	3023678.830179	NaN	3023679.8135941	3023680.33010362
53	20	0	0	90	36.1581920903955	36.241610738255	8	0.266695487946272	2	8	1	NaN	2	4	0.124892836072298	1	1	NaN	141	3	15	2	121	221	321	NaN	521	0.271455977112055	2	1	NaN	3023682.6305305	NaN	3023683.6139462	3023684.13047422
53	20	0	0	90	36.1581920903955	36.241610738255	13	0.433380167912692	2	3	6	NaN	1	4	0.124892836072298	1	1	NaN	142	3	16	2	121	221	321	NaN	521	2.18363097729161	1	1	NaN	3023685.2141541	NaN	3023686.1975212	3023686.71407152
53	20	0	0	90	36.1581920903955	36.241610738255	8	0.266695487946272	2	12	2	NaN	2	5	0.124892836072298	1	1	NaN	143	3	17	2	121	221	321	NaN	521	0.363574172835797	2	1	NaN	3023689.7145692	NaN	3023690.6979575	3023691.21450653
53	20	0	0	90	36.1581920903955	36.241610738255	22	0.733412591852248	2	4	2	NaN	1	4	0.124892836072298	1	1	NaN	144	3	18	2	121	221	321	NaN	521	0.791218924801797	2	0	NaN	3023692.398163	NaN	3023693.3815742	3023693.89811698
53	20	0	0	90	36.1581920903955	36.241610738255	19	0.633401783872396	2	7	2	NaN	2	4	0.124892836072298	1	1	NaN	145	3	19	2	121	221	321	NaN	521	1.31524872872978	2	1	NaN	3023695.4984768	NaN	3023696.4818745	3023696.99841797
53	20	0	0	90	36.1581920903955	36.241610738255	6	0.200021615959704	2	8	4	NaN	2	4	0.124892836072298	1	1	NaN	146	3	20	2	121	221	321	NaN	521	0.385741873178631	2	1	NaN	3023699.1321665	NaN	3023700.1155534	3023700.63209463
53	20	0	0	90	36.1581920903955	36.241610738255	22	0.733412591852248	2	11	5	NaN	2	4	0.124892836072298	1	1	NaN	147	3	21	2	121	221	321	NaN	521	0.269459924660623	2	1	NaN	3023701.8324402	NaN	3023702.8158295	3023703.33236948
53	20	0	0	90	36.1581920903955	36.241610738255	8	0.266695487946272	2	4	1	NaN	1	3	0.124892836072298	1	1	NaN	148	3	22	2	121	221	321	NaN	521	2.06980072474107	1	1	NaN	3023704.4160107	NaN	3023705.3993997	3023705.91594648
53	20	0	0	90	36.1581920903955	36.241610738255	14	0.466717103905976	2	3	4	NaN	1	4	0.124892836072298	1	1	NaN	149	3	23	2	121	221	321	NaN	521	0.358045124914497	1	1	NaN	3023708.7997711	NaN	3023709.7831744	3023710.29971548
53	20	0	0	90	36.1581920903955	36.241610738255	11	0.366706295926124	2	11	4	NaN	2	4	0.124892836072298	1	1	NaN	150	3	24	2	121	221	321	NaN	521	0.283110477030277	2	1	NaN	3023711.4666262	NaN	3023712.4500935	3023712.96664022
53	20	0	0	90	36.1581920903955	36.241610738255	21	0.700075655858964	2	3	4	NaN	1	4	0.124892836072298	1	1	NaN	151	3	25	2	121	221	321	NaN	521	2.28275357699022	1	1	NaN	3023714.0669665	NaN	3023715.0503662	3023715.56689522
53	20	0	0	90	36.1581920903955	36.241610738255	0	0	1	6	2	NaN	1	4	0.124892836072298	1	1	NaN	152	3	26	2	111	211	311	NaN	511	0.354399188421667	1	1	NaN	3023718.6672877	NaN	3023719.6508013	3023720.16736161
53	20	0	0	90	36.1581920903955	36.241610738255	11	0.366706295926124	2	2	3	NaN	1	3	0.124892836072298	1	1	NaN	153	3	27	2	121	221	321	NaN	521	1.20766807673499	1	1	NaN	3023721.3343434	NaN	3023722.3178585	3023722.83428152
53	20	0	0	90	36.1581920903955	36.241610738255	19	0.633401783872396	2	8	2	NaN	2	3	0.124892836072298	1	1	NaN	154	3	28	2	121	221	321	NaN	521	0.322325624525547	2	1	NaN	3023724.8513406	NaN	3023725.8347496	3023726.35128988
53	20	0	0	90	36.1581920903955	36.241610738255	0	0	1	2	2	NaN	1	5	0.124892836072298	1	1	NaN	155	3	29	2	111	211	311	NaN	511	0.296999196056277	1	1	NaN	3023727.4850207	NaN	3023728.46835	3023728.9848998
53	20	0	0	90	36.1581920903955	36.241610738255	9	0.300032423939556	2	8	3	NaN	2	4	0.124892836072298	1	1	NaN	156	3	30	2	121	221	321	NaN	521	0.296555681154132	2	1	NaN	3023730.0851947	NaN	3023731.0685863	3023731.58515182
53	20	0	0	90	36.1581920903955	36.241610738255	15	0.50005403989926	2	11	3	NaN	2	5	0.124892836072298	1	1	NaN	157	3	31	2	121	221	321	NaN	521	2.35156487673521	2	1	NaN	3023732.7019867	NaN	3023733.6855044	3023734.20205952
53	20	0	0	90	36.1581920903955	36.241610738255	25	0.8334233998321	2	5	4	NaN	1	4	0.124892836072298	1	1	NaN	158	3	32	2	121	221	321	NaN	521	0.252670177258551	1	1	NaN	3023737.3692419	NaN	3023738.3526372	3023738.86918492
53	20	0	0	90	36.1581920903955	36.241610738255	16	0.533390975892544	2	1	3	NaN	1	4	0.124892836072298	1	1	NaN	159	3	33	2	121	221	321	NaN	521	0.198059524875134	1	1	NaN	3023739.9361664	NaN	3023740.9196154	3023741.43610128
53	20	0	0	90	36.1581920903955	36.241610738255	11	0.366706295926124	2	3	6	NaN	1	5	0.124892836072298	1	1	NaN	160	3	34	2	121	221	321	NaN	521	2.43271432863548	1	1	NaN	3023742.4530945	NaN	3023743.4364693	3023743.95302587
53	20	0	0	90	36.1581920903955	36.241610738255	21	0.700075655858964	2	8	4	NaN	2	3	0.124892836072298	1	1	NaN	161	3	35	2	121	221	321	NaN	521	0.162635873071849	2	1	NaN	3023747.2035331	NaN	3023748.1869471	3023748.70348073
53	20	0	0	90	36.1581920903955	36.241610738255	13	0.433380167912692	2	10	4	NaN	2	5	0.124892836072298	1	1	NaN	162	3	36	2	121	221	321	NaN	521	0.24778497684747	2	1	NaN	3023749.6704234	NaN	3023750.6538433	3023751.17039732
53	20	0	0	90	36.1581920903955	36.241610738255	9	0.300032423939556	2	2	3	NaN	1	4	0.124892836072298	1	1	NaN	163	3	37	2	121	221	321	NaN	521	0.240807977039367	1	1	NaN	3023752.2374029	NaN	3023753.2207981	3023753.73731822
53	20	0	0	90	36.1581920903955	36.241610738255	8	0.266695487946272	2	7	3	NaN	2	4	0.124892836072298	1	1	NaN	164	3	38	2	121	221	321	NaN	521	0.642044128850102	2	1	NaN	3023754.7876271	NaN	3023755.7710178	3023756.28757907
53	20	0	0	90	36.1581920903955	36.241610738255	25	0.8334233998321	2	6	5	NaN	1	3	0.124892836072298	1	1	NaN	165	3	39	2	121	221	321	NaN	521	3.25188128463924	2	0	NaN	3023757.7377807	NaN	3023758.7213048	3023759.23786582
53	20	0	0	90	36.1581920903955	36.241610738255	25	0.8334233998321	2	3	3	NaN	1	5	0.124892836072298	1	1	NaN	166	3	40	2	121	221	321	NaN	521	0.234693577047437	1	1	NaN	3023763.5550647	NaN	3023764.5385543	3023765.05509742
53	20	0	0	90	36.1581920903955	36.241610738255	16	0.533390975892544	2	11	2	NaN	2	3	0.124892836072298	1	1	NaN	167	3	41	2	121	221	321	NaN	521	2.06840834440663	1	0	NaN	3023766.1054046	NaN	3023767.0888154	3023767.60535606
53	20	0	0	90	36.1581920903955	36.241610738255	18	0.600064847879112	2	3	1	NaN	1	4	0.124892836072298	1	1	NaN	168	3	42	2	121	221	321	NaN	521	0.372568777296692	1	1	NaN	3023770.4891582	NaN	3023771.4725591	3023771.98910532
53	20	0	0	90	36.1581920903955	36.241610738255	14	0.466717103905976	2	10	5	NaN	2	5	0.124892836072298	1	1	NaN	169	3	43	2	121	221	321	NaN	521	2.04920188430697	2	1	NaN	3023773.1727277	NaN	3023774.1560549	3023774.67270772
53	20	0	0	90	36.1581920903955	36.241610738255	23	0.766749527845532	2	12	3	NaN	2	4	0.124892836072298	1	1	NaN	170	3	44	2	121	221	321	NaN	521	0.252918176818639	2	1	NaN	3023777.8730893	NaN	3023778.8566279	3023779.37316272
53	20	0	0	90	36.1581920903955	36.241610738255	21	0.700075655858964	2	6	1	NaN	1	5	0.124892836072298	1	1	NaN	171	3	45	2	121	221	321	NaN	521	2.26176357688382	1	1	NaN	3023780.4401374	NaN	3023781.4235313	3023781.94008102
53	20	0	0	90	36.1581920903955	36.241610738255	0	0	1	12	3	NaN	2	3	0.124892836072298	1	1	NaN	172	3	46	2	111	211	311	NaN	511	0.341956777032465	2	1	NaN	3023785.0239329	NaN	3023786.0073081	3023786.52386862
53	20	0	0	90	36.1581920903955	36.241610738255	21	0.700075655858964	2	7	5	NaN	2	4	0.124892836072298	1	1	NaN	173	3	47	2	121	221	321	NaN	521	0.260137176606804	2	1	NaN	3023787.674206	NaN	3023788.6575704	3023789.17412382
53	20	0	0	90	36.1581920903955	36.241610738255	22	0.733412591852248	2	10	5	NaN	2	3	0.124892836072298	1	1	NaN	174	3	48	2	121	221	321	NaN	521	1.98919487698004	2	1	NaN	3023790.2411435	NaN	3023791.2245341	3023791.74104862
53	20	0	0	90	36.1581920903955	36.241610738255	8	0.266695487946272	2	6	1	NaN	1	3	0.124892836072298	1	1	NaN	175	3	49	2	121	221	321	NaN	521	0.21636777697131	1	1	NaN	3023794.5415184	NaN	3023795.5249125	3023796.04146652
53	20	0	0	90	36.1581920903955	36.241610738255	17	0.566727911885828	2	3	2	NaN	1	5	0.124892836072298	1	1	NaN	176	3	50	2	121	221	321	NaN	521	0.458938024938107	1	1	NaN	3023797.0750973	NaN	3023798.058522	3023798.57504668
53	20	0	0	90	36.1581920903955	36.241610738255	23	0.766749527845532	2	7	2	NaN	2	4	0.124892836072298	1	1	NaN	177	3	51	2	121	221	321	NaN	521	2.4271247247234	2	1	NaN	3023799.8587097	NaN	3023800.8421569	3023801.35865368
53	20	0	0	90	36.1581920903955	36.241610738255	20	0.66673871986568	2	4	4	NaN	1	4	0.124892836072298	1	1	NaN	178	3	52	2	121	221	321	NaN	521	0.181454676669091	1	1	NaN	3023804.5925142	NaN	3023805.5759101	3023806.09245162
53	20	0	0	90	36.1581920903955	36.241610738255	22	0.733412591852248	2	7	1	NaN	2	4	0.124892836072298	1	1	NaN	179	3	53	2	121	221	321	NaN	521	0.41744787665084	2	1	NaN	3023807.0927647	NaN	3023808.0761525	3023808.59269682
53	20	0	0	90	36.1581920903955	36.241610738255	17	0.566727911885828	2	4	3	NaN	1	3	0.124892836072298	1	1	NaN	180	3	54	2	121	221	321	NaN	521	0.179702228400856	1	1	NaN	3023809.8262258	NaN	3023810.8097676	3023811.32630787
53	20	0	0	90	36.1581920903955	36.241610738255	11	0.366706295926124	2	2	5	NaN	1	3	0.124892836072298	1	1	NaN	181	3	55	2	121	221	321	NaN	521	0.239535976666957	1	1	NaN	3023812.326635	NaN	3023813.3099975	3023813.82654452
53	20	0	0	90	36.1581920903955	36.241610738255	25	0.8334233998321	2	4	4	NaN	1	3	0.124892836072298	1	1	NaN	182	3	56	2	121	221	321	NaN	521	0.113051684573293	1	1	NaN	3023814.8768528	NaN	3023815.8602542	3023816.37680242
53	20	0	0	90	36.1581920903955	36.241610738255	22	0.733412591852248	2	5	6	NaN	1	4	0.124892836072298	1	1	NaN	183	3	57	2	121	221	321	NaN	521	2.40009277686477	1	1	NaN	3023817.29375	NaN	3023818.277196	3023818.79369992
53	20	0	0	90	36.1581920903955	36.241610738255	11	0.366706295926124	2	1	6	NaN	1	5	0.124892836072298	1	1	NaN	184	3	58	2	121	221	321	NaN	521	0.219285024795681	1	1	NaN	3023822.010886	NaN	3023822.9942894	3023823.51082838
53	20	0	0	90	36.1581920903955	36.241610738255	18	0.600064847879112	2	9	2	NaN	2	3	0.124892836072298	1	1	NaN	185	3	59	2	121	221	321	NaN	521	1.29340377729386	2	1	NaN	3023824.5444592	NaN	3023825.527866	3023826.04441322
53	20	0	0	90	36.1581920903955	36.241610738255	18	0.600064847879112	2	2	1	NaN	1	3	0.124892836072298	1	1	NaN	186	3	60	2	121	221	321	NaN	521	0.517193724866956	1	1	NaN	3023828.1448411	NaN	3023829.1282278	3023829.64476428
53	20	0	0	90	36.1581920903955	36.241610738255	18	0.600064847879112	2	4	2	NaN	1	5	0.124892836072298	1	1	NaN	187	3	61	2	121	221	321	NaN	521	2.64344587689266	2	0	NaN	3023830.978452	NaN	3023831.96184	3023832.47837812
53	20	0	0	90	36.1581920903955	36.241610738255	23	0.766749527845532	2	12	1	NaN	2	5	0.124892836072298	1	1	NaN	188	3	62	2	121	221	321	NaN	521	0.165127228479832	2	1	NaN	3023835.9289253	NaN	3023836.9122232	3023837.42887147
53	20	0	0	90	36.1581920903955	36.241610738255	0	0	1	11	1	NaN	2	3	0.124892836072298	1	1	NaN	189	3	63	2	111	211	311	NaN	511	0.169634876772761	2	1	NaN	3023838.412494	NaN	3023839.3959386	3023839.91244462
53	20	0	0	90	36.1581920903955	36.241610738255	20	0.66673871986568	2	3	5	NaN	1	5	0.124892836072298	1	1	NaN	190	4	1	2	121	221	321	NaN	521	0.283020992297679	1	1	NaN	3023873.8992924	NaN	3023874.8827365	3023875.39927051
53	20	0	0	90	36.1581920903955	36.241610738255	18	0.600064847879112	2	8	4	NaN	2	4	0.124892836072298	1	1	NaN	191	4	2	2	121	221	321	NaN	521	2.53496962506324	2	1	NaN	3023878.5829909	NaN	3023879.5664974	3023880.08305298
53	20	0	0	90	36.1581920903955	36.241610738255	15	0.50005403989926	2	3	3	NaN	1	3	0.124892836072298	1	1	NaN	192	4	3	2	121	221	321	NaN	521	0.307711928617209	1	1	NaN	3023883.6502619	NaN	3023884.6337195	3023885.15022997
53	20	0	0	90	36.1581920903955	36.241610738255	7	0.233358551952988	2	7	5	NaN	2	4	0.124892836072298	1	1	NaN	193	4	4	2	121	221	321	NaN	521	3.4774363245815	2	1	NaN	3023887.2006584	NaN	3023888.1840219	3023888.70056608
53	20	0	0	90	36.1581920903955	36.241610738255	25	0.8334233998321	2	1	6	NaN	1	5	0.124892836072298	1	1	NaN	194	4	5	2	121	221	321	NaN	521	0.333603724837303	1	1	NaN	3023892.9844055	NaN	3023893.9679294	3023894.48447728
53	20	0	0	90	36.1581920903955	36.241610738255	21	0.700075655858964	2	5	3	NaN	1	4	0.124892836072298	1	1	NaN	195	4	6	2	121	221	321	NaN	521	0.235383477061987	1	1	NaN	3023895.63478	NaN	3023896.6180578	3023897.13472842
53	20	0	0	90	36.1581920903955	36.241610738255	23	0.766749527845532	2	6	2	NaN	1	5	0.124892836072298	1	1	NaN	196	4	7	2	121	221	321	NaN	521	0.292938524857163	1	1	NaN	3023898.1850498	NaN	3023899.168464	3023899.68499438
53	20	0	0	90	36.1581920903955	36.241610738255	6	0.200021615959704	2	2	4	NaN	1	4	0.124892836072298	1	1	NaN	197	4	8	2	121	221	321	NaN	521	1.93300562445074	1	1	NaN	3023900.7853738	NaN	3023901.7686881	3023902.28523438
53	20	0	0	90	36.1581920903955	36.241610738255	6	0.200021615959704	2	1	1	NaN	1	5	0.124892836072298	1	1	NaN	198	4	9	2	121	221	321	NaN	521	0.234744676854461	1	1	NaN	3023905.0357021	NaN	3023906.0191039	3023906.53565702
53	20	0	0	90	36.1581920903955	36.241610738255	21	0.700075655858964	2	2	3	NaN	1	5	0.124892836072298	1	1	NaN	199	4	10	2	121	221	321	NaN	521	1.47607157705352	2	0	NaN	3023907.5859659	NaN	3023908.5693572	3023909.08589872
53	20	0	0	90	36.1581920903955	36.241610738255	12	0.400043231919408	2	5	4	NaN	1	3	0.124892836072298	1	1	NaN	200	4	11	2	121	221	321	NaN	521	2.30834717303514	1	1	NaN	3023911.36977	NaN	3023912.3530897	3023912.86960413
53	20	0	0	90	36.1581920903955	36.241610738255	17	0.566727911885828	2	12	5	NaN	2	5	0.124892836072298	1	1	NaN	201	4	12	2	121	221	321	NaN	521	0.291584176942706	2	1	NaN	3023915.9867812	NaN	3023916.9701931	3023917.48673012
53	20	0	0	90	36.1581920903955	36.241610738255	16	0.533390975892544	2	8	4	NaN	2	5	0.124892836072298	1	1	NaN	202	4	13	2	121	221	321	NaN	521	5.97128747683018	2	1	NaN	3023918.5870289	NaN	3023919.5704474	3023920.08698322
53	20	0	0	90	36.1581920903955	36.241610738255	14	0.466717103905976	2	4	4	NaN	1	4	0.124892836072298	1	1	NaN	203	4	14	2	121	221	321	NaN	521	1.68701777653769	1	1	NaN	3023926.8711851	NaN	3023927.8545976	3023928.37112732
53	20	0	0	90	36.1581920903955	36.241610738255	12	0.400043231919408	2	3	2	NaN	1	3	0.124892836072298	1	1	NaN	204	4	15	2	121	221	321	NaN	521	0.318638124968857	1	1	NaN	3023930.8715625	NaN	3023931.8549672	3023932.37153157
53	20	0	0	90	36.1581920903955	36.241610738255	20	0.66673871986568	2	9	3	NaN	2	3	0.124892836072298	1	1	NaN	205	4	16	2	121	221	321	NaN	521	0.652990576811135	1	0	NaN	3023933.5051777	NaN	3023934.4886284	3023935.00511972
53	20	0	0	90	36.1581920903955	36.241610738255	16	0.533390975892544	2	12	4	NaN	2	3	0.124892836072298	1	1	NaN	206	4	17	2	121	221	321	NaN	521	4.25387342879549	2	1	NaN	3023936.4720796	NaN	3023937.4555242	3023937.97208037
53	20	0	0	90	36.1581920903955	36.241610738255	21	0.700075655858964	2	3	4	NaN	1	5	0.124892836072298	1	1	NaN	207	4	18	2	121	221	321	NaN	521	0.316915925126523	1	1	NaN	3023943.0893628	NaN	3023944.0728538	3023944.58938708
53	20	0	0	90	36.1581920903955	36.241610738255	14	0.466717103905976	2	12	1	NaN	2	5	0.124892836072298	1	1	NaN	208	4	19	2	121	221	321	NaN	521	0.187477773055434	2	1	NaN	3023945.7230252	NaN	3023946.7064497	3023947.22297943
53	20	0	0	90	36.1581920903955	36.241610738255	24	0.800086463838816	2	4	4	NaN	1	4	0.124892836072298	1	1	NaN	209	4	20	2	121	221	321	NaN	521	0.734884276986122	2	0	NaN	3023948.2232872	NaN	3023949.2067202	3023949.72323012
53	20	0	0	90	36.1581920903955	36.241610738255	15	0.50005403989926	2	9	6	NaN	2	3	0.124892836072298	1	1	NaN	210	4	21	2	121	221	321	NaN	521	0.388360324781388	2	1	NaN	3023951.2735997	NaN	3023952.2569927	3023952.77352188
53	20	0	0	90	36.1581920903955	36.241610738255	15	0.50005403989926	2	4	1	NaN	1	5	0.124892836072298	1	1	NaN	211	4	22	2	121	221	321	NaN	521	2.2565277768299	1	1	NaN	3023953.9738397	NaN	3023954.9572462	3023955.47379012
53	20	0	0	90	36.1581920903955	36.241610738255	24	0.800086463838816	2	3	1	NaN	1	3	0.124892836072298	1	1	NaN	212	4	23	2	121	221	321	NaN	521	0.377191725187004	1	1	NaN	3023958.5409673	NaN	3023959.5243544	3023960.04091167
53	20	0	0	90	36.1581920903955	36.241610738255	6	0.200021615959704	2	9	4	NaN	2	4	0.124892836072298	1	1	NaN	213	4	24	2	121	221	321	NaN	521	0.325943228788674	2	1	NaN	3023961.2244621	NaN	3023962.2079571	3023962.72450817
53	20	0	0	90	36.1581920903955	36.241610738255	25	0.8334233998321	2	4	1	NaN	1	4	0.124892836072298	1	1	NaN	214	4	25	2	121	221	321	NaN	521	0.328243773430586	1	1	NaN	3023963.9581686	NaN	3023964.9415605	3023965.45810693
53	20	0	0	90	36.1581920903955	36.241610738255	19	0.633401783872396	2	1	6	NaN	1	5	0.124892836072298	1	1	NaN	215	4	26	2	121	221	321	NaN	521	2.36556672863662	1	1	NaN	3023966.608412	NaN	3023967.5918293	3023968.10836927
53	20	0	0	90	36.1581920903955	36.241610738255	9	0.300032423939556	2	4	6	NaN	1	3	0.124892836072298	1	1	NaN	216	4	27	2	121	221	321	NaN	521	0.241572176571935	1	1	NaN	3023971.2922212	NaN	3023972.2755988	3023972.79217252
53	20	0	0	90	36.1581920903955	36.241610738255	25	0.8334233998321	2	7	2	NaN	2	3	0.124892836072298	1	1	NaN	217	4	28	2	121	221	321	NaN	521	0.299288376700133	2	1	NaN	3023973.8424378	NaN	3023974.8258663	3023975.34241782
53	20	0	0	90	36.1581920903955	36.241610738255	20	0.66673871986568	2	2	5	NaN	1	5	0.124892836072298	1	1	NaN	218	4	29	2	121	221	321	NaN	521	2.55485257739201	1	1	NaN	3023976.459393	NaN	3023977.4427951	3023977.95933242
53	20	0	0	90	36.1581920903955	36.241610738255	0	0	1	7	2	NaN	2	3	0.124892836072298	1	1	NaN	219	4	30	2	111	211	311	NaN	511	0.943675884511322	2	1	NaN	3023981.3265321	NaN	3023982.3099406	3023982.82648232
53	20	0	0	90	36.1581920903955	36.241610738255	10	0.33336935993284	2	6	3	NaN	1	5	0.124892836072298	1	1	NaN	220	4	31	2	121	221	321	NaN	521	2.51463807653636	1	1	NaN	3023985.0435704	NaN	3023986.0269685	3023986.54350702
53	20	0	0	90	36.1581920903955	36.241610738255	7	0.233358551952988	2	9	3	NaN	2	3	0.124892836072298	1	1	NaN	221	4	32	2	121	221	321	NaN	521	0.257389728911221	2	1	NaN	3023989.8607235	NaN	3023990.844141	3023991.36065627
53	20	0	0	90	36.1581920903955	36.241610738255	7	0.233358551952988	2	3	1	NaN	1	5	0.124892836072298	1	1	NaN	222	4	33	2	121	221	321	NaN	521	0.218531924765557	1	1	NaN	3023992.4276372	NaN	3023993.411017	3023993.92757558
53	20	0	0	90	36.1581920903955	36.241610738255	15	0.50005403989926	2	8	2	NaN	2	4	0.124892836072298	1	1	NaN	223	4	34	2	121	221	321	NaN	521	0.540860624983907	2	1	NaN	3023994.9612411	NaN	3023995.9446078	3023996.46115377
53	20	0	0	90	36.1581920903955	36.241610738255	6	0.200021615959704	2	10	3	NaN	2	3	0.124892836072298	1	1	NaN	224	4	35	2	121	221	321	NaN	521	0.202812428586185	2	1	NaN	3023997.8115023	NaN	3023998.7948884	3023999.31142827
53	20	0	0	90	36.1581920903955	36.241610738255	8	0.266695487946272	2	3	3	NaN	1	5	0.124892836072298	1	1	NaN	225	4	36	2	121	221	321	NaN	521	2.40586857683957	1	1	NaN	3024000.3283948	NaN	3024001.3118496	3024001.82834072
53	20	0	0	90	36.1581920903955	36.241610738255	24	0.800086463838816	2	6	6	NaN	1	3	0.124892836072298	1	1	NaN	226	4	37	2	121	221	321	NaN	521	0.296330877114087	1	1	NaN	3024005.0621918	NaN	3024006.0456016	3024006.56215012
53	20	0	0	90	36.1581920903955	36.241610738255	13	0.433380167912692	2	4	3	NaN	1	3	0.124892836072298	1	1	NaN	227	4	38	2	121	221	321	NaN	521	2.50323891732842	1	1	NaN	3024007.6791214	NaN	3024008.6625326	3024009.17906438
53	20	0	0	90	36.1581920903955	36.241610738255	20	0.66673871986568	2	7	4	NaN	2	4	0.124892836072298	1	1	NaN	228	4	39	2	121	221	321	NaN	521	0.27828382467851	2	1	NaN	3024012.4962561	NaN	3024013.479663	3024013.99620408
53	20	0	0	90	36.1581920903955	36.241610738255	20	0.66673871986568	2	7	3	NaN	2	4	0.124892836072298	1	1	NaN	229	4	40	2	121	221	321	NaN	521	0.494329276960343	2	1	NaN	3024015.079856	NaN	3024016.0632619	3024016.57979772
53	20	0	0	90	36.1581920903955	36.241610738255	7	0.233358551952988	2	12	4	NaN	2	3	0.124892836072298	1	1	NaN	230	4	41	2	121	221	321	NaN	521	0.16533067682758	1	0	NaN	3024017.8967794	NaN	3024018.8801928	3024019.39675012
53	20	0	0	90	36.1581920903955	36.241610738255	10	0.33336935993284	2	4	6	NaN	1	4	0.124892836072298	1	1	NaN	231	4	42	2	121	221	321	NaN	521	0.802128977142274	2	0	NaN	3024020.3803868	NaN	3024021.3637741	3024021.88031942
53	20	0	0	90	36.1581920903955	36.241610738255	10	0.33336935993284	2	5	4	NaN	1	3	0.124892836072298	1	1	NaN	232	4	43	2	121	221	321	NaN	521	0.245217024814337	1	1	NaN	3024023.4974244	NaN	3024024.480793	3024024.99728408
53	20	0	0	90	36.1581920903955	36.241610738255	23	0.766749527845532	2	4	4	NaN	1	5	0.124892836072298	1	1	NaN	233	4	44	2	121	221	321	NaN	521	2.11081222863868	1	1	NaN	3024026.0476117	NaN	3024027.0310019	3024027.54754747
53	20	0	0	90	36.1581920903955	36.241610738255	18	0.600064847879112	2	4	4	NaN	1	3	0.124892836072298	1	1	NaN	234	4	45	2	121	221	321	NaN	521	0.22195482486859	1	1	NaN	3024030.4646829	NaN	3024031.4480918	3024031.96463558
53	20	0	0	90	36.1581920903955	36.241610738255	11	0.366706295926124	2	12	6	NaN	2	5	0.124892836072298	1	1	NaN	235	4	46	2	121	221	321	NaN	521	0.152069928590208	2	1	NaN	3024032.9981401	NaN	3024033.9816966	3024034.49822897
53	20	0	0	90	36.1581920903955	36.241610738255	15	0.50005403989926	2	5	6	NaN	1	5	0.124892836072298	1	1	NaN	236	4	47	2	121	221	321	NaN	521	0.189177573192865	1	1	NaN	3024035.4651732	NaN	3024036.4486109	3024036.96512833
53	20	0	0	90	36.1581920903955	36.241610738255	0	0	1	6	1	NaN	1	5	0.124892836072298	1	1	NaN	237	4	48	2	111	211	311	NaN	511	0.720721276942641	2	0	NaN	3024037.9653138	NaN	3024038.948839	3024039.46537162
53	20	0	0	90	36.1581920903955	36.241610738255	12	0.400043231919408	2	11	6	NaN	2	4	0.124892836072298	1	1	NaN	238	4	49	2	121	221	321	NaN	521	0.206896677147597	2	1	NaN	3024040.9990605	NaN	3024041.9824679	3024042.49900102
53	20	0	0	90	36.1581920903955	36.241610738255	17	0.566727911885828	2	6	3	NaN	1	4	0.124892836072298	1	1	NaN	239	4	50	2	121	221	321	NaN	521	1.77832382498309	1	1	NaN	3024043.515977	NaN	3024044.4993979	3024045.01592408
53	20	0	0	90	36.1581920903955	36.241610738255	23	0.766749527845532	2	10	5	NaN	2	4	0.124892836072298	1	1	NaN	240	4	51	2	121	221	321	NaN	521	0.261475417297333	2	1	NaN	3024047.6330679	NaN	3024048.6164482	3024049.13298268
53	20	0	0	90	36.1581920903955	36.241610738255	25	0.8334233998321	2	9	4	NaN	2	4	0.124892836072298	1	1	NaN	241	4	52	2	121	221	321	NaN	521	3.03763077687472	2	1	NaN	3024050.2166287	NaN	3024051.2000204	3024051.71658332
53	20	0	0	90	36.1581920903955	36.241610738255	12	0.400043231919408	2	3	4	NaN	1	3	0.124892836072298	1	1	NaN	242	4	53	2	121	221	321	NaN	521	0.207419577054679	1	1	NaN	3024055.5671679	NaN	3024056.5505671	3024057.06709922
53	20	0	0	90	36.1581920903955	36.241610738255	10	0.33336935993284	2	3	3	NaN	1	4	0.124892836072298	1	1	NaN	243	4	54	2	121	221	321	NaN	521	0.266186928376555	1	1	NaN	3024058.0840767	NaN	3024059.0674527	3024059.58402237
53	20	0	0	90	36.1581920903955	36.241610738255	23	0.766749527845532	2	10	5	NaN	2	3	0.124892836072298	1	1	NaN	244	4	55	2	121	221	321	NaN	521	2.42745872493833	2	1	NaN	3024060.6509921	NaN	3024061.6344019	3024062.15093418
53	20	0	0	90	36.1581920903955	36.241610738255	22	0.733412591852248	2	3	5	NaN	1	3	0.124892836072298	1	1	NaN	245	4	56	2	121	221	321	NaN	521	0.325526877306402	1	1	NaN	3024065.3847979	NaN	3024066.3681946	3024066.88473562
53	20	0	0	90	36.1581920903955	36.241610738255	8	0.266695487946272	2	11	4	NaN	2	5	0.124892836072298	1	1	NaN	246	4	57	2	121	221	321	NaN	521	3.4134093769826	1	0	NaN	3024068.3850931	NaN	3024069.3684734	3024069.88502732
53	20	0	0	90	36.1581920903955	36.241610738255	8	0.266695487946272	2	11	4	NaN	2	3	0.124892836072298	1	1	NaN	247	4	58	2	121	221	321	NaN	521	0.255429476965219	2	1	NaN	3024074.1190248	NaN	3024075.102395	3024075.61893452
53	20	0	0	90	36.1581920903955	36.241610738255	9	0.300032423939556	2	5	1	NaN	1	4	0.124892836072298	1	1	NaN	248	4	59	2	121	221	321	NaN	521	1.72036047326401	1	1	NaN	3024076.6858277	NaN	3024077.669297	3024078.18585033
53	20	0	0	90	36.1581920903955	36.241610738255	7	0.233358551952988	2	5	1	NaN	1	3	0.124892836072298	1	1	NaN	249	4	60	2	121	221	321	NaN	521	0.246890524867922	1	1	NaN	3024080.7196325	NaN	3024081.703034	3024082.21957598
53	20	0	0	90	36.1581920903955	36.241610738255	7	0.233358551952988	2	2	2	NaN	1	5	0.124892836072298	1	1	NaN	250	4	61	2	121	221	321	NaN	521	0.175813828594983	1	1	NaN	3024083.2865321	NaN	3024084.2699543	3024084.78650037
53	20	0	0	90	36.1581920903955	36.241610738255	6	0.200021615959704	2	5	2	NaN	1	4	0.124892836072298	1	1	NaN	251	4	62	2	121	221	321	NaN	521	0.0681277769617736	2	0	NaN	3024085.770134	NaN	3024086.7535205	3024087.27007612
53	20	0	0	90	36.1581920903955	36.241610738255	22	0.733412591852248	2	9	2	NaN	2	5	0.124892836072298	1	1	NaN	252	4	63	2	121	221	321	NaN	521	0.116664024535567	1	0	NaN	3024088.1536924	NaN	3024089.137083	3024089.65363628
53	20	0	0	90	36.1581920903955	36.241610738255	19	0.633401783872396	2	8	4	NaN	2	3	0.124892836072298	1	1	NaN	253	5	1	2	121	221	321	NaN	521	0.201534925028682	2	1	NaN	3024134.724898	NaN	3024135.7083603	3024136.22487498
53	20	0	0	90	36.1581920903955	36.241610738255	16	0.533390975892544	2	10	1	NaN	2	4	0.124892836072298	1	1	NaN	254	5	2	2	121	221	321	NaN	521	0.20478792861104	2	1	NaN	3024137.2418495	NaN	3024138.2253467	3024138.74178807
53	20	0	0	90	36.1581920903955	36.241610738255	20	0.66673871986568	2	2	3	NaN	1	4	0.124892836072298	1	1	NaN	255	5	3	2	121	221	321	NaN	521	0.14664497692138	2	0	NaN	3024139.8920157	NaN	3024140.8755172	3024141.39204822
53	20	0	0	90	36.1581920903955	36.241610738255	14	0.466717103905976	2	7	6	NaN	2	5	0.124892836072298	1	1	NaN	256	5	4	2	121	221	321	NaN	521	0.151364176999778	2	1	NaN	3024142.3589033	NaN	3024143.3424147	3024143.85896472
53	20	0	0	90	36.1581920903955	36.241610738255	13	0.433380167912692	2	2	1	NaN	1	5	0.124892836072298	1	1	NaN	257	5	5	2	121	221	321	NaN	521	1.9004077767022	1	1	NaN	3024144.8259176	NaN	3024145.809332	3024146.32587252
53	20	0	0	90	36.1581920903955	36.241610738255	18	0.600064847879112	2	3	2	NaN	1	3	0.124892836072298	1	1	NaN	258	5	6	2	121	221	321	NaN	521	0.179722524713725	2	0	NaN	3024149.0430175	NaN	3024150.0263981	3024150.54294778
53	20	0	0	90	36.1581920903955	36.241610738255	15	0.50005403989926	2	7	4	NaN	2	5	0.124892836072298	1	1	NaN	259	5	7	2	121	221	321	NaN	521	2.05528727313504	2	1	NaN	3024151.5432368	NaN	3024152.5266244	3024153.04318833
53	20	0	0	90	36.1581920903955	36.241610738255	23	0.766749527845532	2	1	3	NaN	1	4	0.124892836072298	1	1	NaN	260	5	8	2	121	221	321	NaN	521	0.216240476816893	2	0	NaN	3024155.9103361	NaN	3024156.8937564	3024157.41029942
53	20	0	0	90	36.1581920903955	36.241610738255	15	0.50005403989926	2	11	1	NaN	2	5	0.124892836072298	1	1	NaN	261	5	9	2	121	221	321	NaN	521	0.146579477004707	2	1	NaN	3024158.443934	NaN	3024159.4273166	3024159.94387012
53	20	0	0	90	36.1581920903955	36.241610738255	21	0.700075655858964	2	4	5	NaN	1	4	0.124892836072298	1	1	NaN	262	5	10	2	121	221	321	NaN	521	2.27190867671743	1	1	NaN	3024160.910852	NaN	3024161.8942222	3024162.41077622
53	20	0	0	90	36.1581920903955	36.241610738255	25	0.8334233998321	2	11	1	NaN	2	4	0.124892836072298	1	1	NaN	263	5	11	2	121	221	321	NaN	521	0.199690776877105	2	1	NaN	3024165.4945812	NaN	3024166.4780006	3024166.99455992
53	20	0	0	90	36.1581920903955	36.241610738255	19	0.633401783872396	2	5	5	NaN	1	4	0.124892836072298	1	1	NaN	264	5	12	2	121	221	321	NaN	521	9.2988996328786	1	1	NaN	3024168.0115386	NaN	3024168.9949421	3024169.51148477
53	20	0	0	90	36.1581920903955	36.241610738255	17	0.566727911885828	2	2	5	NaN	1	4	0.124892836072298	1	1	NaN	265	5	13	2	121	221	321	NaN	521	0.217206373345107	1	1	NaN	3024179.6293224	NaN	3024180.6127354	3024181.12928063
53	20	0	0	90	36.1581920903955	36.241610738255	13	0.433380167912692	2	8	5	NaN	2	5	0.124892836072298	1	1	NaN	266	5	14	2	121	221	321	NaN	521	0.188472076784819	2	1	NaN	3024182.1462478	NaN	3024183.1296529	3024183.64619712
53	20	0	0	90	36.1581920903955	36.241610738255	22	0.733412591852248	2	2	1	NaN	1	5	0.124892836072298	1	1	NaN	267	5	15	2	121	221	321	NaN	521	0.280170977115631	1	1	NaN	3024184.6464999	NaN	3024185.6298923	3024186.14644432
53	20	0	0	90	36.1581920903955	36.241610738255	14	0.466717103905976	2	12	1	NaN	2	3	0.124892836072298	1	1	NaN	268	5	16	2	121	221	321	NaN	521	2.8876372249797	2	1	NaN	3024187.246774	NaN	3024188.230155	3024188.74669628
53	20	0	0	90	36.1581920903955	36.241610738255	14	0.466717103905976	2	8	1	NaN	2	5	0.124892836072298	1	1	NaN	269	5	17	2	121	221	321	NaN	521	0.199409876950085	2	1	NaN	3024192.4472608	NaN	3024193.4306703	3024193.94721212
53	20	0	0	90	36.1581920903955	36.241610738255	13	0.433380167912692	2	1	4	NaN	1	3	0.124892836072298	1	1	NaN	270	5	18	2	121	221	321	NaN	521	0.210931528825313	1	1	NaN	3024194.9474163	NaN	3024195.9309648	3024196.44745927
53	20	0	0	90	36.1581920903955	36.241610738255	22	0.733412591852248	2	2	6	NaN	1	5	0.124892836072298	1	1	NaN	271	5	19	2	121	221	321	NaN	521	0.613962069153786	1	1	NaN	3024197.4644315	NaN	3024198.4478184	3024198.96437323
53	20	0	0	90	36.1581920903955	36.241610738255	19	0.633401783872396	2	10	4	NaN	2	4	0.124892836072298	1	1	NaN	272	5	20	2	121	221	321	NaN	521	2.44034637697041	2	1	NaN	3024200.3980449	NaN	3024201.3814666	3024201.89799732
53	20	0	0	90	36.1581920903955	36.241610738255	14	0.466717103905976	2	5	3	NaN	1	4	0.124892836072298	1	1	NaN	273	5	21	2	121	221	321	NaN	521	0.153655576985329	1	1	NaN	3024205.1485084	NaN	3024206.1319021	3024206.64846502
53	20	0	0	90	36.1581920903955	36.241610738255	22	0.733412591852248	2	3	5	NaN	1	3	0.124892836072298	1	1	NaN	274	5	22	2	121	221	321	NaN	521	0.519327828660607	1	1	NaN	3024207.6152979	NaN	3024208.5988203	3024209.11537497
53	20	0	0	90	36.1581920903955	36.241610738255	25	0.8334233998321	2	10	4	NaN	2	4	0.124892836072298	1	1	NaN	275	5	23	2	121	221	321	NaN	521	0.261516076978296	2	1	NaN	3024210.4490331	NaN	3024211.4324458	3024211.94897702
53	20	0	0	90	36.1581920903955	36.241610738255	24	0.800086463838816	2	10	4	NaN	2	3	0.124892836072298	1	1	NaN	276	5	24	2	121	221	321	NaN	521	0.942158524878323	2	1	NaN	3024213.0326275	NaN	3024214.0160376	3024214.53256178
53	20	0	0	90	36.1581920903955	36.241610738255	8	0.266695487946272	2	2	4	NaN	1	4	0.124892836072298	1	1	NaN	277	5	25	2	121	221	321	NaN	521	0.17147752456367	1	1	NaN	3024216.2830161	NaN	3024217.2663688	3024217.78288928
53	20	0	0	90	36.1581920903955	36.241610738255	16	0.533390975892544	2	2	4	NaN	1	4	0.124892836072298	1	1	NaN	278	5	26	2	121	221	321	NaN	521	0.17596192471683	1	1	NaN	3024218.7665133	NaN	3024219.7499118	3024220.26645858
53	20	0	0	90	36.1581920903955	36.241610738255	24	0.800086463838816	2	10	6	NaN	2	3	0.124892836072298	1	1	NaN	279	5	27	2	121	221	321	NaN	521	0.25264767697081	2	1	NaN	3024221.2500888	NaN	3024222.2334937	3024222.75003882
53	20	0	0	90	36.1581920903955	36.241610738255	12	0.400043231919408	2	7	4	NaN	2	3	0.124892836072298	1	1	NaN	280	5	28	2	121	221	321	NaN	521	0.149594977032393	2	1	NaN	3024223.8170317	NaN	3024224.8004029	3024225.31695692
53	20	0	0	90	36.1581920903955	36.241610738255	0	0	1	10	1	NaN	2	3	0.124892836072298	1	1	NaN	281	5	29	2	111	211	311	NaN	511	0.251326024997979	2	1	NaN	3024226.267268	NaN	3024227.2506376	3024227.76720448
53	20	0	0	90	36.1581920903955	36.241610738255	12	0.400043231919408	2	8	1	NaN	2	5	0.124892836072298	1	1	NaN	282	5	30	2	121	221	321	NaN	521	3.99645682843402	2	1	NaN	3024228.8341662	NaN	3024229.8175726	3024230.33412277
53	20	0	0	90	36.1581920903955	36.241610738255	15	0.50005403989926	2	7	1	NaN	2	3	0.124892836072298	1	1	NaN	283	5	31	2	121	221	321	NaN	521	0.15945357689634	2	1	NaN	3024235.1514526	NaN	3024236.1348622	3024236.65141382
53	20	0	0	90	36.1581920903955	36.241610738255	20	0.66673871986568	2	4	2	NaN	1	4	0.124892836072298	1	1	NaN	284	5	32	2	121	221	321	NaN	521	0.164593777153641	2	0	NaN	3024237.6183576	NaN	3024238.6017812	3024239.11831272
53	20	0	0	90	36.1581920903955	36.241610738255	13	0.433380167912692	2	5	6	NaN	1	5	0.124892836072298	1	1	NaN	285	5	33	2	121	221	321	NaN	521	0.184596376959234	1	1	NaN	3024240.1018139	NaN	3024241.0853487	3024241.60188892
53	20	0	0	90	36.1581920903955	36.241610738255	9	0.300032423939556	2	7	4	NaN	2	4	0.124892836072298	1	1	NaN	286	5	34	2	121	221	321	NaN	521	0.148687676992267	2	1	NaN	3024242.6021809	NaN	3024243.585599	3024244.10214392
53	20	0	0	90	36.1581920903955	36.241610738255	23	0.766749527845532	2	9	3	NaN	2	4	0.124892836072298	1	1	NaN	287	5	35	2	121	221	321	NaN	521	0.657807036768645	2	1	NaN	3024245.0691045	NaN	3024246.0524976	3024246.56904496
53	20	0	0	90	36.1581920903955	36.241610738255	12	0.400043231919408	2	6	6	NaN	1	4	0.124892836072298	1	1	NaN	288	5	36	2	121	221	321	NaN	521	2.23465012898669	1	1	NaN	3024248.0360673	NaN	3024249.0194558	3024249.53601407
53	20	0	0	90	36.1581920903955	36.241610738255	14	0.466717103905976	2	10	3	NaN	2	5	0.124892836072298	1	1	NaN	289	5	37	2	121	221	321	NaN	521	0.204191128723323	1	0	NaN	3024252.5864977	NaN	3024253.5699034	3024254.08645867
53	20	0	0	90	36.1581920903955	36.241610738255	17	0.566727911885828	2	1	5	NaN	1	4	0.124892836072298	1	1	NaN	290	5	38	2	121	221	321	NaN	521	0.495400676969439	1	1	NaN	3024255.1034339	NaN	3024256.0868719	3024256.60336642
53	20	0	0	90	36.1581920903955	36.241610738255	23	0.766749527845532	2	2	3	NaN	1	4	0.124892836072298	1	1	NaN	291	5	39	2	121	221	321	NaN	521	1.93525257706642	1	1	NaN	3024257.90368	NaN	3024258.8870807	3024259.40364232
53	20	0	0	90	36.1581920903955	36.241610738255	19	0.633401783872396	2	4	1	NaN	1	3	0.124892836072298	1	1	NaN	292	5	40	2	121	221	321	NaN	521	0.26079412503168	1	1	NaN	3024262.1541116	NaN	3024263.1375274	3024263.65405328
53	20	0	0	90	36.1581920903955	36.241610738255	14	0.466717103905976	2	4	2	NaN	1	5	0.124892836072298	1	1	NaN	293	5	41	2	121	221	321	NaN	521	0.124258576892316	2	0	NaN	3024264.754334	NaN	3024265.7377698	3024266.25431632
53	20	0	0	90	36.1581920903955	36.241610738255	9	0.300032423939556	2	11	1	NaN	2	5	0.124892836072298	1	1	NaN	294	5	42	2	121	221	321	NaN	521	0.203041976783425	2	1	NaN	3024267.1879522	NaN	3024268.1713493	3024268.68788972
53	20	0	0	90	36.1581920903955	36.241610738255	16	0.533390975892544	2	4	2	NaN	1	5	0.124892836072298	1	1	NaN	295	5	43	2	121	221	321	NaN	521	0.126199128571898	2	0	NaN	3024269.704853	NaN	3024270.68825	3024271.20480337
53	20	0	0	90	36.1581920903955	36.241610738255	17	0.566727911885828	2	7	3	NaN	2	4	0.124892836072298	1	1	NaN	296	5	44	2	121	221	321	NaN	521	0.30828412482515	1	0	NaN	3024272.1384269	NaN	3024273.1218214	3024273.63836838
53	20	0	0	90	36.1581920903955	36.241610738255	8	0.266695487946272	2	1	4	NaN	1	5	0.124892836072298	1	1	NaN	297	5	45	2	121	221	321	NaN	521	0.248513577040285	1	1	NaN	3024275.2220653	NaN	3024276.2054575	3024276.72201152
53	20	0	0	90	36.1581920903955	36.241610738255	0	0	1	12	2	NaN	2	4	0.124892836072298	1	1	NaN	298	5	46	2	111	211	311	NaN	511	1.83367637684569	2	1	NaN	3024277.7889955	NaN	3024278.7723883	3024279.28893012
53	20	0	0	90	36.1581920903955	36.241610738255	23	0.766749527845532	2	3	6	NaN	1	5	0.124892836072298	1	1	NaN	299	5	47	2	121	221	321	NaN	521	0.491570876911283	1	1	NaN	3024281.9393803	NaN	3024282.9227805	3024283.43934022
53	20	0	0	90	36.1581920903955	36.241610738255	11	0.366706295926124	2	4	1	NaN	1	4	0.124892836072298	1	1	NaN	300	5	48	2	121	221	321	NaN	521	1.15516077680513	2	0	NaN	3024284.7396513	NaN	3024285.7230474	3024286.23960552
53	20	0	0	90	36.1581920903955	36.241610738255	7	0.233358551952988	2	1	2	NaN	1	4	0.124892836072298	1	1	NaN	301	5	49	2	121	221	321	NaN	521	3.15177357709035	1	1	NaN	3024288.2066889	NaN	3024289.1900647	3024289.70661382
53	20	0	0	90	36.1581920903955	36.241610738255	21	0.700075655858964	2	12	3	NaN	2	4	0.124892836072298	1	1	NaN	302	5	50	2	121	221	321	NaN	521	0.108725977130234	2	1	NaN	3024293.6738788	NaN	3024294.6572919	3024295.17381652
53	20	0	0	90	36.1581920903955	36.241610738255	6	0.200021615959704	2	9	4	NaN	2	5	0.124892836072298	1	1	NaN	303	5	51	2	121	221	321	NaN	521	0.130799876991659	2	1	NaN	3024296.1074405	NaN	3024297.0908445	3024297.60739592
53	20	0	0	90	36.1581920903955	36.241610738255	12	0.400043231919408	2	9	2	NaN	2	3	0.124892836072298	1	1	NaN	304	5	52	2	121	221	321	NaN	521	3.04145772848278	2	1	NaN	3024298.5410119	NaN	3024299.5244691	3024300.04095987
53	20	0	0	90	36.1581920903955	36.241610738255	21	0.700075655858964	2	2	6	NaN	1	3	0.124892836072298	1	1	NaN	305	5	53	2	121	221	321	NaN	521	0.195424477104098	2	0	NaN	3024303.8914117	NaN	3024304.8749494	3024305.39148792
53	20	0	0	90	36.1581920903955	36.241610738255	23	0.766749527845532	2	5	2	NaN	1	5	0.124892836072298	1	1	NaN	306	5	54	2	121	221	321	NaN	521	0.310510224662721	1	1	NaN	3024306.4084586	NaN	3024307.3918772	3024307.90839858
53	20	0	0	90	36.1581920903955	36.241610738255	6	0.200021615959704	2	2	5	NaN	1	3	0.124892836072298	1	1	NaN	307	5	55	2	121	221	321	NaN	521	2.69257742492482	1	1	NaN	3024309.0420641	NaN	3024310.0254844	3024310.54199528
53	20	0	0	90	36.1581920903955	36.241610738255	10	0.33336935993284	2	1	5	NaN	1	4	0.124892836072298	1	1	NaN	308	5	56	2	121	221	321	NaN	521	0.652014477178454	1	1	NaN	3024314.0425339	NaN	3024315.0259389	3024315.54248462
53	20	0	0	90	36.1581920903955	36.241610738255	25	0.8334233998321	2	10	6	NaN	2	4	0.124892836072298	1	1	NaN	309	5	57	2	121	221	321	NaN	521	0.357037776615471	2	1	NaN	3024317.0094893	NaN	3024317.9929081	3024318.50944062
53	20	0	0	90	36.1581920903955	36.241610738255	24	0.800086463838816	2	2	5	NaN	1	3	0.124892836072298	1	1	NaN	310	5	58	2	121	221	321	NaN	521	0.17027277732268	1	1	NaN	3024319.6764268	NaN	3024320.6598311	3024321.17637682
53	20	0	0	90	36.1581920903955	36.241610738255	7	0.233358551952988	2	1	4	NaN	1	3	0.124892836072298	1	1	NaN	311	5	59	2	121	221	321	NaN	521	0.270677276887	2	0	NaN	3024322.1599945	NaN	3024323.143397	3024323.65994962
53	20	0	0	90	36.1581920903955	36.241610738255	0	0	1	9	1	NaN	2	3	0.124892836072298	1	1	NaN	312	5	60	2	111	211	311	NaN	511	0.127008573152125	2	1	NaN	3024324.7435996	NaN	3024325.7269989	3024326.24353293
53	20	0	0	90	36.1581920903955	36.241610738255	6	0.200021615959704	2	1	6	NaN	1	3	0.124892836072298	1	1	NaN	313	5	61	2	121	221	321	NaN	521	1.92545172479004	1	1	NaN	3024327.1771543	NaN	3024328.1605628	3024328.67711578
53	20	0	0	90	36.1581920903955	36.241610738255	10	0.33336935993284	2	2	6	NaN	1	5	0.124892836072298	1	1	NaN	314	5	62	2	121	221	321	NaN	521	1.23627647710964	1	1	NaN	3024331.4109039	NaN	3024332.3943726	3024332.91085722
53	20	0	0	90	36.1581920903955	36.241610738255	22	0.733412591852248	2	11	6	NaN	2	5	0.124892836072298	1	1	NaN	315	5	63	2	121	221	321	NaN	521	0.149628876708448	2	1	NaN	3024334.9612403	NaN	3024335.9446922	3024336.46121002
53	20	0	0	90	36.1581920903955	36.241610738255	6	0.200021615959704	2	4	6	NaN	1	5	0.124892836072298	1	1	NaN	316	6	1	2	121	221	321	NaN	521	0.200190877076238	2	0	NaN	3024375.7985986	NaN	3024376.7819764	3024377.29857932
53	20	0	0	90	36.1581920903955	36.241610738255	11	0.366706295926124	2	9	6	NaN	2	5	0.124892836072298	1	1	NaN	317	6	2	2	121	221	321	NaN	521	0.263631228823215	2	1	NaN	3024380.7990749	NaN	3024381.7825119	3024382.29905167
53	20	0	0	90	36.1581920903955	36.241610738255	9	0.300032423939556	2	6	6	NaN	1	5	0.124892836072298	1	1	NaN	318	6	3	2	121	221	321	NaN	521	0.264130324590951	1	1	NaN	3024383.3827429	NaN	3024384.3660727	3024384.88262658
53	20	0	0	90	36.1581920903955	36.241610738255	7	0.233358551952988	2	6	4	NaN	1	4	0.124892836072298	1	1	NaN	319	6	4	2	121	221	321	NaN	521	0.208540776744485	1	1	NaN	3024385.9662922	NaN	3024386.9496574	3024387.46621452
53	20	0	0	90	36.1581920903955	36.241610738255	7	0.233358551952988	2	2	2	NaN	1	4	0.124892836072298	1	1	NaN	320	6	5	2	121	221	321	NaN	521	0.220495176967233	1	1	NaN	3024388.6664062	NaN	3024389.6499437	3024390.16648462
53	20	0	0	90	36.1581920903955	36.241610738255	11	0.366706295926124	2	1	2	NaN	1	3	0.124892836072298	1	1	NaN	321	6	6	2	121	221	321	NaN	521	0.198624377138913	1	1	NaN	3024391.2001316	NaN	3024392.1835189	3024392.70006742
53	20	0	0	90	36.1581920903955	36.241610738255	19	0.633401783872396	2	7	6	NaN	2	4	0.124892836072298	1	1	NaN	322	6	7	2	121	221	321	NaN	521	0.193745624739677	2	1	NaN	3024393.7170166	NaN	3024394.7004693	3024395.21697938
53	20	0	0	90	36.1581920903955	36.241610738255	14	0.466717103905976	2	9	3	NaN	2	3	0.124892836072298	1	1	NaN	323	6	8	2	121	221	321	NaN	521	0.222030328586698	2	1	NaN	3024396.2173675	NaN	3024397.2006744	3024397.71722497
53	20	0	0	90	36.1581920903955	36.241610738255	13	0.433380167912692	2	7	6	NaN	2	5	0.124892836072298	1	1	NaN	324	6	9	2	121	221	321	NaN	521	2.46850387658924	2	1	NaN	3024399.0341101	NaN	3024400.0176278	3024400.53416372
53	20	0	0	90	36.1581920903955	36.241610738255	0	0	1	1	3	NaN	1	4	0.124892836072298	1	1	NaN	325	6	10	2	111	211	311	NaN	511	0.341102436184883	1	1	NaN	3024403.8180268	NaN	3024404.80148	3024405.31797056
53	20	0	0	90	36.1581920903955	36.241610738255	15	0.50005403989926	2	2	4	NaN	1	4	0.124892836072298	1	1	NaN	326	6	11	2	121	221	321	NaN	521	0.146558472886682	1	1	NaN	3024406.4683479	NaN	3024407.4516825	3024407.96823463
53	20	0	0	90	36.1581920903955	36.241610738255	8	0.266695487946272	2	7	1	NaN	2	5	0.124892836072298	1	1	NaN	327	6	12	2	121	221	321	NaN	521	0.103622428607196	2	1	NaN	3024408.935197	NaN	3024409.91858	3024410.43514907
53	20	0	0	90	36.1581920903955	36.241610738255	24	0.800086463838816	2	5	6	NaN	1	4	0.124892836072298	1	1	NaN	328	6	13	2	121	221	321	NaN	521	2.36670237686485	1	1	NaN	3024411.3519723	NaN	3024412.3355129	3024412.85204572
53	20	0	0	90	36.1581920903955	36.241610738255	19	0.633401783872396	2	3	5	NaN	1	3	0.124892836072298	1	1	NaN	329	6	14	2	121	221	321	NaN	521	0.275042077060789	1	1	NaN	3024416.035881	NaN	3024417.0193027	3024417.53583112
53	20	0	0	90	36.1581920903955	36.241610738255	11	0.366706295926124	2	7	5	NaN	2	5	0.124892836072298	1	1	NaN	330	6	15	2	121	221	321	NaN	521	3.14743527723476	2	1	NaN	3024418.61937	NaN	3024419.6028764	3024420.11941972
53	20	0	0	90	36.1581920903955	36.241610738255	0	0	1	3	2	NaN	1	4	0.124892836072298	1	1	NaN	331	6	16	2	111	211	311	NaN	511	0.24013049993664	1	1	NaN	3024424.0866923	NaN	3024425.0700899	3024425.5866547
53	20	0	0	90	36.1581920903955	36.241610738255	24	0.800086463838816	2	7	2	NaN	2	5	0.124892836072298	1	1	NaN	332	6	17	2	121	221	321	NaN	521	0.121795872692019	2	1	NaN	3024426.6369247	NaN	3024427.6203383	3024428.13687563
53	20	0	0	90	36.1581920903955	36.241610738255	11	0.366706295926124	2	7	3	NaN	2	4	0.124892836072298	1	1	NaN	333	6	18	2	121	221	321	NaN	521	0.010407276917249	2	1	NaN	3024429.0703884	NaN	3024430.0539013	3024430.57044592
53	20	0	0	90	36.1581920903955	36.241610738255	17	0.566727911885828	2	9	4	NaN	2	3	0.124892836072298	1	1	NaN	334	6	19	2	121	221	321	NaN	521	4.02729202480987	2	1	NaN	3024431.387274	NaN	3024432.3708087	3024432.88733728
53	20	0	0	90	36.1581920903955	36.241610738255	7	0.233358551952988	2	10	4	NaN	2	4	0.124892836072298	1	1	NaN	335	6	20	2	121	221	321	NaN	521	0.0934722805395722	2	1	NaN	3024437.7213567	NaN	3024438.7047493	3024439.22129482
53	20	0	0	90	36.1581920903955	36.241610738255	9	0.300032423939556	2	3	6	NaN	1	3	0.124892836072298	1	1	NaN	336	6	21	2	121	221	321	NaN	521	2.97357704024762	1	1	NaN	3024440.1215878	NaN	3024441.1049658	3024441.62154356
53	20	0	0	90	36.1581920903955	36.241610738255	18	0.600064847879112	2	1	1	NaN	1	5	0.124892836072298	1	1	NaN	337	6	22	2	121	221	321	NaN	521	0.3297089766711	1	1	NaN	3024445.4054564	NaN	3024446.388821	3024446.90538752
53	20	0	0	90	36.1581920903955	36.241610738255	15	0.50005403989926	2	8	4	NaN	2	4	0.124892836072298	1	1	NaN	338	6	23	2	121	221	321	NaN	521	0.15955438092351	2	1	NaN	3024448.0557262	NaN	3024449.0390973	3024449.55565472
53	20	0	0	90	36.1581920903955	36.241610738255	8	0.266695487946272	2	10	2	NaN	2	3	0.124892836072298	1	1	NaN	339	6	24	2	121	221	321	NaN	521	2.48355802847072	2	1	NaN	3024450.5392687	NaN	3024451.5226915	3024452.03922527
53	20	0	0	90	36.1581920903955	36.241610738255	24	0.800086463838816	2	1	5	NaN	1	4	0.124892836072298	1	1	NaN	340	6	25	2	121	221	321	NaN	521	0.29941597674042	1	1	NaN	3024455.3397357	NaN	3024456.3231575	3024456.83969082
53	20	0	0	90	36.1581920903955	36.241610738255	15	0.50005403989926	2	6	6	NaN	1	3	0.124892836072298	1	1	NaN	341	6	26	2	121	221	321	NaN	521	2.81810123240575	1	1	NaN	3024457.9566772	NaN	3024458.9400656	3024459.45661617
53	20	0	0	90	36.1581920903955	36.241610738255	15	0.50005403989926	2	10	5	NaN	2	4	0.124892836072298	1	1	NaN	342	6	27	2	121	221	321	NaN	521	0.308315825182945	2	1	NaN	3024463.0905081	NaN	3024464.0739214	3024464.59046317
53	20	0	0	90	36.1581920903955	36.241610738255	7	0.233358551952988	2	9	2	NaN	2	5	0.124892836072298	1	1	NaN	343	6	28	2	121	221	321	NaN	521	2.571472780779	2	1	NaN	3024465.707427	NaN	3024466.6908457	3024467.20738802
53	20	0	0	90	36.1581920903955	36.241610738255	0	0	1	5	5	NaN	1	3	0.124892836072298	1	1	NaN	344	6	29	2	111	211	311	NaN	511	0.0315968771465123	2	0	NaN	3024470.5912533	NaN	3024471.5746398	3024472.09118962
53	20	0	0	90	36.1581920903955	36.241610738255	10	0.33336935993284	2	12	2	NaN	2	3	0.124892836072298	1	1	NaN	345	6	30	2	121	221	321	NaN	521	0.0104213249869645	2	1	NaN	3024472.9414817	NaN	3024473.9248924	3024474.44141868
53	20	0	0	90	36.1581920903955	36.241610738255	6	0.200021615959704	2	7	1	NaN	2	5	0.124892836072298	1	1	NaN	346	6	31	2	121	221	321	NaN	521	2.08460747683421	2	1	NaN	3024475.2583663	NaN	3024476.2417684	3024476.75832132
53	20	0	0	90	36.1581920903955	36.241610738255	20	0.66673871986568	2	9	5	NaN	2	5	0.124892836072298	1	1	NaN	347	6	32	2	121	221	321	NaN	521	0.204328428488225	2	1	NaN	3024479.6588375	NaN	3024480.6422033	3024481.15875427
53	20	0	0	90	36.1581920903955	36.241610738255	9	0.300032423939556	2	1	3	NaN	1	4	0.124892836072298	1	1	NaN	348	6	33	2	121	221	321	NaN	521	0.164764524903148	1	1	NaN	3024482.242392	NaN	3024483.2257844	3024483.74233958
53	20	0	0	90	36.1581920903955	36.241610738255	10	0.33336935993284	2	8	5	NaN	2	3	0.124892836072298	1	1	NaN	349	6	34	2	121	221	321	NaN	521	0.193106028717011	2	1	NaN	3024484.7259662	NaN	3024485.7094271	3024486.22591247
53	20	0	0	90	36.1581920903955	36.241610738255	9	0.300032423939556	2	7	3	NaN	2	3	0.124892836072298	1	1	NaN	350	6	35	2	121	221	321	NaN	521	3.90035116905347	2	1	NaN	3024487.2429035	NaN	3024488.2263016	3024488.74284963
53	20	0	0	90	36.1581920903955	36.241610738255	14	0.466717103905976	2	6	2	NaN	1	3	0.124892836072298	1	1	NaN	351	6	36	2	121	221	321	NaN	521	0.635091224685311	2	0	NaN	3024493.4600595	NaN	3024494.4435557	3024494.96010158
53	20	0	0	90	36.1581920903955	36.241610738255	7	0.233358551952988	2	6	5	NaN	1	5	0.124892836072298	1	1	NaN	352	6	37	2	121	221	321	NaN	521	0.164758928585798	1	1	NaN	3024496.4104595	NaN	3024497.393852	3024497.91040357
53	20	0	0	90	36.1581920903955	36.241610738255	15	0.50005403989926	2	1	4	NaN	1	3	0.124892836072298	1	1	NaN	353	6	38	2	121	221	321	NaN	521	0.233162276912481	1	1	NaN	3024498.8940453	NaN	3024499.8774375	3024500.39397692
53	20	0	0	90	36.1581920903955	36.241610738255	23	0.766749527845532	2	8	6	NaN	2	3	0.124892836072298	1	1	NaN	354	6	39	2	121	221	321	NaN	521	3.0584940770641	2	1	NaN	3024501.4442776	NaN	3024502.4276634	3024502.94422622
53	20	0	0	90	36.1581920903955	36.241610738255	7	0.233358551952988	2	3	3	NaN	1	5	0.124892836072298	1	1	NaN	355	6	40	2	121	221	321	NaN	521	1.77139677666128	1	1	NaN	3024506.8114591	NaN	3024507.794871	3024508.31141192
53	20	0	0	90	36.1581920903955	36.241610738255	21	0.700075655858964	2	1	2	NaN	1	5	0.124892836072298	1	1	NaN	356	6	41	2	121	221	321	NaN	521	0.199759028386325	2	0	NaN	3024510.8952109	NaN	3024511.8786096	3024512.39515247
53	20	0	0	90	36.1581920903955	36.241610738255	20	0.66673871986568	2	3	6	NaN	1	5	0.124892836072298	1	1	NaN	357	6	42	2	121	221	321	NaN	521	0.267168476711959	1	1	NaN	3024513.4121139	NaN	3024514.3955281	3024514.91206062
53	20	0	0	90	36.1581920903955	36.241610738255	21	0.700075655858964	2	10	6	NaN	2	5	0.124892836072298	1	1	NaN	358	6	43	2	121	221	321	NaN	521	3.34713262505829	2	1	NaN	3024515.9957256	NaN	3024516.9791209	3024517.49565338
53	20	0	0	90	36.1581920903955	36.241610738255	23	0.766749527845532	2	11	1	NaN	2	3	0.124892836072298	1	1	NaN	359	6	44	2	121	221	321	NaN	521	0.176592624746263	2	1	NaN	3024521.6461473	NaN	3024522.6296754	3024523.14620678
53	20	0	0	90	36.1581920903955	36.241610738255	17	0.566727911885828	2	10	3	NaN	2	5	0.124892836072298	1	1	NaN	360	6	45	2	121	221	321	NaN	521	0.205236776731908	2	1	NaN	3024524.129832	NaN	3024525.1132254	3024525.62977862
53	20	0	0	90	36.1581920903955	36.241610738255	6	0.200021615959704	2	11	5	NaN	2	3	0.124892836072298	1	1	NaN	361	6	46	2	121	221	321	NaN	521	0.0802020248956978	2	1	NaN	3024526.6467388	NaN	3024527.6301569	3024528.14670868
53	20	0	0	90	36.1581920903955	36.241610738255	10	0.33336935993284	2	6	4	NaN	1	4	0.124892836072298	1	1	NaN	362	6	47	2	121	221	321	NaN	521	0.192368340212852	2	0	NaN	3024529.0469875	NaN	3024530.0303725	3024530.54694526
53	20	0	0	90	36.1581920903955	36.241610738255	19	0.633401783872396	2	3	5	NaN	1	5	0.124892836072298	1	1	NaN	363	6	48	2	121	221	321	NaN	521	2.37162482878193	2	0	NaN	3024531.5472761	NaN	3024532.5306468	3024533.04718627
53	20	0	0	90	36.1581920903955	36.241610738255	21	0.700075655858964	2	7	4	NaN	2	5	0.124892836072298	1	1	NaN	364	6	49	2	121	221	321	NaN	521	0.168140428606421	2	1	NaN	3024536.2310298	NaN	3024537.2143436	3024537.73098057
53	20	0	0	90	36.1581920903955	36.241610738255	10	0.33336935993284	2	9	6	NaN	2	5	0.124892836072298	1	1	NaN	365	6	50	2	121	221	321	NaN	521	0.0924456249922514	2	1	NaN	3024538.7145975	NaN	3024539.6980327	3024540.21454837
53	20	0	0	90	36.1581920903955	36.241610738255	23	0.766749527845532	2	6	1	NaN	1	4	0.124892836072298	1	1	NaN	366	6	51	2	121	221	321	NaN	521	3.3724317252636	2	0	NaN	3024541.1148264	NaN	3024542.0982397	3024542.61478567
53	20	0	0	90	36.1581920903955	36.241610738255	24	0.800086463838816	2	5	6	NaN	1	5	0.124892836072298	1	1	NaN	367	6	52	2	121	221	321	NaN	521	0.160341776907444	1	1	NaN	3024546.7987236	NaN	3024547.7821807	3024548.29868092
53	20	0	0	90	36.1581920903955	36.241610738255	18	0.600064847879112	2	10	6	NaN	2	5	0.124892836072298	1	1	NaN	368	6	53	2	121	221	321	NaN	521	0.141446876805276	2	1	NaN	3024549.2656473	NaN	3024550.2490355	3024550.76558002
53	20	0	0	90	36.1581920903955	36.241610738255	20	0.66673871986568	2	10	2	NaN	2	5	0.124892836072298	1	1	NaN	369	6	54	2	121	221	321	NaN	521	0.242648224812001	2	1	NaN	3024551.7325531	NaN	3024552.7159519	3024553.23249428
53	20	0	0	90	36.1581920903955	36.241610738255	7	0.233358551952988	2	4	1	NaN	1	5	0.124892836072298	1	1	NaN	370	6	55	2	121	221	321	NaN	521	3.14010237669572	1	1	NaN	3024554.2827965	NaN	3024555.2662017	3024555.78276762
53	20	0	0	90	36.1581920903955	36.241610738255	7	0.233358551952988	2	4	5	NaN	1	5	0.124892836072298	1	1	NaN	371	6	56	2	121	221	321	NaN	521	0.2817407771945	2	0	NaN	3024559.7332059	NaN	3024560.7167331	3024561.23328262
53	20	0	0	90	36.1581920903955	36.241610738255	24	0.800086463838816	2	11	5	NaN	2	5	0.124892836072298	1	1	NaN	372	6	57	2	121	221	321	NaN	521	0.417488224804401	2	1	NaN	3024562.3334725	NaN	3024563.317038	3024563.83353268
53	20	0	0	90	36.1581920903955	36.241610738255	9	0.300032423939556	2	5	4	NaN	1	3	0.124892836072298	1	1	NaN	373	6	58	2	121	221	321	NaN	521	2.08583197696134	1	1	NaN	3024565.2171418	NaN	3024566.2006373	3024566.71714652
53	20	0	0	90	36.1581920903955	36.241610738255	21	0.700075655858964	2	12	5	NaN	2	3	0.124892836072298	1	1	NaN	374	6	59	2	121	221	321	NaN	521	0.165528176818043	2	1	NaN	3024569.6175221	NaN	3024570.6010302	3024571.11758252
53	20	0	0	90	36.1581920903955	36.241610738255	7	0.233358551952988	2	5	1	NaN	1	4	0.124892836072298	1	1	NaN	375	6	60	2	121	221	321	NaN	521	0.210123724769801	1	1	NaN	3024572.1012175	NaN	3024573.0846427	3024573.60115708
53	20	0	0	90	36.1581920903955	36.241610738255	24	0.800086463838816	2	8	6	NaN	2	4	0.124892836072298	1	1	NaN	376	6	61	2	121	221	321	NaN	521	0.252274724654853	2	1	NaN	3024574.6348059	NaN	3024575.6182123	3024576.13474938
53	20	0	0	90	36.1581920903955	36.241610738255	14	0.466717103905976	2	2	2	NaN	1	4	0.124892836072298	1	1	NaN	377	6	62	2	121	221	321	NaN	521	0.605327124707401	2	0	NaN	3024577.201595	NaN	3024578.1851125	3024578.70165608
53	20	0	0	90	36.1581920903955	36.241610738255	17	0.566727911885828	2	8	6	NaN	2	4	0.124892836072298	1	1	NaN	378	6	63	2	121	221	321	NaN	521	0.528377144131809	1	0	NaN	3024580.1185279	NaN	3024581.1020794	3024581.61862706
53	20	0	0	90	36.1581920903955	36.241610738255	24	0.800086463838816	2	9	4	NaN	2	5	0.124892836072298	1	1	NaN	379	7	1	2	121	221	321	NaN	521	0.194883876945823	2	1	NaN	3024629.3401391	NaN	3024630.3235638	3024630.84011902
53	20	0	0	90	36.1581920903955	36.241610738255	19	0.633401783872396	2	11	2	NaN	2	5	0.124892836072298	1	1	NaN	380	7	2	2	121	221	321	NaN	521	0.0939843766391277	2	1	NaN	3024631.8569818	NaN	3024632.8405166	3024633.35703182
53	20	0	0	90	36.1581920903955	36.241610738255	23	0.766749527845532	2	2	6	NaN	1	5	0.124892836072298	1	1	NaN	381	7	3	2	121	221	321	NaN	521	0.181747424881905	1	1	NaN	3024634.2573071	NaN	3024635.2407128	3024635.75726318
53	20	0	0	90	36.1581920903955	36.241610738255	17	0.566727911885828	2	9	5	NaN	2	4	0.124892836072298	1	1	NaN	382	7	4	2	121	221	321	NaN	521	0.386200280394405	2	1	NaN	3024636.7409187	NaN	3024637.7243227	3024638.24083902
53	20	0	0	90	36.1581920903955	36.241610738255	20	0.66673871986568	2	5	1	NaN	1	4	0.124892836072298	1	1	NaN	383	7	5	2	121	221	321	NaN	521	3.06197097664699	1	1	NaN	3024639.4411603	NaN	3024640.4245584	3024640.94110312
53	20	0	0	90	36.1581920903955	36.241610738255	10	0.33336935993284	2	11	2	NaN	2	5	0.124892836072298	1	1	NaN	384	7	6	2	121	221	321	NaN	521	0.118825176730752	2	1	NaN	3024644.8083449	NaN	3024645.7917592	3024646.30830532
53	20	0	0	90	36.1581920903955	36.241610738255	16	0.533390975892544	2	6	5	NaN	1	5	0.124892836072298	1	1	NaN	385	7	7	2	121	221	321	NaN	521	0.485556976869702	2	0	NaN	3024647.241934	NaN	3024648.2253308	3024648.74187622
53	20	0	0	90	36.1581920903955	36.241610738255	0	0	1	7	3	NaN	2	4	0.124892836072298	1	1	NaN	386	7	8	2	111	211	311	NaN	511	4.06086962483823	2	1	NaN	3024650.0421934	NaN	3024651.0256282	3024651.54214318
53	20	0	0	90	36.1581920903955	36.241610738255	18	0.600064847879112	2	9	1	NaN	2	3	0.124892836072298	1	1	NaN	387	7	9	2	121	221	321	NaN	521	0.292880076915026	2	1	NaN	3024656.4261674	NaN	3024657.4095593	3024657.92610912
53	20	0	0	90	36.1581920903955	36.241610738255	15	0.50005403989926	2	5	2	NaN	1	5	0.124892836072298	1	1	NaN	388	7	10	2	121	221	321	NaN	521	2.26018182467669	1	1	NaN	3024659.0430811	NaN	3024660.0264938	3024660.54303138
53	20	0	0	90	36.1581920903955	36.241610738255	12	0.400043231919408	2	10	4	NaN	2	5	0.124892836072298	1	1	NaN	389	7	11	2	121	221	321	NaN	521	0.308558576740324	2	1	NaN	3024663.6268658	NaN	3024664.6102472	3024665.12681722
53	20	0	0	90	36.1581920903955	36.241610738255	25	0.8334233998321	2	8	6	NaN	2	4	0.124892836072298	1	1	NaN	390	7	12	2	121	221	321	NaN	521	0.266882428433746	2	1	NaN	3024666.2604718	NaN	3024667.2438856	3024667.76041417
53	20	0	0	90	36.1581920903955	36.241610738255	17	0.566727911885828	2	12	5	NaN	2	5	0.124892836072298	1	1	NaN	391	7	13	2	121	221	321	NaN	521	1.93110797740519	2	1	NaN	3024668.8439144	NaN	3024669.8274478	3024670.34399362
53	20	0	0	90	36.1581920903955	36.241610738255	13	0.433380167912692	2	9	6	NaN	2	5	0.124892836072298	1	1	NaN	392	7	14	2	121	221	321	NaN	521	0.105395876802504	2	1	NaN	3024673.0777281	NaN	3024674.0611977	3024674.57774782
53	20	0	0	90	36.1581920903955	36.241610738255	25	0.8334233998321	2	2	2	NaN	1	4	0.124892836072298	1	1	NaN	393	7	15	2	121	221	321	NaN	521	2.36833807686344	1	1	NaN	3024675.4947277	NaN	3024676.47812	3024676.99464522
53	20	0	0	90	36.1581920903955	36.241610738255	15	0.50005403989926	2	9	6	NaN	2	4	0.124892836072298	1	1	NaN	394	7	16	2	121	221	321	NaN	521	0.196788728702813	2	1	NaN	3024680.1784874	NaN	3024681.1618938	3024681.67844547
53	20	0	0	90	36.1581920903955	36.241610738255	6	0.200021615959704	2	10	2	NaN	2	5	0.124892836072298	1	1	NaN	395	7	17	2	121	221	321	NaN	521	3.10440777707845	2	1	NaN	3024682.6787058	NaN	3024683.6621567	3024684.17868862
53	20	0	0	90	36.1581920903955	36.241610738255	7	0.233358551952988	2	7	5	NaN	2	4	0.124892836072298	1	1	NaN	396	7	18	2	121	221	321	NaN	521	1.67120697675273	2	1	NaN	3024688.0959431	NaN	3024689.0793495	3024689.59590422
53	20	0	0	90	36.1581920903955	36.241610738255	10	0.33336935993284	2	12	6	NaN	2	3	0.124892836072298	1	1	NaN	397	7	19	2	121	221	321	NaN	521	0.0712128365412354	2	1	NaN	3024692.0796466	NaN	3024693.0630566	3024693.57961666
53	20	0	0	90	36.1581920903955	36.241610738255	19	0.633401783872396	2	2	1	NaN	1	5	0.124892836072298	1	1	NaN	398	7	20	2	121	221	321	NaN	521	2.3839813247323	1	1	NaN	3024694.4632211	NaN	3024695.4466273	3024695.96317918
53	20	0	0	90	36.1581920903955	36.241610738255	10	0.33336935993284	2	2	6	NaN	1	3	0.124892836072298	1	1	NaN	399	7	21	2	121	221	321	NaN	521	0.211860828567296	1	1	NaN	3024699.1636982	NaN	3024700.1470803	3024700.66364727
53	20	0	0	90	36.1581920903955	36.241610738255	12	0.400043231919408	2	1	1	NaN	1	5	0.124892836072298	1	1	NaN	400	7	22	2	121	221	321	NaN	521	0.181834176648408	2	0	NaN	3024701.6972797	NaN	3024702.6806834	3024703.19722792
53	20	0	0	90	36.1581920903955	36.241610738255	17	0.566727911885828	2	5	4	NaN	1	5	0.124892836072298	1	1	NaN	401	7	23	2	121	221	321	NaN	521	3.57769322488457	1	1	NaN	3024704.1975113	NaN	3024705.1809169	3024705.69746538
53	20	0	0	90	36.1581920903955	36.241610738255	19	0.633401783872396	2	6	5	NaN	1	3	0.124892836072298	1	1	NaN	402	7	24	2	121	221	321	NaN	521	0.221240632236004	1	1	NaN	3024710.0980991	NaN	3024711.0815095	3024711.59804137
53	20	0	0	90	36.1581920903955	36.241610738255	14	0.466717103905976	2	2	3	NaN	1	3	0.124892836072298	1	1	NaN	403	7	25	2	121	221	321	NaN	521	0.111431324854493	1	1	NaN	3024712.6315815	NaN	3024713.6150848	3024714.13163158
53	20	0	0	90	36.1581920903955	36.241610738255	20	0.66673871986568	2	12	3	NaN	2	5	0.124892836072298	1	1	NaN	404	7	26	2	121	221	321	NaN	521	3.55059952475131	2	1	NaN	3024715.0486227	NaN	3024716.0320876	3024716.54852658
53	20	0	0	90	36.1581920903955	36.241610738255	14	0.466717103905976	2	9	2	NaN	2	3	0.124892836072298	1	1	NaN	405	7	27	2	121	221	321	NaN	521	2.49971022503451	2	1	NaN	3024720.9158152	NaN	3024721.8992232	3024722.41577398
53	20	0	0	90	36.1581920903955	36.241610738255	9	0.300032423939556	2	9	6	NaN	2	4	0.124892836072298	1	1	NaN	406	7	28	2	121	221	321	NaN	521	0.178511276841164	2	1	NaN	3024725.7329365	NaN	3024726.7164133	3024727.23291732
53	20	0	0	90	36.1581920903955	36.241610738255	6	0.200021615959704	2	6	6	NaN	1	4	0.124892836072298	1	1	NaN	407	7	29	2	121	221	321	NaN	521	0.205972972791642	1	1	NaN	3024728.2332039	NaN	3024729.216605	3024729.73316463
53	20	0	0	90	36.1581920903955	36.241610738255	22	0.733412591852248	2	12	4	NaN	2	3	0.124892836072298	1	1	NaN	408	7	30	2	121	221	321	NaN	521	0.136758276727051	2	1	NaN	3024730.7500098	NaN	3024731.733524	3024732.25006902
53	20	0	0	90	36.1581920903955	36.241610738255	12	0.400043231919408	2	10	1	NaN	2	5	0.124892836072298	1	1	NaN	409	7	31	2	121	221	321	NaN	521	0.231217124965042	2	1	NaN	3024733.2003535	NaN	3024734.1838084	3024734.70031988
53	20	0	0	90	36.1581920903955	36.241610738255	24	0.800086463838816	2	9	1	NaN	2	3	0.124892836072298	1	1	NaN	410	7	32	2	121	221	321	NaN	521	4.1366422441788	2	1	NaN	3024735.7506522	NaN	3024736.734055	3024737.25056946
53	20	0	0	90	36.1581920903955	36.241610738255	7	0.233358551952988	2	10	6	NaN	2	5	0.124892836072298	1	1	NaN	411	7	33	2	121	221	321	NaN	521	0.102029524743557	2	1	NaN	3024742.2012596	NaN	3024743.1846549	3024743.70120348
53	20	0	0	90	36.1581920903955	36.241610738255	25	0.8334233998321	2	5	5	NaN	1	3	0.124892836072298	1	1	NaN	412	7	34	2	121	221	321	NaN	521	4.26098697725683	1	1	NaN	3024744.6181594	NaN	3024745.6015917	3024746.11810882
53	20	0	0	90	36.1581920903955	36.241610738255	7	0.233358551952988	2	8	2	NaN	2	3	0.124892836072298	1	1	NaN	413	7	35	2	121	221	321	NaN	521	2.2616658359766	2	1	NaN	3024751.185462	NaN	3024752.1688578	3024752.68541696
53	20	0	0	90	36.1581920903955	36.241610738255	0	0	1	10	6	NaN	2	4	0.124892836072298	1	1	NaN	414	7	36	2	111	211	311	NaN	511	0.206084476783872	2	1	NaN	3024755.7692495	NaN	3024756.7526387	3024757.26919782
53	20	0	0	90	36.1581920903955	36.241610738255	13	0.433380167912692	2	9	5	NaN	2	4	0.124892836072298	1	1	NaN	415	7	37	2	121	221	321	NaN	521	0.1532326284796	2	1	NaN	3024758.2861665	NaN	3024759.2695606	3024759.78611607
53	20	0	0	90	36.1581920903955	36.241610738255	13	0.433380167912692	2	12	2	NaN	2	5	0.124892836072298	1	1	NaN	416	7	38	2	121	221	321	NaN	521	3.14236512873322	2	1	NaN	3024760.7530648	NaN	3024761.7364725	3024762.25302007
53	20	0	0	90	36.1581920903955	36.241610738255	18	0.600064847879112	2	7	5	NaN	2	5	0.124892836072298	1	1	NaN	417	7	39	2	121	221	321	NaN	521	0.203695577103645	2	1	NaN	3024766.2035946	NaN	3024767.1870138	3024767.70355822
53	20	0	0	90	36.1581920903955	36.241610738255	13	0.433380167912692	2	6	3	NaN	1	4	0.124892836072298	1	1	NaN	418	7	40	2	121	221	321	NaN	521	0.271092276554555	1	1	NaN	3024768.7205229	NaN	3024769.7039303	3024770.22047112
53	20	0	0	90	36.1581920903955	36.241610738255	13	0.433380167912692	2	2	6	NaN	1	4	0.124892836072298	1	1	NaN	419	7	41	2	121	221	321	NaN	521	0.159221924841404	1	1	NaN	3024771.3041091	NaN	3024772.2875189	3024772.80405108
53	20	0	0	90	36.1581920903955	36.241610738255	15	0.50005403989926	2	3	5	NaN	1	3	0.124892836072298	1	1	NaN	420	7	42	2	121	221	321	NaN	521	0.123597424943	2	0	NaN	3024773.7876887	NaN	3024774.7710914	3024775.28764568
53	20	0	0	90	36.1581920903955	36.241610738255	19	0.633401783872396	2	12	5	NaN	2	4	0.124892836072298	1	1	NaN	421	7	43	2	121	221	321	NaN	521	0.146083024796098	2	1	NaN	3024776.221259	NaN	3024777.2046707	3024777.72120068
53	20	0	0	90	36.1581920903955	36.241610738255	16	0.533390975892544	2	1	4	NaN	1	3	0.124892836072298	1	1	NaN	422	7	44	2	121	221	321	NaN	521	2.1827705767937	1	1	NaN	3024778.6881706	NaN	3024779.6715791	3024780.18811352
53	20	0	0	90	36.1581920903955	36.241610738255	18	0.600064847879112	2	5	3	NaN	1	4	0.124892836072298	1	1	NaN	423	7	45	2	121	221	321	NaN	521	0.114769580774009	1	1	NaN	3024783.1886262	NaN	3024784.1720456	3024784.68855952
53	20	0	0	90	36.1581920903955	36.241610738255	18	0.600064847879112	2	12	1	NaN	2	3	0.124892836072298	1	1	NaN	424	7	46	2	121	221	321	NaN	521	0.209107428323478	2	1	NaN	3024785.6221812	NaN	3024786.605578	3024787.12213777
53	20	0	0	90	36.1581920903955	36.241610738255	24	0.800086463838816	2	3	4	NaN	1	5	0.124892836072298	1	1	NaN	425	7	47	2	121	221	321	NaN	521	1.20416267728433	2	0	NaN	3024788.1390982	NaN	3024789.1225105	3024789.63904062
53	20	0	0	90	36.1581920903955	36.241610738255	20	0.66673871986568	2	5	2	NaN	1	4	0.124892836072298	1	1	NaN	426	7	48	2	121	221	321	NaN	521	0.191311076749116	1	1	NaN	3024791.6561087	NaN	3024792.639507	3024793.15605672
53	20	0	0	90	36.1581920903955	36.241610738255	18	0.600064847879112	2	6	1	NaN	1	5	0.124892836072298	1	1	NaN	427	7	49	2	121	221	321	NaN	521	0.114660976920277	1	1	NaN	3024794.156215	NaN	3024795.1397664	3024795.65629752
53	20	0	0	90	36.1581920903955	36.241610738255	17	0.566727911885828	2	11	6	NaN	2	3	0.124892836072298	1	1	NaN	428	7	50	2	121	221	321	NaN	521	4.26531667681411	2	1	NaN	3024796.5899166	NaN	3024797.573325	3024798.08986772
53	20	0	0	90	36.1581920903955	36.241610738255	23	0.766749527845532	2	11	1	NaN	2	3	0.124892836072298	1	1	NaN	429	7	51	2	121	221	321	NaN	521	1.00123677682132	2	1	NaN	3024803.1737724	NaN	3024804.1572889	3024804.67384642
53	20	0	0	90	36.1581920903955	36.241610738255	22	0.733412591852248	2	10	6	NaN	2	5	0.124892836072298	1	1	NaN	430	7	52	2	121	221	321	NaN	521	0.644508124794811	2	1	NaN	3024806.4908975	NaN	3024807.474296	3024807.99085078
53	20	0	0	90	36.1581920903955	36.241610738255	16	0.533390975892544	2	7	1	NaN	2	4	0.124892836072298	1	1	NaN	431	7	53	2	121	221	321	NaN	521	0.269646277185529	2	1	NaN	3024809.4578504	NaN	3024810.4412555	3024810.95779742
53	20	0	0	90	36.1581920903955	36.241610738255	17	0.566727911885828	2	2	3	NaN	1	4	0.124892836072298	1	1	NaN	432	7	54	2	121	221	321	NaN	521	0.181517176795751	1	1	NaN	3024812.0414644	NaN	3024813.0248512	3024813.54138712
53	20	0	0	90	36.1581920903955	36.241610738255	10	0.33336935993284	2	3	1	NaN	1	3	0.124892836072298	1	1	NaN	433	7	55	2	121	221	321	NaN	521	2.32961702859029	1	1	NaN	3024814.5416878	NaN	3024815.5251017	3024816.04163277
53	20	0	0	90	36.1581920903955	36.241610738255	20	0.66673871986568	2	10	1	NaN	2	5	0.124892836072298	1	1	NaN	434	7	56	2	121	221	321	NaN	521	0.159878728911281	2	1	NaN	3024819.1754635	NaN	3024820.1588753	3024820.67542587
53	20	0	0	90	36.1581920903955	36.241610738255	22	0.733412591852248	2	9	5	NaN	2	3	0.124892836072298	1	1	NaN	435	7	57	2	121	221	321	NaN	521	2.56107717705891	2	1	NaN	3024821.7423943	NaN	3024822.725795	3024823.24233882
53	20	0	0	90	36.1581920903955	36.241610738255	12	0.400043231919408	2	1	6	NaN	1	4	0.124892836072298	1	1	NaN	436	7	58	2	121	221	321	NaN	521	0.117956192232668	1	1	NaN	3024826.6095364	NaN	3024827.5929354	3024828.10949331
53	20	0	0	90	36.1581920903955	36.241610738255	0	0	1	1	2	NaN	1	3	0.124892836072298	1	1	NaN	437	7	59	2	111	211	311	NaN	511	3.54057657672092	1	1	NaN	3024829.0430982	NaN	3024830.0265247	3024830.54305352
53	20	0	0	90	36.1581920903955	36.241610738255	20	0.66673871986568	2	8	2	NaN	2	3	0.124892836072298	1	1	NaN	438	7	60	2	121	221	321	NaN	521	0.145969077013433	2	1	NaN	3024834.8936833	NaN	3024835.8771142	3024836.39363002
53	20	0	0	90	36.1581920903955	36.241610738255	18	0.600064847879112	2	10	5	NaN	2	5	0.124892836072298	1	1	NaN	439	7	61	2	121	221	321	NaN	521	2.51108067715541	1	0	NaN	3024837.3437914	NaN	3024838.3273187	3024838.84388122
53	20	0	0	90	36.1581920903955	36.241610738255	9	0.300032423939556	2	9	3	NaN	2	3	0.124892836072298	1	1	NaN	440	7	62	2	121	221	321	NaN	521	0.191632484551519	2	1	NaN	3024842.3276276	NaN	3024843.3111385	3024843.82770632
53	20	0	0	90	36.1581920903955	36.241610738255	16	0.533390975892544	2	5	2	NaN	1	5	0.124892836072298	1	1	NaN	441	7	63	2	121	221	321	NaN	521	0.0913992770947516	1	1	NaN	3024844.8279989	NaN	3024845.8113843	3024846.32794602
53	20	0	0	90	36.1581920903955	36.241610738255	6	0.200021615959704	2	12	1	NaN	2	4	0.124892836072298	1	1	NaN	442	8	1	2	121	221	321	NaN	521	0.165746277198195	2	1	NaN	3024870.9139022	NaN	3024871.8972886	3024872.41383842
53	20	0	0	90	36.1581920903955	36.241610738255	16	0.533390975892544	2	2	5	NaN	1	5	0.124892836072298	1	1	NaN	443	8	2	2	121	221	321	NaN	521	0.218298640102148	1	1	NaN	3024873.3974864	NaN	3024874.3808582	3024874.89741616
53	20	0	0	90	36.1581920903955	36.241610738255	22	0.733412591852248	2	8	5	NaN	2	5	0.124892836072298	1	1	NaN	444	8	3	2	121	221	321	NaN	521	0.18049812503159	2	1	NaN	3024875.931043	NaN	3024876.914456	3024877.43099118
53	20	0	0	90	36.1581920903955	36.241610738255	22	0.733412591852248	2	5	3	NaN	1	4	0.124892836072298	1	1	NaN	445	8	4	2	121	221	321	NaN	521	0.192038239911199	1	1	NaN	3024878.4313366	NaN	3024879.4147077	3024879.93124686
53	20	0	0	90	36.1581920903955	36.241610738255	24	0.800086463838816	2	11	3	NaN	2	3	0.124892836072298	1	1	NaN	446	8	5	2	121	221	321	NaN	521	1.71527722850442	2	1	NaN	3024880.9482314	NaN	3024881.9316265	3024882.44816057
53	20	0	0	90	36.1581920903955	36.241610738255	21	0.700075655858964	2	9	4	NaN	2	5	0.124892836072298	1	1	NaN	447	8	6	2	121	221	321	NaN	521	0.145476276986301	2	1	NaN	3024884.9819515	NaN	3024885.9653827	3024886.48189112
53	20	0	0	90	36.1581920903955	36.241610738255	15	0.50005403989926	2	4	6	NaN	1	4	0.124892836072298	1	1	NaN	448	8	7	2	121	221	321	NaN	521	2.52718977676705	1	1	NaN	3024887.4320445	NaN	3024888.4156407	3024888.93212112
53	20	0	0	90	36.1581920903955	36.241610738255	12	0.400043231919408	2	8	3	NaN	2	4	0.124892836072298	1	1	NaN	449	8	8	2	121	221	321	NaN	521	0.11790352454409	2	1	NaN	3024892.2659559	NaN	3024893.2493899	3024893.76593018
53	20	0	0	90	36.1581920903955	36.241610738255	24	0.800086463838816	2	12	4	NaN	2	5	0.124892836072298	1	1	NaN	450	8	9	2	121	221	321	NaN	521	0.307938776910305	2	1	NaN	3024894.6996374	NaN	3024895.6829624	3024896.19951492
53	20	0	0	90	36.1581920903955	36.241610738255	15	0.50005403989926	2	10	3	NaN	2	5	0.124892836072298	1	1	NaN	451	8	10	2	121	221	321	NaN	521	2.41836007684469	2	1	NaN	3024897.3331693	NaN	3024898.3165432	3024898.83310432
53	20	0	0	90	36.1581920903955	36.241610738255	25	0.8334233998321	2	3	2	NaN	1	4	0.124892836072298	1	1	NaN	452	8	11	2	121	221	321	NaN	521	0.100599625147879	2	0	NaN	3024902.0669524	NaN	3024903.0503952	3024903.56690247
53	20	0	0	90	36.1581920903955	36.241610738255	19	0.633401783872396	2	2	2	NaN	1	5	0.124892836072298	1	1	NaN	453	8	12	2	121	221	321	NaN	521	0.427882377058268	1	1	NaN	3024904.4838479	NaN	3024905.4672587	3024905.98379462
53	20	0	0	90	36.1581920903955	36.241610738255	0	0	1	9	5	NaN	2	4	0.124892836072298	1	1	NaN	454	8	13	2	111	211	311	NaN	511	0.325824077241123	2	1	NaN	3024907.2341296	NaN	3024908.217513	3024908.73406792
53	20	0	0	90	36.1581920903955	36.241610738255	21	0.700075655858964	2	6	4	NaN	1	4	0.124892836072298	1	1	NaN	455	8	14	2	121	221	321	NaN	521	3.68393647717312	2	0	NaN	3024909.8677377	NaN	3024910.8511152	3024911.36766052
53	20	0	0	90	36.1581920903955	36.241610738255	12	0.400043231919408	2	12	4	NaN	2	4	0.124892836072298	1	1	NaN	456	8	15	2	121	221	321	NaN	521	0.187279628589749	2	1	NaN	3024915.8681805	NaN	3024916.8517361	3024917.36825427
53	20	0	0	90	36.1581920903955	36.241610738255	22	0.733412591852248	2	1	5	NaN	1	3	0.124892836072298	1	1	NaN	457	8	16	2	121	221	321	NaN	521	0.303219577297568	1	1	NaN	3024918.3685598	NaN	3024919.3519655	3024919.86850132
53	20	0	0	90	36.1581920903955	36.241610738255	10	0.33336935993284	2	7	3	NaN	2	3	0.124892836072298	1	1	NaN	458	8	17	2	121	221	321	NaN	521	2.95834977691993	2	1	NaN	3024920.985501	NaN	3024921.9688703	3024922.48542822
53	20	0	0	90	36.1581920903955	36.241610738255	10	0.33336935993284	2	8	2	NaN	2	4	0.124892836072298	1	1	NaN	459	8	18	2	121	221	321	NaN	521	0.146789077203721	2	1	NaN	3024926.2526518	NaN	3024927.2360718	3024927.75259952
53	20	0	0	90	36.1581920903955	36.241610738255	19	0.633401783872396	2	9	1	NaN	2	5	0.124892836072298	1	1	NaN	460	8	19	2	121	221	321	NaN	521	0.120043324772269	2	1	NaN	3024928.7195634	NaN	3024929.7029793	3024930.21951088
53	20	0	0	90	36.1581920903955	36.241610738255	18	0.600064847879112	2	2	4	NaN	1	5	0.124892836072298	1	1	NaN	461	8	20	2	121	221	321	NaN	521	0.054432924836874	1	1	NaN	3024931.1531531	NaN	3024932.1365251	3024932.65308568
