subjno	age	gender	isPractice	viewdist	CmToPixX	CmToPixY	SOA_frm	SOA_time	targNum	targID	targExample	targRace	targGender	firstTargPos	contrast	familiarity	curr_staircase	iStair	TrialNum	BlockNum	blktrl	sessionNum	TC_FIXATION	TC_RSVP_START	TC_RSVP_END	TC_BLANK	TC_RESPONSE_ONSET	RT2afc	resp_2afc	acc	RSVPOnsetVBL	RSVPOnsetTime	RSVPOffsetVBL	RSVPOffsetTime	startrt_2afc
58	21	1	0	90	36.1581920903955	36.241610738255	11	0.366691643968225	2	11	5	NaN	2	5	0.19294284117267	1	1	NaN	1	1	1	1	121	221	321	NaN	521	0.589996074326336	2	1	NaN	4909715.2971935	NaN	4909716.2804594	4909716.81360343
58	21	1	0	90	36.1581920903955	36.241610738255	21	0.700047683939338	2	5	1	NaN	1	5	0.19294284117267	1	1	NaN	2	1	2	1	121	221	321	NaN	521	0.487074868753552	2	0	NaN	4909718.2640433	NaN	4909719.2474291	4909719.78055783
58	21	1	0	90	36.1581920903955	36.241610738255	23	0.76671889193356	2	2	5	NaN	1	4	0.19294284117267	1	1	NaN	3	1	3	1	121	221	321	NaN	521	0.877829869277775	1	1	NaN	4909721.5142365	NaN	4909722.4975566	4909723.01421003
58	21	1	0	90	36.1581920903955	36.241610738255	25	0.833390099927783	2	3	1	NaN	1	5	0.19294284117267	1	1	NaN	4	1	4	1	121	221	321	NaN	521	0.5410544751212	1	1	NaN	4909724.7145879	NaN	4909725.697985	4909726.21452592
58	21	1	0	90	36.1581920903955	36.241610738255	24	0.800054495930672	2	9	5	NaN	2	4	0.19294284117267	1	1	NaN	5	1	5	1	121	221	321	NaN	521	0.494023021310568	2	1	NaN	4909727.881545	NaN	4909728.8650008	4909729.38151048
58	21	1	0	90	36.1581920903955	36.241610738255	6	0.200013623982668	2	7	3	NaN	2	5	0.19294284117267	1	1	NaN	6	1	6	1	121	221	321	NaN	521	0.312584669329226	2	1	NaN	4909731.215191	NaN	4909732.1986028	4909732.71516753
58	21	1	0	90	36.1581920903955	36.241610738255	6	0.200013623982668	2	4	3	NaN	1	4	0.19294284117267	1	1	NaN	7	1	7	1	121	221	321	NaN	521	0.382452121935785	1	1	NaN	4909733.8654788	NaN	4909734.8488824	4909735.36544718
58	21	1	0	90	36.1581920903955	36.241610738255	9	0.300020435974002	2	4	4	NaN	1	3	0.19294284117267	1	1	NaN	8	1	8	1	121	221	321	NaN	521	1.51419992186129	1	1	NaN	4909736.5658151	NaN	4909737.549142	4909738.06569108
58	21	1	0	90	36.1581920903955	36.241610738255	23	0.76671889193356	2	5	2	NaN	1	5	0.19294284117267	1	1	NaN	9	1	9	1	121	221	321	NaN	521	1.13602886907756	1	1	NaN	4909740.3994501	NaN	4909741.3828576	4909741.89940203
58	21	1	0	90	36.1581920903955	36.241610738255	13	0.433362851962447	2	2	3	NaN	1	3	0.19294284117267	1	1	NaN	10	1	10	1	121	221	321	NaN	521	0.678191721439362	1	1	NaN	4909743.8497951	NaN	4909744.8331999	4909745.34974768
58	21	1	0	90	36.1581920903955	36.241610738255	10	0.333356039971113	2	11	3	NaN	2	3	0.19294284117267	1	1	NaN	11	1	11	1	121	221	321	NaN	521	1.04251582175493	1	0	NaN	4909746.933354	NaN	4909747.9168301	4909748.43338288
58	21	1	0	90	36.1581920903955	36.241610738255	16	0.533369663953781	2	8	5	NaN	2	4	0.19294284117267	1	1	NaN	12	1	12	1	121	221	321	NaN	521	1.11561632156372	2	1	NaN	4909750.3004286	NaN	4909751.2838227	4909751.80038528
58	21	1	0	90	36.1581920903955	36.241610738255	15	0.50003405995667	2	6	5	NaN	1	3	0.19294284117267	1	1	NaN	13	1	13	1	121	221	321	NaN	521	0.420866069383919	2	0	NaN	4909753.850656	NaN	4909754.834176	4909755.35072593
58	21	1	0	90	36.1581920903955	36.241610738255	0	0	1	7	5	NaN	2	4	0.19294284117267	1	1	NaN	14	1	14	1	111	211	311	NaN	511	1.46258496958762	1	0	NaN	4909756.6010485	NaN	4909757.5844319	4909758.10099393
58	21	1	0	90	36.1581920903955	36.241610738255	12	0.400027247965336	2	12	6	NaN	2	4	0.19294284117267	1	1	NaN	15	1	15	1	121	221	321	NaN	521	0.902810121886432	2	1	NaN	4909760.3847488	NaN	4909761.3681286	4909761.88470638
58	21	1	0	90	36.1581920903955	36.241610738255	11	0.366691643968225	2	10	5	NaN	2	3	0.19294284117267	1	1	NaN	16	1	16	1	121	221	321	NaN	521	0.64586946927011	2	1	NaN	4909763.6017643	NaN	4909764.5851369	4909765.10168383
58	21	1	0	90	36.1581920903955	36.241610738255	20	0.666712079942226	2	4	5	NaN	1	5	0.19294284117267	1	1	NaN	17	1	17	1	121	221	321	NaN	521	0.654833221808076	1	1	NaN	4909766.5686886	NaN	4909767.5520693	4909768.06864528
58	21	1	0	90	36.1581920903955	36.241610738255	10	0.333356039971113	2	1	2	NaN	1	5	0.19294284117267	1	1	NaN	18	1	18	1	121	221	321	NaN	521	1.43951116967946	2	0	NaN	4909769.9523283	NaN	4909770.9357453	4909771.45231143
58	21	1	0	90	36.1581920903955	36.241610738255	12	0.400027247965336	2	10	5	NaN	2	3	0.19294284117267	1	1	NaN	19	1	19	1	121	221	321	NaN	521	0.400079816579819	1	0	NaN	4909773.7193797	NaN	4909774.7028722	4909775.21934958
58	21	1	0	90	36.1581920903955	36.241610738255	14	0.466698455959559	2	11	6	NaN	2	5	0.19294284117267	1	1	NaN	20	1	20	1	121	221	321	NaN	521	1.0112109221518	2	1	NaN	4909776.4363247	NaN	4909777.4197202	4909777.93628518
58	21	1	0	90	36.1581920903955	36.241610738255	22	0.733383287936449	2	8	5	NaN	2	5	0.19294284117267	1	1	NaN	21	1	21	1	121	221	321	NaN	521	0.821583322249353	2	1	NaN	4909779.7699949	NaN	4909780.7535068	4909781.26994818
58	21	1	0	90	36.1581920903955	36.241610738255	13	0.433362851962447	2	12	4	NaN	2	3	0.19294284117267	1	1	NaN	22	1	22	1	121	221	321	NaN	521	0.548336021602154	2	1	NaN	4909783.0036557	NaN	4909783.9870293	4909784.50359878
58	21	1	0	90	36.1581920903955	36.241610738255	15	0.50003405995667	2	8	6	NaN	2	3	0.19294284117267	1	1	NaN	23	1	23	1	121	221	321	NaN	521	1.56109036970884	2	1	NaN	4909785.8705893	NaN	4909786.8539939	4909787.37053983
58	21	1	0	90	36.1581920903955	36.241610738255	6	0.200013623982668	2	1	5	NaN	1	5	0.19294284117267	1	1	NaN	24	1	24	1	121	221	321	NaN	521	0.574174869805574	1	1	NaN	4909789.7376417	NaN	4909790.7210366	4909791.23758513
58	21	1	0	90	36.1581920903955	36.241610738255	20	0.666712079942226	2	5	6	NaN	1	4	0.19294284117267	1	1	NaN	25	1	25	1	121	221	321	NaN	521	0.411442621611059	1	1	NaN	4909792.8045645	NaN	4909793.7880209	4909794.30455918
58	21	1	0	90	36.1581920903955	36.241610738255	21	0.700047683939338	2	10	3	NaN	2	3	0.19294284117267	1	1	NaN	26	1	26	1	121	221	321	NaN	521	0.326449122279882	2	1	NaN	4909796.1215753	NaN	4909797.1049939	4909797.62154618
58	21	1	0	90	36.1581920903955	36.241610738255	25	0.833390099927783	2	7	4	NaN	2	3	0.19294284117267	1	1	NaN	27	1	27	1	121	221	321	NaN	521	0.654506421647966	2	1	NaN	4909799.1052062	NaN	4909800.0886297	4909800.60517958
58	21	1	0	90	36.1581920903955	36.241610738255	20	0.666712079942226	2	6	5	NaN	1	4	0.19294284117267	1	1	NaN	28	1	28	1	121	221	321	NaN	521	0.26393112167716	2	0	NaN	4909802.0720605	NaN	4909803.0555828	4909803.57213738
58	21	1	0	90	36.1581920903955	36.241610738255	14	0.466698455959559	2	5	1	NaN	1	5	0.19294284117267	1	1	NaN	29	1	29	1	121	221	321	NaN	521	0.286096221767366	1	1	NaN	4909805.1058071	NaN	4909806.0892217	4909806.60577198
58	21	1	0	90	36.1581920903955	36.241610738255	21	0.700047683939338	2	2	2	NaN	1	3	0.19294284117267	1	1	NaN	30	1	30	1	121	221	321	NaN	521	0.606964820995927	1	1	NaN	4909808.2727739	NaN	4909809.2561868	4909809.77274368
58	21	1	0	90	36.1581920903955	36.241610738255	10	0.333356039971113	2	10	5	NaN	2	4	0.19294284117267	1	1	NaN	31	1	31	1	121	221	321	NaN	521	0.0103909224271774	2	1	NaN	4909811.6897702	NaN	4909812.6731978	4909813.18975388
58	21	1	0	90	36.1581920903955	36.241610738255	24	0.800054495930672	2	12	5	NaN	2	5	0.19294284117267	1	1	NaN	32	1	32	1	121	221	321	NaN	521	0.704477769322693	2	1	NaN	4909814.0233781	NaN	4909815.0067482	4909815.52330803
58	21	1	0	90	36.1581920903955	36.241610738255	7	0.233349227979779	2	3	4	NaN	1	5	0.19294284117267	1	1	NaN	33	1	33	1	121	221	321	NaN	521	2.43132266961038	2	0	NaN	4909817.0402016	NaN	4909818.0237258	4909818.54027573
58	21	1	0	90	36.1581920903955	36.241610738255	9	0.300020435974002	2	12	4	NaN	2	5	0.19294284117267	1	1	NaN	34	1	34	1	121	221	321	NaN	521	0.360874437727034	2	1	NaN	4909821.7908883	NaN	4909822.7741853	4909823.29074466
58	21	1	0	90	36.1581920903955	36.241610738255	25	0.833390099927783	2	3	3	NaN	1	3	0.19294284117267	1	1	NaN	35	1	35	1	121	221	321	NaN	521	0.0104090692475438	1	1	NaN	4909824.4743868	NaN	4909825.4577961	4909825.97433603
58	21	1	0	90	36.1581920903955	36.241610738255	19	0.633376475945115	2	10	5	NaN	2	5	0.19294284117267	1	1	NaN	36	1	36	1	121	221	321	NaN	521	0.847707821056247	2	1	NaN	4909826.8079471	NaN	4909827.7913369	4909828.30789688
58	21	1	0	90	36.1581920903955	36.241610738255	23	0.76671889193356	2	7	6	NaN	2	3	0.19294284117267	1	1	NaN	37	1	37	1	121	221	321	NaN	521	0.60874402243644	2	1	NaN	4909829.9749244	NaN	4909830.9583438	4909831.47488328
58	21	1	0	90	36.1581920903955	36.241610738255	25	0.833390099927783	2	5	4	NaN	1	3	0.19294284117267	1	1	NaN	38	1	38	1	121	221	321	NaN	521	0.483968921937048	1	1	NaN	4909832.8917239	NaN	4909833.875291	4909834.39182978
58	21	1	0	90	36.1581920903955	36.241610738255	17	0.566705267950892	2	9	5	NaN	2	4	0.19294284117267	1	1	NaN	39	1	39	1	121	221	321	NaN	521	0.523594222031534	2	1	NaN	4909835.6921539	NaN	4909836.6755328	4909837.19211358
58	21	1	0	90	36.1581920903955	36.241610738255	17	0.566705267950892	2	5	3	NaN	1	4	0.19294284117267	1	1	NaN	40	1	40	1	121	221	321	NaN	521	0.265871422365308	1	1	NaN	4909838.5257673	NaN	4909839.509169	4909840.02571998
58	21	1	0	90	36.1581920903955	36.241610738255	22	0.733383287936449	2	11	2	NaN	2	5	0.19294284117267	1	1	NaN	41	1	41	1	121	221	321	NaN	521	1.99841861613095	1	0	NaN	4909841.2092483	NaN	4909842.1927744	4909842.70931748
58	21	1	0	90	36.1581920903955	36.241610738255	23	0.76671889193356	2	7	5	NaN	2	5	0.19294284117267	1	1	NaN	42	1	42	1	121	221	321	NaN	521	0.633525669574738	2	1	NaN	4909845.526337	NaN	4909846.5098473	4909847.02640793
58	21	1	0	90	36.1581920903955	36.241610738255	15	0.50003405995667	2	12	6	NaN	2	4	0.19294284117267	1	1	NaN	43	1	43	1	121	221	321	NaN	521	1.76293876953423	2	1	NaN	4909848.4767409	NaN	4909849.4601555	4909849.97669753
58	21	1	0	90	36.1581920903955	36.241610738255	13	0.433362851962447	2	8	2	NaN	2	3	0.19294284117267	1	1	NaN	44	1	44	1	121	221	321	NaN	521	0.91186576988548	2	1	NaN	4909852.5438049	NaN	4909853.5272104	4909854.04376563
58	21	1	0	90	36.1581920903955	36.241610738255	8	0.266684831976891	2	3	4	NaN	1	3	0.19294284117267	1	1	NaN	45	1	45	1	121	221	321	NaN	521	0.718870569951832	1	1	NaN	4909855.7608029	NaN	4909856.7442053	4909857.26074383
58	21	1	0	90	36.1581920903955	36.241610738255	7	0.233349227979779	2	5	2	NaN	1	5	0.19294284117267	1	1	NaN	46	1	46	1	121	221	321	NaN	521	0.565276321955025	1	1	NaN	4909858.7944644	NaN	4909859.7779227	4909860.29438168
58	21	1	0	90	36.1581920903955	36.241610738255	25	0.833390099927783	2	1	2	NaN	1	4	0.19294284117267	1	1	NaN	47	1	47	1	121	221	321	NaN	521	0.153747421689332	2	0	NaN	4909861.6781476	NaN	4909862.6614493	4909863.17799878
58	21	1	0	90	36.1581920903955	36.241610738255	13	0.433362851962447	2	3	6	NaN	1	3	0.19294284117267	1	1	NaN	48	1	48	1	121	221	321	NaN	521	0.326829621568322	1	1	NaN	4909864.1450414	NaN	4909865.1282544	4909865.64490908
58	21	1	0	90	36.1581920903955	36.241610738255	9	0.300020435974002	2	2	6	NaN	1	5	0.19294284117267	1	1	NaN	49	1	49	1	121	221	321	NaN	521	0.327593469060957	1	1	NaN	4909867.3285719	NaN	4909868.3119814	4909868.82855693
58	21	1	0	90	36.1581920903955	36.241610738255	7	0.233349227979779	2	7	5	NaN	2	5	0.19294284117267	1	1	NaN	50	1	50	1	121	221	321	NaN	521	0.949299169704318	2	1	NaN	4909869.9788572	NaN	4909870.962249	4909871.47881293
58	21	1	0	90	36.1581920903955	36.241610738255	21	0.700047683939338	2	9	1	NaN	2	3	0.19294284117267	1	1	NaN	51	1	51	1	121	221	321	NaN	521	0.498349221423268	2	1	NaN	4909873.24584	NaN	4909874.2292531	4909874.74580128
58	21	1	0	90	36.1581920903955	36.241610738255	24	0.800054495930672	2	1	1	NaN	1	3	0.19294284117267	1	1	NaN	52	1	52	1	121	221	321	NaN	521	0.737111168913543	2	0	NaN	4909876.062802	NaN	4909877.0462215	4909877.56274773
58	21	1	0	90	36.1581920903955	36.241610738255	10	0.333356039971113	2	8	5	NaN	2	5	0.19294284117267	1	1	NaN	53	1	53	1	121	221	321	NaN	521	0.820202521048486	1	0	NaN	4909879.1797621	NaN	4909880.1631754	4909880.67972298
58	21	1	0	90	36.1581920903955	36.241610738255	9	0.300020435974002	2	11	6	NaN	2	4	0.19294284117267	1	1	NaN	54	1	54	1	121	221	321	NaN	521	0.333069521933794	2	1	NaN	4909882.7467636	NaN	4909883.7301763	4909884.24672808
58	21	1	0	90	36.1581920903955	36.241610738255	17	0.566705267950892	2	10	1	NaN	2	5	0.19294284117267	1	1	NaN	55	1	55	1	121	221	321	NaN	521	0.739024821668863	2	1	NaN	4909885.3970319	NaN	4909886.3804332	4909886.89699928
58	21	1	0	90	36.1581920903955	36.241610738255	24	0.800054495930672	2	7	3	NaN	2	5	0.19294284117267	1	1	NaN	56	1	56	1	121	221	321	NaN	521	1.17682862188667	2	1	NaN	4909888.4473458	NaN	4909889.4307456	4909889.94730198
58	21	1	0	90	36.1581920903955	36.241610738255	19	0.633376475945115	2	9	2	NaN	2	4	0.19294284117267	1	1	NaN	57	1	57	1	121	221	321	NaN	521	5.38858871627599	2	1	NaN	4909891.9311193	NaN	4909892.9144278	4909893.43096858
58	21	1	0	90	36.1581920903955	36.241610738255	16	0.533369663953781	2	9	6	NaN	2	5	0.19294284117267	1	1	NaN	58	1	58	1	121	221	321	NaN	521	0.389889470301569	2	1	NaN	4909900.0818021	NaN	4909901.0652146	4909901.58177263
58	21	1	0	90	36.1581920903955	36.241610738255	24	0.800054495930672	2	2	2	NaN	1	5	0.19294284117267	1	1	NaN	59	1	59	1	121	221	321	NaN	521	0.443573921918869	1	1	NaN	4909903.3321489	NaN	4909904.3155289	4909904.83209748
58	21	1	0	90	36.1581920903955	36.241610738255	17	0.566705267950892	2	8	1	NaN	2	5	0.19294284117267	1	1	NaN	60	1	60	1	121	221	321	NaN	521	0.372412669472396	2	1	NaN	4909906.1156183	NaN	4909907.0991557	4909907.61569773
58	21	1	0	90	36.1581920903955	36.241610738255	7	0.233349227979779	2	11	2	NaN	2	3	0.19294284117267	1	1	NaN	61	1	61	1	121	221	321	NaN	521	0.728494769893587	2	1	NaN	4909908.7993339	NaN	4909909.7827481	4909910.29930123
58	21	1	0	90	36.1581920903955	36.241610738255	24	0.800054495930672	2	1	2	NaN	1	3	0.19294284117267	1	1	NaN	62	1	62	1	121	221	321	NaN	521	0.010410969145596	1	1	NaN	4909911.8329828	NaN	4909912.8163748	4909913.33292273
58	21	1	0	90	36.1581920903955	36.241610738255	7	0.233349227979779	2	7	1	NaN	2	3	0.19294284117267	1	1	NaN	63	1	63	1	121	221	321	NaN	521	0.498421521857381	2	1	NaN	4909914.1498702	NaN	4909915.1332711	4909915.64982908
58	21	1	0	90	36.1581920903955	36.241610738255	21	0.700047683939338	2	4	5	NaN	1	4	0.19294284117267	1	1	NaN	64	2	1	1	121	221	321	NaN	521	0.744612169452012	2	0	NaN	4909924.9674759	NaN	4909925.9510042	4909926.46755513
58	21	1	0	90	36.1581920903955	36.241610738255	21	0.700047683939338	2	3	4	NaN	1	5	0.19294284117267	1	1	NaN	65	2	2	1	121	221	321	NaN	521	0.349646569229662	1	1	NaN	4909928.0345659	NaN	4909929.017964	4909929.53452443
58	21	1	0	90	36.1581920903955	36.241610738255	20	0.666712079942226	2	3	1	NaN	1	4	0.19294284117267	1	1	NaN	66	2	3	1	121	221	321	NaN	521	0.307640669867396	1	1	NaN	4909931.0681758	NaN	4909932.0516052	4909932.56815213
58	21	1	0	90	36.1581920903955	36.241610738255	0	0	1	4	3	NaN	1	4	0.19294284117267	1	1	NaN	67	2	4	1	111	211	311	NaN	511	0.291099670343101	1	1	NaN	4909933.6851159	NaN	4909934.6685147	4909935.18508403
58	21	1	0	90	36.1581920903955	36.241610738255	6	0.200013623982668	2	8	2	NaN	2	3	0.19294284117267	1	1	NaN	68	2	5	1	121	221	321	NaN	521	0.210804268717766	2	1	NaN	4909936.2853952	NaN	4909937.2687673	4909937.78533463
58	21	1	0	90	36.1581920903955	36.241610738255	23	0.76671889193356	2	4	2	NaN	1	3	0.19294284117267	1	1	NaN	69	2	6	1	121	221	321	NaN	521	0.588967315852642	2	0	NaN	4909938.8189649	NaN	4909939.8023494	4909940.31891488
58	21	1	0	90	36.1581920903955	36.241610738255	6	0.200013623982668	2	7	6	NaN	2	3	0.19294284117267	1	1	NaN	70	2	7	1	121	221	321	NaN	521	0.200692069716752	2	1	NaN	4909941.7192447	NaN	4909942.7026535	4909943.21920183
58	21	1	0	90	36.1581920903955	36.241610738255	18	0.600040871948004	2	9	3	NaN	2	4	0.19294284117267	1	1	NaN	71	2	8	1	121	221	321	NaN	521	0.244075468741357	2	1	NaN	4909944.2361156	NaN	4909945.2195628	4909945.73611213
58	21	1	0	90	36.1581920903955	36.241610738255	7	0.233349227979779	2	1	4	NaN	1	4	0.19294284117267	1	1	NaN	72	2	9	1	121	221	321	NaN	521	0.253601369448006	1	1	NaN	4909946.7863319	NaN	4909947.7698553	4909948.28636623
58	21	1	0	90	36.1581920903955	36.241610738255	6	0.200013623982668	2	3	3	NaN	1	5	0.19294284117267	1	1	NaN	73	2	10	1	121	221	321	NaN	521	0.0864727692678571	1	1	NaN	4909949.3533375	NaN	4909950.3367312	4909950.85330203
58	21	1	0	90	36.1581920903955	36.241610738255	23	0.76671889193356	2	4	5	NaN	1	5	0.19294284117267	1	1	NaN	74	2	11	1	121	221	321	NaN	521	0.652453269809484	1	1	NaN	4909952.2035459	NaN	4909953.1870077	4909953.70357073
58	21	1	0	90	36.1581920903955	36.241610738255	10	0.333356039971113	2	4	4	NaN	1	4	0.19294284117267	1	1	NaN	75	2	12	1	121	221	321	NaN	521	0.325317369773984	1	1	NaN	4909955.1705618	NaN	4909956.1539767	4909956.67052073
58	21	1	0	90	36.1581920903955	36.241610738255	14	0.466698455959559	2	12	5	NaN	2	3	0.19294284117267	1	1	NaN	76	2	13	1	121	221	321	NaN	521	0.931105121038854	2	1	NaN	4909957.8208217	NaN	4909958.8042353	4909959.32078498
58	21	1	0	90	36.1581920903955	36.241610738255	11	0.366691643968225	2	9	2	NaN	2	3	0.19294284117267	1	1	NaN	77	2	14	1	121	221	321	NaN	521	0.241798222064972	2	1	NaN	4909961.0545184	NaN	4909962.0378836	4909962.55444088
58	21	1	0	90	36.1581920903955	36.241610738255	13	0.433362851962447	2	4	6	NaN	1	5	0.19294284117267	1	1	NaN	78	2	15	1	121	221	321	NaN	521	0.234320616349578	1	1	NaN	4909963.6213948	NaN	4909964.6048144	4909965.12135458
58	21	1	0	90	36.1581920903955	36.241610738255	15	0.50003405995667	2	1	1	NaN	1	5	0.19294284117267	1	1	NaN	79	2	16	1	121	221	321	NaN	521	0.90704062115401	1	1	NaN	4909966.20497	NaN	4909967.1883828	4909967.70494358
58	21	1	0	90	36.1581920903955	36.241610738255	11	0.366691643968225	2	1	6	NaN	1	4	0.19294284117267	1	1	NaN	80	2	17	1	121	221	321	NaN	521	0.282296169549227	1	1	NaN	4909969.4219726	NaN	4909970.4054084	4909970.92192663
58	21	1	0	90	36.1581920903955	36.241610738255	20	0.666712079942226	2	6	3	NaN	1	5	0.19294284117267	1	1	NaN	81	2	18	1	121	221	321	NaN	521	0.441797021776438	1	1	NaN	4909972.0222355	NaN	4909973.0056322	4909973.52218658
58	21	1	0	90	36.1581920903955	36.241610738255	8	0.266684831976891	2	4	3	NaN	1	3	0.19294284117267	1	1	NaN	82	2	19	1	121	221	321	NaN	521	0.299339316785336	1	1	NaN	4909974.7724882	NaN	4909975.755892	4909976.27244408
58	21	1	0	90	36.1581920903955	36.241610738255	23	0.76671889193356	2	3	2	NaN	1	4	0.19294284117267	1	1	NaN	83	2	20	1	121	221	321	NaN	521	0.602934169583023	1	1	NaN	4909977.3894029	NaN	4909978.3728129	4909978.88937353
58	21	1	0	90	36.1581920903955	36.241610738255	18	0.600040871948004	2	1	1	NaN	1	4	0.19294284117267	1	1	NaN	84	2	21	1	121	221	321	NaN	521	0.261602721177042	1	1	NaN	4909980.3063846	NaN	4909981.2897962	4909981.80633298
58	21	1	0	90	36.1581920903955	36.241610738255	16	0.533369663953781	2	10	1	NaN	2	5	0.19294284117267	1	1	NaN	85	2	22	1	121	221	321	NaN	521	0.553875121288002	2	1	NaN	4909982.9899994	NaN	4909983.9733607	4909984.48993088
58	21	1	0	90	36.1581920903955	36.241610738255	25	0.833390099927783	2	11	3	NaN	2	4	0.19294284117267	1	1	NaN	86	2	23	1	121	221	321	NaN	521	0.551222275011241	2	1	NaN	4909985.8569125	NaN	4909986.8403254	4909987.35688192
58	21	1	0	90	36.1581920903955	36.241610738255	21	0.700047683939338	2	11	2	NaN	2	5	0.19294284117267	1	1	NaN	87	2	24	1	121	221	321	NaN	521	0.21188747510314	1	0	NaN	4909988.7238561	NaN	4909989.7072571	4909990.22382972
58	21	1	0	90	36.1581920903955	36.241610738255	19	0.633376475945115	2	11	1	NaN	2	3	0.19294284117267	1	1	NaN	88	2	25	1	121	221	321	NaN	521	0.215069721452892	2	1	NaN	4909991.2406618	NaN	4909992.2241904	4909992.74075058
58	21	1	0	90	36.1581920903955	36.241610738255	11	0.366691643968225	2	4	1	NaN	1	3	0.19294284117267	1	1	NaN	89	2	26	1	121	221	321	NaN	521	0.313812421634793	1	1	NaN	4909993.7742439	NaN	4909994.7577173	4909995.27432108
58	21	1	0	90	36.1581920903955	36.241610738255	14	0.466698455959559	2	2	5	NaN	1	4	0.19294284117267	1	1	NaN	90	2	27	1	121	221	321	NaN	521	0.263880621641874	1	1	NaN	4909996.4079654	NaN	4909997.391364	4909997.90791428
58	21	1	0	90	36.1581920903955	36.241610738255	12	0.400027247965336	2	10	2	NaN	2	4	0.19294284117267	1	1	NaN	91	2	28	1	121	221	321	NaN	521	0.415071126073599	2	1	NaN	4909999.2247908	NaN	4910000.2082967	4910000.72485567
58	21	1	0	90	36.1581920903955	36.241610738255	9	0.300020435974002	2	9	4	NaN	2	4	0.19294284117267	1	1	NaN	92	2	29	1	121	221	321	NaN	521	0.321589269675314	2	1	NaN	4910001.9585278	NaN	4910002.9419078	4910003.45846123
58	21	1	0	90	36.1581920903955	36.241610738255	19	0.633376475945115	2	1	5	NaN	1	3	0.19294284117267	1	1	NaN	93	2	30	1	121	221	321	NaN	521	0.239941522479057	2	0	NaN	4910004.5920938	NaN	4910005.5755342	4910006.09205208
58	21	1	0	90	36.1581920903955	36.241610738255	20	0.666712079942226	2	12	1	NaN	2	5	0.19294284117267	1	1	NaN	94	2	31	1	121	221	321	NaN	521	0.23369132168591	1	0	NaN	4910007.1423367	NaN	4910008.12575	4910008.64230398
58	21	1	0	90	36.1581920903955	36.241610738255	19	0.633376475945115	2	12	5	NaN	2	5	0.19294284117267	1	1	NaN	95	2	32	1	121	221	321	NaN	521	0.339384221471846	1	0	NaN	4910009.6925919	NaN	4910010.6759957	4910011.19255798
58	21	1	0	90	36.1581920903955	36.241610738255	0	0	1	8	1	NaN	2	3	0.19294284117267	1	1	NaN	96	2	33	1	111	211	311	NaN	511	0.257138417102396	2	1	NaN	4910012.3427868	NaN	4910013.3262573	4910013.84281408
58	21	1	0	90	36.1581920903955	36.241610738255	18	0.600040871948004	2	9	5	NaN	2	4	0.19294284117267	1	1	NaN	97	2	34	1	121	221	321	NaN	521	0.273881869390607	2	1	NaN	4910014.926441	NaN	4910015.9098329	4910016.42639353
58	21	1	0	90	36.1581920903955	36.241610738255	17	0.566705267950892	2	11	4	NaN	2	3	0.19294284117267	1	1	NaN	98	2	35	1	121	221	321	NaN	521	0.266072569414973	2	1	NaN	4910017.5100309	NaN	4910018.4934202	4910019.00998273
58	21	1	0	90	36.1581920903955	36.241610738255	9	0.300020435974002	2	3	2	NaN	1	5	0.19294284117267	1	1	NaN	99	2	36	1	121	221	321	NaN	521	0.370471369475126	1	1	NaN	4910020.0936129	NaN	4910021.0770732	4910021.59357393
58	21	1	0	90	36.1581920903955	36.241610738255	22	0.733383287936449	2	4	4	NaN	1	3	0.19294284117267	1	1	NaN	100	2	37	1	121	221	321	NaN	521	0.231199942529202	1	1	NaN	4910022.777218	NaN	4910023.7606242	4910024.27717536
58	21	1	0	90	36.1581920903955	36.241610738255	10	0.333356039971113	2	5	5	NaN	1	5	0.19294284117267	1	1	NaN	101	2	38	1	121	221	321	NaN	521	0.312516142614186	1	1	NaN	4910025.3274824	NaN	4910026.3108751	4910026.82744626
58	21	1	0	90	36.1581920903955	36.241610738255	22	0.733383287936449	2	8	1	NaN	2	3	0.19294284117267	1	1	NaN	102	2	39	1	121	221	321	NaN	521	0.176365869119763	2	1	NaN	4910028.1277278	NaN	4910029.1111563	4910029.62769633
58	21	1	0	90	36.1581920903955	36.241610738255	7	0.233349227979779	2	6	2	NaN	1	3	0.19294284117267	1	1	NaN	103	2	40	1	121	221	321	NaN	521	0.236016574315727	1	1	NaN	4910030.6279981	NaN	4910031.6114274	4910032.12794933
58	21	1	0	90	36.1581920903955	36.241610738255	10	0.333356039971113	2	2	4	NaN	1	5	0.19294284117267	1	1	NaN	104	2	41	1	121	221	321	NaN	521	0.661707369610667	1	1	NaN	4910033.1782354	NaN	4910034.1616504	4910034.67819443
58	21	1	0	90	36.1581920903955	36.241610738255	18	0.600040871948004	2	5	1	NaN	1	4	0.19294284117267	1	1	NaN	105	2	42	1	121	221	321	NaN	521	0.246918121352792	1	1	NaN	4910036.1452044	NaN	4910037.1286076	4910037.64514608
58	21	1	0	90	36.1581920903955	36.241610738255	10	0.333356039971113	2	4	4	NaN	1	5	0.19294284117267	1	1	NaN	106	2	43	1	121	221	321	NaN	521	0.49590462166816	1	1	NaN	4910038.7121275	NaN	4910039.6955234	4910040.21207018
58	21	1	0	90	36.1581920903955	36.241610738255	19	0.633376475945115	2	6	1	NaN	1	4	0.19294284117267	1	1	NaN	107	2	44	1	121	221	321	NaN	521	0.327251921407878	1	1	NaN	4910041.5290499	NaN	4910042.5124547	4910043.02901288
58	21	1	0	90	36.1581920903955	36.241610738255	17	0.566705267950892	2	7	1	NaN	2	3	0.19294284117267	1	1	NaN	108	2	45	1	121	221	321	NaN	521	2.10905186925083	1	0	NaN	4910044.1793254	NaN	4910045.1627111	4910045.67928403
58	21	1	0	90	36.1581920903955	36.241610738255	20	0.666712079942226	2	4	1	NaN	1	3	0.19294284117267	1	1	NaN	109	2	46	1	121	221	321	NaN	521	1.65985946916044	1	1	NaN	4910048.5964601	NaN	4910049.5798285	4910050.09638253
58	21	1	0	90	36.1581920903955	36.241610738255	12	0.400027247965336	2	7	2	NaN	2	3	0.19294284117267	1	1	NaN	110	2	47	1	121	221	321	NaN	521	0.227863170206547	1	0	NaN	4910052.580156	NaN	4910053.563564	4910054.08009883
58	21	1	0	90	36.1581920903955	36.241610738255	7	0.233349227979779	2	1	3	NaN	1	3	0.19294284117267	1	1	NaN	111	2	48	1	121	221	321	NaN	521	0.286714021116495	1	1	NaN	4910055.1136693	NaN	4910056.0971284	4910056.61369048
58	21	1	0	90	36.1581920903955	36.241610738255	11	0.366691643968225	2	4	6	NaN	1	3	0.19294284117267	1	1	NaN	112	2	49	1	121	221	321	NaN	521	0.398407221771777	2	0	NaN	4910057.7139855	NaN	4910058.6974064	4910059.21394348
58	21	1	0	90	36.1581920903955	36.241610738255	22	0.733383287936449	2	3	3	NaN	1	4	0.19294284117267	1	1	NaN	113	2	50	1	121	221	321	NaN	521	0.236118815839291	1	1	NaN	4910060.9643026	NaN	4910061.9477113	4910062.46425898
58	21	1	0	90	36.1581920903955	36.241610738255	16	0.533369663953781	2	10	3	NaN	2	5	0.19294284117267	1	1	NaN	114	2	51	1	121	221	321	NaN	521	0.269592521712184	1	0	NaN	4910063.514471	NaN	4910064.4979622	4910065.01451328
58	21	1	0	90	36.1581920903955	36.241610738255	20	0.666712079942226	2	12	6	NaN	2	5	0.19294284117267	1	1	NaN	115	2	52	1	121	221	321	NaN	521	0.678127821534872	2	1	NaN	4910066.0981427	NaN	4910067.0814393	4910067.59809608
58	21	1	0	90	36.1581920903955	36.241610738255	25	0.833390099927783	2	11	1	NaN	2	5	0.19294284117267	1	1	NaN	116	2	53	1	121	221	321	NaN	521	0.293911484070122	2	1	NaN	4910069.0984525	NaN	4910070.0818723	4910070.59839772
58	21	1	0	90	36.1581920903955	36.241610738255	15	0.50003405995667	2	9	4	NaN	2	4	0.19294284117267	1	1	NaN	117	2	54	1	121	221	321	NaN	521	0.412541321478784	2	1	NaN	4910071.715365	NaN	4910072.6987715	4910073.21531058
58	21	1	0	90	36.1581920903955	36.241610738255	14	0.466698455959559	2	12	3	NaN	2	3	0.19294284117267	1	1	NaN	118	2	55	1	121	221	321	NaN	521	0.223182369954884	2	1	NaN	4910074.449074	NaN	4910075.4323685	4910075.94891993
58	21	1	0	90	36.1581920903955	36.241610738255	11	0.366691643968225	2	2	3	NaN	1	4	0.19294284117267	1	1	NaN	119	2	56	1	121	221	321	NaN	521	1.80793476477265	2	0	NaN	4910077.4325769	NaN	4910078.4159941	4910078.93254204
58	21	1	0	90	36.1581920903955	36.241610738255	23	0.76671889193356	2	10	4	NaN	2	5	0.19294284117267	1	1	NaN	120	2	57	1	121	221	321	NaN	521	1.47435992117971	2	1	NaN	4910081.5496547	NaN	4910082.5330668	4910083.04962128
58	21	1	0	90	36.1581920903955	36.241610738255	12	0.400027247965336	2	4	2	NaN	1	3	0.19294284117267	1	1	NaN	121	2	58	1	121	221	321	NaN	521	0.37073322199285	1	1	NaN	4910085.3333796	NaN	4910086.3167695	4910086.83332358
58	21	1	0	90	36.1581920903955	36.241610738255	23	0.76671889193356	2	8	6	NaN	2	3	0.19294284117267	1	1	NaN	122	2	59	1	121	221	321	NaN	521	0.743276341818273	2	1	NaN	4910088.0169649	NaN	4910089.0003835	4910089.51691826
58	21	1	0	90	36.1581920903955	36.241610738255	23	0.76671889193356	2	1	1	NaN	1	5	0.19294284117267	1	1	NaN	123	2	60	1	121	221	321	NaN	521	0.492531222291291	2	0	NaN	4910091.08394	NaN	4910092.0672354	4910092.58389208
58	21	1	0	90	36.1581920903955	36.241610738255	13	0.433362851962447	2	9	2	NaN	2	3	0.19294284117267	1	1	NaN	124	2	61	1	121	221	321	NaN	521	0.899907516315579	2	1	NaN	4910093.8842024	NaN	4910094.8675896	4910095.38416148
58	21	1	0	90	36.1581920903955	36.241610738255	20	0.666712079942226	2	11	3	NaN	2	5	0.19294284117267	1	1	NaN	125	2	62	1	121	221	321	NaN	521	7.88210937008262	2	1	NaN	4910097.117864	NaN	4910098.1012739	4910098.61780633
58	21	1	0	90	36.1581920903955	36.241610738255	17	0.566705267950892	2	10	5	NaN	2	5	0.19294284117267	1	1	NaN	126	2	63	1	121	221	321	NaN	521	0.537637921981514	2	1	NaN	4910107.3188673	NaN	4910108.3022597	4910108.81881658
58	21	1	0	90	36.1581920903955	36.241610738255	14	0.466698455959559	2	7	6	NaN	2	4	0.19294284117267	1	1	NaN	127	3	1	1	121	221	321	NaN	521	0.551312320865691	2	1	NaN	4910119.9366797	NaN	4910120.9201755	4910121.43671768
58	21	1	0	90	36.1581920903955	36.241610738255	9	0.300020435974002	2	7	3	NaN	2	4	0.19294284117267	1	1	NaN	128	3	2	1	121	221	321	NaN	521	0.473710421472788	1	0	NaN	4910123.2704166	NaN	4910124.2538332	4910124.77038688
58	21	1	0	90	36.1581920903955	36.241610738255	18	0.600040871948004	2	7	4	NaN	2	4	0.19294284117267	1	1	NaN	129	3	3	1	121	221	321	NaN	521	0.410018569789827	2	1	NaN	4910126.0540472	NaN	4910127.0374493	4910127.55399303
58	21	1	0	90	36.1581920903955	36.241610738255	9	0.300020435974002	2	10	3	NaN	2	5	0.19294284117267	1	1	NaN	130	3	4	1	121	221	321	NaN	521	0.229003122076392	2	1	NaN	4910128.7708486	NaN	4910129.7543721	4910130.27093108
58	21	1	0	90	36.1581920903955	36.241610738255	8	0.266684831976891	2	8	5	NaN	2	3	0.19294284117267	1	1	NaN	131	3	5	1	121	221	321	NaN	521	0.407220769673586	2	1	NaN	4910131.3212095	NaN	4910132.304627	4910132.82118123
58	21	1	0	90	36.1581920903955	36.241610738255	7	0.233349227979779	2	6	6	NaN	1	5	0.19294284117267	1	1	NaN	132	3	6	1	121	221	321	NaN	521	0.22968712169677	1	1	NaN	4910134.5547985	NaN	4910135.5382705	4910136.05482618
58	21	1	0	90	36.1581920903955	36.241610738255	0	0	1	11	5	NaN	2	5	0.19294284117267	1	1	NaN	133	3	7	1	111	211	311	NaN	511	0.319457969628274	2	1	NaN	4910137.1051126	NaN	4910138.0885105	4910138.60507083
58	21	1	0	90	36.1581920903955	36.241610738255	16	0.533369663953781	2	7	4	NaN	2	5	0.19294284117267	1	1	NaN	134	3	8	1	121	221	321	NaN	521	0.197432669810951	1	0	NaN	4910139.738722	NaN	4910140.72212	4910141.23866583
58	21	1	0	90	36.1581920903955	36.241610738255	21	0.700047683939338	2	9	3	NaN	2	5	0.19294284117267	1	1	NaN	135	3	9	1	121	221	321	NaN	521	0.192538269795477	2	1	NaN	4910142.2556577	NaN	4910143.2390379	4910143.75558543
58	21	1	0	90	36.1581920903955	36.241610738255	16	0.533369663953781	2	11	3	NaN	2	3	0.19294284117267	1	1	NaN	136	3	10	1	121	221	321	NaN	521	1.45170122198761	2	1	NaN	4910144.7725375	NaN	4910145.7559949	4910146.27250588
58	21	1	0	90	36.1581920903955	36.241610738255	20	0.666712079942226	2	7	1	NaN	2	3	0.19294284117267	1	1	NaN	137	3	11	1	121	221	321	NaN	521	0.436832820996642	2	1	NaN	4910148.5395931	NaN	4910149.5229874	4910150.03952908
58	21	1	0	90	36.1581920903955	36.241610738255	0	0	1	11	4	NaN	2	5	0.19294284117267	1	1	NaN	138	3	12	1	111	211	311	NaN	511	0.582263469696045	2	1	NaN	4910151.2898475	NaN	4910152.2732516	4910152.78980483
58	21	1	0	90	36.1581920903955	36.241610738255	20	0.666712079942226	2	8	4	NaN	2	3	0.19294284117267	1	1	NaN	139	3	13	1	121	221	321	NaN	521	0.275125542655587	2	1	NaN	4910154.1734795	NaN	4910155.1568895	4910155.67343206
58	21	1	0	90	36.1581920903955	36.241610738255	6	0.200013623982668	2	5	3	NaN	1	4	0.19294284117267	1	1	NaN	140	3	14	1	121	221	321	NaN	521	0.0104038212448359	1	1	NaN	4910156.7570121	NaN	4910157.7404699	4910158.25701478
58	21	1	0	90	36.1581920903955	36.241610738255	13	0.433362851962447	2	11	2	NaN	2	5	0.19294284117267	1	1	NaN	141	3	15	1	121	221	321	NaN	521	0.270555969327688	1	0	NaN	4910159.0739378	NaN	4910160.0573565	4910160.57390263
58	21	1	0	90	36.1581920903955	36.241610738255	16	0.533369663953781	2	2	1	NaN	1	3	0.19294284117267	1	1	NaN	142	3	16	1	121	221	321	NaN	521	0.590690021403134	2	0	NaN	4910161.6574268	NaN	4910162.6409571	4910163.15749398
58	21	1	0	90	36.1581920903955	36.241610738255	0	0	1	6	4	NaN	1	5	0.19294284117267	1	1	NaN	143	3	17	1	111	211	311	NaN	511	0.466269521042705	1	1	NaN	4910164.5576953	NaN	4910165.5412344	4910166.05777388
58	21	1	0	90	36.1581920903955	36.241610738255	17	0.566705267950892	2	4	4	NaN	1	3	0.19294284117267	1	1	NaN	144	3	18	1	121	221	321	NaN	521	0.298770569264889	1	1	NaN	4910167.3414381	NaN	4910168.3248303	4910168.84138943
58	21	1	0	90	36.1581920903955	36.241610738255	10	0.333356039971113	2	8	5	NaN	2	4	0.19294284117267	1	1	NaN	145	3	19	1	121	221	321	NaN	521	0.602651169523597	2	1	NaN	4910169.941695	NaN	4910170.9251104	4910171.44164283
58	21	1	0	90	36.1581920903955	36.241610738255	15	0.50003405995667	2	4	4	NaN	1	5	0.19294284117267	1	1	NaN	146	3	20	1	121	221	321	NaN	521	0.269615416415036	1	1	NaN	4910172.8586571	NaN	4910173.8420631	4910174.35859588
58	21	1	0	90	36.1581920903955	36.241610738255	20	0.666712079942226	2	9	1	NaN	2	5	0.19294284117267	1	1	NaN	147	3	21	1	121	221	321	NaN	521	0.92584182228893	2	1	NaN	4910175.8589517	NaN	4910176.8423434	4910177.35888578
58	21	1	0	90	36.1581920903955	36.241610738255	25	0.833390099927783	2	2	1	NaN	1	4	0.19294284117267	1	1	NaN	148	3	22	1	121	221	321	NaN	521	0.298697021789849	1	1	NaN	4910179.1259179	NaN	4910180.1093191	4910180.62586888
58	21	1	0	90	36.1581920903955	36.241610738255	0	0	1	2	4	NaN	1	3	0.19294284117267	1	1	NaN	149	3	23	1	111	211	311	NaN	511	0.265298716723919	1	1	NaN	4910181.7427244	NaN	4910182.7262512	4910183.24280148
58	21	1	0	90	36.1581920903955	36.241610738255	25	0.833390099927783	2	6	1	NaN	1	3	0.19294284117267	1	1	NaN	150	3	24	1	121	221	321	NaN	521	0.264272621832788	1	1	NaN	4910184.7598079	NaN	4910185.7432051	4910186.25975978
58	21	1	0	90	36.1581920903955	36.241610738255	20	0.666712079942226	2	5	4	NaN	1	5	0.19294284117267	1	1	NaN	151	3	25	1	121	221	321	NaN	521	1.55391002073884	1	1	NaN	4910187.3267334	NaN	4910188.3101368	4910188.82668578
58	21	1	0	90	36.1581920903955	36.241610738255	7	0.233349227979779	2	12	2	NaN	2	5	0.19294284117267	1	1	NaN	152	3	26	1	121	221	321	NaN	521	0.990345321595669	2	1	NaN	4910191.1937567	NaN	4910192.1771615	4910192.69373068
58	21	1	0	90	36.1581920903955	36.241610738255	13	0.433362851962447	2	10	4	NaN	2	4	0.19294284117267	1	1	NaN	153	3	27	1	121	221	321	NaN	521	0.306499268859625	2	1	NaN	4910194.4940719	NaN	4910195.4775055	4910195.99405103
58	21	1	0	90	36.1581920903955	36.241610738255	6	0.200013623982668	2	5	6	NaN	1	5	0.19294284117267	1	1	NaN	154	3	28	1	121	221	321	NaN	521	0.35349562112242	2	0	NaN	4910197.1110277	NaN	4910198.0944269	4910198.61098058
58	21	1	0	90	36.1581920903955	36.241610738255	7	0.233349227979779	2	4	3	NaN	1	5	0.19294284117267	1	1	NaN	155	3	29	1	121	221	321	NaN	521	0.310305521823466	1	1	NaN	4910199.7779501	NaN	4910200.7613564	4910201.27790268
58	21	1	0	90	36.1581920903955	36.241610738255	10	0.333356039971113	2	6	5	NaN	1	4	0.19294284117267	1	1	NaN	156	3	30	1	121	221	321	NaN	521	0.642665869556367	1	1	NaN	4910202.8615693	NaN	4910203.8449957	4910204.36153733
58	21	1	0	90	36.1581920903955	36.241610738255	18	0.600040871948004	2	4	6	NaN	1	5	0.19294284117267	1	1	NaN	157	3	31	1	121	221	321	NaN	521	0.300376921892166	1	1	NaN	4910205.8118739	NaN	4910206.7953387	4910207.31183028
58	21	1	0	90	36.1581920903955	36.241610738255	23	0.76671889193356	2	11	3	NaN	2	5	0.19294284117267	1	1	NaN	158	3	32	1	121	221	321	NaN	521	0.267523015849292	1	0	NaN	4910208.4286947	NaN	4910209.4122046	4910209.92874788
58	21	1	0	90	36.1581920903955	36.241610738255	19	0.633376475945115	2	5	1	NaN	1	5	0.19294284117267	1	1	NaN	159	3	33	1	121	221	321	NaN	521	0.899944421835244	1	1	NaN	4910211.0123887	NaN	4910211.995798	4910212.51234778
58	21	1	0	90	36.1581920903955	36.241610738255	14	0.466698455959559	2	7	2	NaN	2	4	0.19294284117267	1	1	NaN	160	3	34	1	121	221	321	NaN	521	0.235284195281565	2	1	NaN	4910214.2293635	NaN	4910215.2128159	4910215.7293287
58	21	1	0	90	36.1581920903955	36.241610738255	11	0.366691643968225	2	1	5	NaN	1	3	0.19294284117267	1	1	NaN	161	3	35	1	121	221	321	NaN	521	0.0125317694619298	1	1	NaN	4910216.779609	NaN	4910217.7630476	4910218.27957923
58	21	1	0	90	36.1581920903955	36.241610738255	9	0.300020435974002	2	1	1	NaN	1	3	0.19294284117267	1	1	NaN	162	3	36	1	121	221	321	NaN	521	0.599009515717626	1	1	NaN	4910219.1131774	NaN	4910220.0965433	4910220.61314218
58	21	1	0	90	36.1581920903955	36.241610738255	9	0.300020435974002	2	6	3	NaN	1	4	0.19294284117267	1	1	NaN	163	3	37	1	121	221	321	NaN	521	0.850375722162426	1	1	NaN	4910222.030129	NaN	4910223.0135526	4910223.53009318
58	21	1	0	90	36.1581920903955	36.241610738255	17	0.566705267950892	2	2	2	NaN	1	4	0.19294284117267	1	1	NaN	164	3	38	1	121	221	321	NaN	521	0.643237021751702	1	1	NaN	4910225.197124	NaN	4910226.1805256	4910226.69706648
58	21	1	0	90	36.1581920903955	36.241610738255	17	0.566705267950892	2	3	3	NaN	1	4	0.19294284117267	1	1	NaN	165	3	39	1	121	221	321	NaN	521	0.388108469545841	1	1	NaN	4910228.3640686	NaN	4910229.3475312	4910229.86405623
58	21	1	0	90	36.1581920903955	36.241610738255	24	0.800054495930672	2	4	1	NaN	1	4	0.19294284117267	1	1	NaN	166	3	40	1	121	221	321	NaN	521	0.537290326319635	1	1	NaN	4910231.2310319	NaN	4910232.2144454	4910232.73099687
58	21	1	0	90	36.1581920903955	36.241610738255	21	0.700047683939338	2	1	2	NaN	1	5	0.19294284117267	1	1	NaN	167	3	41	1	121	221	321	NaN	521	0.503305569291115	1	1	NaN	4910234.2813506	NaN	4910235.2647521	4910235.78129123
58	21	1	0	90	36.1581920903955	36.241610738255	13	0.433362851962447	2	4	2	NaN	1	4	0.19294284117267	1	1	NaN	168	3	42	1	121	221	321	NaN	521	0.266909722238779	1	1	NaN	4910237.5816608	NaN	4910238.5650685	4910239.08161758
58	21	1	0	90	36.1581920903955	36.241610738255	8	0.266684831976891	2	10	3	NaN	2	4	0.19294284117267	1	1	NaN	169	3	43	1	121	221	321	NaN	521	0.33939796872437	2	1	NaN	4910240.1652429	NaN	4910241.148671	4910241.66521433
58	21	1	0	90	36.1581920903955	36.241610738255	24	0.800054495930672	2	11	4	NaN	2	5	0.19294284117267	1	1	NaN	170	3	44	1	121	221	321	NaN	521	0.264779421500862	2	1	NaN	4910242.8155066	NaN	4910243.7989121	4910244.31546888
58	21	1	0	90	36.1581920903955	36.241610738255	18	0.600040871948004	2	12	3	NaN	2	4	0.19294284117267	1	1	NaN	171	3	45	1	121	221	321	NaN	521	0.228773069567978	2	1	NaN	4910245.9158047	NaN	4910246.8992258	4910247.41577243
58	21	1	0	90	36.1581920903955	36.241610738255	6	0.200013623982668	2	3	5	NaN	1	3	0.19294284117267	1	1	NaN	172	3	46	1	121	221	321	NaN	521	0.630661969073117	2	0	NaN	4910248.4660738	NaN	4910249.4494527	4910249.96601953
58	21	1	0	90	36.1581920903955	36.241610738255	13	0.433362851962447	2	1	4	NaN	1	5	0.19294284117267	1	1	NaN	173	3	47	1	121	221	321	NaN	521	0.712081769481301	1	1	NaN	4910251.4162355	NaN	4910252.3997679	4910252.91633123
58	21	1	0	90	36.1581920903955	36.241610738255	20	0.666712079942226	2	8	1	NaN	2	3	0.19294284117267	1	1	NaN	174	3	48	1	121	221	321	NaN	521	0.396591074764729	1	0	NaN	4910254.4999756	NaN	4910255.4834022	4910255.99995823
58	21	1	0	90	36.1581920903955	36.241610738255	15	0.50003405995667	2	11	2	NaN	2	5	0.19294284117267	1	1	NaN	175	3	49	1	121	221	321	NaN	521	0.239617370069027	1	0	NaN	4910257.2169283	NaN	4910258.2003392	4910258.71687913
58	21	1	0	90	36.1581920903955	36.241610738255	9	0.300020435974002	2	5	3	NaN	1	3	0.19294284117267	1	1	NaN	176	3	50	1	121	221	321	NaN	521	0.945153470151126	1	1	NaN	4910259.7671877	NaN	4910260.750612	4910261.26712903
58	21	1	0	90	36.1581920903955	36.241610738255	10	0.333356039971113	2	9	5	NaN	2	5	0.19294284117267	1	1	NaN	177	3	51	1	121	221	321	NaN	521	0.374536368995905	2	1	NaN	4910263.0173756	NaN	4910264.0008926	4910264.51746053
58	21	1	0	90	36.1581920903955	36.241610738255	22	0.733383287936449	2	7	2	NaN	2	3	0.19294284117267	1	1	NaN	178	3	52	1	121	221	321	NaN	521	1.48289126995951	2	1	NaN	4910265.7176182	NaN	4910266.7011635	4910267.21771863
58	21	1	0	90	36.1581920903955	36.241610738255	19	0.633376475945115	2	7	3	NaN	2	5	0.19294284117267	1	1	NaN	179	3	53	1	121	221	321	NaN	521	0.218247521668673	1	0	NaN	4910269.5181323	NaN	4910270.5015468	4910271.01809648
58	21	1	0	90	36.1581920903955	36.241610738255	16	0.533369663953781	2	2	4	NaN	1	3	0.19294284117267	1	1	NaN	180	3	54	1	121	221	321	NaN	521	0.876641568727791	1	1	NaN	4910272.0517195	NaN	4910273.0351239	4910273.55167023
58	21	1	0	90	36.1581920903955	36.241610738255	7	0.233349227979779	2	3	1	NaN	1	5	0.19294284117267	1	1	NaN	181	3	55	1	121	221	321	NaN	521	0.316654969938099	1	1	NaN	4910275.2520249	NaN	4910276.235471	4910276.75199253
58	21	1	0	90	36.1581920903955	36.241610738255	9	0.300020435974002	2	6	4	NaN	1	5	0.19294284117267	1	1	NaN	182	3	56	1	121	221	321	NaN	521	5.21873646974564	1	1	NaN	4910277.8856238	NaN	4910278.8690267	4910279.38557603
58	21	1	0	90	36.1581920903955	36.241610738255	20	0.666712079942226	2	1	5	NaN	1	3	0.19294284117267	1	1	NaN	183	3	57	1	121	221	321	NaN	521	1.29287721589208	1	1	NaN	4910285.419721	NaN	4910286.4031128	4910286.91964968
58	21	1	0	90	36.1581920903955	36.241610738255	19	0.633376475945115	2	4	6	NaN	1	3	0.19294284117267	1	1	NaN	184	3	58	1	121	221	321	NaN	521	0.700288222171366	1	1	NaN	4910289.0199345	NaN	4910290.0034583	4910290.52001768
58	21	1	0	90	36.1581920903955	36.241610738255	23	0.76671889193356	2	3	4	NaN	1	4	0.19294284117267	1	1	NaN	185	3	59	1	121	221	321	NaN	521	1.17976221628487	1	1	NaN	4910292.0370136	NaN	4910293.0204314	4910293.53698018
58	21	1	0	90	36.1581920903955	36.241610738255	20	0.666712079942226	2	7	4	NaN	2	4	0.19294284117267	1	1	NaN	186	3	60	1	121	221	321	NaN	521	0.505091669969261	2	1	NaN	4910295.6873604	NaN	4910296.6708114	4910297.18733153
58	21	1	0	90	36.1581920903955	36.241610738255	15	0.50003405995667	2	9	1	NaN	2	4	0.19294284117267	1	1	NaN	187	3	61	1	121	221	321	NaN	521	0.288092168979347	2	1	NaN	4910298.5043228	NaN	4910299.4876997	4910300.00428163
58	21	1	0	90	36.1581920903955	36.241610738255	14	0.466698455959559	2	3	6	NaN	1	4	0.19294284117267	1	1	NaN	188	3	62	1	121	221	321	NaN	521	0.0237886216491461	1	1	NaN	4910301.1045763	NaN	4910302.0879814	4910302.60453948
58	21	1	0	90	36.1581920903955	36.241610738255	12	0.400027247965336	2	1	1	NaN	1	4	0.19294284117267	1	1	NaN	189	3	63	1	121	221	321	NaN	521	0.626669069752097	1	1	NaN	4910303.4381362	NaN	4910304.4215469	4910304.93809833
58	21	1	0	90	36.1581920903955	36.241610738255	24	0.800054495930672	2	2	5	NaN	1	4	0.19294284117267	1	1	NaN	190	4	1	1	121	221	321	NaN	521	0.368847407400608	2	0	NaN	4910320.4398368	NaN	4910321.4232139	4910321.93976829
58	21	1	0	90	36.1581920903955	36.241610738255	11	0.366691643968225	2	2	3	NaN	1	3	0.19294284117267	1	1	NaN	191	4	2	1	121	221	321	NaN	521	0.220956621691585	2	0	NaN	4910323.1234128	NaN	4910324.1068131	4910324.62335718
58	21	1	0	90	36.1581920903955	36.241610738255	9	0.300020435974002	2	11	5	NaN	2	4	0.19294284117267	1	1	NaN	192	4	3	1	121	221	321	NaN	521	0.487808115780354	2	1	NaN	4910325.6568714	NaN	4910326.640379	4910327.15694198
58	21	1	0	90	36.1581920903955	36.241610738255	21	0.700047683939338	2	6	5	NaN	1	5	0.19294284117267	1	1	NaN	193	4	4	1	121	221	321	NaN	521	0.103186769410968	2	0	NaN	4910328.4571461	NaN	4910329.4406587	4910329.95722233
58	21	1	0	90	36.1581920903955	36.241610738255	11	0.366691643968225	2	7	2	NaN	2	3	0.19294284117267	1	1	NaN	194	4	5	1	121	221	321	NaN	521	0.310375989414752	2	1	NaN	4910330.8741647	NaN	4910331.8575781	4910332.37413221
58	21	1	0	90	36.1581920903955	36.241610738255	0	0	1	6	1	NaN	1	3	0.19294284117267	1	1	NaN	195	4	6	1	111	211	311	NaN	511	0.165693421848118	1	1	NaN	4910333.4911165	NaN	4910334.4744982	4910334.99104318
58	21	1	0	90	36.1581920903955	36.241610738255	16	0.533369663953781	2	3	3	NaN	1	4	0.19294284117267	1	1	NaN	196	4	7	1	121	221	321	NaN	521	0.0103087378665805	1	1	NaN	4910336.5080886	NaN	4910337.4914673	4910338.00801326
58	21	1	0	90	36.1581920903955	36.241610738255	19	0.633376475945115	2	5	6	NaN	1	3	0.19294284117267	1	1	NaN	197	4	8	1	121	221	321	NaN	521	0.447454420849681	1	1	NaN	4910338.8249519	NaN	4910339.8083391	4910340.32490858
58	21	1	0	90	36.1581920903955	36.241610738255	20	0.666712079942226	2	1	4	NaN	1	3	0.19294284117267	1	1	NaN	198	4	9	1	121	221	321	NaN	521	0.168666321784258	1	1	NaN	4910341.5918825	NaN	4910342.5754218	4910343.09184478
58	21	1	0	90	36.1581920903955	36.241610738255	20	0.666712079942226	2	9	5	NaN	2	4	0.19294284117267	1	1	NaN	199	4	10	1	121	221	321	NaN	521	0.100988069549203	1	0	NaN	4910344.0753363	NaN	4910345.058884	4910345.57542373
58	21	1	0	90	36.1581920903955	36.241610738255	6	0.200013623982668	2	4	2	NaN	1	4	0.19294284117267	1	1	NaN	200	4	11	1	121	221	321	NaN	521	0.110082121565938	1	1	NaN	4910346.6423918	NaN	4910347.6257949	4910348.14234478
58	21	1	0	90	36.1581920903955	36.241610738255	19	0.633376475945115	2	2	5	NaN	1	5	0.19294284117267	1	1	NaN	201	4	12	1	121	221	321	NaN	521	0.213054532185197	1	1	NaN	4910349.0592828	NaN	4910350.0426828	4910350.55924327
58	21	1	0	90	36.1581920903955	36.241610738255	23	0.76671889193356	2	9	6	NaN	2	5	0.19294284117267	1	1	NaN	202	4	13	1	121	221	321	NaN	521	0.175444321706891	1	0	NaN	4910351.592902	NaN	4910352.5762843	4910353.09283188
58	21	1	0	90	36.1581920903955	36.241610738255	10	0.333356039971113	2	1	2	NaN	1	5	0.19294284117267	1	1	NaN	203	4	14	1	121	221	321	NaN	521	0.0600566696375608	1	1	NaN	4910354.0765423	NaN	4910355.0598074	4910355.57640153
58	21	1	0	90	36.1581920903955	36.241610738255	25	0.833390099927783	2	1	6	NaN	1	3	0.19294284117267	1	1	NaN	204	4	15	1	121	221	321	NaN	521	1.27666372153908	1	1	NaN	4910356.460017	NaN	4910357.4434283	4910357.95997058
58	21	1	0	90	36.1581920903955	36.241610738255	0	0	1	3	4	NaN	1	4	0.19294284117267	1	1	NaN	205	4	16	1	111	211	311	NaN	511	0.795074369758368	1	1	NaN	4910360.6937457	NaN	4910361.6771865	4910362.19371523
58	21	1	0	90	36.1581920903955	36.241610738255	19	0.633376475945115	2	8	4	NaN	2	4	0.19294284117267	1	1	NaN	206	4	17	1	121	221	321	NaN	521	0.57365676946938	1	0	NaN	4910363.8106128	NaN	4910364.7941445	4910365.31069793
58	21	1	0	90	36.1581920903955	36.241610738255	19	0.633376475945115	2	1	5	NaN	1	3	0.19294284117267	1	1	NaN	207	4	18	1	121	221	321	NaN	521	0.918493121862411	1	1	NaN	4910366.7943749	NaN	4910367.777762	4910368.29432118
58	21	1	0	90	36.1581920903955	36.241610738255	25	0.833390099927783	2	6	1	NaN	1	3	0.19294284117267	1	1	NaN	208	4	19	1	121	221	321	NaN	521	0.0104255164042115	1	1	NaN	4910370.1613421	NaN	4910371.1447512	4910371.66131598
58	21	1	0	90	36.1581920903955	36.241610738255	21	0.700047683939338	2	3	1	NaN	1	3	0.19294284117267	1	1	NaN	209	4	20	1	121	221	321	NaN	521	0.0103996219113469	1	1	NaN	4910372.4949177	NaN	4910373.4783266	4910373.99488538
58	21	1	0	90	36.1581920903955	36.241610738255	8	0.266684831976891	2	3	6	NaN	1	4	0.19294284117267	1	1	NaN	210	4	21	1	121	221	321	NaN	521	0.0127882687374949	1	1	NaN	4910374.8118234	NaN	4910375.7952357	4910376.31177603
58	21	1	0	90	36.1581920903955	36.241610738255	25	0.833390099927783	2	4	1	NaN	1	4	0.19294284117267	1	1	NaN	211	4	22	1	121	221	321	NaN	521	0.0311280218884349	1	1	NaN	4910377.1453794	NaN	4910378.1287818	4910378.64533328
58	21	1	0	90	36.1581920903955	36.241610738255	22	0.733383287936449	2	5	5	NaN	1	3	0.19294284117267	1	1	NaN	212	4	23	1	121	221	321	NaN	521	0.0104371691122651	1	1	NaN	4910379.5122442	NaN	4910380.4956704	4910381.01224163
58	21	1	0	90	36.1581920903955	36.241610738255	10	0.333356039971113	2	12	4	NaN	2	3	0.19294284117267	1	1	NaN	213	4	24	1	121	221	321	NaN	521	0.426458769477904	2	1	NaN	4910381.8458496	NaN	4910382.8292719	4910383.34580843
58	21	1	0	90	36.1581920903955	36.241610738255	22	0.733383287936449	2	3	5	NaN	1	3	0.19294284117267	1	1	NaN	214	4	25	1	121	221	321	NaN	521	0.325363822281361	1	1	NaN	4910384.579445	NaN	4910385.5628536	4910386.07940688
58	21	1	0	90	36.1581920903955	36.241610738255	21	0.700047683939338	2	11	6	NaN	2	3	0.19294284117267	1	1	NaN	215	4	26	1	121	221	321	NaN	521	0.262833870016038	1	0	NaN	4910387.5296235	NaN	4910388.5131331	4910389.02969373
58	21	1	0	90	36.1581920903955	36.241610738255	12	0.400027247965336	2	2	3	NaN	1	5	0.19294284117267	1	1	NaN	216	4	27	1	121	221	321	NaN	521	0.127878869883716	1	1	NaN	4910390.0966648	NaN	4910391.0800626	4910391.59660873
58	21	1	0	90	36.1581920903955	36.241610738255	8	0.266684831976891	2	2	4	NaN	1	5	0.19294284117267	1	1	NaN	217	4	28	1	121	221	321	NaN	521	0.821179869584739	1	1	NaN	4910392.9636249	NaN	4910393.9470295	4910394.46355913
58	21	1	0	90	36.1581920903955	36.241610738255	17	0.566705267950892	2	4	2	NaN	1	3	0.19294284117267	1	1	NaN	218	4	29	1	121	221	321	NaN	521	1.76751612219959	1	1	NaN	4910396.0972584	NaN	4910397.0806568	4910397.59720808
58	21	1	0	90	36.1581920903955	36.241610738255	25	0.833390099927783	2	10	2	NaN	2	3	0.19294284117267	1	1	NaN	219	4	30	1	121	221	321	NaN	521	0.235573321580887	2	1	NaN	4910400.1809798	NaN	4910401.1643904	4910401.68093328
58	21	1	0	90	36.1581920903955	36.241610738255	18	0.600040871948004	2	11	2	NaN	2	3	0.19294284117267	1	1	NaN	220	4	31	1	121	221	321	NaN	521	0.853705021552742	2	1	NaN	4910402.7312461	NaN	4910403.7146572	4910404.23118708
58	21	1	0	90	36.1581920903955	36.241610738255	0	0	1	10	4	NaN	2	4	0.19294284117267	1	1	NaN	221	4	32	1	111	211	311	NaN	511	0.42231832165271	1	0	NaN	4910405.8982072	NaN	4910406.8816055	4910407.39816428
58	21	1	0	90	36.1581920903955	36.241610738255	8	0.266684831976891	2	5	5	NaN	1	4	0.19294284117267	1	1	NaN	222	4	33	1	121	221	321	NaN	521	0.102052468806505	1	1	NaN	4910409.0984032	NaN	4910410.0819136	4910410.59850063
58	21	1	0	90	36.1581920903955	36.241610738255	15	0.50003405995667	2	11	1	NaN	2	4	0.19294284117267	1	1	NaN	223	4	34	1	121	221	321	NaN	521	0.09323506988585	2	1	NaN	4910411.5154353	NaN	4910412.4988325	4910413.01537903
58	21	1	0	90	36.1581920903955	36.241610738255	16	0.533369663953781	2	5	1	NaN	1	5	0.19294284117267	1	1	NaN	224	4	35	1	121	221	321	NaN	521	0.0103933215141296	1	1	NaN	4910413.9156961	NaN	4910414.8990707	4910415.41561978
58	21	1	0	90	36.1581920903955	36.241610738255	9	0.300020435974002	2	8	6	NaN	2	3	0.19294284117267	1	1	NaN	225	4	36	1	121	221	321	NaN	521	0.320249722339213	2	1	NaN	4910416.2325669	NaN	4910417.2159643	4910417.73251298
58	21	1	0	90	36.1581920903955	36.241610738255	13	0.433362851962447	2	7	4	NaN	2	4	0.19294284117267	1	1	NaN	226	4	37	1	121	221	321	NaN	521	0.542760783806443	2	1	NaN	4910418.8661812	NaN	4910419.8495929	4910420.36611152
58	21	1	0	90	36.1581920903955	36.241610738255	15	0.50003405995667	2	6	4	NaN	1	4	0.19294284117267	1	1	NaN	227	4	38	1	121	221	321	NaN	521	1.09178502205759	1	1	NaN	4910421.7331195	NaN	4910422.7164936	4910423.23305038
58	21	1	0	90	36.1581920903955	36.241610738255	13	0.433362851962447	2	8	1	NaN	2	5	0.19294284117267	1	1	NaN	228	4	39	1	121	221	321	NaN	521	0.107132169418037	1	0	NaN	4910425.1334352	NaN	4910426.1168384	4910426.63340603
58	21	1	0	90	36.1581920903955	36.241610738255	11	0.366691643968225	2	3	4	NaN	1	5	0.19294284117267	1	1	NaN	229	4	40	1	121	221	321	NaN	521	0.354211169295013	1	1	NaN	4910427.5503367	NaN	4910428.5337319	4910429.05029563
58	21	1	0	90	36.1581920903955	36.241610738255	19	0.633376475945115	2	3	4	NaN	1	4	0.19294284117267	1	1	NaN	230	4	41	1	121	221	321	NaN	521	0.010400521568954	1	1	NaN	4910430.2173536	NaN	4910431.2006851	4910431.71722888
58	21	1	0	90	36.1581920903955	36.241610738255	14	0.466698455959559	2	2	5	NaN	1	4	0.19294284117267	1	1	NaN	231	4	42	1	121	221	321	NaN	521	0.010384731926024	1	1	NaN	4910432.5508308	NaN	4910433.5342219	4910434.05078647
58	21	1	0	90	36.1581920903955	36.241610738255	7	0.233349227979779	2	11	5	NaN	2	4	0.19294284117267	1	1	NaN	232	4	43	1	121	221	321	NaN	521	0.524838969111443	1	0	NaN	4910434.8677413	NaN	4910435.8511372	4910436.36768463
58	21	1	0	90	36.1581920903955	36.241610738255	18	0.600040871948004	2	3	3	NaN	1	4	0.19294284117267	1	1	NaN	233	4	44	1	121	221	321	NaN	521	0.330933969467878	1	1	NaN	4910437.7180127	NaN	4910438.7013989	4910439.21796103
58	21	1	0	90	36.1581920903955	36.241610738255	8	0.266684831976891	2	1	3	NaN	1	3	0.19294284117267	1	1	NaN	234	4	45	1	121	221	321	NaN	521	0.97670632135123	1	1	NaN	4910440.3682725	NaN	4910441.3516776	4910441.86822528
58	21	1	0	90	36.1581920903955	36.241610738255	25	0.833390099927783	2	4	5	NaN	1	4	0.19294284117267	1	1	NaN	235	4	46	1	121	221	321	NaN	521	0.23673602193594	1	1	NaN	4910443.6517919	NaN	4910444.6353289	4910445.15187198
58	21	1	0	90	36.1581920903955	36.241610738255	11	0.366691643968225	2	8	3	NaN	2	4	0.19294284117267	1	1	NaN	236	4	47	1	121	221	321	NaN	521	0.990741369314492	1	0	NaN	4910446.2021802	NaN	4910447.1855801	4910447.70212393
58	21	1	0	90	36.1581920903955	36.241610738255	16	0.533369663953781	2	12	6	NaN	2	3	0.19294284117267	1	1	NaN	237	4	48	1	121	221	321	NaN	521	0.0103957215324044	1	0	NaN	4910449.5025013	NaN	4910450.4859005	4910451.00245448
58	21	1	0	90	36.1581920903955	36.241610738255	22	0.733383287936449	2	11	4	NaN	2	3	0.19294284117267	1	1	NaN	238	4	49	1	121	221	321	NaN	521	0.262097421102226	1	0	NaN	4910452.0027297	NaN	4910452.9861464	4910453.50270028
58	21	1	0	90	36.1581920903955	36.241610738255	7	0.233349227979779	2	9	6	NaN	2	5	0.19294284117267	1	1	NaN	239	4	50	1	121	221	321	NaN	521	0.21537106949836	2	1	NaN	4910454.5696643	NaN	4910455.5530709	4910456.06961303
58	21	1	0	90	36.1581920903955	36.241610738255	15	0.50003405995667	2	5	5	NaN	1	3	0.19294284117267	1	1	NaN	240	4	51	1	121	221	321	NaN	521	0.20929772220552	1	1	NaN	4910457.1032344	NaN	4910458.0866488	4910458.60319738
58	21	1	0	90	36.1581920903955	36.241610738255	17	0.566705267950892	2	6	4	NaN	1	5	0.19294284117267	1	1	NaN	241	4	52	1	121	221	321	NaN	521	0.443462221883237	1	1	NaN	4910459.6534952	NaN	4910460.6368875	4910461.15344768
58	21	1	0	90	36.1581920903955	36.241610738255	25	0.833390099927783	2	9	1	NaN	2	4	0.19294284117267	1	1	NaN	242	4	53	1	121	221	321	NaN	521	0.460522869601846	1	0	NaN	4910462.4204479	NaN	4910463.4038278	4910463.92038493
58	21	1	0	90	36.1581920903955	36.241610738255	25	0.833390099927783	2	5	5	NaN	1	3	0.19294284117267	1	1	NaN	243	4	54	1	121	221	321	NaN	521	0.236646422185004	1	1	NaN	4910465.204034	NaN	4910466.1874279	4910466.70398888
58	21	1	0	90	36.1581920903955	36.241610738255	18	0.600040871948004	2	5	6	NaN	1	3	0.19294284117267	1	1	NaN	244	4	55	1	121	221	321	NaN	521	0.326446768827736	1	1	NaN	4910467.7541801	NaN	4910468.7376818	4910469.25424683
58	21	1	0	90	36.1581920903955	36.241610738255	9	0.300020435974002	2	4	1	NaN	1	4	0.19294284117267	1	1	NaN	245	4	56	1	121	221	321	NaN	521	0.34037912171334	1	1	NaN	4910470.404547	NaN	4910471.387937	4910471.90450668
58	21	1	0	90	36.1581920903955	36.241610738255	23	0.76671889193356	2	6	2	NaN	1	4	0.19294284117267	1	1	NaN	246	4	57	1	121	221	321	NaN	521	0.193867369554937	1	1	NaN	4910473.0548122	NaN	4910474.0382202	4910474.55477793
58	21	1	0	90	36.1581920903955	36.241610738255	16	0.533369663953781	2	1	6	NaN	1	3	0.19294284117267	1	1	NaN	247	4	58	1	121	221	321	NaN	521	0.10956222191453	1	1	NaN	4910475.5550537	NaN	4910476.5384571	4910477.05500758
58	21	1	0	90	36.1581920903955	36.241610738255	21	0.700047683939338	2	4	6	NaN	1	3	0.19294284117267	1	1	NaN	248	4	59	1	121	221	321	NaN	521	2.81267336942255	1	1	NaN	4910477.971883	NaN	4910478.9553848	4910479.47191853
58	21	1	0	90	36.1581920903955	36.241610738255	0	0	1	3	2	NaN	1	3	0.19294284117267	1	1	NaN	249	4	60	1	111	211	311	NaN	511	0.255664921365678	1	1	NaN	4910483.0891254	NaN	4910484.0725278	4910484.58907948
58	21	1	0	90	36.1581920903955	36.241610738255	6	0.200013623982668	2	6	5	NaN	1	5	0.19294284117267	1	1	NaN	250	4	61	1	121	221	321	NaN	521	0.0104220695793629	1	1	NaN	4910485.6560419	NaN	4910486.6394598	4910487.15599783
58	21	1	0	90	36.1581920903955	36.241610738255	11	0.366691643968225	2	5	1	NaN	1	4	0.19294284117267	1	1	NaN	251	4	62	1	121	221	321	NaN	521	0.364263116382062	1	1	NaN	4910487.9729367	NaN	4910488.9563333	4910489.47289418
58	21	1	0	90	36.1581920903955	36.241610738255	19	0.633376475945115	2	3	6	NaN	1	4	0.19294284117267	1	1	NaN	252	4	63	1	121	221	321	NaN	521	0.0103956218808889	1	1	NaN	4910490.8565422	NaN	4910491.8399461	4910492.35651948
58	21	1	0	90	36.1581920903955	36.241610738255	12	0.400027247965336	2	8	6	NaN	2	4	0.19294284117267	1	1	NaN	253	5	1	1	121	221	321	NaN	521	0.222393321804702	2	1	NaN	4910522.0262107	NaN	4910523.0096993	4910523.52624828
58	21	1	0	90	36.1581920903955	36.241610738255	17	0.566705267950892	2	9	4	NaN	2	4	0.19294284117267	1	1	NaN	254	5	2	1	121	221	321	NaN	521	0.285291969776154	2	1	NaN	4910524.6433567	NaN	4910525.6266035	4910526.14317103
58	21	1	0	90	36.1581920903955	36.241610738255	10	0.333356039971113	2	11	1	NaN	2	3	0.19294284117267	1	1	NaN	255	5	3	1	121	221	321	NaN	521	0.365635374560952	2	1	NaN	4910527.2434619	NaN	4910528.2268403	4910528.74341813
58	21	1	0	90	36.1581920903955	36.241610738255	22	0.733383287936449	2	1	6	NaN	1	5	0.19294284117267	1	1	NaN	256	5	4	1	121	221	321	NaN	521	0.329623664729297	1	1	NaN	4910529.9270947	NaN	4910530.9104698	4910531.42702684
58	21	1	0	90	36.1581920903955	36.241610738255	11	0.366691643968225	2	12	5	NaN	2	3	0.19294284117267	1	1	NaN	257	5	5	1	121	221	321	NaN	521	0.343289037235081	2	1	NaN	4910532.5773381	NaN	4910533.5607353	4910534.07729066
58	21	1	0	90	36.1581920903955	36.241610738255	13	0.433362851962447	2	5	4	NaN	1	3	0.19294284117267	1	1	NaN	258	5	6	1	121	221	321	NaN	521	0.197033221833408	1	1	NaN	4910535.2275867	NaN	4910536.2109818	4910536.72754478
58	21	1	0	90	36.1581920903955	36.241610738255	24	0.800054495930672	2	8	6	NaN	2	5	0.19294284117267	1	1	NaN	259	5	7	1	121	221	321	NaN	521	0.256600126624107	2	1	NaN	4910537.7443833	NaN	4910538.7279692	4910539.24446917
58	21	1	0	90	36.1581920903955	36.241610738255	17	0.566705267950892	2	12	3	NaN	2	5	0.19294284117267	1	1	NaN	260	5	8	1	121	221	321	NaN	521	0.409654120914638	2	1	NaN	4910540.3114138	NaN	4910541.2948175	4910541.81138018
58	21	1	0	90	36.1581920903955	36.241610738255	6	0.200013623982668	2	11	4	NaN	2	5	0.19294284117267	1	1	NaN	261	5	9	1	121	221	321	NaN	521	0.0102702425792813	1	0	NaN	4910543.0283717	NaN	4910544.0117726	4910544.52830946
58	21	1	0	90	36.1581920903955	36.241610738255	11	0.366691643968225	2	6	2	NaN	1	4	0.19294284117267	1	1	NaN	262	5	10	1	121	221	321	NaN	521	0.0103990221396089	1	1	NaN	4910545.3620159	NaN	4910546.3453177	4910546.86187368
58	21	1	0	90	36.1581920903955	36.241610738255	22	0.733383287936449	2	12	4	NaN	2	5	0.19294284117267	1	1	NaN	263	5	11	1	121	221	321	NaN	521	0.394368722103536	2	1	NaN	4910547.6787041	NaN	4910548.6622159	4910549.17876368
58	21	1	0	90	36.1581920903955	36.241610738255	0	0	1	8	4	NaN	2	5	0.19294284117267	1	1	NaN	264	5	12	1	111	211	311	NaN	511	0.0103732803836465	2	1	NaN	4910550.379169	NaN	4910551.3624781	4910551.87903922
58	21	1	0	90	36.1581920903955	36.241610738255	19	0.633376475945115	2	6	5	NaN	1	4	0.19294284117267	1	1	NaN	265	5	13	1	121	221	321	NaN	521	0.105403422378004	1	1	NaN	4910553.0793225	NaN	4910554.062731	4910554.57929728
58	21	1	0	90	36.1581920903955	36.241610738255	0	0	1	7	1	NaN	2	3	0.19294284117267	1	1	NaN	266	5	14	1	111	211	311	NaN	511	0.136442569084466	2	1	NaN	4910555.4962501	NaN	4910556.4796478	4910556.99620533
58	21	1	0	90	36.1581920903955	36.241610738255	25	0.833390099927783	2	10	2	NaN	2	4	0.19294284117267	1	1	NaN	267	5	15	1	121	221	321	NaN	521	1.6466373167932	2	1	NaN	4910557.9465035	NaN	4910558.9298966	4910559.44643968
58	21	1	0	90	36.1581920903955	36.241610738255	14	0.466698455959559	2	6	5	NaN	1	5	0.19294284117267	1	1	NaN	268	5	16	1	121	221	321	NaN	521	0.391650469973683	1	1	NaN	4910561.9135421	NaN	4910562.8969375	4910563.41349613
58	21	1	0	90	36.1581920903955	36.241610738255	11	0.366691643968225	2	12	2	NaN	2	5	0.19294284117267	1	1	NaN	269	5	17	1	121	221	321	NaN	521	1.13595322240144	2	1	NaN	4910564.8971759	NaN	4910565.8805806	4910566.39712788
58	21	1	0	90	36.1581920903955	36.241610738255	19	0.633376475945115	2	10	1	NaN	2	5	0.19294284117267	1	1	NaN	270	5	18	1	121	221	321	NaN	521	0.12571242172271	2	1	NaN	4910568.3475066	NaN	4910569.330896	4910569.84746138
58	21	1	0	90	36.1581920903955	36.241610738255	14	0.466698455959559	2	5	2	NaN	1	4	0.19294284117267	1	1	NaN	271	5	19	1	121	221	321	NaN	521	0.235831015743315	1	1	NaN	4910570.7810754	NaN	4910571.764492	4910572.28103358
58	21	1	0	90	36.1581920903955	36.241610738255	14	0.466698455959559	2	9	3	NaN	2	4	0.19294284117267	1	1	NaN	272	5	20	1	121	221	321	NaN	521	0.253793821670115	1	0	NaN	4910573.3313476	NaN	4910574.3147379	4910574.83128558
58	21	1	0	90	36.1581920903955	36.241610738255	14	0.466698455959559	2	1	3	NaN	1	4	0.19294284117267	1	1	NaN	273	5	21	1	121	221	321	NaN	521	0.432166120968759	2	0	NaN	4910576.4649852	NaN	4910577.4482719	4910577.96492778
58	21	1	0	90	36.1581920903955	36.241610738255	20	0.666712079942226	2	3	5	NaN	1	4	0.19294284117267	1	1	NaN	274	5	22	1	121	221	321	NaN	521	0.817613821476698	1	1	NaN	4910579.2152399	NaN	4910580.1986368	4910580.71519328
58	21	1	0	90	36.1581920903955	36.241610738255	15	0.50003405995667	2	8	3	NaN	2	3	0.19294284117267	1	1	NaN	275	5	23	1	121	221	321	NaN	521	0.268269321881235	1	0	NaN	4910582.3488922	NaN	4910583.3323415	4910583.84884108
58	21	1	0	90	36.1581920903955	36.241610738255	6	0.200013623982668	2	9	1	NaN	2	4	0.19294284117267	1	1	NaN	276	5	24	1	121	221	321	NaN	521	0.652532174251974	2	1	NaN	4910584.9324662	NaN	4910585.9158833	4910586.43243553
58	21	1	0	90	36.1581920903955	36.241610738255	22	0.733383287936449	2	10	2	NaN	2	5	0.19294284117267	1	1	NaN	277	5	25	1	121	221	321	NaN	521	0.469073422253132	2	1	NaN	4910587.8994494	NaN	4910588.8828401	4910589.39938958
58	21	1	0	90	36.1581920903955	36.241610738255	21	0.700047683939338	2	12	4	NaN	2	3	0.19294284117267	1	1	NaN	278	5	26	1	121	221	321	NaN	521	0.60608232114464	2	1	NaN	4910590.6830381	NaN	4910591.6664253	4910592.18299388
58	21	1	0	90	36.1581920903955	36.241610738255	15	0.50003405995667	2	5	3	NaN	1	3	0.19294284117267	1	1	NaN	279	5	27	1	121	221	321	NaN	521	0.233038920909166	2	0	NaN	4910593.5998963	NaN	4910594.5834057	4910595.09995278
58	21	1	0	90	36.1581920903955	36.241610738255	6	0.200013623982668	2	12	6	NaN	2	3	0.19294284117267	1	1	NaN	280	5	28	1	121	221	321	NaN	521	0.274460322223604	2	1	NaN	4910596.1501175	NaN	4910597.1336441	4910597.65020038
58	21	1	0	90	36.1581920903955	36.241610738255	22	0.733383287936449	2	12	5	NaN	2	4	0.19294284117267	1	1	NaN	281	5	29	1	121	221	321	NaN	521	0.370876616798341	2	1	NaN	4910598.7338276	NaN	4910599.7172485	4910600.23378378
58	21	1	0	90	36.1581920903955	36.241610738255	6	0.200013623982668	2	2	2	NaN	1	3	0.19294284117267	1	1	NaN	282	5	30	1	121	221	321	NaN	521	0.535715769045055	1	1	NaN	4910601.4174364	NaN	4910602.4008183	4910602.91738983
58	21	1	0	90	36.1581920903955	36.241610738255	11	0.366691643968225	2	7	5	NaN	2	4	0.19294284117267	1	1	NaN	283	5	31	1	121	221	321	NaN	521	0.269216521643102	2	1	NaN	4910604.2677189	NaN	4910605.2510092	4910605.76766038
58	21	1	0	90	36.1581920903955	36.241610738255	6	0.200013623982668	2	8	4	NaN	2	5	0.19294284117267	1	1	NaN	284	5	32	1	121	221	321	NaN	521	0.237462569959462	2	1	NaN	4910606.8513011	NaN	4910607.8347257	4910608.35124593
58	21	1	0	90	36.1581920903955	36.241610738255	0	0	1	2	2	NaN	1	3	0.19294284117267	1	1	NaN	285	5	33	1	111	211	311	NaN	511	0.183690915815532	1	1	NaN	4910609.4015447	NaN	4910610.3849298	4910610.90149758
58	21	1	0	90	36.1581920903955	36.241610738255	8	0.266684831976891	2	1	5	NaN	1	4	0.19294284117267	1	1	NaN	286	5	34	1	121	221	321	NaN	521	0.283025621436536	1	1	NaN	4910611.9018293	NaN	4910612.8851859	4910613.40174508
58	21	1	0	90	36.1581920903955	36.241610738255	12	0.400027247965336	2	11	6	NaN	2	4	0.19294284117267	1	1	NaN	287	5	35	1	121	221	321	NaN	521	1.13143249973655	1	0	NaN	4910614.4852526	NaN	4910615.4687695	4910615.9853606
58	21	1	0	90	36.1581920903955	36.241610738255	19	0.633376475945115	2	12	6	NaN	2	3	0.19294284117267	1	1	NaN	288	5	36	1	121	221	321	NaN	521	0.384900769218802	2	1	NaN	4910617.9357249	NaN	4910618.9191264	4910619.43566863
58	21	1	0	90	36.1581920903955	36.241610738255	13	0.433362851962447	2	9	5	NaN	2	4	0.19294284117267	1	1	NaN	289	5	37	1	121	221	321	NaN	521	0.0208718692883849	2	1	NaN	4910620.6358604	NaN	4910621.619408	4910622.13593263
58	21	1	0	90	36.1581920903955	36.241610738255	14	0.466698455959559	2	6	6	NaN	1	4	0.19294284117267	1	1	NaN	290	5	38	1	121	221	321	NaN	521	0.0713342214003205	1	1	NaN	4910622.9695588	NaN	4910623.9529355	4910624.46949678
58	21	1	0	90	36.1581920903955	36.241610738255	24	0.800054495930672	2	3	2	NaN	1	5	0.19294284117267	1	1	NaN	291	5	39	1	121	221	321	NaN	521	0.623700169846416	1	1	NaN	4910625.3529927	NaN	4910626.3365154	4910626.85306973
58	21	1	0	90	36.1581920903955	36.241610738255	0	0	1	9	1	NaN	2	3	0.19294284117267	1	1	NaN	292	5	40	1	111	211	311	NaN	511	0.2260806215927	1	0	NaN	4910628.2867744	NaN	4910629.2701381	4910629.78668408
58	21	1	0	90	36.1581920903955	36.241610738255	12	0.400027247965336	2	6	3	NaN	1	4	0.19294284117267	1	1	NaN	293	5	41	1	121	221	321	NaN	521	0.540505321696401	1	1	NaN	4910630.8203663	NaN	4910631.8037092	4910632.32027708
58	21	1	0	90	36.1581920903955	36.241610738255	19	0.633376475945115	2	11	4	NaN	2	5	0.19294284117267	1	1	NaN	294	5	42	1	121	221	321	NaN	521	0.961615221574903	1	0	NaN	4910633.6872675	NaN	4910634.6706693	4910635.18722058
58	21	1	0	90	36.1581920903955	36.241610738255	15	0.50003405995667	2	2	4	NaN	1	4	0.19294284117267	1	1	NaN	295	5	43	1	121	221	321	NaN	521	0.662003080360591	1	1	NaN	4910636.9709231	NaN	4910637.9543095	4910638.47088152
58	21	1	0	90	36.1581920903955	36.241610738255	12	0.400027247965336	2	4	3	NaN	1	4	0.19294284117267	1	1	NaN	296	5	44	1	121	221	321	NaN	521	0.50223402120173	1	1	NaN	4910639.9545418	NaN	4910640.937945	4910641.45450478
58	21	1	0	90	36.1581920903955	36.241610738255	8	0.266684831976891	2	11	5	NaN	2	3	0.19294284117267	1	1	NaN	297	5	45	1	121	221	321	NaN	521	5.03744832146913	2	1	NaN	4910642.7714864	NaN	4910643.7548979	4910644.27144628
58	21	1	0	90	36.1581920903955	36.241610738255	15	0.50003405995667	2	7	5	NaN	2	3	0.19294284117267	1	1	NaN	298	5	46	1	121	221	321	NaN	521	0.12700832169503	2	1	NaN	4910650.1222095	NaN	4910651.1056022	4910651.62216998
58	21	1	0	90	36.1581920903955	36.241610738255	12	0.400027247965336	2	9	3	NaN	2	3	0.19294284117267	1	1	NaN	299	5	47	1	121	221	321	NaN	521	0.594062921591103	2	1	NaN	4910652.6390361	NaN	4910653.6225382	4910654.13909058
58	21	1	0	90	36.1581920903955	36.241610738255	24	0.800054495930672	2	4	2	NaN	1	5	0.19294284117267	1	1	NaN	300	5	48	1	121	221	321	NaN	521	0.117192121222615	2	0	NaN	4910655.5559845	NaN	4910656.5394961	4910657.05603258
58	21	1	0	90	36.1581920903955	36.241610738255	25	0.833390099927783	2	8	3	NaN	2	3	0.19294284117267	1	1	NaN	301	5	49	1	121	221	321	NaN	521	0.187254422344267	2	1	NaN	4910657.989662	NaN	4910658.9730401	4910659.48961508
58	21	1	0	90	36.1581920903955	36.241610738255	10	0.333356039971113	2	7	6	NaN	2	4	0.19294284117267	1	1	NaN	302	5	50	1	121	221	321	NaN	521	0.246986669488251	2	1	NaN	4910660.4898959	NaN	4910661.4733216	4910661.98985663
58	21	1	0	90	36.1581920903955	36.241610738255	23	0.76671889193356	2	12	3	NaN	2	5	0.19294284117267	1	1	NaN	303	5	51	1	121	221	321	NaN	521	0.0880958214402199	2	1	NaN	4910663.4568376	NaN	4910664.4402658	4910664.95681168
58	21	1	0	90	36.1581920903955	36.241610738255	12	0.400027247965336	2	7	1	NaN	2	5	0.19294284117267	1	1	NaN	304	5	52	1	121	221	321	NaN	521	0.324432869441807	2	1	NaN	4910666.3404478	NaN	4910667.32388	4910667.84043113
58	21	1	0	90	36.1581920903955	36.241610738255	6	0.200013623982668	2	6	2	NaN	1	3	0.19294284117267	1	1	NaN	305	5	53	1	121	221	321	NaN	521	0.395056169480085	1	1	NaN	4910668.9740774	NaN	4910669.9574584	4910670.47401573
58	21	1	0	90	36.1581920903955	36.241610738255	18	0.600040871948004	2	3	2	NaN	1	3	0.19294284117267	1	1	NaN	306	5	54	1	121	221	321	NaN	521	0.010437716729939	1	1	NaN	4910671.8076551	NaN	4910672.7910741	4910673.30762608
58	21	1	0	90	36.1581920903955	36.241610738255	24	0.800054495930672	2	10	2	NaN	2	5	0.19294284117267	1	1	NaN	307	5	55	1	121	221	321	NaN	521	0.228644453920424	1	0	NaN	4910674.1245034	NaN	4910675.1079682	4910675.62451815
58	21	1	0	90	36.1581920903955	36.241610738255	12	0.400027247965336	2	3	5	NaN	1	3	0.19294284117267	1	1	NaN	308	5	56	1	121	221	321	NaN	521	0.373107269406319	1	1	NaN	4910676.9081887	NaN	4910677.8915834	4910678.40813563
58	21	1	0	90	36.1581920903955	36.241610738255	12	0.400027247965336	2	9	5	NaN	2	5	0.19294284117267	1	1	NaN	309	5	57	1	121	221	321	NaN	521	0.0104095693677664	2	1	NaN	4910679.5917864	NaN	4910680.5751976	4910681.09173763
58	21	1	0	90	36.1581920903955	36.241610738255	7	0.233349227979779	2	4	1	NaN	1	5	0.19294284117267	1	1	NaN	310	5	58	1	121	221	321	NaN	521	0.876359322108328	1	1	NaN	4910681.9086674	NaN	4910682.8920695	4910683.40862388
58	21	1	0	90	36.1581920903955	36.241610738255	11	0.366691643968225	2	3	3	NaN	1	5	0.19294284117267	1	1	NaN	311	5	59	1	121	221	321	NaN	521	0.246025121770799	1	1	NaN	4910685.2589784	NaN	4910686.2423816	4910686.75895978
58	21	1	0	90	36.1581920903955	36.241610738255	7	0.233349227979779	2	9	3	NaN	2	5	0.19294284117267	1	1	NaN	312	5	60	1	121	221	321	NaN	521	0.287060116417706	2	1	NaN	4910687.8259197	NaN	4910688.8093199	4910689.32587788
58	21	1	0	90	36.1581920903955	36.241610738255	16	0.533369663953781	2	8	5	NaN	2	5	0.19294284117267	1	1	NaN	313	5	61	1	121	221	321	NaN	521	0.192185522057116	2	1	NaN	4910690.7929147	NaN	4910691.7762852	4910692.29282688
58	21	1	0	90	36.1581920903955	36.241610738255	16	0.533369663953781	2	6	3	NaN	1	3	0.19294284117267	1	1	NaN	314	5	62	1	121	221	321	NaN	521	0.0277408696711063	1	1	NaN	4910693.2931291	NaN	4910694.2765203	4910694.79307913
58	21	1	0	90	36.1581920903955	36.241610738255	25	0.833390099927783	2	12	2	NaN	2	4	0.19294284117267	1	1	NaN	315	5	63	1	121	221	321	NaN	521	0.662245715968311	2	1	NaN	4910695.6266758	NaN	4910696.6100964	4910697.12663808
58	21	1	0	90	36.1581920903955	36.241610738255	13	0.433362851962447	2	12	1	NaN	2	4	0.19294284117267	1	1	NaN	316	6	1	1	121	221	321	NaN	521	0.25795604288578	2	1	NaN	4910732.6470029	NaN	4910733.6303969	4910734.14695526
58	21	1	0	90	36.1581920903955	36.241610738255	21	0.700047683939338	2	1	1	NaN	1	5	0.19294284117267	1	1	NaN	317	6	2	1	121	221	321	NaN	521	0.18751922249794	2	0	NaN	4910735.2139019	NaN	4910736.1973168	4910736.71387768
58	21	1	0	90	36.1581920903955	36.241610738255	11	0.366691643968225	2	10	1	NaN	2	5	0.19294284117267	1	1	NaN	318	6	3	1	121	221	321	NaN	521	0.221767568960786	2	1	NaN	4910738.1475503	NaN	4910739.1309534	4910739.64748803
58	21	1	0	90	36.1581920903955	36.241610738255	21	0.700047683939338	2	12	3	NaN	2	4	0.19294284117267	1	1	NaN	319	6	4	1	121	221	321	NaN	521	0.211915168911219	2	1	NaN	4910740.9810282	NaN	4910741.9645605	4910742.48109343
58	21	1	0	90	36.1581920903955	36.241610738255	13	0.433362851962447	2	2	6	NaN	1	3	0.19294284117267	1	1	NaN	320	6	5	1	121	221	321	NaN	521	0.22018692176789	1	1	NaN	4910743.7647346	NaN	4910744.7481581	4910745.26470648
58	21	1	0	90	36.1581920903955	36.241610738255	8	0.266684831976891	2	11	5	NaN	2	4	0.19294284117267	1	1	NaN	321	6	6	1	121	221	321	NaN	521	0.246991869062185	1	0	NaN	4910746.2983302	NaN	4910747.281784	4910747.79828743
58	21	1	0	90	36.1581920903955	36.241610738255	16	0.533369663953781	2	12	1	NaN	2	4	0.19294284117267	1	1	NaN	322	6	7	1	121	221	321	NaN	521	0.0104212164878845	1	0	NaN	4910749.3819865	NaN	4910750.365377	4910750.88192118
58	21	1	0	90	36.1581920903955	36.241610738255	21	0.700047683939338	2	8	2	NaN	2	3	0.19294284117267	1	1	NaN	323	6	8	1	121	221	321	NaN	521	0.454478874802589	2	1	NaN	4910751.6988592	NaN	4910752.6822627	4910753.19882502
58	21	1	0	90	36.1581920903955	36.241610738255	20	0.666712079942226	2	10	6	NaN	2	4	0.19294284117267	1	1	NaN	324	6	9	1	121	221	321	NaN	521	0.208927669562399	2	1	NaN	4910754.8325207	NaN	4910755.8159004	4910756.33245243
58	21	1	0	90	36.1581920903955	36.241610738255	16	0.533369663953781	2	4	6	NaN	1	3	0.19294284117267	1	1	NaN	325	6	10	1	121	221	321	NaN	521	0.171817822381854	1	1	NaN	4910757.3494181	NaN	4910758.3328168	4910758.84939208
58	21	1	0	90	36.1581920903955	36.241610738255	20	0.666712079942226	2	2	5	NaN	1	5	0.19294284117267	1	1	NaN	326	6	11	1	121	221	321	NaN	521	0.325338115915656	1	1	NaN	4910760.2997186	NaN	4910761.2831469	4910761.79966138
58	21	1	0	90	36.1581920903955	36.241610738255	14	0.466698455959559	2	10	4	NaN	2	5	0.19294284117267	1	1	NaN	327	6	12	1	121	221	321	NaN	521	0.0105340220034122	2	1	NaN	4910762.9333162	NaN	4910763.9166993	4910764.43327858
58	21	1	0	90	36.1581920903955	36.241610738255	23	0.76671889193356	2	6	2	NaN	1	5	0.19294284117267	1	1	NaN	328	6	13	1	121	221	321	NaN	521	0.254288216121495	1	1	NaN	4910765.2667877	NaN	4910766.2502987	4910766.76682608
58	21	1	0	90	36.1581920903955	36.241610738255	7	0.233349227979779	2	2	5	NaN	1	5	0.19294284117267	1	1	NaN	329	6	14	1	121	221	321	NaN	521	0.679215770214796	1	1	NaN	4910767.8337857	NaN	4910768.8171887	4910769.33373073
58	21	1	0	90	36.1581920903955	36.241610738255	11	0.366691643968225	2	6	6	NaN	1	4	0.19294284117267	1	1	NaN	330	6	15	1	121	221	321	NaN	521	0.386830922216177	1	1	NaN	4910771.334089	NaN	4910772.3175314	4910772.83407888
58	21	1	0	90	36.1581920903955	36.241610738255	22	0.733383287936449	2	4	3	NaN	1	5	0.19294284117267	1	1	NaN	331	6	16	1	121	221	321	NaN	521	0.19430606905371	2	0	NaN	4910774.3510684	NaN	4910775.3344896	4910775.85104083
58	21	1	0	90	36.1581920903955	36.241610738255	17	0.566705267950892	2	7	1	NaN	2	3	0.19294284117267	1	1	NaN	332	6	17	1	121	221	321	NaN	521	0.341764269396663	1	0	NaN	4910776.8513384	NaN	4910777.8349698	4910778.35128363
58	21	1	0	90	36.1581920903955	36.241610738255	12	0.400027247965336	2	2	2	NaN	1	4	0.19294284117267	1	1	NaN	333	6	18	1	121	221	321	NaN	521	0.259759437292814	1	1	NaN	4910779.5015888	NaN	4910780.4849999	4910781.00155536
58	21	1	0	90	36.1581920903955	36.241610738255	19	0.633376475945115	2	4	3	NaN	1	5	0.19294284117267	1	1	NaN	334	6	19	1	121	221	321	NaN	521	0.166439269669354	1	1	NaN	4910782.4181449	NaN	4910783.4019566	4910783.91849703
58	21	1	0	90	36.1581920903955	36.241610738255	7	0.233349227979779	2	10	1	NaN	2	3	0.19294284117267	1	1	NaN	335	6	20	1	121	221	321	NaN	521	0.218958822079003	2	1	NaN	4910784.902128	NaN	4910785.8855398	4910786.40207728
58	21	1	0	90	36.1581920903955	36.241610738255	13	0.433362851962447	2	11	1	NaN	2	5	0.19294284117267	1	1	NaN	336	6	21	1	121	221	321	NaN	521	0.205431190319359	2	1	NaN	4910787.4356954	NaN	4910788.4190947	4910788.93568011
58	21	1	0	90	36.1581920903955	36.241610738255	17	0.566705267950892	2	3	1	NaN	1	4	0.19294284117267	1	1	NaN	337	6	22	1	121	221	321	NaN	521	0.128515621647239	1	1	NaN	4910789.9526187	NaN	4910790.9360274	4910791.45257118
58	21	1	0	90	36.1581920903955	36.241610738255	18	0.600040871948004	2	2	1	NaN	1	3	0.19294284117267	1	1	NaN	338	6	23	1	121	221	321	NaN	521	0.299512569792569	1	1	NaN	4910792.8695524	NaN	4910793.8529992	4910794.36953833
58	21	1	0	90	36.1581920903955	36.241610738255	18	0.600040871948004	2	1	2	NaN	1	5	0.19294284117267	1	1	NaN	339	6	24	1	121	221	321	NaN	521	0.770583122037351	1	1	NaN	4910795.486497	NaN	4910796.4698973	4910796.98646238
58	21	1	0	90	36.1581920903955	36.241610738255	15	0.50003405995667	2	3	5	NaN	1	4	0.19294284117267	1	1	NaN	340	6	25	1	121	221	321	NaN	521	0.790724121965468	2	0	NaN	4910798.5701461	NaN	4910799.5535293	4910800.07009558
58	21	1	0	90	36.1581920903955	36.241610738255	0	0	1	1	6	NaN	1	3	0.19294284117267	1	1	NaN	341	6	26	1	111	211	311	NaN	511	0.66654346883297	2	0	NaN	4910801.6704409	NaN	4910802.6538519	4910803.17039443
58	21	1	0	90	36.1581920903955	36.241610738255	23	0.76671889193356	2	11	6	NaN	2	4	0.19294284117267	1	1	NaN	342	6	27	1	121	221	321	NaN	521	0.850606868974864	1	0	NaN	4910804.6707441	NaN	4910805.6541487	4910806.17069753
58	21	1	0	90	36.1581920903955	36.241610738255	14	0.466698455959559	2	9	3	NaN	2	3	0.19294284117267	1	1	NaN	343	6	28	1	121	221	321	NaN	521	0.187492269091308	2	1	NaN	4910807.8377052	NaN	4910808.8211018	4910809.33766713
58	21	1	0	90	36.1581920903955	36.241610738255	18	0.600040871948004	2	12	4	NaN	2	4	0.19294284117267	1	1	NaN	344	6	29	1	121	221	321	NaN	521	0.238563969731331	2	1	NaN	4910810.7546519	NaN	4910811.7380714	4910812.25461853
58	21	1	0	90	36.1581920903955	36.241610738255	24	0.800054495930672	2	5	6	NaN	1	3	0.19294284117267	1	1	NaN	345	6	30	1	121	221	321	NaN	521	0.256587268784642	2	0	NaN	4910813.3049388	NaN	4910814.2883241	4910814.80487353
58	21	1	0	90	36.1581920903955	36.241610738255	13	0.433362851962447	2	7	6	NaN	2	5	0.19294284117267	1	1	NaN	346	6	31	1	121	221	321	NaN	521	0.249173222109675	2	1	NaN	4910816.4720456	NaN	4910817.4553053	4910817.97185178
58	21	1	0	90	36.1581920903955	36.241610738255	23	0.76671889193356	2	12	1	NaN	2	5	0.19294284117267	1	1	NaN	347	6	32	1	121	221	321	NaN	521	0.346200269646943	2	1	NaN	4910819.0388286	NaN	4910820.0222332	4910820.53876353
58	21	1	0	90	36.1581920903955	36.241610738255	15	0.50003405995667	2	4	5	NaN	1	4	0.19294284117267	1	1	NaN	348	6	33	1	121	221	321	NaN	521	1.87157956976444	2	0	NaN	4910821.7057579	NaN	4910822.6891751	4910823.20569173
58	21	1	0	90	36.1581920903955	36.241610738255	12	0.400027247965336	2	5	2	NaN	1	5	0.19294284117267	1	1	NaN	349	6	34	1	121	221	321	NaN	521	0.295815121382475	1	1	NaN	4910825.8895232	NaN	4910826.8728795	4910827.38943888
58	21	1	0	90	36.1581920903955	36.241610738255	22	0.733383287936449	2	9	6	NaN	2	3	0.19294284117267	1	1	NaN	350	6	35	1	121	221	321	NaN	521	0.203389069996774	2	1	NaN	4910828.989788	NaN	4910829.973202	4910830.48974823
58	21	1	0	90	36.1581920903955	36.241610738255	14	0.466698455959559	2	11	1	NaN	2	4	0.19294284117267	1	1	NaN	351	6	36	1	121	221	321	NaN	521	0.22277142200619	2	1	NaN	4910831.5067016	NaN	4910832.4901134	4910833.00665828
58	21	1	0	90	36.1581920903955	36.241610738255	18	0.600040871948004	2	10	6	NaN	2	3	0.19294284117267	1	1	NaN	352	6	37	1	121	221	321	NaN	521	0.512940022163093	2	1	NaN	4910834.0402843	NaN	4910835.0236947	4910835.54026368
58	21	1	0	90	36.1581920903955	36.241610738255	8	0.266684831976891	2	9	4	NaN	2	3	0.19294284117267	1	1	NaN	353	6	38	1	121	221	321	NaN	521	0.207918670028448	2	1	NaN	4910836.8573218	NaN	4910837.840639	4910838.35718533
58	21	1	0	90	36.1581920903955	36.241610738255	8	0.266684831976891	2	7	2	NaN	2	3	0.19294284117267	1	1	NaN	354	6	39	1	121	221	321	NaN	521	0.48302826937288	2	1	NaN	4910839.3741556	NaN	4910840.3575467	4910840.87410033
58	21	1	0	90	36.1581920903955	36.241610738255	24	0.800054495930672	2	6	3	NaN	1	5	0.19294284117267	1	1	NaN	355	6	40	1	121	221	321	NaN	521	0.81071522179991	1	1	NaN	4910842.1744268	NaN	4910843.1578138	4910843.67437438
58	21	1	0	90	36.1581920903955	36.241610738255	24	0.800054495930672	2	5	6	NaN	1	3	0.19294284117267	1	1	NaN	356	6	41	1	121	221	321	NaN	521	0.405368021689355	1	1	NaN	4910845.3080842	NaN	4910846.2914658	4910846.80801688
58	21	1	0	90	36.1581920903955	36.241610738255	7	0.233349227979779	2	8	2	NaN	2	5	0.19294284117267	1	1	NaN	357	6	42	1	121	221	321	NaN	521	0.270837069489062	1	0	NaN	4910848.658358	NaN	4910849.6417972	4910850.15834343
58	21	1	0	90	36.1581920903955	36.241610738255	23	0.76671889193356	2	9	2	NaN	2	4	0.19294284117267	1	1	NaN	358	6	43	1	121	221	321	NaN	521	0.263397669419646	2	1	NaN	4910851.2419734	NaN	4910852.2253736	4910852.74192923
58	21	1	0	90	36.1581920903955	36.241610738255	17	0.566705267950892	2	1	3	NaN	1	5	0.19294284117267	1	1	NaN	359	6	44	1	121	221	321	NaN	521	0.719704668968916	1	1	NaN	4910853.8256424	NaN	4910854.8089789	4910855.32551723
58	21	1	0	90	36.1581920903955	36.241610738255	21	0.700047683939338	2	7	4	NaN	2	5	0.19294284117267	1	1	NaN	360	6	45	1	121	221	321	NaN	521	0.230259616859257	2	1	NaN	4910856.8591826	NaN	4910857.8426115	4910858.35914798
58	21	1	0	90	36.1581920903955	36.241610738255	22	0.733383287936449	2	6	6	NaN	1	3	0.19294284117267	1	1	NaN	361	6	46	1	121	221	321	NaN	521	0.703733294270933	1	1	NaN	4910859.4094418	NaN	4910860.3928517	4910860.90941321
58	21	1	0	90	36.1581920903955	36.241610738255	11	0.366691643968225	2	11	4	NaN	2	3	0.19294284117267	1	1	NaN	362	6	47	1	121	221	321	NaN	521	0.950688321143389	1	0	NaN	4910862.4264158	NaN	4910863.4097952	4910863.92636738
58	21	1	0	90	36.1581920903955	36.241610738255	20	0.666712079942226	2	11	6	NaN	2	5	0.19294284117267	1	1	NaN	363	6	48	1	121	221	321	NaN	521	0.483750969171524	1	0	NaN	4910865.6933985	NaN	4910866.6768017	4910867.19334993
58	21	1	0	90	36.1581920903955	36.241610738255	10	0.333356039971113	2	2	2	NaN	1	5	0.19294284117267	1	1	NaN	364	6	49	1	121	221	321	NaN	521	0.283882121555507	1	1	NaN	4910868.4936749	NaN	4910869.4770778	4910869.99363398
58	21	1	0	90	36.1581920903955	36.241610738255	13	0.433362851962447	2	6	6	NaN	1	3	0.19294284117267	1	1	NaN	365	6	50	1	121	221	321	NaN	521	1.08338148053735	1	1	NaN	4910871.0939444	NaN	4910872.0773323	4910872.59389352
58	21	1	0	90	36.1581920903955	36.241610738255	14	0.466698455959559	2	4	5	NaN	1	3	0.19294284117267	1	1	NaN	366	6	51	1	121	221	321	NaN	521	0.579351069405675	1	1	NaN	4910874.4942499	NaN	4910875.47767	4910875.99421303
58	21	1	0	90	36.1581920903955	36.241610738255	7	0.233349227979779	2	8	3	NaN	2	3	0.19294284117267	1	1	NaN	367	6	52	1	121	221	321	NaN	521	0.174687369726598	2	1	NaN	4910877.3945448	NaN	4910878.3779386	4910878.89450433
58	21	1	0	90	36.1581920903955	36.241610738255	22	0.733383287936449	2	10	6	NaN	2	5	0.19294284117267	1	1	NaN	368	6	53	1	121	221	321	NaN	521	0.331397822126746	2	1	NaN	4910879.8781188	NaN	4910880.8615254	4910881.37808868
58	21	1	0	90	36.1581920903955	36.241610738255	13	0.433362851962447	2	3	2	NaN	1	3	0.19294284117267	1	1	NaN	369	6	54	1	121	221	321	NaN	521	0.409713821485639	2	0	NaN	4910882.5117108	NaN	4910883.4951666	4910884.01167208
58	21	1	0	90	36.1581920903955	36.241610738255	13	0.433362851962447	2	10	6	NaN	2	3	0.19294284117267	1	1	NaN	370	6	55	1	121	221	321	NaN	521	1.29174106940627	1	0	NaN	4910885.8453589	NaN	4910886.8287841	4910887.34533563
58	21	1	0	90	36.1581920903955	36.241610738255	13	0.433362851962447	2	5	2	NaN	1	4	0.19294284117267	1	1	NaN	371	6	56	1	121	221	321	NaN	521	1.51559252757579	1	1	NaN	4910889.4457597	NaN	4910890.4291373	4910890.94568297
58	21	1	0	90	36.1581920903955	36.241610738255	6	0.200013623982668	2	10	4	NaN	2	5	0.19294284117267	1	1	NaN	372	6	57	1	121	221	321	NaN	521	1.37781142164022	2	1	NaN	4910893.279439	NaN	4910894.2628658	4910894.77940318
58	21	1	0	90	36.1581920903955	36.241610738255	0	0	1	1	4	NaN	1	5	0.19294284117267	1	1	NaN	373	6	58	1	111	211	311	NaN	511	0.294449421577156	1	1	NaN	4910896.9630095	NaN	4910897.9465523	4910898.46309648
58	21	1	0	90	36.1581920903955	36.241610738255	21	0.700047683939338	2	7	4	NaN	2	5	0.19294284117267	1	1	NaN	374	6	59	1	121	221	321	NaN	521	0.245823769830167	2	1	NaN	4910899.5633182	NaN	4910900.5468032	4910901.06334223
58	21	1	0	90	36.1581920903955	36.241610738255	15	0.50003405995667	2	7	1	NaN	2	3	0.19294284117267	1	1	NaN	375	6	60	1	121	221	321	NaN	521	0.78285251185298	2	1	NaN	4910902.1303467	NaN	4910903.1137124	4910903.63026859
58	21	1	0	90	36.1581920903955	36.241610738255	0	0	1	5	3	NaN	1	3	0.19294284117267	1	1	NaN	376	6	61	1	111	211	311	NaN	511	0.226876369677484	1	1	NaN	4910905.2306241	NaN	4910906.2140262	4910906.73057483
58	21	1	0	90	36.1581920903955	36.241610738255	18	0.600040871948004	2	8	4	NaN	2	3	0.19294284117267	1	1	NaN	377	6	62	1	121	221	321	NaN	521	0.97248697001487	1	0	NaN	4910907.7807403	NaN	4910908.7642695	4910909.28082283
58	21	1	0	90	36.1581920903955	36.241610738255	24	0.800054495930672	2	10	3	NaN	2	3	0.19294284117267	1	1	NaN	378	6	63	1	121	221	321	NaN	521	1.28332032170147	2	1	NaN	4910911.1978472	NaN	4910912.1812733	4910912.69782398
58	21	1	0	90	36.1581920903955	36.241610738255	0	0	1	4	6	NaN	1	4	0.19294284117267	1	1	NaN	379	7	1	1	111	211	311	NaN	511	0.435334416106343	1	1	NaN	4910952.5018523	NaN	4910953.4853401	4910954.00187948
58	21	1	0	90	36.1581920903955	36.241610738255	22	0.733383287936449	2	2	1	NaN	1	3	0.19294284117267	1	1	NaN	380	7	2	1	121	221	321	NaN	521	0.285155922174454	1	1	NaN	4910955.2523032	NaN	4910956.2355932	4910956.75215768
58	21	1	0	90	36.1581920903955	36.241610738255	21	0.700047683939338	2	6	2	NaN	1	3	0.19294284117267	1	1	NaN	381	7	3	1	121	221	321	NaN	521	0.0103881219401956	1	1	NaN	4910957.852444	NaN	4910958.8358606	4910959.35240818
58	21	1	0	90	36.1581920903955	36.241610738255	21	0.700047683939338	2	2	3	NaN	1	3	0.19294284117267	1	1	NaN	382	7	4	1	121	221	321	NaN	521	0.264350769110024	1	1	NaN	4910960.1693897	NaN	4910961.1527565	4910961.66930353
58	21	1	0	90	36.1581920903955	36.241610738255	16	0.533369663953781	2	9	4	NaN	2	4	0.19294284117267	1	1	NaN	383	7	5	1	121	221	321	NaN	521	0.0104001220315695	2	1	NaN	4910962.7362785	NaN	4910963.7196749	4910964.23622658
58	21	1	0	90	36.1581920903955	36.241610738255	24	0.800054495930672	2	6	1	NaN	1	5	0.19294284117267	1	1	NaN	384	7	6	1	121	221	321	NaN	521	0.116250921972096	1	1	NaN	4910965.0531738	NaN	4910966.0365091	4910966.55312018
58	21	1	0	90	36.1581920903955	36.241610738255	21	0.700047683939338	2	10	3	NaN	2	3	0.19294284117267	1	1	NaN	385	7	7	1	121	221	321	NaN	521	0.349826022051275	2	1	NaN	4910968.0034682	NaN	4910968.9869092	4910969.50340858
58	21	1	0	90	36.1581920903955	36.241610738255	7	0.233349227979779	2	5	3	NaN	1	4	0.19294284117267	1	1	NaN	386	7	8	1	121	221	321	NaN	521	0.578801221214235	1	1	NaN	4910970.6703999	NaN	4910971.653776	4910972.17034388
58	21	1	0	90	36.1581920903955	36.241610738255	25	0.833390099927783	2	7	2	NaN	2	4	0.19294284117267	1	1	NaN	387	7	9	1	121	221	321	NaN	521	0.159423016011715	2	1	NaN	4910973.7538934	NaN	4910974.737424	4910975.25396928
58	21	1	0	90	36.1581920903955	36.241610738255	17	0.566705267950892	2	6	3	NaN	1	3	0.19294284117267	1	1	NaN	388	7	10	1	121	221	321	NaN	521	0.0103866215795279	1	1	NaN	4910976.2209374	NaN	4910977.2043243	4910977.72088738
58	21	1	0	90	36.1581920903955	36.241610738255	24	0.800054495930672	2	8	2	NaN	2	4	0.19294284117267	1	1	NaN	389	7	11	1	121	221	321	NaN	521	0.551923573948443	1	0	NaN	4910978.5378241	NaN	4910979.5212146	4910980.03778173
58	21	1	0	90	36.1581920903955	36.241610738255	12	0.400027247965336	2	5	4	NaN	1	5	0.19294284117267	1	1	NaN	390	7	12	1	121	221	321	NaN	521	0.740931669250131	1	1	NaN	4910981.4047636	NaN	4910982.3881666	4910982.90471953
58	21	1	0	90	36.1581920903955	36.241610738255	24	0.800054495930672	2	3	6	NaN	1	3	0.19294284117267	1	1	NaN	391	7	13	1	121	221	321	NaN	521	0.490243169479072	1	1	NaN	4910984.455107	NaN	4910985.4384753	4910985.95502453
58	21	1	0	90	36.1581920903955	36.241610738255	18	0.600040871948004	2	8	3	NaN	2	5	0.19294284117267	1	1	NaN	392	7	14	1	121	221	321	NaN	521	0.410365121439099	2	1	NaN	4910987.2552636	NaN	4910988.2387378	4910988.75530088
58	21	1	0	90	36.1581920903955	36.241610738255	9	0.300020435974002	2	3	5	NaN	1	5	0.19294284117267	1	1	NaN	393	7	15	1	121	221	321	NaN	521	0.373148021288216	1	1	NaN	4910989.9721485	NaN	4910990.95569	4910991.47223978
58	21	1	0	90	36.1581920903955	36.241610738255	19	0.633376475945115	2	9	6	NaN	2	3	0.19294284117267	1	1	NaN	394	7	16	1	121	221	321	NaN	521	0.374174421653152	1	0	NaN	4910993.1392464	NaN	4910994.1226512	4910994.63920998
58	21	1	0	90	36.1581920903955	36.241610738255	10	0.333356039971113	2	6	3	NaN	1	5	0.19294284117267	1	1	NaN	395	7	17	1	121	221	321	NaN	521	0.387019190005958	1	1	NaN	4910995.8228555	NaN	4910996.8063084	4910997.32281451
58	21	1	0	90	36.1581920903955	36.241610738255	7	0.233349227979779	2	12	2	NaN	2	5	0.19294284117267	1	1	NaN	396	7	18	1	121	221	321	NaN	521	0.414237669669092	2	1	NaN	4910998.5231241	NaN	4910999.5065265	4911000.02307043
58	21	1	0	90	36.1581920903955	36.241610738255	7	0.233349227979779	2	2	6	NaN	1	3	0.19294284117267	1	1	NaN	397	7	19	1	121	221	321	NaN	521	0.492964821867645	1	1	NaN	4911001.7567369	NaN	4911002.7401605	4911003.25672938
58	21	1	0	90	36.1581920903955	36.241610738255	22	0.733383287936449	2	7	3	NaN	2	5	0.19294284117267	1	1	NaN	398	7	20	1	121	221	321	NaN	521	0.284254569560289	1	0	NaN	4911004.5569255	NaN	4911005.5404571	4911006.05700193
58	21	1	0	90	36.1581920903955	36.241610738255	8	0.266684831976891	2	10	6	NaN	2	5	0.19294284117267	1	1	NaN	399	7	21	1	121	221	321	NaN	521	0.302536569535732	2	1	NaN	4911007.6906188	NaN	4911008.6740829	4911009.19064823
58	21	1	0	90	36.1581920903955	36.241610738255	13	0.433362851962447	2	1	4	NaN	1	3	0.19294284117267	1	1	NaN	400	7	22	1	121	221	321	NaN	521	0.357675969600677	1	1	NaN	4911010.3076375	NaN	4911011.2910142	4911011.80755823
58	21	1	0	90	36.1581920903955	36.241610738255	9	0.300020435974002	2	9	2	NaN	2	5	0.19294284117267	1	1	NaN	401	7	23	1	121	221	321	NaN	521	0.170262921601534	2	1	NaN	4911013.591262	NaN	4911014.5746578	4911015.09122728
58	21	1	0	90	36.1581920903955	36.241610738255	18	0.600040871948004	2	7	3	NaN	2	3	0.19294284117267	1	1	NaN	402	7	24	1	121	221	321	NaN	521	0.318532721139491	2	1	NaN	4911016.074838	NaN	4911017.0582497	4911017.57481058
58	21	1	0	90	36.1581920903955	36.241610738255	8	0.266684831976891	2	6	1	NaN	1	5	0.19294284117267	1	1	NaN	403	7	25	1	121	221	321	NaN	521	0.301283769309521	1	1	NaN	4911018.7084476	NaN	4911019.6918417	4911020.20839673
58	21	1	0	90	36.1581920903955	36.241610738255	11	0.366691643968225	2	9	6	NaN	2	5	0.19294284117267	1	1	NaN	404	7	26	1	121	221	321	NaN	521	0.260435270145535	2	1	NaN	4911021.3252597	NaN	4911022.308738	4911022.82531423
58	21	1	0	90	36.1581920903955	36.241610738255	6	0.200013623982668	2	11	3	NaN	2	4	0.19294284117267	1	1	NaN	405	7	27	1	121	221	321	NaN	521	0.349299116060138	1	0	NaN	4911023.8922746	NaN	4911024.8756735	4911025.39222968
58	21	1	0	90	36.1581920903955	36.241610738255	6	0.200013623982668	2	10	4	NaN	2	5	0.19294284117267	1	1	NaN	406	7	28	1	121	221	321	NaN	521	0.314110022038221	1	0	NaN	4911026.5592986	NaN	4911027.5426189	4911028.05915948
58	21	1	0	90	36.1581920903955	36.241610738255	0	0	1	5	4	NaN	1	5	0.19294284117267	1	1	NaN	407	7	29	1	111	211	311	NaN	511	0.240687021054327	1	1	NaN	4911029.1927875	NaN	4911030.1762079	4911030.69276048
58	21	1	0	90	36.1581920903955	36.241610738255	0	0	1	12	3	NaN	2	3	0.19294284117267	1	1	NaN	408	7	30	1	111	211	311	NaN	511	4.23447381611913	1	0	NaN	4911031.7430281	NaN	4911032.7264654	4911033.24300628
58	21	1	0	90	36.1581920903955	36.241610738255	16	0.533369663953781	2	4	1	NaN	1	5	0.19294284117267	1	1	NaN	409	7	31	1	121	221	321	NaN	521	0.355740415863693	1	1	NaN	4911038.2937013	NaN	4911039.2770947	4911039.79364238
58	21	1	0	90	36.1581920903955	36.241610738255	15	0.50003405995667	2	1	2	NaN	1	4	0.19294284117267	1	1	NaN	410	7	32	1	121	221	321	NaN	521	0.365826569497585	1	1	NaN	4911041.4438824	NaN	4911042.4274058	4911042.94395993
58	21	1	0	90	36.1581920903955	36.241610738255	10	0.333356039971113	2	10	4	NaN	2	5	0.19294284117267	1	1	NaN	411	7	33	1	121	221	321	NaN	521	0.137885768897831	2	1	NaN	4911044.1276006	NaN	4911045.1110155	4911045.62755683
58	21	1	0	90	36.1581920903955	36.241610738255	12	0.400027247965336	2	12	3	NaN	2	3	0.19294284117267	1	1	NaN	412	7	34	1	121	221	321	NaN	521	0.111602421849966	2	1	NaN	4911046.5778401	NaN	4911047.5612431	4911048.07779908
58	21	1	0	90	36.1581920903955	36.241610738255	8	0.266684831976891	2	6	4	NaN	1	4	0.19294284117267	1	1	NaN	413	7	35	1	121	221	321	NaN	521	0.230377421714365	1	1	NaN	4911049.0114325	NaN	4911049.9948103	4911050.51136998
58	21	1	0	90	36.1581920903955	36.241610738255	25	0.833390099927783	2	12	6	NaN	2	4	0.19294284117267	1	1	NaN	414	7	36	1	121	221	321	NaN	521	0.415600421838462	2	1	NaN	4911051.5616635	NaN	4911052.5450693	4911053.06161708
58	21	1	0	90	36.1581920903955	36.241610738255	18	0.600040871948004	2	11	6	NaN	2	3	0.19294284117267	1	1	NaN	415	7	37	1	121	221	321	NaN	521	0.290893321856856	1	0	NaN	4911054.2786005	NaN	4911055.262013	4911055.77855698
58	21	1	0	90	36.1581920903955	36.241610738255	24	0.800054495930672	2	7	2	NaN	2	5	0.19294284117267	1	1	NaN	416	7	38	1	121	221	321	NaN	521	0.058414869941771	2	1	NaN	4911056.8788646	NaN	4911057.8622565	4911058.37880263
58	21	1	0	90	36.1581920903955	36.241610738255	20	0.666712079942226	2	2	1	NaN	1	5	0.19294284117267	1	1	NaN	417	7	39	1	121	221	321	NaN	521	0.0117985215038061	2	0	NaN	4911059.2456273	NaN	4911060.2292167	4911060.74570538
58	21	1	0	90	36.1581920903955	36.241610738255	10	0.333356039971113	2	7	5	NaN	2	3	0.19294284117267	1	1	NaN	418	7	40	1	121	221	321	NaN	521	0.134418670088053	2	1	NaN	4911061.5793308	NaN	4911062.5627146	4911063.07926763
58	21	1	0	90	36.1581920903955	36.241610738255	16	0.533369663953781	2	3	1	NaN	1	4	0.19294284117267	1	1	NaN	419	7	41	1	121	221	321	NaN	521	0.323775289580226	1	1	NaN	4911064.0295718	NaN	4911065.0129617	4911065.52952211
58	21	1	0	90	36.1581920903955	36.241610738255	16	0.533369663953781	2	1	5	NaN	1	5	0.19294284117267	1	1	NaN	420	7	42	1	121	221	321	NaN	521	0.450255569070578	1	1	NaN	4911066.663023	NaN	4911067.6465491	4911068.16311053
58	21	1	0	90	36.1581920903955	36.241610738255	0	0	1	10	1	NaN	2	4	0.19294284117267	1	1	NaN	421	7	43	1	111	211	311	NaN	511	0.379709469154477	2	1	NaN	4911069.4300849	NaN	4911070.4134962	4911070.93004003
58	21	1	0	90	36.1581920903955	36.241610738255	18	0.600040871948004	2	2	3	NaN	1	4	0.19294284117267	1	1	NaN	422	7	44	1	121	221	321	NaN	521	0.0103899212554097	2	0	NaN	4911072.113698	NaN	4911073.0971135	4911073.61364508
58	21	1	0	90	36.1581920903955	36.241610738255	19	0.633376475945115	2	7	6	NaN	2	3	0.19294284117267	1	1	NaN	423	7	45	1	121	221	321	NaN	521	0.883420868776739	2	1	NaN	4911074.4305712	NaN	4911075.4139897	4911075.93053283
58	21	1	0	90	36.1581920903955	36.241610738255	25	0.833390099927783	2	8	4	NaN	2	3	0.19294284117267	1	1	NaN	424	7	46	1	121	221	321	NaN	521	0.415118722245097	2	1	NaN	4911077.9142356	NaN	4911078.8976568	4911079.41421068
58	21	1	0	90	36.1581920903955	36.241610738255	11	0.366691643968225	2	5	3	NaN	1	5	0.19294284117267	1	1	NaN	425	7	47	1	121	221	321	NaN	521	0.322112269699574	1	1	NaN	4911080.6312098	NaN	4911081.614581	4911082.13114683
58	21	1	0	90	36.1581920903955	36.241610738255	10	0.333356039971113	2	3	1	NaN	1	4	0.19294284117267	1	1	NaN	426	7	48	1	121	221	321	NaN	521	0.264817570336163	1	1	NaN	4911083.2648009	NaN	4911084.2481731	4911084.76473153
58	21	1	0	90	36.1581920903955	36.241610738255	22	0.733383287936449	2	1	3	NaN	1	4	0.19294284117267	1	1	NaN	427	7	49	1	121	221	321	NaN	521	0.204732770100236	1	1	NaN	4911086.365054	NaN	4911087.3484886	4911087.86504083
58	21	1	0	90	36.1581920903955	36.241610738255	12	0.400027247965336	2	3	2	NaN	1	5	0.19294284117267	1	1	NaN	428	7	50	1	121	221	321	NaN	521	0.263604221865535	1	1	NaN	4911088.8820006	NaN	4911089.8653861	4911090.38195628
58	21	1	0	90	36.1581920903955	36.241610738255	7	0.233349227979779	2	10	2	NaN	2	3	0.19294284117267	1	1	NaN	429	7	51	1	121	221	321	NaN	521	0.560575668700039	2	1	NaN	4911091.448788	NaN	4911092.4323294	4911092.94886583
58	21	1	0	90	36.1581920903955	36.241610738255	14	0.466698455959559	2	3	5	NaN	1	3	0.19294284117267	1	1	NaN	430	7	52	1	121	221	321	NaN	521	0.750010522082448	2	0	NaN	4911094.3157758	NaN	4911095.2992621	4911095.81582228
58	21	1	0	90	36.1581920903955	36.241610738255	17	0.566705267950892	2	12	1	NaN	2	4	0.19294284117267	1	1	NaN	431	7	53	1	121	221	321	NaN	521	0.419060369953513	2	1	NaN	4911097.3828336	NaN	4911098.3662403	4911098.88279393
58	21	1	0	90	36.1581920903955	36.241610738255	23	0.76671889193356	2	2	6	NaN	1	3	0.19294284117267	1	1	NaN	432	7	54	1	121	221	321	NaN	521	0.293262274935842	2	0	NaN	4911100.1164441	NaN	4911101.0998374	4911101.61639933
58	21	1	0	90	36.1581920903955	36.241610738255	25	0.833390099927783	2	9	2	NaN	2	3	0.19294284117267	1	1	NaN	433	7	55	1	121	221	321	NaN	521	0.148962269537151	2	1	NaN	4911102.7166863	NaN	4911103.7000937	4911104.21665223
58	21	1	0	90	36.1581920903955	36.241610738255	9	0.300020435974002	2	2	3	NaN	1	4	0.19294284117267	1	1	NaN	434	7	56	1	121	221	321	NaN	521	0.665966669097543	2	0	NaN	4911105.18361	NaN	4911106.1669058	4911106.68355173
58	21	1	0	90	36.1581920903955	36.241610738255	23	0.76671889193356	2	10	1	NaN	2	3	0.19294284117267	1	1	NaN	435	7	57	1	121	221	321	NaN	521	0.226654069498181	2	1	NaN	4911108.1672397	NaN	4911109.1506673	4911109.66718303
58	21	1	0	90	36.1581920903955	36.241610738255	16	0.533369663953781	2	11	1	NaN	2	3	0.19294284117267	1	1	NaN	436	7	58	1	121	221	321	NaN	521	0.0103941215202212	2	1	NaN	4911111.2841675	NaN	4911112.2675931	4911112.78415208
58	21	1	0	90	36.1581920903955	36.241610738255	13	0.433362851962447	2	6	6	NaN	1	3	0.19294284117267	1	1	NaN	437	7	59	1	121	221	321	NaN	521	0.232311421073973	1	1	NaN	4911113.6011033	NaN	4911114.5844867	4911115.10104718
58	21	1	0	90	36.1581920903955	36.241610738255	14	0.466698455959559	2	1	6	NaN	1	4	0.19294284117267	1	1	NaN	438	7	60	1	121	221	321	NaN	521	0.282368416897953	2	0	NaN	4911116.1513409	NaN	4911117.1347822	4911117.65130608
58	21	1	0	90	36.1581920903955	36.241610738255	19	0.633376475945115	2	2	4	NaN	1	4	0.19294284117267	1	1	NaN	439	7	61	1	121	221	321	NaN	521	0.745833321474493	1	1	NaN	4911118.7515951	NaN	4911119.7350214	4911120.25155908
58	21	1	0	90	36.1581920903955	36.241610738255	8	0.266684831976891	2	2	4	NaN	1	4	0.19294284117267	1	1	NaN	440	7	62	1	121	221	321	NaN	521	0.823331521824002	1	1	NaN	4911121.8185632	NaN	4911122.8019642	4911123.31852578
58	21	1	0	90	36.1581920903955	36.241610738255	24	0.800054495930672	2	12	1	NaN	2	3	0.19294284117267	1	1	NaN	441	7	63	1	121	221	321	NaN	521	0.241474169306457	1	0	NaN	4911124.9522133	NaN	4911125.9356175	4911126.45216193
58	21	1	0	90	36.1581920903955	36.241610738255	18	0.600040871948004	2	6	1	NaN	1	5	0.19294284117267	1	1	NaN	442	8	1	1	121	221	321	NaN	521	0.391742021776736	1	1	NaN	4911168.8898198	NaN	4911169.8732672	4911170.38981588
58	21	1	0	90	36.1581920903955	36.241610738255	16	0.533369663953781	2	5	1	NaN	1	4	0.19294284117267	1	1	NaN	443	8	2	1	121	221	321	NaN	521	0.108115921728313	1	1	NaN	4911171.9734057	NaN	4911172.9568986	4911173.47345448
58	21	1	0	90	36.1581920903955	36.241610738255	8	0.266684831976891	2	9	1	NaN	2	4	0.19294284117267	1	1	NaN	444	8	3	1	121	221	321	NaN	521	0.211195869371295	1	0	NaN	4911174.3904018	NaN	4911175.3738182	4911175.89035413
58	21	1	0	90	36.1581920903955	36.241610738255	12	0.400027247965336	2	11	3	NaN	2	3	0.19294284117267	1	1	NaN	445	8	4	1	121	221	321	NaN	521	0.0103967217728496	1	0	NaN	4911176.923981	NaN	4911177.9073666	4911178.42394618
58	21	1	0	90	36.1581920903955	36.241610738255	14	0.466698455959559	2	10	6	NaN	2	4	0.19294284117267	1	1	NaN	446	8	5	1	121	221	321	NaN	521	0.264730270020664	1	0	NaN	4911179.240903	NaN	4911180.2242832	4911180.74083883
58	21	1	0	90	36.1581920903955	36.241610738255	20	0.666712079942226	2	10	5	NaN	2	3	0.19294284117267	1	1	NaN	447	8	6	1	121	221	321	NaN	521	0.137421022169292	1	0	NaN	4911181.8244583	NaN	4911182.8078621	4911183.32442028
58	21	1	0	90	36.1581920903955	36.241610738255	22	0.733383287936449	2	5	4	NaN	1	3	0.19294284117267	1	1	NaN	448	8	7	1	121	221	321	NaN	521	0.214863321743906	1	1	NaN	4911184.2747145	NaN	4911185.2581264	4911185.77466198
58	21	1	0	90	36.1581920903955	36.241610738255	6	0.200013623982668	2	1	4	NaN	1	5	0.19294284117267	1	1	NaN	449	8	8	1	121	221	321	NaN	521	0.145474369637668	1	1	NaN	4911186.808295	NaN	4911187.7916732	4911188.30823863
58	21	1	0	90	36.1581920903955	36.241610738255	23	0.76671889193356	2	8	3	NaN	2	5	0.19294284117267	1	1	NaN	450	8	9	1	121	221	321	NaN	521	0.125997621566057	1	0	NaN	4911189.4918738	NaN	4911190.475293	4911190.99184298
58	21	1	0	90	36.1581920903955	36.241610738255	24	0.800054495930672	2	11	2	NaN	2	4	0.19294284117267	1	1	NaN	451	8	10	1	121	221	321	NaN	521	0.124366221949458	2	1	NaN	4911191.9254604	NaN	4911192.9088599	4911193.42540688
58	21	1	0	90	36.1581920903955	36.241610738255	9	0.300020435974002	2	12	2	NaN	2	3	0.19294284117267	1	1	NaN	452	8	11	1	121	221	321	NaN	521	0.226939769461751	2	1	NaN	4911194.359033	NaN	4911195.3424364	4911195.85897803
58	21	1	0	90	36.1581920903955	36.241610738255	21	0.700047683939338	2	8	6	NaN	2	3	0.19294284117267	1	1	NaN	453	8	12	1	121	221	321	NaN	521	0.0103899221867323	1	0	NaN	4911197.4093105	NaN	4911198.3927337	4911198.90929138
58	21	1	0	90	36.1581920903955	36.241610738255	23	0.76671889193356	2	1	4	NaN	1	5	0.19294284117267	1	1	NaN	454	8	13	1	121	221	321	NaN	521	0.0754528697580099	1	1	NaN	4911199.7262456	NaN	4911200.7096341	4911201.22618093
58	21	1	0	90	36.1581920903955	36.241610738255	8	0.266684831976891	2	12	2	NaN	2	5	0.19294284117267	1	1	NaN	455	8	14	1	121	221	321	NaN	521	0.1958895213902	2	1	NaN	4911202.109675	NaN	4911203.0931831	4911203.60975448
58	21	1	0	90	36.1581920903955	36.241610738255	25	0.833390099927783	2	2	1	NaN	1	4	0.19294284117267	1	1	NaN	456	8	15	1	121	221	321	NaN	521	0.191887069493532	1	1	NaN	4911205.2101084	NaN	4911206.1935497	4911206.71004933
58	21	1	0	90	36.1581920903955	36.241610738255	15	0.50003405995667	2	10	2	NaN	2	5	0.19294284117267	1	1	NaN	457	8	16	1	121	221	321	NaN	521	0.630629422143102	2	1	NaN	4911208.0270396	NaN	4911209.0104302	4911209.52699658
58	21	1	0	90	36.1581920903955	36.241610738255	17	0.566705267950892	2	11	5	NaN	2	3	0.19294284117267	1	1	NaN	458	8	17	1	121	221	321	NaN	521	0.271085969172418	2	1	NaN	4911211.210558	NaN	4911212.1940951	4911212.71064253
58	21	1	0	90	36.1581920903955	36.241610738255	15	0.50003405995667	2	10	3	NaN	2	3	0.19294284117267	1	1	NaN	459	8	18	1	121	221	321	NaN	521	0.44773372169584	2	1	NaN	4911213.7942727	NaN	4911214.7776821	4911215.29422338
58	21	1	0	90	36.1581920903955	36.241610738255	18	0.600040871948004	2	4	4	NaN	1	5	0.19294284117267	1	1	NaN	460	8	19	1	121	221	321	NaN	521	0.424472116865218	1	1	NaN	4911216.5612254	NaN	4911217.5445995	4911218.06116588
58	21	1	0	90	36.1581920903955	36.241610738255	9	0.300020435974002	2	1	3	NaN	1	3	0.19294284117267	1	1	NaN	461	8	20	1	121	221	321	NaN	521	0.554077521897852	1	1	NaN	4911219.3114719	NaN	4911220.2948865	4911220.81143558
58	21	1	0	90	36.1581920903955	36.241610738255	12	0.400027247965336	2	8	6	NaN	2	4	0.19294284117267	1	1	NaN	462	8	21	1	121	221	321	NaN	521	0.445915616117418	2	1	NaN	4911222.211653	NaN	4911223.1951724	4911223.71171928
