subjno	age	gender	isPractice	viewdist	CmToPixX	CmToPixY	SOA_frm	SOA_time	targNum	targID	targExample	targRace	targGender	firstTargPos	contrast	familiarity	curr_staircase	iStair	TrialNum	BlockNum	blktrl	sessionNum	TC_FIXATION	TC_RSVP_START	TC_RSVP_END	TC_BLANK	TC_RESPONSE_ONSET	RT2afc	resp_2afc	acc	RSVPOnsetVBL	RSVPOnsetTime	RSVPOffsetVBL	RSVPOffsetTime	startrt_2afc
4	19	1	0	90	36.1581920903955	36.241610738255	8	0.266694623976946	2	10	1	NaN	2	3	0.0498346531438693	0	1	NaN	1	1	1	2	120	220	320	NaN	520	0.458976332331076	2	1	NaN	1383975.3459286	NaN	1383976.329571	1383976.86270937
4	19	1	0	90	36.1581920903955	36.241610738255	13	0.433378763962537	2	9	6	NaN	2	3	0.0498346531438693	0	1	NaN	2	1	2	2	120	220	320	NaN	520	1.67755642835982	2	1	NaN	1383978.6632579	NaN	1383979.646566	1383980.17971917
4	19	1	0	90	36.1581920903955	36.241610738255	20	0.666736559942365	2	9	3	NaN	2	3	0.0498346531438693	0	1	NaN	3	1	3	2	120	220	320	NaN	520	0.589045240078121	2	1	NaN	1383982.680151	NaN	1383983.6635747	1383984.18009826
4	19	1	0	90	36.1581920903955	36.241610738255	10	0.333368279971182	2	6	1	NaN	1	5	0.0498346531438693	0	1	NaN	4	1	4	2	120	220	320	NaN	520	0.38421812816523	1	1	NaN	1383985.5971392	NaN	1383986.5805371	1383987.09705427
4	19	1	0	90	36.1581920903955	36.241610738255	21	0.700073387939483	2	7	2	NaN	2	5	0.0498346531438693	0	1	NaN	5	1	5	2	120	220	320	NaN	520	1.507921528304	2	1	NaN	1383988.2974043	NaN	1383989.2807575	1383989.79732417
4	19	1	0	90	36.1581920903955	36.241610738255	21	0.700073387939483	2	5	5	NaN	1	4	0.0498346531438693	0	1	NaN	6	1	6	2	120	220	320	NaN	520	0.378142976202071	1	1	NaN	1383992.1310746	NaN	1383993.1144893	1383993.63102362
4	19	1	0	90	36.1581920903955	36.241610738255	8	0.266694623976946	2	8	2	NaN	2	4	0.0498346531438693	0	1	NaN	7	1	7	2	120	220	320	NaN	520	0.349960428196937	2	1	NaN	1383994.8314395	NaN	1383995.814724	1383996.33129507
4	19	1	0	90	36.1581920903955	36.241610738255	11	0.366705107968301	2	4	4	NaN	1	3	0.0498346531438693	0	1	NaN	8	1	8	2	120	220	320	NaN	520	0.370930376229808	1	1	NaN	1383997.49828	NaN	1383998.4816747	1383998.99821512
4	19	1	0	90	36.1581920903955	36.241610738255	25	0.833420699927956	2	2	2	NaN	1	3	0.0498346531438693	0	1	NaN	9	1	9	2	120	220	320	NaN	520	0.41448862827383	2	0	NaN	1384000.198431	NaN	1384001.181961	1384001.69849147
4	19	1	0	90	36.1581920903955	36.241610738255	20	0.666736559942365	2	11	3	NaN	2	4	0.0498346531438693	0	1	NaN	10	1	10	2	120	220	320	NaN	520	0.505415124353021	2	1	NaN	1384002.9320163	NaN	1384003.9155228	1384004.43209248
4	19	1	0	90	36.1581920903955	36.241610738255	24	0.800083871930838	2	9	2	NaN	2	3	0.0498346531438693	0	1	NaN	11	1	11	2	120	220	320	NaN	520	0.303527428070083	2	1	NaN	1384005.7657596	NaN	1384006.7491434	1384007.26570787
4	19	1	0	90	36.1581920903955	36.241610738255	25	0.833420699927956	2	2	1	NaN	1	4	0.0498346531438693	0	1	NaN	12	1	12	2	120	220	320	NaN	520	0.0103934281505644	1	1	NaN	1384008.3993447	NaN	1384009.3827413	1384009.89929787
4	19	1	0	90	36.1581920903955	36.241610738255	10	0.333368279971182	2	11	2	NaN	2	5	0.0498346531438693	0	1	NaN	13	1	13	2	120	220	320	NaN	520	0.752681176410988	2	1	NaN	1384010.7329121	NaN	1384011.7163057	1384012.23285532
4	19	1	0	90	36.1581920903955	36.241610738255	8	0.266694623976946	2	11	2	NaN	2	5	0.0498346531438693	0	1	NaN	14	1	14	2	120	220	320	NaN	520	0.877381828380749	1	0	NaN	1384013.7998708	NaN	1384014.7832431	1384015.29982597
4	19	1	0	90	36.1581920903955	36.241610738255	11	0.366705107968301	2	3	5	NaN	1	4	0.0498346531438693	0	1	NaN	15	1	15	2	120	220	320	NaN	520	0.33351437211968	1	1	NaN	1384017.0001758	NaN	1384017.9835846	1384018.50013243
4	19	1	0	90	36.1581920903955	36.241610738255	12	0.400041935965419	2	1	1	NaN	1	4	0.0498346531438693	0	1	NaN	16	1	16	2	120	220	320	NaN	520	0.36328432825394	1	1	NaN	1384019.6504962	NaN	1384020.6338499	1384021.15041307
4	19	1	0	90	36.1581920903955	36.241610738255	10	0.333368279971182	2	7	5	NaN	2	3	0.0498346531438693	0	1	NaN	17	1	17	2	120	220	320	NaN	520	0.967125928262249	2	1	NaN	1384022.3340451	NaN	1384023.3174496	1384023.83399817
4	19	1	0	90	36.1581920903955	36.241610738255	23	0.766747043933719	2	10	3	NaN	2	3	0.0498346531438693	0	1	NaN	18	1	18	2	120	220	320	NaN	520	0.675833228277043	2	1	NaN	1384025.6176963	NaN	1384026.6010992	1384027.11765677
4	19	1	0	90	36.1581920903955	36.241610738255	14	0.466715591959655	2	11	6	NaN	2	4	0.0498346531438693	0	1	NaN	19	1	19	2	120	220	320	NaN	520	0.275248328223825	1	0	NaN	1384028.6179885	NaN	1384029.6013868	1384030.11794567
4	19	1	0	90	36.1581920903955	36.241610738255	12	0.400041935965419	2	3	1	NaN	1	5	0.0498346531438693	0	1	NaN	20	1	20	2	120	220	320	NaN	520	0.362999776145443	1	1	NaN	1384031.2182583	NaN	1384032.2016572	1384032.71819612
4	19	1	0	90	36.1581920903955	36.241610738255	8	0.266694623976946	2	7	1	NaN	2	3	0.0498346531438693	0	1	NaN	21	1	21	2	120	220	320	NaN	520	0.543840387836099	2	1	NaN	1384033.9018359	NaN	1384034.8852432	1384035.40180901
4	19	1	0	90	36.1581920903955	36.241610738255	15	0.500052419956774	2	3	2	NaN	1	3	0.0498346531438693	0	1	NaN	22	1	22	2	120	220	320	NaN	520	0.356518428074196	1	1	NaN	1384036.7688014	NaN	1384037.752199	1384038.26875137
4	19	1	0	90	36.1581920903955	36.241610738255	19	0.633399731945246	2	7	3	NaN	2	3	0.0498346531438693	0	1	NaN	23	1	23	2	120	220	320	NaN	520	0.249119576299563	1	0	NaN	1384039.4523818	NaN	1384040.4357835	1384040.95234552
4	19	1	0	90	36.1581920903955	36.241610738255	20	0.666736559942365	2	6	3	NaN	1	4	0.0498346531438693	0	1	NaN	24	1	24	2	120	220	320	NaN	520	0.250359176192433	1	1	NaN	1384042.0191804	NaN	1384043.0027335	1384043.51925742
4	19	1	0	90	36.1581920903955	36.241610738255	15	0.500052419956774	2	3	6	NaN	1	5	0.0498346531438693	0	1	NaN	25	1	25	2	120	220	320	NaN	520	0.203162328340113	1	1	NaN	1384044.5862368	NaN	1384045.5696282	1384046.08618477
4	19	1	0	90	36.1581920903955	36.241610738255	15	0.500052419956774	2	8	5	NaN	2	4	0.0498346531438693	0	1	NaN	26	1	26	2	120	220	320	NaN	520	0.182451924309134	1	0	NaN	1384047.1031456	NaN	1384048.0865392	1384048.60309888
4	19	1	0	90	36.1581920903955	36.241610738255	23	0.766747043933719	2	3	3	NaN	1	5	0.0498346531438693	0	1	NaN	27	1	27	2	120	220	320	NaN	520	0.282113828230649	1	1	NaN	1384049.603405	NaN	1384050.5867838	1384051.10334337
4	19	1	0	90	36.1581920903955	36.241610738255	0	0	1	9	3	NaN	2	4	0.0498346531438693	0	1	NaN	28	1	28	2	110	210	310	NaN	510	0.0976839282084256	1	0	NaN	1384052.2037224	NaN	1384053.1870463	1384053.70360147
4	19	1	0	90	36.1581920903955	36.241610738255	13	0.433378763962537	2	8	4	NaN	2	4	0.0498346531438693	0	1	NaN	29	1	29	2	120	220	320	NaN	520	0.240771428216249	1	0	NaN	1384054.6205578	NaN	1384055.60395	1384056.12050417
4	19	1	0	90	36.1581920903955	36.241610738255	8	0.266694623976946	2	11	4	NaN	2	3	0.0498346531438693	0	1	NaN	30	1	30	2	120	220	320	NaN	520	0.113743828143924	2	1	NaN	1384057.1873063	NaN	1384058.1708805	1384058.68741977
4	19	1	0	90	36.1581920903955	36.241610738255	24	0.800083871930838	2	6	2	NaN	1	3	0.0498346531438693	0	1	NaN	31	1	31	2	120	220	320	NaN	520	0.312164828181267	1	1	NaN	1384059.6210633	NaN	1384060.604419	1384061.12099687
4	19	1	0	90	36.1581920903955	36.241610738255	17	0.56672607595101	2	2	4	NaN	1	5	0.0498346531438693	0	1	NaN	32	1	32	2	120	220	320	NaN	520	0.214588928269222	1	1	NaN	1384062.2546437	NaN	1384063.2380601	1384063.75459067
4	19	1	0	90	36.1581920903955	36.241610738255	7	0.233357795979828	2	12	2	NaN	2	4	0.0498346531438693	0	1	NaN	33	1	33	2	120	220	320	NaN	520	0.241057576378807	2	1	NaN	1384064.7882388	NaN	1384065.7716044	1384066.28815872
4	19	1	0	90	36.1581920903955	36.241610738255	16	0.533389247953892	2	6	1	NaN	1	5	0.0498346531438693	0	1	NaN	34	1	34	2	120	220	320	NaN	520	0.570114728296176	1	1	NaN	1384067.3551359	NaN	1384068.3385291	1384068.85508797
4	19	1	0	90	36.1581920903955	36.241610738255	25	0.833420699927956	2	11	5	NaN	2	4	0.0498346531438693	0	1	NaN	35	1	35	2	120	220	320	NaN	520	0.20657212426886	2	1	NaN	1384070.2386708	NaN	1384071.2221369	1384071.73869748
4	19	1	0	90	36.1581920903955	36.241610738255	20	0.666736559942365	2	3	6	NaN	1	3	0.0498346531438693	0	1	NaN	36	1	36	2	120	220	320	NaN	520	0.529654924524948	2	0	NaN	1384072.7556605	NaN	1384073.7390713	1384074.25561408
4	19	1	0	90	36.1581920903955	36.241610738255	10	0.333368279971182	2	12	6	NaN	2	5	0.0498346531438693	0	1	NaN	37	1	37	2	120	220	320	NaN	520	0.263458343921229	2	1	NaN	1384075.6059712	NaN	1384076.5893405	1384077.10590646
4	19	1	0	90	36.1581920903955	36.241610738255	6	0.200020967982709	2	4	5	NaN	1	5	0.0498346531438693	0	1	NaN	38	1	38	2	120	220	320	NaN	520	0.232544328318909	1	1	NaN	1384078.1728737	NaN	1384079.1562645	1384079.67281537
4	19	1	0	90	36.1581920903955	36.241610738255	8	0.266694623976946	2	4	3	NaN	1	5	0.0498346531438693	0	1	NaN	39	1	39	2	120	220	320	NaN	520	0.330865180119872	1	1	NaN	1384080.7064351	NaN	1384081.6898273	1384082.20639302
4	19	1	0	90	36.1581920903955	36.241610738255	22	0.733410215936601	2	10	3	NaN	2	4	0.0498346531438693	0	1	NaN	40	1	40	2	120	220	320	NaN	520	0.457284428179264	1	0	NaN	1384083.3400126	NaN	1384084.3234471	1384084.83999497
4	19	1	0	90	36.1581920903955	36.241610738255	9	0.300031451974064	2	9	4	NaN	2	4	0.0498346531438693	0	1	NaN	41	1	41	2	120	220	320	NaN	520	0.306419828208163	1	0	NaN	1384086.1069699	NaN	1384087.090409	1384087.60692987
4	19	1	0	90	36.1581920903955	36.241610738255	11	0.366705107968301	2	11	1	NaN	2	3	0.0498346531438693	0	1	NaN	42	1	42	2	120	220	320	NaN	520	0.249833676265553	2	1	NaN	1384088.7238989	NaN	1384089.7072907	1384090.22384342
4	19	1	0	90	36.1581920903955	36.241610738255	18	0.600062903948128	2	6	5	NaN	1	3	0.0498346531438693	0	1	NaN	43	1	43	2	120	220	320	NaN	520	0.370489780092612	2	0	NaN	1384091.2908116	NaN	1384092.2743109	1384092.79077762
4	19	1	0	90	36.1581920903955	36.241610738255	15	0.500052419956774	2	7	6	NaN	2	4	0.0498346531438693	0	1	NaN	44	1	44	2	120	220	320	NaN	520	1.09526257636026	2	1	NaN	1384093.9744201	NaN	1384094.9577722	1384095.47437182
4	19	1	0	90	36.1581920903955	36.241610738255	13	0.433378763962537	2	10	2	NaN	2	3	0.0498346531438693	0	1	NaN	45	1	45	2	120	220	320	NaN	520	0.277932228287682	1	0	NaN	1384097.3914176	NaN	1384098.3747927	1384098.89137277
4	19	1	0	90	36.1581920903955	36.241610738255	16	0.533389247953892	2	3	3	NaN	1	5	0.0498346531438693	0	1	NaN	46	1	46	2	120	220	320	NaN	520	0.166339128045365	1	1	NaN	1384099.9748864	NaN	1384100.9583927	1384101.47496337
4	19	1	0	90	36.1581920903955	36.241610738255	20	0.666736559942365	2	4	3	NaN	1	3	0.0498346531438693	0	1	NaN	47	1	47	2	120	220	320	NaN	520	0.170731428312138	1	1	NaN	1384102.4585771	NaN	1384103.4419748	1384103.95854107
4	19	1	0	90	36.1581920903955	36.241610738255	21	0.700073387939483	2	8	6	NaN	2	3	0.0498346531438693	0	1	NaN	48	1	48	2	120	220	320	NaN	520	0.367611824302003	1	0	NaN	1384104.9421569	NaN	1384105.9255654	1384106.44210898
4	19	1	0	90	36.1581920903955	36.241610738255	13	0.433378763962537	2	10	3	NaN	2	3	0.0498346531438693	0	1	NaN	49	1	49	2	120	220	320	NaN	520	0.483906528213993	2	1	NaN	1384107.625766	NaN	1384108.6091608	1384109.12570987
4	19	1	0	90	36.1581920903955	36.241610738255	23	0.766747043933719	2	7	6	NaN	2	3	0.0498346531438693	0	1	NaN	50	1	50	2	120	220	320	NaN	520	0.0103934281505644	1	0	NaN	1384111.5761256	NaN	1384112.5595368	1384113.07610197
4	19	1	0	90	36.1581920903955	36.241610738255	16	0.533389247953892	2	2	3	NaN	1	3	0.0498346531438693	0	1	NaN	51	1	51	2	120	220	320	NaN	520	0.192395728081465	2	0	NaN	1384113.893031	NaN	1384114.8764211	1384115.39299267
4	19	1	0	90	36.1581920903955	36.241610738255	20	0.666736559942365	2	1	3	NaN	1	4	0.0498346531438693	0	1	NaN	52	1	52	2	120	220	320	NaN	520	0.164027428254485	2	0	NaN	1384116.393158	NaN	1384117.3766768	1384117.89324307
4	19	1	0	90	36.1581920903955	36.241610738255	22	0.733410215936601	2	2	3	NaN	1	5	0.0498346531438693	0	1	NaN	53	1	53	2	120	220	320	NaN	520	0.192750428104773	1	1	NaN	1384118.8768123	NaN	1384119.8602548	1384120.37681527
4	19	1	0	90	36.1581920903955	36.241610738255	7	0.233357795979828	2	8	6	NaN	2	5	0.0498346531438693	0	1	NaN	54	1	54	2	120	220	320	NaN	520	0.348664028104395	2	1	NaN	1384121.3769855	NaN	1384122.3604065	1384122.87705927
4	19	1	0	90	36.1581920903955	36.241610738255	17	0.56672607595101	2	12	6	NaN	2	3	0.0498346531438693	0	1	NaN	55	1	55	2	120	220	320	NaN	520	0.425375428050756	2	1	NaN	1384124.0440291	NaN	1384125.0274248	1384125.54399347
4	19	1	0	90	36.1581920903955	36.241610738255	23	0.766747043933719	2	12	2	NaN	2	4	0.0498346531438693	0	1	NaN	56	1	56	2	120	220	320	NaN	520	0.284325624350458	2	1	NaN	1384126.7776274	NaN	1384127.7610465	1384128.27759238
4	19	1	0	90	36.1581920903955	36.241610738255	22	0.733410215936601	2	3	1	NaN	1	5	0.0498346531438693	0	1	NaN	57	1	57	2	120	220	320	NaN	520	0.451547424308956	2	0	NaN	1384129.3777647	NaN	1384130.3613088	1384130.87783958
4	19	1	0	90	36.1581920903955	36.241610738255	12	0.400041935965419	2	12	1	NaN	2	4	0.0498346531438693	0	1	NaN	58	1	58	2	120	220	320	NaN	520	0.316457276232541	2	1	NaN	1384132.1449303	NaN	1384133.1282484	1384133.64478152
4	19	1	0	90	36.1581920903955	36.241610738255	8	0.266694623976946	2	6	1	NaN	1	4	0.0498346531438693	0	1	NaN	59	1	59	2	120	220	320	NaN	520	0.339344328036532	1	1	NaN	1384134.7784424	NaN	1384135.7618118	1384136.27837997
4	19	1	0	90	36.1581920903955	36.241610738255	16	0.533389247953892	2	11	5	NaN	2	5	0.0498346531438693	0	1	NaN	60	1	60	2	120	220	320	NaN	520	0.416935028275475	2	1	NaN	1384137.4286963	NaN	1384138.4120977	1384138.92863807
4	19	1	0	90	36.1581920903955	36.241610738255	15	0.500052419956774	2	9	4	NaN	2	3	0.0498346531438693	0	1	NaN	61	1	61	2	120	220	320	NaN	520	0.339197124354541	2	1	NaN	1384140.1622907	NaN	1384141.1456897	1384141.66223658
4	19	1	0	90	36.1581920903955	36.241610738255	15	0.500052419956774	2	4	4	NaN	1	5	0.0498346531438693	0	1	NaN	62	1	62	2	120	220	320	NaN	520	0.45730142830871	2	0	NaN	1384142.8125457	NaN	1384143.7959459	1384144.31250067
4	19	1	0	90	36.1581920903955	36.241610738255	8	0.266694623976946	2	6	6	NaN	1	3	0.0498346531438693	0	1	NaN	63	1	63	2	120	220	320	NaN	520	0.297857528319582	1	1	NaN	1384145.579496	NaN	1384146.5628718	1384147.07943907
4	19	1	0	90	36.1581920903955	36.241610738255	18	0.600062903948128	2	12	4	NaN	2	3	0.0498346531438693	0	1	NaN	64	2	1	2	120	220	320	NaN	520	1.12369512836449	1	0	NaN	1384230.1377772	NaN	1384231.1211896	1384231.63774907
4	19	1	0	90	36.1581920903955	36.241610738255	0	0	1	2	6	NaN	1	5	0.0498346531438693	0	1	NaN	65	2	2	2	110	210	310	NaN	510	0.306024128338322	2	0	NaN	1384233.5713667	NaN	1384234.5549183	1384235.07141437
4	19	1	0	90	36.1581920903955	36.241610738255	17	0.56672607595101	2	1	6	NaN	1	4	0.0498346531438693	0	1	NaN	66	2	3	2	120	220	320	NaN	520	0.209484928054735	2	0	NaN	1384236.1882712	NaN	1384237.1717697	1384237.68834607
4	19	1	0	90	36.1581920903955	36.241610738255	6	0.200020967982709	2	11	2	NaN	2	3	0.0498346531438693	0	1	NaN	67	2	4	2	120	220	320	NaN	520	0.292756128124893	2	1	NaN	1384238.7053177	NaN	1384239.6886882	1384240.20525877
4	19	1	0	90	36.1581920903955	36.241610738255	9	0.300031451974064	2	3	4	NaN	1	5	0.0498346531438693	0	1	NaN	68	2	5	2	120	220	320	NaN	520	0.308419928187504	2	0	NaN	1384241.3055663	NaN	1384242.2889541	1384242.80550887
4	19	1	0	90	36.1581920903955	36.241610738255	9	0.300031451974064	2	9	5	NaN	2	4	0.0498346531438693	0	1	NaN	69	2	6	2	120	220	320	NaN	520	0.155215724371374	2	1	NaN	1384243.9225021	NaN	1384244.9058759	1384245.42242798
4	19	1	0	90	36.1581920903955	36.241610738255	22	0.733410215936601	2	7	2	NaN	2	3	0.0498346531438693	0	1	NaN	70	2	7	2	120	220	320	NaN	520	0.336152028059587	1	0	NaN	1384246.389409	NaN	1384247.3727915	1384247.88934817
4	19	1	0	90	36.1581920903955	36.241610738255	16	0.533389247953892	2	5	3	NaN	1	4	0.0498346531438693	0	1	NaN	71	2	8	2	120	220	320	NaN	520	0.334211528068408	2	0	NaN	1384249.039552	NaN	1384250.0230667	1384250.53960077
4	19	1	0	90	36.1581920903955	36.241610738255	17	0.56672607595101	2	7	3	NaN	2	4	0.0498346531438693	0	1	NaN	72	2	9	2	120	220	320	NaN	520	0.235603772336617	2	1	NaN	1384251.6899022	NaN	1384252.673299	1384253.18985883
4	19	1	0	90	36.1581920903955	36.241610738255	22	0.733410215936601	2	8	2	NaN	2	4	0.0498346531438693	0	1	NaN	73	2	10	2	120	220	320	NaN	520	0.141629124293104	1	0	NaN	1384254.2401129	NaN	1384255.2235579	1384255.74011178
4	19	1	0	90	36.1581920903955	36.241610738255	24	0.800083871930838	2	9	4	NaN	2	3	0.0498346531438693	0	1	NaN	74	2	11	2	120	220	320	NaN	520	0.0103952281642705	1	0	NaN	1384256.6903049	NaN	1384257.6738017	1384258.19035117
4	19	1	0	90	36.1581920903955	36.241610738255	16	0.533389247953892	2	10	5	NaN	2	5	0.0498346531438693	0	1	NaN	75	2	12	2	120	220	320	NaN	520	0.208336928160861	1	0	NaN	1384259.3573165	NaN	1384260.3407377	1384260.85728677
4	19	1	0	90	36.1581920903955	36.241610738255	8	0.266694623976946	2	5	6	NaN	1	4	0.0498346531438693	0	1	NaN	76	2	13	2	120	220	320	NaN	520	0.203693228308111	1	1	NaN	1384261.8742653	NaN	1384262.8576224	1384263.37419837
4	19	1	0	90	36.1581920903955	36.241610738255	24	0.800083871930838	2	11	2	NaN	2	5	0.0498346531438693	0	1	NaN	77	2	14	2	120	220	320	NaN	520	0.494579924270511	1	0	NaN	1384264.3912658	NaN	1384265.374546	1384265.89110678
4	19	1	0	90	36.1581920903955	36.241610738255	8	0.266694623976946	2	3	3	NaN	1	5	0.0498346531438693	0	1	NaN	78	2	15	2	120	220	320	NaN	520	0.157529396004975	1	1	NaN	1384267.2081395	NaN	1384268.1914905	1384268.7080833
4	19	1	0	90	36.1581920903955	36.241610738255	21	0.700073387939483	2	3	3	NaN	1	3	0.0498346531438693	0	1	NaN	79	2	16	2	120	220	320	NaN	520	0.146590076386929	1	1	NaN	1384269.6750102	NaN	1384270.6584101	1384271.17495622
4	19	1	0	90	36.1581920903955	36.241610738255	18	0.600062903948128	2	6	4	NaN	1	4	0.0498346531438693	0	1	NaN	80	2	17	2	120	220	320	NaN	520	0.135546064237133	1	1	NaN	1384272.141913	NaN	1384273.1253056	1384273.64186224
4	19	1	0	90	36.1581920903955	36.241610738255	22	0.733410215936601	2	3	2	NaN	1	4	0.0498346531438693	0	1	NaN	81	2	18	2	120	220	320	NaN	520	0.0103960281703621	1	1	NaN	1384274.5920134	NaN	1384275.5755545	1384276.09211997
4	19	1	0	90	36.1581920903955	36.241610738255	23	0.766747043933719	2	1	2	NaN	1	5	0.0498346531438693	0	1	NaN	82	2	19	2	120	220	320	NaN	520	0.128322976175696	2	0	NaN	1384276.909074	NaN	1384277.8924305	1384278.40900042
4	19	1	0	90	36.1581920903955	36.241610738255	22	0.733410215936601	2	12	1	NaN	2	5	0.0498346531438693	0	1	NaN	83	2	20	2	120	220	320	NaN	520	0.0544972764328122	1	0	NaN	1384279.3593471	NaN	1384280.3426875	1384280.85924082
4	19	1	0	90	36.1581920903955	36.241610738255	17	0.56672607595101	2	1	1	NaN	1	5	0.0498346531438693	0	1	NaN	84	2	21	2	120	220	320	NaN	520	0.151893828064203	1	1	NaN	1384281.7261844	NaN	1384282.7096161	1384283.22614647
4	19	1	0	90	36.1581920903955	36.241610738255	19	0.633399731945246	2	2	6	NaN	1	5	0.0498346531438693	0	1	NaN	85	2	22	2	120	220	320	NaN	520	0.221590328030288	2	0	NaN	1384284.1764364	NaN	1384285.1598445	1384285.67638947
4	19	1	0	90	36.1581920903955	36.241610738255	23	0.766747043933719	2	2	5	NaN	1	5	0.0498346531438693	0	1	NaN	86	2	23	2	120	220	320	NaN	520	0.127628524322063	1	1	NaN	1384286.7100232	NaN	1384287.6934021	1384288.20997108
4	19	1	0	90	36.1581920903955	36.241610738255	25	0.833420699927956	2	12	5	NaN	2	4	0.0498346531438693	0	1	NaN	87	2	24	2	120	220	320	NaN	520	0.291912728222087	2	1	NaN	1384289.1935894	NaN	1384290.1769847	1384290.69355327
4	19	1	0	90	36.1581920903955	36.241610738255	25	0.833420699927956	2	10	2	NaN	2	3	0.0498346531438693	0	1	NaN	88	2	25	2	120	220	320	NaN	520	0.11580837611109	1	0	NaN	1384291.7938357	NaN	1384292.7772456	1384293.29379562
4	19	1	0	90	36.1581920903955	36.241610738255	25	0.833420699927956	2	5	1	NaN	1	5	0.0498346531438693	0	1	NaN	89	2	26	2	120	220	320	NaN	520	0.186089276336133	2	0	NaN	1384294.227421	NaN	1384295.2107247	1384295.72737182
4	19	1	0	90	36.1581920903955	36.241610738255	25	0.833420699927956	2	4	4	NaN	1	3	0.0498346531438693	0	1	NaN	90	2	27	2	120	220	320	NaN	520	0.101986476220191	1	1	NaN	1384296.7276553	NaN	1384297.7110735	1384298.22761562
4	19	1	0	90	36.1581920903955	36.241610738255	25	0.833420699927956	2	1	6	NaN	1	4	0.0498346531438693	0	1	NaN	91	2	28	2	120	220	320	NaN	520	0.2131893762853	2	0	NaN	1384299.1444458	NaN	1384300.12802	1384300.64452192
4	19	1	0	90	36.1581920903955	36.241610738255	13	0.433378763962537	2	1	3	NaN	1	4	0.0498346531438693	0	1	NaN	92	2	29	2	120	220	320	NaN	520	0.135883928043768	1	1	NaN	1384301.6781674	NaN	1384302.6615463	1384303.17810987
4	19	1	0	90	36.1581920903955	36.241610738255	19	0.633399731945246	2	2	1	NaN	1	3	0.0498346531438693	0	1	NaN	93	2	30	2	120	220	320	NaN	520	0.541272395988926	1	1	NaN	1384304.1283933	NaN	1384305.1117963	1384305.6283615
4	19	1	0	90	36.1581920903955	36.241610738255	0	0	1	12	3	NaN	2	5	0.0498346531438693	0	1	NaN	94	2	31	2	110	210	310	NaN	510	0.114770976360887	2	1	NaN	1384306.9786773	NaN	1384307.9620723	1384308.47862142
4	19	1	0	90	36.1581920903955	36.241610738255	12	0.400041935965419	2	8	4	NaN	2	5	0.0498346531438693	0	1	NaN	95	2	32	2	120	220	320	NaN	520	0.21736357640475	2	1	NaN	1384309.4122548	NaN	1384310.3956513	1384310.91220222
4	19	1	0	90	36.1581920903955	36.241610738255	20	0.666736559942365	2	8	2	NaN	2	3	0.0498346531438693	0	1	NaN	96	2	33	2	120	220	320	NaN	520	0.20381962810643	1	0	NaN	1384311.9458098	NaN	1384312.9292212	1384313.44578437
4	19	1	0	90	36.1581920903955	36.241610738255	15	0.500052419956774	2	12	3	NaN	2	4	0.0498346531438693	0	1	NaN	97	2	34	2	120	220	320	NaN	520	0.383598676417023	2	1	NaN	1384314.4627583	NaN	1384315.4461281	1384315.96269852
4	19	1	0	90	36.1581920903955	36.241610738255	24	0.800083871930838	2	5	4	NaN	1	5	0.0498346531438693	0	1	NaN	98	2	35	2	120	220	320	NaN	520	0.266653228318319	1	1	NaN	1384317.1630185	NaN	1384318.1463943	1384318.66296557
4	19	1	0	90	36.1581920903955	36.241610738255	24	0.800083871930838	2	6	1	NaN	1	5	0.0498346531438693	0	1	NaN	99	2	36	2	120	220	320	NaN	520	0.371186976321042	1	1	NaN	1384319.7466117	NaN	1384320.7301055	1384321.24654302
4	19	1	0	90	36.1581920903955	36.241610738255	22	0.733410215936601	2	11	5	NaN	2	5	0.0498346531438693	0	1	NaN	100	2	37	2	120	220	320	NaN	520	0.431215528165922	2	1	NaN	1384322.4301977	NaN	1384323.413599	1384323.93014907
4	19	1	0	90	36.1581920903955	36.241610738255	6	0.200020967982709	2	4	4	NaN	1	5	0.0498346531438693	0	1	NaN	101	2	38	2	120	220	320	NaN	520	0.29785657627508	1	1	NaN	1384325.1637808	NaN	1384326.1472025	1384326.66374182
4	19	1	0	90	36.1581920903955	36.241610738255	7	0.233357795979828	2	11	6	NaN	2	5	0.0498346531438693	0	1	NaN	102	2	39	2	120	220	320	NaN	520	0.0887425763066858	2	1	NaN	1384327.7807541	NaN	1384328.7641005	1384329.28066622
4	19	1	0	90	36.1581920903955	36.241610738255	11	0.366705107968301	2	12	1	NaN	2	4	0.0498346531438693	0	1	NaN	103	2	40	2	120	220	320	NaN	520	0.128517828183249	1	0	NaN	1384330.1809419	NaN	1384331.1643505	1384331.68091537
4	19	1	0	90	36.1581920903955	36.241610738255	25	0.833420699927956	2	9	2	NaN	2	3	0.0498346531438693	0	1	NaN	104	2	41	2	120	220	320	NaN	520	0.271025328198448	2	1	NaN	1384332.6144066	NaN	1384333.5979135	1384334.11448507
4	19	1	0	90	36.1581920903955	36.241610738255	16	0.533389247953892	2	10	4	NaN	2	3	0.0498346531438693	0	1	NaN	105	2	42	2	120	220	320	NaN	520	0.23947027605027	1	0	NaN	1384335.1981217	NaN	1384336.1815123	1384336.69806042
4	19	1	0	90	36.1581920903955	36.241610738255	24	0.800083871930838	2	2	4	NaN	1	5	0.0498346531438693	0	1	NaN	106	2	43	2	120	220	320	NaN	520	0.521446180297062	1	1	NaN	1384337.7483629	NaN	1384338.7317615	1384339.24831702
4	19	1	0	90	36.1581920903955	36.241610738255	12	0.400041935965419	2	6	5	NaN	1	3	0.0498346531438693	0	1	NaN	107	2	44	2	120	220	320	NaN	520	0.223796372069046	1	1	NaN	1384340.5819865	NaN	1384341.5653804	1384342.08192193
4	19	1	0	90	36.1581920903955	36.241610738255	18	0.600062903948128	2	12	5	NaN	2	3	0.0498346531438693	0	1	NaN	108	2	45	2	120	220	320	NaN	520	0.218580328160897	1	0	NaN	1384343.1155602	NaN	1384344.0989389	1384344.61551857
4	19	1	0	90	36.1581920903955	36.241610738255	22	0.733410215936601	2	6	4	NaN	1	3	0.0498346531438693	0	1	NaN	109	2	46	2	120	220	320	NaN	520	0.21256247209385	1	1	NaN	1384345.6491392	NaN	1384346.632551	1384347.14908923
4	19	1	0	90	36.1581920903955	36.241610738255	25	0.833420699927956	2	3	3	NaN	1	4	0.0498346531438693	0	1	NaN	110	2	47	2	120	220	320	NaN	520	0.183357832254842	1	1	NaN	1384348.1827222	NaN	1384349.1661191	1384349.68267287
4	19	1	0	90	36.1581920903955	36.241610738255	24	0.800083871930838	2	1	4	NaN	1	3	0.0498346531438693	0	1	NaN	111	2	48	2	120	220	320	NaN	520	0.226566176163033	1	1	NaN	1384350.6829703	NaN	1384351.6663663	1384352.18291682
4	19	1	0	90	36.1581920903955	36.241610738255	8	0.266694623976946	2	5	4	NaN	1	3	0.0498346531438693	0	1	NaN	112	2	49	2	120	220	320	NaN	520	0.189210772281513	1	1	NaN	1384353.2165572	NaN	1384354.1999549	1384354.71651663
4	19	1	0	90	36.1581920903955	36.241610738255	0	0	1	7	4	NaN	2	3	0.0498346531438693	0	1	NaN	113	2	50	2	110	210	310	NaN	510	0.22538547613658	2	1	NaN	1384355.716694	NaN	1384356.7001897	1384357.21674322
4	19	1	0	90	36.1581920903955	36.241610738255	17	0.56672607595101	2	2	6	NaN	1	5	0.0498346531438693	0	1	NaN	114	2	51	2	120	220	320	NaN	520	0.251722328364849	2	0	NaN	1384358.2503621	NaN	1384359.233763	1384359.75033587
4	19	1	0	90	36.1581920903955	36.241610738255	11	0.366705107968301	2	8	1	NaN	2	4	0.0498346531438693	0	1	NaN	115	2	52	2	120	220	320	NaN	520	0.260637876112014	2	1	NaN	1384360.8172983	NaN	1384361.8007057	1384362.31724722
4	19	1	0	90	36.1581920903955	36.241610738255	19	0.633399731945246	2	11	2	NaN	2	5	0.0498346531438693	0	1	NaN	116	2	53	2	120	220	320	NaN	520	0.0104009280912578	2	1	NaN	1384363.4008931	NaN	1384364.3842839	1384364.90083447
4	19	1	0	90	36.1581920903955	36.241610738255	11	0.366705107968301	2	2	5	NaN	1	4	0.0498346531438693	0	1	NaN	117	2	54	2	120	220	320	NaN	520	0.336368076270446	1	1	NaN	1384365.7176854	NaN	1384366.7011793	1384367.21773082
4	19	1	0	90	36.1581920903955	36.241610738255	8	0.266694623976946	2	7	3	NaN	2	4	0.0498346531438693	0	1	NaN	118	2	55	2	120	220	320	NaN	520	0.101777428062633	2	1	NaN	1384368.3680384	NaN	1384369.3514437	1384369.86799367
4	19	1	0	90	36.1581920903955	36.241610738255	11	0.366705107968301	2	6	3	NaN	1	3	0.0498346531438693	0	1	NaN	119	2	56	2	120	220	320	NaN	520	0.0103943282738328	1	1	NaN	1384370.7849315	NaN	1384371.7683386	1384372.28490047
4	19	1	0	90	36.1581920903955	36.241610738255	25	0.833420699927956	2	8	6	NaN	2	5	0.0498346531438693	0	1	NaN	120	2	57	2	120	220	320	NaN	520	0.4238261282444	1	0	NaN	1384373.1018712	NaN	1384374.085257	1384374.60181247
4	19	1	0	90	36.1581920903955	36.241610738255	25	0.833420699927956	2	6	4	NaN	1	3	0.0498346531438693	0	1	NaN	121	2	58	2	120	220	320	NaN	520	0.202599944081157	1	1	NaN	1384375.8354554	NaN	1384376.8188285	1384377.33539476
4	19	1	0	90	36.1581920903955	36.241610738255	21	0.700073387939483	2	9	3	NaN	2	5	0.0498346531438693	0	1	NaN	122	2	59	2	120	220	320	NaN	520	0.0291224280372262	2	1	NaN	1384378.3523454	NaN	1384379.3357658	1384379.85231517
4	19	1	0	90	36.1581920903955	36.241610738255	12	0.400041935965419	2	8	5	NaN	2	3	0.0498346531438693	0	1	NaN	123	2	60	2	120	220	320	NaN	520	0.33572692819871	2	1	NaN	1384380.6859078	NaN	1384381.6693088	1384382.18587837
4	19	1	0	90	36.1581920903955	36.241610738255	19	0.633399731945246	2	1	5	NaN	1	4	0.0498346531438693	0	1	NaN	124	2	61	2	120	220	320	NaN	520	0.341994672315195	2	0	NaN	1384383.3362308	NaN	1384384.3195795	1384384.83612433
4	19	1	0	90	36.1581920903955	36.241610738255	0	0	1	8	1	NaN	2	3	0.0498346531438693	0	1	NaN	125	2	62	2	110	210	310	NaN	510	0.650597995845601	2	1	NaN	1384386.0031019	NaN	1384386.9865112	1384387.5030687
4	19	1	0	90	36.1581920903955	36.241610738255	24	0.800083871930838	2	5	2	NaN	1	3	0.0498346531438693	0	1	NaN	126	2	63	2	120	220	320	NaN	520	0.0103927282616496	1	1	NaN	1384388.9700566	NaN	1384389.9535289	1384390.47002497
4	19	1	0	90	36.1581920903955	36.241610738255	15	0.500052419956774	2	10	2	NaN	2	5	0.0498346531438693	0	1	NaN	127	3	1	2	120	220	320	NaN	520	4.65694462810643	1	0	NaN	1384435.3412963	NaN	1384436.324719	1384436.84123407
4	19	1	0	90	36.1581920903955	36.241610738255	16	0.533389247953892	2	12	5	NaN	2	5	0.0498346531438693	0	1	NaN	128	3	2	2	120	220	320	NaN	520	0.569223076337948	2	1	NaN	1384442.3086418	NaN	1384443.2920364	1384443.80859172
4	19	1	0	90	36.1581920903955	36.241610738255	12	0.400041935965419	2	5	1	NaN	1	4	0.0498346531438693	0	1	NaN	129	3	3	2	120	220	320	NaN	520	0.293969644000754	2	0	NaN	1384445.1922496	NaN	1384446.175632	1384446.69220656
4	19	1	0	90	36.1581920903955	36.241610738255	11	0.366705107968301	2	10	4	NaN	2	4	0.0498346531438693	0	1	NaN	130	3	4	2	120	220	320	NaN	520	0.237367376219481	2	1	NaN	1384447.792524	NaN	1384448.7758946	1384449.29246452
4	19	1	0	90	36.1581920903955	36.241610738255	21	0.700073387939483	2	10	1	NaN	2	5	0.0498346531438693	0	1	NaN	131	3	5	2	120	220	320	NaN	520	0.278995428234339	2	1	NaN	1384450.3427814	NaN	1384451.3261582	1384451.84271517
4	19	1	0	90	36.1581920903955	36.241610738255	14	0.466715591959655	2	3	1	NaN	1	4	0.0498346531438693	0	1	NaN	132	3	6	2	120	220	320	NaN	520	0.254835376283154	1	1	NaN	1384452.9430459	NaN	1384453.9264125	1384454.44296522
4	19	1	0	90	36.1581920903955	36.241610738255	8	0.266694623976946	2	2	5	NaN	1	3	0.0498346531438693	0	1	NaN	133	3	7	2	120	220	320	NaN	520	0.351961172185838	2	0	NaN	1384455.5099362	NaN	1384456.4933482	1384457.00988333
4	19	1	0	90	36.1581920903955	36.241610738255	24	0.800083871930838	2	12	3	NaN	2	5	0.0498346531438693	0	1	NaN	134	3	8	2	120	220	320	NaN	520	0.213408576324582	2	1	NaN	1384458.1768728	NaN	1384459.1603405	1384459.67681262
4	19	1	0	90	36.1581920903955	36.241610738255	21	0.700073387939483	2	1	6	NaN	1	4	0.0498346531438693	0	1	NaN	135	3	9	2	120	220	320	NaN	520	0.311679528327659	2	0	NaN	1384460.7104516	NaN	1384461.6938546	1384462.21042117
4	19	1	0	90	36.1581920903955	36.241610738255	14	0.466715591959655	2	7	5	NaN	2	4	0.0498346531438693	0	1	NaN	136	3	10	2	120	220	320	NaN	520	0.214537328109145	1	0	NaN	1384463.3273725	NaN	1384464.310773	1384464.82732877
4	19	1	0	90	36.1581920903955	36.241610738255	7	0.233357795979828	2	2	3	NaN	1	4	0.0498346531438693	0	1	NaN	137	3	11	2	120	220	320	NaN	520	0.249104128219187	1	1	NaN	1384465.8609566	NaN	1384466.8443442	1384467.36091007
4	19	1	0	90	36.1581920903955	36.241610738255	20	0.666736559942365	2	5	3	NaN	1	5	0.0498346531438693	0	1	NaN	138	3	12	2	120	220	320	NaN	520	0.354281228035688	1	1	NaN	1384468.4278638	NaN	1384469.4112671	1384469.92784477
4	19	1	0	90	36.1581920903955	36.241610738255	8	0.266694623976946	2	1	2	NaN	1	4	0.0498346531438693	0	1	NaN	139	3	13	2	120	220	320	NaN	520	0.223217128077522	1	1	NaN	1384471.0948078	NaN	1384472.0782062	1384472.59475707
4	19	1	0	90	36.1581920903955	36.241610738255	8	0.266694623976946	2	10	5	NaN	2	4	0.0498346531438693	0	1	NaN	140	3	14	2	120	220	320	NaN	520	0.249537176219746	1	0	NaN	1384473.6282429	NaN	1384474.6117744	1384475.12832892
4	19	1	0	90	36.1581920903955	36.241610738255	6	0.200020967982709	2	1	4	NaN	1	5	0.0498346531438693	0	1	NaN	141	3	15	2	120	220	320	NaN	520	0.218609600095078	2	0	NaN	1384476.1953114	NaN	1384477.1787009	1384477.6952834
4	19	1	0	90	36.1581920903955	36.241610738255	19	0.633399731945246	2	1	6	NaN	1	5	0.0498346531438693	0	1	NaN	142	3	16	2	120	220	320	NaN	520	0.308976276312023	1	1	NaN	1384478.7288778	NaN	1384479.7122878	1384480.22883302
4	19	1	0	90	36.1581920903955	36.241610738255	6	0.200020967982709	2	10	6	NaN	2	4	0.0498346531438693	0	1	NaN	143	3	17	2	120	220	320	NaN	520	0.252178728114814	2	1	NaN	1384481.3458032	NaN	1384482.3292065	1384482.84575887
4	19	1	0	90	36.1581920903955	36.241610738255	14	0.466715591959655	2	4	1	NaN	1	5	0.0498346531438693	0	1	NaN	144	3	18	2	120	220	320	NaN	520	0.221486928174272	2	0	NaN	1384483.9126373	NaN	1384484.8961262	1384485.41268437
4	19	1	0	90	36.1581920903955	36.241610738255	23	0.766747043933719	2	11	6	NaN	2	5	0.0498346531438693	0	1	NaN	145	3	19	2	120	220	320	NaN	520	0.199996328214183	1	0	NaN	1384486.4461874	NaN	1384487.429692	1384487.94626417
4	19	1	0	90	36.1581920903955	36.241610738255	13	0.433378763962537	2	12	6	NaN	2	4	0.0498346531438693	0	1	NaN	146	3	20	2	120	220	320	NaN	520	0.251772476360202	2	1	NaN	1384488.9465478	NaN	1384489.92998	1384490.44650322
4	19	1	0	90	36.1581920903955	36.241610738255	22	0.733410215936601	2	9	1	NaN	2	4	0.0498346531438693	0	1	NaN	147	3	21	2	120	220	320	NaN	520	0.188434672309086	2	1	NaN	1384491.5134834	NaN	1384492.496853	1384493.01342283
4	19	1	0	90	36.1581920903955	36.241610738255	0	0	1	5	5	NaN	1	5	0.0498346531438693	0	1	NaN	148	3	22	2	110	210	310	NaN	510	0.0104038761928678	1	1	NaN	1384494.0137242	NaN	1384494.9972285	1384495.51366502
4	19	1	0	90	36.1581920903955	36.241610738255	22	0.733410215936601	2	6	6	NaN	1	4	0.0498346531438693	0	1	NaN	149	3	23	2	120	220	320	NaN	520	0.29075897205621	1	1	NaN	1384496.347285	NaN	1384497.3306803	1384497.84722483
4	19	1	0	90	36.1581920903955	36.241610738255	8	0.266694623976946	2	3	3	NaN	1	4	0.0498346531438693	0	1	NaN	150	3	24	2	120	220	320	NaN	520	0.282415728084743	2	0	NaN	1384498.9475339	NaN	1384499.9309312	1384500.44749537
4	19	1	0	90	36.1581920903955	36.241610738255	22	0.733410215936601	2	5	2	NaN	1	5	0.0498346531438693	0	1	NaN	151	3	25	2	120	220	320	NaN	520	0.0104005283210427	1	1	NaN	1384501.5478207	NaN	1384502.5311987	1384503.04774937
4	19	1	0	90	36.1581920903955	36.241610738255	21	0.700073387939483	2	12	4	NaN	2	5	0.0498346531438693	0	1	NaN	152	3	26	2	120	220	320	NaN	520	0.333269928116351	1	0	NaN	1384503.864691	NaN	1384504.8480911	1384505.36464597
4	19	1	0	90	36.1581920903955	36.241610738255	18	0.600062903948128	2	8	1	NaN	2	4	0.0498346531438693	0	1	NaN	153	3	27	2	120	220	320	NaN	520	0.0103937282692641	1	0	NaN	1384506.5149559	NaN	1384507.4983951	1384508.01490047
4	19	1	0	90	36.1581920903955	36.241610738255	17	0.56672607595101	2	4	5	NaN	1	4	0.0498346531438693	0	1	NaN	154	3	28	2	120	220	320	NaN	520	0.0372887400444597	2	0	NaN	1384508.8485119	NaN	1384509.8318877	1384510.34846386
4	19	1	0	90	36.1581920903955	36.241610738255	6	0.200020967982709	2	9	2	NaN	2	5	0.0498346531438693	0	1	NaN	155	3	29	2	120	220	320	NaN	520	0.0793539800215513	1	0	NaN	1384511.1986042	NaN	1384512.1821182	1384512.69868782
4	19	1	0	90	36.1581920903955	36.241610738255	10	0.333368279971182	2	1	6	NaN	1	4	0.0498346531438693	0	1	NaN	156	3	30	2	120	220	320	NaN	520	0.119384000077844	2	0	NaN	1384513.5989783	NaN	1384514.5823916	1384515.0989257
4	19	1	0	90	36.1581920903955	36.241610738255	11	0.366705107968301	2	12	6	NaN	2	5	0.0498346531438693	0	1	NaN	157	3	31	2	120	220	320	NaN	520	0.161321176216006	2	1	NaN	1384516.132555	NaN	1384517.1159427	1384517.63250282
4	19	1	0	90	36.1581920903955	36.241610738255	7	0.233357795979828	2	6	2	NaN	1	5	0.0498346531438693	0	1	NaN	158	3	32	2	120	220	320	NaN	520	0.230440728133544	1	1	NaN	1384518.5994653	NaN	1384519.5828552	1384520.09942427
4	19	1	0	90	36.1581920903955	36.241610738255	18	0.600062903948128	2	11	3	NaN	2	4	0.0498346531438693	0	1	NaN	159	3	33	2	120	220	320	NaN	520	0.184855728177354	1	0	NaN	1384521.1330396	NaN	1384522.116345	1384522.63300747
4	19	1	0	90	36.1581920903955	36.241610738255	6	0.200020967982709	2	6	5	NaN	1	4	0.0498346531438693	0	1	NaN	160	3	34	2	120	220	320	NaN	520	0.2450620920863	1	1	NaN	1384523.6333059	NaN	1384524.6167114	1384525.13324841
4	19	1	0	90	36.1581920903955	36.241610738255	0	0	1	6	5	NaN	1	3	0.0498346531438693	0	1	NaN	161	3	35	2	110	210	310	NaN	510	0.342399528017268	1	1	NaN	1384526.5836703	NaN	1384527.566966	1384528.08354297
4	19	1	0	90	36.1581920903955	36.241610738255	18	0.600062903948128	2	2	6	NaN	1	4	0.0498346531438693	0	1	NaN	162	3	36	2	120	220	320	NaN	520	0.01027094386518	2	0	NaN	1384529.2337088	NaN	1384530.2172392	1384530.73380556
4	19	1	0	90	36.1581920903955	36.241610738255	16	0.533389247953892	2	4	5	NaN	1	4	0.0498346531438693	0	1	NaN	163	3	37	2	120	220	320	NaN	520	0.0103871279861778	2	0	NaN	1384531.5674191	NaN	1384532.5507969	1384533.06735987
4	19	1	0	90	36.1581920903955	36.241610738255	20	0.666736559942365	2	2	1	NaN	1	3	0.0498346531438693	0	1	NaN	164	3	38	2	120	220	320	NaN	520	0.0417755281087011	1	1	NaN	1384533.8843113	NaN	1384534.8676816	1384535.38426087
4	19	1	0	90	36.1581920903955	36.241610738255	9	0.300031451974064	2	6	6	NaN	1	3	0.0498346531438693	0	1	NaN	165	3	39	2	120	220	320	NaN	520	0.0105005281511694	1	1	NaN	1384536.234536	NaN	1384537.2179367	1384537.73448517
4	19	1	0	90	36.1581920903955	36.241610738255	14	0.466715591959655	2	9	6	NaN	2	4	0.0498346531438693	0	1	NaN	166	3	40	2	120	220	320	NaN	520	0.277965176152065	2	1	NaN	1384538.5681031	NaN	1384539.5514897	1384540.06804782
4	19	1	0	90	36.1581920903955	36.241610738255	0	0	1	10	3	NaN	2	3	0.0498346531438693	0	1	NaN	167	3	41	2	110	210	310	NaN	510	0.158004528144374	2	1	NaN	1384541.1683525	NaN	1384542.1517363	1384542.66830437
4	19	1	0	90	36.1581920903955	36.241610738255	15	0.500052419956774	2	12	2	NaN	2	4	0.0498346531438693	0	1	NaN	168	3	42	2	120	220	320	NaN	520	0.274663928197697	2	1	NaN	1384543.6352622	NaN	1384544.6186544	1384545.13521697
4	19	1	0	90	36.1581920903955	36.241610738255	18	0.600062903948128	2	7	6	NaN	2	4	0.0498346531438693	0	1	NaN	169	3	43	2	120	220	320	NaN	520	0.467141128145158	2	1	NaN	1384546.2188633	NaN	1384547.2022536	1384547.71879867
4	19	1	0	90	36.1581920903955	36.241610738255	23	0.766747043933719	2	5	5	NaN	1	4	0.0498346531438693	0	1	NaN	170	3	44	2	120	220	320	NaN	520	0.195603728061542	1	1	NaN	1384549.002473	NaN	1384549.9858871	1384550.50241287
4	19	1	0	90	36.1581920903955	36.241610738255	21	0.700073387939483	2	2	3	NaN	1	4	0.0498346531438693	0	1	NaN	171	3	45	2	120	220	320	NaN	520	0.25585497636348	2	0	NaN	1384551.5027059	NaN	1384552.4861116	1384553.00264982
4	19	1	0	90	36.1581920903955	36.241610738255	12	0.400041935965419	2	6	4	NaN	1	3	0.0498346531438693	0	1	NaN	172	3	46	2	120	220	320	NaN	520	0.240913964342326	2	0	NaN	1384554.0696214	NaN	1384555.0530096	1384555.56956724
4	19	1	0	90	36.1581920903955	36.241610738255	23	0.766747043933719	2	6	2	NaN	1	3	0.0498346531438693	0	1	NaN	173	3	47	2	120	220	320	NaN	520	0.138597048120573	2	0	NaN	1384556.6198773	NaN	1384557.6033322	1384558.11982945
4	19	1	0	90	36.1581920903955	36.241610738255	21	0.700073387939483	2	3	2	NaN	1	5	0.0498346531438693	0	1	NaN	174	3	48	2	120	220	320	NaN	520	0.240007528103888	2	0	NaN	1384559.0701023	NaN	1384560.0535123	1384560.57006577
4	19	1	0	90	36.1581920903955	36.241610738255	20	0.666736559942365	2	3	3	NaN	1	3	0.0498346531438693	0	1	NaN	175	3	49	2	120	220	320	NaN	520	0.31355182826519	1	1	NaN	1384561.6203468	NaN	1384562.6037693	1384563.12031657
4	19	1	0	90	36.1581920903955	36.241610738255	10	0.333368279971182	2	11	4	NaN	2	5	0.0498346531438693	0	1	NaN	176	3	50	2	120	220	320	NaN	520	0.280420080060139	2	1	NaN	1384564.2539601	NaN	1384565.2373606	1384565.75390442
4	19	1	0	90	36.1581920903955	36.241610738255	24	0.800083871930838	2	10	1	NaN	2	3	0.0498346531438693	0	1	NaN	177	3	51	2	120	220	320	NaN	520	0.43241103226319	2	1	NaN	1384566.8375478	NaN	1384567.820922	1384568.33749027
4	19	1	0	90	36.1581920903955	36.241610738255	8	0.266694623976946	2	8	2	NaN	2	3	0.0498346531438693	0	1	NaN	178	3	52	2	120	220	320	NaN	520	0.0104091761168092	1	0	NaN	1384569.5877854	NaN	1384570.5712045	1384571.08776182
4	19	1	0	90	36.1581920903955	36.241610738255	17	0.56672607595101	2	6	6	NaN	1	3	0.0498346531438693	0	1	NaN	179	3	53	2	120	220	320	NaN	520	0.181328228209168	1	1	NaN	1384571.9045523	NaN	1384572.8881451	1384573.40466077
4	19	1	0	90	36.1581920903955	36.241610738255	9	0.300031451974064	2	10	3	NaN	2	4	0.0498346531438693	0	1	NaN	180	3	54	2	120	220	320	NaN	520	0.129276776220649	2	1	NaN	1384574.4049511	NaN	1384575.3883598	1384575.90490322
4	19	1	0	90	36.1581920903955	36.241610738255	8	0.266694623976946	2	9	1	NaN	2	5	0.0498346531438693	0	1	NaN	181	3	55	2	120	220	320	NaN	520	0.11882082815282	1	0	NaN	1384576.8552029	NaN	1384577.838594	1384578.35514527
4	19	1	0	90	36.1581920903955	36.241610738255	17	0.56672607595101	2	5	4	NaN	1	5	0.0498346531438693	0	1	NaN	182	3	56	2	120	220	320	NaN	520	0.149324640166014	1	1	NaN	1384579.2887172	NaN	1384580.2720632	1384580.78871076
4	19	1	0	90	36.1581920903955	36.241610738255	12	0.400041935965419	2	3	1	NaN	1	3	0.0498346531438693	0	1	NaN	183	3	57	2	120	220	320	NaN	520	0.0832466762512922	1	1	NaN	1384581.7390093	NaN	1384582.7223982	1384583.23894712
4	19	1	0	90	36.1581920903955	36.241610738255	18	0.600062903948128	2	10	3	NaN	2	5	0.0498346531438693	0	1	NaN	184	3	58	2	120	220	320	NaN	520	0.186587976291776	1	0	NaN	1384584.139245	NaN	1384585.1226288	1384585.63919132
4	19	1	0	90	36.1581920903955	36.241610738255	17	0.56672607595101	2	11	6	NaN	2	5	0.0498346531438693	0	1	NaN	185	3	59	2	120	220	320	NaN	520	0.230895280139521	1	0	NaN	1384586.6394836	NaN	1384587.6228876	1384588.13944102
4	19	1	0	90	36.1581920903955	36.241610738255	11	0.366705107968301	2	1	6	NaN	1	3	0.0498346531438693	0	1	NaN	186	3	60	2	120	220	320	NaN	520	0.0104105761274695	2	0	NaN	1384589.1897386	NaN	1384590.1731741	1384590.68968872
4	19	1	0	90	36.1581920903955	36.241610738255	19	0.633399731945246	2	6	4	NaN	1	3	0.0498346531438693	0	1	NaN	187	3	61	2	120	220	320	NaN	520	0.0754165763501078	1	1	NaN	1384591.5066234	NaN	1384592.4900286	1384593.00657602
4	19	1	0	90	36.1581920903955	36.241610738255	18	0.600062903948128	2	3	6	NaN	1	3	0.0498346531438693	0	1	NaN	188	3	62	2	120	220	320	NaN	520	0.059888276271522	2	0	NaN	1384593.8902024	NaN	1384594.8735891	1384595.39014612
4	19	1	0	90	36.1581920903955	36.241610738255	16	0.533389247953892	2	6	2	NaN	1	3	0.0498346531438693	0	1	NaN	189	3	63	2	120	220	320	NaN	520	0.141060780268162	1	1	NaN	1384596.2569734	NaN	1384597.2404564	1384597.75705512
4	19	1	0	90	36.1581920903955	36.241610738255	6	0.200020967982709	2	2	2	NaN	1	5	0.0498346531438693	0	1	NaN	190	4	1	2	120	220	320	NaN	520	0.201996328076348	1	1	NaN	1384665.9806005	NaN	1384666.9640272	1384667.48055977
4	19	1	0	90	36.1581920903955	36.241610738255	0	0	1	9	3	NaN	2	5	0.0498346531438693	0	1	NaN	191	4	2	2	110	210	310	NaN	510	0.0104365241713822	1	0	NaN	1384668.9142033	NaN	1384669.8976261	1384670.41418248
4	19	1	0	90	36.1581920903955	36.241610738255	19	0.633399731945246	2	5	4	NaN	1	4	0.0498346531438693	0	1	NaN	192	4	3	2	120	220	320	NaN	520	0.174991176230833	1	1	NaN	1384671.2311451	NaN	1384672.2145152	1384672.73107182
4	19	1	0	90	36.1581920903955	36.241610738255	16	0.533389247953892	2	7	1	NaN	2	5	0.0498346531438693	0	1	NaN	193	4	4	2	120	220	320	NaN	520	0.227494076127186	1	0	NaN	1384673.7147154	NaN	1384674.6982194	1384675.21466482
4	19	1	0	90	36.1581920903955	36.241610738255	13	0.433378763962537	2	8	4	NaN	2	4	0.0498346531438693	0	1	NaN	194	4	5	2	120	220	320	NaN	520	0.0940310282167047	2	1	NaN	1384676.2482879	NaN	1384677.2316596	1384677.74824027
4	19	1	0	90	36.1581920903955	36.241610738255	24	0.800083871930838	2	1	5	NaN	1	3	0.0498346531438693	0	1	NaN	195	4	6	2	120	220	320	NaN	520	0.165973024442792	1	1	NaN	1384678.6483987	NaN	1384679.6319341	1384680.14847488
4	19	1	0	90	36.1581920903955	36.241610738255	14	0.466715591959655	2	7	6	NaN	2	5	0.0498346531438693	0	1	NaN	196	4	7	2	120	220	320	NaN	520	0.137839128030464	1	0	NaN	1384681.1321156	NaN	1384682.1154931	1384682.63205367
4	19	1	0	90	36.1581920903955	36.241610738255	13	0.433378763962537	2	11	1	NaN	2	5	0.0498346531438693	0	1	NaN	197	4	8	2	120	220	320	NaN	520	0.263857224257663	2	1	NaN	1384683.5823377	NaN	1384684.5657224	1384685.08228948
4	19	1	0	90	36.1581920903955	36.241610738255	6	0.200020967982709	2	11	6	NaN	2	5	0.0498346531438693	0	1	NaN	198	4	9	2	120	220	320	NaN	520	0.224713976262137	2	1	NaN	1384686.1659447	NaN	1384687.1493909	1384687.66587182
4	19	1	0	90	36.1581920903955	36.241610738255	23	0.766747043933719	2	5	4	NaN	1	5	0.0498346531438693	0	1	NaN	199	4	10	2	120	220	320	NaN	520	0.194729428272694	1	1	NaN	1384688.6995202	NaN	1384689.6829313	1384690.19946607
4	19	1	0	90	36.1581920903955	36.241610738255	17	0.56672607595101	2	9	2	NaN	2	4	0.0498346531438693	0	1	NaN	200	4	11	2	120	220	320	NaN	520	0.0104054762050509	2	1	NaN	1384691.2164379	NaN	1384692.1998162	1384692.71636842
4	19	1	0	90	36.1581920903955	36.241610738255	14	0.466715591959655	2	10	6	NaN	2	4	0.0498346531438693	0	1	NaN	201	4	12	2	120	220	320	NaN	520	0.384915428236127	2	1	NaN	1384693.5333256	NaN	1384694.5167054	1384695.03327317
4	19	1	0	90	36.1581920903955	36.241610738255	10	0.333368279971182	2	6	3	NaN	1	5	0.0498346531438693	0	1	NaN	202	4	13	2	120	220	320	NaN	520	0.396597628248855	1	1	NaN	1384696.2334548	NaN	1384697.2169873	1384697.73353697
4	19	1	0	90	36.1581920903955	36.241610738255	7	0.233357795979828	2	1	3	NaN	1	4	0.0498346531438693	0	1	NaN	203	4	14	2	120	220	320	NaN	520	0.157272728160024	1	1	NaN	1384699.4171261	NaN	1384700.4006357	1384700.91718647
4	19	1	0	90	36.1581920903955	36.241610738255	20	0.666736559942365	2	1	1	NaN	1	5	0.0498346531438693	0	1	NaN	204	4	15	2	120	220	320	NaN	520	0.242033740039915	1	1	NaN	1384701.8841274	NaN	1384702.8675332	1384703.38409506
4	19	1	0	90	36.1581920903955	36.241610738255	8	0.266694623976946	2	12	5	NaN	2	4	0.0498346531438693	0	1	NaN	205	4	16	2	120	220	320	NaN	520	0.163966728141531	1	0	NaN	1384704.4343966	NaN	1384705.417779	1384705.93434597
4	19	1	0	90	36.1581920903955	36.241610738255	19	0.633399731945246	2	3	1	NaN	1	3	0.0498346531438693	0	1	NaN	206	4	17	2	120	220	320	NaN	520	0.264981628395617	1	1	NaN	1384706.9013085	NaN	1384707.8846796	1384708.40125117
4	19	1	0	90	36.1581920903955	36.241610738255	23	0.766747043933719	2	8	4	NaN	2	4	0.0498346531438693	0	1	NaN	207	4	18	2	120	220	320	NaN	520	0.0894824762362987	2	1	NaN	1384709.4849005	NaN	1384710.4682784	1384710.98483202
4	19	1	0	90	36.1581920903955	36.241610738255	0	0	1	1	6	NaN	1	3	0.0498346531438693	0	1	NaN	208	4	19	2	110	210	310	NaN	510	0.0574743242468685	0	0	NaN	1384711.8852114	NaN	1384712.8685144	1384713.38507148
4	19	1	0	90	36.1581920903955	36.241610738255	9	0.300031451974064	2	6	3	NaN	1	3	0.0498346531438693	0	1	NaN	209	4	20	2	120	220	320	NaN	520	0.226093476405367	1	1	NaN	1384714.252021	NaN	1384715.2354189	1384715.75196692
4	19	1	0	90	36.1581920903955	36.241610738255	22	0.733410215936601	2	10	1	NaN	2	5	0.0498346531438693	0	1	NaN	210	4	21	2	120	220	320	NaN	520	0.0847548921592534	2	1	NaN	1384716.7855013	NaN	1384717.7690001	1384718.28557591
4	19	1	0	90	36.1581920903955	36.241610738255	8	0.266694623976946	2	4	2	NaN	1	5	0.0498346531438693	0	1	NaN	211	4	22	2	120	220	320	NaN	520	0.132488228147849	1	1	NaN	1384719.1858341	NaN	1384720.1692449	1384720.68578347
4	19	1	0	90	36.1581920903955	36.241610738255	16	0.533389247953892	2	11	6	NaN	2	5	0.0498346531438693	0	1	NaN	212	4	23	2	120	220	320	NaN	520	0.0941345281898975	1	0	NaN	1384721.9359749	NaN	1384722.9195376	1384723.43606077
4	19	1	0	90	36.1581920903955	36.241610738255	16	0.533389247953892	2	8	5	NaN	2	5	0.0498346531438693	0	1	NaN	213	4	24	2	120	220	320	NaN	520	0.0378545243293047	1	0	NaN	1384724.3363382	NaN	1384725.3197333	1384725.83629218
4	19	1	0	90	36.1581920903955	36.241610738255	20	0.666736559942365	2	10	4	NaN	2	3	0.0498346531438693	0	1	NaN	214	4	25	2	120	220	320	NaN	520	0.0103896281216294	2	1	NaN	1384726.6866056	NaN	1384727.6699736	1384728.18652697
4	19	1	0	90	36.1581920903955	36.241610738255	25	0.833420699927956	2	7	1	NaN	2	5	0.0498346531438693	0	1	NaN	215	4	26	2	120	220	320	NaN	520	0.0260475762188435	1	0	NaN	1384729.0201377	NaN	1384730.0035349	1384730.52008502
4	19	1	0	90	36.1581920903955	36.241610738255	19	0.633399731945246	2	7	2	NaN	2	4	0.0498346531438693	0	1	NaN	216	4	27	2	120	220	320	NaN	520	0.0926022762432694	1	0	NaN	1384731.3537202	NaN	1384732.337124	1384732.85364712
4	19	1	0	90	36.1581920903955	36.241610738255	9	0.300031451974064	2	8	4	NaN	2	4	0.0498346531438693	0	1	NaN	217	4	28	2	120	220	320	NaN	520	0.348417984088883	2	1	NaN	1384733.7539296	NaN	1384734.7373257	1384735.25388582
4	19	1	0	90	36.1581920903955	36.241610738255	0	0	1	4	1	NaN	1	5	0.0498346531438693	0	1	NaN	218	4	29	2	110	210	310	NaN	510	0.378067528130487	1	1	NaN	1384736.8039273	NaN	1384737.7876521	1384738.30418477
4	19	1	0	90	36.1581920903955	36.241610738255	9	0.300031451974064	2	7	2	NaN	2	3	0.0498346531438693	0	1	NaN	219	4	30	2	120	220	320	NaN	520	0.0104084764607251	1	0	NaN	1384739.8711719	NaN	1384740.8545871	1384741.37114672
4	19	1	0	90	36.1581920903955	36.241610738255	0	0	1	12	1	NaN	2	5	0.0498346531438693	0	1	NaN	220	4	31	2	110	210	310	NaN	510	0.314100332325324	2	1	NaN	1384742.1881107	NaN	1384743.1714825	1384743.68804367
4	19	1	0	90	36.1581920903955	36.241610738255	6	0.200020967982709	2	3	6	NaN	1	3	0.0498346531438693	0	1	NaN	221	4	32	2	120	220	320	NaN	520	0.0646057762205601	2	0	NaN	1384744.8216889	NaN	1384745.8051456	1384746.32163642
4	19	1	0	90	36.1581920903955	36.241610738255	14	0.466715591959655	2	3	4	NaN	1	5	0.0498346531438693	0	1	NaN	222	4	33	2	120	220	320	NaN	520	0.233431676169857	2	0	NaN	1384747.2052463	NaN	1384748.1886492	1384748.70520082
4	19	1	0	90	36.1581920903955	36.241610738255	21	0.700073387939483	2	10	2	NaN	2	5	0.0498346531438693	0	1	NaN	223	4	34	2	120	220	320	NaN	520	0.0104294281918555	1	0	NaN	1384749.7555075	NaN	1384750.7388899	1384751.25546477
4	19	1	0	90	36.1581920903955	36.241610738255	23	0.766747043933719	2	3	4	NaN	1	3	0.0498346531438693	0	1	NaN	224	4	35	2	120	220	320	NaN	520	0.0938296283129603	2	0	NaN	1384752.0724939	NaN	1384753.0558129	1384753.57235447
4	19	1	0	90	36.1581920903955	36.241610738255	9	0.300031451974064	2	4	6	NaN	1	4	0.0498346531438693	0	1	NaN	225	4	36	2	120	220	320	NaN	520	0.237819576403126	1	1	NaN	1384754.4726735	NaN	1384755.456045	1384755.97258862
4	19	1	0	90	36.1581920903955	36.241610738255	20	0.666736559942365	2	9	1	NaN	2	5	0.0498346531438693	0	1	NaN	226	4	37	2	120	220	320	NaN	520	0.127390336012468	2	1	NaN	1384757.0228751	NaN	1384758.0062948	1384758.52284516
4	19	1	0	90	36.1581920903955	36.241610738255	15	0.500052419956774	2	5	1	NaN	1	4	0.0498346531438693	0	1	NaN	227	4	38	2	120	220	320	NaN	520	0.0103920281399041	1	1	NaN	1384759.806495	NaN	1384760.7899002	1384761.30645157
4	19	1	0	90	36.1581920903955	36.241610738255	12	0.400041935965419	2	4	6	NaN	1	4	0.0498346531438693	0	1	NaN	228	4	39	2	120	220	320	NaN	520	0.11407972802408	1	1	NaN	1384762.1400673	NaN	1384763.1234598	1384763.64001107
4	19	1	0	90	36.1581920903955	36.241610738255	14	0.466715591959655	2	10	3	NaN	2	5	0.0498346531438693	0	1	NaN	229	4	40	2	120	220	320	NaN	520	0.0104099763557315	1	0	NaN	1384764.5569659	NaN	1384765.5403634	1384766.05690812
4	19	1	0	90	36.1581920903955	36.241610738255	15	0.500052419956774	2	2	1	NaN	1	5	0.0498346531438693	0	1	NaN	230	4	41	2	120	220	320	NaN	520	0.134153328137472	1	1	NaN	1384767.2406074	NaN	1384768.2239687	1384768.74051527
4	19	1	0	90	36.1581920903955	36.241610738255	18	0.600062903948128	2	9	6	NaN	2	4	0.0498346531438693	0	1	NaN	231	4	42	2	120	220	320	NaN	520	0.0104121761396527	1	0	NaN	1384769.6908299	NaN	1384770.6742073	1384771.19075082
4	19	1	0	90	36.1581920903955	36.241610738255	9	0.300031451974064	2	12	6	NaN	2	5	0.0498346531438693	0	1	NaN	232	4	43	2	120	220	320	NaN	520	0.0103933280333877	1	0	NaN	1384772.0077052	NaN	1384772.9910817	1384773.50764067
4	19	1	0	90	36.1581920903955	36.241610738255	19	0.633399731945246	2	12	1	NaN	2	5	0.0498346531438693	0	1	NaN	233	4	44	2	120	220	320	NaN	520	0.113719476386905	2	1	NaN	1384774.3245841	NaN	1384775.3079958	1384775.82453622
4	19	1	0	90	36.1581920903955	36.241610738255	25	0.833420699927956	2	5	6	NaN	1	4	0.0498346531438693	0	1	NaN	234	4	45	2	120	220	320	NaN	520	0.208135728025809	1	1	NaN	1384776.7580352	NaN	1384777.7415574	1384778.25810757
4	19	1	0	90	36.1581920903955	36.241610738255	11	0.366705107968301	2	9	4	NaN	2	5	0.0498346531438693	0	1	NaN	235	4	46	2	120	220	320	NaN	520	0.179633576190099	1	0	NaN	1384779.2749275	NaN	1384780.2585131	1384780.77502552
4	19	1	0	90	36.1581920903955	36.241610738255	17	0.56672607595101	2	4	1	NaN	1	5	0.0498346531438693	0	1	NaN	236	4	47	2	120	220	320	NaN	520	0.0950508641544729	1	1	NaN	1384781.7753215	NaN	1384782.7587272	1384783.27526674
4	19	1	0	90	36.1581920903955	36.241610738255	13	0.433378763962537	2	2	1	NaN	1	5	0.0498346531438693	0	1	NaN	237	4	48	2	120	220	320	NaN	520	0.010392728028819	2	0	NaN	1384784.39225	NaN	1384785.3756424	1384785.89219657
4	19	1	0	90	36.1581920903955	36.241610738255	7	0.233357795979828	2	10	5	NaN	2	3	0.0498346531438693	0	1	NaN	238	4	49	2	120	220	320	NaN	520	0.0104110762476921	2	1	NaN	1384786.7091481	NaN	1384787.6925221	1384788.20908232
4	19	1	0	90	36.1581920903955	36.241610738255	14	0.466715591959655	2	5	2	NaN	1	3	0.0498346531438693	0	1	NaN	239	4	50	2	120	220	320	NaN	520	0.0516915281768888	1	1	NaN	1384789.0427505	NaN	1384790.0260142	1384790.54265657
4	19	1	0	90	36.1581920903955	36.241610738255	25	0.833420699927956	2	12	4	NaN	2	5	0.0498346531438693	0	1	NaN	240	4	51	2	120	220	320	NaN	520	0.0104105763603002	2	1	NaN	1384791.4096121	NaN	1384792.3930365	1384792.90954482
4	19	1	0	90	36.1581920903955	36.241610738255	22	0.733410215936601	2	4	5	NaN	1	3	0.0498346531438693	0	1	NaN	241	4	52	2	120	220	320	NaN	520	0.119209424359724	1	1	NaN	1384793.7431651	NaN	1384794.7265712	1384795.24311498
4	19	1	0	90	36.1581920903955	36.241610738255	19	0.633399731945246	2	3	5	NaN	1	4	0.0498346531438693	0	1	NaN	242	4	53	2	120	220	320	NaN	520	0.149730876088142	1	1	NaN	1384796.1767339	NaN	1384797.1601285	1384797.67668282
4	19	1	0	90	36.1581920903955	36.241610738255	20	0.666736559942365	2	12	2	NaN	2	3	0.0498346531438693	0	1	NaN	243	4	54	2	120	220	320	NaN	520	0.074771128129214	2	1	NaN	1384798.6436547	NaN	1384799.6270497	1384800.14359927
4	19	1	0	90	36.1581920903955	36.241610738255	21	0.700073387939483	2	5	3	NaN	1	3	0.0498346531438693	0	1	NaN	244	4	55	2	120	220	320	NaN	520	0.0270727323368192	2	0	NaN	1384801.0272054	NaN	1384802.0106073	1384802.52715817
4	19	1	0	90	36.1581920903955	36.241610738255	8	0.266694623976946	2	1	5	NaN	1	3	0.0498346531438693	0	1	NaN	245	4	56	2	120	220	320	NaN	520	0.0537906761746854	2	0	NaN	1384803.3606285	NaN	1384804.3441674	1384804.86071692
4	19	1	0	90	36.1581920903955	36.241610738255	24	0.800083871930838	2	2	3	NaN	1	3	0.0498346531438693	0	1	NaN	246	4	57	2	120	220	320	NaN	520	0.0104148762766272	2	0	NaN	1384805.7276564	NaN	1384806.7110654	1384807.22761962
4	19	1	0	90	36.1581920903955	36.241610738255	18	0.600062903948128	2	8	6	NaN	2	4	0.0498346531438693	0	1	NaN	247	4	58	2	120	220	320	NaN	520	0.777794224442914	2	1	NaN	1384808.0445648	NaN	1384809.0280002	1384809.54451868
4	19	1	0	90	36.1581920903955	36.241610738255	17	0.56672607595101	2	12	2	NaN	2	4	0.0498346531438693	0	1	NaN	248	4	59	2	120	220	320	NaN	520	0.11751312809065	2	1	NaN	1384811.1448598	NaN	1384812.1282744	1384812.64482757
4	19	1	0	90	36.1581920903955	36.241610738255	12	0.400041935965419	2	11	5	NaN	2	4	0.0498346531438693	0	1	NaN	249	4	60	2	120	220	320	NaN	520	0.115983128082007	2	1	NaN	1384813.5783079	NaN	1384814.561841	1384815.07839547
4	19	1	0	90	36.1581920903955	36.241610738255	0	0	1	5	1	NaN	1	5	0.0498346531438693	0	1	NaN	250	4	61	2	110	210	310	NaN	510	0.154428072273731	2	0	NaN	1384816.0120128	NaN	1384816.9954326	1384817.51195723
4	19	1	0	90	36.1581920903955	36.241610738255	0	0	1	1	4	NaN	1	5	0.0498346531438693	0	1	NaN	251	4	62	2	110	210	310	NaN	510	0.0103936281520873	2	0	NaN	1384818.4789322	NaN	1384819.4623195	1384819.97887757
4	19	1	0	90	36.1581920903955	36.241610738255	9	0.300031451974064	2	5	5	NaN	1	4	0.0498346531438693	0	1	NaN	252	4	63	2	120	220	320	NaN	520	0.0103958281688392	1	1	NaN	1384820.7958224	NaN	1384821.7792273	1384822.29577377
4	19	1	0	90	36.1581920903955	36.241610738255	19	0.633399731945246	2	4	4	NaN	1	4	0.0498346531438693	0	1	NaN	253	5	1	2	120	220	320	NaN	520	0.230413228273392	2	0	NaN	1385011.8645932	NaN	1385012.8479695	1385013.36453237
4	19	1	0	90	36.1581920903955	36.241610738255	7	0.233357795979828	2	7	5	NaN	2	4	0.0498346531438693	0	1	NaN	254	5	2	2	120	220	320	NaN	520	0.0104072764515877	1	0	NaN	1385014.4148318	NaN	1385015.398233	1385015.91478212
4	19	1	0	90	36.1581920903955	36.241610738255	18	0.600062903948128	2	5	2	NaN	1	4	0.0498346531438693	0	1	NaN	255	5	3	2	120	220	320	NaN	520	0.248777176253498	1	1	NaN	1385016.7817251	NaN	1385017.7651533	1385018.28168322
4	19	1	0	90	36.1581920903955	36.241610738255	7	0.233357795979828	2	2	2	NaN	1	3	0.0498346531438693	0	1	NaN	256	5	4	2	120	220	320	NaN	520	0.218419476179406	1	1	NaN	1385019.3486734	NaN	1385020.3320415	1385020.84860492
4	19	1	0	90	36.1581920903955	36.241610738255	15	0.500052419956774	2	7	6	NaN	2	4	0.0498346531438693	0	1	NaN	257	5	5	2	120	220	320	NaN	520	0.316232228185982	1	0	NaN	1385021.8821795	NaN	1385022.8656445	1385023.38219147
4	19	1	0	90	36.1581920903955	36.241610738255	20	0.666736559942365	2	8	2	NaN	2	4	0.0498346531438693	0	1	NaN	258	5	6	2	120	220	320	NaN	520	0.226866076234728	2	1	NaN	1385024.5158374	NaN	1385025.4992179	1385026.01577352
4	19	1	0	90	36.1581920903955	36.241610738255	21	0.700073387939483	2	7	5	NaN	2	5	0.0498346531438693	0	1	NaN	259	5	7	2	120	220	320	NaN	520	0.245278076268733	1	0	NaN	1385027.0494162	NaN	1385028.0328116	1385028.54935692
4	19	1	0	90	36.1581920903955	36.241610738255	9	0.300031451974064	2	5	6	NaN	1	5	0.0498346531438693	0	1	NaN	260	5	8	2	120	220	320	NaN	520	0.159004076384008	1	1	NaN	1385029.5996674	NaN	1385030.5830878	1385031.09960722
4	19	1	0	90	36.1581920903955	36.241610738255	9	0.300031451974064	2	1	3	NaN	1	5	0.0498346531438693	0	1	NaN	261	5	9	2	120	220	320	NaN	520	0.251996028004214	1	1	NaN	1385032.0665755	NaN	1385033.049958	1385033.56653107
4	19	1	0	90	36.1581920903955	36.241610738255	9	0.300031451974064	2	3	6	NaN	1	3	0.0498346531438693	0	1	NaN	262	5	10	2	120	220	320	NaN	520	0.301174040185288	1	1	NaN	1385034.6334864	NaN	1385035.616885	1385036.13343966
4	19	1	0	90	36.1581920903955	36.241610738255	13	0.433378763962537	2	3	4	NaN	1	5	0.0498346531438693	0	1	NaN	263	5	11	2	120	220	320	NaN	520	0.368872676277533	2	0	NaN	1385037.33369	NaN	1385038.3171361	1385038.83370132
4	19	1	0	90	36.1581920903955	36.241610738255	16	0.533389247953892	2	3	4	NaN	1	5	0.0498346531438693	0	1	NaN	264	5	12	2	120	220	320	NaN	520	0.10134137631394	1	1	NaN	1385040.0173667	NaN	1385041.0007632	1385041.51729692
4	19	1	0	90	36.1581920903955	36.241610738255	7	0.233357795979828	2	7	5	NaN	2	3	0.0498346531438693	0	1	NaN	265	5	13	2	120	220	320	NaN	520	0.236487376270816	1	0	NaN	1385042.4341551	NaN	1385043.4176344	1385043.93420062
4	19	1	0	90	36.1581920903955	36.241610738255	12	0.400041935965419	2	10	2	NaN	2	5	0.0498346531438693	0	1	NaN	266	5	14	2	120	220	320	NaN	520	0.34209477645345	1	0	NaN	1385044.9844	NaN	1385045.9679213	1385046.48445402
4	19	1	0	90	36.1581920903955	36.241610738255	24	0.800083871930838	2	8	3	NaN	2	4	0.0498346531438693	0	1	NaN	267	5	15	2	120	220	320	NaN	520	0.139122928259894	2	1	NaN	1385047.851445	NaN	1385048.8348413	1385049.35140587
4	19	1	0	90	36.1581920903955	36.241610738255	11	0.366705107968301	2	8	1	NaN	2	4	0.0498346531438693	0	1	NaN	268	5	16	2	120	220	320	NaN	520	0.184970876201987	2	1	NaN	1385050.3016506	NaN	1385051.2851137	1385051.80164282
4	19	1	0	90	36.1581920903955	36.241610738255	6	0.200020967982709	2	3	2	NaN	1	3	0.0498346531438693	0	1	NaN	269	5	17	2	120	220	320	NaN	520	0.212828376330435	1	1	NaN	1385052.8019623	NaN	1385053.7853262	1385054.30188542
4	19	1	0	90	36.1581920903955	36.241610738255	0	0	1	8	6	NaN	2	4	0.0498346531438693	0	1	NaN	270	5	18	2	110	210	310	NaN	510	0.231869476381689	1	0	NaN	1385055.3188613	NaN	1385056.3022345	1385056.81880492
4	19	1	0	90	36.1581920903955	36.241610738255	12	0.400041935965419	2	5	2	NaN	1	5	0.0498346531438693	0	1	NaN	271	5	19	2	120	220	320	NaN	520	0.192361840279773	1	1	NaN	1385058.3025147	NaN	1385059.2858845	1385059.80244196
4	19	1	0	90	36.1581920903955	36.241610738255	7	0.233357795979828	2	3	5	NaN	1	4	0.0498346531438693	0	1	NaN	272	5	20	2	120	220	320	NaN	520	0.0919841763097793	1	1	NaN	1385060.8027335	NaN	1385061.7861321	1385062.30267102
4	19	1	0	90	36.1581920903955	36.241610738255	0	0	1	2	5	NaN	1	5	0.0498346531438693	0	1	NaN	273	5	21	2	110	210	310	NaN	510	0.211824628058821	1	1	NaN	1385063.2029548	NaN	1385064.186344	1385064.70291957
4	19	1	0	90	36.1581920903955	36.241610738255	9	0.300031451974064	2	12	3	NaN	2	4	0.0498346531438693	0	1	NaN	274	5	22	2	120	220	320	NaN	520	0.214251728262752	1	0	NaN	1385065.7365509	NaN	1385066.7199389	1385067.23650047
4	19	1	0	90	36.1581920903955	36.241610738255	17	0.56672607595101	2	3	6	NaN	1	5	0.0498346531438693	0	1	NaN	275	5	23	2	120	220	320	NaN	520	0.256649828050286	1	1	NaN	1385068.2701196	NaN	1385069.2535235	1385069.77007927
4	19	1	0	90	36.1581920903955	36.241610738255	17	0.56672607595101	2	5	6	NaN	1	5	0.0498346531438693	0	1	NaN	276	5	24	2	120	220	320	NaN	520	0.193748576100916	1	1	NaN	1385070.8370538	NaN	1385071.8204391	1385072.33698972
4	19	1	0	90	36.1581920903955	36.241610738255	14	0.466715591959655	2	6	2	NaN	1	5	0.0498346531438693	0	1	NaN	277	5	25	2	120	220	320	NaN	520	0.365927228238434	1	1	NaN	1385073.337302	NaN	1385074.3207192	1385074.83724867
4	19	1	0	90	36.1581920903955	36.241610738255	19	0.633399731945246	2	9	3	NaN	2	3	0.0498346531438693	0	1	NaN	278	5	26	2	120	220	320	NaN	520	0.11423406819813	2	1	NaN	1385076.0208969	NaN	1385077.0042817	1385077.52083503
4	19	1	0	90	36.1581920903955	36.241610738255	22	0.733410215936601	2	9	1	NaN	2	4	0.0498346531438693	0	1	NaN	279	5	27	2	120	220	320	NaN	520	0.680286128073931	1	0	NaN	1385078.4544545	NaN	1385079.4378717	1385079.95441357
4	19	1	0	90	36.1581920903955	36.241610738255	0	0	1	4	6	NaN	1	5	0.0498346531438693	0	1	NaN	280	5	28	2	110	210	310	NaN	510	0.239849776262417	1	1	NaN	1385081.4546123	NaN	1385082.4381515	1385082.95469842
4	19	1	0	90	36.1581920903955	36.241610738255	16	0.533389247953892	2	12	5	NaN	2	5	0.0498346531438693	0	1	NaN	281	5	29	2	120	220	320	NaN	520	0.145992228295654	2	1	NaN	1385084.0049979	NaN	1385084.988409	1385085.50495887
4	19	1	0	90	36.1581920903955	36.241610738255	10	0.333368279971182	2	2	4	NaN	1	5	0.0498346531438693	0	1	NaN	282	5	30	2	120	220	320	NaN	520	0.0235294762533158	1	1	NaN	1385086.455118	NaN	1385087.4386821	1385087.95519122
4	19	1	0	90	36.1581920903955	36.241610738255	0	0	1	3	2	NaN	1	3	0.0498346531438693	0	1	NaN	283	5	31	2	110	210	310	NaN	510	0.017910176422447	1	1	NaN	1385088.7888081	NaN	1385089.7721982	1385090.28875662
4	19	1	0	90	36.1581920903955	36.241610738255	17	0.56672607595101	2	3	2	NaN	1	5	0.0498346531438693	0	1	NaN	284	5	32	2	120	220	320	NaN	520	0.364384828368202	1	1	NaN	1385091.1223996	NaN	1385092.1057749	1385092.62232917
4	19	1	0	90	36.1581920903955	36.241610738255	23	0.766747043933719	2	1	4	NaN	1	5	0.0498346531438693	0	1	NaN	285	5	33	2	120	220	320	NaN	520	0.097438472090289	1	1	NaN	1385093.7893027	NaN	1385094.7727129	1385095.28925043
4	19	1	0	90	36.1581920903955	36.241610738255	10	0.333368279971182	2	9	5	NaN	2	5	0.0498346531438693	0	1	NaN	286	5	34	2	120	220	320	NaN	520	0.0324487762991339	1	0	NaN	1385096.2062134	NaN	1385097.189608	1385097.70614902
4	19	1	0	90	36.1581920903955	36.241610738255	0	0	1	11	5	NaN	2	4	0.0498346531438693	0	1	NaN	287	5	35	2	110	210	310	NaN	510	0.138698872178793	1	0	NaN	1385098.5564257	NaN	1385099.5398235	1385100.05638083
4	19	1	0	90	36.1581920903955	36.241610738255	6	0.200020967982709	2	8	5	NaN	2	4	0.0498346531438693	0	1	NaN	288	5	36	2	120	220	320	NaN	520	0.168326676357538	1	0	NaN	1385101.0066134	NaN	1385101.9900758	1385102.50662922
4	19	1	0	90	36.1581920903955	36.241610738255	13	0.433378763962537	2	7	5	NaN	2	4	0.0498346531438693	0	1	NaN	289	5	37	2	120	220	320	NaN	520	0.0104285243432969	1	0	NaN	1385103.4901305	NaN	1385104.4736469	1385104.99020338
4	19	1	0	90	36.1581920903955	36.241610738255	0	0	1	3	4	NaN	1	4	0.0498346531438693	0	1	NaN	290	5	38	2	110	210	310	NaN	510	0.15930982818827	2	0	NaN	1385105.8238166	NaN	1385106.8072054	1385107.32377387
4	19	1	0	90	36.1581920903955	36.241610738255	10	0.333368279971182	2	2	4	NaN	1	3	0.0498346531438693	0	1	NaN	291	5	39	2	120	220	320	NaN	520	0.34007762814872	1	1	NaN	1385108.6907333	NaN	1385109.6741629	1385110.19071297
4	19	1	0	90	36.1581920903955	36.241610738255	21	0.700073387939483	2	4	2	NaN	1	5	0.0498346531438693	0	1	NaN	292	5	40	2	120	220	320	NaN	520	0.217524276115	1	1	NaN	1385111.3410297	NaN	1385112.3244158	1385112.84097042
4	19	1	0	90	36.1581920903955	36.241610738255	7	0.233357795979828	2	5	6	NaN	1	4	0.0498346531438693	0	1	NaN	293	5	41	2	120	220	320	NaN	520	0.268111424287781	1	1	NaN	1385113.8746054	NaN	1385114.8580106	1385115.37455818
4	19	1	0	90	36.1581920903955	36.241610738255	14	0.466715591959655	2	9	5	NaN	2	5	0.0498346531438693	0	1	NaN	294	5	42	2	120	220	320	NaN	520	0.164611176354811	1	0	NaN	1385116.458126	NaN	1385117.4416	1385117.95813972
4	19	1	0	90	36.1581920903955	36.241610738255	24	0.800083871930838	2	10	2	NaN	2	5	0.0498346531438693	0	1	NaN	295	5	43	2	120	220	320	NaN	520	0.337108180159703	1	0	NaN	1385118.9417664	NaN	1385119.9251589	1385120.44172802
4	19	1	0	90	36.1581920903955	36.241610738255	9	0.300031451974064	2	11	4	NaN	2	4	0.0498346531438693	0	1	NaN	296	5	44	2	120	220	320	NaN	520	0.510718576377258	2	1	NaN	1385121.592082	NaN	1385122.575431	1385123.09197712
4	19	1	0	90	36.1581920903955	36.241610738255	13	0.433378763962537	2	6	2	NaN	1	5	0.0498346531438693	0	1	NaN	297	5	45	2	120	220	320	NaN	520	0.446221828227863	1	1	NaN	1385124.4089719	NaN	1385125.392381	1385125.90893117
4	19	1	0	90	36.1581920903955	36.241610738255	18	0.600062903948128	2	5	4	NaN	1	4	0.0498346531438693	0	1	NaN	298	5	46	2	120	220	320	NaN	520	0.424017976270989	1	1	NaN	1385127.1592494	NaN	1385128.1426396	1385128.65918952
4	19	1	0	90	36.1581920903955	36.241610738255	8	0.266694623976946	2	9	4	NaN	2	4	0.0498346531438693	0	1	NaN	299	5	47	2	120	220	320	NaN	520	0.474042828194797	1	0	NaN	1385129.8928398	NaN	1385130.8762851	1385131.39280237
4	19	1	0	90	36.1581920903955	36.241610738255	11	0.366705107968301	2	11	1	NaN	2	5	0.0498346531438693	0	1	NaN	300	5	48	2	120	220	320	NaN	520	0.234315376263112	2	1	NaN	1385132.6764486	NaN	1385133.6598574	1385134.17639882
4	19	1	0	90	36.1581920903955	36.241610738255	15	0.500052419956774	2	2	4	NaN	1	3	0.0498346531438693	0	1	NaN	301	5	49	2	120	220	320	NaN	520	0.220452076289803	1	1	NaN	1385135.2267096	NaN	1385136.2100938	1385136.72665112
4	19	1	0	90	36.1581920903955	36.241610738255	6	0.200020967982709	2	1	2	NaN	1	4	0.0498346531438693	0	1	NaN	302	5	50	2	120	220	320	NaN	520	1.47853477625176	1	1	NaN	1385137.7602206	NaN	1385138.7436644	1385139.26023192
4	19	1	0	90	36.1581920903955	36.241610738255	10	0.333368279971182	2	10	5	NaN	2	4	0.0498346531438693	0	1	NaN	303	5	51	2	120	220	320	NaN	520	1.38312712823972	2	1	NaN	1385141.5439811	NaN	1385142.5273896	1385143.04394217
4	19	1	0	90	36.1581920903955	36.241610738255	23	0.766747043933719	2	7	6	NaN	2	5	0.0498346531438693	0	1	NaN	304	5	52	2	120	220	320	NaN	520	0.570670676417649	1	0	NaN	1385145.2443682	NaN	1385146.2277489	1385146.74430122
4	19	1	0	90	36.1581920903955	36.241610738255	13	0.433378763962537	2	5	5	NaN	1	5	0.0498346531438693	0	1	NaN	305	5	53	2	120	220	320	NaN	520	0.710810576332733	1	1	NaN	1385148.1279885	NaN	1385149.1113915	1385149.62791492
4	19	1	0	90	36.1581920903955	36.241610738255	7	0.233357795979828	2	12	3	NaN	2	5	0.0498346531438693	0	1	NaN	306	5	54	2	120	220	320	NaN	520	0.397925828350708	2	1	NaN	1385151.1449145	NaN	1385152.1283306	1385152.64488977
4	19	1	0	90	36.1581920903955	36.241610738255	17	0.56672607595101	2	9	6	NaN	2	4	0.0498346531438693	0	1	NaN	307	5	55	2	120	220	320	NaN	520	0.56138282828033	2	1	NaN	1385153.8618712	NaN	1385154.8452473	1385155.36181737
4	19	1	0	90	36.1581920903955	36.241610738255	16	0.533389247953892	2	9	5	NaN	2	5	0.0498346531438693	0	1	NaN	308	5	56	2	120	220	320	NaN	520	0.598211228149012	2	1	NaN	1385156.7288088	NaN	1385157.7123053	1385158.22877377
4	19	1	0	90	36.1581920903955	36.241610738255	19	0.633399731945246	2	12	4	NaN	2	4	0.0498346531438693	0	1	NaN	309	5	57	2	120	220	320	NaN	520	0.393528724322096	2	1	NaN	1385159.6457737	NaN	1385160.6291448	1385161.14572148
4	19	1	0	90	36.1581920903955	36.241610738255	23	0.766747043933719	2	6	3	NaN	1	5	0.0498346531438693	0	1	NaN	310	5	58	2	120	220	320	NaN	520	1.0127209762577	2	0	NaN	1385162.3460277	NaN	1385163.3294059	1385163.84598102
4	19	1	0	90	36.1581920903955	36.241610738255	21	0.700073387939483	2	11	4	NaN	2	3	0.0498346531438693	0	1	NaN	311	5	59	2	120	220	320	NaN	520	0.543142576236278	2	1	NaN	1385165.6796984	NaN	1385166.6630836	1385167.17963982
4	19	1	0	90	36.1581920903955	36.241610738255	25	0.833420699927956	2	3	5	NaN	1	4	0.0498346531438693	0	1	NaN	312	5	60	2	120	220	320	NaN	520	0.284195476211607	1	1	NaN	1385168.5466465	NaN	1385169.5300549	1385170.04659692
4	19	1	0	90	36.1581920903955	36.241610738255	21	0.700073387939483	2	4	4	NaN	1	3	0.0498346531438693	0	1	NaN	313	5	61	2	120	220	320	NaN	520	0.556468128226697	1	1	NaN	1385171.1468962	NaN	1385172.1302952	1385172.64685207
4	19	1	0	90	36.1581920903955	36.241610738255	10	0.333368279971182	2	3	1	NaN	1	4	0.0498346531438693	0	1	NaN	314	5	62	2	120	220	320	NaN	520	0.553352328250185	2	0	NaN	1385174.013883	NaN	1385174.9972965	1385175.51380537
4	19	1	0	90	36.1581920903955	36.241610738255	22	0.733410215936601	2	2	6	NaN	1	5	0.0498346531438693	0	1	NaN	315	5	63	2	120	220	320	NaN	520	0.366494628135115	2	0	NaN	1385176.880843	NaN	1385177.8641998	1385178.38075097
4	19	1	0	90	36.1581920903955	36.241610738255	24	0.800083871930838	2	4	3	NaN	1	5	0.0498346531438693	0	1	NaN	316	6	1	2	120	220	320	NaN	520	1.21280002826825	1	1	NaN	1385195.465931	NaN	1385196.4493493	1385196.96590057
4	19	1	0	90	36.1581920903955	36.241610738255	21	0.700073387939483	2	6	5	NaN	1	5	0.0498346531438693	0	1	NaN	317	6	2	2	120	220	320	NaN	520	0.264034792082384	1	1	NaN	1385198.9829594	NaN	1385199.9663793	1385200.48292351
4	19	1	0	90	36.1581920903955	36.241610738255	21	0.700073387939483	2	6	1	NaN	1	5	0.0498346531438693	0	1	NaN	318	6	3	2	120	220	320	NaN	520	0.169379276223481	2	0	NaN	1385201.5498931	NaN	1385202.5331815	1385203.04982912
4	19	1	0	90	36.1581920903955	36.241610738255	23	0.766747043933719	2	2	6	NaN	1	4	0.0498346531438693	0	1	NaN	319	6	4	2	120	220	320	NaN	520	0.245525228092447	2	0	NaN	1385204.0333389	NaN	1385205.0168867	1385205.53341327
4	19	1	0	90	36.1581920903955	36.241610738255	14	0.466715591959655	2	12	5	NaN	2	4	0.0498346531438693	0	1	NaN	320	6	5	2	120	220	320	NaN	520	0.183368076337501	2	1	NaN	1385206.5837149	NaN	1385207.5671464	1385208.08366052
4	19	1	0	90	36.1581920903955	36.241610738255	20	0.666736559942365	2	7	3	NaN	2	4	0.0498346531438693	0	1	NaN	321	6	6	2	120	220	320	NaN	520	0.179068624274805	1	0	NaN	1385209.0839552	NaN	1385210.0673947	1385210.58390628
4	19	1	0	90	36.1581920903955	36.241610738255	15	0.500052419956774	2	11	3	NaN	2	4	0.0498346531438693	0	1	NaN	322	6	7	2	120	220	320	NaN	520	0.295778280124068	1	0	NaN	1385211.5675427	NaN	1385212.5509385	1385213.06748842
4	19	1	0	90	36.1581920903955	36.241610738255	14	0.466715591959655	2	2	5	NaN	1	3	0.0498346531438693	0	1	NaN	323	6	8	2	120	220	320	NaN	520	0.254450676264241	1	1	NaN	1385214.1844659	NaN	1385215.1678694	1385215.68440342
4	19	1	0	90	36.1581920903955	36.241610738255	0	0	1	6	4	NaN	1	3	0.0498346531438693	0	1	NaN	324	6	9	2	110	210	310	NaN	510	0.255522328196093	1	1	NaN	1385216.7513795	NaN	1385217.7347572	1385218.25133637
4	19	1	0	90	36.1581920903955	36.241610738255	6	0.200020967982709	2	9	4	NaN	2	5	0.0498346531438693	0	1	NaN	325	6	10	2	120	220	320	NaN	520	0.825146128190681	2	1	NaN	1385219.3182856	NaN	1385220.3016994	1385220.81825127
4	19	1	0	90	36.1581920903955	36.241610738255	11	0.366705107968301	2	5	3	NaN	1	3	0.0498346531438693	0	1	NaN	326	6	11	2	120	220	320	NaN	520	0.32303977617994	1	1	NaN	1385222.4519458	NaN	1385223.4353417	1385223.95188362
4	19	1	0	90	36.1581920903955	36.241610738255	24	0.800083871930838	2	7	4	NaN	2	4	0.0498346531438693	0	1	NaN	327	6	12	2	120	220	320	NaN	520	0.321401524357498	2	1	NaN	1385225.0855612	NaN	1385226.0689236	1385226.58549128
4	19	1	0	90	36.1581920903955	36.241610738255	13	0.433378763962537	2	7	4	NaN	2	5	0.0498346531438693	0	1	NaN	328	6	13	2	120	220	320	NaN	520	0.271838172106072	1	0	NaN	1385227.7190123	NaN	1385228.7025566	1385229.21909133
4	19	1	0	90	36.1581920903955	36.241610738255	16	0.533389247953892	2	7	6	NaN	2	3	0.0498346531438693	0	1	NaN	329	6	14	2	120	220	320	NaN	520	0.336733276257291	2	1	NaN	1385230.3027211	NaN	1385231.2861069	1385231.80265802
4	19	1	0	90	36.1581920903955	36.241610738255	24	0.800083871930838	2	12	5	NaN	2	5	0.0498346531438693	0	1	NaN	330	6	15	2	120	220	320	NaN	520	0.310130528174341	2	1	NaN	1385232.9529626	NaN	1385233.9363576	1385234.45292177
4	19	1	0	90	36.1581920903955	36.241610738255	10	0.333368279971182	2	8	3	NaN	2	5	0.0498346531438693	0	1	NaN	331	6	16	2	120	220	320	NaN	520	0.461232128087431	1	0	NaN	1385235.5698748	NaN	1385236.5532968	1385237.06984157
4	19	1	0	90	36.1581920903955	36.241610738255	15	0.500052419956774	2	8	4	NaN	2	5	0.0498346531438693	0	1	NaN	332	6	17	2	120	220	320	NaN	520	0.358069528127089	1	0	NaN	1385238.3535055	NaN	1385239.3369034	1385239.85347107
4	19	1	0	90	36.1581920903955	36.241610738255	25	0.833420699927956	2	11	1	NaN	2	5	0.0498346531438693	0	1	NaN	333	6	18	2	120	220	320	NaN	520	0.3466035281308	1	0	NaN	1385241.0204714	NaN	1385242.0037994	1385242.52038607
4	19	1	0	90	36.1581920903955	36.241610738255	9	0.300031451974064	2	10	1	NaN	2	3	0.0498346531438693	0	1	NaN	334	6	19	2	120	220	320	NaN	520	0.183623928343877	2	1	NaN	1385243.6873736	NaN	1385244.6707442	1385245.18730877
4	19	1	0	90	36.1581920903955	36.241610738255	16	0.533389247953892	2	1	4	NaN	1	3	0.0498346531438693	0	1	NaN	335	6	20	2	120	220	320	NaN	520	0.412454728037119	1	1	NaN	1385246.1709305	NaN	1385247.1543366	1385247.67089287
4	19	1	0	90	36.1581920903955	36.241610738255	22	0.733410215936601	2	11	4	NaN	2	3	0.0498346531438693	0	1	NaN	336	6	21	2	120	220	320	NaN	520	0.230905528180301	2	1	NaN	1385248.8878718	NaN	1385249.8712703	1385250.38782087
4	19	1	0	90	36.1581920903955	36.241610738255	0	0	1	7	2	NaN	2	4	0.0498346531438693	0	1	NaN	337	6	22	2	110	210	310	NaN	510	0.232980528147891	2	1	NaN	1385251.4381282	NaN	1385252.4215243	1385252.93807417
4	19	1	0	90	36.1581920903955	36.241610738255	14	0.466715591959655	2	5	1	NaN	1	4	0.0498346531438693	0	1	NaN	338	6	23	2	120	220	320	NaN	520	0.330771376146004	2	0	NaN	1385253.988372	NaN	1385254.9717738	1385255.48831552
4	19	1	0	90	36.1581920903955	36.241610738255	23	0.766747043933719	2	11	3	NaN	2	5	0.0498346531438693	0	1	NaN	339	6	24	2	120	220	320	NaN	520	0.424270428018644	2	1	NaN	1385256.6385079	NaN	1385257.6220244	1385258.13858657
4	19	1	0	90	36.1581920903955	36.241610738255	6	0.200020967982709	2	5	3	NaN	1	5	0.0498346531438693	0	1	NaN	340	6	25	2	120	220	320	NaN	520	0.443125928286463	2	0	NaN	1385259.3722243	NaN	1385260.3556185	1385260.87218727
4	19	1	0	90	36.1581920903955	36.241610738255	13	0.433378763962537	2	5	3	NaN	1	4	0.0498346531438693	0	1	NaN	341	6	26	2	120	220	320	NaN	520	0.07652452820912	1	1	NaN	1385262.1224938	NaN	1385263.1059039	1385263.62245897
4	19	1	0	90	36.1581920903955	36.241610738255	18	0.600062903948128	2	4	6	NaN	1	3	0.0498346531438693	0	1	NaN	342	6	27	2	120	220	320	NaN	520	0.229469328187406	1	1	NaN	1385264.5059557	NaN	1385265.489455	1385266.00602517
4	19	1	0	90	36.1581920903955	36.241610738255	16	0.533389247953892	2	9	5	NaN	2	3	0.0498346531438693	0	1	NaN	343	6	28	2	120	220	320	NaN	520	0.358638676349074	2	1	NaN	1385267.0562314	NaN	1385268.0397117	1385268.55626512
4	19	1	0	90	36.1581920903955	36.241610738255	9	0.300031451974064	2	1	1	NaN	1	5	0.0498346531438693	0	1	NaN	344	6	29	2	120	220	320	NaN	520	0.244168776087463	2	0	NaN	1385269.7232592	NaN	1385270.7066377	1385271.22319702
4	19	1	0	90	36.1581920903955	36.241610738255	17	0.56672607595101	2	6	6	NaN	1	4	0.0498346531438693	0	1	NaN	345	6	30	2	120	220	320	NaN	520	0.301587328081951	1	1	NaN	1385272.2733827	NaN	1385273.2568957	1385273.77345417
4	19	1	0	90	36.1581920903955	36.241610738255	9	0.300031451974064	2	2	4	NaN	1	3	0.0498346531438693	0	1	NaN	346	6	31	2	120	220	320	NaN	520	0.228908728109673	2	0	NaN	1385274.8904379	NaN	1385275.8738024	1385276.39037847
4	19	1	0	90	36.1581920903955	36.241610738255	11	0.366705107968301	2	7	3	NaN	2	3	0.0498346531438693	0	1	NaN	347	6	32	2	120	220	320	NaN	520	0.31868937634863	1	0	NaN	1385277.440666	NaN	1385278.4241594	1385278.94062012
4	19	1	0	90	36.1581920903955	36.241610738255	19	0.633399731945246	2	5	6	NaN	1	4	0.0498346531438693	0	1	NaN	348	6	33	2	120	220	320	NaN	520	0.252817428205162	1	1	NaN	1385280.0742557	NaN	1385281.0576937	1385281.57421517
4	19	1	0	90	36.1581920903955	36.241610738255	8	0.266694623976946	2	2	5	NaN	1	5	0.0498346531438693	0	1	NaN	349	6	34	2	120	220	320	NaN	520	0.222333828220144	2	0	NaN	1385282.6411823	NaN	1385283.6245903	1385284.14114197
4	19	1	0	90	36.1581920903955	36.241610738255	25	0.833420699927956	2	7	4	NaN	2	5	0.0498346531438693	0	1	NaN	350	6	35	2	120	220	320	NaN	520	0.24013707623817	2	1	NaN	1385285.1747559	NaN	1385286.158147	1385286.67472362
4	19	1	0	90	36.1581920903955	36.241610738255	18	0.600062903948128	2	4	2	NaN	1	5	0.0498346531438693	0	1	NaN	351	6	36	2	120	220	320	NaN	520	0.113942028256133	1	1	NaN	1385287.7250136	NaN	1385288.7084223	1385289.22496847
4	19	1	0	90	36.1581920903955	36.241610738255	25	0.833420699927956	2	1	5	NaN	1	3	0.0498346531438693	0	1	NaN	352	6	37	2	120	220	320	NaN	520	0.304829128319398	1	1	NaN	1385290.1585954	NaN	1385291.1419741	1385291.65854207
4	19	1	0	90	36.1581920903955	36.241610738255	22	0.733410215936601	2	8	3	NaN	2	3	0.0498346531438693	0	1	NaN	353	6	38	2	120	220	320	NaN	520	0.215532076312229	1	0	NaN	1385292.7755116	NaN	1385293.758904	1385294.27547352
4	19	1	0	90	36.1581920903955	36.241610738255	24	0.800083871930838	2	3	1	NaN	1	4	0.0498346531438693	0	1	NaN	354	6	39	2	120	220	320	NaN	520	0.338974624406546	1	1	NaN	1385295.2924396	NaN	1385296.2758173	1385296.79238068
4	19	1	0	90	36.1581920903955	36.241610738255	0	0	1	10	1	NaN	2	5	0.0498346531438693	0	1	NaN	355	6	40	2	110	210	310	NaN	510	0.368415176169947	2	1	NaN	1385297.9426885	NaN	1385298.9260946	1385299.44263152
4	19	1	0	90	36.1581920903955	36.241610738255	6	0.200020967982709	2	12	4	NaN	2	4	0.0498346531438693	0	1	NaN	356	6	41	2	120	220	320	NaN	520	0.0104063760954887	1	0	NaN	1385300.6262953	NaN	1385301.6096785	1385302.12623122
4	19	1	0	90	36.1581920903955	36.241610738255	6	0.200020967982709	2	7	3	NaN	2	5	0.0498346531438693	0	1	NaN	357	6	42	2	120	220	320	NaN	520	0.591982227982953	2	1	NaN	1385302.9431843	NaN	1385303.9265892	1385304.44313617
4	19	1	0	90	36.1581920903955	36.241610738255	16	0.533389247953892	2	4	2	NaN	1	5	0.0498346531438693	0	1	NaN	358	6	43	2	120	220	320	NaN	520	0.21952682826668	1	1	NaN	1385305.8434399	NaN	1385306.8268598	1385307.34341337
4	19	1	0	90	36.1581920903955	36.241610738255	23	0.766747043933719	2	4	3	NaN	1	5	0.0498346531438693	0	1	NaN	359	6	44	2	120	220	320	NaN	520	0.0104087763465941	1	1	NaN	1385308.3770415	NaN	1385309.3604421	1385309.87699312
4	19	1	0	90	36.1581920903955	36.241610738255	19	0.633399731945246	2	10	2	NaN	2	3	0.0498346531438693	0	1	NaN	360	6	45	2	120	220	320	NaN	520	0.161140328273177	1	0	NaN	1385310.6939562	NaN	1385311.6773488	1385312.19389367
4	19	1	0	90	36.1581920903955	36.241610738255	22	0.733410215936601	2	5	6	NaN	1	5	0.0498346531438693	0	1	NaN	361	6	46	2	120	220	320	NaN	520	0.326351328054443	1	1	NaN	1385313.1608572	NaN	1385314.1442419	1385314.66080677
4	19	1	0	90	36.1581920903955	36.241610738255	11	0.366705107968301	2	4	5	NaN	1	3	0.0498346531438693	0	1	NaN	362	6	47	2	120	220	320	NaN	520	0.172969240229577	1	1	NaN	1385315.7944651	NaN	1385316.7778467	1385317.29439946
4	19	1	0	90	36.1581920903955	36.241610738255	20	0.666736559942365	2	2	4	NaN	1	3	0.0498346531438693	0	1	NaN	363	6	48	2	120	220	320	NaN	520	0.209132028277963	2	0	NaN	1385318.2780151	NaN	1385319.2614098	1385319.77796937
4	19	1	0	90	36.1581920903955	36.241610738255	9	0.300031451974064	2	7	5	NaN	2	3	0.0498346531438693	0	1	NaN	364	6	49	2	120	220	320	NaN	520	0.0104233243037015	1	0	NaN	1385320.7948102	NaN	1385321.7783368	1385322.29487968
4	19	1	0	90	36.1581920903955	36.241610738255	6	0.200020967982709	2	12	6	NaN	2	5	0.0498346531438693	0	1	NaN	365	6	50	2	120	220	320	NaN	520	0.223616684321314	2	1	NaN	1385323.1117039	NaN	1385324.0952397	1385324.61179152
4	19	1	0	90	36.1581920903955	36.241610738255	13	0.433378763962537	2	4	4	NaN	1	3	0.0498346531438693	0	1	NaN	366	6	51	2	120	220	320	NaN	520	0.0103911282494664	1	1	NaN	1385325.6453984	NaN	1385326.628807	1385327.14535817
4	19	1	0	90	36.1581920903955	36.241610738255	12	0.400041935965419	2	9	5	NaN	2	3	0.0498346531438693	0	1	NaN	367	6	52	2	120	220	320	NaN	520	0.0103896281216294	1	0	NaN	1385328.0789778	NaN	1385329.0623682	1385329.57894757
4	19	1	0	90	36.1581920903955	36.241610738255	15	0.500052419956774	2	11	3	NaN	2	3	0.0498346531438693	0	1	NaN	368	6	53	2	120	220	320	NaN	520	0.0671794763766229	2	1	NaN	1385330.3958971	NaN	1385331.379286	1385331.89582272
4	19	1	0	90	36.1581920903955	36.241610738255	12	0.400041935965419	2	2	2	NaN	1	3	0.0498346531438693	0	1	NaN	369	6	54	2	120	220	320	NaN	520	1.16374777629972	2	0	NaN	1385332.7794541	NaN	1385333.7628506	1385334.27938552
4	19	1	0	90	36.1581920903955	36.241610738255	21	0.700073387939483	2	8	5	NaN	2	4	0.0498346531438693	0	1	NaN	370	6	55	2	120	220	320	NaN	520	0.992143784184009	2	1	NaN	1385336.2631137	NaN	1385337.2465264	1385337.76306372
4	19	1	0	90	36.1581920903955	36.241610738255	17	0.56672607595101	2	8	3	NaN	2	3	0.0498346531438693	0	1	NaN	371	6	56	2	120	220	320	NaN	520	1.02804827620275	2	1	NaN	1385339.5634459	NaN	1385340.5468219	1385341.06339142
4	19	1	0	90	36.1581920903955	36.241610738255	19	0.633399731945246	2	8	1	NaN	2	3	0.0498346531438693	0	1	NaN	372	6	57	2	120	220	320	NaN	520	0.582291928119957	2	1	NaN	1385342.8970106	NaN	1385343.8804875	1385344.39705757
4	19	1	0	90	36.1581920903955	36.241610738255	17	0.56672607595101	2	10	5	NaN	2	4	0.0498346531438693	0	1	NaN	373	6	58	2	120	220	320	NaN	520	0.322091528214514	2	1	NaN	1385345.7973805	NaN	1385346.7807899	1385347.29734567
4	19	1	0	90	36.1581920903955	36.241610738255	16	0.533389247953892	2	8	3	NaN	2	3	0.0498346531438693	0	1	NaN	374	6	59	2	120	220	320	NaN	520	0.376122528221458	1	0	NaN	1385348.430988	NaN	1385349.4143656	1385349.93092607
4	19	1	0	90	36.1581920903955	36.241610738255	20	0.666736559942365	2	7	2	NaN	2	4	0.0498346531438693	0	1	NaN	375	6	60	2	120	220	320	NaN	520	1.16492187627591	2	1	NaN	1385351.1145774	NaN	1385352.097954	1385352.61452172
4	19	1	0	90	36.1581920903955	36.241610738255	7	0.233357795979828	2	4	5	NaN	1	3	0.0498346531438693	0	1	NaN	376	6	61	2	120	220	320	NaN	520	0.873526972252876	2	0	NaN	1385354.581575	NaN	1385355.5650079	1385356.08153923
4	19	1	0	90	36.1581920903955	36.241610738255	6	0.200020967982709	2	5	2	NaN	1	4	0.0498346531438693	0	1	NaN	377	6	62	2	120	220	320	NaN	520	0.202148428186774	1	1	NaN	1385357.7652188	NaN	1385358.7486395	1385359.26518647
4	19	1	0	90	36.1581920903955	36.241610738255	21	0.700073387939483	2	9	6	NaN	2	4	0.0498346531438693	0	1	NaN	378	6	63	2	120	220	320	NaN	520	0.524994128150865	1	0	NaN	1385360.282136	NaN	1385361.2655343	1385361.78209747
4	19	1	0	90	36.1581920903955	36.241610738255	7	0.233357795979828	2	5	4	NaN	1	5	0.0498346531438693	0	1	NaN	379	7	1	2	120	220	320	NaN	520	0.260678776074201	2	0	NaN	1385398.6025716	NaN	1385399.5859597	1385400.10252172
4	19	1	0	90	36.1581920903955	36.241610738255	12	0.400041935965419	2	10	4	NaN	2	4	0.0498346531438693	0	1	NaN	380	7	2	2	120	220	320	NaN	520	0.269755876157433	2	1	NaN	1385401.1694968	NaN	1385402.1528867	1385402.66943862
4	19	1	0	90	36.1581920903955	36.241610738255	17	0.56672607595101	2	10	6	NaN	2	4	0.0498346531438693	0	1	NaN	381	7	3	2	120	220	320	NaN	520	0.206581780221313	2	1	NaN	1385403.7530666	NaN	1385404.7365041	1385405.25303022
4	19	1	0	90	36.1581920903955	36.241610738255	11	0.366705107968301	2	7	4	NaN	2	3	0.0498346531438693	0	1	NaN	382	7	4	2	120	220	320	NaN	520	0.73764762817882	2	1	NaN	1385406.2699945	NaN	1385407.2533839	1385407.76994857
4	19	1	0	90	36.1581920903955	36.241610738255	25	0.833420699927956	2	4	3	NaN	1	3	0.0498346531438693	0	1	NaN	383	7	5	2	120	220	320	NaN	520	0.294898824533448	2	0	NaN	1385409.3203051	NaN	1385410.3036958	1385410.82025028
4	19	1	0	90	36.1581920903955	36.241610738255	25	0.833420699927956	2	6	3	NaN	1	5	0.0498346531438693	0	1	NaN	384	7	6	2	120	220	320	NaN	520	0.415063328109682	1	1	NaN	1385411.9205462	NaN	1385412.9039453	1385413.42050727
4	19	1	0	90	36.1581920903955	36.241610738255	22	0.733410215936601	2	1	1	NaN	1	3	0.0498346531438693	0	1	NaN	385	7	7	2	120	220	320	NaN	520	0.193727628327906	2	0	NaN	1385414.6374996	NaN	1385415.6208704	1385416.13743597
4	19	1	0	90	36.1581920903955	36.241610738255	21	0.700073387939483	2	1	2	NaN	1	5	0.0498346531438693	0	1	NaN	386	7	8	2	120	220	320	NaN	520	0.854082676349208	2	0	NaN	1385417.1377346	NaN	1385418.1211217	1385418.63770092
4	19	1	0	90	36.1581920903955	36.241610738255	7	0.233357795979828	2	9	2	NaN	2	5	0.0498346531438693	0	1	NaN	387	7	9	2	120	220	320	NaN	520	0.726142628118396	2	1	NaN	1385420.5213953	NaN	1385421.504779	1385422.02135127
4	19	1	0	90	36.1581920903955	36.241610738255	23	0.766747043933719	2	10	4	NaN	2	3	0.0498346531438693	0	1	NaN	388	7	10	2	120	220	320	NaN	520	0.324226376367733	2	1	NaN	1385423.5550247	NaN	1385424.5384129	1385425.05497082
4	19	1	0	90	36.1581920903955	36.241610738255	7	0.233357795979828	2	9	5	NaN	2	5	0.0498346531438693	0	1	NaN	389	7	11	2	120	220	320	NaN	520	0.362446028273553	2	1	NaN	1385426.1885376	NaN	1385427.1720791	1385427.68857067
4	19	1	0	90	36.1581920903955	36.241610738255	6	0.200020967982709	2	10	6	NaN	2	5	0.0498346531438693	0	1	NaN	390	7	12	2	120	220	320	NaN	520	0.206866428256035	1	0	NaN	1385428.8722077	NaN	1385429.8555891	1385430.37217077
4	19	1	0	90	36.1581920903955	36.241610738255	25	0.833420699927956	2	8	4	NaN	2	4	0.0498346531438693	0	1	NaN	391	7	13	2	120	220	320	NaN	520	0.202476128237322	2	1	NaN	1385431.3891503	NaN	1385432.3725165	1385432.88908067
4	19	1	0	90	36.1581920903955	36.241610738255	8	0.266694623976946	2	12	3	NaN	2	5	0.0498346531438693	0	1	NaN	392	7	14	2	120	220	320	NaN	520	0.052954024169594	2	1	NaN	1385433.9059214	NaN	1385434.889461	1385435.40598688
4	19	1	0	90	36.1581920903955	36.241610738255	24	0.800083871930838	2	3	5	NaN	1	5	0.0498346531438693	0	1	NaN	393	7	15	2	120	220	320	NaN	520	0.0303526280913502	1	1	NaN	1385436.2729431	NaN	1385437.2563181	1385437.77289877
4	19	1	0	90	36.1581920903955	36.241610738255	20	0.666736559942365	2	11	3	NaN	2	4	0.0498346531438693	0	1	NaN	394	7	16	2	120	220	320	NaN	520	0.104068528162315	1	0	NaN	1385438.6231801	NaN	1385439.6065811	1385440.12312827
4	19	1	0	90	36.1581920903955	36.241610738255	20	0.666736559942365	2	12	1	NaN	2	5	0.0498346531438693	0	1	NaN	395	7	17	2	120	220	320	NaN	520	0.159123128047213	2	1	NaN	1385441.0400798	NaN	1385442.0234708	1385442.54004387
4	19	1	0	90	36.1581920903955	36.241610738255	16	0.533389247953892	2	1	2	NaN	1	5	0.0498346531438693	0	1	NaN	396	7	18	2	120	220	320	NaN	520	0.236062976298854	2	0	NaN	1385443.5070033	NaN	1385444.4903918	1385445.00692962
4	19	1	0	90	36.1581920903955	36.241610738255	17	0.56672607595101	2	7	1	NaN	2	4	0.0498346531438693	0	1	NaN	397	7	19	2	120	220	320	NaN	520	0.286094828043133	2	1	NaN	1385446.4572511	NaN	1385447.4406811	1385447.95722717
4	19	1	0	90	36.1581920903955	36.241610738255	13	0.433378763962537	2	2	2	NaN	1	4	0.0498346531438693	0	1	NaN	398	7	20	2	120	220	320	NaN	520	0.229812076315284	2	0	NaN	1385449.0575216	NaN	1385450.0409261	1385450.55747362
4	19	1	0	90	36.1581920903955	36.241610738255	13	0.433378763962537	2	1	4	NaN	1	4	0.0498346531438693	0	1	NaN	399	7	21	2	120	220	320	NaN	520	0.154105128254741	1	1	NaN	1385451.9411454	NaN	1385452.9245338	1385453.44109567
4	19	1	0	90	36.1581920903955	36.241610738255	18	0.600062903948128	2	2	2	NaN	1	5	0.0498346531438693	0	1	NaN	400	7	22	2	120	220	320	NaN	520	0.207416628021747	1	1	NaN	1385454.4080452	NaN	1385455.3914628	1385455.90800317
4	19	1	0	90	36.1581920903955	36.241610738255	17	0.56672607595101	2	11	2	NaN	2	3	0.0498346531438693	0	1	NaN	401	7	23	2	120	220	320	NaN	520	0.298411128344014	1	0	NaN	1385456.9249682	NaN	1385457.9083729	1385458.42492277
4	19	1	0	90	36.1581920903955	36.241610738255	11	0.366705107968301	2	10	1	NaN	2	3	0.0498346531438693	0	1	NaN	402	7	24	2	120	220	320	NaN	520	0.186589576303959	1	0	NaN	1385459.5252186	NaN	1385460.5086183	1385461.02516972
4	19	1	0	90	36.1581920903955	36.241610738255	11	0.366705107968301	2	6	6	NaN	1	4	0.0498346531438693	0	1	NaN	403	7	25	2	120	220	320	NaN	520	0.333990468177944	1	1	NaN	1385462.0254898	NaN	1385463.0088755	1385463.52542203
4	19	1	0	90	36.1581920903955	36.241610738255	23	0.766747043933719	2	9	1	NaN	2	5	0.0498346531438693	0	1	NaN	404	7	26	2	120	220	320	NaN	520	0.33953507617116	2	1	NaN	1385464.6756109	NaN	1385465.6591289	1385466.17568452
4	19	1	0	90	36.1581920903955	36.241610738255	7	0.233357795979828	2	11	1	NaN	2	4	0.0498346531438693	0	1	NaN	405	7	27	2	120	220	320	NaN	520	0.305249228142202	2	1	NaN	1385467.325994	NaN	1385468.3094203	1385468.82594307
4	19	1	0	90	36.1581920903955	36.241610738255	17	0.56672607595101	2	8	2	NaN	2	3	0.0498346531438693	0	1	NaN	406	7	28	2	120	220	320	NaN	520	0.0104003283195198	2	1	NaN	1385469.942918	NaN	1385470.9263011	1385471.44287217
4	19	1	0	90	36.1581920903955	36.241610738255	20	0.666736559942365	2	6	2	NaN	1	5	0.0498346531438693	0	1	NaN	407	7	29	2	120	220	320	NaN	520	0.0103894281201065	1	1	NaN	1385472.259715	NaN	1385473.243218	1385473.75976037
4	19	1	0	90	36.1581920903955	36.241610738255	10	0.333368279971182	2	1	2	NaN	1	3	0.0498346531438693	0	1	NaN	408	7	30	2	120	220	320	NaN	520	0.454640287905931	1	1	NaN	1385474.5767018	NaN	1385475.5602194	1385476.07665201
4	19	1	0	90	36.1581920903955	36.241610738255	12	0.400041935965419	2	1	3	NaN	1	3	0.0498346531438693	0	1	NaN	409	7	31	2	120	220	320	NaN	520	0.480034524342045	1	1	NaN	1385477.3436388	NaN	1385478.3270371	1385478.84359918
4	19	1	0	90	36.1581920903955	36.241610738255	10	0.333368279971182	2	10	6	NaN	2	5	0.0498346531438693	0	1	NaN	410	7	32	2	120	220	320	NaN	520	0.319843276403844	1	0	NaN	1385480.1439157	NaN	1385481.1273169	1385481.64386452
4	19	1	0	90	36.1581920903955	36.241610738255	11	0.366705107968301	2	9	6	NaN	2	4	0.0498346531438693	0	1	NaN	411	7	33	2	120	220	320	NaN	520	0.413847128162161	2	1	NaN	1385482.7775169	NaN	1385483.7609051	1385484.27746747
4	19	1	0	90	36.1581920903955	36.241610738255	9	0.300031451974064	2	8	6	NaN	2	5	0.0498346531438693	0	1	NaN	412	7	34	2	120	220	320	NaN	520	0.240661788033321	2	1	NaN	1385485.5111163	NaN	1385486.4944986	1385487.01106471
4	19	1	0	90	36.1581920903955	36.241610738255	9	0.300031451974064	2	2	5	NaN	1	4	0.0498346531438693	0	1	NaN	413	7	35	2	120	220	320	NaN	520	0.28191002830863	1	1	NaN	1385488.0613448	NaN	1385489.0447503	1385489.56131667
4	19	1	0	90	36.1581920903955	36.241610738255	14	0.466715591959655	2	1	5	NaN	1	5	0.0498346531438693	0	1	NaN	414	7	36	2	120	220	320	NaN	520	0.35361722833477	1	1	NaN	1385490.6616265	NaN	1385491.6450398	1385492.16157487
4	19	1	0	90	36.1581920903955	36.241610738255	15	0.500052419956774	2	4	1	NaN	1	5	0.0498346531438693	0	1	NaN	415	7	37	2	120	220	320	NaN	520	0.20678352820687	1	1	NaN	1385493.3285437	NaN	1385494.3119403	1385494.82849467
4	19	1	0	90	36.1581920903955	36.241610738255	6	0.200020967982709	2	7	1	NaN	2	3	0.0498346531438693	0	1	NaN	416	7	38	2	120	220	320	NaN	520	0.313904276350513	2	1	NaN	1385495.8454794	NaN	1385496.8288541	1385497.34540712
4	19	1	0	90	36.1581920903955	36.241610738255	7	0.233357795979828	2	1	3	NaN	1	5	0.0498346531438693	0	1	NaN	417	7	39	2	120	220	320	NaN	520	0.264913972234353	2	0	NaN	1385498.462286	NaN	1385499.4457601	1385499.96232553
4	19	1	0	90	36.1581920903955	36.241610738255	15	0.500052419956774	2	5	1	NaN	1	3	0.0498346531438693	0	1	NaN	418	7	40	2	120	220	320	NaN	520	0.346129480050877	2	0	NaN	1385501.0293031	NaN	1385502.0127159	1385502.52925362
4	19	1	0	90	36.1581920903955	36.241610738255	18	0.600062903948128	2	1	3	NaN	1	4	0.0498346531438693	0	1	NaN	419	7	41	2	120	220	320	NaN	520	0.35100247617811	1	1	NaN	1385503.6962414	NaN	1385504.6796232	1385505.19618132
4	19	1	0	90	36.1581920903955	36.241610738255	11	0.366705107968301	2	3	4	NaN	1	4	0.0498346531438693	0	1	NaN	420	7	42	2	120	220	320	NaN	520	0.372106276219711	1	1	NaN	1385506.3631561	NaN	1385507.3465432	1385507.86311102
4	19	1	0	90	36.1581920903955	36.241610738255	14	0.466715591959655	2	4	2	NaN	1	3	0.0498346531438693	0	1	NaN	421	7	43	2	120	220	320	NaN	520	0.192573880311102	2	0	NaN	1385509.0466644	NaN	1385510.0301544	1385510.54670832
4	19	1	0	90	36.1581920903955	36.241610738255	24	0.800083871930838	2	7	3	NaN	2	5	0.0498346531438693	0	1	NaN	422	7	44	2	120	220	320	NaN	520	0.276450828183442	1	0	NaN	1385511.5469967	NaN	1385512.530386	1385513.04695797
4	19	1	0	90	36.1581920903955	36.241610738255	20	0.666736559942365	2	4	5	NaN	1	5	0.0498346531438693	0	1	NaN	423	7	45	2	120	220	320	NaN	520	0.0846663282718509	1	1	NaN	1385514.1305937	NaN	1385515.1140187	1385515.63054387
4	19	1	0	90	36.1581920903955	36.241610738255	15	0.500052419956774	2	6	6	NaN	1	4	0.0498346531438693	0	1	NaN	424	7	46	2	120	220	320	NaN	520	0.0104127763770521	1	1	NaN	1385516.5142014	NaN	1385517.4975656	1385518.01410592
4	19	1	0	90	36.1581920903955	36.241610738255	11	0.366705107968301	2	1	2	NaN	1	5	0.0498346531438693	0	1	NaN	425	7	47	2	120	220	320	NaN	520	1.28832992818207	2	0	NaN	1385518.8310383	NaN	1385519.8144335	1385520.33100487
4	19	1	0	90	36.1581920903955	36.241610738255	24	0.800083871930838	2	11	3	NaN	2	3	0.0498346531438693	0	1	NaN	426	7	48	2	120	220	320	NaN	520	0.415926076238975	2	1	NaN	1385522.4313439	NaN	1385523.4147923	1385523.93134782
4	19	1	0	90	36.1581920903955	36.241610738255	14	0.466715591959655	2	1	1	NaN	1	3	0.0498346531438693	0	1	NaN	427	7	49	2	120	220	320	NaN	520	0.291074676206335	2	0	NaN	1385525.1482866	NaN	1385526.1317123	1385526.64828992
4	19	1	0	90	36.1581920903955	36.241610738255	19	0.633399731945246	2	8	1	NaN	2	4	0.0498346531438693	0	1	NaN	428	7	50	2	120	220	320	NaN	520	0.299134984146804	2	1	NaN	1385527.7486256	NaN	1385528.7319866	1385529.24854232
4	19	1	0	90	36.1581920903955	36.241610738255	10	0.333368279971182	2	7	1	NaN	2	3	0.0498346531438693	0	1	NaN	429	7	51	2	120	220	320	NaN	520	0.242292124312371	2	1	NaN	1385530.3655305	NaN	1385531.3489226	1385531.86546988
4	19	1	0	90	36.1581920903955	36.241610738255	12	0.400041935965419	2	7	4	NaN	2	4	0.0498346531438693	0	1	NaN	430	7	52	2	120	220	320	NaN	520	0.251580076292157	2	1	NaN	1385532.9157763	NaN	1385533.8991728	1385534.41571482
4	19	1	0	90	36.1581920903955	36.241610738255	15	0.500052419956774	2	9	3	NaN	2	5	0.0498346531438693	0	1	NaN	431	7	53	2	120	220	320	NaN	520	0.12444912828505	2	1	NaN	1385535.4826903	NaN	1385536.4661214	1385536.98263887
4	19	1	0	90	36.1581920903955	36.241610738255	13	0.433378763962537	2	11	1	NaN	2	3	0.0498346531438693	0	1	NaN	432	7	54	2	120	220	320	NaN	520	0.355061979964375	2	1	NaN	1385537.9162116	NaN	1385538.8996452	1385539.41621342
4	19	1	0	90	36.1581920903955	36.241610738255	12	0.400041935965419	2	7	2	NaN	2	3	0.0498346531438693	0	1	NaN	433	7	55	2	120	220	320	NaN	520	0.248622528277338	1	0	NaN	1385540.5831986	NaN	1385541.5665865	1385542.08313807
4	19	1	0	90	36.1581920903955	36.241610738255	21	0.700073387939483	2	12	2	NaN	2	5	0.0498346531438693	0	1	NaN	434	7	56	2	120	220	320	NaN	520	0.217566728359088	2	1	NaN	1385543.1500897	NaN	1385544.1335077	1385544.65006337
4	19	1	0	90	36.1581920903955	36.241610738255	14	0.466715591959655	2	8	3	NaN	2	5	0.0498346531438693	0	1	NaN	435	7	57	2	120	220	320	NaN	520	0.26006562798284	1	0	NaN	1385545.6837112	NaN	1385546.6670835	1385547.18364447
4	19	1	0	90	36.1581920903955	36.241610738255	13	0.433378763962537	2	9	2	NaN	2	4	0.0498346531438693	0	1	NaN	436	7	58	2	120	220	320	NaN	520	0.253420276334509	0	0	NaN	1385548.250612	NaN	1385549.234003	1385549.75055912
4	19	1	0	90	36.1581920903955	36.241610738255	18	0.600062903948128	2	3	6	NaN	1	3	0.0498346531438693	0	1	NaN	437	7	59	2	120	220	320	NaN	520	1.56586782820523	2	0	NaN	1385550.8174583	NaN	1385551.8009108	1385552.31747587
4	19	1	0	90	36.1581920903955	36.241610738255	9	0.300031451974064	2	11	6	NaN	2	5	0.0498346531438693	0	1	NaN	438	7	60	2	120	220	320	NaN	520	0.354544976260513	2	1	NaN	1385554.7012359	NaN	1385555.684628	1385556.20118432
4	19	1	0	90	36.1581920903955	36.241610738255	12	0.400041935965419	2	11	2	NaN	2	3	0.0498346531438693	0	1	NaN	439	7	61	2	120	220	320	NaN	520	0.0103917282540351	2	1	NaN	1385557.3681707	NaN	1385558.3515795	1385558.86812607
4	19	1	0	90	36.1581920903955	36.241610738255	10	0.333368279971182	2	9	1	NaN	2	5	0.0498346531438693	0	1	NaN	440	7	62	2	120	220	320	NaN	520	0.0103993280790746	2	1	NaN	1385559.6850864	NaN	1385560.668362	1385561.18501627
4	19	1	0	90	36.1581920903955	36.241610738255	15	0.500052419956774	2	6	4	NaN	1	3	0.0498346531438693	0	1	NaN	441	7	63	2	120	220	320	NaN	520	0.0375569283496588	1	1	NaN	1385562.0018266	NaN	1385562.9853439	1385563.50191337
4	19	1	0	90	36.1581920903955	36.241610738255	10	0.333368279971182	2	8	2	NaN	2	3	0.0498346531438693	0	1	NaN	442	8	1	2	120	220	320	NaN	520	0.605172232259065	2	1	NaN	1385582.5706481	NaN	1385583.5540295	1385584.07060007
4	19	1	0	90	36.1581920903955	36.241610738255	22	0.733410215936601	2	1	1	NaN	1	5	0.0498346531438693	0	1	NaN	443	8	2	2	120	220	320	NaN	520	0.223898076219484	2	0	NaN	1385585.4875384	NaN	1385586.4710336	1385586.98754882
4	19	1	0	90	36.1581920903955	36.241610738255	0	0	1	11	4	NaN	2	5	0.0498346531438693	0	1	NaN	444	8	3	2	110	210	310	NaN	510	1.03451202809811	2	1	NaN	1385588.0211704	NaN	1385589.0045702	1385589.52112627
4	19	1	0	90	36.1581920903955	36.241610738255	6	0.200020967982709	2	8	3	NaN	2	5	0.0498346531438693	0	1	NaN	445	8	4	2	120	220	320	NaN	520	0.4280858959537	2	1	NaN	1385591.3715172	NaN	1385592.3549188	1385592.8714662
4	19	1	0	90	36.1581920903955	36.241610738255	24	0.800083871930838	2	8	5	NaN	2	5	0.0498346531438693	0	1	NaN	446	8	5	2	120	220	320	NaN	520	0.318713028216735	2	1	NaN	1385594.1051159	NaN	1385595.0884858	1385595.60506617
4	19	1	0	90	36.1581920903955	36.241610738255	14	0.466715591959655	2	2	1	NaN	1	4	0.0498346531438693	0	1	NaN	447	8	6	2	120	220	320	NaN	520	0.231499828165397	2	0	NaN	1385596.8720118	NaN	1385597.8554526	1385598.37202087
4	19	1	0	90	36.1581920903955	36.241610738255	21	0.700073387939483	2	2	1	NaN	1	3	0.0498346531438693	0	1	NaN	448	8	7	2	120	220	320	NaN	520	0.324001176282763	1	1	NaN	1385599.5556272	NaN	1385600.5390423	1385601.05559992
4	19	1	0	90	36.1581920903955	36.241610738255	10	0.333368279971182	2	12	4	NaN	2	3	0.0498346531438693	0	1	NaN	449	8	8	2	120	220	320	NaN	520	0.218324676156044	2	1	NaN	1385602.1892472	NaN	1385603.1726339	1385603.68918662
4	19	1	0	90	36.1581920903955	36.241610738255	20	0.666736559942365	2	5	5	NaN	1	5	0.0498346531438693	0	1	NaN	450	8	9	2	120	220	320	NaN	520	0.236584276193753	1	1	NaN	1385604.7228229	NaN	1385605.7062426	1385606.22276362
4	19	1	0	90	36.1581920903955	36.241610738255	15	0.500052419956774	2	1	5	NaN	1	5	0.0498346531438693	0	1	NaN	451	8	10	2	120	220	320	NaN	520	0.2628246282693	1	1	NaN	1385607.2729511	NaN	1385608.2564821	1385608.77302507
4	19	1	0	90	36.1581920903955	36.241610738255	23	0.766747043933719	2	8	6	NaN	2	3	0.0498346531438693	0	1	NaN	452	8	11	2	120	220	320	NaN	520	0.271188940154389	1	0	NaN	1385609.8566562	NaN	1385610.8400576	1385611.35660816
4	19	1	0	90	36.1581920903955	36.241610738255	15	0.500052419956774	2	10	4	NaN	2	5	0.0498346531438693	0	1	NaN	453	8	12	2	120	220	320	NaN	520	0.367532064439729	2	1	NaN	1385612.4402359	NaN	1385613.4236517	1385613.94019304
4	19	1	0	90	36.1581920903955	36.241610738255	10	0.333368279971182	2	4	1	NaN	1	4	0.0498346531438693	0	1	NaN	454	8	13	2	120	220	320	NaN	520	0.347705792170018	1	1	NaN	1385615.1238525	NaN	1385616.1071397	1385616.62379031
4	19	1	0	90	36.1581920903955	36.241610738255	10	0.333368279971182	2	5	1	NaN	1	4	0.0498346531438693	0	1	NaN	455	8	14	2	120	220	320	NaN	520	0.328626780305058	1	1	NaN	1385617.7906705	NaN	1385618.7741565	1385619.29072822
4	19	1	0	90	36.1581920903955	36.241610738255	14	0.466715591959655	2	6	3	NaN	1	3	0.0498346531438693	0	1	NaN	456	8	15	2	120	220	320	NaN	520	0.775093128206208	1	1	NaN	1385620.4242434	NaN	1385621.4077567	1385621.92431527
4	19	1	0	90	36.1581920903955	36.241610738255	7	0.233357795979828	2	8	1	NaN	2	3	0.0498346531438693	0	1	NaN	457	8	16	2	120	220	320	NaN	520	0.467913676286116	2	1	NaN	1385623.5080314	NaN	1385624.4914014	1385625.00795242
4	19	1	0	90	36.1581920903955	36.241610738255	11	0.366705107968301	2	5	5	NaN	1	3	0.0498346531438693	0	1	NaN	458	8	17	2	120	220	320	NaN	520	0.351213940186426	1	1	NaN	1385626.608169	NaN	1385627.591705	1385628.10826006
4	19	1	0	90	36.1581920903955	36.241610738255	7	0.233357795979828	2	3	2	NaN	1	3	0.0498346531438693	0	1	NaN	459	8	18	2	120	220	320	NaN	520	0.412455476354808	1	1	NaN	1385629.2752309	NaN	1385630.2586237	1385630.77517902
4	19	1	0	90	36.1581920903955	36.241610738255	18	0.600062903948128	2	11	5	NaN	2	5	0.0498346531438693	0	1	NaN	460	8	19	2	120	220	320	NaN	520	0.126621128059924	2	1	NaN	1385632.0088349	NaN	1385632.9922244	1385633.50878397
