subjno	age	gender	isPractice	viewdist	CmToPixX	CmToPixY	SOA_frm	SOA_time	targNum	targID	targExample	targRace	targGender	firstTargPos	contrast	familiarity	curr_staircase	iStair	TrialNum	BlockNum	blktrl	sessionNum	TC_FIXATION	TC_RSVP_START	TC_RSVP_END	TC_BLANK	TC_RESPONSE_ONSET	RT2afc	resp_2afc	acc	RSVPOnsetVBL	RSVPOnsetTime	RSVPOffsetVBL	RSVPOffsetTime	startrt_2afc
76	19	0	0	90	36.1581920903955	36.241610738255	13	0.433403567969799	2	7	4	NaN	2	4	0.0373219555907749	1	1	NaN	1	1	1	1	121	221	321	NaN	521	1.7714354400523	2	1	NaN	3355420.3159391	NaN	3355421.2992192	3355421.83236886
76	19	0	0	90	36.1581920903955	36.241610738255	25	0.833468399941921	2	2	6	NaN	1	5	0.0373219555907749	1	1	NaN	2	1	2	1	121	221	321	NaN	521	0.629641739651561	2	0	NaN	3355424.4496992	NaN	3355425.4329629	3355425.96610276
76	19	0	0	90	36.1581920903955	36.241610738255	13	0.433403567969799	2	3	1	NaN	1	4	0.0373219555907749	1	1	NaN	3	1	3	1	121	221	321	NaN	521	0.558801389299333	1	1	NaN	3355427.4164413	NaN	3355428.399838	3355428.93305621
76	19	0	0	90	36.1581920903955	36.241610738255	10	0.333387359976768	2	12	6	NaN	2	4	0.0373219555907749	1	1	NaN	4	1	4	1	121	221	321	NaN	521	0.715195786673576	2	1	NaN	3355430.3167635	NaN	3355431.3001053	3355431.81668271
76	19	0	0	90	36.1581920903955	36.241610738255	6	0.200032415986061	2	6	3	NaN	1	4	0.0373219555907749	1	1	NaN	5	1	5	1	121	221	321	NaN	521	0.753467486705631	1	1	NaN	3355433.3503648	NaN	3355434.3337848	3355434.85031251
76	19	0	0	90	36.1581920903955	36.241610738255	15	0.500081039965153	2	10	6	NaN	2	4	0.0373219555907749	1	1	NaN	6	1	6	1	121	221	321	NaN	521	0.582126086577773	1	0	NaN	3355436.4339922	NaN	3355437.4173955	3355437.93394351
76	19	0	0	90	36.1581920903955	36.241610738255	15	0.500081039965153	2	4	2	NaN	1	3	0.0373219555907749	1	1	NaN	7	1	7	1	121	221	321	NaN	521	0.353420787025243	1	1	NaN	3355439.3342835	NaN	3355440.3176564	3355440.83422871
76	19	0	0	90	36.1581920903955	36.241610738255	9	0.300048623979092	2	4	3	NaN	1	4	0.0373219555907749	1	1	NaN	8	1	8	1	121	221	321	NaN	521	0.326463335659355	1	1	NaN	3355442.0010889	NaN	3355442.984601	3355443.50115886
76	19	0	0	90	36.1581920903955	36.241610738255	20	0.666774719953537	2	4	2	NaN	1	4	0.0373219555907749	1	1	NaN	9	1	9	1	121	221	321	NaN	521	0.428206335753202	1	1	NaN	3355444.651464	NaN	3355445.6349279	3355446.15141166
76	19	0	0	90	36.1581920903955	36.241610738255	16	0.53341977596283	2	2	1	NaN	1	4	0.0373219555907749	1	1	NaN	10	1	10	1	121	221	321	NaN	521	0.341979886870831	1	1	NaN	3355447.4017385	NaN	3355448.3852206	3355448.90169321
76	19	0	0	90	36.1581920903955	36.241610738255	13	0.433403567969799	2	5	6	NaN	1	5	0.0373219555907749	1	1	NaN	11	1	11	1	121	221	321	NaN	521	0.338936084415764	1	1	NaN	3355450.0686608	NaN	3355451.0520597	3355451.56861092
76	19	0	0	90	36.1581920903955	36.241610738255	17	0.566758511960507	2	9	6	NaN	2	4	0.0373219555907749	1	1	NaN	12	1	12	1	121	221	321	NaN	521	0.248961135745049	2	1	NaN	3355452.7189402	NaN	3355453.7023177	3355454.21888196
76	19	0	0	90	36.1581920903955	36.241610738255	23	0.766790927946568	2	5	2	NaN	1	4	0.0373219555907749	1	1	NaN	13	1	13	1	121	221	321	NaN	521	0.545867186505347	2	0	NaN	3355455.2858402	NaN	3355456.2692498	3355456.78579411
76	19	0	0	90	36.1581920903955	36.241610738255	0	0	1	4	4	NaN	1	4	0.0373219555907749	1	1	NaN	14	1	14	1	111	211	311	NaN	511	0.366897986736149	1	1	NaN	3355458.1527983	NaN	3355459.1361915	3355459.65274521
76	19	0	0	90	36.1581920903955	36.241610738255	7	0.233371151983738	2	12	1	NaN	2	4	0.0373219555907749	1	1	NaN	15	1	15	1	121	221	321	NaN	521	0.72342898696661	2	1	NaN	3355460.8363899	NaN	3355461.8198008	3355462.33633581
76	19	0	0	90	36.1581920903955	36.241610738255	15	0.500081039965153	2	7	4	NaN	2	5	0.0373219555907749	1	1	NaN	16	1	16	1	121	221	321	NaN	521	0.505894589237869	1	0	NaN	3355463.8699105	NaN	3355464.8534169	3355465.36997781
76	19	0	0	90	36.1581920903955	36.241610738255	15	0.500081039965153	2	1	1	NaN	1	4	0.0373219555907749	1	1	NaN	17	1	17	1	121	221	321	NaN	521	0.0162301980890334	1	1	NaN	3355466.7036366	NaN	3355467.687049	3355468.2035972
76	19	0	0	90	36.1581920903955	36.241610738255	20	0.666774719953537	2	7	4	NaN	2	5	0.0373219555907749	1	1	NaN	18	1	18	1	121	221	321	NaN	521	0.858791186474264	1	0	NaN	3355469.0371997	NaN	3355470.0205883	3355470.53714771
76	19	0	0	90	36.1581920903955	36.241610738255	11	0.366726095974445	2	7	1	NaN	2	4	0.0373219555907749	1	1	NaN	19	1	19	1	121	221	321	NaN	521	1.01931179547682	2	1	NaN	3355472.2208761	NaN	3355473.2042297	3355473.7207914
76	19	0	0	90	36.1581920903955	36.241610738255	8	0.266709887981415	2	4	2	NaN	1	5	0.0373219555907749	1	1	NaN	20	1	20	1	121	221	321	NaN	521	0.509602738078684	1	1	NaN	3355475.554423	NaN	3355476.5378931	3355477.05446076
76	19	0	0	90	36.1581920903955	36.241610738255	20	0.666774719953537	2	6	4	NaN	1	5	0.0373219555907749	1	1	NaN	21	1	21	1	121	221	321	NaN	521	0.931720189284533	1	1	NaN	3355478.3881137	NaN	3355479.371494	3355479.88806431
76	19	0	0	90	36.1581920903955	36.241610738255	11	0.366726095974445	2	8	5	NaN	2	4	0.0373219555907749	1	1	NaN	22	1	22	1	121	221	321	NaN	521	0.60941643640399	2	1	NaN	3355481.6384421	NaN	3355482.6218235	3355483.13837976
76	19	0	0	90	36.1581920903955	36.241610738255	6	0.200032415986061	2	6	6	NaN	1	3	0.0373219555907749	1	1	NaN	23	1	23	1	121	221	321	NaN	521	0.515830838121474	1	1	NaN	3355484.5720696	NaN	3355485.5554636	3355486.07201176
76	19	0	0	90	36.1581920903955	36.241610738255	6	0.200032415986061	2	8	1	NaN	2	4	0.0373219555907749	1	1	NaN	24	1	24	1	121	221	321	NaN	521	0.746529386844486	2	1	NaN	3355487.4056744	NaN	3355488.3890723	3355488.90561981
76	19	0	0	90	36.1581920903955	36.241610738255	25	0.833468399941921	2	8	4	NaN	2	4	0.0373219555907749	1	1	NaN	25	1	25	1	121	221	321	NaN	521	0.679213786497712	1	0	NaN	3355490.4726329	NaN	3355491.4560152	3355491.97258481
76	19	0	0	90	36.1581920903955	36.241610738255	12	0.400064831972122	2	11	4	NaN	2	3	0.0373219555907749	1	1	NaN	26	1	26	1	121	221	321	NaN	521	0.527212785091251	2	1	NaN	3355493.4729367	NaN	3355494.4563234	3355494.97287202
76	19	0	0	90	36.1581920903955	36.241610738255	10	0.333387359976768	2	2	3	NaN	1	4	0.0373219555907749	1	1	NaN	27	1	27	1	121	221	321	NaN	521	0.47659438662231	1	1	NaN	3355496.3231724	NaN	3355497.3066169	3355497.82315971
76	19	0	0	90	36.1581920903955	36.241610738255	25	0.833468399941921	2	4	1	NaN	1	3	0.0373219555907749	1	1	NaN	28	1	28	1	121	221	321	NaN	521	2.00425428664312	2	0	NaN	3355499.1234936	NaN	3355500.1068768	3355500.62343491
76	19	0	0	90	36.1581920903955	36.241610738255	17	0.566758511960507	2	11	6	NaN	2	4	0.0373219555907749	1	1	NaN	29	1	29	1	121	221	321	NaN	521	0.247294286731631	2	1	NaN	3355503.4405843	NaN	3355504.4239881	3355504.94052311
76	19	0	0	90	36.1581920903955	36.241610738255	13	0.433403567969799	2	4	3	NaN	1	4	0.0373219555907749	1	1	NaN	30	1	30	1	121	221	321	NaN	521	0.376730184536427	1	1	NaN	3355506.0075036	NaN	3355506.9908825	3355507.50745122
76	19	0	0	90	36.1581920903955	36.241610738255	19	0.63343598395586	2	8	2	NaN	2	3	0.0373219555907749	1	1	NaN	31	1	31	1	121	221	321	NaN	521	0.412148638162762	1	0	NaN	3355508.707758	NaN	3355509.6911549	3355510.20771356
76	19	0	0	90	36.1581920903955	36.241610738255	9	0.300048623979092	2	9	5	NaN	2	5	0.0373219555907749	1	1	NaN	32	1	32	1	121	221	321	NaN	521	0.414477886632085	2	1	NaN	3355511.4412336	NaN	3355512.4247633	3355512.94131691
76	19	0	0	90	36.1581920903955	36.241610738255	14	0.466742303967476	2	11	4	NaN	2	3	0.0373219555907749	1	1	NaN	33	1	33	1	121	221	321	NaN	521	0.545049086678773	1	0	NaN	3355514.1749663	NaN	3355515.1583731	3355515.67490881
76	19	0	0	90	36.1581920903955	36.241610738255	24	0.800129663944244	2	6	4	NaN	1	5	0.0373219555907749	1	1	NaN	34	1	34	1	121	221	321	NaN	521	0.334272289182991	1	1	NaN	3355517.04192	NaN	3355518.0253442	3355518.54187071
76	19	0	0	90	36.1581920903955	36.241610738255	12	0.400064831972122	2	7	6	NaN	2	5	0.0373219555907749	1	1	NaN	35	1	35	1	121	221	321	NaN	521	0.56384223792702	2	1	NaN	3355519.6921662	NaN	3355520.6755568	3355521.19212786
76	19	0	0	90	36.1581920903955	36.241610738255	10	0.333387359976768	2	5	6	NaN	1	3	0.0373219555907749	1	1	NaN	36	1	36	1	121	221	321	NaN	521	0.600127184763551	2	0	NaN	3355522.5758064	NaN	3355523.5591855	3355524.07573142
76	19	0	0	90	36.1581920903955	36.241610738255	16	0.53341977596283	2	5	4	NaN	1	4	0.0373219555907749	1	1	NaN	37	1	37	1	121	221	321	NaN	521	0.307164486497641	1	1	NaN	3355525.4927569	NaN	3355526.4761194	3355526.99268621
76	19	0	0	90	36.1581920903955	36.241610738255	15	0.500081039965153	2	5	3	NaN	1	5	0.0373219555907749	1	1	NaN	38	1	38	1	121	221	321	NaN	521	0.330186946783215	1	1	NaN	3355528.1096704	NaN	3355529.0930596	3355529.60964545
76	19	0	0	90	36.1581920903955	36.241610738255	19	0.63343598395586	2	9	1	NaN	2	5	0.0373219555907749	1	1	NaN	39	1	39	1	121	221	321	NaN	521	0.928333686664701	1	0	NaN	3355530.7599375	NaN	3355531.7433232	3355532.25988271
76	19	0	0	90	36.1581920903955	36.241610738255	14	0.466742303967476	2	6	6	NaN	1	5	0.0373219555907749	1	1	NaN	40	1	40	1	121	221	321	NaN	521	0.461640086956322	1	1	NaN	3355534.010256	NaN	3355534.9936415	3355535.51019631
76	19	0	0	90	36.1581920903955	36.241610738255	25	0.833468399941921	2	12	2	NaN	2	4	0.0373219555907749	1	1	NaN	41	1	41	1	121	221	321	NaN	521	0.34285358665511	1	0	NaN	3355536.7772009	NaN	3355537.7605683	3355538.27712791
76	19	0	0	90	36.1581920903955	36.241610738255	22	0.733452191948891	2	2	6	NaN	1	5	0.0373219555907749	1	1	NaN	42	1	42	1	121	221	321	NaN	521	0.404305986594409	2	0	NaN	3355539.4274496	NaN	3355540.410831	3355540.92739631
76	19	0	0	90	36.1581920903955	36.241610738255	21	0.700113455951214	2	6	2	NaN	1	3	0.0373219555907749	1	1	NaN	43	1	43	1	121	221	321	NaN	521	0.831938738003373	1	1	NaN	3355542.1443749	NaN	3355543.1277815	3355543.64432976
76	19	0	0	90	36.1581920903955	36.241610738255	19	0.63343598395586	2	11	4	NaN	2	5	0.0373219555907749	1	1	NaN	44	1	44	1	121	221	321	NaN	521	0.353507942520082	2	1	NaN	3355545.2946876	NaN	3355546.2779815	3355546.79464116
76	19	0	0	90	36.1581920903955	36.241610738255	15	0.500081039965153	2	7	5	NaN	2	3	0.0373219555907749	1	1	NaN	45	1	45	1	121	221	321	NaN	521	0.326449142303318	1	0	NaN	3355547.9616162	NaN	3355548.9449893	3355549.46156826
76	19	0	0	90	36.1581920903955	36.241610738255	16	0.53341977596283	2	10	6	NaN	2	5	0.0373219555907749	1	1	NaN	46	1	46	1	121	221	321	NaN	521	0.348739386536181	2	1	NaN	3355550.5952232	NaN	3355551.578634	3355552.09515421
76	19	0	0	90	36.1581920903955	36.241610738255	17	0.566758511960507	2	7	2	NaN	2	5	0.0373219555907749	1	1	NaN	47	1	47	1	121	221	321	NaN	521	0.489713886752725	1	0	NaN	3355553.2621295	NaN	3355554.2455317	3355554.76208091
76	19	0	0	90	36.1581920903955	36.241610738255	0	0	1	8	5	NaN	2	5	0.0373219555907749	1	1	NaN	48	1	48	1	111	211	311	NaN	511	0.0104418359696865	2	1	NaN	3355556.0624043	NaN	3355557.0458061	3355557.56236866
76	19	0	0	90	36.1581920903955	36.241610738255	21	0.700113455951214	2	11	4	NaN	2	3	0.0373219555907749	1	1	NaN	49	1	49	1	121	221	321	NaN	521	0.252155488822609	1	0	NaN	3355558.3959738	NaN	3355559.3794774	3355559.89592221
76	19	0	0	90	36.1581920903955	36.241610738255	13	0.433403567969799	2	10	6	NaN	2	4	0.0373219555907749	1	1	NaN	50	1	50	1	121	221	321	NaN	521	0.357782886829227	2	1	NaN	3355560.9462926	NaN	3355561.9296144	3355562.44616841
76	19	0	0	90	36.1581920903955	36.241610738255	8	0.266709887981415	2	12	3	NaN	2	5	0.0373219555907749	1	1	NaN	51	1	51	1	121	221	321	NaN	521	0.618689486756921	2	1	NaN	3355563.6131532	NaN	3355564.59654	3355565.11309931
76	19	0	0	90	36.1581920903955	36.241610738255	12	0.400064831972122	2	12	5	NaN	2	4	0.0373219555907749	1	1	NaN	52	1	52	1	121	221	321	NaN	521	0.597132586408406	2	1	NaN	3355566.546767	NaN	3355567.5301715	3355568.04672831
76	19	0	0	90	36.1581920903955	36.241610738255	22	0.733452191948891	2	9	1	NaN	2	3	0.0373219555907749	1	1	NaN	53	1	53	1	121	221	321	NaN	521	0.296000986825675	1	0	NaN	3355569.4635894	NaN	3355570.4471229	3355570.96367551
76	19	0	0	90	36.1581920903955	36.241610738255	22	0.733452191948891	2	8	3	NaN	2	3	0.0373219555907749	1	1	NaN	54	1	54	1	121	221	321	NaN	521	0.367641286924481	2	1	NaN	3355572.0806376	NaN	3355573.0640124	3355573.58060651
76	19	0	0	90	36.1581920903955	36.241610738255	10	0.333387359976768	2	5	4	NaN	1	4	0.0373219555907749	1	1	NaN	55	1	55	1	121	221	321	NaN	521	0.379691237583756	1	1	NaN	3355574.7642338	NaN	3355575.7476412	3355576.26419946
76	19	0	0	90	36.1581920903955	36.241610738255	22	0.733452191948891	2	7	1	NaN	2	5	0.0373219555907749	1	1	NaN	56	1	56	1	121	221	321	NaN	521	0.719350237865001	2	1	NaN	3355577.4645077	NaN	3355578.447939	3355578.96447006
76	19	0	0	90	36.1581920903955	36.241610738255	22	0.733452191948891	2	11	2	NaN	2	3	0.0373219555907749	1	1	NaN	57	1	57	1	121	221	321	NaN	521	0.501727085094899	1	0	NaN	3355580.4981548	NaN	3355581.4815376	3355581.99808942
76	19	0	0	90	36.1581920903955	36.241610738255	6	0.200032415986061	2	5	5	NaN	1	5	0.0373219555907749	1	1	NaN	58	1	58	1	121	221	321	NaN	521	0.452798884827644	1	1	NaN	3355583.315082	NaN	3355584.2984776	3355584.81504112
76	19	0	0	90	36.1581920903955	36.241610738255	11	0.366726095974445	2	10	3	NaN	2	3	0.0373219555907749	1	1	NaN	59	1	59	1	121	221	321	NaN	521	0.726255889050663	1	0	NaN	3355586.0820287	NaN	3355587.0654724	3355587.58197231
76	19	0	0	90	36.1581920903955	36.241610738255	19	0.63343598395586	2	6	2	NaN	1	4	0.0373219555907749	1	1	NaN	60	1	60	1	121	221	321	NaN	521	1.18818078469485	2	0	NaN	3355589.1156637	NaN	3355590.0990615	3355590.61560342
76	19	0	0	90	36.1581920903955	36.241610738255	0	0	1	3	6	NaN	1	3	0.0373219555907749	1	1	NaN	61	1	61	1	111	211	311	NaN	511	0.407960637938231	1	1	NaN	3355592.6159043	NaN	3355593.5993902	3355594.11595836
76	19	0	0	90	36.1581920903955	36.241610738255	23	0.766790927946568	2	7	6	NaN	2	5	0.0373219555907749	1	1	NaN	62	1	62	1	121	221	321	NaN	521	0.155381638091058	2	1	NaN	3355595.3328825	NaN	3355596.3163326	3355596.83288326
76	19	0	0	90	36.1581920903955	36.241610738255	0	0	1	11	6	NaN	2	3	0.0373219555907749	1	1	NaN	63	1	63	1	111	211	311	NaN	511	0.344425486866385	1	0	NaN	3355597.7998456	NaN	3355598.7832553	3355599.29979181
76	19	0	0	90	36.1581920903955	36.241610738255	19	0.63343598395586	2	12	3	NaN	2	3	0.0373219555907749	1	1	NaN	64	2	1	1	121	221	321	NaN	521	0.167387386783957	2	1	NaN	3355605.400556	NaN	3355606.383971	3355606.90054261
76	19	0	0	90	36.1581920903955	36.241610738255	24	0.800129663944244	2	4	1	NaN	1	5	0.0373219555907749	1	1	NaN	65	2	2	1	121	221	321	NaN	521	0.268213286530226	1	1	NaN	3355607.884058	NaN	3355608.8675617	3355609.38413211
76	19	0	0	90	36.1581920903955	36.241610738255	17	0.566758511960507	2	3	3	NaN	1	5	0.0373219555907749	1	1	NaN	66	2	3	1	121	221	321	NaN	521	0.28462133789435	1	1	NaN	3355610.4677574	NaN	3355611.4511207	3355611.96770946
76	19	0	0	90	36.1581920903955	36.241610738255	15	0.500081039965153	2	1	6	NaN	1	4	0.0373219555907749	1	1	NaN	67	2	4	1	121	221	321	NaN	521	0.356155886780471	1	1	NaN	3355613.0680014	NaN	3355614.0514107	3355614.56795871
76	19	0	0	90	36.1581920903955	36.241610738255	8	0.266709887981415	2	2	3	NaN	1	4	0.0373219555907749	1	1	NaN	68	2	5	1	121	221	321	NaN	521	0.497358337976038	2	0	NaN	3355615.7347968	NaN	3355616.7183225	3355617.23488366
76	19	0	0	90	36.1581920903955	36.241610738255	11	0.366726095974445	2	10	2	NaN	2	4	0.0373219555907749	1	1	NaN	69	2	6	1	121	221	321	NaN	521	0.0961648891679943	2	1	NaN	3355618.5518874	NaN	3355619.5352769	3355620.05183641
76	19	0	0	90	36.1581920903955	36.241610738255	13	0.433403567969799	2	2	6	NaN	1	4	0.0373219555907749	1	1	NaN	70	2	7	1	121	221	321	NaN	521	0.14411063818261	1	1	NaN	3355620.9520304	NaN	3355621.93552	3355622.45206996
76	19	0	0	90	36.1581920903955	36.241610738255	8	0.266709887981415	2	5	5	NaN	1	4	0.0373219555907749	1	1	NaN	71	2	8	1	121	221	321	NaN	521	0.0776528380811214	1	1	NaN	3355623.4023842	NaN	3355624.3857524	3355624.90231106
76	19	0	0	90	36.1581920903955	36.241610738255	16	0.53341977596283	2	1	2	NaN	1	4	0.0373219555907749	1	1	NaN	72	2	9	1	121	221	321	NaN	521	0.0103346421383321	2	0	NaN	3355625.7859352	NaN	3355626.769342	3355627.28588736
76	19	0	0	90	36.1581920903955	36.241610738255	20	0.666774719953537	2	5	3	NaN	1	3	0.0373219555907749	1	1	NaN	73	2	10	1	121	221	321	NaN	521	0.3935551866889	1	1	NaN	3355628.1028293	NaN	3355629.0862137	3355629.60276831
76	19	0	0	90	36.1581920903955	36.241610738255	10	0.333387359976768	2	2	4	NaN	1	3	0.0373219555907749	1	1	NaN	74	2	11	1	121	221	321	NaN	521	0.325065986718982	1	1	NaN	3355630.8030852	NaN	3355631.786528	3355632.30303011
76	19	0	0	90	36.1581920903955	36.241610738255	14	0.466742303967476	2	10	3	NaN	2	5	0.0373219555907749	1	1	NaN	75	2	12	1	121	221	321	NaN	521	0.0104100867174566	1	0	NaN	3355633.4533388	NaN	3355634.4367412	3355634.95329571
76	19	0	0	90	36.1581920903955	36.241610738255	20	0.666774719953537	2	10	4	NaN	2	3	0.0373219555907749	1	1	NaN	76	2	13	1	121	221	321	NaN	521	0.373680384363979	1	0	NaN	3355635.7701511	NaN	3355636.7536597	3355637.27018962
76	19	0	0	90	36.1581920903955	36.241610738255	19	0.63343598395586	2	3	1	NaN	1	3	0.0373219555907749	1	1	NaN	77	2	14	1	121	221	321	NaN	521	0.362168937921524	1	1	NaN	3355638.453849	NaN	3355639.4372349	3355639.95378196
76	19	0	0	90	36.1581920903955	36.241610738255	16	0.53341977596283	2	8	5	NaN	2	5	0.0373219555907749	1	1	NaN	78	2	15	1	121	221	321	NaN	521	0.254564587026834	2	1	NaN	3355641.1374371	NaN	3355642.1208248	3355642.63738661
76	19	0	0	90	36.1581920903955	36.241610738255	24	0.800129663944244	2	10	6	NaN	2	3	0.0373219555907749	1	1	NaN	79	2	16	1	121	221	321	NaN	521	0.0238142376765609	2	1	NaN	3355643.7042431	NaN	3355644.6877513	3355645.20430986
76	19	0	0	90	36.1581920903955	36.241610738255	8	0.266709887981415	2	9	4	NaN	2	4	0.0373219555907749	1	1	NaN	80	2	17	1	121	221	321	NaN	521	0.458503486588597	2	1	NaN	3355646.0379141	NaN	3355647.0213463	3355647.53786661
76	19	0	0	90	36.1581920903955	36.241610738255	18	0.600097247958183	2	5	6	NaN	1	5	0.0373219555907749	1	1	NaN	81	2	18	1	121	221	321	NaN	521	0.46713208919391	1	1	NaN	3355648.8049552	NaN	3355649.7882519	3355650.30480381
76	19	0	0	90	36.1581920903955	36.241610738255	14	0.466742303967476	2	1	3	NaN	1	3	0.0373219555907749	1	1	NaN	82	2	19	1	121	221	321	NaN	521	0.411744438111782	2	0	NaN	3355651.5884646	NaN	3355652.57186	3355653.08841856
76	19	0	0	90	36.1581920903955	36.241610738255	11	0.366726095974445	2	3	6	NaN	1	5	0.0373219555907749	1	1	NaN	83	2	20	1	121	221	321	NaN	521	0.502860995940864	1	1	NaN	3355654.3053448	NaN	3355655.2887904	3355655.8053464
76	19	0	0	90	36.1581920903955	36.241610738255	15	0.500081039965153	2	12	6	NaN	2	5	0.0373219555907749	1	1	NaN	84	2	21	1	121	221	321	NaN	521	1.14220709353685	2	1	NaN	3355657.1223681	NaN	3355658.1057301	3355658.62228861
76	19	0	0	90	36.1581920903955	36.241610738255	16	0.53341977596283	2	11	6	NaN	2	5	0.0373219555907749	1	1	NaN	85	2	22	1	121	221	321	NaN	521	0.546159584540874	2	1	NaN	3355661.006053	NaN	3355661.9894644	3355662.50599802
76	19	0	0	90	36.1581920903955	36.241610738255	6	0.200032415986061	2	12	1	NaN	2	3	0.0373219555907749	1	1	NaN	86	2	23	1	121	221	321	NaN	521	0.423879638314247	1	0	NaN	3355663.856332	NaN	3355664.8397334	3355665.35628956
76	19	0	0	90	36.1581920903955	36.241610738255	23	0.766790927946568	2	12	6	NaN	2	4	0.0373219555907749	1	1	NaN	87	2	24	1	121	221	321	NaN	521	0.354250246658921	2	1	NaN	3355666.5899408	NaN	3355667.5733172	3355668.08989095
76	19	0	0	90	36.1581920903955	36.241610738255	20	0.666774719953537	2	2	2	NaN	1	4	0.0373219555907749	1	1	NaN	88	2	25	1	121	221	321	NaN	521	0.343069786671549	1	1	NaN	3355669.2567661	NaN	3355670.2402564	3355670.75681381
76	19	0	0	90	36.1581920903955	36.241610738255	11	0.366726095974445	2	9	6	NaN	2	3	0.0373219555907749	1	1	NaN	89	2	26	1	121	221	321	NaN	521	0.340819037985057	2	1	NaN	3355671.9071215	NaN	3355672.8905173	3355673.40707736
76	19	0	0	90	36.1581920903955	36.241610738255	11	0.366726095974445	2	5	6	NaN	1	4	0.0373219555907749	1	1	NaN	90	2	27	1	121	221	321	NaN	521	0.042667486704886	1	1	NaN	3355674.5573046	NaN	3355675.5407711	3355676.05733921
76	19	0	0	90	36.1581920903955	36.241610738255	0	0	1	10	5	NaN	2	3	0.0373219555907749	1	1	NaN	91	2	28	1	111	211	311	NaN	511	0.459737537894398	2	1	NaN	3355676.9243011	NaN	3355677.9076755	3355678.42423916
76	19	0	0	90	36.1581920903955	36.241610738255	10	0.333387359976768	2	9	1	NaN	2	4	0.0373219555907749	1	1	NaN	92	2	29	1	121	221	321	NaN	521	0.580126586835831	2	1	NaN	3355679.7079036	NaN	3355680.6913144	3355681.20783351
76	19	0	0	90	36.1581920903955	36.241610738255	18	0.600097247958183	2	1	6	NaN	1	4	0.0373219555907749	1	1	NaN	93	2	30	1	121	221	321	NaN	521	0.423963886685669	2	0	NaN	3355682.6081713	NaN	3355683.5915811	3355684.10811871
76	19	0	0	90	36.1581920903955	36.241610738255	20	0.666774719953537	2	1	3	NaN	1	4	0.0373219555907749	1	1	NaN	94	2	31	1	121	221	321	NaN	521	0.337042586877942	1	1	NaN	3355685.3751597	NaN	3355686.3585114	3355686.87506061
76	19	0	0	90	36.1581920903955	36.241610738255	20	0.666774719953537	2	8	6	NaN	2	5	0.0373219555907749	1	1	NaN	95	2	32	1	121	221	321	NaN	521	0.0869503868743777	2	1	NaN	3355688.0253158	NaN	3355689.0087639	3355689.52531981
76	19	0	0	90	36.1581920903955	36.241610738255	22	0.733452191948891	2	12	5	NaN	2	3	0.0373219555907749	1	1	NaN	96	2	33	1	121	221	321	NaN	521	0.806609137915075	2	1	NaN	3355690.425599	NaN	3355691.4090023	3355691.92555736
76	19	0	0	90	36.1581920903955	36.241610738255	11	0.366726095974445	2	1	2	NaN	1	4	0.0373219555907749	1	1	NaN	97	2	34	1	121	221	321	NaN	521	0.313876886386424	1	1	NaN	3355693.5425869	NaN	3355694.5259817	3355695.04252941
76	19	0	0	90	36.1581920903955	36.241610738255	17	0.566758511960507	2	10	1	NaN	2	5	0.0373219555907749	1	1	NaN	98	2	35	1	121	221	321	NaN	521	0.376461047213525	2	1	NaN	3355696.159439	NaN	3355697.1429009	3355697.65946335
76	19	0	0	90	36.1581920903955	36.241610738255	24	0.800129663944244	2	12	2	NaN	2	5	0.0373219555907749	1	1	NaN	99	2	36	1	121	221	321	NaN	521	0.548979686573148	2	1	NaN	3355698.8431061	NaN	3355699.826501	3355700.34305271
76	19	0	0	90	36.1581920903955	36.241610738255	22	0.733452191948891	2	1	4	NaN	1	5	0.0373219555907749	1	1	NaN	100	2	37	1	121	221	321	NaN	521	0.426548286806792	1	1	NaN	3355701.7100567	NaN	3355702.6934367	3355703.21000601
76	19	0	0	90	36.1581920903955	36.241610738255	0	0	1	4	6	NaN	1	5	0.0373219555907749	1	1	NaN	101	2	38	1	111	211	311	NaN	511	0.820508042350411	2	0	NaN	3355704.4436584	NaN	3355705.4271209	3355705.94359766
76	19	0	0	90	36.1581920903955	36.241610738255	9	0.300048623979092	2	7	3	NaN	2	5	0.0373219555907749	1	1	NaN	102	2	39	1	121	221	321	NaN	521	0.590959087014198	1	0	NaN	3355707.5772972	NaN	3355708.5607072	3355709.07723961
76	19	0	0	90	36.1581920903955	36.241610738255	21	0.700113455951214	2	3	6	NaN	1	4	0.0373219555907749	1	1	NaN	103	2	40	1	121	221	321	NaN	521	0.306552886962891	1	1	NaN	3355710.4774525	NaN	3355711.4609601	3355711.97752391
76	19	0	0	90	36.1581920903955	36.241610738255	0	0	1	11	2	NaN	2	3	0.0373219555907749	1	1	NaN	104	2	41	1	111	211	311	NaN	511	0.250014286488295	2	1	NaN	3355713.0944964	NaN	3355714.0779123	3355714.59445491
76	19	0	0	90	36.1581920903955	36.241610738255	19	0.63343598395586	2	5	5	NaN	1	4	0.0373219555907749	1	1	NaN	105	2	42	1	121	221	321	NaN	521	0.395061886869371	1	1	NaN	3355715.6614285	NaN	3355716.6448534	3355717.16136861
76	19	0	0	90	36.1581920903955	36.241610738255	21	0.700113455951214	2	6	3	NaN	1	4	0.0373219555907749	1	1	NaN	106	2	43	1	121	221	321	NaN	521	0.510019437875599	1	1	NaN	3355718.3783562	NaN	3355719.3617558	3355719.87831126
76	19	0	0	90	36.1581920903955	36.241610738255	20	0.666774719953537	2	9	4	NaN	2	4	0.0373219555907749	1	1	NaN	107	2	44	1	121	221	321	NaN	521	1.59675558656454	1	0	NaN	3355721.1953529	NaN	3355722.1786907	3355722.69524511
76	19	0	0	90	36.1581920903955	36.241610738255	19	0.63343598395586	2	5	1	NaN	1	3	0.0373219555907749	1	1	NaN	108	2	45	1	121	221	321	NaN	521	0.303664386738092	1	1	NaN	3355725.1123615	NaN	3355726.0957434	3355726.61230291
76	19	0	0	90	36.1581920903955	36.241610738255	24	0.800129663944244	2	2	4	NaN	1	5	0.0373219555907749	1	1	NaN	109	2	46	1	121	221	321	NaN	521	0.295220586936921	1	1	NaN	3355727.7292796	NaN	3355728.7126724	3355729.22922761
76	19	0	0	90	36.1581920903955	36.241610738255	23	0.766790927946568	2	5	3	NaN	1	5	0.0373219555907749	1	1	NaN	110	2	47	1	121	221	321	NaN	521	0.173805736005306	1	1	NaN	3355730.3461942	NaN	3355731.3295984	3355731.84614276
76	19	0	0	90	36.1581920903955	36.241610738255	12	0.400064831972122	2	10	5	NaN	2	3	0.0373219555907749	1	1	NaN	111	2	48	1	121	221	321	NaN	521	0.410783186554909	1	0	NaN	3355732.8297836	NaN	3355733.8131656	3355734.32972001
76	19	0	0	90	36.1581920903955	36.241610738255	20	0.666774719953537	2	3	3	NaN	1	3	0.0373219555907749	1	1	NaN	112	2	49	1	121	221	321	NaN	521	0.444761238060892	1	1	NaN	3355735.5633677	NaN	3355736.5467918	3355737.06333186
76	19	0	0	90	36.1581920903955	36.241610738255	25	0.833468399941921	2	9	3	NaN	2	4	0.0373219555907749	1	1	NaN	113	2	50	1	121	221	321	NaN	521	0.0104076382704079	1	0	NaN	3355738.3303143	NaN	3355739.3137086	3355739.83026736
76	19	0	0	90	36.1581920903955	36.241610738255	24	0.800129663944244	2	4	2	NaN	1	4	0.0373219555907749	1	1	NaN	114	2	51	1	121	221	321	NaN	521	0.36927253799513	2	0	NaN	3355740.6472087	NaN	3355741.6304964	3355742.14715846
76	19	0	0	90	36.1581920903955	36.241610738255	24	0.800129663944244	2	7	5	NaN	2	5	0.0373219555907749	1	1	NaN	115	2	52	1	121	221	321	NaN	521	0.581306735984981	2	1	NaN	3355743.330815	NaN	3355744.3141958	3355744.83075306
76	19	0	0	90	36.1581920903955	36.241610738255	23	0.766790927946568	2	4	1	NaN	1	5	0.0373219555907749	1	1	NaN	116	2	53	1	121	221	321	NaN	521	0.330076386686414	1	1	NaN	3355746.214423	NaN	3355747.1978179	3355747.71438741
76	19	0	0	90	36.1581920903955	36.241610738255	9	0.300048623979092	2	1	4	NaN	1	5	0.0373219555907749	1	1	NaN	117	2	54	1	121	221	321	NaN	521	1.06379118701443	1	1	NaN	3355748.8646935	NaN	3355749.8480716	3355750.36462951
76	19	0	0	90	36.1581920903955	36.241610738255	9	0.300048623979092	2	8	5	NaN	2	3	0.0373219555907749	1	1	NaN	118	2	55	1	121	221	321	NaN	521	0.0104186865501106	2	1	NaN	3355752.2483564	NaN	3355753.2317336	3355753.74829061
76	19	0	0	90	36.1581920903955	36.241610738255	10	0.333387359976768	2	6	5	NaN	1	4	0.0373219555907749	1	1	NaN	119	2	56	1	121	221	321	NaN	521	0.458879387006164	1	1	NaN	3355754.5652517	NaN	3355755.5486369	3355756.06518921
76	19	0	0	90	36.1581920903955	36.241610738255	14	0.466742303967476	2	4	4	NaN	1	3	0.0373219555907749	1	1	NaN	120	2	57	1	121	221	321	NaN	521	1.03616163786501	2	0	NaN	3355757.3321648	NaN	3355758.315578	3355758.83213456
76	19	0	0	90	36.1581920903955	36.241610738255	0	0	1	1	3	NaN	1	3	0.0373219555907749	1	1	NaN	121	2	58	1	111	211	311	NaN	511	0.614097486715764	1	1	NaN	3355760.682516	NaN	3355761.6659557	3355762.18245781
76	19	0	0	90	36.1581920903955	36.241610738255	11	0.366726095974445	2	12	2	NaN	2	4	0.0373219555907749	1	1	NaN	122	2	59	1	121	221	321	NaN	521	0.632976037915796	2	1	NaN	3355763.5994669	NaN	3355764.5828537	3355765.09941676
76	19	0	0	90	36.1581920903955	36.241610738255	12	0.400064831972122	2	5	5	NaN	1	5	0.0373219555907749	1	1	NaN	123	2	60	1	121	221	321	NaN	521	0.738359197974205	1	1	NaN	3355766.549766	NaN	3355767.5331359	3355768.0497105
76	19	0	0	90	36.1581920903955	36.241610738255	13	0.433403567969799	2	6	2	NaN	1	4	0.0373219555907749	1	1	NaN	124	2	61	1	121	221	321	NaN	521	0.424308537971228	2	0	NaN	3355769.6000581	NaN	3355770.5834938	3355771.10000576
76	19	0	0	90	36.1581920903955	36.241610738255	11	0.366726095974445	2	2	6	NaN	1	4	0.0373219555907749	1	1	NaN	125	2	62	1	121	221	321	NaN	521	0.514859944116324	1	1	NaN	3355772.33367	NaN	3355773.3170391	3355773.83360236
76	19	0	0	90	36.1581920903955	36.241610738255	0	0	1	7	4	NaN	2	3	0.0373219555907749	1	1	NaN	126	2	63	1	111	211	311	NaN	511	0.0104254363104701	1	0	NaN	3355775.150474	NaN	3355776.133993	3355776.65054506
76	19	0	0	90	36.1581920903955	36.241610738255	18	0.600097247958183	2	7	3	NaN	2	3	0.0373219555907749	1	1	NaN	127	3	1	1	121	221	321	NaN	521	1.26473328657448	2	1	NaN	3355779.9677276	NaN	3355780.9511299	3355781.46767891
76	19	0	0	90	36.1581920903955	36.241610738255	21	0.700113455951214	2	5	4	NaN	1	5	0.0373219555907749	1	1	NaN	128	3	2	1	121	221	321	NaN	521	0.408974386751652	1	1	NaN	3355783.5514139	NaN	3355784.5348202	3355785.05136521
76	19	0	0	90	36.1581920903955	36.241610738255	6	0.200032415986061	2	9	5	NaN	2	5	0.0373219555907749	1	1	NaN	129	3	3	1	121	221	321	NaN	521	0.0103993383236229	2	1	NaN	3355786.2682322	NaN	3355787.2516488	3355787.76830706
76	19	0	0	90	36.1581920903955	36.241610738255	11	0.366726095974445	2	8	4	NaN	2	4	0.0373219555907749	1	1	NaN	130	3	4	1	121	221	321	NaN	521	0.663123886566609	1	0	NaN	3355788.5852619	NaN	3355789.5686406	3355790.08519591
76	19	0	0	90	36.1581920903955	36.241610738255	10	0.333387359976768	2	11	4	NaN	2	3	0.0373219555907749	1	1	NaN	131	3	5	1	121	221	321	NaN	521	0.64816708676517	2	1	NaN	3355791.552229	NaN	3355792.5355906	3355793.05215111
76	19	0	0	90	36.1581920903955	36.241610738255	7	0.233371151983738	2	6	5	NaN	1	5	0.0373219555907749	1	1	NaN	132	3	6	1	121	221	321	NaN	521	0.537403286900371	1	1	NaN	3355794.5191704	NaN	3355795.5025611	3355796.01910951
76	19	0	0	90	36.1581920903955	36.241610738255	9	0.300048623979092	2	7	2	NaN	2	3	0.0373219555907749	1	1	NaN	133	3	7	1	121	221	321	NaN	521	1.83114958647639	1	0	NaN	3355797.3693205	NaN	3355798.3528787	3355798.86939301
76	19	0	0	90	36.1581920903955	36.241610738255	20	0.666774719953537	2	5	4	NaN	1	3	0.0373219555907749	1	1	NaN	134	3	8	1	121	221	321	NaN	521	0.0104074869304895	1	1	NaN	3355801.5198894	NaN	3355802.503286	3355803.01980211
76	19	0	0	90	36.1581920903955	36.241610738255	15	0.500081039965153	2	9	5	NaN	2	5	0.0373219555907749	1	1	NaN	135	3	9	1	121	221	321	NaN	521	0.115014186594635	1	0	NaN	3355803.8534281	NaN	3355804.8368295	3355805.35336541
76	19	0	0	90	36.1581920903955	36.241610738255	0	0	1	12	5	NaN	2	5	0.0373219555907749	1	1	NaN	136	3	10	1	111	211	311	NaN	511	0.401387038175017	1	0	NaN	3355806.287025	NaN	3355807.2704118	3355807.78693286
76	19	0	0	90	36.1581920903955	36.241610738255	7	0.233371151983738	2	2	5	NaN	1	3	0.0373219555907749	1	1	NaN	137	3	11	1	121	221	321	NaN	521	0.0285519864410162	1	1	NaN	3355809.0039452	NaN	3355809.9873979	3355810.50386431
76	19	0	0	90	36.1581920903955	36.241610738255	24	0.800129663944244	2	8	4	NaN	2	5	0.0373219555907749	1	1	NaN	138	3	12	1	121	221	321	NaN	521	0.134236438199878	2	1	NaN	3355811.3541482	NaN	3355812.3375532	3355812.85410106
76	19	0	0	90	36.1581920903955	36.241610738255	15	0.500081039965153	2	11	3	NaN	2	5	0.0373219555907749	1	1	NaN	139	3	13	1	121	221	321	NaN	521	0.803889895789325	2	1	NaN	3355813.804359	NaN	3355814.7877905	3355815.3043414
76	19	0	0	90	36.1581920903955	36.241610738255	18	0.600097247958183	2	12	2	NaN	2	3	0.0373219555907749	1	1	NaN	140	3	14	1	121	221	321	NaN	521	0.407001635991037	2	1	NaN	3355816.9213893	NaN	3355817.9047602	3355818.42132026
76	19	0	0	90	36.1581920903955	36.241610738255	17	0.566758511960507	2	7	3	NaN	2	4	0.0373219555907749	1	1	NaN	141	3	15	1	121	221	321	NaN	521	0.482365886680782	1	0	NaN	3355819.6383179	NaN	3355820.6216765	3355821.13824601
76	19	0	0	90	36.1581920903955	36.241610738255	0	0	1	9	5	NaN	2	4	0.0373219555907749	1	1	NaN	142	3	16	1	111	211	311	NaN	511	0.137897286564112	2	1	NaN	3355822.4385755	NaN	3355823.4219636	3355823.93851951
76	19	0	0	90	36.1581920903955	36.241610738255	22	0.733452191948891	2	1	4	NaN	1	5	0.0373219555907749	1	1	NaN	143	3	17	1	121	221	321	NaN	521	0.33584733819589	1	1	NaN	3355824.8888408	NaN	3355825.8722221	3355826.38877746
76	19	0	0	90	36.1581920903955	36.241610738255	21	0.700113455951214	2	7	5	NaN	2	5	0.0373219555907749	1	1	NaN	144	3	18	1	121	221	321	NaN	521	0.8935650982894	2	1	NaN	3355827.5390781	NaN	3355828.5224703	3355829.0390367
76	19	0	0	90	36.1581920903955	36.241610738255	13	0.433403567969799	2	8	3	NaN	2	4	0.0373219555907749	1	1	NaN	145	3	19	1	121	221	321	NaN	521	0.357240037992597	2	1	NaN	3355830.7393875	NaN	3355831.7227925	3355832.23934266
76	19	0	0	90	36.1581920903955	36.241610738255	16	0.53341977596283	2	8	3	NaN	2	5	0.0373219555907749	1	1	NaN	146	3	20	1	121	221	321	NaN	521	0.177934386767447	2	1	NaN	3355833.4063138	NaN	3355834.3897114	3355834.90627321
76	19	0	0	90	36.1581920903955	36.241610738255	7	0.233371151983738	2	2	2	NaN	1	5	0.0373219555907749	1	1	NaN	147	3	21	1	121	221	321	NaN	521	0.117662037722766	2	0	NaN	3355835.9065726	NaN	3355836.8899691	3355837.40651646
76	19	0	0	90	36.1581920903955	36.241610738255	9	0.300048623979092	2	12	3	NaN	2	5	0.0373219555907749	1	1	NaN	148	3	22	1	121	221	321	NaN	521	0.316577538382262	2	1	NaN	3355838.3401427	NaN	3355839.3235576	3355839.84007996
76	19	0	0	90	36.1581920903955	36.241610738255	7	0.233371151983738	2	8	5	NaN	2	4	0.0373219555907749	1	1	NaN	149	3	23	1	121	221	321	NaN	521	0.0424652379006147	1	0	NaN	3355840.9737523	NaN	3355841.957106	3355842.47368186
76	19	0	0	90	36.1581920903955	36.241610738255	18	0.600097247958183	2	4	6	NaN	1	3	0.0373219555907749	1	1	NaN	150	3	24	1	121	221	321	NaN	521	0.188643787056208	2	0	NaN	3355843.3239715	NaN	3355844.3073542	3355844.82391901
76	19	0	0	90	36.1581920903955	36.241610738255	22	0.733452191948891	2	4	2	NaN	1	3	0.0373219555907749	1	1	NaN	151	3	25	1	121	221	321	NaN	521	0.536175940185785	2	0	NaN	3355845.824191	NaN	3355846.8075987	3355847.32415816
76	19	0	0	90	36.1581920903955	36.241610738255	13	0.433403567969799	2	11	1	NaN	2	4	0.0373219555907749	1	1	NaN	152	3	26	1	121	221	321	NaN	521	0.0103935380466282	2	1	NaN	3355848.6744844	NaN	3355849.6578715	3355850.17444116
76	19	0	0	90	36.1581920903955	36.241610738255	8	0.266709887981415	2	3	2	NaN	1	4	0.0373219555907749	1	1	NaN	153	3	27	1	121	221	321	NaN	521	0.0170598863624036	1	1	NaN	3355850.9912449	NaN	3355851.9747762	3355852.49132471
76	19	0	0	90	36.1581920903955	36.241610738255	12	0.400064831972122	2	8	3	NaN	2	3	0.0373219555907749	1	1	NaN	154	3	28	1	121	221	321	NaN	521	0.156801786739379	2	1	NaN	3355853.4916029	NaN	3355854.4750132	3355854.99157311
76	19	0	0	90	36.1581920903955	36.241610738255	13	0.433403567969799	2	5	1	NaN	1	5	0.0373219555907749	1	1	NaN	155	3	29	1	121	221	321	NaN	521	0.385777837596834	2	0	NaN	3355855.9585335	NaN	3355856.9419127	3355857.45848746
76	19	0	0	90	36.1581920903955	36.241610738255	0	0	1	1	3	NaN	1	4	0.0373219555907749	1	1	NaN	156	3	30	1	111	211	311	NaN	511	0.541781786829233	2	0	NaN	3355858.6588058	NaN	3355859.6421829	3355860.15874461
76	19	0	0	90	36.1581920903955	36.241610738255	15	0.500081039965153	2	8	5	NaN	2	3	0.0373219555907749	1	1	NaN	157	3	31	1	121	221	321	NaN	521	0.291651486884803	1	0	NaN	3355861.5090742	NaN	3355862.4924889	3355863.00902871
76	19	0	0	90	36.1581920903955	36.241610738255	7	0.233371151983738	2	11	6	NaN	2	3	0.0373219555907749	1	1	NaN	158	3	32	1	121	221	321	NaN	521	0.211363431531936	1	0	NaN	3355864.1093555	NaN	3355865.0927266	3355865.60927967
76	19	0	0	90	36.1581920903955	36.241610738255	13	0.433403567969799	2	6	3	NaN	1	5	0.0373219555907749	1	1	NaN	159	3	33	1	121	221	321	NaN	521	0.797983246855438	1	1	NaN	3355866.6262489	NaN	3355867.609656	3355868.12620855
76	19	0	0	90	36.1581920903955	36.241610738255	15	0.500081039965153	2	5	2	NaN	1	3	0.0373219555907749	1	1	NaN	160	3	34	1	121	221	321	NaN	521	0.0104057868011296	1	1	NaN	3355870.1098001	NaN	3355871.0933099	3355871.60986671
76	19	0	0	90	36.1581920903955	36.241610738255	8	0.266709887981415	2	8	4	NaN	2	5	0.0373219555907749	1	1	NaN	161	3	35	1	121	221	321	NaN	521	0.0529544865712523	1	0	NaN	3355872.4434888	NaN	3355873.4268661	3355873.94342711
76	19	0	0	90	36.1581920903955	36.241610738255	18	0.600097247958183	2	11	5	NaN	2	5	0.0373219555907749	1	1	NaN	162	3	36	1	121	221	321	NaN	521	0.41417208686471	1	0	NaN	3355874.8102589	NaN	3355875.7937777	3355876.31033151
76	19	0	0	90	36.1581920903955	36.241610738255	20	0.666774719953537	2	12	4	NaN	2	5	0.0373219555907749	1	1	NaN	163	3	37	1	121	221	321	NaN	521	0.38440493773669	1	0	NaN	3355877.5439855	NaN	3355878.5273672	3355879.04393216
76	19	0	0	90	36.1581920903955	36.241610738255	12	0.400064831972122	2	12	1	NaN	2	5	0.0373219555907749	1	1	NaN	164	3	38	1	121	221	321	NaN	521	0.510116687044501	1	0	NaN	3355880.3942639	NaN	3355881.3776536	3355881.89421361
76	19	0	0	90	36.1581920903955	36.241610738255	17	0.566758511960507	2	6	4	NaN	1	5	0.0373219555907749	1	1	NaN	165	3	39	1	121	221	321	NaN	521	0.469039786607027	1	1	NaN	3355883.2111995	NaN	3355884.1946081	3355884.71117341
76	19	0	0	90	36.1581920903955	36.241610738255	19	0.63343598395586	2	4	6	NaN	1	5	0.0373219555907749	1	1	NaN	166	3	40	1	121	221	321	NaN	521	0.486004186794162	1	1	NaN	3355885.9948331	NaN	3355886.9782092	3355887.49478101
76	19	0	0	90	36.1581920903955	36.241610738255	23	0.766790927946568	2	12	5	NaN	2	4	0.0373219555907749	1	1	NaN	167	3	41	1	121	221	321	NaN	521	0.421259086579084	1	0	NaN	3355888.7950927	NaN	3355889.7784697	3355890.29503371
76	19	0	0	90	36.1581920903955	36.241610738255	13	0.433403567969799	2	11	1	NaN	2	3	0.0373219555907749	1	1	NaN	168	3	42	1	121	221	321	NaN	521	0.455535687040538	2	1	NaN	3355891.5286996	NaN	3355892.5120852	3355893.02864041
76	19	0	0	90	36.1581920903955	36.241610738255	18	0.600097247958183	2	9	3	NaN	2	5	0.0373219555907749	1	1	NaN	169	3	43	1	121	221	321	NaN	521	0.432671538088471	1	0	NaN	3355894.2956208	NaN	3355895.2790224	3355895.79557926
76	19	0	0	90	36.1581920903955	36.241610738255	17	0.566758511960507	2	8	3	NaN	2	4	0.0373219555907749	1	1	NaN	170	3	44	1	121	221	321	NaN	521	0.458358787000179	1	0	NaN	3355897.0458927	NaN	3355898.0292954	3355898.54585211
76	19	0	0	90	36.1581920903955	36.241610738255	21	0.700113455951214	2	4	2	NaN	1	5	0.0373219555907749	1	1	NaN	171	3	45	1	121	221	321	NaN	521	0.355411638040096	1	1	NaN	3355899.8128374	NaN	3355900.7962245	3355901.31279776
76	19	0	0	90	36.1581920903955	36.241610738255	6	0.200032415986061	2	7	1	NaN	2	5	0.0373219555907749	1	1	NaN	172	3	46	1	121	221	321	NaN	521	0.352970086969435	2	1	NaN	3355902.4797676	NaN	3355903.463159	3355903.97971791
76	19	0	0	90	36.1581920903955	36.241610738255	22	0.733452191948891	2	8	6	NaN	2	5	0.0373219555907749	1	1	NaN	173	3	47	1	121	221	321	NaN	521	0.558047686703503	2	1	NaN	3355905.1467018	NaN	3355906.1300957	3355906.64664511
76	19	0	0	90	36.1581920903955	36.241610738255	23	0.766790927946568	2	8	1	NaN	2	4	0.0373219555907749	1	1	NaN	174	3	48	1	121	221	321	NaN	521	3.65090453578159	2	1	NaN	3355908.013656	NaN	3355908.9970366	3355909.51359466
76	19	0	0	90	36.1581920903955	36.241610738255	20	0.666774719953537	2	10	2	NaN	2	4	0.0373219555907749	1	1	NaN	175	3	49	1	121	221	321	NaN	521	0.379607995506376	2	1	NaN	3355913.9808946	NaN	3355914.964299	3355915.480848
76	19	0	0	90	36.1581920903955	36.241610738255	14	0.466742303967476	2	3	6	NaN	1	4	0.0373219555907749	1	1	NaN	176	3	50	1	121	221	321	NaN	521	0.623222236055881	2	0	NaN	3355916.6811689	NaN	3355917.6645487	3355918.18111476
76	19	0	0	90	36.1581920903955	36.241610738255	25	0.833468399941921	2	6	5	NaN	1	3	0.0373219555907749	1	1	NaN	177	3	51	1	121	221	321	NaN	521	0.26591528672725	1	1	NaN	3355919.6148136	NaN	3355920.5981732	3355921.11474121
76	19	0	0	90	36.1581920903955	36.241610738255	16	0.53341977596283	2	4	5	NaN	1	3	0.0373219555907749	1	1	NaN	178	3	52	1	121	221	321	NaN	521	1.39410958671942	2	0	NaN	3355922.1983658	NaN	3355923.1817622	3355923.69831681
76	19	0	0	90	36.1581920903955	36.241610738255	22	0.733452191948891	2	5	6	NaN	1	5	0.0373219555907749	1	1	NaN	179	3	53	1	121	221	321	NaN	521	0.413593686651438	2	0	NaN	3355925.8985962	NaN	3355926.8821167	3355927.39867751
76	19	0	0	90	36.1581920903955	36.241610738255	13	0.433403567969799	2	3	4	NaN	1	3	0.0373219555907749	1	1	NaN	180	3	54	1	121	221	321	NaN	521	0.392207498196512	1	1	NaN	3355928.6323441	NaN	3355929.6157329	3355930.1322972
76	19	0	0	90	36.1581920903955	36.241610738255	7	0.233371151983738	2	4	3	NaN	1	4	0.0373219555907749	1	1	NaN	181	3	55	1	121	221	321	NaN	521	0.297004895750433	1	1	NaN	3355931.3992811	NaN	3355932.3826667	3355932.8992264
76	19	0	0	90	36.1581920903955	36.241610738255	6	0.200032415986061	2	1	3	NaN	1	3	0.0373219555907749	1	1	NaN	182	3	56	1	121	221	321	NaN	521	0.337327684741467	1	1	NaN	3355933.9995449	NaN	3355934.9828267	3355935.49947552
76	19	0	0	90	36.1581920903955	36.241610738255	9	0.300048623979092	2	5	6	NaN	1	4	0.0373219555907749	1	1	NaN	183	3	57	1	121	221	321	NaN	521	0.942746640183032	1	1	NaN	3355936.6498004	NaN	3355937.6332049	3355938.14974526
76	19	0	0	90	36.1581920903955	36.241610738255	12	0.400064831972122	2	7	2	NaN	2	4	0.0373219555907749	1	1	NaN	184	3	58	1	121	221	321	NaN	521	0.0526070357300341	1	0	NaN	3355939.900127	NaN	3355940.8835037	3355941.40006356
76	19	0	0	90	36.1581920903955	36.241610738255	14	0.466742303967476	2	9	5	NaN	2	3	0.0373219555907749	1	1	NaN	185	3	59	1	121	221	321	NaN	521	0.26115394430235	2	1	NaN	3355942.2670036	NaN	3355943.2503863	3355943.76696726
76	19	0	0	90	36.1581920903955	36.241610738255	14	0.466742303967476	2	3	5	NaN	1	3	0.0373219555907749	1	1	NaN	186	3	60	1	121	221	321	NaN	521	0.390224237926304	2	0	NaN	3355944.8505827	NaN	3355945.8339895	3355946.35054526
76	19	0	0	90	36.1581920903955	36.241610738255	18	0.600097247958183	2	3	3	NaN	1	3	0.0373219555907749	1	1	NaN	187	3	61	1	121	221	321	NaN	521	0.0737814381718636	2	0	NaN	3355947.5508072	NaN	3355948.5342536	3355949.05081446
76	19	0	0	90	36.1581920903955	36.241610738255	8	0.266709887981415	2	7	3	NaN	2	5	0.0373219555907749	1	1	NaN	188	3	62	1	121	221	321	NaN	521	1.3779679867439	1	0	NaN	3355949.9344225	NaN	3355950.9178151	3355951.43438061
76	19	0	0	90	36.1581920903955	36.241610738255	24	0.800129663944244	2	1	5	NaN	1	3	0.0373219555907749	1	1	NaN	189	3	63	1	121	221	321	NaN	521	1.23786708945408	2	0	NaN	3355953.6347901	NaN	3355954.6181851	3355955.13473911
76	19	0	0	90	36.1581920903955	36.241610738255	10	0.333387359976768	2	1	6	NaN	1	5	0.0373219555907749	1	1	NaN	190	4	1	1	121	221	321	NaN	521	0.81385403778404	2	0	NaN	3355966.4026832	NaN	3355967.3861008	3355967.90266766
76	19	0	0	90	36.1581920903955	36.241610738255	24	0.800129663944244	2	7	5	NaN	2	5	0.0373219555907749	1	1	NaN	191	4	2	1	121	221	321	NaN	521	0.872086542192847	2	1	NaN	3355969.5363616	NaN	3355970.5197503	3355971.03630486
76	19	0	0	90	36.1581920903955	36.241610738255	9	0.300048623979092	2	9	6	NaN	2	3	0.0373219555907749	1	1	NaN	192	4	3	1	121	221	321	NaN	521	0.173846286721528	1	0	NaN	3355972.786684	NaN	3355973.7700851	3355974.28662261
76	19	0	0	90	36.1581920903955	36.241610738255	7	0.233371151983738	2	3	1	NaN	1	5	0.0373219555907749	1	1	NaN	193	4	4	1	121	221	321	NaN	521	0.40236134454608	1	1	NaN	3355975.2702529	NaN	3355976.2536437	3355976.77020166
76	19	0	0	90	36.1581920903955	36.241610738255	22	0.733452191948891	2	3	3	NaN	1	3	0.0373219555907749	1	1	NaN	194	4	5	1	121	221	321	NaN	521	0.341580335982144	1	1	NaN	3355977.9871697	NaN	3355978.9706066	3355979.48713586
76	19	0	0	90	36.1581920903955	36.241610738255	24	0.800129663944244	2	11	4	NaN	2	3	0.0373219555907749	1	1	NaN	195	4	6	1	121	221	321	NaN	521	0.0104240868240595	2	1	NaN	3355980.6374539	NaN	3355981.6208381	3355982.13739141
76	19	0	0	90	36.1581920903955	36.241610738255	9	0.300048623979092	2	6	5	NaN	1	5	0.0373219555907749	1	1	NaN	196	4	7	1	121	221	321	NaN	521	0.495173186995089	1	1	NaN	3355983.1376816	NaN	3355984.1210678	3355984.63764461
76	19	0	0	90	36.1581920903955	36.241610738255	14	0.466742303967476	2	6	4	NaN	1	3	0.0373219555907749	1	1	NaN	197	4	8	1	121	221	321	NaN	521	0.501903631724417	1	1	NaN	3355985.9546671	NaN	3355986.938028	3355987.45458667
76	19	0	0	90	36.1581920903955	36.241610738255	6	0.200032415986061	2	3	3	NaN	1	5	0.0373219555907749	1	1	NaN	198	4	9	1	121	221	321	NaN	521	0.0103931380435824	1	1	NaN	3355988.7715994	NaN	3355989.7550184	3355990.27152646
76	19	0	0	90	36.1581920903955	36.241610738255	8	0.266709887981415	2	10	4	NaN	2	5	0.0373219555907749	1	1	NaN	199	4	10	1	121	221	321	NaN	521	0.367482537869364	1	0	NaN	3355991.1051437	NaN	3355992.0885361	3355992.60508646
76	19	0	0	90	36.1581920903955	36.241610738255	23	0.766790927946568	2	1	2	NaN	1	5	0.0373219555907749	1	1	NaN	200	4	11	1	121	221	321	NaN	521	0.683748938143253	1	1	NaN	3355993.7888302	NaN	3355994.7721251	3355995.28867916
76	19	0	0	90	36.1581920903955	36.241610738255	9	0.300048623979092	2	4	4	NaN	1	4	0.0373219555907749	1	1	NaN	201	4	12	1	121	221	321	NaN	521	0.595495137851685	2	0	NaN	3355996.7890501	NaN	3355997.7724529	3355998.28898276
76	19	0	0	90	36.1581920903955	36.241610738255	17	0.566758511960507	2	3	1	NaN	1	4	0.0373219555907749	1	1	NaN	202	4	13	1	121	221	321	NaN	521	0.678591439966112	1	1	NaN	3355999.7058672	NaN	3356000.6893573	3356001.20593746
76	19	0	0	90	36.1581920903955	36.241610738255	15	0.500081039965153	2	4	1	NaN	1	3	0.0373219555907749	1	1	NaN	203	4	14	1	121	221	321	NaN	521	0.510527386795729	2	0	NaN	3356002.7062876	NaN	3356003.6896624	3356004.20622621
76	19	0	0	90	36.1581920903955	36.241610738255	7	0.233371151983738	2	4	4	NaN	1	5	0.0373219555907749	1	1	NaN	204	4	15	1	121	221	321	NaN	521	0.621019636280835	1	1	NaN	3356005.539867	NaN	3356006.5232862	3356007.03984506
76	19	0	0	90	36.1581920903955	36.241610738255	15	0.500081039965153	2	9	2	NaN	2	4	0.0373219555907749	1	1	NaN	205	4	16	1	121	221	321	NaN	521	0.447288142517209	1	0	NaN	3356008.4735674	NaN	3356009.456905	3356009.97345896
76	19	0	0	90	36.1581920903955	36.241610738255	8	0.266709887981415	2	10	5	NaN	2	3	0.0373219555907749	1	1	NaN	206	4	17	1	121	221	321	NaN	521	1.36045223800465	2	1	NaN	3356011.2404426	NaN	3356012.2238584	3356012.74040376
76	19	0	0	90	36.1581920903955	36.241610738255	19	0.63343598395586	2	3	6	NaN	1	3	0.0373219555907749	1	1	NaN	207	4	18	1	121	221	321	NaN	521	0.763827686663717	2	0	NaN	3356014.9408359	NaN	3356015.9242054	3356016.44076961
76	19	0	0	90	36.1581920903955	36.241610738255	11	0.366726095974445	2	6	6	NaN	1	5	0.0373219555907749	1	1	NaN	208	4	19	1	121	221	321	NaN	521	0.487995787058026	1	1	NaN	3356018.0244489	NaN	3356019.0078956	3356019.52440091
76	19	0	0	90	36.1581920903955	36.241610738255	8	0.266709887981415	2	1	2	NaN	1	5	0.0373219555907749	1	1	NaN	209	4	20	1	121	221	321	NaN	521	0.944194535724819	2	0	NaN	3356020.8247271	NaN	3356021.8081449	3356022.32467156
76	19	0	0	90	36.1581920903955	36.241610738255	7	0.233371151983738	2	11	6	NaN	2	3	0.0373219555907749	1	1	NaN	210	4	21	1	121	221	321	NaN	521	0.580541646573693	1	0	NaN	3356024.7084047	NaN	3356025.6918556	3356026.20839115
76	19	0	0	90	36.1581920903955	36.241610738255	23	0.766790927946568	2	9	5	NaN	2	4	0.0373219555907749	1	1	NaN	211	4	22	1	121	221	321	NaN	521	0.440855538006872	2	1	NaN	3356027.5920392	NaN	3356028.5754567	3356029.09200576
76	19	0	0	90	36.1581920903955	36.241610738255	24	0.800129663944244	2	3	4	NaN	1	3	0.0373219555907749	1	1	NaN	212	4	23	1	121	221	321	NaN	521	0.482311238069087	2	0	NaN	3356030.3423235	NaN	3356031.3257382	3356031.84227416
76	19	0	0	90	36.1581920903955	36.241610738255	9	0.300048623979092	2	10	1	NaN	2	4	0.0373219555907749	1	1	NaN	213	4	24	1	121	221	321	NaN	521	0.850164186675102	1	0	NaN	3356033.1426095	NaN	3356034.1259948	3356034.64254941
76	19	0	0	90	36.1581920903955	36.241610738255	17	0.566758511960507	2	2	4	NaN	1	3	0.0373219555907749	1	1	NaN	214	4	25	1	121	221	321	NaN	521	1.05925843771547	2	0	NaN	3356036.3095386	NaN	3356037.2929912	3356037.80953486
76	19	0	0	90	36.1581920903955	36.241610738255	14	0.466742303967476	2	5	2	NaN	1	5	0.0373219555907749	1	1	NaN	215	4	26	1	121	221	321	NaN	521	1.64339003618807	1	1	NaN	3356039.6932527	NaN	3356040.6766352	3356041.19319606
76	19	0	0	90	36.1581920903955	36.241610738255	21	0.700113455951214	2	9	4	NaN	2	4	0.0373219555907749	1	1	NaN	216	4	27	1	121	221	321	NaN	521	0.309295886661857	2	1	NaN	3356043.6436404	NaN	3356044.6270358	3356045.14358021
76	19	0	0	90	36.1581920903955	36.241610738255	9	0.300048623979092	2	3	5	NaN	1	5	0.0373219555907749	1	1	NaN	217	4	28	1	121	221	321	NaN	521	0.0104387355968356	1	1	NaN	3356046.2605497	NaN	3356047.2439517	3356047.76050886
76	19	0	0	90	36.1581920903955	36.241610738255	16	0.53341977596283	2	1	5	NaN	1	4	0.0373219555907749	1	1	NaN	218	4	29	1	121	221	321	NaN	521	0.311447786632925	1	1	NaN	3356048.5774484	NaN	3356049.5608442	3356050.07739491
76	19	0	0	90	36.1581920903955	36.241610738255	25	0.833468399941921	2	11	5	NaN	2	5	0.0373219555907749	1	1	NaN	219	4	30	1	121	221	321	NaN	521	0.349613337777555	1	0	NaN	3356051.2110284	NaN	3356052.1944387	3356052.71099366
76	19	0	0	90	36.1581920903955	36.241610738255	14	0.466742303967476	2	2	2	NaN	1	5	0.0373219555907749	1	1	NaN	220	4	31	1	121	221	321	NaN	521	0.387385137844831	1	1	NaN	3356053.861163	NaN	3356054.8447003	3356055.36126036
76	19	0	0	90	36.1581920903955	36.241610738255	21	0.700113455951214	2	7	3	NaN	2	3	0.0373219555907749	1	1	NaN	221	4	32	1	121	221	321	NaN	521	0.44712888635695	1	0	NaN	3356056.5615713	NaN	3356057.5449485	3356058.06152911
76	19	0	0	90	36.1581920903955	36.241610738255	12	0.400064831972122	2	4	4	NaN	1	4	0.0373219555907749	1	1	NaN	222	4	33	1	121	221	321	NaN	521	0.489089337643236	1	1	NaN	3356059.3118355	NaN	3356060.2952333	3356060.81179336
76	19	0	0	90	36.1581920903955	36.241610738255	24	0.800129663944244	2	12	5	NaN	2	3	0.0373219555907749	1	1	NaN	223	4	34	1	121	221	321	NaN	521	0.328922735992819	2	1	NaN	3356062.1119715	NaN	3356063.0955354	3356063.61206286
76	19	0	0	90	36.1581920903955	36.241610738255	23	0.766790927946568	2	11	2	NaN	2	4	0.0373219555907749	1	1	NaN	224	4	35	1	121	221	321	NaN	521	1.11103988671675	1	0	NaN	3356064.7456968	NaN	3356065.7291096	3356066.24565241
76	19	0	0	90	36.1581920903955	36.241610738255	17	0.566758511960507	2	12	1	NaN	2	3	0.0373219555907749	1	1	NaN	225	4	36	1	121	221	321	NaN	521	0.549635638017207	2	1	NaN	3356068.1792433	NaN	3356069.1627724	3356069.67932306
76	19	0	0	90	36.1581920903955	36.241610738255	21	0.700113455951214	2	3	2	NaN	1	5	0.0373219555907749	1	1	NaN	226	4	37	1	121	221	321	NaN	521	0.938508386723697	1	1	NaN	3356071.0463261	NaN	3356072.0297149	3356072.54628611
76	19	0	0	90	36.1581920903955	36.241610738255	19	0.63343598395586	2	6	1	NaN	1	3	0.0373219555907749	1	1	NaN	227	4	38	1	121	221	321	NaN	521	2.83208898641169	1	1	NaN	3356074.2966426	NaN	3356075.2800378	3356075.79659721
76	19	0	0	90	36.1581920903955	36.241610738255	25	0.833468399941921	2	1	1	NaN	1	4	0.0373219555907749	1	1	NaN	228	4	39	1	121	221	321	NaN	521	0.353626786731184	2	0	NaN	3356079.4471512	NaN	3356080.4305406	3356080.94709531
76	19	0	0	90	36.1581920903955	36.241610738255	11	0.366726095974445	2	7	4	NaN	2	5	0.0373219555907749	1	1	NaN	229	4	40	1	121	221	321	NaN	521	0.0104140867479146	1	0	NaN	3356082.1141015	NaN	3356083.0974708	3356083.61402911
76	19	0	0	90	36.1581920903955	36.241610738255	10	0.333387359976768	2	4	3	NaN	1	5	0.0373219555907749	1	1	NaN	230	4	41	1	121	221	321	NaN	521	0.450013884808868	1	1	NaN	3356084.4308668	NaN	3356085.4143721	3356085.93092172
76	19	0	0	90	36.1581920903955	36.241610738255	12	0.400064831972122	2	2	5	NaN	1	3	0.0373219555907749	1	1	NaN	231	4	42	1	121	221	321	NaN	521	0.114469391293824	1	1	NaN	3356087.1979698	NaN	3356088.1813104	3356088.69785831
76	19	0	0	90	36.1581920903955	36.241610738255	14	0.466742303967476	2	10	4	NaN	2	3	0.0373219555907749	1	1	NaN	232	4	43	1	121	221	321	NaN	521	0.329580680001527	1	0	NaN	3356089.6314893	NaN	3356090.6148648	3356091.13143532
76	19	0	0	90	36.1581920903955	36.241610738255	14	0.466742303967476	2	4	1	NaN	1	5	0.0373219555907749	1	1	NaN	233	4	44	1	121	221	321	NaN	521	1.17029088689014	2	0	NaN	3356092.7984458	NaN	3356093.7818953	3356094.29841151
76	19	0	0	90	36.1581920903955	36.241610738255	0	0	1	2	3	NaN	1	4	0.0373219555907749	1	1	NaN	234	4	45	1	111	211	311	NaN	511	0.33486098702997	2	0	NaN	3356096.2820176	NaN	3356097.2655424	3356097.78209101
76	19	0	0	90	36.1581920903955	36.241610738255	21	0.700113455951214	2	1	6	NaN	1	4	0.0373219555907749	1	1	NaN	235	4	46	1	121	221	321	NaN	521	0.540320846717805	2	0	NaN	3356098.9323816	NaN	3356099.9158393	3356100.43235305
76	19	0	0	90	36.1581920903955	36.241610738255	15	0.500081039965153	2	11	3	NaN	2	4	0.0373219555907749	1	1	NaN	236	4	47	1	121	221	321	NaN	521	0.443397737573832	2	1	NaN	3356102.349376	NaN	3356103.3327943	3356103.84935406
76	19	0	0	90	36.1581920903955	36.241610738255	19	0.63343598395586	2	1	1	NaN	1	3	0.0373219555907749	1	1	NaN	237	4	48	1	121	221	321	NaN	521	1.00399788934737	2	0	NaN	3356105.73303	NaN	3356106.7164454	3356107.23302101
76	19	0	0	90	36.1581920903955	36.241610738255	12	0.400064831972122	2	6	5	NaN	1	4	0.0373219555907749	1	1	NaN	238	4	49	1	121	221	321	NaN	521	0.910994987003505	1	1	NaN	3356109.0500479	NaN	3356110.0334468	3356110.55000311
76	19	0	0	90	36.1581920903955	36.241610738255	17	0.566758511960507	2	4	5	NaN	1	4	0.0373219555907749	1	1	NaN	239	4	50	1	121	221	321	NaN	521	0.373059386853129	2	0	NaN	3356112.2837468	NaN	3356113.2671129	3356113.78365641
76	19	0	0	90	36.1581920903955	36.241610738255	8	0.266709887981415	2	8	1	NaN	2	3	0.0373219555907749	1	1	NaN	240	4	51	1	121	221	321	NaN	521	0.0574218868277967	2	1	NaN	3356114.9671564	NaN	3356115.9506975	3356116.46725481
76	19	0	0	90	36.1581920903955	36.241610738255	11	0.366726095974445	2	1	3	NaN	1	5	0.0373219555907749	1	1	NaN	241	4	52	1	121	221	321	NaN	521	5.55468828650191	2	0	NaN	3356117.3342091	NaN	3356118.3175997	3356118.83415471
76	19	0	0	90	36.1581920903955	36.241610738255	18	0.600097247958183	2	1	1	NaN	1	4	0.0373219555907749	1	1	NaN	242	4	53	1	121	221	321	NaN	521	0.151446386706084	1	1	NaN	3356125.2016526	NaN	3356126.1850349	3356126.70159381
76	19	0	0	90	36.1581920903955	36.241610738255	11	0.366726095974445	2	4	1	NaN	1	4	0.0373219555907749	1	1	NaN	243	4	54	1	121	221	321	NaN	521	0.172185586765409	2	0	NaN	3356127.6685605	NaN	3356128.6519506	3356129.16850161
76	19	0	0	90	36.1581920903955	36.241610738255	25	0.833468399941921	2	1	5	NaN	1	4	0.0373219555907749	1	1	NaN	244	4	55	1	121	221	321	NaN	521	0.488624535966665	2	0	NaN	3356130.1521301	NaN	3356131.1355117	3356131.65207266
76	19	0	0	90	36.1581920903955	36.241610738255	21	0.700113455951214	2	8	4	NaN	2	4	0.0373219555907749	1	1	NaN	245	4	56	1	121	221	321	NaN	521	0.0104080867022276	2	1	NaN	3356132.9524213	NaN	3356133.9357895	3356134.45235721
76	19	0	0	90	36.1581920903955	36.241610738255	17	0.566758511960507	2	4	5	NaN	1	3	0.0373219555907749	1	1	NaN	246	4	57	1	121	221	321	NaN	521	0.93116248678416	2	0	NaN	3356135.2859747	NaN	3356136.269381	3356136.78591841
76	19	0	0	90	36.1581920903955	36.241610738255	23	0.766790927946568	2	2	3	NaN	1	3	0.0373219555907749	1	1	NaN	247	4	58	1	121	221	321	NaN	521	0.384490437805653	2	0	NaN	3356138.5363043	NaN	3356139.5196801	3356140.03624206
76	19	0	0	90	36.1581920903955	36.241610738255	9	0.300048623979092	2	2	4	NaN	1	4	0.0373219555907749	1	1	NaN	248	4	59	1	121	221	321	NaN	521	0.0104235867038369	2	0	NaN	3356141.2365601	NaN	3356142.2199348	3356142.73650651
76	19	0	0	90	36.1581920903955	36.241610738255	8	0.266709887981415	2	4	6	NaN	1	4	0.0373219555907749	1	1	NaN	249	4	60	1	121	221	321	NaN	521	1.14287944696844	2	0	NaN	3356143.5699931	NaN	3356144.553504	3356145.07007145
76	19	0	0	90	36.1581920903955	36.241610738255	6	0.200032415986061	2	5	2	NaN	1	3	0.0373219555907749	1	1	NaN	250	4	61	1	121	221	321	NaN	521	1.06070638680831	1	1	NaN	3356147.0204508	NaN	3356148.0038565	3356148.52040031
76	19	0	0	90	36.1581920903955	36.241610738255	11	0.366726095974445	2	11	1	NaN	2	4	0.0373219555907749	1	1	NaN	251	4	62	1	121	221	321	NaN	521	0.469619386829436	2	1	NaN	3356150.3874637	NaN	3356151.3708453	3356151.88741901
76	19	0	0	90	36.1581920903955	36.241610738255	15	0.500081039965153	2	2	1	NaN	1	4	0.0373219555907749	1	1	NaN	252	4	63	1	121	221	321	NaN	521	0.445607386995107	2	0	NaN	3356153.1710565	NaN	3356154.1544438	3356154.67100601
76	19	0	0	90	36.1581920903955	36.241610738255	14	0.466742303967476	2	1	1	NaN	1	3	0.0373219555907749	1	1	NaN	253	5	1	1	121	221	321	NaN	521	0.579156386666	2	0	NaN	3356163.4220826	NaN	3356164.4054622	3356164.92201001
76	19	0	0	90	36.1581920903955	36.241610738255	7	0.233371151983738	2	3	5	NaN	1	4	0.0373219555907749	1	1	NaN	254	5	2	1	121	221	321	NaN	521	0.310713886748999	1	1	NaN	3356166.3223639	NaN	3356167.3057409	3356167.82230591
76	19	0	0	90	36.1581920903955	36.241610738255	12	0.400064831972122	2	3	1	NaN	1	3	0.0373219555907749	1	1	NaN	255	5	3	1	121	221	321	NaN	521	0.471968838013709	1	1	NaN	3356169.2725901	NaN	3356170.2560368	3356170.77261016
76	19	0	0	90	36.1581920903955	36.241610738255	23	0.766790927946568	2	3	4	NaN	1	3	0.0373219555907749	1	1	NaN	256	5	4	1	121	221	321	NaN	521	0.376671935897321	2	0	NaN	3356172.05628	NaN	3356173.0396422	3356173.55619566
76	19	0	0	90	36.1581920903955	36.241610738255	6	0.200032415986061	2	4	1	NaN	1	3	0.0373219555907749	1	1	NaN	257	5	5	1	121	221	321	NaN	521	0.300288080703467	1	1	NaN	3356174.7565072	NaN	3356175.7399101	3356176.25645172
76	19	0	0	90	36.1581920903955	36.241610738255	12	0.400064831972122	2	6	1	NaN	1	5	0.0373219555907749	1	1	NaN	258	5	6	1	121	221	321	NaN	521	0.0104113868437707	1	1	NaN	3356177.3734438	NaN	3356178.3568269	3356178.87338741
76	19	0	0	90	36.1581920903955	36.241610738255	8	0.266709887981415	2	12	1	NaN	2	3	0.0373219555907749	1	1	NaN	259	5	7	1	121	221	321	NaN	521	2.11441523814574	2	1	NaN	3356179.79021	NaN	3356180.7737485	3356181.29028986
76	19	0	0	90	36.1581920903955	36.241610738255	23	0.766790927946568	2	2	2	NaN	1	4	0.0373219555907749	1	1	NaN	260	5	8	1	121	221	321	NaN	521	0.0104068871587515	1	1	NaN	3356184.2241113	NaN	3356185.2075043	3356185.72405771
76	19	0	0	90	36.1581920903955	36.241610738255	6	0.200032415986061	2	11	5	NaN	2	3	0.0373219555907749	1	1	NaN	261	5	9	1	121	221	321	NaN	521	0.483359586913139	2	1	NaN	3356186.5576835	NaN	3356187.5410609	3356188.05761491
76	19	0	0	90	36.1581920903955	36.241610738255	9	0.300048623979092	2	10	3	NaN	2	4	0.0373219555907749	1	1	NaN	262	5	10	1	121	221	321	NaN	521	0.0104098869487643	1	0	NaN	3356189.357961	NaN	3356190.3413366	3356190.85789351
76	19	0	0	90	36.1581920903955	36.241610738255	15	0.500081039965153	2	8	1	NaN	2	4	0.0373219555907749	1	1	NaN	263	5	11	1	121	221	321	NaN	521	1.23826128663495	2	1	NaN	3356191.6748404	NaN	3356192.6582474	3356193.17478971
76	19	0	0	90	36.1581920903955	36.241610738255	25	0.833468399941921	2	4	3	NaN	1	5	0.0373219555907749	1	1	NaN	264	5	12	1	121	221	321	NaN	521	0.831605586688966	2	0	NaN	3356195.2251974	NaN	3356196.2085769	3356196.72513251
76	19	0	0	90	36.1581920903955	36.241610738255	19	0.63343598395586	2	7	1	NaN	2	4	0.0373219555907749	1	1	NaN	265	5	13	1	121	221	321	NaN	521	1.45034913811833	2	1	NaN	3356198.3588315	NaN	3356199.3422307	3356199.85878626
76	19	0	0	90	36.1581920903955	36.241610738255	21	0.700113455951214	2	1	6	NaN	1	4	0.0373219555907749	1	1	NaN	266	5	14	1	121	221	321	NaN	521	0.242399886716157	1	1	NaN	3356202.3425229	NaN	3356203.3259395	3356203.84250671
76	19	0	0	90	36.1581920903955	36.241610738255	17	0.566758511960507	2	2	1	NaN	1	5	0.0373219555907749	1	1	NaN	267	5	15	1	121	221	321	NaN	521	0.45997673785314	2	0	NaN	3356204.8926907	NaN	3356205.8762188	3356206.39275936
76	19	0	0	90	36.1581920903955	36.241610738255	7	0.233371151983738	2	5	5	NaN	1	4	0.0373219555907749	1	1	NaN	268	5	16	1	121	221	321	NaN	521	0.341407638043165	2	0	NaN	3356207.6597663	NaN	3356208.6431241	3356209.15969296
76	19	0	0	90	36.1581920903955	36.241610738255	18	0.600097247958183	2	4	4	NaN	1	4	0.0373219555907749	1	1	NaN	269	5	17	1	121	221	321	NaN	521	0.352161586750299	2	0	NaN	3356210.5766943	NaN	3356211.5601129	3356212.07664281
76	19	0	0	90	36.1581920903955	36.241610738255	22	0.733452191948891	2	3	3	NaN	1	3	0.0373219555907749	1	1	NaN	270	5	18	1	121	221	321	NaN	521	1.50954448711127	1	1	NaN	3356213.2436336	NaN	3356214.2269963	3356214.74357761
76	19	0	0	90	36.1581920903955	36.241610738255	8	0.266709887981415	2	2	1	NaN	1	4	0.0373219555907749	1	1	NaN	271	5	19	1	121	221	321	NaN	521	0.783977486658841	2	0	NaN	3356217.5607063	NaN	3356218.5441115	3356219.06065951
76	19	0	0	90	36.1581920903955	36.241610738255	18	0.600097247958183	2	2	1	NaN	1	4	0.0373219555907749	1	1	NaN	272	5	20	1	121	221	321	NaN	521	0.574474786873907	1	1	NaN	3356220.7943713	NaN	3356221.7777812	3356222.29431711
76	19	0	0	90	36.1581920903955	36.241610738255	11	0.366726095974445	2	3	5	NaN	1	4	0.0373219555907749	1	1	NaN	273	5	21	1	121	221	321	NaN	521	0.458982186857611	2	0	NaN	3356223.6779939	NaN	3356224.6613733	3356225.17792511
76	19	0	0	90	36.1581920903955	36.241610738255	20	0.666774719953537	2	7	4	NaN	2	4	0.0373219555907749	1	1	NaN	274	5	22	1	121	221	321	NaN	521	0.739889186806977	1	0	NaN	3356226.4449267	NaN	3356227.428321	3356227.94486871
76	19	0	0	90	36.1581920903955	36.241610738255	24	0.800129663944244	2	6	1	NaN	1	3	0.0373219555907749	1	1	NaN	275	5	23	1	121	221	321	NaN	521	0.369597986806184	2	0	NaN	3356229.4952365	NaN	3356230.4786199	3356230.99517651
76	19	0	0	90	36.1581920903955	36.241610738255	14	0.466742303967476	2	7	4	NaN	2	3	0.0373219555907749	1	1	NaN	276	5	24	1	121	221	321	NaN	521	0.350226386915892	1	0	NaN	3356232.1788145	NaN	3356233.1622217	3356233.67877131
76	19	0	0	90	36.1581920903955	36.241610738255	16	0.53341977596283	2	12	2	NaN	2	5	0.0373219555907749	1	1	NaN	277	5	25	1	121	221	321	NaN	521	0.370979786850512	2	1	NaN	3356234.845754	NaN	3356235.8291462	3356236.34569631
76	19	0	0	90	36.1581920903955	36.241610738255	6	0.200032415986061	2	4	3	NaN	1	4	0.0373219555907749	1	1	NaN	278	5	26	1	121	221	321	NaN	521	0.415857586544007	1	1	NaN	3356237.5294428	NaN	3356238.5127356	3356239.02928781
76	19	0	0	90	36.1581920903955	36.241610738255	12	0.400064831972122	2	2	2	NaN	1	4	0.0373219555907749	1	1	NaN	279	5	27	1	121	221	321	NaN	521	0.0103649399243295	2	0	NaN	3356240.2462895	NaN	3356241.2296927	3356241.74622776
76	19	0	0	90	36.1581920903955	36.241610738255	8	0.266709887981415	2	6	3	NaN	1	3	0.0373219555907749	1	1	NaN	280	5	28	1	121	221	321	NaN	521	0.758018986787647	1	1	NaN	3356242.5630507	NaN	3356243.5465859	3356244.06312081
76	19	0	0	90	36.1581920903955	36.241610738255	11	0.366726095974445	2	5	6	NaN	1	3	0.0373219555907749	1	1	NaN	281	5	29	1	121	221	321	NaN	521	1.37065023789182	2	0	NaN	3356245.6301366	NaN	3356246.6136082	3356247.13009286
76	19	0	0	90	36.1581920903955	36.241610738255	10	0.333387359976768	2	9	3	NaN	2	5	0.0373219555907749	1	1	NaN	282	5	30	1	121	221	321	NaN	521	0.863231786992401	1	0	NaN	3356249.3138304	NaN	3356250.2972302	3356250.81378451
76	19	0	0	90	36.1581920903955	36.241610738255	17	0.566758511960507	2	5	2	NaN	1	3	0.0373219555907749	1	1	NaN	283	5	31	1	121	221	321	NaN	521	0.51209768652916	2	0	NaN	3356252.480828	NaN	3356253.4642067	3356253.98075541
76	19	0	0	90	36.1581920903955	36.241610738255	10	0.333387359976768	2	7	1	NaN	2	3	0.0373219555907749	1	1	NaN	284	5	32	1	121	221	321	NaN	521	0.430769086815417	1	0	NaN	3356255.3144329	NaN	3356256.2978195	3356256.81437381
76	19	0	0	90	36.1581920903955	36.241610738255	10	0.333387359976768	2	6	1	NaN	1	3	0.0373219555907749	1	1	NaN	285	5	33	1	121	221	321	NaN	521	0.440976286772639	2	0	NaN	3356258.0480175	NaN	3356259.0314085	3356259.54798071
76	19	0	0	90	36.1581920903955	36.241610738255	16	0.53341977596283	2	3	5	NaN	1	3	0.0373219555907749	1	1	NaN	286	5	34	1	121	221	321	NaN	521	0.95538668660447	2	0	NaN	3356261.1816824	NaN	3356262.1650797	3356262.68161681
76	19	0	0	90	36.1581920903955	36.241610738255	10	0.333387359976768	2	10	4	NaN	2	5	0.0373219555907749	1	1	NaN	287	5	35	1	121	221	321	NaN	521	0.496206537820399	2	1	NaN	3356264.4487296	NaN	3356265.4320282	3356265.94860726
76	19	0	0	90	36.1581920903955	36.241610738255	0	0	1	6	4	NaN	1	5	0.0373219555907749	1	1	NaN	288	5	36	1	111	211	311	NaN	511	0.0234510381706059	2	0	NaN	3356267.2656029	NaN	3356268.2489898	3356268.76554806
76	19	0	0	90	36.1581920903955	36.241610738255	22	0.733452191948891	2	5	2	NaN	1	3	0.0373219555907749	1	1	NaN	289	5	37	1	121	221	321	NaN	521	8.94575963821262	2	0	NaN	3356269.5991588	NaN	3356270.5825508	3356271.09911226
76	19	0	0	90	36.1581920903955	36.241610738255	7	0.233371151983738	2	8	2	NaN	2	4	0.0373219555907749	1	1	NaN	290	5	38	1	121	221	321	NaN	521	0.010426735971123	1	0	NaN	3356280.8502662	NaN	3356281.8336712	3356282.35020806
76	19	0	0	90	36.1581920903955	36.241610738255	21	0.700113455951214	2	8	2	NaN	2	4	0.0373219555907749	1	1	NaN	291	5	39	1	121	221	321	NaN	521	0.505824137944728	2	1	NaN	3356283.167256	NaN	3356284.1506125	3356284.66711166
76	19	0	0	90	36.1581920903955	36.241610738255	0	0	1	6	6	NaN	1	3	0.0373219555907749	1	1	NaN	292	5	40	1	111	211	311	NaN	511	0.0380928977392614	1	1	NaN	3356286.0507607	NaN	3356287.034166	3356287.5507324
76	19	0	0	90	36.1581920903955	36.241610738255	20	0.666774719953537	2	6	4	NaN	1	4	0.0373219555907749	1	1	NaN	293	5	41	1	121	221	321	NaN	521	0.423986586742103	1	1	NaN	3356288.4009464	NaN	3356289.3844177	3356289.90094831
76	19	0	0	90	36.1581920903955	36.241610738255	8	0.266709887981415	2	11	1	NaN	2	4	0.0373219555907749	1	1	NaN	294	5	42	1	121	221	321	NaN	521	1.42627698695287	1	0	NaN	3356291.1344878	NaN	3356292.1179978	3356292.63455841
76	19	0	0	90	36.1581920903955	36.241610738255	19	0.63343598395586	2	10	4	NaN	2	4	0.0373219555907749	1	1	NaN	295	5	43	1	121	221	321	NaN	521	0.0104059376753867	2	1	NaN	3356294.8681739	NaN	3356295.8517041	3356296.36826386
76	19	0	0	90	36.1581920903955	36.241610738255	25	0.833468399941921	2	11	1	NaN	2	4	0.0373219555907749	1	1	NaN	296	5	44	1	121	221	321	NaN	521	0.511925991158932	1	0	NaN	3356297.1852066	NaN	3356298.168593	3356298.68515431
76	19	0	0	90	36.1581920903955	36.241610738255	7	0.233371151983738	2	12	5	NaN	2	4	0.0373219555907749	1	1	NaN	297	5	45	1	121	221	321	NaN	521	0.238064244389534	2	1	NaN	3356300.0188263	NaN	3356301.002215	3356301.51876656
76	19	0	0	90	36.1581920903955	36.241610738255	24	0.800129663944244	2	8	6	NaN	2	5	0.0373219555907749	1	1	NaN	298	5	46	1	121	221	321	NaN	521	0.0104120867326856	1	0	NaN	3356302.9523092	NaN	3356303.9358673	3356304.45238921
76	19	0	0	90	36.1581920903955	36.241610738255	16	0.53341977596283	2	9	3	NaN	2	5	0.0373219555907749	1	1	NaN	299	5	47	1	121	221	321	NaN	521	0.185768138151616	2	1	NaN	3356305.7193427	NaN	3356306.7028098	3356307.21932706
76	19	0	0	90	36.1581920903955	36.241610738255	6	0.200032415986061	2	2	3	NaN	1	4	0.0373219555907749	1	1	NaN	300	5	48	1	121	221	321	NaN	521	1.48547393782064	1	1	NaN	3356308.21964	NaN	3356309.2030067	3356309.71956606
76	19	0	0	90	36.1581920903955	36.241610738255	21	0.700113455951214	2	10	2	NaN	2	5	0.0373219555907749	1	1	NaN	301	5	49	1	121	221	321	NaN	521	3.30897478666157	2	1	NaN	3356312.0199939	NaN	3356313.0033972	3356313.51993731
76	19	0	0	90	36.1581920903955	36.241610738255	25	0.833468399941921	2	10	5	NaN	2	3	0.0373219555907749	1	1	NaN	302	5	50	1	121	221	321	NaN	521	0.0278115379624069	2	1	NaN	3356317.6371502	NaN	3356318.6207243	3356319.13715886
76	19	0	0	90	36.1581920903955	36.241610738255	17	0.566758511960507	2	1	2	NaN	1	3	0.0373219555907749	1	1	NaN	303	5	51	1	121	221	321	NaN	521	0.174252938013524	2	0	NaN	3356320.3708039	NaN	3356321.3541945	3356321.87076026
76	19	0	0	90	36.1581920903955	36.241610738255	10	0.333387359976768	2	3	1	NaN	1	5	0.0373219555907749	1	1	NaN	304	5	52	1	121	221	321	NaN	521	0.226803886704147	1	1	NaN	3356322.8544802	NaN	3356323.8377751	3356324.35433891
76	19	0	0	90	36.1581920903955	36.241610738255	14	0.466742303967476	2	11	2	NaN	2	5	0.0373219555907749	1	1	NaN	305	5	53	1	121	221	321	NaN	521	0.797159538138658	2	1	NaN	3356325.3879718	NaN	3356326.3713583	3356326.88792506
76	19	0	0	90	36.1581920903955	36.241610738255	16	0.53341977596283	2	7	1	NaN	2	5	0.0373219555907749	1	1	NaN	306	5	54	1	121	221	321	NaN	521	0.600099386647344	1	0	NaN	3356328.5049605	NaN	3356329.4883347	3356330.00489371
76	19	0	0	90	36.1581920903955	36.241610738255	18	0.600097247958183	2	7	5	NaN	2	3	0.0373219555907749	1	1	NaN	307	5	55	1	121	221	321	NaN	521	0.452453386504203	2	1	NaN	3356331.7885757	NaN	3356332.7719963	3356333.28854611
76	19	0	0	90	36.1581920903955	36.241610738255	13	0.433403567969799	2	10	2	NaN	2	3	0.0373219555907749	1	1	NaN	308	5	56	1	121	221	321	NaN	521	1.46180658694357	1	0	NaN	3356334.5555417	NaN	3356335.5389356	3356336.05548521
76	19	0	0	90	36.1581920903955	36.241610738255	19	0.63343598395586	2	4	5	NaN	1	4	0.0373219555907749	1	1	NaN	309	5	57	1	121	221	321	NaN	521	2.00640128646046	2	0	NaN	3356338.3225661	NaN	3356339.3059634	3356339.82252441
76	19	0	0	90	36.1581920903955	36.241610738255	17	0.566758511960507	2	8	5	NaN	2	3	0.0373219555907749	1	1	NaN	310	5	58	1	121	221	321	NaN	521	0.721466186922044	1	0	NaN	3356342.6396695	NaN	3356343.6230573	3356344.13961021
76	19	0	0	90	36.1581920903955	36.241610738255	10	0.333387359976768	2	7	3	NaN	2	5	0.0373219555907749	1	1	NaN	311	5	59	1	121	221	321	NaN	521	0.590664437972009	1	0	NaN	3356346.1065875	NaN	3356347.0900662	3356347.60663436
76	19	0	0	90	36.1581920903955	36.241610738255	16	0.53341977596283	2	5	1	NaN	1	4	0.0373219555907749	1	1	NaN	312	5	60	1	121	221	321	NaN	521	1.32230078661814	2	0	NaN	3356349.0068319	NaN	3356349.9903527	3356350.50690541
76	19	0	0	90	36.1581920903955	36.241610738255	11	0.366726095974445	2	11	2	NaN	2	3	0.0373219555907749	1	1	NaN	313	5	61	1	121	221	321	NaN	521	2.26435088692233	2	1	NaN	3356352.6406348	NaN	3356353.6240444	3356354.14059681
76	19	0	0	90	36.1581920903955	36.241610738255	10	0.333387359976768	2	12	3	NaN	2	5	0.0373219555907749	1	1	NaN	314	5	62	1	121	221	321	NaN	521	2.16968669556081	2	1	NaN	3356357.2077597	NaN	3356358.1911485	3356358.7077235
76	19	0	0	90	36.1581920903955	36.241610738255	12	0.400064831972122	2	11	3	NaN	2	3	0.0373219555907749	1	1	NaN	315	5	63	1	121	221	321	NaN	521	0.661668584682047	2	1	NaN	3356361.6915389	NaN	3356362.6749273	3356363.19148162
76	19	0	0	90	36.1581920903955	36.241610738255	16	0.53341977596283	2	3	1	NaN	1	3	0.0373219555907749	1	1	NaN	316	6	1	1	121	221	321	NaN	521	0.56459573796019	2	0	NaN	3356372.4925965	NaN	3356373.4759876	3356373.99255026
76	19	0	0	90	36.1581920903955	36.241610738255	23	0.766790927946568	2	4	5	NaN	1	3	0.0373219555907749	1	1	NaN	317	6	2	1	121	221	321	NaN	521	0.0104083865880966	1	1	NaN	3356375.3595555	NaN	3356376.342953	3356376.85949041
76	19	0	0	90	36.1581920903955	36.241610738255	13	0.433403567969799	2	9	4	NaN	2	5	0.0373219555907749	1	1	NaN	318	6	3	1	121	221	321	NaN	521	0.851825086865574	1	0	NaN	3356377.6930581	NaN	3356378.6765044	3356379.19305061
76	19	0	0	90	36.1581920903955	36.241610738255	7	0.233371151983738	2	6	2	NaN	1	5	0.0373219555907749	1	1	NaN	319	6	4	1	121	221	321	NaN	521	0.253300237935036	1	1	NaN	3356380.8600934	NaN	3356381.8434805	3356382.36004466
76	19	0	0	90	36.1581920903955	36.241610738255	23	0.766790927946568	2	7	2	NaN	2	5	0.0373219555907749	1	1	NaN	320	6	5	1	121	221	321	NaN	521	0.0104180867783725	2	1	NaN	3356383.4270008	NaN	3356384.4104077	3356384.92694771
76	19	0	0	90	36.1581920903955	36.241610738255	17	0.566758511960507	2	10	5	NaN	2	3	0.0373219555907749	1	1	NaN	321	6	6	1	121	221	321	NaN	521	0.265221138019115	2	1	NaN	3356385.743928	NaN	3356386.7272913	3356387.24385526
76	19	0	0	90	36.1581920903955	36.241610738255	14	0.466742303967476	2	9	6	NaN	2	4	0.0373219555907749	1	1	NaN	322	6	7	1	121	221	321	NaN	521	0.36969998665154	2	1	NaN	3356388.3274719	NaN	3356389.3108753	3356389.82743581
76	19	0	0	90	36.1581920903955	36.241610738255	0	0	1	7	6	NaN	2	5	0.0373219555907749	1	1	NaN	323	6	8	1	111	211	311	NaN	511	0.317970938049257	2	1	NaN	3356391.01108	NaN	3356391.9944749	3356392.51103756
76	19	0	0	90	36.1581920903955	36.241610738255	15	0.500081039965153	2	12	6	NaN	2	5	0.0373219555907749	1	1	NaN	324	6	9	1	121	221	321	NaN	521	1.0448267380707	2	1	NaN	3356393.6446837	NaN	3356394.6280676	3356395.14464046
76	19	0	0	90	36.1581920903955	36.241610738255	17	0.566758511960507	2	1	4	NaN	1	3	0.0373219555907749	1	1	NaN	325	6	10	1	121	221	321	NaN	521	0.413499237969518	2	0	NaN	3356397.0116784	NaN	3356397.9950733	3356398.51162816
76	19	0	0	90	36.1581920903955	36.241610738255	0	0	1	10	5	NaN	2	5	0.0373219555907749	1	1	NaN	326	6	11	1	111	211	311	NaN	511	0.769256837666035	1	0	NaN	3356400.1118585	NaN	3356401.0955011	3356401.61193096
76	19	0	0	90	36.1581920903955	36.241610738255	14	0.466742303967476	2	7	2	NaN	2	5	0.0373219555907749	1	1	NaN	327	6	12	1	121	221	321	NaN	521	0.34868333581835	2	1	NaN	3356403.4123097	NaN	3356404.3956848	3356404.91225896
76	19	0	0	90	36.1581920903955	36.241610738255	23	0.766790927946568	2	11	3	NaN	2	4	0.0373219555907749	1	1	NaN	328	6	13	1	121	221	321	NaN	521	0.545778035651892	1	0	NaN	3356406.0792265	NaN	3356407.0626293	3356407.57917966
76	19	0	0	90	36.1581920903955	36.241610738255	8	0.266709887981415	2	3	6	NaN	1	4	0.0373219555907749	1	1	NaN	329	6	14	1	121	221	321	NaN	521	1.11132868658751	2	0	NaN	3356408.9461888	NaN	3356409.9295762	3356410.44612391
76	19	0	0	90	36.1581920903955	36.241610738255	21	0.700113455951214	2	4	6	NaN	1	3	0.0373219555907749	1	1	NaN	330	6	15	1	121	221	321	NaN	521	0.294137986842543	1	1	NaN	3356412.3631356	NaN	3356413.3466308	3356413.86312971
76	19	0	0	90	36.1581920903955	36.241610738255	9	0.300048623979092	2	6	3	NaN	1	5	0.0373219555907749	1	1	NaN	331	6	16	1	121	221	321	NaN	521	4.60567573970184	2	0	NaN	3356414.9634477	NaN	3356415.9468288	3356416.46338606
76	19	0	0	90	36.1581920903955	36.241610738255	6	0.200032415986061	2	10	3	NaN	2	4	0.0373219555907749	1	1	NaN	332	6	17	1	121	221	321	NaN	521	0.160756038036197	2	1	NaN	3356421.8807851	NaN	3356422.8640856	3356423.38073366
76	19	0	0	90	36.1581920903955	36.241610738255	13	0.433403567969799	2	4	3	NaN	1	4	0.0373219555907749	1	1	NaN	333	6	18	1	121	221	321	NaN	521	0.36573518672958	1	1	NaN	3356424.3477546	NaN	3356425.3310919	3356425.84763861
76	19	0	0	90	36.1581920903955	36.241610738255	12	0.400064831972122	2	4	5	NaN	1	3	0.0373219555907749	1	1	NaN	334	6	19	1	121	221	321	NaN	521	2.33236058661714	2	0	NaN	3356427.3646653	NaN	3356428.348041	3356428.86460141
76	19	0	0	90	36.1581920903955	36.241610738255	13	0.433403567969799	2	7	6	NaN	2	4	0.0373219555907749	1	1	NaN	335	6	20	1	121	221	321	NaN	521	0.0104347383603454	2	1	NaN	3356432.131758	NaN	3356433.1151741	3356433.63173436
76	19	0	0	90	36.1581920903955	36.241610738255	13	0.433403567969799	2	2	5	NaN	1	5	0.0373219555907749	1	1	NaN	336	6	21	1	121	221	321	NaN	521	1.27266953792423	2	0	NaN	3356434.448576	NaN	3356435.432072	3356435.94863476
76	19	0	0	90	36.1581920903955	36.241610738255	16	0.53341977596283	2	11	2	NaN	2	4	0.0373219555907749	1	1	NaN	337	6	22	1	121	221	321	NaN	521	5.24101763824001	2	1	NaN	3356438.0323697	NaN	3356439.015761	3356439.53232106
76	19	0	0	90	36.1581920903955	36.241610738255	23	0.766790927946568	2	1	3	NaN	1	3	0.0373219555907749	1	1	NaN	338	6	23	1	121	221	321	NaN	521	0.0821892376989126	2	0	NaN	3356445.5831514	NaN	3356446.5665064	3356447.08306256
76	19	0	0	90	36.1581920903955	36.241610738255	20	0.666774719953537	2	4	4	NaN	1	5	0.0373219555907749	1	1	NaN	339	6	24	1	121	221	321	NaN	521	0.682732087094337	2	0	NaN	3356448.3666802	NaN	3356449.3501058	3356449.86666381
76	19	0	0	90	36.1581920903955	36.241610738255	19	0.63343598395586	2	2	1	NaN	1	4	0.0373219555907749	1	1	NaN	340	6	25	1	121	221	321	NaN	521	0.565101086627692	2	0	NaN	3356453.5005299	NaN	3356454.4839478	3356455.00049911
76	19	0	0	90	36.1581920903955	36.241610738255	15	0.500081039965153	2	3	3	NaN	1	5	0.0373219555907749	1	1	NaN	341	6	26	1	121	221	321	NaN	521	0.0883245933800936	1	1	NaN	3356456.8007625	NaN	3356457.7841697	3356458.30082281
76	19	0	0	90	36.1581920903955	36.241610738255	18	0.600097247958183	2	8	3	NaN	2	4	0.0373219555907749	1	1	NaN	342	6	27	1	121	221	321	NaN	521	2.40824464662001	1	0	NaN	3356459.2011568	NaN	3356460.1845504	3356460.70105985
76	19	0	0	90	36.1581920903955	36.241610738255	13	0.433403567969799	2	12	6	NaN	2	4	0.0373219555907749	1	1	NaN	343	6	28	1	121	221	321	NaN	521	2.23482058662921	2	1	NaN	3356463.9182503	NaN	3356464.9016417	3356465.41819381
76	19	0	0	90	36.1581920903955	36.241610738255	14	0.466742303967476	2	12	6	NaN	2	5	0.0373219555907749	1	1	NaN	344	6	29	1	121	221	321	NaN	521	0.25061153806746	2	1	NaN	3356471.1182771	NaN	3356472.1023335	3356472.61890006
76	19	0	0	90	36.1581920903955	36.241610738255	17	0.566758511960507	2	6	3	NaN	1	5	0.0373219555907749	1	1	NaN	345	6	30	1	121	221	321	NaN	521	0.875311837997288	1	1	NaN	3356473.6858827	NaN	3356474.6692843	3356475.18581896
76	19	0	0	90	36.1581920903955	36.241610738255	24	0.800129663944244	2	9	2	NaN	2	3	0.0373219555907749	1	1	NaN	346	6	31	1	121	221	321	NaN	521	0.367700033821166	2	1	NaN	3356477.3695325	NaN	3356478.352942	3356478.86951047
76	19	0	0	90	36.1581920903955	36.241610738255	20	0.666774719953537	2	2	4	NaN	1	4	0.0373219555907749	1	1	NaN	347	6	32	1	121	221	321	NaN	521	0.348051236011088	1	1	NaN	3356480.053172	NaN	3356481.0365526	3356481.55310386
76	19	0	0	90	36.1581920903955	36.241610738255	9	0.300048623979092	2	1	6	NaN	1	3	0.0373219555907749	1	1	NaN	348	6	33	1	121	221	321	NaN	521	0.296430186834186	2	0	NaN	3356482.9367352	NaN	3356483.9201738	3356484.43672881
76	19	0	0	90	36.1581920903955	36.241610738255	6	0.200032415986061	2	10	4	NaN	2	3	0.0373219555907749	1	1	NaN	349	6	34	1	121	221	321	NaN	521	0.368543636053801	1	0	NaN	3356485.5370223	NaN	3356486.5204198	3356487.03697266
76	19	0	0	90	36.1581920903955	36.241610738255	16	0.53341977596283	2	9	6	NaN	2	5	0.0373219555907749	1	1	NaN	350	6	35	1	121	221	321	NaN	521	3.25251798471436	2	1	NaN	3356488.2206292	NaN	3356489.2040109	3356489.72057232
76	19	0	0	90	36.1581920903955	36.241610738255	18	0.600097247958183	2	12	3	NaN	2	4	0.0373219555907749	1	1	NaN	351	6	36	1	121	221	321	NaN	521	0.381407186854631	1	0	NaN	3356493.7878573	NaN	3356494.7712244	3356495.28778991
76	19	0	0	90	36.1581920903955	36.241610738255	24	0.800129663944244	2	2	6	NaN	1	3	0.0373219555907749	1	1	NaN	352	6	37	1	121	221	321	NaN	521	0.394064938183874	2	0	NaN	3356496.4713739	NaN	3356497.4548731	3356497.97139466
76	19	0	0	90	36.1581920903955	36.241610738255	10	0.333387359976768	2	3	5	NaN	1	3	0.0373219555907749	1	1	NaN	353	6	38	1	121	221	321	NaN	521	0.949406086467206	2	0	NaN	3356499.1717113	NaN	3356500.1551286	3356500.67165361
76	19	0	0	90	36.1581920903955	36.241610738255	9	0.300048623979092	2	11	5	NaN	2	4	0.0373219555907749	1	1	NaN	354	6	39	1	121	221	321	NaN	521	0.674608338158578	2	1	NaN	3356502.4387012	NaN	3356503.422091	3356503.93864646
76	19	0	0	90	36.1581920903955	36.241610738255	15	0.500081039965153	2	3	4	NaN	1	5	0.0373219555907749	1	1	NaN	355	6	40	1	121	221	321	NaN	521	0.970846986863762	1	1	NaN	3356505.4223191	NaN	3356506.4057094	3356506.92226831
76	19	0	0	90	36.1581920903955	36.241610738255	0	0	1	2	1	NaN	1	3	0.0373219555907749	1	1	NaN	356	6	41	1	111	211	311	NaN	511	0.37531898682937	2	0	NaN	3356508.7059904	NaN	3356509.6893757	3356510.20592391
76	19	0	0	90	36.1581920903955	36.241610738255	17	0.566758511960507	2	12	2	NaN	2	5	0.0373219555907749	1	1	NaN	357	6	42	1	121	221	321	NaN	521	0.819732686504722	2	1	NaN	3356511.3895664	NaN	3356512.3729766	3356512.88951621
76	19	0	0	90	36.1581920903955	36.241610738255	24	0.800129663944244	2	5	3	NaN	1	4	0.0373219555907749	1	1	NaN	358	6	43	1	121	221	321	NaN	521	0.0540342382155359	2	0	NaN	3356514.5232133	NaN	3356515.506596	3356516.02316606
76	19	0	0	90	36.1581920903955	36.241610738255	17	0.566758511960507	2	9	2	NaN	2	4	0.0373219555907749	1	1	NaN	359	6	44	1	121	221	321	NaN	521	0.335375586524606	1	0	NaN	3356516.8900992	NaN	3356517.8735075	3356518.39006061
76	19	0	0	90	36.1581920903955	36.241610738255	0	0	1	5	1	NaN	1	5	0.0373219555907749	1	1	NaN	360	6	45	1	111	211	311	NaN	511	0.010405938141048	2	0	NaN	3356519.5403699	NaN	3356520.5237778	3356521.04032626
76	19	0	0	90	36.1581920903955	36.241610738255	7	0.233371151983738	2	1	5	NaN	1	4	0.0373219555907749	1	1	NaN	361	6	46	1	121	221	321	NaN	521	0.512334286700934	2	0	NaN	3356521.8572745	NaN	3356522.8407043	3356523.35721151
76	19	0	0	90	36.1581920903955	36.241610738255	0	0	1	12	4	NaN	2	5	0.0373219555907749	1	1	NaN	362	6	47	1	111	211	311	NaN	511	0.21470758644864	2	1	NaN	3356524.6907544	NaN	3356525.6742672	3356526.19082411
76	19	0	0	90	36.1581920903955	36.241610738255	7	0.233371151983738	2	9	2	NaN	2	4	0.0373219555907749	1	1	NaN	363	6	48	1	121	221	321	NaN	521	1.09684778656811	2	1	NaN	3356527.2244583	NaN	3356528.2079007	3356528.72441001
76	19	0	0	90	36.1581920903955	36.241610738255	20	0.666774719953537	2	8	1	NaN	2	3	0.0373219555907749	1	1	NaN	364	6	49	1	121	221	321	NaN	521	0.152867886703461	1	0	NaN	3356532.4082803	NaN	3356533.3916995	3356533.90824801
76	19	0	0	90	36.1581920903955	36.241610738255	13	0.433403567969799	2	8	3	NaN	2	4	0.0373219555907749	1	1	NaN	365	6	50	1	121	221	321	NaN	521	0.546070886775851	2	1	NaN	3356535.1752221	NaN	3356536.1586487	3356536.67519391
76	19	0	0	90	36.1581920903955	36.241610738255	17	0.566758511960507	2	5	3	NaN	1	3	0.0373219555907749	1	1	NaN	366	6	51	1	121	221	321	NaN	521	0.134448238182813	1	1	NaN	3356540.6590884	NaN	3356541.6425052	3356542.15906176
76	19	0	0	90	36.1581920903955	36.241610738255	12	0.400064831972122	2	9	1	NaN	2	3	0.0373219555907749	1	1	NaN	367	6	52	1	121	221	321	NaN	521	0.612375386990607	2	1	NaN	3356543.1093898	NaN	3356544.0927971	3356544.60930641
76	19	0	0	90	36.1581920903955	36.241610738255	16	0.53341977596283	2	4	6	NaN	1	4	0.0373219555907749	1	1	NaN	368	6	53	1	121	221	321	NaN	521	1.61532398685813	2	0	NaN	3356546.0263293	NaN	3356547.0096967	3356547.52624811
76	19	0	0	90	36.1581920903955	36.241610738255	16	0.53341977596283	2	6	2	NaN	1	3	0.0373219555907749	1	1	NaN	369	6	54	1	121	221	321	NaN	521	1.53771528694779	2	0	NaN	3356549.9600479	NaN	3356550.9434174	3356551.45996921
76	19	0	0	90	36.1581920903955	36.241610738255	25	0.833468399941921	2	9	4	NaN	2	3	0.0373219555907749	1	1	NaN	370	6	55	1	121	221	321	NaN	521	0.0103895380161703	1	0	NaN	3356554.2604185	NaN	3356555.2438256	3356555.76040056
76	19	0	0	90	36.1581920903955	36.241610738255	10	0.333387359976768	2	8	2	NaN	2	3	0.0373219555907749	1	1	NaN	371	6	56	1	121	221	321	NaN	521	0.814956786576658	2	1	NaN	3356556.6106815	NaN	3356557.5940761	3356558.11062481
76	19	0	0	90	36.1581920903955	36.241610738255	10	0.333387359976768	2	11	3	NaN	2	5	0.0373219555907749	1	1	NaN	372	6	57	1	121	221	321	NaN	521	1.22519453754649	2	1	NaN	3356559.7443308	NaN	3356560.7277108	3356561.24427416
76	19	0	0	90	36.1581920903955	36.241610738255	10	0.333387359976768	2	4	6	NaN	1	3	0.0373219555907749	1	1	NaN	373	6	58	1	121	221	321	NaN	521	0.349043286871165	1	1	NaN	3356564.6280122	NaN	3356565.611519	3356566.12808191
76	19	0	0	90	36.1581920903955	36.241610738255	0	0	1	9	2	NaN	2	3	0.0373219555907749	1	1	NaN	374	6	59	1	111	211	311	NaN	511	1.38986478652805	2	1	NaN	3356567.6116638	NaN	3356568.5951609	3356569.11170601
76	19	0	0	90	36.1581920903955	36.241610738255	9	0.300048623979092	2	3	5	NaN	1	5	0.0373219555907749	1	1	NaN	375	6	60	1	121	221	321	NaN	521	0.713537137955427	1	1	NaN	3356571.3121216	NaN	3356572.2955136	3356572.81207456
76	19	0	0	90	36.1581920903955	36.241610738255	6	0.200032415986061	2	2	5	NaN	1	3	0.0373219555907749	1	1	NaN	376	6	61	1	121	221	321	NaN	521	0.68748863786459	2	0	NaN	3356574.3457654	NaN	3356575.3291745	3356575.84570526
76	19	0	0	90	36.1581920903955	36.241610738255	18	0.600097247958183	2	6	4	NaN	1	4	0.0373219555907749	1	1	NaN	377	6	62	1	121	221	321	NaN	521	4.71149198664352	2	0	NaN	3356577.3460573	NaN	3356578.3294391	3356578.84599561
76	19	0	0	90	36.1581920903955	36.241610738255	20	0.666774719953537	2	11	1	NaN	2	4	0.0373219555907749	1	1	NaN	378	6	63	1	121	221	321	NaN	521	0.0220927377231419	1	0	NaN	3356584.3633991	NaN	3356585.3468001	3356585.86335046
76	19	0	0	90	36.1581920903955	36.241610738255	7	0.233371151983738	2	5	4	NaN	1	3	0.0373219555907749	1	1	NaN	379	7	1	1	121	221	321	NaN	521	0.0652705379761755	2	0	NaN	3356593.0642766	NaN	3356594.0476517	3356594.56420806
76	19	0	0	90	36.1581920903955	36.241610738255	23	0.766790927946568	2	10	4	NaN	2	3	0.0373219555907749	1	1	NaN	380	7	2	1	121	221	321	NaN	521	0.38757958682254	2	1	NaN	3356595.7978317	NaN	3356596.7812461	3356597.29781061
76	19	0	0	90	36.1581920903955	36.241610738255	20	0.666774719953537	2	9	6	NaN	2	4	0.0373219555907749	1	1	NaN	381	7	3	1	121	221	321	NaN	521	0.319292437750846	2	1	NaN	3356598.4981119	NaN	3356599.4815045	3356599.99807916
76	19	0	0	90	36.1581920903955	36.241610738255	6	0.200032415986061	2	1	5	NaN	1	4	0.0373219555907749	1	1	NaN	382	7	4	1	121	221	321	NaN	521	0.32567823631689	1	1	NaN	3356601.1317227	NaN	3356602.1151102	3356602.63167086
76	19	0	0	90	36.1581920903955	36.241610738255	16	0.53341977596283	2	10	3	NaN	2	4	0.0373219555907749	1	1	NaN	383	7	5	1	121	221	321	NaN	521	1.06538358703256	2	1	NaN	3356603.8319427	NaN	3356604.8153672	3356605.33193851
76	19	0	0	90	36.1581920903955	36.241610738255	25	0.833468399941921	2	8	2	NaN	2	3	0.0373219555907749	1	1	NaN	384	7	6	1	121	221	321	NaN	521	0.153911486733705	2	1	NaN	3356607.2156476	NaN	3356608.1990446	3356608.71559811
76	19	0	0	90	36.1581920903955	36.241610738255	25	0.833468399941921	2	7	5	NaN	2	3	0.0373219555907749	1	1	NaN	385	7	7	1	121	221	321	NaN	521	0.3432546867989	1	0	NaN	3356609.6826143	NaN	3356610.6659635	3356611.18250291
76	19	0	0	90	36.1581920903955	36.241610738255	11	0.366726095974445	2	9	3	NaN	2	3	0.0373219555907749	1	1	NaN	386	7	8	1	121	221	321	NaN	521	0.620587686542422	2	1	NaN	3356612.3328244	NaN	3356613.3162429	3356613.83276491
76	19	0	0	90	36.1581920903955	36.241610738255	8	0.266709887981415	2	1	4	NaN	1	4	0.0373219555907749	1	1	NaN	387	7	9	1	121	221	321	NaN	521	0.555983237922192	1	1	NaN	3356615.5498162	NaN	3356616.5331945	3356617.04975076
76	19	0	0	90	36.1581920903955	36.241610738255	12	0.400064831972122	2	8	2	NaN	2	4	0.0373219555907749	1	1	NaN	388	7	10	1	121	221	321	NaN	521	0.480994838289917	2	1	NaN	3356618.4167652	NaN	3356619.4001353	3356619.91669646
76	19	0	0	90	36.1581920903955	36.241610738255	6	0.200032415986061	2	3	4	NaN	1	4	0.0373219555907749	1	1	NaN	389	7	11	1	121	221	321	NaN	521	0.0964056868106127	2	0	NaN	3356621.2170809	NaN	3356622.2004169	3356622.71697151
76	19	0	0	90	36.1581920903955	36.241610738255	20	0.666774719953537	2	11	6	NaN	2	3	0.0373219555907749	1	1	NaN	390	7	12	1	121	221	321	NaN	521	0.111616236157715	2	1	NaN	3356623.6339519	NaN	3356624.6173458	3356625.13387186
76	19	0	0	90	36.1581920903955	36.241610738255	21	0.700113455951214	2	11	3	NaN	2	5	0.0373219555907749	1	1	NaN	391	7	13	1	121	221	321	NaN	521	0.590984838083386	1	0	NaN	3356626.0508343	NaN	3356627.0342262	3356627.55078606
76	19	0	0	90	36.1581920903955	36.241610738255	7	0.233371151983738	2	10	2	NaN	2	4	0.0373219555907749	1	1	NaN	392	7	14	1	121	221	321	NaN	521	5.07836413756013	2	1	NaN	3356629.651117	NaN	3356630.6345632	3356631.15113496
76	19	0	0	90	36.1581920903955	36.241610738255	22	0.733452191948891	2	6	6	NaN	1	3	0.0373219555907749	1	1	NaN	393	7	15	1	121	221	321	NaN	521	0.453597038052976	1	1	NaN	3356637.0519822	NaN	3356638.0353011	3356638.55186126
76	19	0	0	90	36.1581920903955	36.241610738255	23	0.766790927946568	2	10	1	NaN	2	4	0.0373219555907749	1	1	NaN	394	7	16	1	121	221	321	NaN	521	0.342775786761194	1	0	NaN	3356639.8188576	NaN	3356640.8022469	3356641.31880611
76	19	0	0	90	36.1581920903955	36.241610738255	12	0.400064831972122	2	10	3	NaN	2	5	0.0373219555907749	1	1	NaN	395	7	17	1	121	221	321	NaN	521	0.348708537872881	2	1	NaN	3356642.4689794	NaN	3356643.4525195	3356643.96906296
76	19	0	0	90	36.1581920903955	36.241610738255	19	0.63343598395586	2	11	4	NaN	2	5	0.0373219555907749	1	1	NaN	396	7	18	1	121	221	321	NaN	521	0.418395137879997	1	0	NaN	3356645.1193807	NaN	3356646.1027668	3356646.61931626
76	19	0	0	90	36.1581920903955	36.241610738255	23	0.766790927946568	2	6	6	NaN	1	5	0.0373219555907749	1	1	NaN	397	7	19	1	121	221	321	NaN	521	0.0104326847940683	1	1	NaN	3356647.8529692	NaN	3356648.8363755	3356649.35291842
76	19	0	0	90	36.1581920903955	36.241610738255	21	0.700113455951214	2	2	5	NaN	1	3	0.0373219555907749	1	1	NaN	398	7	20	1	121	221	321	NaN	521	0.39098643604666	1	1	NaN	3356650.1865515	NaN	3356651.1699497	3356651.68647946
76	19	0	0	90	36.1581920903955	36.241610738255	17	0.566758511960507	2	11	2	NaN	2	3	0.0373219555907749	1	1	NaN	399	7	21	1	121	221	321	NaN	521	0.0104454359970987	1	0	NaN	3356652.8868017	NaN	3356653.8701794	3356654.38675216
76	19	0	0	90	36.1581920903955	36.241610738255	0	0	1	8	6	NaN	2	4	0.0373219555907749	1	1	NaN	400	7	22	1	111	211	311	NaN	511	0.341653186827898	1	0	NaN	3356655.2037014	NaN	3356656.18709	3356656.70363821
76	19	0	0	90	36.1581920903955	36.241610738255	23	0.766790927946568	2	9	1	NaN	2	3	0.0373219555907749	1	1	NaN	401	7	23	1	121	221	321	NaN	521	0.563596537802368	1	0	NaN	3356657.8538525	NaN	3356658.8373869	3356659.35390686
76	19	0	0	90	36.1581920903955	36.241610738255	13	0.433403567969799	2	1	4	NaN	1	4	0.0373219555907749	1	1	NaN	402	7	24	1	121	221	321	NaN	521	0.575823149178177	1	1	NaN	3356660.7375767	NaN	3356661.7210186	3356662.23754295
76	19	0	0	90	36.1581920903955	36.241610738255	0	0	1	5	3	NaN	1	5	0.0373219555907749	1	1	NaN	403	7	25	1	111	211	311	NaN	511	0.396616437938064	1	1	NaN	3356663.6211879	NaN	3356664.6045908	3356665.12113466
76	19	0	0	90	36.1581920903955	36.241610738255	18	0.600097247958183	2	10	2	NaN	2	3	0.0373219555907749	1	1	NaN	404	7	26	1	121	221	321	NaN	521	4.84800858655944	2	1	NaN	3356666.321477	NaN	3356667.3048468	3356667.82139811
76	19	0	0	90	36.1581920903955	36.241610738255	24	0.800129663944244	2	9	2	NaN	2	5	0.0373219555907749	1	1	NaN	405	7	27	1	121	221	321	NaN	521	0.46502988692373	2	1	NaN	3356673.4888253	NaN	3356674.4722842	3356674.98876631
76	19	0	0	90	36.1581920903955	36.241610738255	21	0.700113455951214	2	12	3	NaN	2	3	0.0373219555907749	1	1	NaN	406	7	28	1	121	221	321	NaN	521	2.09692148678005	2	1	NaN	3356676.2724445	NaN	3356677.2558301	3356677.77237501
76	19	0	0	90	36.1581920903955	36.241610738255	24	0.800129663944244	2	1	2	NaN	1	3	0.0373219555907749	1	1	NaN	407	7	29	1	121	221	321	NaN	521	5.38710499787703	1	1	NaN	3356683.4064603	NaN	3356684.3898455	3356684.9064151
76	19	0	0	90	36.1581920903955	36.241610738255	11	0.366726095974445	2	4	2	NaN	1	3	0.0373219555907749	1	1	NaN	408	7	30	1	121	221	321	NaN	521	0.414138137828559	1	1	NaN	3356691.1072239	NaN	3356692.090652	3356692.60717476
76	19	0	0	90	36.1581920903955	36.241610738255	21	0.700113455951214	2	9	4	NaN	2	3	0.0373219555907749	1	1	NaN	409	7	31	1	121	221	321	NaN	521	0.285264737904072	2	1	NaN	3356694.1241821	NaN	3356695.1075816	3356695.62413236
76	19	0	0	90	36.1581920903955	36.241610738255	25	0.833468399941921	2	7	2	NaN	2	4	0.0373219555907749	1	1	NaN	410	7	32	1	121	221	321	NaN	521	0.213375644292682	2	1	NaN	3356696.7244351	NaN	3356697.7078244	3356698.22439656
76	19	0	0	90	36.1581920903955	36.241610738255	19	0.63343598395586	2	7	6	NaN	2	4	0.0373219555907749	1	1	NaN	411	7	33	1	121	221	321	NaN	521	0.0104105868376791	2	1	NaN	3356699.2413483	NaN	3356700.2247331	3356700.74130371
76	19	0	0	90	36.1581920903955	36.241610738255	10	0.333387359976768	2	1	1	NaN	1	5	0.0373219555907749	1	1	NaN	412	7	34	1	121	221	321	NaN	521	0.315617684740573	1	1	NaN	3356701.5582563	NaN	3356702.541639	3356703.05819132
76	19	0	0	90	36.1581920903955	36.241610738255	6	0.200032415986061	2	12	1	NaN	2	3	0.0373219555907749	1	1	NaN	413	7	35	1	121	221	321	NaN	521	0.377813286613673	2	1	NaN	3356704.1918301	NaN	3356705.1752418	3356705.69178411
76	19	0	0	90	36.1581920903955	36.241610738255	18	0.600097247958183	2	3	2	NaN	1	3	0.0373219555907749	1	1	NaN	414	7	36	1	121	221	321	NaN	521	0.382007886655629	2	0	NaN	3356706.8753507	NaN	3356707.858832	3356708.37537901
76	19	0	0	90	36.1581920903955	36.241610738255	10	0.333387359976768	2	10	1	NaN	2	4	0.0373219555907749	1	1	NaN	415	7	37	1	121	221	321	NaN	521	0.370680186897516	2	1	NaN	3356709.55898	NaN	3356710.5424921	3356711.05897471
76	19	0	0	90	36.1581920903955	36.241610738255	21	0.700113455951214	2	12	4	NaN	2	4	0.0373219555907749	1	1	NaN	416	7	38	1	121	221	321	NaN	521	5.39327263599262	2	1	NaN	3356712.3926535	NaN	3356713.3760307	3356713.89259356
76	19	0	0	90	36.1581920903955	36.241610738255	19	0.63343598395586	2	8	2	NaN	2	4	0.0373219555907749	1	1	NaN	417	7	39	1	121	221	321	NaN	521	0.372036786749959	2	1	NaN	3356720.0933949	NaN	3356721.0767913	3356721.59334541
76	19	0	0	90	36.1581920903955	36.241610738255	25	0.833468399941921	2	6	1	NaN	1	3	0.0373219555907749	1	1	NaN	418	7	40	1	121	221	321	NaN	521	0.352921686600894	2	0	NaN	3356722.777001	NaN	3356723.7603733	3356724.27694231
76	19	0	0	90	36.1581920903955	36.241610738255	20	0.666774719953537	2	1	6	NaN	1	3	0.0373219555907749	1	1	NaN	419	7	41	1	121	221	321	NaN	521	0.44605058664456	2	0	NaN	3356725.4439217	NaN	3356726.427336	3356726.94386771
76	19	0	0	90	36.1581920903955	36.241610738255	20	0.666774719953537	2	3	2	NaN	1	4	0.0373219555907749	1	1	NaN	420	7	42	1	121	221	321	NaN	521	0.498306235764176	2	0	NaN	3356728.3276073	NaN	3356729.3109291	3356729.82748796
76	19	0	0	90	36.1581920903955	36.241610738255	22	0.733452191948891	2	10	1	NaN	2	4	0.0373219555907749	1	1	NaN	421	7	43	1	121	221	321	NaN	521	0.223532386589795	2	1	NaN	3356735.1781876	NaN	3356736.1616213	3356736.67815701
76	19	0	0	90	36.1581920903955	36.241610738255	25	0.833468399941921	2	2	4	NaN	1	3	0.0373219555907749	1	1	NaN	422	7	44	1	121	221	321	NaN	521	0.0104046864435077	1	1	NaN	3356737.7116777	NaN	3356738.6952678	3356739.21174341
76	19	0	0	90	36.1581920903955	36.241610738255	24	0.800129663944244	2	10	1	NaN	2	5	0.0373219555907749	1	1	NaN	423	7	45	1	121	221	321	NaN	521	0.317673937883228	1	0	NaN	3356740.4120286	NaN	3356741.3954558	3356741.91201656
76	19	0	0	90	36.1581920903955	36.241610738255	12	0.400064831972122	2	5	5	NaN	1	3	0.0373219555907749	1	1	NaN	424	7	46	1	121	221	321	NaN	521	0.0360061363317072	1	1	NaN	3356743.0456613	NaN	3356744.029054	3356744.54559626
76	19	0	0	90	36.1581920903955	36.241610738255	22	0.733452191948891	2	12	4	NaN	2	4	0.0373219555907749	1	1	NaN	425	7	47	1	121	221	321	NaN	521	0.325987537857145	2	1	NaN	3356745.3958951	NaN	3356746.3792823	3356746.89583996
76	19	0	0	90	36.1581920903955	36.241610738255	13	0.433403567969799	2	12	2	NaN	2	3	0.0373219555907749	1	1	NaN	426	7	48	1	121	221	321	NaN	521	0.39879233809188	2	1	NaN	3356748.3628223	NaN	3356749.346161	3356749.86279946
76	19	0	0	90	36.1581920903955	36.241610738255	7	0.233371151983738	2	9	3	NaN	2	5	0.0373219555907749	1	1	NaN	427	7	49	1	121	221	321	NaN	521	1.13077413802966	1	0	NaN	3356751.0631255	NaN	3356752.0465003	3356752.56306476
76	19	0	0	90	36.1581920903955	36.241610738255	8	0.266709887981415	2	11	3	NaN	2	4	0.0373219555907749	1	1	NaN	428	7	50	1	121	221	321	NaN	521	0.0104090869426727	2	1	NaN	3356754.5961182	NaN	3356755.5801998	3356756.09673491
76	19	0	0	90	36.1581920903955	36.241610738255	8	0.266709887981415	2	9	6	NaN	2	4	0.0373219555907749	1	1	NaN	429	7	51	1	121	221	321	NaN	521	0.39225058676675	2	1	NaN	3356759.2972188	NaN	3356760.2806445	3356760.79720541
76	19	0	0	90	36.1581920903955	36.241610738255	21	0.700113455951214	2	2	2	NaN	1	5	0.0373219555907749	1	1	NaN	430	7	52	1	121	221	321	NaN	521	0.412200186867267	1	1	NaN	3356761.997505	NaN	3356762.9809223	3356763.49746101
76	19	0	0	90	36.1581920903955	36.241610738255	11	0.366726095974445	2	12	4	NaN	2	5	0.0373219555907749	1	1	NaN	431	7	53	1	121	221	321	NaN	521	0.294399895705283	2	1	NaN	3356764.7311214	NaN	3356765.7145161	3356766.2310724
76	19	0	0	90	36.1581920903955	36.241610738255	15	0.500081039965153	2	6	6	NaN	1	3	0.0373219555907749	1	1	NaN	432	7	54	1	121	221	321	NaN	521	1.03763918671757	1	1	NaN	3356767.3480544	NaN	3356768.3314323	3356768.84799061
76	19	0	0	90	36.1581920903955	36.241610738255	13	0.433403567969799	2	9	2	NaN	2	4	0.0373219555907749	1	1	NaN	433	7	55	1	121	221	321	NaN	521	1.07956288661808	1	0	NaN	3356770.6983692	NaN	3356771.6817692	3356772.19831871
76	19	0	0	90	36.1581920903955	36.241610738255	14	0.466742303967476	2	8	4	NaN	2	3	0.0373219555907749	1	1	NaN	434	7	56	1	121	221	321	NaN	521	0.0104122869670391	1	0	NaN	3356774.0987072	NaN	3356775.0821004	3356775.59864531
76	19	0	0	90	36.1581920903955	36.241610738255	15	0.500081039965153	2	6	5	NaN	1	3	0.0373219555907749	1	1	NaN	435	7	57	1	121	221	321	NaN	521	6.42552483361214	2	0	NaN	3356776.4323554	NaN	3356777.4156754	3356777.93220857
76	19	0	0	90	36.1581920903955	36.241610738255	19	0.63343598395586	2	12	3	NaN	2	3	0.0373219555907749	1	1	NaN	436	7	58	1	121	221	321	NaN	521	0.419356286991388	1	0	NaN	3356785.1663235	NaN	3356786.149844	3356786.66640331
76	19	0	0	90	36.1581920903955	36.241610738255	7	0.233371151983738	2	7	6	NaN	2	3	0.0373219555907749	1	1	NaN	437	7	59	1	121	221	321	NaN	521	0.453955036122352	2	1	NaN	3356787.9000447	NaN	3356788.8834458	3356789.40000036
76	19	0	0	90	36.1581920903955	36.241610738255	25	0.833468399941921	2	10	1	NaN	2	5	0.0373219555907749	1	1	NaN	438	7	60	1	121	221	321	NaN	521	0.438685637898743	1	0	NaN	3356790.66702	NaN	3356791.6504122	3356792.16694936
76	19	0	0	90	36.1581920903955	36.241610738255	12	0.400064831972122	2	9	4	NaN	2	5	0.0373219555907749	1	1	NaN	439	7	61	1	121	221	321	NaN	521	0.352567838039249	2	1	NaN	3356793.4172682	NaN	3356794.4006791	3356794.91721986
76	19	0	0	90	36.1581920903955	36.241610738255	25	0.833468399941921	2	12	5	NaN	2	3	0.0373219555907749	1	1	NaN	440	7	62	1	121	221	321	NaN	521	0.349927586968988	2	1	NaN	3356796.0842013	NaN	3356797.067575	3356797.58414581
76	19	0	0	90	36.1581920903955	36.241610738255	12	0.400064831972122	2	1	4	NaN	1	5	0.0373219555907749	1	1	NaN	441	7	63	1	121	221	321	NaN	521	0.0345570868812501	1	1	NaN	3356798.7511376	NaN	3356799.7345301	3356800.25107791
76	19	0	0	90	36.1581920903955	36.241610738255	22	0.733452191948891	2	2	4	NaN	1	4	0.0373219555907749	1	1	NaN	442	8	1	1	121	221	321	NaN	521	0.542238438036293	1	1	NaN	3356807.0519445	NaN	3356808.0353243	3356808.55189156
76	19	0	0	90	36.1581920903955	36.241610738255	19	0.63343598395586	2	2	6	NaN	1	3	0.0373219555907749	1	1	NaN	443	8	2	1	121	221	321	NaN	521	0.371265786699951	2	0	NaN	3356809.9022472	NaN	3356810.8856081	3356811.40217371
76	19	0	0	90	36.1581920903955	36.241610738255	21	0.700113455951214	2	5	1	NaN	1	3	0.0373219555907749	1	1	NaN	444	8	3	1	121	221	321	NaN	521	0.18421138683334	2	0	NaN	3356812.5858255	NaN	3356813.5692249	3356814.08576481
76	19	0	0	90	36.1581920903955	36.241610738255	25	0.833468399941921	2	5	1	NaN	1	3	0.0373219555907749	1	1	NaN	445	8	4	1	121	221	321	NaN	521	0.460274687036872	1	1	NaN	3356815.0694059	NaN	3356816.0527893	3356816.56933811
76	19	0	0	90	36.1581920903955	36.241610738255	22	0.733452191948891	2	11	5	NaN	2	5	0.0373219555907749	1	1	NaN	446	8	5	1	121	221	321	NaN	521	0.341082986909896	2	1	NaN	3356817.8530175	NaN	3356818.8364257	3356819.35295511
76	19	0	0	90	36.1581920903955	36.241610738255	19	0.63343598395586	2	9	1	NaN	2	3	0.0373219555907749	1	1	NaN	447	8	6	1	121	221	321	NaN	521	0.362352386582643	1	0	NaN	3356820.5032634	NaN	3356821.486668	3356822.00321161
76	19	0	0	90	36.1581920903955	36.241610738255	16	0.53341977596283	2	7	6	NaN	2	3	0.0373219555907749	1	1	NaN	448	8	7	1	121	221	321	NaN	521	1.59991773962975	2	1	NaN	3356823.1701924	NaN	3356824.153584	3356824.67014536
76	19	0	0	90	36.1581920903955	36.241610738255	12	0.400064831972122	2	3	2	NaN	1	5	0.0373219555907749	1	1	NaN	449	8	8	1	121	221	321	NaN	521	0.0757118868641555	2	0	NaN	3356829.4541096	NaN	3356830.4375329	3356830.95409391
76	19	0	0	90	36.1581920903955	36.241610738255	9	0.300048623979092	2	12	4	NaN	2	4	0.0373219555907749	1	1	NaN	450	8	9	1	121	221	321	NaN	521	0.259906087070704	1	0	NaN	3356831.837742	NaN	3356832.8211015	3356833.33765751
76	19	0	0	90	36.1581920903955	36.241610738255	18	0.600097247958183	2	9	3	NaN	2	4	0.0373219555907749	1	1	NaN	451	8	10	1	121	221	321	NaN	521	0.437136686872691	1	0	NaN	3356834.4046226	NaN	3356835.3880172	3356835.90457151
76	19	0	0	90	36.1581920903955	36.241610738255	9	0.300048623979092	2	8	1	NaN	2	5	0.0373219555907749	1	1	NaN	452	8	11	1	121	221	321	NaN	521	0.350838137790561	1	0	NaN	3356837.1548787	NaN	3356838.1382921	3356838.65485226
76	19	0	0	90	36.1581920903955	36.241610738255	8	0.266709887981415	2	5	2	NaN	1	3	0.0373219555907749	1	1	NaN	453	8	12	1	121	221	321	NaN	521	0.883855387102813	2	0	NaN	3356839.8218459	NaN	3356840.8052194	3356841.32176901
76	19	0	0	90	36.1581920903955	36.241610738255	18	0.600097247958183	2	11	1	NaN	2	4	0.0373219555907749	1	1	NaN	454	8	13	1	121	221	321	NaN	521	2.12388138659298	2	1	NaN	3356843.0221503	NaN	3356844.0055319	3356844.52208861
76	19	0	0	90	36.1581920903955	36.241610738255	9	0.300048623979092	2	11	5	NaN	2	3	0.0373219555907749	1	1	NaN	455	8	14	1	121	221	321	NaN	521	5.61012613773346	2	1	NaN	3356847.4559017	NaN	3356848.4393003	3356848.95585546
76	19	0	0	90	36.1581920903955	36.241610738255	25	0.833468399941921	2	5	1	NaN	1	4	0.0373219555907749	1	1	NaN	456	8	15	1	121	221	321	NaN	521	1.46047569578514	1	1	NaN	3356855.3734308	NaN	3356856.3567422	3356856.8732992
76	19	0	0	90	36.1581920903955	36.241610738255	18	0.600097247958183	2	10	3	NaN	2	4	0.0373219555907749	1	1	NaN	457	8	16	1	121	221	321	NaN	521	0.365323486737907	2	1	NaN	3356859.1402501	NaN	3356860.1237894	3356860.64033581
76	19	0	0	90	36.1581920903955	36.241610738255	9	0.300048623979092	2	2	3	NaN	1	4	0.0373219555907749	1	1	NaN	458	8	17	1	121	221	321	NaN	521	0.290154138114303	1	1	NaN	3356861.8239802	NaN	3356862.8073841	3356863.32393616
