subjno	age	gender	isPractice	viewdist	CmToPixX	CmToPixY	SOA_frm	SOA_time	targNum	targID	targExample	targRace	targGender	firstTargPos	contrast	familiarity	curr_staircase	iStair	TrialNum	BlockNum	blktrl	sessionNum	TC_FIXATION	TC_RSVP_START	TC_RSVP_END	TC_BLANK	TC_RESPONSE_ONSET	RT2afc	resp_2afc	acc	RSVPOnsetVBL	RSVPOnsetTime	RSVPOffsetVBL	RSVPOffsetTime	startrt_2afc
42	19	0	0	90	36.1581920903955	36.241610738255	0	0	1	5	2	NaN	1	3	0.0424599998153977	0	1	NaN	1	1	1	2	110	210	310	NaN	510	1.97654292825609	2	0	NaN	4830295.3817299	NaN	4830296.3648661	4830296.89797457
42	19	0	0	90	36.1581920903955	36.241610738255	10	0.333367399871349	2	9	2	NaN	2	3	0.0424599998153977	0	1	NaN	2	1	2	2	120	220	320	NaN	520	0.371868079528213	1	0	NaN	4830299.8986945	NaN	4830300.8819611	4830301.41508732
42	19	0	0	90	36.1581920903955	36.241610738255	15	0.500051099807024	2	8	6	NaN	2	3	0.0424599998153977	0	1	NaN	3	1	3	2	120	220	320	NaN	520	0.318762328475714	1	0	NaN	4830303.0153136	NaN	4830303.9988534	4830304.53206147
42	19	0	0	90	36.1581920903955	36.241610738255	20	0.666734799742699	2	8	4	NaN	2	4	0.0424599998153977	0	1	NaN	4	1	4	2	120	220	320	NaN	520	0.248821123503149	2	1	NaN	4830307.5657875	NaN	4830308.5493226	4830309.06583588
42	19	0	0	90	36.1581920903955	36.241610738255	21	0.700071539729834	2	4	5	NaN	1	5	0.0424599998153977	0	1	NaN	5	1	5	2	120	220	320	NaN	520	0.0104194758459926	2	0	NaN	4830310.4828378	NaN	4830311.4662466	4830311.98279212
42	19	0	0	90	36.1581920903955	36.241610738255	12	0.400040879845619	2	10	1	NaN	2	3	0.0424599998153977	0	1	NaN	6	1	6	2	120	220	320	NaN	520	0.0104241240769625	2	1	NaN	4830313.8998631	NaN	4830314.8832445	4830315.39978658
42	19	0	0	90	36.1581920903955	36.241610738255	24	0.800081759691238	2	6	3	NaN	1	5	0.0424599998153977	0	1	NaN	7	1	7	2	120	220	320	NaN	520	0.235458295792341	1	1	NaN	4830316.4666469	NaN	4830317.4501682	4830317.9667267
42	19	0	0	90	36.1581920903955	36.241610738255	19	0.633398059755564	2	8	3	NaN	2	3	0.0424599998153977	0	1	NaN	8	1	8	2	120	220	320	NaN	520	0.341217624023557	2	1	NaN	4830319.4337331	NaN	4830320.4171083	4830320.93366898
42	19	0	0	90	36.1581920903955	36.241610738255	8	0.266693919897079	2	6	3	NaN	1	4	0.0424599998153977	0	1	NaN	9	1	9	2	120	220	320	NaN	520	0.963396476581693	1	1	NaN	4830322.4673282	NaN	4830323.4507653	4830323.96730302
42	19	0	0	90	36.1581920903955	36.241610738255	15	0.500051099807024	2	1	5	NaN	1	3	0.0424599998153977	0	1	NaN	10	1	10	2	120	220	320	NaN	520	0.223601875826716	2	0	NaN	4830325.9510377	NaN	4830326.9344292	4830327.45098122
42	19	0	0	90	36.1581920903955	36.241610738255	24	0.800081759691238	2	1	3	NaN	1	5	0.0424599998153977	0	1	NaN	11	1	11	2	120	220	320	NaN	520	0.010405876673758	2	0	NaN	4830328.9509472	NaN	4830329.9347396	4830330.45127452
42	19	0	0	90	36.1581920903955	36.241610738255	0	0	1	9	4	NaN	2	5	0.0424599998153977	0	1	NaN	12	1	12	2	110	210	310	NaN	510	0.0104123763740063	2	1	NaN	4830331.8348402	NaN	4830332.8183471	4830333.33488572
42	19	0	0	90	36.1581920903955	36.241610738255	24	0.800081759691238	2	7	1	NaN	2	3	0.0424599998153977	0	1	NaN	13	1	13	2	120	220	320	NaN	520	0.645933775231242	1	0	NaN	4830334.3685029	NaN	4830335.3519317	4830335.86846812
42	19	0	0	90	36.1581920903955	36.241610738255	23	0.766745019704103	2	4	6	NaN	1	4	0.0424599998153977	0	1	NaN	14	1	14	2	120	220	320	NaN	520	0.718203424476087	1	1	NaN	4830338.5522574	NaN	4830339.5356738	4830340.05222448
42	19	0	0	90	36.1581920903955	36.241610738255	19	0.633398059755564	2	1	6	NaN	1	5	0.0424599998153977	0	1	NaN	15	1	15	2	120	220	320	NaN	520	0.220609376206994	2	0	NaN	4830343.5860677	NaN	4830344.5695104	4830345.08604762
42	19	0	0	90	36.1581920903955	36.241610738255	21	0.700071539729834	2	3	4	NaN	1	3	0.0424599998153977	0	1	NaN	16	1	16	2	120	220	320	NaN	520	0.321575327776372	1	1	NaN	4830347.2531006	NaN	4830348.236522	4830348.75306937
42	19	0	0	90	36.1581920903955	36.241610738255	19	0.633398059755564	2	12	5	NaN	2	5	0.0424599998153977	0	1	NaN	17	1	17	2	120	220	320	NaN	520	0.287501676008105	2	1	NaN	4830350.1033725	NaN	4830351.0868807	4830351.60335702
42	19	0	0	90	36.1581920903955	36.241610738255	15	0.500051099807024	2	10	2	NaN	2	5	0.0424599998153977	0	1	NaN	18	1	18	2	120	220	320	NaN	520	0.255700124427676	1	0	NaN	4830352.8870847	NaN	4830353.8704124	4830354.38696578
42	19	0	0	90	36.1581920903955	36.241610738255	14	0.466714359819889	2	2	3	NaN	1	3	0.0424599998153977	0	1	NaN	19	1	19	2	120	220	320	NaN	520	0.16899137198925	1	1	NaN	4830355.653942	NaN	4830356.6373843	4830357.15389313
42	19	0	0	90	36.1581920903955	36.241610738255	13	0.433377619832754	2	4	2	NaN	1	3	0.0424599998153977	0	1	NaN	20	1	20	2	120	220	320	NaN	520	0.0104239238426089	1	1	NaN	4830358.3375741	NaN	4830359.3209338	4830359.83749238
42	19	0	0	90	36.1581920903955	36.241610738255	14	0.466714359819889	2	6	1	NaN	1	3	0.0424599998153977	0	1	NaN	21	1	21	2	120	220	320	NaN	520	0.951698275282979	1	1	NaN	4830360.6711038	NaN	4830361.6545218	4830362.17105932
42	19	0	0	90	36.1581920903955	36.241610738255	6	0.20002043992281	2	7	1	NaN	2	3	0.0424599998153977	0	1	NaN	22	1	22	2	120	220	320	NaN	520	0.0104078762233257	2	1	NaN	4830364.138096	NaN	4830365.1215332	4830365.63806782
42	19	0	0	90	36.1581920903955	36.241610738255	11	0.366704139858484	2	11	1	NaN	2	3	0.0424599998153977	0	1	NaN	23	1	23	2	120	220	320	NaN	520	1.00764597672969	2	1	NaN	4830366.6550675	NaN	4830367.638446	4830368.15498052
42	19	0	0	90	36.1581920903955	36.241610738255	0	0	1	8	2	NaN	2	3	0.0424599998153977	0	1	NaN	24	1	24	2	110	210	310	NaN	510	0.156672324053943	1	0	NaN	4830370.12191	NaN	4830371.1054682	4830371.62198678
42	19	0	0	90	36.1581920903955	36.241610738255	0	0	1	12	5	NaN	2	4	0.0424599998153977	0	1	NaN	25	1	25	2	110	210	310	NaN	510	0.785104071721435	2	1	NaN	4830372.8056408	NaN	4830373.7890507	4830374.30558613
42	19	0	0	90	36.1581920903955	36.241610738255	0	0	1	4	6	NaN	1	3	0.0424599998153977	0	1	NaN	26	1	26	2	110	210	310	NaN	510	0.333748323842883	1	1	NaN	4830376.0892894	NaN	4830377.0726967	4830377.58924608
42	19	0	0	90	36.1581920903955	36.241610738255	21	0.700071539729834	2	4	1	NaN	1	5	0.0424599998153977	0	1	NaN	27	1	27	2	120	220	320	NaN	520	0.331076076254249	1	1	NaN	4830379.5396634	NaN	4830380.5230353	4830381.03958382
42	19	0	0	90	36.1581920903955	36.241610738255	23	0.766745019704103	2	8	2	NaN	2	3	0.0424599998153977	0	1	NaN	28	1	28	2	120	220	320	NaN	520	0.185291192494333	2	1	NaN	4830382.5732641	NaN	4830383.5567022	4830384.07322351
42	19	0	0	90	36.1581920903955	36.241610738255	14	0.466714359819889	2	3	2	NaN	1	4	0.0424599998153977	0	1	NaN	29	1	29	2	120	220	320	NaN	520	0.345999576151371	1	1	NaN	4830388.5403995	NaN	4830389.523924	4830390.04046782
42	19	0	0	90	36.1581920903955	36.241610738255	15	0.500051099807024	2	7	5	NaN	2	5	0.0424599998153977	0	1	NaN	30	1	30	2	120	220	320	NaN	520	4.44988207891583	1	0	NaN	4830394.7411338	NaN	4830395.7245453	4830396.24107862
42	19	0	0	90	36.1581920903955	36.241610738255	18	0.600061319768429	2	5	5	NaN	1	4	0.0424599998153977	0	1	NaN	31	1	31	2	120	220	320	NaN	520	0.0420996239408851	1	1	NaN	4830402.1083746	NaN	4830403.0919577	4830403.60846238
42	19	0	0	90	36.1581920903955	36.241610738255	16	0.533387839794159	2	10	2	NaN	2	5	0.0424599998153977	0	1	NaN	32	1	32	2	120	220	320	NaN	520	0.010509823448956	1	0	NaN	4830405.8755458	NaN	4830406.8589425	4830407.37550568
42	19	0	0	90	36.1581920903955	36.241610738255	19	0.633398059755564	2	11	4	NaN	2	4	0.0424599998153977	0	1	NaN	33	1	33	2	120	220	320	NaN	520	0.0104096764698625	1	0	NaN	4830408.2091234	NaN	4830409.1925271	4830409.70907382
42	19	0	0	90	36.1581920903955	36.241610738255	6	0.20002043992281	2	3	2	NaN	1	4	0.0424599998153977	0	1	NaN	34	1	34	2	120	220	320	NaN	520	0.343235576525331	1	1	NaN	4830410.7593489	NaN	4830411.7427859	4830412.25931652
42	19	0	0	90	36.1581920903955	36.241610738255	8	0.266693919897079	2	7	2	NaN	2	3	0.0424599998153977	0	1	NaN	35	1	35	2	120	220	320	NaN	520	0.0104051763191819	2	1	NaN	4830413.626299	NaN	4830414.6097238	4830415.12626842
42	19	0	0	90	36.1581920903955	36.241610738255	21	0.700071539729834	2	1	2	NaN	1	3	0.0424599998153977	0	1	NaN	36	1	36	2	120	220	320	NaN	520	0.231154127977788	2	0	NaN	4830415.9600238	NaN	4830416.9432782	4830417.45983217
42	19	0	0	90	36.1581920903955	36.241610738255	10	0.333367399871349	2	8	5	NaN	2	3	0.0424599998153977	0	1	NaN	37	1	37	2	120	220	320	NaN	520	0.0251593757420778	2	1	NaN	4830418.6934536	NaN	4830419.6768867	4830420.19343462
42	19	0	0	90	36.1581920903955	36.241610738255	15	0.500051099807024	2	8	5	NaN	2	3	0.0424599998153977	0	1	NaN	38	1	38	2	120	220	320	NaN	520	0.0104406708851457	1	0	NaN	4830421.0270453	NaN	4830422.0104494	4830422.52699333
42	19	0	0	90	36.1581920903955	36.241610738255	11	0.366704139858484	2	7	2	NaN	2	3	0.0424599998153977	0	1	NaN	39	1	39	2	120	220	320	NaN	520	0.0104064755141735	2	1	NaN	4830423.4939322	NaN	4830424.4774154	4830424.99390592
42	19	0	0	90	36.1581920903955	36.241610738255	0	0	1	12	1	NaN	2	4	0.0424599998153977	0	1	NaN	40	1	40	2	110	210	310	NaN	510	0.675213675945997	2	1	NaN	4830425.82752	NaN	4830426.8109222	4830427.32746922
42	19	0	0	90	36.1581920903955	36.241610738255	25	0.833418499678373	2	2	2	NaN	1	3	0.0424599998153977	0	1	NaN	41	1	41	2	120	220	320	NaN	520	0.0105081712827086	2	0	NaN	4830428.811145	NaN	4830429.79455	4830430.31108903
42	19	0	0	90	36.1581920903955	36.241610738255	17	0.566724579781294	2	12	5	NaN	2	4	0.0424599998153977	0	1	NaN	42	1	42	2	120	220	320	NaN	520	0.0104545243084431	2	1	NaN	4830431.3947428	NaN	4830432.3781284	4830432.89467998
42	19	0	0	90	36.1581920903955	36.241610738255	10	0.333367399871349	2	3	3	NaN	1	5	0.0424599998153977	0	1	NaN	43	1	43	2	120	220	320	NaN	520	0.286808775737882	1	1	NaN	4830433.7283025	NaN	4830434.7116958	4830435.22824492
42	19	0	0	90	36.1581920903955	36.241610738255	10	0.333367399871349	2	11	1	NaN	2	5	0.0424599998153977	0	1	NaN	44	1	44	2	120	220	320	NaN	520	0.3344408236444	2	1	NaN	4830436.3285576	NaN	4830437.3119395	4830437.82849878
42	19	0	0	90	36.1581920903955	36.241610738255	12	0.400040879845619	2	11	5	NaN	2	5	0.0424599998153977	0	1	NaN	45	1	45	2	120	220	320	NaN	520	0.0103933280333877	2	1	NaN	4830438.9787295	NaN	4830439.9622205	4830440.47876137
42	19	0	0	90	36.1581920903955	36.241610738255	24	0.800081759691238	2	10	5	NaN	2	5	0.0424599998153977	0	1	NaN	46	1	46	2	120	220	320	NaN	520	0.0104271238669753	1	0	NaN	4830441.2957064	NaN	4830442.2791072	4830442.79565238
42	19	0	0	90	36.1581920903955	36.241610738255	8	0.266693919897079	2	3	1	NaN	1	5	0.0424599998153977	0	1	NaN	47	1	47	2	120	220	320	NaN	520	1.45824067573994	2	0	NaN	4830443.6125937	NaN	4830444.5960224	4830445.11255232
42	19	0	0	90	36.1581920903955	36.241610738255	10	0.333367399871349	2	4	1	NaN	1	3	0.0424599998153977	0	1	NaN	48	1	48	2	120	220	320	NaN	520	0.0104052759706974	1	1	NaN	4830447.3795228	NaN	4830448.3630425	4830448.87959302
42	19	0	0	90	36.1581920903955	36.241610738255	23	0.766745019704103	2	1	5	NaN	1	4	0.0424599998153977	0	1	NaN	49	1	49	2	120	220	320	NaN	520	0.118157723918557	2	0	NaN	4830449.6965496	NaN	4830450.6799403	4830451.19647528
42	19	0	0	90	36.1581920903955	36.241610738255	11	0.366704139858484	2	5	5	NaN	1	3	0.0424599998153977	0	1	NaN	50	1	50	2	120	220	320	NaN	520	0.172317275777459	1	1	NaN	4830452.1301077	NaN	4830453.1134934	4830453.63005272
42	19	0	0	90	36.1581920903955	36.241610738255	14	0.466714359819889	2	11	6	NaN	2	4	0.0424599998153977	0	1	NaN	51	1	51	2	120	220	320	NaN	520	0.288956223987043	2	1	NaN	4830454.6136913	NaN	4830455.597096	4830456.11363128
42	19	0	0	90	36.1581920903955	36.241610738255	25	0.833418499678373	2	4	6	NaN	1	4	0.0424599998153977	0	1	NaN	52	1	52	2	120	220	320	NaN	520	1.95320227649063	1	1	NaN	4830457.2139399	NaN	4830458.1973214	4830458.71388352
42	19	0	0	90	36.1581920903955	36.241610738255	22	0.733408279716969	2	9	3	NaN	2	5	0.0424599998153977	0	1	NaN	53	1	53	2	120	220	320	NaN	520	1.25367397628725	1	0	NaN	4830461.4810321	NaN	4830462.464429	4830462.98097382
42	19	0	0	90	36.1581920903955	36.241610738255	9	0.300030659884214	2	8	5	NaN	2	3	0.0424599998153977	0	1	NaN	54	1	54	2	120	220	320	NaN	520	0.0104205757379532	1	0	NaN	4830465.0480653	NaN	4830466.031443	4830466.54799112
42	19	0	0	90	36.1581920903955	36.241610738255	17	0.566724579781294	2	3	5	NaN	1	4	0.0424599998153977	0	1	NaN	55	1	55	2	120	220	320	NaN	520	0.162181176245213	1	1	NaN	4830467.3649354	NaN	4830468.3483455	4830468.86488722
42	19	0	0	90	36.1581920903955	36.241610738255	17	0.566724579781294	2	4	5	NaN	1	4	0.0424599998153977	0	1	NaN	56	1	56	2	120	220	320	NaN	520	0.19857242424041	1	1	NaN	4830469.8485219	NaN	4830470.8319128	4830471.34846448
42	19	0	0	90	36.1581920903955	36.241610738255	10	0.333367399871349	2	5	3	NaN	1	3	0.0424599998153977	0	1	NaN	57	1	57	2	120	220	320	NaN	520	0.673237175680697	2	0	NaN	4830472.3654227	NaN	4830473.3488305	4830473.86537802
42	19	0	0	90	36.1581920903955	36.241610738255	22	0.733408279716969	2	7	2	NaN	2	3	0.0424599998153977	0	1	NaN	58	1	58	2	120	220	320	NaN	520	0.905867275781929	2	1	NaN	4830475.3490624	NaN	4830476.3324533	4830476.84900382
42	19	0	0	90	36.1581920903955	36.241610738255	12	0.400040879845619	2	10	4	NaN	2	3	0.0424599998153977	0	1	NaN	59	1	59	2	120	220	320	NaN	520	0.260250623337924	1	0	NaN	4830479.6828258	NaN	4830480.6662738	4830481.18277078
42	19	0	0	90	36.1581920903955	36.241610738255	20	0.666734799742699	2	6	2	NaN	1	5	0.0424599998153977	0	1	NaN	60	1	60	2	120	220	320	NaN	520	0.117059076204896	1	1	NaN	4830482.2497336	NaN	4830483.2331195	4830483.74968192
42	19	0	0	90	36.1581920903955	36.241610738255	0	0	1	8	5	NaN	2	5	0.0424599998153977	0	1	NaN	61	1	61	2	110	210	310	NaN	510	1.16444837581366	2	1	NaN	4830484.8666562	NaN	4830485.8500586	4830486.36663062
42	19	0	0	90	36.1581920903955	36.241610738255	25	0.833418499678373	2	6	6	NaN	1	4	0.0424599998153977	0	1	NaN	62	1	62	2	120	220	320	NaN	520	1.81642802804708	1	1	NaN	4830488.3503499	NaN	4830489.3337357	4830489.85028057
42	19	0	0	90	36.1581920903955	36.241610738255	7	0.233357179909945	2	4	5	NaN	1	4	0.0424599998153977	0	1	NaN	63	1	63	2	120	220	320	NaN	520	0.0104052759706974	1	1	NaN	4830492.4839293	NaN	4830493.4674783	4830493.98402942
42	19	0	0	90	36.1581920903955	36.241610738255	14	0.466714359819889	2	5	2	NaN	1	5	0.0424599998153977	0	1	NaN	64	2	1	2	120	220	320	NaN	520	0.362799775786698	2	0	NaN	4830533.7881294	NaN	4830534.7715379	4830535.28808702
42	19	0	0	90	36.1581920903955	36.241610738255	9	0.300030659884214	2	3	6	NaN	1	3	0.0424599998153977	0	1	NaN	65	2	2	2	120	220	320	NaN	520	0.010429423302412	1	1	NaN	4830536.65507	NaN	4830537.6385096	4830538.15502658
42	19	0	0	90	36.1581920903955	36.241610738255	21	0.700071539729834	2	11	2	NaN	2	5	0.0424599998153977	0	1	NaN	66	2	3	2	120	220	320	NaN	520	0.0104392236098647	2	1	NaN	4830539.2886541	NaN	4830540.2720824	4830540.78862388
42	19	0	0	90	36.1581920903955	36.241610738255	10	0.333367399871349	2	9	1	NaN	2	5	0.0424599998153977	0	1	NaN	67	2	4	2	120	220	320	NaN	520	0.561527124606073	2	1	NaN	4830541.6055734	NaN	4830542.5888718	4830543.10551378
42	19	0	0	90	36.1581920903955	36.241610738255	18	0.600061319768429	2	10	5	NaN	2	3	0.0424599998153977	0	1	NaN	68	2	5	2	120	220	320	NaN	520	0.27031887602061	2	1	NaN	4830544.6724133	NaN	4830545.6559434	4830546.17248312
42	19	0	0	90	36.1581920903955	36.241610738255	18	0.600061319768429	2	3	1	NaN	1	3	0.0424599998153977	0	1	NaN	69	2	6	2	120	220	320	NaN	520	0.0104096755385399	1	1	NaN	4830547.5061501	NaN	4830548.48954	4830549.00610642
42	19	0	0	90	36.1581920903955	36.241610738255	18	0.600061319768429	2	7	3	NaN	2	5	0.0424599998153977	0	1	NaN	70	2	7	2	120	220	320	NaN	520	0.720850976184011	2	1	NaN	4830551.3897354	NaN	4830552.3731625	4830552.88981452
42	19	0	0	90	36.1581920903955	36.241610738255	23	0.766745019704103	2	2	3	NaN	1	4	0.0424599998153977	0	1	NaN	71	2	8	2	120	220	320	NaN	520	0.0104458760470152	1	1	NaN	4830554.5900558	NaN	4830555.5736397	4830556.09012762
42	19	0	0	90	36.1581920903955	36.241610738255	15	0.500051099807024	2	6	3	NaN	1	3	0.0424599998153977	0	1	NaN	72	2	9	2	120	220	320	NaN	520	1.20741663128138	2	0	NaN	4830557.2237823	NaN	4830558.207211	4830558.72372017
42	19	0	0	90	36.1581920903955	36.241610738255	12	0.400040879845619	2	7	3	NaN	2	3	0.0424599998153977	0	1	NaN	73	2	10	2	120	220	320	NaN	520	2.17125867959112	2	1	NaN	4830561.3075004	NaN	4830562.2909059	4830562.80746102
42	19	0	0	90	36.1581920903955	36.241610738255	14	0.466714359819889	2	9	3	NaN	2	4	0.0424599998153977	0	1	NaN	74	2	11	2	120	220	320	NaN	520	0.495870424434543	1	0	NaN	4830565.791371	NaN	4830566.7746901	4830567.29123068
42	19	0	0	90	36.1581920903955	36.241610738255	13	0.433377619832754	2	9	1	NaN	2	3	0.0424599998153977	0	1	NaN	75	2	12	2	120	220	320	NaN	520	0.0104279238730669	2	1	NaN	4830570.4583983	NaN	4830571.4418199	4830571.95835288
42	19	0	0	90	36.1581920903955	36.241610738255	11	0.366704139858484	2	4	3	NaN	1	5	0.0424599998153977	0	1	NaN	76	2	13	2	120	220	320	NaN	520	0.250231771729887	1	1	NaN	4830574.1086458	NaN	4830575.0921774	4830575.60871203
42	19	0	0	90	36.1581920903955	36.241610738255	8	0.266693919897079	2	1	3	NaN	1	3	0.0424599998153977	0	1	NaN	77	2	14	2	120	220	320	NaN	520	0.0886650234460831	1	1	NaN	4830577.3424053	NaN	4830578.3258193	4830578.84236068
42	19	0	0	90	36.1581920903955	36.241610738255	17	0.566724579781294	2	10	4	NaN	2	4	0.0424599998153977	0	1	NaN	78	2	15	2	120	220	320	NaN	520	0.0104252239689231	2	1	NaN	4830579.7425349	NaN	4830580.7260645	4830581.24260108
42	19	0	0	90	36.1581920903955	36.241610738255	6	0.20002043992281	2	4	4	NaN	1	3	0.0424599998153977	0	1	NaN	79	2	16	2	120	220	320	NaN	520	1.33967347629368	1	1	NaN	4830582.2595454	NaN	4830583.2429548	4830583.75952402
42	19	0	0	90	36.1581920903955	36.241610738255	24	0.800081759691238	2	2	4	NaN	1	3	0.0424599998153977	0	1	NaN	80	2	17	2	120	220	320	NaN	520	0.0104210758581758	2	0	NaN	4830586.4766337	NaN	4830587.460055	4830587.97659562
42	19	0	0	90	36.1581920903955	36.241610738255	18	0.600061319768429	2	6	5	NaN	1	5	0.0424599998153977	0	1	NaN	81	2	18	2	120	220	320	NaN	520	0.727852076292038	1	1	NaN	4830590.1269854	NaN	4830591.1103911	4830591.62695962
42	19	0	0	90	36.1581920903955	36.241610738255	8	0.266693919897079	2	11	2	NaN	2	5	0.0424599998153977	0	1	NaN	82	2	19	2	120	220	320	NaN	520	0.0104064764454961	1	0	NaN	4830593.1605282	NaN	4830594.14408	4830594.66058632
42	19	0	0	90	36.1581920903955	36.241610738255	7	0.233357179909945	2	4	1	NaN	1	5	0.0424599998153977	0	1	NaN	83	2	20	2	120	220	320	NaN	520	0.0104046752676368	1	1	NaN	4830595.4942079	NaN	4830596.4776047	4830596.99415552
42	19	0	0	90	36.1581920903955	36.241610738255	14	0.466714359819889	2	6	6	NaN	1	3	0.0424599998153977	0	1	NaN	84	2	21	2	120	220	320	NaN	520	0.0104255238547921	1	1	NaN	4830597.8111137	NaN	4830598.7945027	4830599.31104738
42	19	0	0	90	36.1581920903955	36.241610738255	19	0.633398059755564	2	6	4	NaN	1	3	0.0424599998153977	0	1	NaN	85	2	22	2	120	220	320	NaN	520	0.0103436363860965	1	1	NaN	4830600.1780118	NaN	4830601.1613948	4830601.67794866
42	19	0	0	90	36.1581920903955	36.241610738255	24	0.800081759691238	2	5	2	NaN	1	3	0.0424599998153977	0	1	NaN	86	2	23	2	120	220	320	NaN	520	0.0103146405890584	2	0	NaN	4830602.4948877	NaN	4830603.4782848	4830603.99483926
42	19	0	0	90	36.1581920903955	36.241610738255	25	0.833418499678373	2	12	4	NaN	2	4	0.0424599998153977	0	1	NaN	87	2	24	2	120	220	320	NaN	520	0.235151975415647	1	0	NaN	4830604.8117912	NaN	4830605.795184	4830606.31173892
42	19	0	0	90	36.1581920903955	36.241610738255	18	0.600061319768429	2	4	4	NaN	1	3	0.0424599998153977	0	1	NaN	88	2	25	2	120	220	320	NaN	520	1.55726762395352	1	1	NaN	4830607.3620409	NaN	4830608.3454928	4830608.86199288
42	19	0	0	90	36.1581920903955	36.241610738255	24	0.800081759691238	2	9	5	NaN	2	3	0.0424599998153977	0	1	NaN	89	2	26	2	120	220	320	NaN	520	0.0104260239750147	2	1	NaN	4830611.4457642	NaN	4830612.4291829	4830612.94571388
42	19	0	0	90	36.1581920903955	36.241610738255	22	0.733408279716969	2	4	1	NaN	1	3	0.0424599998153977	0	1	NaN	90	2	27	2	120	220	320	NaN	520	1.59651697613299	2	0	NaN	4830613.7627358	NaN	4830614.7460744	4830615.26261282
42	19	0	0	90	36.1581920903955	36.241610738255	13	0.433377619832754	2	1	3	NaN	1	4	0.0424599998153977	0	1	NaN	91	2	28	2	120	220	320	NaN	520	0.0104359239339828	2	0	NaN	4830618.1297522	NaN	4830619.1131619	4830619.62970678
42	19	0	0	90	36.1581920903955	36.241610738255	7	0.233357179909945	2	12	6	NaN	2	5	0.0424599998153977	0	1	NaN	92	2	29	2	120	220	320	NaN	520	0.0104227233678102	2	1	NaN	4830620.4466687	NaN	4830621.430067	4830621.94660628
42	19	0	0	90	36.1581920903955	36.241610738255	7	0.233357179909945	2	3	6	NaN	1	3	0.0424599998153977	0	1	NaN	93	2	30	2	120	220	320	NaN	520	0.0104127759113908	1	1	NaN	4830622.7634457	NaN	4830623.7469782	4830624.26350642
42	19	0	0	90	36.1581920903955	36.241610738255	9	0.300030659884214	2	11	1	NaN	2	3	0.0424599998153977	0	1	NaN	94	2	31	2	120	220	320	NaN	520	1.39857347682118	1	0	NaN	4830625.0803812	NaN	4830626.0638475	4830626.58039202
42	19	0	0	90	36.1581920903955	36.241610738255	25	0.833418499678373	2	5	3	NaN	1	4	0.0424599998153977	0	1	NaN	95	2	32	2	120	220	320	NaN	520	0.0104176765307784	1	1	NaN	4830628.79748	NaN	4830629.7808742	4830630.29743322
42	19	0	0	90	36.1581920903955	36.241610738255	21	0.700071539729834	2	10	6	NaN	2	5	0.0424599998153977	0	1	NaN	96	2	33	2	120	220	320	NaN	520	0.0104132760316133	2	1	NaN	4830631.1143705	NaN	4830632.097778	4830632.61432062
42	19	0	0	90	36.1581920903955	36.241610738255	10	0.333367399871349	2	4	3	NaN	1	4	0.0424599998153977	0	1	NaN	97	2	34	2	120	220	320	NaN	520	0.904025323688984	1	1	NaN	4830633.4312786	NaN	4830634.4147189	4830634.93121148
42	19	0	0	90	36.1581920903955	36.241610738255	13	0.433377619832754	2	7	3	NaN	2	5	0.0424599998153977	0	1	NaN	98	2	35	2	120	220	320	NaN	520	0.0103929284960032	2	1	NaN	4830636.8482426	NaN	4830637.8316633	4830638.34821797
42	19	0	0	90	36.1581920903955	36.241610738255	9	0.300030659884214	2	6	4	NaN	1	3	0.0424599998153977	0	1	NaN	99	2	36	2	120	220	320	NaN	520	0.0104309245944023	1	1	NaN	4830639.1652004	NaN	4830640.1485636	4830640.66511088
42	19	0	0	90	36.1581920903955	36.241610738255	19	0.633398059755564	2	4	3	NaN	1	5	0.0424599998153977	0	1	NaN	100	2	37	2	120	220	320	NaN	520	0.0104086762294173	1	1	NaN	4830641.482073	NaN	4830642.4654666	4830642.98201482
42	19	0	0	90	36.1581920903955	36.241610738255	7	0.233357179909945	2	3	1	NaN	1	5	0.0424599998153977	0	1	NaN	101	2	38	2	120	220	320	NaN	520	1.24728847574443	2	0	NaN	4830643.8157017	NaN	4830644.7990072	4830645.31557502
42	19	0	0	90	36.1581920903955	36.241610738255	19	0.633398059755564	2	6	5	NaN	1	5	0.0424599998153977	0	1	NaN	102	2	39	2	120	220	320	NaN	520	0.0104267243295908	1	1	NaN	4830647.3825233	NaN	4830648.3660413	4830648.88258188
42	19	0	0	90	36.1581920903955	36.241610738255	16	0.533387839794159	2	12	3	NaN	2	4	0.0424599998153977	0	1	NaN	103	2	40	2	120	220	320	NaN	520	1.33974127564579	1	0	NaN	4830649.6994086	NaN	4830650.6829316	4830651.19947762
42	19	0	0	90	36.1581920903955	36.241610738255	21	0.700071539729834	2	1	4	NaN	1	5	0.0424599998153977	0	1	NaN	104	2	41	2	120	220	320	NaN	520	0.833262523636222	1	1	NaN	4830653.3498914	NaN	4830654.3332986	4830654.84983858
42	19	0	0	90	36.1581920903955	36.241610738255	22	0.733408279716969	2	1	4	NaN	1	4	0.0424599998153977	0	1	NaN	105	2	42	2	120	220	320	NaN	520	0.227060875855386	2	0	NaN	4830656.5002306	NaN	4830657.4835987	4830658.00014592
42	19	0	0	90	36.1581920903955	36.241610738255	14	0.466714359819889	2	4	1	NaN	1	4	0.0424599998153977	0	1	NaN	106	2	43	2	120	220	320	NaN	520	0.0104674240574241	1	1	NaN	4830659.350417	NaN	4830660.3338861	4830660.85042598
42	19	0	0	90	36.1581920903955	36.241610738255	7	0.233357179909945	2	8	4	NaN	2	5	0.0424599998153977	0	1	NaN	107	2	44	2	120	220	320	NaN	520	0.625659076496959	1	0	NaN	4830661.7173094	NaN	4830662.7008158	4830663.21733292
42	19	0	0	90	36.1581920903955	36.241610738255	14	0.466714359819889	2	8	5	NaN	2	5	0.0424599998153977	0	1	NaN	108	2	45	2	120	220	320	NaN	520	0.883059323765337	2	1	NaN	4830664.68432	NaN	4830665.6677792	4830666.18429238
42	19	0	0	90	36.1581920903955	36.241610738255	25	0.833418499678373	2	11	4	NaN	2	4	0.0424599998153977	0	1	NaN	109	2	46	2	120	220	320	NaN	520	0.0104638235643506	1	0	NaN	4830668.368017	NaN	4830669.3514461	4830669.86797918
42	19	0	0	90	36.1581920903955	36.241610738255	11	0.366704139858484	2	5	1	NaN	1	3	0.0424599998153977	0	1	NaN	110	2	47	2	120	220	320	NaN	520	0.0575540764257312	1	1	NaN	4830670.7015129	NaN	4830671.6850027	4830672.20154862
42	19	0	0	90	36.1581920903955	36.241610738255	18	0.600061319768429	2	11	4	NaN	2	4	0.0424599998153977	0	1	NaN	111	2	48	2	120	220	320	NaN	520	0.0104081761091948	2	1	NaN	4830673.0683743	NaN	4830674.0518952	4830674.56845222
42	19	0	0	90	36.1581920903955	36.241610738255	12	0.400040879845619	2	2	5	NaN	1	4	0.0424599998153977	0	1	NaN	112	2	49	2	120	220	320	NaN	520	0.0104341236874461	2	0	NaN	4830675.3853855	NaN	4830676.3687895	4830676.88534218
42	19	0	0	90	36.1581920903955	36.241610738255	20	0.666734799742699	2	12	2	NaN	2	4	0.0424599998153977	0	1	NaN	113	2	50	2	120	220	320	NaN	520	0.808031676337123	1	0	NaN	4830677.7188569	NaN	4830678.7023479	4830679.21891132
42	19	0	0	90	36.1581920903955	36.241610738255	9	0.300030659884214	2	7	6	NaN	2	4	0.0424599998153977	0	1	NaN	114	2	51	2	120	220	320	NaN	520	1.68274702411145	2	1	NaN	4830680.8526083	NaN	4830681.8360036	4830682.35254718
42	19	0	0	90	36.1581920903955	36.241610738255	8	0.266693919897079	2	9	2	NaN	2	5	0.0424599998153977	0	1	NaN	115	2	52	2	120	220	320	NaN	520	0.673943923786283	1	0	NaN	4830684.852989	NaN	4830685.8363851	4830686.35293298
42	19	0	0	90	36.1581920903955	36.241610738255	20	0.666734799742699	2	9	5	NaN	2	4	0.0424599998153977	0	1	NaN	116	2	53	2	120	220	320	NaN	520	0.738445735536516	2	1	NaN	4830687.8366144	NaN	4830688.8200281	4830689.33657606
42	19	0	0	90	36.1581920903955	36.241610738255	9	0.300030659884214	2	4	6	NaN	1	3	0.0424599998153977	0	1	NaN	117	2	54	2	120	220	320	NaN	520	0.99001547601074	1	1	NaN	4830692.1370211	NaN	4830693.1204161	4830693.63698692
42	19	0	0	90	36.1581920903955	36.241610738255	0	0	1	1	2	NaN	1	5	0.0424599998153977	0	1	NaN	118	2	55	2	110	210	310	NaN	510	0.133624423295259	2	0	NaN	4830698.737567	NaN	4830699.7211325	4830700.23763208
42	19	0	0	90	36.1581920903955	36.241610738255	23	0.766745019704103	2	4	3	NaN	1	3	0.0424599998153977	0	1	NaN	119	2	56	2	120	220	320	NaN	520	0.606804675422609	2	0	NaN	4830701.7046238	NaN	4830702.6881658	4830703.20460052
42	19	0	0	90	36.1581920903955	36.241610738255	24	0.800081759691238	2	3	5	NaN	1	5	0.0424599998153977	0	1	NaN	120	2	57	2	120	220	320	NaN	520	0.346037223935127	1	1	NaN	4830704.8049408	NaN	4830705.7883561	4830706.30489888
42	19	0	0	90	36.1581920903955	36.241610738255	11	0.366704139858484	2	2	5	NaN	1	5	0.0424599998153977	0	1	NaN	121	2	58	2	120	220	320	NaN	520	0.220620476640761	2	0	NaN	4830707.9385776	NaN	4830708.9219982	4830709.43855022
42	19	0	0	90	36.1581920903955	36.241610738255	7	0.233357179909945	2	6	1	NaN	1	4	0.0424599998153977	0	1	NaN	122	2	59	2	120	220	320	NaN	520	0.0104399239644408	2	0	NaN	4830710.9554273	NaN	4830711.9389602	4830712.45551248
42	19	0	0	90	36.1581920903955	36.241610738255	12	0.400040879845619	2	4	2	NaN	1	4	0.0424599998153977	0	1	NaN	123	2	60	2	120	220	320	NaN	520	0.556601327843964	1	1	NaN	4830713.9224006	NaN	4830714.9059105	4830715.42246797
42	19	0	0	90	36.1581920903955	36.241610738255	13	0.433377619832754	2	3	2	NaN	1	3	0.0424599998153977	0	1	NaN	124	2	61	2	120	220	320	NaN	520	0.402190175838768	1	1	NaN	4830716.9728238	NaN	4830717.9562413	4830718.47277062
42	19	0	0	90	36.1581920903955	36.241610738255	18	0.600061319768429	2	1	5	NaN	1	4	0.0424599998153977	0	1	NaN	125	2	62	2	120	220	320	NaN	520	0.0104101756587625	2	0	NaN	4830719.8897477	NaN	4830720.873204	4830721.38971912
42	19	0	0	90	36.1581920903955	36.241610738255	23	0.766745019704103	2	11	2	NaN	2	4	0.0424599998153977	0	1	NaN	126	2	63	2	120	220	320	NaN	520	0.341475576162338	1	0	NaN	4830723.8735277	NaN	4830724.8569037	4830725.37344902
42	19	0	0	90	36.1581920903955	36.241610738255	22	0.733408279716969	2	1	2	NaN	1	5	0.0424599998153977	0	1	NaN	127	3	1	2	120	220	320	NaN	520	0.315055876038969	2	0	NaN	4830809.7485774	NaN	4830810.7320118	4830811.24855292
42	19	0	0	90	36.1581920903955	36.241610738255	8	0.266693919897079	2	3	5	NaN	1	3	0.0424599998153977	0	1	NaN	128	3	2	2	120	220	320	NaN	520	0.136361024342477	1	1	NaN	4830812.7987752	NaN	4830813.7823036	4830814.29885228
42	19	0	0	90	36.1581920903955	36.241610738255	16	0.533387839794159	2	9	6	NaN	2	4	0.0424599998153977	0	1	NaN	129	3	3	2	120	220	320	NaN	520	0.695672076195478	2	1	NaN	4830815.6158243	NaN	4830816.5993009	4830817.11580522
42	19	0	0	90	36.1581920903955	36.241610738255	7	0.233357179909945	2	1	6	NaN	1	4	0.0424599998153977	0	1	NaN	130	3	4	2	120	220	320	NaN	520	0.0103353355079889	2	0	NaN	4830818.7828091	NaN	4830819.7662338	4830820.28277706
42	19	0	0	90	36.1581920903955	36.241610738255	20	0.666734799742699	2	3	4	NaN	1	4	0.0424599998153977	0	1	NaN	131	3	5	2	120	220	320	NaN	520	0.0104131754487753	1	1	NaN	4830821.2830849	NaN	4830822.2664768	4830822.78302832
42	19	0	0	90	36.1581920903955	36.241610738255	15	0.500051099807024	2	5	2	NaN	1	5	0.0424599998153977	0	1	NaN	132	3	6	2	120	220	320	NaN	520	0.184562323614955	1	1	NaN	4830823.7667682	NaN	4830824.7500683	4830825.26659468
42	19	0	0	90	36.1581920903955	36.241610738255	21	0.700071539729834	2	6	5	NaN	1	5	0.0424599998153977	0	1	NaN	133	3	7	2	120	220	320	NaN	520	0.256336475722492	2	0	NaN	4830826.5669197	NaN	4830827.5503343	4830828.06687992
42	19	0	0	90	36.1581920903955	36.241610738255	19	0.633398059755564	2	2	6	NaN	1	5	0.0424599998153977	0	1	NaN	134	3	8	2	120	220	320	NaN	520	0.16145277582109	2	0	NaN	4830829.1338549	NaN	4830830.1173178	4830830.63379312
42	19	0	0	90	36.1581920903955	36.241610738255	20	0.666734799742699	2	4	6	NaN	1	5	0.0424599998153977	0	1	NaN	135	3	9	2	120	220	320	NaN	520	0.0104089761152864	1	1	NaN	4830831.8007439	NaN	4830832.7842063	4830833.30072452
42	19	0	0	90	36.1581920903955	36.241610738255	22	0.733408279716969	2	2	3	NaN	1	4	0.0424599998153977	0	1	NaN	136	3	10	2	120	220	320	NaN	520	0.0104070287197828	1	1	NaN	4830834.5843588	NaN	4830835.5677849	4830836.08432797
42	19	0	0	90	36.1581920903955	36.241610738255	25	0.833418499678373	2	10	6	NaN	2	3	0.0424599998153977	0	1	NaN	137	3	11	2	120	220	320	NaN	520	0.729974276386201	1	0	NaN	4830836.9011525	NaN	4830837.8846822	4830838.40122392
42	19	0	0	90	36.1581920903955	36.241610738255	6	0.20002043992281	2	5	5	NaN	1	5	0.0424599998153977	0	1	NaN	138	3	12	2	120	220	320	NaN	520	0.347176924347878	1	1	NaN	4830840.2682765	NaN	4830841.2516616	4830841.76821758
42	19	0	0	90	36.1581920903955	36.241610738255	12	0.400040879845619	2	5	5	NaN	1	5	0.0424599998153977	0	1	NaN	139	3	13	2	120	220	320	NaN	520	0.567847675643861	2	0	NaN	4830843.1352267	NaN	4830844.1186302	4830844.63517722
42	19	0	0	90	36.1581920903955	36.241610738255	24	0.800081759691238	2	3	6	NaN	1	3	0.0424599998153977	0	1	NaN	140	3	14	2	120	220	320	NaN	520	0.537557976320386	1	1	NaN	4830846.6855523	NaN	4830847.6689729	4830848.18551472
42	19	0	0	90	36.1581920903955	36.241610738255	24	0.800081759691238	2	5	2	NaN	1	4	0.0424599998153977	0	1	NaN	141	3	15	2	120	220	320	NaN	520	0.080841775983572	1	1	NaN	4830849.9025348	NaN	4830850.8859644	4830851.40250382
42	19	0	0	90	36.1581920903955	36.241610738255	10	0.333367399871349	2	2	1	NaN	1	5	0.0424599998153977	0	1	NaN	142	3	16	2	120	220	320	NaN	520	0.0104209231212735	1	1	NaN	4830855.2862825	NaN	4830856.2698158	4830856.78636038
42	19	0	0	90	36.1581920903955	36.241610738255	7	0.233357179909945	2	10	3	NaN	2	5	0.0424599998153977	0	1	NaN	143	3	17	2	120	220	320	NaN	520	0.274704976007342	1	0	NaN	4830857.8366478	NaN	4830858.8200758	4830859.33661672
42	19	0	0	90	36.1581920903955	36.241610738255	24	0.800081759691238	2	8	2	NaN	2	5	0.0424599998153977	0	1	NaN	144	3	18	2	120	220	320	NaN	520	0.0103970281779766	2	1	NaN	4830860.803607	NaN	4830861.787021	4830862.30358057
42	19	0	0	90	36.1581920903955	36.241610738255	20	0.666734799742699	2	2	2	NaN	1	4	0.0424599998153977	0	1	NaN	145	3	19	2	120	220	320	NaN	520	0.341982475481927	1	1	NaN	4830863.3371383	NaN	4830864.3206151	4830864.83715702
42	19	0	0	90	36.1581920903955	36.241610738255	10	0.333367399871349	2	1	6	NaN	1	5	0.0424599998153977	0	1	NaN	146	3	20	2	120	220	320	NaN	520	0.332829475402832	2	0	NaN	4830867.9543139	NaN	4830868.9377298	4830869.45427282
42	19	0	0	90	36.1581920903955	36.241610738255	9	0.300030659884214	2	12	4	NaN	2	4	0.0424599998153977	0	1	NaN	147	3	21	2	120	220	320	NaN	520	0.224414676427841	1	0	NaN	4830873.8547817	NaN	4830874.8383052	4830875.35485522
42	19	0	0	90	36.1581920903955	36.241610738255	12	0.400040879845619	2	7	4	NaN	2	3	0.0424599998153977	0	1	NaN	148	3	22	2	120	220	320	NaN	520	0.0104111758992076	2	1	NaN	4830876.8385179	NaN	4830877.8219343	4830878.33849302
42	19	0	0	90	36.1581920903955	36.241610738255	24	0.800081759691238	2	10	4	NaN	2	3	0.0424599998153977	0	1	NaN	149	3	23	2	120	220	320	NaN	520	0.0104070752859116	2	1	NaN	4830880.5055496	NaN	4830881.4889676	4830882.00551202
42	19	0	0	90	36.1581920903955	36.241610738255	15	0.500051099807024	2	2	5	NaN	1	4	0.0424599998153977	0	1	NaN	150	3	24	2	120	220	320	NaN	520	0.0486495280638337	1	1	NaN	4830883.0390728	NaN	4830884.0225326	4830884.53910107
42	19	0	0	90	36.1581920903955	36.241610738255	16	0.533387839794159	2	6	1	NaN	1	3	0.0424599998153977	0	1	NaN	151	3	25	2	120	220	320	NaN	520	0.206067475490272	2	0	NaN	4830885.8894129	NaN	4830886.8728367	4830887.38937592
42	19	0	0	90	36.1581920903955	36.241610738255	14	0.466714359819889	2	11	5	NaN	2	5	0.0424599998153977	0	1	NaN	152	3	26	2	120	220	320	NaN	520	0.309331976808608	1	0	NaN	4830889.1063938	NaN	4830890.0897756	4830890.60636142
42	19	0	0	90	36.1581920903955	36.241610738255	7	0.233357179909945	2	8	5	NaN	2	5	0.0424599998153977	0	1	NaN	153	3	27	2	120	220	320	NaN	520	0.0104038761928678	2	1	NaN	4830891.7233442	NaN	4830892.7067239	4830893.22328452
42	19	0	0	90	36.1581920903955	36.241610738255	16	0.533387839794159	2	12	2	NaN	2	3	0.0424599998153977	0	1	NaN	154	3	28	2	120	220	320	NaN	520	0.182280875742435	1	0	NaN	4830894.2568932	NaN	4830895.2403242	4830895.75687292
42	19	0	0	90	36.1581920903955	36.241610738255	20	0.666734799742699	2	3	3	NaN	1	4	0.0424599998153977	0	1	NaN	155	3	29	2	120	220	320	NaN	520	0.828696776181459	1	1	NaN	4830899.490754	NaN	4830900.4741736	4830900.99070982
42	19	0	0	90	36.1581920903955	36.241610738255	16	0.533387839794159	2	8	1	NaN	2	4	0.0424599998153977	0	1	NaN	156	3	30	2	120	220	320	NaN	520	0.175093524158001	2	1	NaN	4830903.0244334	NaN	4830904.0078641	4830904.52438718
42	19	0	0	90	36.1581920903955	36.241610738255	20	0.666734799742699	2	1	3	NaN	1	5	0.0424599998153977	0	1	NaN	157	3	31	2	120	220	320	NaN	520	0.2113589765504	2	0	NaN	4830905.7080435	NaN	4830906.6914515	4830907.20799282
42	19	0	0	90	36.1581920903955	36.241610738255	12	0.400040879845619	2	12	3	NaN	2	3	0.0424599998153977	0	1	NaN	158	3	32	2	120	220	320	NaN	520	0.363366124220192	2	1	NaN	4830908.508329	NaN	4830909.4917159	4830910.00828228
42	19	0	0	90	36.1581920903955	36.241610738255	16	0.533387839794159	2	1	5	NaN	1	5	0.0424599998153977	0	1	NaN	159	3	33	2	120	220	320	NaN	520	0.088531443849206	2	0	NaN	4830911.3586073	NaN	4830912.3419957	4830912.85855586
42	19	0	0	90	36.1581920903955	36.241610738255	19	0.633398059755564	2	3	4	NaN	1	4	0.0424599998153977	0	1	NaN	160	3	34	2	120	220	320	NaN	520	0.63250622805208	2	0	NaN	4830913.7587025	NaN	4830914.7422082	4830915.25878587
42	19	0	0	90	36.1581920903955	36.241610738255	21	0.700071539729834	2	12	3	NaN	2	5	0.0424599998153977	0	1	NaN	161	3	35	2	120	220	320	NaN	520	0.0104077765718102	1	0	NaN	4830917.2091382	NaN	4830918.1925897	4830918.70912142
42	19	0	0	90	36.1581920903955	36.241610738255	13	0.433377619832754	2	9	4	NaN	2	5	0.0424599998153977	0	1	NaN	162	3	36	2	120	220	320	NaN	520	0.246991575695574	2	1	NaN	4830920.192972	NaN	4830921.1761988	4830921.69275042
42	19	0	0	90	36.1581920903955	36.241610738255	6	0.20002043992281	2	11	6	NaN	2	4	0.0424599998153977	0	1	NaN	163	3	37	2	120	220	320	NaN	520	0.2403813758865	1	0	NaN	4830923.1430706	NaN	4830924.1264913	4830924.64304202
42	19	0	0	90	36.1581920903955	36.241610738255	25	0.833418499678373	2	3	1	NaN	1	4	0.0424599998153977	0	1	NaN	164	3	38	2	120	220	320	NaN	520	0.0946482764557004	2	0	NaN	4830926.7767896	NaN	4830927.7602348	4830928.27673042
42	19	0	0	90	36.1581920903955	36.241610738255	13	0.433377619832754	2	5	5	NaN	1	5	0.0424599998153977	0	1	NaN	165	3	39	2	120	220	320	NaN	520	0.638664887286723	1	1	NaN	4830929.3770044	NaN	4830930.3604372	4830930.87701231
42	19	0	0	90	36.1581920903955	36.241610738255	14	0.466714359819889	2	3	4	NaN	1	4	0.0424599998153977	0	1	NaN	166	3	40	2	120	220	320	NaN	520	0.16831617988646	1	1	NaN	4830933.3274132	NaN	4830934.3108209	4830934.82737942
42	19	0	0	90	36.1581920903955	36.241610738255	25	0.833418499678373	2	1	6	NaN	1	3	0.0424599998153977	0	1	NaN	167	3	41	2	120	220	320	NaN	520	0.260271124541759	2	0	NaN	4830937.4111302	NaN	4830938.3945655	4830938.91110348
42	19	0	0	90	36.1581920903955	36.241610738255	10	0.333367399871349	2	8	1	NaN	2	3	0.0424599998153977	0	1	NaN	168	3	42	2	120	220	320	NaN	520	0.632446276023984	1	0	NaN	4830941.4948597	NaN	4830942.4782916	4830942.99484392
42	19	0	0	90	36.1581920903955	36.241610738255	16	0.533387839794159	2	3	3	NaN	1	5	0.0424599998153977	0	1	NaN	169	3	43	2	120	220	320	NaN	520	0.0104067754000425	1	1	NaN	4830954.3294993	NaN	4830955.3128899	4830955.82943962
42	19	0	0	90	36.1581920903955	36.241610738255	19	0.633398059755564	2	9	3	NaN	2	3	0.0424599998153977	0	1	NaN	170	3	44	2	120	220	320	NaN	520	0.0104093765839934	1	0	NaN	4830956.8797439	NaN	4830957.8631825	4830958.37969232
42	19	0	0	90	36.1581920903955	36.241610738255	15	0.500051099807024	2	7	1	NaN	2	5	0.0424599998153977	0	1	NaN	171	3	45	2	120	220	320	NaN	520	0.491111123934388	1	0	NaN	4830959.196528	NaN	4830960.1800618	4830960.69658008
42	19	0	0	90	36.1581920903955	36.241610738255	15	0.500051099807024	2	12	1	NaN	2	3	0.0424599998153977	0	1	NaN	172	3	46	2	120	220	320	NaN	520	0.263930075801909	1	0	NaN	4830962.0634468	NaN	4830963.0469896	4830963.56353332
42	19	0	0	90	36.1581920903955	36.241610738255	14	0.466714359819889	2	7	6	NaN	2	3	0.0424599998153977	0	1	NaN	173	3	47	2	120	220	320	NaN	520	0.556189576163888	2	1	NaN	4830964.9471832	NaN	4830965.9306112	4830966.44715762
42	19	0	0	90	36.1581920903955	36.241610738255	15	0.500051099807024	2	2	5	NaN	1	4	0.0424599998153977	0	1	NaN	174	3	48	2	120	220	320	NaN	520	0.250052523799241	1	1	NaN	4830967.9974763	NaN	4830968.9809029	4830969.49744448
42	19	0	0	90	36.1581920903955	36.241610738255	7	0.233357179909945	2	6	3	NaN	1	3	0.0424599998153977	0	1	NaN	175	3	49	2	120	220	320	NaN	520	0.0104511240497231	2	0	NaN	4830970.9811011	NaN	4830971.9645274	4830972.48107378
42	19	0	0	90	36.1581920903955	36.241610738255	13	0.433377619832754	2	3	4	NaN	1	5	0.0424599998153977	0	1	NaN	176	3	50	2	120	220	320	NaN	520	0.221663923934102	2	0	NaN	4830973.4979748	NaN	4830974.4814817	4830974.99799918
42	19	0	0	90	36.1581920903955	36.241610738255	16	0.533387839794159	2	9	5	NaN	2	5	0.0424599998153977	0	1	NaN	177	3	51	2	120	220	320	NaN	520	0.0792429754510522	2	1	NaN	4830976.2484393	NaN	4830977.231712	4830977.74826152
42	19	0	0	90	36.1581920903955	36.241610738255	21	0.700071539729834	2	2	6	NaN	1	5	0.0424599998153977	0	1	NaN	178	3	52	2	120	220	320	NaN	520	0.110492723993957	2	0	NaN	4830978.8652292	NaN	4830979.8486494	4830980.36519238
42	19	0	0	90	36.1581920903955	36.241610738255	18	0.600061319768429	2	4	3	NaN	1	3	0.0424599998153977	0	1	NaN	179	3	53	2	120	220	320	NaN	520	0.0104226246476173	1	1	NaN	4830981.5321521	NaN	4830982.5155649	4830983.03211348
42	19	0	0	90	36.1581920903955	36.241610738255	21	0.700071539729834	2	7	1	NaN	2	3	0.0424599998153977	0	1	NaN	180	3	54	2	120	220	320	NaN	520	0.20492007676512	2	1	NaN	4830985.2818709	NaN	4830986.265947	4830986.78247952
42	19	0	0	90	36.1581920903955	36.241610738255	14	0.466714359819889	2	8	5	NaN	2	5	0.0424599998153977	0	1	NaN	181	3	55	2	120	220	320	NaN	520	0.550958327949047	1	0	NaN	4830988.0326758	NaN	4830989.0162033	4830989.53276367
42	19	0	0	90	36.1581920903955	36.241610738255	7	0.233357179909945	2	12	5	NaN	2	3	0.0424599998153977	0	1	NaN	182	3	56	2	120	220	320	NaN	520	0.395326724275947	2	1	NaN	4830991.1163175	NaN	4830992.0998507	4830992.61639458
42	19	0	0	90	36.1581920903955	36.241610738255	15	0.500051099807024	2	11	6	NaN	2	5	0.0424599998153977	0	1	NaN	183	3	57	2	120	220	320	NaN	520	0.296017223969102	2	1	NaN	4830994.1834123	NaN	4830995.166797	4830995.68335428
42	19	0	0	90	36.1581920903955	36.241610738255	8	0.266693919897079	2	5	6	NaN	1	4	0.0424599998153977	0	1	NaN	184	3	58	2	120	220	320	NaN	520	0.296128983609378	1	1	NaN	4830996.9836216	NaN	4830997.9669848	4830998.48363682
42	19	0	0	90	36.1581920903955	36.241610738255	15	0.500051099807024	2	6	5	NaN	1	3	0.0424599998153977	0	1	NaN	185	3	59	2	120	220	320	NaN	520	0.0104934712871909	1	1	NaN	4830999.7838257	NaN	4831000.7673513	4831001.28390413
42	19	0	0	90	36.1581920903955	36.241610738255	11	0.366704139858484	2	12	1	NaN	2	3	0.0424599998153977	0	1	NaN	186	3	60	2	120	220	320	NaN	520	0.0102847926318645	1	0	NaN	4831002.1009162	NaN	4831003.0842612	4831003.60081371
42	19	0	0	90	36.1581920903955	36.241610738255	22	0.733408279716969	2	8	4	NaN	2	5	0.0424599998153977	0	1	NaN	187	3	61	2	120	220	320	NaN	520	0.0104072755202651	2	1	NaN	4831004.4177542	NaN	4831005.4011446	4831005.91769982
42	19	0	0	90	36.1581920903955	36.241610738255	22	0.733408279716969	2	2	4	NaN	1	5	0.0424599998153977	0	1	NaN	188	3	62	2	120	220	320	NaN	520	0.0728383241221309	1	1	NaN	4831006.7346477	NaN	4831007.7180497	4831008.23460658
42	19	0	0	90	36.1581920903955	36.241610738255	17	0.566724579781294	2	8	4	NaN	2	3	0.0424599998153977	0	1	NaN	189	3	63	2	120	220	320	NaN	520	0.353382675908506	2	1	NaN	4831009.1182157	NaN	4831010.1016133	4831010.61815682
42	19	0	0	90	36.1581920903955	36.241610738255	19	0.633398059755564	2	7	2	NaN	2	5	0.0424599998153977	0	1	NaN	190	4	1	2	120	220	320	NaN	520	0.213956079445779	2	1	NaN	4831073.0577757	NaN	4831074.0412311	4831074.55778962
42	19	0	0	90	36.1581920903955	36.241610738255	12	0.400040879845619	2	2	4	NaN	1	5	0.0424599998153977	0	1	NaN	191	4	2	2	120	220	320	NaN	520	0.376504375599325	2	0	NaN	4831075.5914311	NaN	4831076.5748419	4831077.09136562
42	19	0	0	90	36.1581920903955	36.241610738255	15	0.500051099807024	2	9	3	NaN	2	5	0.0424599998153977	0	1	NaN	192	4	3	2	120	220	320	NaN	520	0.0104082766920328	1	0	NaN	4831078.4417009	NaN	4831079.4251073	4831079.94164842
42	19	0	0	90	36.1581920903955	36.241610738255	10	0.333367399871349	2	7	1	NaN	2	4	0.0424599998153977	0	1	NaN	193	4	4	2	120	220	320	NaN	520	0.15317527577281	2	1	NaN	4831080.7585971	NaN	4831081.742002	4831082.25854772
42	19	0	0	90	36.1581920903955	36.241610738255	18	0.600061319768429	2	3	3	NaN	1	4	0.0424599998153977	0	1	NaN	194	4	5	2	120	220	320	NaN	520	0.0103906281292439	1	1	NaN	4831083.2255081	NaN	4831084.2089032	4831084.72545147
42	19	0	0	90	36.1581920903955	36.241610738255	13	0.433377619832754	2	6	4	NaN	1	3	0.0424599998153977	0	1	NaN	195	4	6	2	120	220	320	NaN	520	0.418759623542428	1	1	NaN	4831086.5090392	NaN	4831087.4925593	4831088.00910608
42	19	0	0	90	36.1581920903955	36.241610738255	18	0.600061319768429	2	9	4	NaN	2	4	0.0424599998153977	0	1	NaN	196	4	7	2	120	220	320	NaN	520	0.349895523861051	1	0	NaN	4831089.4261153	NaN	4831090.4095112	4831090.92605538
42	19	0	0	90	36.1581920903955	36.241610738255	11	0.366704139858484	2	3	1	NaN	1	5	0.0424599998153977	0	1	NaN	197	4	8	2	120	220	320	NaN	520	0.610952076502144	1	1	NaN	4831092.093049	NaN	4831093.0764454	4831093.59299172
42	19	0	0	90	36.1581920903955	36.241610738255	24	0.800081759691238	2	11	2	NaN	2	4	0.0424599998153977	0	1	NaN	198	4	9	2	120	220	320	NaN	520	0.213366823270917	2	1	NaN	4831095.009996	NaN	4831095.9933998	4831096.50994178
42	19	0	0	90	36.1581920903955	36.241610738255	24	0.800081759691238	2	11	1	NaN	2	5	0.0424599998153977	0	1	NaN	199	4	10	2	120	220	320	NaN	520	0.248683475889266	2	1	NaN	4831097.7269624	NaN	4831098.7103357	4831099.22687932
42	19	0	0	90	36.1581920903955	36.241610738255	23	0.766745019704103	2	3	2	NaN	1	4	0.0424599998153977	0	1	NaN	200	4	11	2	120	220	320	NaN	520	0.667166396044195	1	1	NaN	4831100.6605281	NaN	4831101.6439478	4831102.1605072
42	19	0	0	90	36.1581920903955	36.241610738255	25	0.833418499678373	2	1	1	NaN	1	4	0.0424599998153977	0	1	NaN	201	4	12	2	120	220	320	NaN	520	0.273593024350703	1	1	NaN	4831103.8941696	NaN	4831104.8776056	4831105.39415048
42	19	0	0	90	36.1581920903955	36.241610738255	0	0	1	5	6	NaN	1	4	0.0424599998153977	0	1	NaN	202	4	13	2	110	210	310	NaN	510	0.188609428703785	1	1	NaN	4831106.8111499	NaN	4831107.7945772	4831108.31110237
42	19	0	0	90	36.1581920903955	36.241610738255	6	0.20002043992281	2	3	4	NaN	1	4	0.0424599998153977	0	1	NaN	203	4	14	2	120	220	320	NaN	520	0.0340158762410283	1	1	NaN	4831109.6614357	NaN	4831110.644838	4831111.16138532
42	19	0	0	90	36.1581920903955	36.241610738255	16	0.533387839794159	2	7	5	NaN	2	4	0.0424599998153977	0	1	NaN	204	4	15	2	120	220	320	NaN	520	0.0104265240952373	2	1	NaN	4831112.2283884	NaN	4831113.2117576	4831113.72829798
42	19	0	0	90	36.1581920903955	36.241610738255	21	0.700071539729834	2	9	4	NaN	2	4	0.0424599998153977	0	1	NaN	205	4	16	2	120	220	320	NaN	520	0.0103410361334682	2	1	NaN	4831114.7452427	NaN	4831115.7286728	4831116.24522466
42	19	0	0	90	36.1581920903955	36.241610738255	8	0.266693919897079	2	4	4	NaN	1	3	0.0424599998153977	0	1	NaN	206	4	17	2	120	220	320	NaN	520	0.517434776760638	2	0	NaN	4831117.3621933	NaN	4831118.3455955	4831118.86214042
42	19	0	0	90	36.1581920903955	36.241610738255	18	0.600061319768429	2	12	2	NaN	2	5	0.0424599998153977	0	1	NaN	207	4	18	2	120	220	320	NaN	520	0.0104049760848284	1	0	NaN	4831120.1959192	NaN	4831121.1791908	4831121.69575272
42	19	0	0	90	36.1581920903955	36.241610738255	11	0.366704139858484	2	6	5	NaN	1	5	0.0424599998153977	0	1	NaN	208	4	19	2	120	220	320	NaN	520	0.0870220232754946	1	1	NaN	4831122.5127065	NaN	4831123.4960952	4831124.01264848
42	19	0	0	90	36.1581920903955	36.241610738255	20	0.666734799742699	2	6	5	NaN	1	3	0.0424599998153977	0	1	NaN	209	4	20	2	120	220	320	NaN	520	0.0104259755462408	1	1	NaN	4831124.9129401	NaN	4831125.8963396	4831126.41288552
42	19	0	0	90	36.1581920903955	36.241610738255	18	0.600061319768429	2	2	4	NaN	1	3	0.0424599998153977	0	1	NaN	210	4	21	2	120	220	320	NaN	520	0.184478075243533	1	1	NaN	4831127.4631591	NaN	4831128.4465861	4831128.96313802
42	19	0	0	90	36.1581920903955	36.241610738255	22	0.733408279716969	2	12	4	NaN	2	4	0.0424599998153977	0	1	NaN	211	4	22	2	120	220	320	NaN	520	0.12432427611202	2	1	NaN	4831130.1634314	NaN	4831131.1468586	4831131.66339982
42	19	0	0	90	36.1581920903955	36.241610738255	11	0.366704139858484	2	2	2	NaN	1	5	0.0424599998153977	0	1	NaN	212	4	23	2	120	220	320	NaN	520	0.0103935282677412	1	1	NaN	4831132.8137204	NaN	4831133.7971159	4831134.31366607
42	19	0	0	90	36.1581920903955	36.241610738255	23	0.766745019704103	2	7	6	NaN	2	3	0.0424599998153977	0	1	NaN	213	4	24	2	120	220	320	NaN	520	0.010391928255558	1	0	NaN	4831135.1471603	NaN	4831136.1306895	4831136.64722767
42	19	0	0	90	36.1581920903955	36.241610738255	17	0.566724579781294	2	6	6	NaN	1	5	0.0424599998153977	0	1	NaN	214	4	25	2	120	220	320	NaN	520	0.0860177231952548	2	0	NaN	4831139.0976428	NaN	4831140.0810587	4831140.59760728
42	19	0	0	90	36.1581920903955	36.241610738255	24	0.800081759691238	2	4	6	NaN	1	3	0.0424599998153977	0	1	NaN	215	4	26	2	120	220	320	NaN	520	0.0104139763861895	2	0	NaN	4831141.8145713	NaN	4831142.7980087	4831143.31454682
42	19	0	0	90	36.1581920903955	36.241610738255	16	0.533387839794159	2	5	4	NaN	1	3	0.0424599998153977	0	1	NaN	216	4	27	2	120	220	320	NaN	520	0.708508075214922	1	1	NaN	4831144.1314909	NaN	4831145.1148904	4831145.63144602
42	19	0	0	90	36.1581920903955	36.241610738255	25	0.833418499678373	2	10	5	NaN	2	3	0.0424599998153977	0	1	NaN	217	4	28	2	120	220	320	NaN	520	0.0104092760011554	2	1	NaN	4831147.1484494	NaN	4831148.1318716	4831148.64840312
42	19	0	0	90	36.1581920903955	36.241610738255	6	0.20002043992281	2	2	1	NaN	1	3	0.0424599998153977	0	1	NaN	218	4	29	2	120	220	320	NaN	520	0.750649224035442	1	1	NaN	4831149.4652334	NaN	4831150.4487596	4831150.96529408
42	19	0	0	90	36.1581920903955	36.241610738255	17	0.566724579781294	2	2	3	NaN	1	3	0.0424599998153977	0	1	NaN	219	4	30	2	120	220	320	NaN	520	0.0104086762294173	2	0	NaN	4831152.5323052	NaN	4831153.5157236	4831154.03226682
42	19	0	0	90	36.1581920903955	36.241610738255	15	0.500051099807024	2	11	5	NaN	2	3	0.0424599998153977	0	1	NaN	220	4	31	2	120	220	320	NaN	520	1.28667642362416	1	0	NaN	4831154.8492121	NaN	4831155.8326141	4831156.34915478
42	19	0	0	90	36.1581920903955	36.241610738255	13	0.433377619832754	2	2	2	NaN	1	4	0.0424599998153977	0	1	NaN	221	4	32	2	120	220	320	NaN	520	0.0231576757505536	1	1	NaN	4831158.8162464	NaN	4831159.7996767	4831160.31622012
42	19	0	0	90	36.1581920903955	36.241610738255	11	0.366704139858484	2	10	6	NaN	2	5	0.0424599998153977	0	1	NaN	222	4	33	2	120	220	320	NaN	520	0.593913123942912	1	0	NaN	4831161.1498355	NaN	4831162.1332288	4831162.64978228
42	19	0	0	90	36.1581920903955	36.241610738255	8	0.266693919897079	2	2	4	NaN	1	4	0.0424599998153977	0	1	NaN	223	4	34	2	120	220	320	NaN	520	0.0104069756343961	1	1	NaN	4831164.2834467	NaN	4831165.2668917	4831165.78342362
42	19	0	0	90	36.1581920903955	36.241610738255	16	0.533387839794159	2	1	5	NaN	1	5	0.0424599998153977	0	1	NaN	224	4	35	2	120	220	320	NaN	520	0.133835827931762	2	0	NaN	4831166.8504065	NaN	4831167.8337938	4831168.35034577
42	19	0	0	90	36.1581920903955	36.241610738255	20	0.666734799742699	2	7	6	NaN	2	3	0.0424599998153977	0	1	NaN	225	4	36	2	120	220	320	NaN	520	0.162931740283966	1	0	NaN	4831169.3004781	NaN	4831170.2840431	4831170.80058396
42	19	0	0	90	36.1581920903955	36.241610738255	8	0.266693919897079	2	10	5	NaN	2	3	0.0424599998153977	0	1	NaN	226	4	37	2	120	220	320	NaN	520	0.0735132722184062	2	1	NaN	4831172.1342317	NaN	4831173.1176533	4831173.63418723
42	19	0	0	90	36.1581920903955	36.241610738255	9	0.300030659884214	2	3	1	NaN	1	4	0.0424599998153977	0	1	NaN	227	4	38	2	120	220	320	NaN	520	0.52003687620163	2	0	NaN	4831178.751543	NaN	4831179.7350054	4831180.25151552
42	19	0	0	90	36.1581920903955	36.241610738255	0	0	1	6	2	NaN	1	3	0.0424599998153977	0	1	NaN	228	4	39	2	110	210	310	NaN	510	1.598562723957	1	1	NaN	4831181.5851781	NaN	4831182.5685756	4831183.08511728
42	19	0	0	90	36.1581920903955	36.241610738255	0	0	1	2	2	NaN	1	4	0.0424599998153977	0	1	NaN	229	4	40	2	110	210	310	NaN	510	0.188862923532724	2	0	NaN	4831185.618869	NaN	4831186.6023162	4831187.11886168
42	19	0	0	90	36.1581920903955	36.241610738255	17	0.566724579781294	2	8	4	NaN	2	4	0.0424599998153977	0	1	NaN	230	4	41	2	120	220	320	NaN	520	1.21452817693353	2	1	NaN	4831188.1691345	NaN	4831189.1525672	4831189.66910652
42	19	0	0	90	36.1581920903955	36.241610738255	11	0.366704139858484	2	8	2	NaN	2	4	0.0424599998153977	0	1	NaN	231	4	42	2	120	220	320	NaN	520	0.0104512758553028	1	0	NaN	4831191.9361766	NaN	4831192.9196034	4831193.43614962
42	19	0	0	90	36.1581920903955	36.241610738255	22	0.733408279716969	2	9	4	NaN	2	4	0.0424599998153977	0	1	NaN	232	4	43	2	120	220	320	NaN	520	0.648648975417018	2	1	NaN	4831194.503143	NaN	4831195.4865483	4831196.00306562
42	19	0	0	90	36.1581920903955	36.241610738255	22	0.733408279716969	2	7	5	NaN	2	3	0.0424599998153977	0	1	NaN	233	4	44	2	120	220	320	NaN	520	0.0104672759771347	2	1	NaN	4831197.7033724	NaN	4831198.6868313	4831199.20338002
42	19	0	0	90	36.1581920903955	36.241610738255	18	0.600061319768429	2	7	4	NaN	2	4	0.0424599998153977	0	1	NaN	234	4	45	2	120	220	320	NaN	520	0.386621075682342	2	1	NaN	4831200.236334	NaN	4831201.2204115	4831201.73695582
42	19	0	0	90	36.1581920903955	36.241610738255	16	0.533387839794159	2	11	3	NaN	2	3	0.0424599998153977	0	1	NaN	235	4	46	2	120	220	320	NaN	520	0.151298924349248	2	1	NaN	4831203.1206092	NaN	4831204.1040363	4831204.62058308
42	19	0	0	90	36.1581920903955	36.241610738255	6	0.20002043992281	2	1	6	NaN	1	3	0.0424599998153977	0	1	NaN	236	4	47	2	120	220	320	NaN	520	0.169719223864377	2	0	NaN	4831205.8542252	NaN	4831206.8376551	4831207.35417158
42	19	0	0	90	36.1581920903955	36.241610738255	9	0.300030659884214	2	5	6	NaN	1	4	0.0424599998153977	0	1	NaN	237	4	48	2	120	220	320	NaN	520	0.0104124760255218	1	1	NaN	4831208.3378147	NaN	4831209.3211943	4831209.83775092
42	19	0	0	90	36.1581920903955	36.241610738255	0	0	1	7	3	NaN	2	4	0.0424599998153977	0	1	NaN	238	4	49	2	110	210	310	NaN	510	0.0104226237162948	1	0	NaN	4831210.6545759	NaN	4831211.6381025	4831212.15464348
42	19	0	0	90	36.1581920903955	36.241610738255	18	0.600061319768429	2	6	2	NaN	1	5	0.0424599998153977	0	1	NaN	239	4	50	2	120	220	320	NaN	520	0.0104287238791585	1	1	NaN	4831212.9714728	NaN	4831213.9549989	4831214.47154128
42	19	0	0	90	36.1581920903955	36.241610738255	19	0.633398059755564	2	8	2	NaN	2	3	0.0424599998153977	0	1	NaN	240	4	51	2	120	220	320	NaN	520	0.0104244761168957	2	1	NaN	4831215.2885632	NaN	4831216.2718892	4831216.78844212
42	19	0	0	90	36.1581920903955	36.241610738255	20	0.666734799742699	2	11	6	NaN	2	3	0.0424599998153977	0	1	NaN	241	4	52	2	120	220	320	NaN	520	0.0104070762172341	2	1	NaN	4831217.6054163	NaN	4831218.5887933	4831219.10533832
42	19	0	0	90	36.1581920903955	36.241610738255	13	0.433377619832754	2	11	3	NaN	2	5	0.0424599998153977	0	1	NaN	242	4	53	2	120	220	320	NaN	520	1.38959732837975	1	0	NaN	4831219.9223402	NaN	4831220.9057631	4831221.42223587
42	19	0	0	90	36.1581920903955	36.241610738255	13	0.433377619832754	2	8	2	NaN	2	3	0.0424599998153977	0	1	NaN	243	4	54	2	120	220	320	NaN	520	0.0412351759150624	1	0	NaN	4831223.6226454	NaN	4831224.6060505	4831225.12259112
42	19	0	0	90	36.1581920903955	36.241610738255	8	0.266693919897079	2	12	3	NaN	2	4	0.0424599998153977	0	1	NaN	244	4	55	2	120	220	320	NaN	520	0.01040577609092	2	1	NaN	4831225.9728801	NaN	4831226.9562873	4831227.47282802
42	19	0	0	90	36.1581920903955	36.241610738255	17	0.566724579781294	2	1	2	NaN	1	5	0.0424599998153977	0	1	NaN	245	4	56	2	120	220	320	NaN	520	1.47817162424326	1	1	NaN	4831228.2896966	NaN	4831229.2731873	4831229.78971988
42	19	0	0	90	36.1581920903955	36.241610738255	9	0.300030659884214	2	10	4	NaN	2	4	0.0424599998153977	0	1	NaN	246	4	57	2	120	220	320	NaN	520	1.04567037615925	2	1	NaN	4831232.0901483	NaN	4831233.0735377	4831233.59009662
42	19	0	0	90	36.1581920903955	36.241610738255	12	0.400040879845619	2	9	6	NaN	2	3	0.0424599998153977	0	1	NaN	247	4	58	2	120	220	320	NaN	520	0.744579124264419	2	1	NaN	4831235.6071607	NaN	4831236.5905598	4831237.10710658
42	19	0	0	90	36.1581920903955	36.241610738255	14	0.466714359819889	2	2	2	NaN	1	5	0.0424599998153977	0	1	NaN	248	4	59	2	120	220	320	NaN	520	0.0104250237345695	1	1	NaN	4831238.7240043	NaN	4831239.7075334	4831240.22408228
42	19	0	0	90	36.1581920903955	36.241610738255	16	0.533387839794159	2	4	5	NaN	1	4	0.0424599998153977	0	1	NaN	249	4	60	2	120	220	320	NaN	520	0.494692536070943	2	0	NaN	4831241.0410068	NaN	4831242.0244341	4831242.54098176
42	19	0	0	90	36.1581920903955	36.241610738255	17	0.566724579781294	2	3	4	NaN	1	4	0.0424599998153977	0	1	NaN	250	4	61	2	120	220	320	NaN	520	0.132017475552857	2	0	NaN	4831244.1078738	NaN	4831245.0913889	4831245.60793772
42	19	0	0	90	36.1581920903955	36.241610738255	24	0.800081759691238	2	12	6	NaN	2	4	0.0424599998153977	0	1	NaN	251	4	62	2	120	220	320	NaN	520	0.0497807757928967	1	0	NaN	4831246.558227	NaN	4831247.5416396	4831248.05818192
42	19	0	0	90	36.1581920903955	36.241610738255	8	0.266693919897079	2	10	2	NaN	2	5	0.0424599998153977	0	1	NaN	252	4	63	2	120	220	320	NaN	520	0.0267255231738091	1	0	NaN	4831248.9250027	NaN	4831249.9085396	4831250.42507828
42	19	0	0	90	36.1581920903955	36.241610738255	9	0.300030659884214	2	1	3	NaN	1	3	0.0424599998153977	0	1	NaN	253	5	1	2	120	220	320	NaN	520	0.354402528144419	1	1	NaN	4831334.9334476	NaN	4831335.9169998	4831336.43354257
42	19	0	0	90	36.1581920903955	36.241610738255	11	0.366704139858484	2	10	1	NaN	2	4	0.0424599998153977	0	1	NaN	254	5	2	2	120	220	320	NaN	520	0.0104353241622448	2	1	NaN	4831337.7173471	NaN	4831338.7005963	4831339.21714538
42	19	0	0	90	36.1581920903955	36.241610738255	23	0.766745019704103	2	8	4	NaN	2	5	0.0424599998153977	0	1	NaN	255	5	3	2	120	220	320	NaN	520	0.0104073761031032	2	1	NaN	4831340.0340952	NaN	4831341.0175796	4831341.53404752
42	19	0	0	90	36.1581920903955	36.241610738255	25	0.833418499678373	2	2	3	NaN	1	4	0.0424599998153977	0	1	NaN	256	5	4	2	120	220	320	NaN	520	0.425248776562512	2	0	NaN	4831342.3508575	NaN	4831343.3343943	4831343.85093382
42	19	0	0	90	36.1581920903955	36.241610738255	25	0.833418499678373	2	9	6	NaN	2	4	0.0424599998153977	0	1	NaN	257	5	5	2	120	220	320	NaN	520	1.52330297604203	1	0	NaN	4831345.08457	NaN	4831346.0680001	4831346.58452992
42	19	0	0	90	36.1581920903955	36.241610738255	23	0.766745019704103	2	9	1	NaN	2	3	0.0424599998153977	0	1	NaN	258	5	6	2	120	220	320	NaN	520	0.432244196534157	2	1	NaN	4831349.7516927	NaN	4831350.7351392	4831351.2516676
42	19	0	0	90	36.1581920903955	36.241610738255	16	0.533387839794159	2	2	5	NaN	1	5	0.0424599998153977	0	1	NaN	259	5	7	2	120	220	320	NaN	520	0.945921128615737	1	1	NaN	4831352.7019986	NaN	4831353.6854076	4831354.20195957
42	19	0	0	90	36.1581920903955	36.241610738255	0	0	1	1	4	NaN	1	4	0.0424599998153977	0	1	NaN	260	5	8	2	110	210	310	NaN	510	0.0104267233982682	1	1	NaN	4831356.0857288	NaN	4831357.0690758	4831357.58562068
42	19	0	0	90	36.1581920903955	36.241610738255	20	0.666734799742699	2	1	3	NaN	1	4	0.0424599998153977	0	1	NaN	261	5	9	2	120	220	320	NaN	520	0.277462724596262	2	0	NaN	4831358.4025714	NaN	4831359.3859693	4831359.90251118
42	19	0	0	90	36.1581920903955	36.241610738255	11	0.366704139858484	2	11	4	NaN	2	4	0.0424599998153977	0	1	NaN	262	5	10	2	120	220	320	NaN	520	0.518197876401246	1	0	NaN	4831360.986047	NaN	4831361.9695595	4831362.48610612
42	19	0	0	90	36.1581920903955	36.241610738255	23	0.766745019704103	2	6	1	NaN	1	3	0.0424599998153977	0	1	NaN	263	5	11	2	120	220	320	NaN	520	0.0104096764698625	1	1	NaN	4831363.9857735	NaN	4831364.9698832	4831365.48639822
42	19	0	0	90	36.1581920903955	36.241610738255	15	0.500051099807024	2	5	1	NaN	1	5	0.0424599998153977	0	1	NaN	264	5	12	2	120	220	320	NaN	520	0.199908676557243	1	1	NaN	4831366.3200823	NaN	4831367.303415	4831367.81996072
42	19	0	0	90	36.1581920903955	36.241610738255	14	0.466714359819889	2	5	1	NaN	1	4	0.0424599998153977	0	1	NaN	265	5	13	2	120	220	320	NaN	520	0.402783423662186	2	0	NaN	4831368.8536157	NaN	4831369.836988	4831370.35354728
42	19	0	0	90	36.1581920903955	36.241610738255	9	0.300030659884214	2	1	1	NaN	1	5	0.0424599998153977	0	1	NaN	266	5	14	2	120	220	320	NaN	520	0.0104090757668018	1	1	NaN	4831371.7872167	NaN	4831372.770625	4831373.28716502
42	19	0	0	90	36.1581920903955	36.241610738255	21	0.700071539729834	2	9	6	NaN	2	4	0.0424599998153977	0	1	NaN	267	5	15	2	120	220	320	NaN	520	0.368281023576856	2	1	NaN	4831374.1039821	NaN	4831375.0875066	4831375.60405598
42	19	0	0	90	36.1581920903955	36.241610738255	25	0.833418499678373	2	12	4	NaN	2	4	0.0424599998153977	0	1	NaN	268	5	16	2	120	220	320	NaN	520	0.316423275507987	2	1	NaN	4831376.7877694	NaN	4831377.771114	4831378.28765572
42	19	0	0	90	36.1581920903955	36.241610738255	21	0.700071539729834	2	2	4	NaN	1	5	0.0424599998153977	0	1	NaN	269	5	17	2	120	220	320	NaN	520	0.438967924565077	1	1	NaN	4831379.7212598	NaN	4831380.7047178	4831381.22126958
42	19	0	0	90	36.1581920903955	36.241610738255	25	0.833418499678373	2	4	5	NaN	1	4	0.0424599998153977	0	1	NaN	270	5	18	2	120	220	320	NaN	520	0.489405975677073	1	1	NaN	4831382.6549153	NaN	4831383.6383644	4831384.15490022
42	19	0	0	90	36.1581920903955	36.241610738255	23	0.766745019704103	2	6	3	NaN	1	5	0.0424599998153977	0	1	NaN	271	5	19	2	120	220	320	NaN	520	0.353334376588464	1	1	NaN	4831385.6384573	NaN	4831386.6219551	4831387.13852972
42	19	0	0	90	36.1581920903955	36.241610738255	0	0	1	7	5	NaN	2	4	0.0424599998153977	0	1	NaN	272	5	20	2	110	210	310	NaN	510	0.415832876227796	2	1	NaN	4831388.47216	NaN	4831389.4555987	4831389.97213752
42	19	0	0	90	36.1581920903955	36.241610738255	11	0.366704139858484	2	9	2	NaN	2	4	0.0424599998153977	0	1	NaN	273	5	21	2	120	220	320	NaN	520	0.511006528511643	2	1	NaN	4831394.2894029	NaN	4831395.2728303	4831395.78937227
42	19	0	0	90	36.1581920903955	36.241610738255	0	0	1	10	1	NaN	2	3	0.0424599998153977	0	1	NaN	274	5	22	2	110	210	310	NaN	510	0.246041676029563	2	1	NaN	4831397.1063748	NaN	4831398.0897807	4831398.60632222
42	19	0	0	90	36.1581920903955	36.241610738255	21	0.700071539729834	2	7	3	NaN	2	3	0.0424599998153977	0	1	NaN	275	5	23	2	120	220	320	NaN	520	0.0104278232902288	1	0	NaN	4831399.6565207	NaN	4831400.6400274	4831401.15656518
42	19	0	0	90	36.1581920903955	36.241610738255	18	0.600061319768429	2	2	1	NaN	1	3	0.0424599998153977	0	1	NaN	276	5	24	2	120	220	320	NaN	520	0.0104077756404877	2	0	NaN	4831401.9735267	NaN	4831402.9569271	4831403.47346372
42	19	0	0	90	36.1581920903955	36.241610738255	7	0.233357179909945	2	2	4	NaN	1	5	0.0424599998153977	0	1	NaN	277	5	25	2	120	220	320	NaN	520	0.010432324372232	1	1	NaN	4831405.1071478	NaN	4831406.0905623	4831406.60710118
42	19	0	0	90	36.1581920903955	36.241610738255	15	0.500051099807024	2	10	4	NaN	2	3	0.0424599998153977	0	1	NaN	278	5	26	2	120	220	320	NaN	520	0.010418675839901	2	1	NaN	4831407.7907406	NaN	4831408.7741623	4831409.29070472
42	19	0	0	90	36.1581920903955	36.241610738255	8	0.266693919897079	2	8	6	NaN	2	5	0.0424599998153977	0	1	NaN	279	5	27	2	120	220	320	NaN	520	0.300735776312649	1	0	NaN	4831410.1076487	NaN	4831411.0910494	4831411.60759852
42	19	0	0	90	36.1581920903955	36.241610738255	21	0.700071539729834	2	5	2	NaN	1	5	0.0424599998153977	0	1	NaN	280	5	28	2	120	220	320	NaN	520	0.235584976151586	2	0	NaN	4831412.7245988	NaN	4831413.7079804	4831414.22452342
42	19	0	0	90	36.1581920903955	36.241610738255	10	0.333367399871349	2	3	6	NaN	1	5	0.0424599998153977	0	1	NaN	281	5	29	2	120	220	320	NaN	520	0.0104250758886337	1	1	NaN	4831415.508121	NaN	4831416.4915896	4831417.00812662
42	19	0	0	90	36.1581920903955	36.241610738255	19	0.633398059755564	2	1	1	NaN	1	3	0.0424599998153977	0	1	NaN	282	5	30	2	120	220	320	NaN	520	0.0103152878582478	2	0	NaN	4831417.8249978	NaN	4831418.8084729	4831419.32503371
42	19	0	0	90	36.1581920903955	36.241610738255	12	0.400040879845619	2	12	2	NaN	2	3	0.0424599998153977	0	1	NaN	283	5	31	2	120	220	320	NaN	520	0.0103174885734916	2	1	NaN	4831420.141976	NaN	4831421.1253926	4831421.64192101
42	19	0	0	90	36.1581920903955	36.241610738255	25	0.833418499678373	2	8	6	NaN	2	3	0.0424599998153977	0	1	NaN	284	5	32	2	120	220	320	NaN	520	1.35706317611039	1	0	NaN	4831422.4589275	NaN	4831423.442269	4831423.95881322
42	19	0	0	90	36.1581920903955	36.241610738255	19	0.633398059755564	2	5	4	NaN	1	3	0.0424599998153977	0	1	NaN	285	5	33	2	120	220	320	NaN	520	0.0205519767478108	1	1	NaN	4831437.0435176	NaN	4831438.0270385	4831438.54358162
42	19	0	0	90	36.1581920903955	36.241610738255	9	0.300030659884214	2	12	6	NaN	2	5	0.0424599998153977	0	1	NaN	286	5	34	2	120	220	320	NaN	520	0.0104084759950638	1	0	NaN	4831439.3770552	NaN	4831440.3605931	4831440.87714172
42	19	0	0	90	36.1581920903955	36.241610738255	10	0.333367399871349	2	6	4	NaN	1	3	0.0424599998153977	0	1	NaN	287	5	35	2	120	220	320	NaN	520	0.0104951756075025	2	0	NaN	4831441.6940855	NaN	4831442.6774993	4831443.19403672
42	19	0	0	90	36.1581920903955	36.241610738255	12	0.400040879845619	2	1	4	NaN	1	3	0.0424599998153977	0	1	NaN	288	5	36	2	120	220	320	NaN	520	0.0104247760027647	1	1	NaN	4831444.0109815	NaN	4831444.9943854	4831445.51093012
42	19	0	0	90	36.1581920903955	36.241610738255	12	0.400040879845619	2	8	3	NaN	2	3	0.0424599998153977	0	1	NaN	289	5	37	2	120	220	320	NaN	520	0.0104394722729921	2	1	NaN	4831446.3278864	NaN	4831447.3113092	4831447.82781983
42	19	0	0	90	36.1581920903955	36.241610738255	22	0.733408279716969	2	6	6	NaN	1	3	0.0424599998153977	0	1	NaN	290	5	38	2	120	220	320	NaN	520	0.0104085756465793	1	1	NaN	4831448.6446776	NaN	4831449.6281745	4831450.14472462
42	19	0	0	90	36.1581920903955	36.241610738255	23	0.766745019704103	2	11	5	NaN	2	3	0.0424599998153977	0	1	NaN	291	5	39	2	120	220	320	NaN	520	0.0104937758296728	2	1	NaN	4831450.9615392	NaN	4831451.9449581	4831452.46162012
42	19	0	0	90	36.1581920903955	36.241610738255	20	0.666734799742699	2	2	1	NaN	1	4	0.0424599998153977	0	1	NaN	292	5	40	2	120	220	320	NaN	520	1.68159176781774	1	1	NaN	4831453.278565	NaN	4831454.2619622	4831454.77850323
42	19	0	0	90	36.1581920903955	36.241610738255	8	0.266693919897079	2	9	5	NaN	2	3	0.0424599998153977	0	1	NaN	293	5	41	2	120	220	320	NaN	520	0.85797477606684	1	0	NaN	4831459.2623749	NaN	4831460.2459095	4831460.76243412
42	19	0	0	90	36.1581920903955	36.241610738255	8	0.266693919897079	2	11	1	NaN	2	3	0.0424599998153977	0	1	NaN	294	5	42	2	120	220	320	NaN	520	0.29144127573818	1	0	NaN	4831462.6128354	NaN	4831463.5962113	4831464.11275602
42	19	0	0	90	36.1581920903955	36.241610738255	9	0.300030659884214	2	10	4	NaN	2	4	0.0424599998153977	0	1	NaN	295	5	43	2	120	220	320	NaN	520	0.235090676695108	2	1	NaN	4831465.2130724	NaN	4831466.1964778	4831466.71302092
42	19	0	0	90	36.1581920903955	36.241610738255	10	0.333367399871349	2	11	6	NaN	2	5	0.0424599998153977	0	1	NaN	296	5	44	2	120	220	320	NaN	520	0.010401476174593	1	0	NaN	4831467.9466535	NaN	4831468.9300733	4831469.44662422
42	19	0	0	90	36.1581920903955	36.241610738255	19	0.633398059755564	2	11	3	NaN	2	4	0.0424599998153977	0	1	NaN	297	5	45	2	120	220	320	NaN	520	0.281875943765044	2	1	NaN	4831472.2304025	NaN	4831473.2138826	4831473.73038676
42	19	0	0	90	36.1581920903955	36.241610738255	23	0.766745019704103	2	2	1	NaN	1	5	0.0424599998153977	0	1	NaN	298	5	46	2	120	220	320	NaN	520	0.0104250237345695	2	0	NaN	4831474.8306555	NaN	4831475.8140862	4831476.33062598
42	19	0	0	90	36.1581920903955	36.241610738255	7	0.233357179909945	2	9	6	NaN	2	5	0.0424599998153977	0	1	NaN	299	5	47	2	120	220	320	NaN	520	0.0104029765352607	2	1	NaN	4831477.3809044	NaN	4831478.3643484	4831478.88088392
42	19	0	0	90	36.1581920903955	36.241610738255	16	0.533387839794159	2	11	2	NaN	2	3	0.0424599998153977	0	1	NaN	300	5	48	2	120	220	320	NaN	520	0.262783575803041	2	1	NaN	4831479.6976835	NaN	4831480.6812598	4831481.19778122
42	19	0	0	90	36.1581920903955	36.241610738255	21	0.700071539729834	2	12	6	NaN	2	4	0.0424599998153977	0	1	NaN	301	5	49	2	120	220	320	NaN	520	0.55072542373091	2	1	NaN	4831483.4815596	NaN	4831484.4649397	4831484.98147938
42	19	0	0	90	36.1581920903955	36.241610738255	6	0.20002043992281	2	1	6	NaN	1	3	0.0424599998153977	0	1	NaN	302	5	50	2	120	220	320	NaN	520	0.269990271888673	2	0	NaN	4831486.6984936	NaN	4831487.6819116	4831488.19846953
42	19	0	0	90	36.1581920903955	36.241610738255	9	0.300030659884214	2	7	6	NaN	2	5	0.0424599998153977	0	1	NaN	303	5	51	2	120	220	320	NaN	520	0.0104176755994558	1	0	NaN	4831489.4986681	NaN	4831490.4821985	4831490.99873992
42	19	0	0	90	36.1581920903955	36.241610738255	8	0.266693919897079	2	6	2	NaN	1	3	0.0424599998153977	0	1	NaN	304	5	52	2	120	220	320	NaN	520	0.0104081761091948	1	1	NaN	4831492.0155994	NaN	4831492.9991108	4831493.51564972
42	19	0	0	90	36.1581920903955	36.241610738255	16	0.533387839794159	2	7	4	NaN	2	5	0.0424599998153977	0	1	NaN	305	5	53	2	120	220	320	NaN	520	0.379602476023138	2	1	NaN	4831494.3326016	NaN	4831495.316025	4831495.83254982
42	19	0	0	90	36.1581920903955	36.241610738255	20	0.666734799742699	2	9	2	NaN	2	4	0.0424599998153977	0	1	NaN	306	5	54	2	120	220	320	NaN	520	0.0794045757502317	2	1	NaN	4831497.0328657	NaN	4831498.0162657	4831498.53281192
42	19	0	0	90	36.1581920903955	36.241610738255	16	0.533387839794159	2	4	4	NaN	1	4	0.0424599998153977	0	1	NaN	307	5	55	2	120	220	320	NaN	520	0.0104302242398262	2	0	NaN	4831499.7496631	NaN	4831500.7332087	4831501.24974288
42	19	0	0	90	36.1581920903955	36.241610738255	9	0.300030659884214	2	6	5	NaN	1	3	0.0424599998153977	0	1	NaN	308	5	56	2	120	220	320	NaN	520	0.0375876761972904	1	1	NaN	4831502.2667155	NaN	4831503.2501177	4831503.76666962
42	19	0	0	90	36.1581920903955	36.241610738255	11	0.366704139858484	2	4	3	NaN	1	5	0.0424599998153977	0	1	NaN	309	5	57	2	120	220	320	NaN	520	0.0104083754122257	1	1	NaN	4831504.8336081	NaN	4831505.8170387	4831506.33358762
42	19	0	0	90	36.1581920903955	36.241610738255	11	0.366704139858484	2	1	3	NaN	1	3	0.0424599998153977	0	1	NaN	310	5	58	2	120	220	320	NaN	520	0.232722524553537	2	0	NaN	4831507.3837651	NaN	4831508.3673268	4831508.88382618
42	19	0	0	90	36.1581920903955	36.241610738255	20	0.666734799742699	2	5	6	NaN	1	3	0.0424599998153977	0	1	NaN	311	5	59	2	120	220	320	NaN	520	0.0104255238547921	1	1	NaN	4831510.2508081	NaN	4831511.2342358	4831511.75078848
42	19	0	0	90	36.1581920903955	36.241610738255	23	0.766745019704103	2	5	6	NaN	1	4	0.0424599998153977	0	1	NaN	312	5	60	2	120	220	320	NaN	520	0.0950559275224805	1	1	NaN	4831512.8009483	NaN	4831513.7844668	4831514.30102907
42	19	0	0	90	36.1581920903955	36.241610738255	19	0.633398059755564	2	5	3	NaN	1	5	0.0424599998153977	0	1	NaN	313	5	61	2	120	220	320	NaN	520	0.414777624420822	1	1	NaN	4831515.4013612	NaN	4831516.384724	4831516.90128418
42	19	0	0	90	36.1581920903955	36.241610738255	25	0.833418499678373	2	3	6	NaN	1	3	0.0424599998153977	0	1	NaN	314	5	62	2	120	220	320	NaN	520	0.249758523888886	2	0	NaN	4831518.3181629	NaN	4831519.3016976	4831519.81824008
42	19	0	0	90	36.1581920903955	36.241610738255	10	0.333367399871349	2	5	2	NaN	1	4	0.0424599998153977	0	1	NaN	315	5	63	2	120	220	320	NaN	520	0.0104142762720585	1	1	NaN	4831521.1017718	NaN	4831522.0852783	4831522.60184772
42	19	0	0	90	36.1581920903955	36.241610738255	7	0.233357179909945	2	2	5	NaN	1	3	0.0424599998153977	0	1	NaN	316	6	1	2	120	220	320	NaN	520	0.327268072403967	2	0	NaN	4831583.6413928	NaN	4831584.6248193	4831585.14133193
42	19	0	0	90	36.1581920903955	36.241610738255	20	0.666734799742699	2	8	6	NaN	2	5	0.0424599998153977	0	1	NaN	317	6	2	2	120	220	320	NaN	520	0.126867776736617	2	1	NaN	4831586.6413416	NaN	4831587.6250868	4831588.14162362
42	19	0	0	90	36.1581920903955	36.241610738255	12	0.400040879845619	2	11	3	NaN	2	4	0.0424599998153977	0	1	NaN	318	6	3	2	120	220	320	NaN	520	0.220080443657935	2	1	NaN	4831589.3084714	NaN	4831590.2920165	4831590.80856046
42	19	0	0	90	36.1581920903955	36.241610738255	13	0.433377619832754	2	10	6	NaN	2	5	0.0424599998153977	0	1	NaN	319	6	4	2	120	220	320	NaN	520	0.0475895721465349	1	0	NaN	4831592.0088835	NaN	4831592.9922972	4831593.50882143
42	19	0	0	90	36.1581920903955	36.241610738255	9	0.300030659884214	2	8	3	NaN	2	3	0.0424599998153977	0	1	NaN	320	6	5	2	120	220	320	NaN	520	0.352763376198709	1	0	NaN	4831594.375795	NaN	4831595.3591723	4831595.87571952
42	19	0	0	90	36.1581920903955	36.241610738255	8	0.266693919897079	2	5	4	NaN	1	3	0.0424599998153977	0	1	NaN	321	6	6	2	120	220	320	NaN	520	0.0103920791298151	1	1	NaN	4831597.0427017	NaN	4831598.026099	4831598.54266042
42	19	0	0	90	36.1581920903955	36.241610738255	11	0.366704139858484	2	12	5	NaN	2	5	0.0424599998153977	0	1	NaN	322	6	7	2	120	220	320	NaN	520	0.208963024429977	1	0	NaN	4831599.3595981	NaN	4831600.3429918	4831600.85954598
42	19	0	0	90	36.1581920903955	36.241610738255	12	0.400040879845619	2	8	6	NaN	2	3	0.0424599998153977	0	1	NaN	323	6	8	2	120	220	320	NaN	520	0.459729723632336	2	1	NaN	4831601.8765338	NaN	4831602.8599213	4831603.37645428
42	19	0	0	90	36.1581920903955	36.241610738255	0	0	1	3	5	NaN	1	3	0.0424599998153977	0	1	NaN	324	6	9	2	110	210	310	NaN	510	0.0105485711246729	1	1	NaN	4831604.8434444	NaN	4831605.8268778	4831606.34342303
42	19	0	0	90	36.1581920903955	36.241610738255	21	0.700071539729834	2	8	1	NaN	2	3	0.0424599998153977	0	1	NaN	325	6	10	2	120	220	320	NaN	520	0.337463175877929	1	0	NaN	4831607.5270431	NaN	4831608.5104707	4831609.02703642
42	19	0	0	90	36.1581920903955	36.241610738255	6	0.20002043992281	2	9	4	NaN	2	3	0.0424599998153977	0	1	NaN	326	6	11	2	120	220	320	NaN	520	0.247357975691557	1	0	NaN	4831610.3773197	NaN	4831611.3607567	4831611.87729892
42	19	0	0	90	36.1581920903955	36.241610738255	18	0.600061319768429	2	11	3	NaN	2	3	0.0424599998153977	0	1	NaN	327	6	12	2	120	220	320	NaN	520	0.0104062762111425	2	1	NaN	4831613.1609651	NaN	4831614.1443519	4831614.66090982
42	19	0	0	90	36.1581920903955	36.241610738255	24	0.800081759691238	2	12	4	NaN	2	3	0.0424599998153977	0	1	NaN	328	6	13	2	120	220	320	NaN	520	0.121911676600575	2	1	NaN	4831615.6945118	NaN	4831616.6779409	4831617.19449142
42	19	0	0	90	36.1581920903955	36.241610738255	14	0.466714359819889	2	12	6	NaN	2	3	0.0424599998153977	0	1	NaN	329	6	14	2	120	220	320	NaN	520	0.010413876734674	1	0	NaN	4831618.3281297	NaN	4831619.3115311	4831619.82807602
42	19	0	0	90	36.1581920903955	36.241610738255	22	0.733408279716969	2	11	6	NaN	2	3	0.0424599998153977	0	1	NaN	330	6	15	2	120	220	320	NaN	520	0.243554376065731	2	1	NaN	4831620.8449241	NaN	4831621.8284456	4831622.34499102
42	19	0	0	90	36.1581920903955	36.241610738255	6	0.20002043992281	2	10	1	NaN	2	4	0.0424599998153977	0	1	NaN	331	6	16	2	120	220	320	NaN	520	0.0104193231090903	1	0	NaN	4831623.778649	NaN	4831624.7620772	4831625.27860908
42	19	0	0	90	36.1581920903955	36.241610738255	0	0	1	3	3	NaN	1	3	0.0424599998153977	0	1	NaN	332	6	17	2	110	210	310	NaN	510	0.0104084759950638	1	1	NaN	4831626.3122266	NaN	4831627.295654	4831627.81220442
42	19	0	0	90	36.1581920903955	36.241610738255	24	0.800081759691238	2	9	2	NaN	2	5	0.0424599998153977	0	1	NaN	333	6	18	2	120	220	320	NaN	520	0.0492031276226044	1	0	NaN	4831628.8790215	NaN	4831629.8625704	4831630.37911937
42	19	0	0	90	36.1581920903955	36.241610738255	19	0.633398059755564	2	4	1	NaN	1	4	0.0424599998153977	0	1	NaN	334	6	19	2	120	220	320	NaN	520	1.49795387592167	1	1	NaN	4831631.4627595	NaN	4831632.4462161	4831632.96270782
42	19	0	0	90	36.1581920903955	36.241610738255	20	0.666734799742699	2	10	5	NaN	2	3	0.0424599998153977	0	1	NaN	335	6	20	2	120	220	320	NaN	520	0.880359276197851	1	0	NaN	4831635.4964573	NaN	4831636.4798835	4831636.99643892
42	19	0	0	90	36.1581920903955	36.241610738255	19	0.633398059755564	2	10	2	NaN	2	3	0.0424599998153977	0	1	NaN	336	6	21	2	120	220	320	NaN	520	0.176535023376346	2	1	NaN	4831639.8802214	NaN	4831640.8636614	4831641.38019088
42	19	0	0	90	36.1581920903955	36.241610738255	9	0.300030659884214	2	4	5	NaN	1	3	0.0424599998153977	0	1	NaN	337	6	22	2	120	220	320	NaN	520	0.0104528237134218	1	1	NaN	4831642.5638211	NaN	4831643.5472483	4831644.06378908
42	19	0	0	90	36.1581920903955	36.241610738255	17	0.566724579781294	2	10	1	NaN	2	5	0.0424599998153977	0	1	NaN	338	6	23	2	120	220	320	NaN	520	0.623622075654566	2	1	NaN	4831644.8806362	NaN	4831645.8641509	4831646.38068972
42	19	0	0	90	36.1581920903955	36.241610738255	11	0.366704139858484	2	8	1	NaN	2	3	0.0424599998153977	0	1	NaN	339	6	24	2	120	220	320	NaN	520	0.179275623522699	1	0	NaN	4831647.9977106	NaN	4831648.9811172	4831649.49765658
42	19	0	0	90	36.1581920903955	36.241610738255	13	0.433377619832754	2	6	3	NaN	1	4	0.0424599998153977	0	1	NaN	340	6	25	2	120	220	320	NaN	520	0.439867723733187	2	0	NaN	4831650.6646475	NaN	4831651.6480521	4831652.16458768
42	19	0	0	90	36.1581920903955	36.241610738255	15	0.500051099807024	2	9	1	NaN	2	3	0.0424599998153977	0	1	NaN	341	6	26	2	120	220	320	NaN	520	0.539326324127614	1	0	NaN	4831653.7649652	NaN	4831654.7483474	4831655.26489078
42	19	0	0	90	36.1581920903955	36.241610738255	12	0.400040879845619	2	4	2	NaN	1	5	0.0424599998153977	0	1	NaN	342	6	27	2	120	220	320	NaN	520	0.0102980919182301	2	0	NaN	4831657.0485851	NaN	4831658.0320124	4831658.54855301
42	19	0	0	90	36.1581920903955	36.241610738255	20	0.666734799742699	2	10	2	NaN	2	4	0.0424599998153977	0	1	NaN	343	6	28	2	120	220	320	NaN	520	0.250960176810622	1	0	NaN	4831659.565522	NaN	4831660.5489216	4831661.06548592
42	19	0	0	90	36.1581920903955	36.241610738255	20	0.666734799742699	2	5	6	NaN	1	4	0.0424599998153977	0	1	NaN	344	6	29	2	120	220	320	NaN	520	0.205284123308957	2	0	NaN	4831662.2990837	NaN	4831663.282529	4831663.79907188
42	19	0	0	90	36.1581920903955	36.241610738255	14	0.466714359819889	2	1	1	NaN	1	4	0.0424599998153977	0	1	NaN	345	6	30	2	120	220	320	NaN	520	0.152330229058862	2	0	NaN	4831665.2159288	NaN	4831666.1995011	4831666.71602717
42	19	0	0	90	36.1581920903955	36.241610738255	6	0.20002043992281	2	2	1	NaN	1	3	0.0424599998153977	0	1	NaN	346	6	31	2	120	220	320	NaN	520	0.01040527690202	1	1	NaN	4831667.8996424	NaN	4831668.883108	4831669.39961682
42	19	0	0	90	36.1581920903955	36.241610738255	17	0.566724579781294	2	12	2	NaN	2	4	0.0424599998153977	0	1	NaN	347	6	32	2	120	220	320	NaN	520	0.0104232234880328	1	0	NaN	4831670.2165517	NaN	4831671.1999666	4831671.71650918
42	19	0	0	90	36.1581920903955	36.241610738255	23	0.766745019704103	2	3	2	NaN	1	3	0.0424599998153977	0	1	NaN	348	6	33	2	120	220	320	NaN	520	0.0985151240602136	1	1	NaN	4831672.7501082	NaN	4831673.7335578	4831674.25009588
42	19	0	0	90	36.1581920903955	36.241610738255	18	0.600061319768429	2	12	4	NaN	2	4	0.0424599998153977	0	1	NaN	349	6	34	2	120	220	320	NaN	520	0.0103947278112173	2	1	NaN	4831675.6670673	NaN	4831676.6505019	4831677.16705197
42	19	0	0	90	36.1581920903955	36.241610738255	6	0.20002043992281	2	5	3	NaN	1	3	0.0424599998153977	0	1	NaN	350	6	35	2	120	220	320	NaN	520	0.368766576051712	1	1	NaN	4831677.9838775	NaN	4831678.9674098	4831679.48395312
42	19	0	0	90	36.1581920903955	36.241610738255	22	0.733408279716969	2	11	2	NaN	2	5	0.0424599998153977	0	1	NaN	351	6	36	2	120	220	320	NaN	520	0.010439976118505	2	1	NaN	4831680.6675896	NaN	4831681.6510064	4831682.16754842
42	19	0	0	90	36.1581920903955	36.241610738255	24	0.800081759691238	2	4	2	NaN	1	4	0.0424599998153977	0	1	NaN	352	6	37	2	120	220	320	NaN	520	0.0800500754266977	1	1	NaN	4831682.9845075	NaN	4831683.9678946	4831684.48443462
42	19	0	0	90	36.1581920903955	36.241610738255	8	0.266693919897079	2	12	3	NaN	2	5	0.0424599998153977	0	1	NaN	353	6	38	2	120	220	320	NaN	520	0.0104078762233257	2	1	NaN	4831685.5847578	NaN	4831686.5681694	4831687.08469892
42	19	0	0	90	36.1581920903955	36.241610738255	13	0.433377619832754	2	12	5	NaN	2	3	0.0424599998153977	0	1	NaN	354	6	39	2	120	220	320	NaN	520	0.266650876030326	2	1	NaN	4831688.1016181	NaN	4831689.0850686	4831689.60160642
42	19	0	0	90	36.1581920903955	36.241610738255	17	0.566724579781294	2	7	5	NaN	2	5	0.0424599998153977	0	1	NaN	355	6	40	2	120	220	320	NaN	520	0.232162923552096	2	1	NaN	4831691.5686464	NaN	4831692.5520681	4831693.06861178
42	19	0	0	90	36.1581920903955	36.241610738255	21	0.700071539729834	2	3	3	NaN	1	4	0.0424599998153977	0	1	NaN	356	6	41	2	120	220	320	NaN	520	0.686627975665033	1	1	NaN	4831694.4021384	NaN	4831695.3856817	4831695.90222212
42	19	0	0	90	36.1581920903955	36.241610738255	7	0.233357179909945	2	5	6	NaN	1	4	0.0424599998153977	0	1	NaN	357	6	42	2	120	220	320	NaN	520	0.266747076064348	1	1	NaN	4831697.8859653	NaN	4831698.8693601	4831699.38591012
42	19	0	0	90	36.1581920903955	36.241610738255	6	0.20002043992281	2	12	6	NaN	2	3	0.0424599998153977	0	1	NaN	358	6	43	2	120	220	320	NaN	520	0.37132487539202	2	1	NaN	4831700.6695735	NaN	4831701.6529645	4831702.16950932
42	19	0	0	90	36.1581920903955	36.241610738255	10	0.333367399871349	2	6	6	NaN	1	4	0.0424599998153977	0	1	NaN	359	6	44	2	120	220	320	NaN	520	0.094637923873961	1	1	NaN	4831703.5698243	NaN	4831704.5532436	4831705.06979028
42	19	0	0	90	36.1581920903955	36.241610738255	16	0.533387839794159	2	6	2	NaN	1	4	0.0424599998153977	0	1	NaN	360	6	45	2	120	220	320	NaN	520	0.68560747615993	1	1	NaN	4831706.1867486	NaN	4831707.1701644	4831707.68672262
42	19	0	0	90	36.1581920903955	36.241610738255	19	0.633398059755564	2	2	3	NaN	1	5	0.0424599998153977	0	1	NaN	361	6	46	2	120	220	320	NaN	520	0.0104459235444665	1	1	NaN	4831709.4536341	NaN	4831710.4371543	4831710.95370208
42	19	0	0	90	36.1581920903955	36.241610738255	7	0.233357179909945	2	7	4	NaN	2	4	0.0424599998153977	0	1	NaN	362	6	47	2	120	220	320	NaN	520	0.172548524104059	2	1	NaN	4831712.0039802	NaN	4831712.9874151	4831713.50395968
42	19	0	0	90	36.1581920903955	36.241610738255	9	0.300030659884214	2	2	6	NaN	1	3	0.0424599998153977	0	1	NaN	363	6	48	2	120	220	320	NaN	520	0.258610075339675	2	0	NaN	4831714.8542655	NaN	4831715.8376939	4831716.35424352
42	19	0	0	90	36.1581920903955	36.241610738255	12	0.400040879845619	2	1	1	NaN	1	3	0.0424599998153977	0	1	NaN	364	6	49	2	120	220	320	NaN	520	0.179119324311614	1	1	NaN	4831717.62121	NaN	4831718.6046688	4831719.12117528
42	19	0	0	90	36.1581920903955	36.241610738255	14	0.466714359819889	2	4	6	NaN	1	5	0.0424599998153977	0	1	NaN	365	6	50	2	120	220	320	NaN	520	0.0104207238182425	1	1	NaN	4831720.3715245	NaN	4831721.3549004	4831721.87144368
42	19	0	0	90	36.1581920903955	36.241610738255	12	0.400040879845619	2	3	5	NaN	1	3	0.0424599998153977	0	1	NaN	366	6	51	2	120	220	320	NaN	520	0.0103988274931908	1	1	NaN	4831722.6884043	NaN	4831723.6718072	4831724.18834577
42	19	0	0	90	36.1581920903955	36.241610738255	8	0.266693919897079	2	2	6	NaN	1	5	0.0424599998153977	0	1	NaN	367	6	52	2	120	220	320	NaN	520	0.291339423507452	1	1	NaN	4831725.005162	NaN	4831725.9887279	4831726.50523258
42	19	0	0	90	36.1581920903955	36.241610738255	0	0	1	11	5	NaN	2	4	0.0424599998153977	0	1	NaN	368	6	53	2	110	210	310	NaN	510	0.299376623705029	2	1	NaN	4831727.6054665	NaN	4831728.5889512	4831729.10550058
42	19	0	0	90	36.1581920903955	36.241610738255	17	0.566724579781294	2	11	4	NaN	2	5	0.0424599998153977	0	1	NaN	369	6	54	2	120	220	320	NaN	520	0.282264875248075	1	0	NaN	4831730.2224103	NaN	4831731.2059442	4831731.72241662
42	19	0	0	90	36.1581920903955	36.241610738255	0	0	1	6	4	NaN	1	4	0.0424599998153977	0	1	NaN	370	6	55	2	110	210	310	NaN	510	4.46910377591848	2	0	NaN	4831733.1394132	NaN	4831734.1228225	4831734.63937522
42	19	0	0	90	36.1581920903955	36.241610738255	6	0.20002043992281	2	6	2	NaN	1	4	0.0424599998153977	0	1	NaN	371	6	56	2	120	220	320	NaN	520	0.195831376127899	1	1	NaN	4831740.1567946	NaN	4831741.1401865	4831741.65672732
42	19	0	0	90	36.1581920903955	36.241610738255	6	0.20002043992281	2	12	1	NaN	2	5	0.0424599998153977	0	1	NaN	372	6	57	2	120	220	320	NaN	520	3.93327597621828	2	1	NaN	4831743.107044	NaN	4831744.0904847	4831744.60702652
42	19	0	0	90	36.1581920903955	36.241610738255	9	0.300030659884214	2	5	1	NaN	1	5	0.0424599998153977	0	1	NaN	373	6	58	2	120	220	320	NaN	520	0.0104082757607102	1	1	NaN	4831749.5909142	NaN	4831750.5744411	4831751.09099092
42	19	0	0	90	36.1581920903955	36.241610738255	24	0.800081759691238	2	7	5	NaN	2	3	0.0424599998153977	0	1	NaN	374	6	59	2	120	220	320	NaN	520	0.0104091754183173	2	1	NaN	4831752.1412661	NaN	4831753.124701	4831753.64124292
42	19	0	0	90	36.1581920903955	36.241610738255	24	0.800081759691238	2	6	6	NaN	1	3	0.0424599998153977	0	1	NaN	375	6	60	2	120	220	320	NaN	520	0.0104320244863629	2	0	NaN	4831754.4581803	NaN	4831755.4415924	4831755.95813538
42	19	0	0	90	36.1581920903955	36.241610738255	17	0.566724579781294	2	9	1	NaN	2	3	0.0424599998153977	0	1	NaN	376	6	61	2	120	220	320	NaN	520	0.480794276110828	2	1	NaN	4831756.7917481	NaN	4831757.7751533	4831758.29169262
42	19	0	0	90	36.1581920903955	36.241610738255	6	0.20002043992281	2	4	2	NaN	1	5	0.0424599998153977	0	1	NaN	377	6	62	2	120	220	320	NaN	520	0.27413307595998	1	1	NaN	4831759.9587081	NaN	4831760.9421116	4831761.45866942
42	19	0	0	90	36.1581920903955	36.241610738255	10	0.333367399871349	2	1	2	NaN	1	3	0.0424599998153977	0	1	NaN	378	6	63	2	120	220	320	NaN	520	0.0104102762416005	1	1	NaN	4831762.7756492	NaN	4831763.7590814	4831764.27561962
42	19	0	0	90	36.1581920903955	36.241610738255	11	0.366704139858484	2	1	4	NaN	1	4	0.0424599998153977	0	1	NaN	379	7	1	2	120	220	320	NaN	520	0.644501823931932	1	1	NaN	4831776.6603399	NaN	4831777.6437753	4831778.16032498
42	19	0	0	90	36.1581920903955	36.241610738255	10	0.333367399871349	2	12	1	NaN	2	5	0.0424599998153977	0	1	NaN	380	7	2	2	120	220	320	NaN	520	0.213894875720143	2	1	NaN	4831779.8106843	NaN	4831780.7941042	4831781.31063172
42	19	0	0	90	36.1581920903955	36.241610738255	9	0.300030659884214	2	2	6	NaN	1	4	0.0424599998153977	0	1	NaN	381	7	3	2	120	220	320	NaN	520	0.112980776466429	1	1	NaN	4831782.5274949	NaN	4831783.5110121	4831784.02756422
42	19	0	0	90	36.1581920903955	36.241610738255	15	0.500051099807024	2	3	5	NaN	1	4	0.0424599998153977	0	1	NaN	382	7	4	2	120	220	320	NaN	520	0.0104255238547921	1	1	NaN	4831784.9611203	NaN	4831785.9446137	4831786.46112908
42	19	0	0	90	36.1581920903955	36.241610738255	16	0.533387839794159	2	8	3	NaN	2	5	0.0424599998153977	0	1	NaN	383	7	5	2	120	220	320	NaN	520	1.092918375507	2	1	NaN	4831787.6280864	NaN	4831788.611425	4831789.12807022
42	19	0	0	90	36.1581920903955	36.241610738255	0	0	1	2	3	NaN	1	3	0.0424599998153977	0	1	NaN	384	7	6	2	110	210	310	NaN	510	0.0103742796927691	1	1	NaN	4831791.2118393	NaN	4831792.1951954	4831792.71174762
42	19	0	0	90	36.1581920903955	36.241610738255	6	0.20002043992281	2	9	1	NaN	2	5	0.0424599998153977	0	1	NaN	385	7	7	2	120	220	320	NaN	520	0.407312975265086	2	1	NaN	4831793.5453856	NaN	4831794.5287702	4831795.04531262
42	19	0	0	90	36.1581920903955	36.241610738255	13	0.433377619832754	2	1	4	NaN	1	4	0.0424599998153977	0	1	NaN	386	7	8	2	120	220	320	NaN	520	1.2736189244315	1	1	NaN	4831796.4788527	NaN	4831797.4624001	4831797.97892818
42	19	0	0	90	36.1581920903955	36.241610738255	17	0.566724579781294	2	6	2	NaN	1	4	0.0424599998153977	0	1	NaN	387	7	9	2	120	220	320	NaN	520	0.194289876148105	1	1	NaN	4831800.2626585	NaN	4831801.2460952	4831801.76264652
42	19	0	0	90	36.1581920903955	36.241610738255	10	0.333367399871349	2	12	1	NaN	2	5	0.0424599998153977	0	1	NaN	388	7	10	2	120	220	320	NaN	520	0.302141175605357	1	0	NaN	4831803.1629584	NaN	4831804.1463762	4831804.66292542
42	19	0	0	90	36.1581920903955	36.241610738255	14	0.466714359819889	2	10	3	NaN	2	5	0.0424599998153977	0	1	NaN	389	7	11	2	120	220	320	NaN	520	0.0104187754914165	2	1	NaN	4831806.0799639	NaN	4831807.0633215	4831807.57988142
42	19	0	0	90	36.1581920903955	36.241610738255	17	0.566724579781294	2	7	6	NaN	2	3	0.0424599998153977	0	1	NaN	390	7	12	2	120	220	320	NaN	520	0.0751718757674098	2	1	NaN	4831808.6134889	NaN	4831809.5969111	4831810.11346032
42	19	0	0	90	36.1581920903955	36.241610738255	21	0.700071539729834	2	10	5	NaN	2	5	0.0424599998153977	0	1	NaN	391	7	13	2	120	220	320	NaN	520	0.0104147754609585	1	0	NaN	4831810.9970813	NaN	4831811.9804949	4831812.49703462
42	19	0	0	90	36.1581920903955	36.241610738255	11	0.366704139858484	2	9	3	NaN	2	4	0.0424599998153977	0	1	NaN	392	7	14	2	120	220	320	NaN	520	0.0104036759585142	1	0	NaN	4831813.3139802	NaN	4831814.2973733	4831814.81392452
42	19	0	0	90	36.1581920903955	36.241610738255	20	0.666734799742699	2	4	4	NaN	1	3	0.0424599998153977	0	1	NaN	393	7	15	2	120	220	320	NaN	520	0.0104182763025165	1	1	NaN	4831815.6475454	NaN	4831816.63095	4831817.14748782
42	19	0	0	90	36.1581920903955	36.241610738255	24	0.800081759691238	2	8	3	NaN	2	3	0.0424599998153977	0	1	NaN	394	7	16	2	120	220	320	NaN	520	0.108364876359701	2	1	NaN	4831817.9644266	NaN	4831818.9478484	4831819.46438562
42	19	0	0	90	36.1581920903955	36.241610738255	19	0.633398059755564	2	10	3	NaN	2	4	0.0424599998153977	0	1	NaN	395	7	17	2	120	220	320	NaN	520	0.0104062762111425	1	0	NaN	4831820.3812096	NaN	4831821.3647621	4831821.88128952
42	19	0	0	90	36.1581920903955	36.241610738255	7	0.233357179909945	2	9	3	NaN	2	3	0.0424599998153977	0	1	NaN	396	7	18	2	120	220	320	NaN	520	0.0541498232632875	1	0	NaN	4831822.6982267	NaN	4831823.6816378	4831824.19819218
42	19	0	0	90	36.1581920903955	36.241610738255	16	0.533387839794159	2	2	5	NaN	1	5	0.0424599998153977	0	1	NaN	397	7	19	2	120	220	320	NaN	520	0.11165198776871	2	0	NaN	4831825.0651293	NaN	4831826.0485074	4831826.56508101
42	19	0	0	90	36.1581920903955	36.241610738255	15	0.500051099807024	2	1	5	NaN	1	5	0.0424599998153977	0	1	NaN	398	7	20	2	120	220	320	NaN	520	0.0104086762294173	1	1	NaN	4831827.4820359	NaN	4831828.4654349	4831828.98198572
42	19	0	0	90	36.1581920903955	36.241610738255	17	0.566724579781294	2	11	2	NaN	2	5	0.0424599998153977	0	1	NaN	399	7	21	2	120	220	320	NaN	520	0.0104082766920328	2	1	NaN	4831829.7988129	NaN	4831830.7823604	4831831.29888062
42	19	0	0	90	36.1581920903955	36.241610738255	22	0.733408279716969	2	5	4	NaN	1	4	0.0424599998153977	0	1	NaN	400	7	22	2	120	220	320	NaN	520	0.956481675617397	2	0	NaN	4831832.1324979	NaN	4831833.115891	4831833.63243732
42	19	0	0	90	36.1581920903955	36.241610738255	22	0.733408279716969	2	5	1	NaN	1	5	0.0424599998153977	0	1	NaN	401	7	23	2	120	220	320	NaN	520	0.010401975363493	2	0	NaN	4831835.3994749	NaN	4831836.3828796	4831836.89942582
42	19	0	0	90	36.1581920903955	36.241610738255	22	0.733408279716969	2	4	4	NaN	1	4	0.0424599998153977	0	1	NaN	402	7	24	2	120	220	320	NaN	520	0.0104229236021638	2	0	NaN	4831837.716471	NaN	4831838.6997752	4831839.21632618
42	19	0	0	90	36.1581920903955	36.241610738255	6	0.20002043992281	2	8	3	NaN	2	5	0.0424599998153977	0	1	NaN	403	7	25	2	120	220	320	NaN	520	0.0104121761396527	1	0	NaN	4831840.0331481	NaN	4831841.0166726	4831841.53322612
42	19	0	0	90	36.1581920903955	36.241610738255	18	0.600061319768429	2	8	6	NaN	2	5	0.0424599998153977	0	1	NaN	404	7	26	2	120	220	320	NaN	520	0.0104088764637709	1	0	NaN	4831842.3668595	NaN	4831843.3502282	4831843.86678942
42	19	0	0	90	36.1581920903955	36.241610738255	9	0.300030659884214	2	9	2	NaN	2	5	0.0424599998153977	0	1	NaN	405	7	27	2	120	220	320	NaN	520	1.38749227579683	2	1	NaN	4831844.91667	NaN	4831845.9004719	4831846.41703762
42	19	0	0	90	36.1581920903955	36.241610738255	23	0.766745019704103	2	9	4	NaN	2	5	0.0424599998153977	0	1	NaN	406	7	28	2	120	220	320	NaN	520	0.598627092316747	2	1	NaN	4831849.0340973	NaN	4831850.0175513	4831850.53410331
42	19	0	0	90	36.1581920903955	36.241610738255	7	0.233357179909945	2	5	5	NaN	1	5	0.0424599998153977	0	1	NaN	407	7	29	2	120	220	320	NaN	520	0.0104072755202651	1	1	NaN	4831851.9511162	NaN	4831852.9345185	4831853.45106402
42	19	0	0	90	36.1581920903955	36.241610738255	23	0.766745019704103	2	12	5	NaN	2	3	0.0424599998153977	0	1	NaN	408	7	30	2	120	220	320	NaN	520	0.0104458713904023	2	1	NaN	4831854.2678633	NaN	4831855.2514047	4831855.76794623
42	19	0	0	90	36.1581920903955	36.241610738255	8	0.266693919897079	2	7	4	NaN	2	3	0.0424599998153977	0	1	NaN	409	7	31	2	120	220	320	NaN	520	0.942770771682262	1	0	NaN	4831856.8182272	NaN	4831857.8016591	4831858.31820623
42	19	0	0	90	36.1581920903955	36.241610738255	6	0.20002043992281	2	10	1	NaN	2	4	0.0424599998153977	0	1	NaN	410	7	32	2	120	220	320	NaN	520	0.0104207238182425	2	1	NaN	4831860.0852499	NaN	4831861.0686369	4831861.58518468
42	19	0	0	90	36.1581920903955	36.241610738255	12	0.400040879845619	2	5	5	NaN	1	3	0.0424599998153977	0	1	NaN	411	7	33	2	120	220	320	NaN	520	1.36687987670302	1	1	NaN	4831862.402127	NaN	4831863.3855312	4831863.90208642
42	19	0	0	90	36.1581920903955	36.241610738255	15	0.500051099807024	2	12	3	NaN	2	5	0.0424599998153977	0	1	NaN	412	7	34	2	120	220	320	NaN	520	0.234985023736954	2	1	NaN	4831866.0858516	NaN	4831867.069234	4831867.58578848
42	19	0	0	90	36.1581920903955	36.241610738255	13	0.433377619832754	2	5	3	NaN	1	5	0.0424599998153977	0	1	NaN	413	7	35	2	120	220	320	NaN	520	0.0104166753590107	1	1	NaN	4831868.6361074	NaN	4831869.6194919	4831870.13603232
42	19	0	0	90	36.1581920903955	36.241610738255	0	0	1	11	6	NaN	2	5	0.0424599998153977	0	1	NaN	414	7	36	2	110	210	310	NaN	510	0.0104210767894983	2	1	NaN	4831870.953021	NaN	4831871.9363719	4831872.45292822
42	19	0	0	90	36.1581920903955	36.241610738255	18	0.600061319768429	2	9	1	NaN	2	5	0.0424599998153977	0	1	NaN	415	7	37	2	120	220	320	NaN	520	0.178953776136041	2	1	NaN	4831873.2699667	NaN	4831874.253275	4831874.76982192
42	19	0	0	90	36.1581920903955	36.241610738255	24	0.800081759691238	2	1	5	NaN	1	3	0.0424599998153977	0	1	NaN	416	7	38	2	120	220	320	NaN	520	0.0104234237223864	2	0	NaN	4831876.1534727	NaN	4831877.1368831	4831877.65343708
42	19	0	0	90	36.1581920903955	36.241610738255	18	0.600061319768429	2	8	1	NaN	2	4	0.0424599998153977	0	1	NaN	417	7	39	2	120	220	320	NaN	520	0.618763975799084	1	0	NaN	4831878.4703223	NaN	4831879.4537955	4831879.97033352
42	19	0	0	90	36.1581920903955	36.241610738255	0	0	1	9	6	NaN	2	4	0.0424599998153977	0	1	NaN	418	7	40	2	110	210	310	NaN	510	0.0927485758438706	2	1	NaN	4831881.6040043	NaN	4831882.5874234	4831883.10397562
42	19	0	0	90	36.1581920903955	36.241610738255	13	0.433377619832754	2	7	5	NaN	2	5	0.0424599998153977	0	1	NaN	419	7	41	2	120	220	320	NaN	520	0.484639476053417	2	1	NaN	4831884.0041726	NaN	4831884.9876747	4831885.50420772
42	19	0	0	90	36.1581920903955	36.241610738255	16	0.533387839794159	2	3	2	NaN	1	3	0.0424599998153977	0	1	NaN	420	7	42	2	120	220	320	NaN	520	0.0104133766144514	1	1	NaN	4831887.0712092	NaN	4831888.0546134	4831888.57118632
42	19	0	0	90	36.1581920903955	36.241610738255	23	0.766745019704103	2	7	2	NaN	2	3	0.0424599998153977	0	1	NaN	421	7	43	2	120	220	320	NaN	520	0.010418675839901	2	1	NaN	4831889.5881765	NaN	4831890.5715441	4831891.08809772
42	19	0	0	90	36.1581920903955	36.241610738255	0	0	1	4	5	NaN	1	5	0.0424599998153977	0	1	NaN	422	7	44	2	110	210	310	NaN	510	0.415350075811148	1	1	NaN	4831892.1217247	NaN	4831893.1051248	4831893.62167912
42	19	0	0	90	36.1581920903955	36.241610738255	14	0.466714359819889	2	7	2	NaN	2	5	0.0424599998153977	0	1	NaN	423	7	45	2	120	220	320	NaN	520	0.177454075776041	2	1	NaN	4831895.2553031	NaN	4831896.2387735	4831896.75531862
42	19	0	0	90	36.1581920903955	36.241610738255	11	0.366704139858484	2	7	4	NaN	2	5	0.0424599998153977	0	1	NaN	424	7	46	2	120	220	320	NaN	520	0.0103924283757806	1	0	NaN	4831897.8555259	NaN	4831898.8390164	4831899.35558087
42	19	0	0	90	36.1581920903955	36.241610738255	22	0.733408279716969	2	3	1	NaN	1	3	0.0424599998153977	0	1	NaN	425	7	47	2	120	220	320	NaN	520	0.0104093756526709	2	0	NaN	4831900.3891825	NaN	4831901.3725008	4831901.88915412
42	19	0	0	90	36.1581920903955	36.241610738255	12	0.400040879845619	2	6	4	NaN	1	3	0.0424599998153977	0	1	NaN	426	7	48	2	120	220	320	NaN	520	0.0104090757668018	2	0	NaN	4831902.8726732	NaN	4831903.8561834	4831904.37273812
42	19	0	0	90	36.1581920903955	36.241610738255	22	0.733408279716969	2	10	6	NaN	2	4	0.0424599998153977	0	1	NaN	427	7	49	2	120	220	320	NaN	520	0.01040577609092	2	1	NaN	4831905.4063669	NaN	4831906.3897698	4831906.90632282
42	19	0	0	90	36.1581920903955	36.241610738255	18	0.600061319768429	2	5	4	NaN	1	4	0.0424599998153977	0	1	NaN	428	7	50	2	120	220	320	NaN	520	1.16646172385663	1	1	NaN	4831907.9066156	NaN	4831908.8900156	4831909.40655408
42	19	0	0	90	36.1581920903955	36.241610738255	9	0.300030659884214	2	11	4	NaN	2	3	0.0424599998153977	0	1	NaN	429	7	51	2	120	220	320	NaN	520	0.570840675383806	2	1	NaN	4831911.3902803	NaN	4831912.3736944	4831912.89023482
42	19	0	0	90	36.1581920903955	36.241610738255	21	0.700071539729834	2	5	4	NaN	1	3	0.0424599998153977	0	1	NaN	430	7	52	2	120	220	320	NaN	520	0.290079723112285	1	1	NaN	4831914.5906009	NaN	4831915.5741057	4831916.09054948
42	19	0	0	90	36.1581920903955	36.241610738255	7	0.233357179909945	2	7	3	NaN	2	3	0.0424599998153977	0	1	NaN	431	7	53	2	120	220	320	NaN	520	0.594207075424492	2	1	NaN	4831917.3908478	NaN	4831918.3742871	4831918.89082762
42	19	0	0	90	36.1581920903955	36.241610738255	14	0.466714359819889	2	9	2	NaN	2	3	0.0424599998153977	0	1	NaN	432	7	54	2	120	220	320	NaN	520	0.318398076109588	1	0	NaN	4831921.0745783	NaN	4831922.0580226	4831922.57451962
42	19	0	0	90	36.1581920903955	36.241610738255	13	0.433377619832754	2	8	4	NaN	2	5	0.0424599998153977	0	1	NaN	433	7	55	2	120	220	320	NaN	520	0.324872176162899	1	0	NaN	4831923.9081598	NaN	4831924.8915947	4831925.40813052
42	19	0	0	90	36.1581920903955	36.241610738255	15	0.500051099807024	2	4	2	NaN	1	5	0.0424599998153977	0	1	NaN	434	7	56	2	120	220	320	NaN	520	0.161750376224518	1	1	NaN	4831926.7751142	NaN	4831927.7585298	4831928.27507822
42	19	0	0	90	36.1581920903955	36.241610738255	23	0.766745019704103	2	10	3	NaN	2	5	0.0424599998153977	0	1	NaN	435	7	57	2	120	220	320	NaN	520	0.334118275903165	2	1	NaN	4831929.4587006	NaN	4831930.4421369	4831930.95868062
42	19	0	0	90	36.1581920903955	36.241610738255	21	0.700071539729834	2	11	5	NaN	2	5	0.0424599998153977	0	1	NaN	436	7	58	2	120	220	320	NaN	520	0.371848528273404	1	0	NaN	4831932.3090119	NaN	4831933.2924263	4831933.80896277
42	19	0	0	90	36.1581920903955	36.241610738255	17	0.566724579781294	2	5	1	NaN	1	4	0.0424599998153977	0	1	NaN	437	7	59	2	120	220	320	NaN	520	0.109537276439369	2	0	NaN	4831935.4593052	NaN	4831936.4427274	4831936.95926842
42	19	0	0	90	36.1581920903955	36.241610738255	15	0.500051099807024	2	3	6	NaN	1	5	0.0424599998153977	0	1	NaN	438	7	60	2	120	220	320	NaN	520	0.412961171939969	1	1	NaN	4831937.8763284	NaN	4831938.8596699	4831939.37617043
42	19	0	0	90	36.1581920903955	36.241610738255	19	0.633398059755564	2	9	6	NaN	2	3	0.0424599998153977	0	1	NaN	439	7	61	2	120	220	320	NaN	520	0.172386575490236	2	1	NaN	4831941.0765527	NaN	4831942.0599445	4831942.57648602
42	19	0	0	90	36.1581920903955	36.241610738255	6	0.20002043992281	2	8	3	NaN	2	3	0.0424599998153977	0	1	NaN	440	7	62	2	120	220	320	NaN	520	0.137659124098718	1	0	NaN	4831943.7434531	NaN	4831944.7268836	4831945.24341488
42	19	0	0	90	36.1581920903955	36.241610738255	24	0.800081759691238	2	2	6	NaN	1	3	0.0424599998153977	0	1	NaN	441	7	63	2	120	220	320	NaN	520	0.222948075272143	2	0	NaN	4831946.3937475	NaN	4831947.3771229	4831947.89367912
42	19	0	0	90	36.1581920903955	36.241610738255	19	0.633398059755564	2	7	4	NaN	2	5	0.0424599998153977	0	1	NaN	442	8	1	2	120	220	320	NaN	520	0.591159275732934	2	1	NaN	4831955.9780288	NaN	4831956.9614141	4831957.47795632
42	19	0	0	90	36.1581920903955	36.241610738255	12	0.400040879845619	2	3	6	NaN	1	4	0.0424599998153977	0	1	NaN	443	8	2	2	120	220	320	NaN	520	0.218598728068173	1	1	NaN	4831958.8782882	NaN	4831959.8617061	4831960.37824307
42	19	0	0	90	36.1581920903955	36.241610738255	22	0.733408279716969	2	12	1	NaN	2	5	0.0424599998153977	0	1	NaN	444	8	3	2	120	220	320	NaN	520	1.54095732793212	2	1	NaN	4831961.4118732	NaN	4831962.3952766	4831962.91182847
42	19	0	0	90	36.1581920903955	36.241610738255	20	0.666734799742699	2	7	1	NaN	2	5	0.0424599998153977	0	1	NaN	445	8	4	2	120	220	320	NaN	520	0.306004475802183	1	0	NaN	4831965.4788921	NaN	4831966.46235	4831966.97889172
42	19	0	0	90	36.1581920903955	36.241610738255	23	0.766745019704103	2	5	3	NaN	1	5	0.0424599998153977	0	1	NaN	446	8	5	2	120	220	320	NaN	520	0.24528237618506	2	0	NaN	4831968.3957876	NaN	4831969.3792999	4831969.89584242
42	19	0	0	90	36.1581920903955	36.241610738255	6	0.20002043992281	2	6	4	NaN	1	5	0.0424599998153977	0	1	NaN	447	8	6	2	120	220	320	NaN	520	0.210403075441718	1	1	NaN	4831971.2627889	NaN	4831972.2462625	4831972.76279802
42	19	0	0	90	36.1581920903955	36.241610738255	17	0.566724579781294	2	1	2	NaN	1	3	0.0424599998153977	0	1	NaN	448	8	7	2	120	220	320	NaN	520	0.541430576704443	1	1	NaN	4831973.7796424	NaN	4831974.7631631	4831975.27970762
42	19	0	0	90	36.1581920903955	36.241610738255	13	0.433377619832754	2	2	1	NaN	1	5	0.0424599998153977	0	1	NaN	449	8	8	2	120	220	320	NaN	520	0.912868523970246	1	1	NaN	4831977.0800688	NaN	4831978.0634821	4831978.58002458
42	19	0	0	90	36.1581920903955	36.241610738255	16	0.533387839794159	2	5	1	NaN	1	4	0.0424599998153977	0	1	NaN	450	8	9	2	120	220	320	NaN	520	0.360181176103652	1	1	NaN	4831980.2969389	NaN	4831981.2804711	4831981.79701412
42	19	0	0	90	36.1581920903955	36.241610738255	11	0.366704139858484	2	6	1	NaN	1	5	0.0424599998153977	0	1	NaN	451	8	10	2	120	220	320	NaN	520	0.0104073761031032	2	0	NaN	4831983.3140262	NaN	4831984.2974331	4831984.81397172
42	19	0	0	90	36.1581920903955	36.241610738255	7	0.233357179909945	2	11	5	NaN	2	4	0.0424599998153977	0	1	NaN	452	8	11	2	120	220	320	NaN	520	0.314355676062405	2	1	NaN	4831985.8309113	NaN	4831986.8144056	4831987.33089112
42	19	0	0	90	36.1581920903955	36.241610738255	20	0.666734799742699	2	11	3	NaN	2	5	0.0424599998153977	0	1	NaN	453	8	12	2	120	220	320	NaN	520	0.0104076759889722	2	1	NaN	4831988.814581	NaN	4831989.7979649	4831990.31452312
42	19	0	0	90	36.1581920903955	36.241610738255	22	0.733408279716969	2	3	3	NaN	1	5	0.0424599998153977	0	1	NaN	454	8	13	2	120	220	320	NaN	520	0.299394575878978	1	1	NaN	4831991.38137	NaN	4831992.3649065	4831992.88143682
42	19	0	0	90	36.1581920903955	36.241610738255	6	0.20002043992281	2	7	3	NaN	2	4	0.0424599998153977	0	1	NaN	455	8	14	2	120	220	320	NaN	520	0.0393441235646605	2	1	NaN	4831994.4817719	NaN	4831995.4651923	4831995.98173688
42	19	0	0	90	36.1581920903955	36.241610738255	17	0.566724579781294	2	2	6	NaN	1	3	0.0424599998153977	0	1	NaN	456	8	15	2	120	220	320	NaN	520	1.36885762400925	2	0	NaN	4831996.832036	NaN	4831997.8153991	4831998.33196598
42	19	0	0	90	36.1581920903955	36.241610738255	25	0.833418499678373	2	6	1	NaN	1	3	0.0424599998153977	0	1	NaN	457	8	16	2	120	220	320	NaN	520	0.35867587570101	1	1	NaN	4832000.8824061	NaN	4832001.8658199	4832002.38236832
