subjno	age	gender	isPractice	viewdist	CmToPixX	CmToPixY	SOA_frm	SOA_time	targNum	targID	targExample	targRace	targGender	firstTargPos	contrast	familiarity	curr_staircase	iStair	TrialNum	BlockNum	blktrl	sessionNum	TC_FIXATION	TC_RSVP_START	TC_RSVP_END	TC_BLANK	TC_RESPONSE_ONSET	RT2afc	resp_2afc	acc	RSVPOnsetVBL	RSVPOnsetTime	RSVPOffsetVBL	RSVPOffsetTime	startrt_2afc
101	21	0	0	90	36.1581920903955	36.241610738255	8	0.266692447960377	2	4	2	NaN	1	4	0.0305027806128239	0	1	NaN	1	1	1	1	120	220	320	NaN	520	0.865948080085218	2	0	NaN	4558112.1322462	NaN	4558113.1154834	4558113.64855092
101	21	0	0	90	36.1581920903955	36.241610738255	16	0.533384895920753	2	10	3	NaN	2	5	0.0305027806128239	0	1	NaN	2	1	2	1	120	220	320	NaN	520	1.69477096199989	2	1	NaN	4558115.59911	NaN	4558116.5824463	4558117.11555134
101	21	0	0	90	36.1581920903955	36.241610738255	6	0.200019335970283	2	2	5	NaN	1	4	0.0305027806128239	0	1	NaN	3	1	3	1	120	220	320	NaN	520	0.509195218794048	2	0	NaN	4558119.632686	NaN	4558120.616076	4558121.13262868
101	21	0	0	90	36.1581920903955	36.241610738255	12	0.400038671940565	2	12	6	NaN	2	3	0.0305027806128239	0	1	NaN	4	1	4	1	120	220	320	NaN	520	1.83614192716777	2	1	NaN	4558122.4662871	NaN	4558123.4497203	4558123.96623447
101	21	0	0	90	36.1581920903955	36.241610738255	0	0	1	8	3	NaN	2	5	0.0305027806128239	0	1	NaN	5	1	5	1	110	210	310	NaN	510	1.11058137472719	1	0	NaN	4558126.7833903	NaN	4558127.7667783	4558128.28332472
101	21	0	0	90	36.1581920903955	36.241610738255	9	0.300029003955424	2	11	5	NaN	2	4	0.0305027806128239	0	1	NaN	6	1	6	1	120	220	320	NaN	520	2.58088937588036	1	0	NaN	4558130.2170486	NaN	4558131.2004586	4558131.71700132
101	21	0	0	90	36.1581920903955	36.241610738255	24	0.80007734388113	2	10	3	NaN	2	5	0.0305027806128239	0	1	NaN	7	1	7	1	120	220	320	NaN	520	1.40783587563783	2	1	NaN	4558135.1341998	NaN	4558136.1176071	4558136.63415402
101	21	0	0	90	36.1581920903955	36.241610738255	18	0.600058007910848	2	9	4	NaN	2	3	0.0305027806128239	0	1	NaN	8	1	8	1	120	220	320	NaN	520	2.24427762348205	1	0	NaN	4558139.0178914	NaN	4558140.0013172	4558140.51786398
101	21	0	0	90	36.1581920903955	36.241610738255	25	0.833413899876177	2	3	5	NaN	1	4	0.0305027806128239	0	1	NaN	9	1	9	1	120	220	320	NaN	520	0.508930423296988	1	1	NaN	4558143.5850386	NaN	4558144.5684371	4558145.08497878
101	21	0	0	90	36.1581920903955	36.241610738255	14	0.466711783930659	2	5	4	NaN	1	4	0.0305027806128239	0	1	NaN	10	1	10	1	120	220	320	NaN	520	0.987560975365341	1	1	NaN	4558146.4186614	NaN	4558147.4020491	4558147.91859072
101	21	0	0	90	36.1581920903955	36.241610738255	19	0.633394563905895	2	3	3	NaN	1	4	0.0305027806128239	0	1	NaN	11	1	11	1	120	220	320	NaN	520	0.606648875400424	1	1	NaN	4558149.7356468	NaN	4558150.7190422	4558151.23559052
101	21	0	0	90	36.1581920903955	36.241610738255	0	0	1	8	3	NaN	2	5	0.0305027806128239	0	1	NaN	12	1	12	1	110	210	310	NaN	510	1.17776157520711	1	0	NaN	4558152.6526007	NaN	4558153.6360024	4558154.15254463
101	21	0	0	90	36.1581920903955	36.241610738255	24	0.80007734388113	2	7	5	NaN	2	3	0.0305027806128239	0	1	NaN	13	1	13	1	120	220	320	NaN	520	0.261695074848831	2	1	NaN	4558156.136266	NaN	4558157.1197141	4558157.63622263
101	21	0	0	90	36.1581920903955	36.241610738255	22	0.733404231891036	2	1	1	NaN	1	3	0.0305027806128239	0	1	NaN	14	1	14	1	120	220	320	NaN	520	0.246207075193524	1	1	NaN	4558158.7199427	NaN	4558159.7032572	4558160.21980303
101	21	0	0	90	36.1581920903955	36.241610738255	20	0.666731119900942	2	2	1	NaN	1	5	0.0305027806128239	0	1	NaN	15	1	15	1	120	220	320	NaN	520	1.8151814751327	2	0	NaN	4558161.2867712	NaN	4558162.2701788	4558162.78672952
101	21	0	0	90	36.1581920903955	36.241610738255	10	0.333365559950471	2	7	4	NaN	2	5	0.0305027806128239	0	1	NaN	16	1	16	1	120	220	320	NaN	520	0.497739775106311	2	1	NaN	4558165.4205147	NaN	4558166.4039117	4558166.92045943
101	21	0	0	90	36.1581920903955	36.241610738255	10	0.333365559950471	2	8	4	NaN	2	5	0.0305027806128239	0	1	NaN	17	1	17	1	120	220	320	NaN	520	0.999700122512877	2	1	NaN	4558168.6541401	NaN	4558169.6375709	4558170.15412168
101	21	0	0	90	36.1581920903955	36.241610738255	10	0.333365559950471	2	1	1	NaN	1	4	0.0305027806128239	0	1	NaN	18	1	18	1	120	220	320	NaN	520	0.546837827190757	1	1	NaN	4558171.971171	NaN	4558172.9545621	4558173.47111127
101	21	0	0	90	36.1581920903955	36.241610738255	7	0.23335589196533	2	2	2	NaN	1	3	0.0305027806128239	0	1	NaN	19	1	19	1	120	220	320	NaN	520	0.521123723126948	1	1	NaN	4558175.2046842	NaN	4558176.1882081	4558176.70475698
101	21	0	0	90	36.1581920903955	36.241610738255	19	0.633394563905895	2	7	1	NaN	2	5	0.0305027806128239	0	1	NaN	20	1	20	1	120	220	320	NaN	520	0.855597675777972	1	0	NaN	4558178.0384593	NaN	4558179.0218261	4558179.53837692
101	21	0	0	90	36.1581920903955	36.241610738255	7	0.23335589196533	2	12	6	NaN	2	5	0.0305027806128239	0	1	NaN	21	1	21	1	120	220	320	NaN	520	2.98389832302928	1	0	NaN	4558181.2220757	NaN	4558182.2054707	4558182.72202128
101	21	0	0	90	36.1581920903955	36.241610738255	19	0.633394563905895	2	2	4	NaN	1	4	0.0305027806128239	0	1	NaN	22	1	22	1	120	220	320	NaN	520	0.491485174745321	1	1	NaN	4558186.5226043	NaN	4558187.5060055	4558188.02254122
101	21	0	0	90	36.1581920903955	36.241610738255	25	0.833413899876177	2	6	2	NaN	1	5	0.0305027806128239	0	1	NaN	23	1	23	1	120	220	320	NaN	520	0.626837675459683	1	1	NaN	4558189.3395604	NaN	4558190.3229187	4558190.83949152
101	21	0	0	90	36.1581920903955	36.241610738255	20	0.666731119900942	2	1	5	NaN	1	5	0.0305027806128239	0	1	NaN	24	1	24	1	120	220	320	NaN	520	0.580624275840819	2	0	NaN	4558192.289862	NaN	4558193.2732269	4558193.78977412
101	21	0	0	90	36.1581920903955	36.241610738255	23	0.766740787886083	2	3	6	NaN	1	4	0.0305027806128239	0	1	NaN	25	1	25	1	120	220	320	NaN	520	1.24802667554468	2	0	NaN	4558195.1901117	NaN	4558196.1735109	4558196.69006792
101	21	0	0	90	36.1581920903955	36.241610738255	10	0.333365559950471	2	3	2	NaN	1	3	0.0305027806128239	0	1	NaN	26	1	26	1	120	220	320	NaN	520	0.312865323387086	1	1	NaN	4558198.7571312	NaN	4558199.7405284	4558200.25707798
101	21	0	0	90	36.1581920903955	36.241610738255	13	0.433375227935612	2	5	6	NaN	1	5	0.0305027806128239	0	1	NaN	27	1	27	1	120	220	320	NaN	520	0.527807875536382	1	1	NaN	4558201.3907755	NaN	4558202.3740908	4558202.89066732
101	21	0	0	90	36.1581920903955	36.241610738255	22	0.733404231891036	2	2	2	NaN	1	3	0.0305027806128239	0	1	NaN	28	1	28	1	120	220	320	NaN	520	0.341156275011599	1	1	NaN	4558204.2410052	NaN	4558205.2244418	4558205.74094993
101	21	0	0	90	36.1581920903955	36.241610738255	21	0.700067675895989	2	3	2	NaN	1	4	0.0305027806128239	0	1	NaN	29	1	29	1	120	220	320	NaN	520	0.0104059753939509	2	0	NaN	4558206.9079373	NaN	4558207.8913335	4558208.40787902
101	21	0	0	90	36.1581920903955	36.241610738255	7	0.23335589196533	2	1	6	NaN	1	5	0.0305027806128239	0	1	NaN	30	1	30	1	120	220	320	NaN	520	3.78093827515841	2	0	NaN	4558209.2414966	NaN	4558210.2248993	4558210.74144102
101	21	0	0	90	36.1581920903955	36.241610738255	10	0.333365559950471	2	8	5	NaN	2	4	0.0305027806128239	0	1	NaN	31	1	31	1	120	220	320	NaN	520	0.0480114752426744	1	0	NaN	4558215.3420838	NaN	4558216.3255004	4558216.84205202
101	21	0	0	90	36.1581920903955	36.241610738255	8	0.266692447960377	2	8	4	NaN	2	4	0.0305027806128239	0	1	NaN	32	1	32	1	120	220	320	NaN	520	1.25736359134316	2	1	NaN	4558217.7090108	NaN	4558218.6924055	4558219.20894681
101	21	0	0	90	36.1581920903955	36.241610738255	8	0.266692447960377	2	11	5	NaN	2	3	0.0305027806128239	0	1	NaN	33	1	33	1	120	220	320	NaN	520	2.72971402294934	2	1	NaN	4558221.2926002	NaN	4558222.2760801	4558222.79263288
101	21	0	0	90	36.1581920903955	36.241610738255	7	0.23335589196533	2	6	6	NaN	1	5	0.0305027806128239	0	1	NaN	34	1	34	1	120	220	320	NaN	520	0.0104056755080819	1	1	NaN	4558226.3431777	NaN	4558227.3265883	4558227.84312742
101	21	0	0	90	36.1581920903955	36.241610738255	21	0.700067675895989	2	10	6	NaN	2	3	0.0305027806128239	0	1	NaN	35	1	35	1	120	220	320	NaN	520	0.489682470448315	2	1	NaN	4558228.676746	NaN	4558229.6601594	4558230.17669373
101	21	0	0	90	36.1581920903955	36.241610738255	14	0.466711783930659	2	12	2	NaN	2	4	0.0305027806128239	0	1	NaN	36	1	36	1	120	220	320	NaN	520	3.52097597438842	2	1	NaN	4558231.4770258	NaN	4558232.460428	4558232.97696953
101	21	0	0	90	36.1581920903955	36.241610738255	23	0.766740787886083	2	8	5	NaN	2	5	0.0305027806128239	0	1	NaN	37	1	37	1	120	220	320	NaN	520	0.614520475268364	1	0	NaN	4558237.327593	NaN	4558238.3109952	4558238.82754952
101	21	0	0	90	36.1581920903955	36.241610738255	11	0.366702115945518	2	9	1	NaN	2	4	0.0305027806128239	0	1	NaN	38	1	38	1	120	220	320	NaN	520	1.47100752685219	1	0	NaN	4558240.5112047	NaN	4558241.4946404	4558242.01119857
101	21	0	0	90	36.1581920903955	36.241610738255	20	0.666731119900942	2	10	3	NaN	2	3	0.0305027806128239	0	1	NaN	39	1	39	1	120	220	320	NaN	520	0.735238974913955	1	0	NaN	4558244.2949408	NaN	4558245.2783419	4558245.79490053
101	21	0	0	90	36.1581920903955	36.241610738255	23	0.766740787886083	2	5	6	NaN	1	5	0.0305027806128239	0	1	NaN	40	1	40	1	120	220	320	NaN	520	0.779317527078092	1	1	NaN	4558247.9786222	NaN	4558248.9620497	4558249.47859287
101	21	0	0	90	36.1581920903955	36.241610738255	16	0.533384895920753	2	11	3	NaN	2	3	0.0305027806128239	0	1	NaN	41	1	41	1	120	220	320	NaN	520	2.52819612249732	2	1	NaN	4558251.0622666	NaN	4558252.0456785	4558252.56222428
101	21	0	0	90	36.1581920903955	36.241610738255	19	0.633394563905895	2	8	5	NaN	2	3	0.0305027806128239	0	1	NaN	42	1	42	1	120	220	320	NaN	520	2.4699915824458	2	1	NaN	4558255.8960975	NaN	4558256.8794981	4558257.39604352
101	21	0	0	90	36.1581920903955	36.241610738255	12	0.400038671940565	2	11	1	NaN	2	3	0.0305027806128239	0	1	NaN	43	1	43	1	120	220	320	NaN	520	1.59815152268857	2	1	NaN	4558260.679883	NaN	4558261.6631975	4558262.17984158
101	21	0	0	90	36.1581920903955	36.241610738255	6	0.200019335970283	2	5	1	NaN	1	5	0.0305027806128239	0	1	NaN	44	1	44	1	120	220	320	NaN	520	0.601237975992262	1	1	NaN	4558264.5969558	NaN	4558265.5803472	4558266.09689842
101	21	0	0	90	36.1581920903955	36.241610738255	17	0.566721451915801	2	11	5	NaN	2	4	0.0305027806128239	0	1	NaN	45	1	45	1	120	220	320	NaN	520	1.66839032247663	1	0	NaN	4558267.5138994	NaN	4558268.4973007	4558269.01385078
101	21	0	0	90	36.1581920903955	36.241610738255	22	0.733404231891036	2	7	5	NaN	2	3	0.0305027806128239	0	1	NaN	46	1	46	1	120	220	320	NaN	520	0.538469927385449	1	0	NaN	4558271.7476611	NaN	4558272.7310461	4558273.24760117
101	21	0	0	90	36.1581920903955	36.241610738255	23	0.766740787886083	2	12	3	NaN	2	4	0.0305027806128239	0	1	NaN	47	1	47	1	120	220	320	NaN	520	0.720102274790406	1	0	NaN	4558274.5979209	NaN	4558275.5813272	4558276.09788173
101	21	0	0	90	36.1581920903955	36.241610738255	10	0.333365559950471	2	5	3	NaN	1	4	0.0305027806128239	0	1	NaN	48	1	48	1	120	220	320	NaN	520	0.942965975031257	2	0	NaN	4558277.631437	NaN	4558278.6149591	4558279.13151823
101	21	0	0	90	36.1581920903955	36.241610738255	7	0.23335589196533	2	12	1	NaN	2	5	0.0305027806128239	0	1	NaN	49	1	49	1	120	220	320	NaN	520	3.16426557488739	2	1	NaN	4558280.8818754	NaN	4558281.8652816	4558282.38182832
101	21	0	0	90	36.1581920903955	36.241610738255	18	0.600058007910848	2	10	5	NaN	2	3	0.0305027806128239	0	1	NaN	50	1	50	1	120	220	320	NaN	520	2.52878332696855	1	0	NaN	4558286.3657806	NaN	4558287.3491433	4558287.86571117
101	21	0	0	90	36.1581920903955	36.241610738255	8	0.266692447960377	2	5	6	NaN	1	3	0.0305027806128239	0	1	NaN	51	1	51	1	120	220	320	NaN	520	0.30644107516855	1	1	NaN	4558291.6995928	NaN	4558292.6830139	4558293.19956443
101	21	0	0	90	36.1581920903955	36.241610738255	20	0.666731119900942	2	9	4	NaN	2	3	0.0305027806128239	0	1	NaN	52	1	52	1	120	220	320	NaN	520	0.330024027265608	1	0	NaN	4558294.3165431	NaN	4558295.2999544	4558295.81648567
101	21	0	0	90	36.1581920903955	36.241610738255	16	0.533384895920753	2	3	5	NaN	1	4	0.0305027806128239	0	1	NaN	53	1	53	1	120	220	320	NaN	520	0.511460323818028	1	1	NaN	4558296.9667917	NaN	4558297.950175	4558298.46674858
101	21	0	0	90	36.1581920903955	36.241610738255	19	0.633394563905895	2	9	3	NaN	2	5	0.0305027806128239	0	1	NaN	54	1	54	1	120	220	320	NaN	520	0.686587123200297	2	1	NaN	4558299.783742	NaN	4558300.7671371	4558301.28368538
101	21	0	0	90	36.1581920903955	36.241610738255	8	0.266692447960377	2	12	5	NaN	2	4	0.0305027806128239	0	1	NaN	55	1	55	1	120	220	320	NaN	520	1.57434517517686	2	1	NaN	4558302.7840313	NaN	4558303.7674388	4558304.28398723
101	21	0	0	90	36.1581920903955	36.241610738255	7	0.23335589196533	2	10	6	NaN	2	4	0.0305027806128239	0	1	NaN	56	1	56	1	120	220	320	NaN	520	0.482836175709963	2	1	NaN	4558306.6677522	NaN	4558307.6511558	4558308.16769482
101	21	0	0	90	36.1581920903955	36.241610738255	14	0.466711783930659	2	11	6	NaN	2	3	0.0305027806128239	0	1	NaN	57	1	57	1	120	220	320	NaN	520	3.25790337473154	2	1	NaN	4558309.4680298	NaN	4558310.4514183	4558310.96796993
101	21	0	0	90	36.1581920903955	36.241610738255	7	0.23335589196533	2	2	1	NaN	1	3	0.0305027806128239	0	1	NaN	58	1	58	1	120	220	320	NaN	520	1.47483022324741	2	0	NaN	4558315.0352427	NaN	4558316.0186437	4558316.53518838
101	21	0	0	90	36.1581920903955	36.241610738255	25	0.833413899876177	2	5	2	NaN	1	4	0.0305027806128239	0	1	NaN	59	1	59	1	120	220	320	NaN	520	0.827387374825776	2	0	NaN	4558318.8188094	NaN	4558319.8023463	4558320.31889233
101	21	0	0	90	36.1581920903955	36.241610738255	12	0.400038671940565	2	1	3	NaN	1	5	0.0305027806128239	0	1	NaN	60	1	60	1	120	220	320	NaN	520	1.70995187480003	1	1	NaN	4558321.9524604	NaN	4558322.9359924	4558323.45253703
101	21	0	0	90	36.1581920903955	36.241610738255	12	0.400038671940565	2	3	1	NaN	1	3	0.0305027806128239	0	1	NaN	61	1	61	1	120	220	320	NaN	520	3.44456709176302	2	0	NaN	4558325.9695328	NaN	4558326.9530276	4558327.46960891
101	21	0	0	90	36.1581920903955	36.241610738255	10	0.333365559950471	2	12	2	NaN	2	4	0.0305027806128239	0	1	NaN	62	1	62	1	120	220	320	NaN	520	0.638269871473312	1	0	NaN	4558331.7202303	NaN	4558332.7036148	4558333.22016003
101	21	0	0	90	36.1581920903955	36.241610738255	11	0.366702115945518	2	7	3	NaN	2	3	0.0305027806128239	0	1	NaN	63	1	63	1	120	220	320	NaN	520	1.92811017483473	1	0	NaN	4558334.6705108	NaN	4558335.6539089	4558336.17046103
101	21	0	0	90	36.1581920903955	36.241610738255	7	0.23335589196533	2	7	2	NaN	2	5	0.0305027806128239	0	1	NaN	64	2	1	1	120	220	320	NaN	520	1.52921162731946	2	1	NaN	4558348.405179	NaN	4558349.3885962	4558349.90515017
101	21	0	0	90	36.1581920903955	36.241610738255	22	0.733404231891036	2	5	4	NaN	1	4	0.0305027806128239	0	1	NaN	65	2	2	1	120	220	320	NaN	520	0.841283227317035	1	1	NaN	4558352.3888105	NaN	4558353.3723017	4558353.88886807
101	21	0	0	90	36.1581920903955	36.241610738255	9	0.300029003955424	2	7	6	NaN	2	3	0.0305027806128239	0	1	NaN	66	2	3	1	120	220	320	NaN	520	0.643704175017774	1	0	NaN	4558355.7225601	NaN	4558356.7059779	4558357.22253012
101	21	0	0	90	36.1581920903955	36.241610738255	21	0.700067675895989	2	5	2	NaN	1	4	0.0305027806128239	0	1	NaN	67	2	4	1	120	220	320	NaN	520	0.781495423056185	1	1	NaN	4558358.6728764	NaN	4558359.6562691	4558360.17281208
101	21	0	0	90	36.1581920903955	36.241610738255	13	0.433375227935612	2	7	2	NaN	2	5	0.0305027806128239	0	1	NaN	68	2	5	1	120	220	320	NaN	520	0.393072423525155	1	0	NaN	4558361.7731658	NaN	4558362.7565575	4558363.27312668
101	21	0	0	90	36.1581920903955	36.241610738255	0	0	1	1	2	NaN	1	4	0.0305027806128239	0	1	NaN	69	2	6	1	110	210	310	NaN	510	0.940903675742447	1	1	NaN	4558364.4734356	NaN	4558365.4568361	4558365.97338692
101	21	0	0	90	36.1581920903955	36.241610738255	24	0.80007734388113	2	6	6	NaN	1	3	0.0305027806128239	0	1	NaN	70	2	7	1	120	220	320	NaN	520	0.298722722567618	1	1	NaN	4558367.7237534	NaN	4558368.7071595	4558369.22371178
101	21	0	0	90	36.1581920903955	36.241610738255	6	0.200019335970283	2	10	3	NaN	2	5	0.0305027806128239	0	1	NaN	71	2	8	1	120	220	320	NaN	520	0.3662019232288	2	1	NaN	4558370.8239412	NaN	4558371.807449	4558372.32400788
101	21	0	0	90	36.1581920903955	36.241610738255	9	0.300029003955424	2	6	6	NaN	1	4	0.0305027806128239	0	1	NaN	72	2	9	1	120	220	320	NaN	520	0.955034675076604	1	1	NaN	4558373.5076688	NaN	4558374.4910619	4558375.00761332
101	21	0	0	90	36.1581920903955	36.241610738255	13	0.433375227935612	2	11	1	NaN	2	3	0.0305027806128239	0	1	NaN	73	2	10	1	120	220	320	NaN	520	0.447538075037301	2	1	NaN	4558376.7746479	NaN	4558377.7580423	4558378.27460342
101	21	0	0	90	36.1581920903955	36.241610738255	16	0.533384895920753	2	9	5	NaN	2	5	0.0305027806128239	0	1	NaN	74	2	11	1	120	220	320	NaN	520	0.360787223093212	1	0	NaN	4558379.5414889	NaN	4558380.5249887	4558381.04153838
101	21	0	0	90	36.1581920903955	36.241610738255	17	0.566721451915801	2	11	5	NaN	2	3	0.0305027806128239	0	1	NaN	75	2	12	1	120	220	320	NaN	520	0.430202174931765	2	1	NaN	4558382.2085156	NaN	4558383.1919115	4558383.70846173
101	21	0	0	90	36.1581920903955	36.241610738255	9	0.300029003955424	2	2	5	NaN	1	5	0.0305027806128239	0	1	NaN	76	2	13	1	120	220	320	NaN	520	0.416178875602782	1	1	NaN	4558384.942003	NaN	4558385.9255313	4558386.44207462
101	21	0	0	90	36.1581920903955	36.241610738255	17	0.566721451915801	2	7	3	NaN	2	3	0.0305027806128239	0	1	NaN	77	2	14	1	120	220	320	NaN	520	0.426534275524318	1	0	NaN	4558387.6755879	NaN	4558388.659126	4558389.17566682
101	21	0	0	90	36.1581920903955	36.241610738255	9	0.300029003955424	2	12	6	NaN	2	5	0.0305027806128239	0	1	NaN	78	2	15	1	120	220	320	NaN	520	2.42898582294583	2	1	NaN	4558390.4093175	NaN	4558391.3927509	4558391.90928698
101	21	0	0	90	36.1581920903955	36.241610738255	10	0.333365559950471	2	4	3	NaN	1	5	0.0305027806128239	0	1	NaN	79	2	16	1	120	220	320	NaN	520	0.0104075754061341	1	1	NaN	4558395.1429939	NaN	4558396.1265259	4558396.64307322
101	21	0	0	90	36.1581920903955	36.241610738255	10	0.333365559950471	2	2	5	NaN	1	4	0.0305027806128239	0	1	NaN	80	2	17	1	120	220	320	NaN	520	0.0104174232110381	1	1	NaN	4558397.4599645	NaN	4558398.4434152	4558398.95997318
101	21	0	0	90	36.1581920903955	36.241610738255	18	0.600058007910848	2	1	5	NaN	1	4	0.0305027806128239	0	1	NaN	81	2	18	1	120	220	320	NaN	520	0.293551174923778	1	1	NaN	4558399.7770019	NaN	4558400.7603427	4558401.27685782
101	21	0	0	90	36.1581920903955	36.241610738255	14	0.466711783930659	2	10	3	NaN	2	4	0.0305027806128239	0	1	NaN	82	2	19	1	120	220	320	NaN	520	2.30015857517719	1	0	NaN	4558402.6105282	NaN	4558403.5939307	4558404.11047062
101	21	0	0	90	36.1581920903955	36.241610738255	11	0.366702115945518	2	2	1	NaN	1	3	0.0305027806128239	0	1	NaN	83	2	20	1	120	220	320	NaN	520	0.642532874830067	2	0	NaN	4558407.2276399	NaN	4558408.2110526	4558408.72760352
101	21	0	0	90	36.1581920903955	36.241610738255	11	0.366702115945518	2	11	4	NaN	2	3	0.0305027806128239	0	1	NaN	84	2	21	1	120	220	320	NaN	520	0.940457874909043	1	0	NaN	4558410.1779332	NaN	4558411.161341	4558411.67788132
101	21	0	0	90	36.1581920903955	36.241610738255	7	0.23335589196533	2	4	5	NaN	1	5	0.0305027806128239	0	1	NaN	85	2	22	1	120	220	320	NaN	520	0.450219991616905	1	1	NaN	4558413.4281254	NaN	4558414.4116515	4558414.92820631
101	21	0	0	90	36.1581920903955	36.241610738255	14	0.466711783930659	2	11	1	NaN	2	5	0.0305027806128239	0	1	NaN	86	2	23	1	120	220	320	NaN	520	1.37130067497492	1	0	NaN	4558416.1951712	NaN	4558417.1785998	4558417.69514902
101	21	0	0	90	36.1581920903955	36.241610738255	8	0.266692447960377	2	5	2	NaN	1	4	0.0305027806128239	0	1	NaN	87	2	24	1	120	220	320	NaN	520	0.43980857450515	2	0	NaN	4558419.8789083	NaN	4558420.8622852	4558421.37884683
101	21	0	0	90	36.1581920903955	36.241610738255	23	0.766740787886083	2	4	3	NaN	1	3	0.0305027806128239	0	1	NaN	88	2	25	1	120	220	320	NaN	520	0.401117774657905	1	1	NaN	4558422.6291711	NaN	4558423.6125645	4558424.12910873
101	21	0	0	90	36.1581920903955	36.241610738255	24	0.80007734388113	2	5	6	NaN	1	5	0.0305027806128239	0	1	NaN	89	2	26	1	120	220	320	NaN	520	0.42039137519896	1	1	NaN	4558425.3460961	NaN	4558426.3294968	4558426.84604122
101	21	0	0	90	36.1581920903955	36.241610738255	20	0.666731119900942	2	8	2	NaN	2	3	0.0305027806128239	0	1	NaN	90	2	27	1	120	220	320	NaN	520	5.08650087565184	1	0	NaN	4558428.0796969	NaN	4558429.0629914	4558429.57964372
101	21	0	0	90	36.1581920903955	36.241610738255	0	0	1	12	4	NaN	2	3	0.0305027806128239	0	1	NaN	91	2	28	1	110	210	310	NaN	510	0.662402574904263	2	1	NaN	4558435.4804234	NaN	4558436.4638128	4558436.98037812
101	21	0	0	90	36.1581920903955	36.241610738255	13	0.433375227935612	2	3	4	NaN	1	4	0.0305027806128239	0	1	NaN	92	2	29	1	120	220	320	NaN	520	0.510366475209594	2	0	NaN	4558438.4640497	NaN	4558439.4474588	4558439.96400162
101	21	0	0	90	36.1581920903955	36.241610738255	9	0.300029003955424	2	8	3	NaN	2	4	0.0305027806128239	0	1	NaN	93	2	30	1	120	220	320	NaN	520	0.796690743416548	2	1	NaN	4558441.2976766	NaN	4558442.2810624	4558442.79761356
101	21	0	0	90	36.1581920903955	36.241610738255	24	0.80007734388113	2	8	6	NaN	2	3	0.0305027806128239	0	1	NaN	94	2	31	1	120	220	320	NaN	520	0.68051762226969	1	0	NaN	4558444.3979792	NaN	4558445.3813698	4558445.89792338
101	21	0	0	90	36.1581920903955	36.241610738255	11	0.366702115945518	2	8	6	NaN	2	5	0.0305027806128239	0	1	NaN	95	2	32	1	120	220	320	NaN	520	0.56809167470783	2	1	NaN	4558447.3982657	NaN	4558448.3816792	4558448.89821413
101	21	0	0	90	36.1581920903955	36.241610738255	13	0.433375227935612	2	4	4	NaN	1	4	0.0305027806128239	0	1	NaN	96	2	33	1	120	220	320	NaN	520	0.316625474952161	1	1	NaN	4558450.2818717	NaN	4558451.2652792	4558451.78182952
101	21	0	0	90	36.1581920903955	36.241610738255	6	0.200019335970283	2	3	5	NaN	1	3	0.0305027806128239	0	1	NaN	97	2	34	1	120	220	320	NaN	520	4.11487767472863	2	0	NaN	4558452.9153395	NaN	4558453.8988712	4558454.41542493
101	21	0	0	90	36.1581920903955	36.241610738255	9	0.300029003955424	2	10	1	NaN	2	3	0.0305027806128239	0	1	NaN	98	2	35	1	120	220	320	NaN	520	1.55333467479795	2	1	NaN	4558459.3494312	NaN	4558460.332881	4558460.84938733
101	21	0	0	90	36.1581920903955	36.241610738255	23	0.766740787886083	2	7	3	NaN	2	4	0.0305027806128239	0	1	NaN	99	2	36	1	120	220	320	NaN	520	0.566283674910665	2	1	NaN	4558463.2164869	NaN	4558464.1998696	4558464.71643812
101	21	0	0	90	36.1581920903955	36.241610738255	13	0.433375227935612	2	5	2	NaN	1	4	0.0305027806128239	0	1	NaN	100	2	37	1	120	220	320	NaN	520	0.680094975046813	1	1	NaN	4558466.5502072	NaN	4558467.5335519	4558468.05010222
101	21	0	0	90	36.1581920903955	36.241610738255	21	0.700067675895989	2	3	3	NaN	1	4	0.0305027806128239	0	1	NaN	101	2	38	1	120	220	320	NaN	520	0.225280423648655	1	1	NaN	4558469.7170991	NaN	4558470.7005464	4558471.21707008
101	21	0	0	90	36.1581920903955	36.241610738255	14	0.466711783930659	2	12	1	NaN	2	3	0.0305027806128239	0	1	NaN	102	2	39	1	120	220	320	NaN	520	0.86768457479775	2	1	NaN	4558472.2505719	NaN	4558473.2341284	4558473.75066493
101	21	0	0	90	36.1581920903955	36.241610738255	19	0.633394563905895	2	5	1	NaN	1	3	0.0305027806128239	0	1	NaN	103	2	40	1	120	220	320	NaN	520	0.475992775522172	2	0	NaN	4558475.4343633	NaN	4558476.4177759	4558476.93430272
101	21	0	0	90	36.1581920903955	36.241610738255	13	0.433375227935612	2	10	4	NaN	2	3	0.0305027806128239	0	1	NaN	104	2	41	1	120	220	320	NaN	520	0.564578675664961	1	0	NaN	4558478.2178448	NaN	4558479.2013654	4558479.71790802
101	21	0	0	90	36.1581920903955	36.241610738255	23	0.766740787886083	2	7	1	NaN	2	4	0.0305027806128239	0	1	NaN	105	2	42	1	120	220	320	NaN	520	1.19294157531112	2	1	NaN	4558481.1015821	NaN	4558482.0849812	4558482.60152792
101	21	0	0	90	36.1581920903955	36.241610738255	7	0.23335589196533	2	8	5	NaN	2	5	0.0305027806128239	0	1	NaN	106	2	43	1	120	220	320	NaN	520	4.26052517537028	2	1	NaN	4558484.6019317	NaN	4558485.5853274	4558486.10187482
101	21	0	0	90	36.1581920903955	36.241610738255	11	0.366702115945518	2	9	4	NaN	2	5	0.0305027806128239	0	1	NaN	107	2	44	1	120	220	320	NaN	520	0.364519275724888	1	0	NaN	4558491.1858243	NaN	4558492.1693169	4558492.68586462
101	21	0	0	90	36.1581920903955	36.241610738255	0	0	1	1	1	NaN	1	3	0.0305027806128239	0	1	NaN	108	2	45	1	110	210	310	NaN	510	1.53394462261349	1	1	NaN	4558494.3528479	NaN	4558495.3362823	4558495.85282808
101	21	0	0	90	36.1581920903955	36.241610738255	6	0.200019335970283	2	12	5	NaN	2	5	0.0305027806128239	0	1	NaN	109	2	46	1	120	220	320	NaN	520	0.523570475168526	2	1	NaN	4558498.2032606	NaN	4558499.1866503	4558499.70321192
101	21	0	0	90	36.1581920903955	36.241610738255	19	0.633394563905895	2	3	3	NaN	1	3	0.0305027806128239	0	1	NaN	110	2	47	1	120	220	320	NaN	520	0.400221275165677	1	1	NaN	4558501.4702241	NaN	4558502.4536508	4558502.97020162
101	21	0	0	90	36.1581920903955	36.241610738255	19	0.633394563905895	2	1	4	NaN	1	4	0.0305027806128239	0	1	NaN	111	2	48	1	120	220	320	NaN	520	0.651281574741006	1	1	NaN	4558504.1871821	NaN	4558505.1705985	4558505.68713233
101	21	0	0	90	36.1581920903955	36.241610738255	10	0.333365559950471	2	2	4	NaN	1	5	0.0305027806128239	0	1	NaN	112	2	49	1	120	220	320	NaN	520	0.724272523075342	1	1	NaN	4558507.1541507	NaN	4558508.1375698	4558508.65408678
101	21	0	0	90	36.1581920903955	36.241610738255	24	0.80007734388113	2	12	4	NaN	2	5	0.0305027806128239	0	1	NaN	113	2	50	1	120	220	320	NaN	520	0.402473575435579	2	1	NaN	4558510.1877782	NaN	4558511.1711592	4558511.68772762
101	21	0	0	90	36.1581920903955	36.241610738255	6	0.200019335970283	2	2	2	NaN	1	4	0.0305027806128239	0	1	NaN	114	2	51	1	120	220	320	NaN	520	0.405888675712049	1	1	NaN	4558512.9047324	NaN	4558513.888118	4558514.40466142
101	21	0	0	90	36.1581920903955	36.241610738255	20	0.666731119900942	2	1	1	NaN	1	5	0.0305027806128239	0	1	NaN	115	2	52	1	120	220	320	NaN	520	0.762660575099289	2	0	NaN	4558515.7716581	NaN	4558516.7550413	4558517.27160332
101	21	0	0	90	36.1581920903955	36.241610738255	22	0.733404231891036	2	1	5	NaN	1	3	0.0305027806128239	0	1	NaN	116	2	53	1	120	220	320	NaN	520	0.209473527036607	1	1	NaN	4558519.0052637	NaN	4558519.9887116	4558520.50525557
101	21	0	0	90	36.1581920903955	36.241610738255	0	0	1	11	2	NaN	2	4	0.0305027806128239	0	1	NaN	117	2	54	1	110	210	310	NaN	510	0.452478075399995	2	1	NaN	4558521.5222166	NaN	4558522.505624	4558523.02216922
101	21	0	0	90	36.1581920903955	36.241610738255	25	0.833413899876177	2	10	1	NaN	2	5	0.0305027806128239	0	1	NaN	118	2	55	1	120	220	320	NaN	520	1.65337077435106	2	1	NaN	4558524.2891535	NaN	4558525.2725644	4558525.78910603
101	21	0	0	90	36.1581920903955	36.241610738255	6	0.200019335970283	2	7	6	NaN	2	3	0.0305027806128239	0	1	NaN	119	2	56	1	120	220	320	NaN	520	0.36620797496289	1	0	NaN	4558528.2562192	NaN	4558529.2396215	4558529.75616653
101	21	0	0	90	36.1581920903955	36.241610738255	21	0.700067675895989	2	6	4	NaN	1	3	0.0305027806128239	0	1	NaN	120	2	57	1	120	220	320	NaN	520	0.467116091400385	1	1	NaN	4558530.939817	NaN	4558531.9232036	4558532.43977201
101	21	0	0	90	36.1581920903955	36.241610738255	7	0.23335589196533	2	6	6	NaN	1	4	0.0305027806128239	0	1	NaN	121	2	58	1	120	220	320	NaN	520	0.467419674620032	1	1	NaN	4558533.7234348	NaN	4558534.7068256	4558535.22337562
101	21	0	0	90	36.1581920903955	36.241610738255	21	0.700067675895989	2	10	1	NaN	2	3	0.0305027806128239	0	1	NaN	122	2	59	1	120	220	320	NaN	520	0.574674771167338	2	1	NaN	4558537.0237355	NaN	4558538.0071483	4558538.52370313
101	21	0	0	90	36.1581920903955	36.241610738255	25	0.833413899876177	2	4	6	NaN	1	3	0.0305027806128239	0	1	NaN	123	2	60	1	120	220	320	NaN	520	0.0991492746397853	1	1	NaN	4558539.9073626	NaN	4558540.8907654	4558541.40731263
101	21	0	0	90	36.1581920903955	36.241610738255	18	0.600058007910848	2	10	3	NaN	2	4	0.0305027806128239	0	1	NaN	124	2	61	1	120	220	320	NaN	520	0.45065707527101	2	1	NaN	4558542.3242633	NaN	4558543.3076765	4558543.82421562
101	21	0	0	90	36.1581920903955	36.241610738255	14	0.466711783930659	2	2	1	NaN	1	5	0.0305027806128239	0	1	NaN	125	2	62	1	120	220	320	NaN	520	0.299650982953608	1	1	NaN	4558545.0911997	NaN	4558546.0745987	4558546.59115952
101	21	0	0	90	36.1581920903955	36.241610738255	10	0.333365559950471	2	10	3	NaN	2	4	0.0305027806128239	0	1	NaN	126	2	63	1	120	220	320	NaN	520	1.25048102717847	1	0	NaN	4558547.7081273	NaN	4558548.6915354	4558549.20808977
101	21	0	0	90	36.1581920903955	36.241610738255	15	0.500048339925706	2	3	4	NaN	1	5	0.0305027806128239	0	1	NaN	127	3	1	1	120	220	320	NaN	520	1.47369472309947	2	0	NaN	4558566.293193	NaN	4558567.2766779	4558567.79323818
101	21	0	0	90	36.1581920903955	36.241610738255	9	0.300029003955424	2	1	3	NaN	1	3	0.0305027806128239	0	1	NaN	128	3	2	1	120	220	320	NaN	520	0.425887274555862	1	1	NaN	4558570.0770107	NaN	4558571.0604241	4558571.57694463
101	21	0	0	90	36.1581920903955	36.241610738255	25	0.833413899876177	2	9	1	NaN	2	3	0.0305027806128239	0	1	NaN	129	3	3	1	120	220	320	NaN	520	0.596402275376022	2	1	NaN	4558572.8106161	NaN	4558573.7940026	4558574.31054782
101	21	0	0	90	36.1581920903955	36.241610738255	21	0.700067675895989	2	8	2	NaN	2	4	0.0305027806128239	0	1	NaN	130	3	4	1	120	220	320	NaN	520	0.463112227618694	1	0	NaN	4558575.7275637	NaN	4558576.710955	4558577.22750947
101	21	0	0	90	36.1581920903955	36.241610738255	14	0.466711783930659	2	2	5	NaN	1	4	0.0305027806128239	0	1	NaN	131	3	5	1	120	220	320	NaN	520	0.472427970729768	1	1	NaN	4558578.4943864	NaN	4558579.4778987	4558579.99443933
101	21	0	0	90	36.1581920903955	36.241610738255	16	0.533384895920753	2	5	3	NaN	1	3	0.0305027806128239	0	1	NaN	132	3	6	1	120	220	320	NaN	520	0.640529974363744	1	1	NaN	4558581.278055	NaN	4558582.2615032	4558582.77804913
101	21	0	0	90	36.1581920903955	36.241610738255	7	0.23335589196533	2	9	2	NaN	2	5	0.0305027806128239	0	1	NaN	133	3	7	1	120	220	320	NaN	520	0.554119574837387	1	0	NaN	4558584.2283879	NaN	4558585.2117856	4558585.72833632
101	21	0	0	90	36.1581920903955	36.241610738255	0	0	1	4	6	NaN	1	3	0.0305027806128239	0	1	NaN	134	3	8	1	110	210	310	NaN	510	0.623666474595666	2	0	NaN	4558587.095338	NaN	4558588.0787337	4558588.59529123
101	21	0	0	90	36.1581920903955	36.241610738255	21	0.700067675895989	2	9	4	NaN	2	5	0.0305027806128239	0	1	NaN	135	3	9	1	120	220	320	NaN	520	0.465434074401855	2	1	NaN	4558590.0289696	NaN	4558591.0124425	4558591.52890753
101	21	0	0	90	36.1581920903955	36.241610738255	13	0.433375227935612	2	4	3	NaN	1	3	0.0305027806128239	0	1	NaN	136	3	10	1	120	220	320	NaN	520	1.6911060269922	2	0	NaN	4558592.7959015	NaN	4558593.7792992	4558594.29585547
101	21	0	0	90	36.1581920903955	36.241610738255	8	0.266692447960377	2	7	1	NaN	2	4	0.0305027806128239	0	1	NaN	137	3	11	1	120	220	320	NaN	520	0.386741686612368	1	0	NaN	4558596.7963087	NaN	4558597.7796773	4558598.29624611
101	21	0	0	90	36.1581920903955	36.241610738255	9	0.300029003955424	2	1	6	NaN	1	3	0.0305027806128239	0	1	NaN	138	3	12	1	120	220	320	NaN	520	0.485994675196707	2	0	NaN	4558599.4965626	NaN	4558600.4799815	4558600.99650992
101	21	0	0	90	36.1581920903955	36.241610738255	0	0	1	5	5	NaN	1	3	0.0305027806128239	0	1	NaN	139	3	13	1	110	210	310	NaN	510	0.245745923370123	2	0	NaN	4558602.2968181	NaN	4558603.2802299	4558603.79678028
101	21	0	0	90	36.1581920903955	36.241610738255	19	0.633394563905895	2	12	3	NaN	2	5	0.0305027806128239	0	1	NaN	140	3	14	1	120	220	320	NaN	520	3.72698767483234	2	1	NaN	4558604.8637471	NaN	4558605.8471558	4558606.36370603
101	21	0	0	90	36.1581920903955	36.241610738255	22	0.733404231891036	2	2	6	NaN	1	3	0.0305027806128239	0	1	NaN	141	3	15	1	120	220	320	NaN	520	0.0104044750332832	2	0	NaN	4558610.9475598	NaN	4558611.9310869	4558612.44763193
101	21	0	0	90	36.1581920903955	36.241610738255	9	0.300029003955424	2	3	2	NaN	1	4	0.0305027806128239	0	1	NaN	142	3	16	1	120	220	320	NaN	520	2.22135717514902	2	0	NaN	4558613.2812529	NaN	4558614.2646451	4558614.78119722
101	21	0	0	90	36.1581920903955	36.241610738255	16	0.533384895920753	2	12	6	NaN	2	3	0.0305027806128239	0	1	NaN	143	3	17	1	120	220	320	NaN	520	0.455808174796402	1	0	NaN	4558617.8150333	NaN	4558618.7984495	4558619.31497512
101	21	0	0	90	36.1581920903955	36.241610738255	14	0.466711783930659	2	7	5	NaN	2	3	0.0305027806128239	0	1	NaN	144	3	18	1	120	220	320	NaN	520	0.488695227541029	1	0	NaN	4558620.5818346	NaN	4558621.5653638	4558622.08192327
101	21	0	0	90	36.1581920903955	36.241610738255	9	0.300029003955424	2	11	4	NaN	2	5	0.0305027806128239	0	1	NaN	145	3	19	1	120	220	320	NaN	520	0.888699127361178	1	0	NaN	4558623.3822297	NaN	4558624.3656387	4558624.88219867
101	21	0	0	90	36.1581920903955	36.241610738255	21	0.700067675895989	2	7	5	NaN	2	4	0.0305027806128239	0	1	NaN	146	3	20	1	120	220	320	NaN	520	0.536125027574599	2	1	NaN	4558626.5825649	NaN	4558627.5659713	4558628.08251357
101	21	0	0	90	36.1581920903955	36.241610738255	20	0.666731119900942	2	4	4	NaN	1	5	0.0305027806128239	0	1	NaN	147	3	21	1	120	220	320	NaN	520	0.461817527189851	2	0	NaN	4558629.4328394	NaN	4558630.416238	4558630.93278217
101	21	0	0	90	36.1581920903955	36.241610738255	13	0.433375227935612	2	12	1	NaN	2	4	0.0305027806128239	0	1	NaN	148	3	22	1	120	220	320	NaN	520	2.11889162752777	2	1	NaN	4558632.1996575	NaN	4558633.1832857	4558633.69972667
101	21	0	0	90	36.1581920903955	36.241610738255	12	0.400038671940565	2	6	1	NaN	1	3	0.0305027806128239	0	1	NaN	149	3	23	1	120	220	320	NaN	520	0.506277174688876	1	1	NaN	4558637.1002142	NaN	4558638.0836538	4558638.60021082
101	21	0	0	90	36.1581920903955	36.241610738255	19	0.633394563905895	2	1	5	NaN	1	5	0.0305027806128239	0	1	NaN	150	3	24	1	120	220	320	NaN	520	0.682469774968922	1	1	NaN	4558640.1005589	NaN	4558641.0839848	4558641.60050343
101	21	0	0	90	36.1581920903955	36.241610738255	21	0.700067675895989	2	4	4	NaN	1	4	0.0305027806128239	0	1	NaN	151	3	25	1	120	220	320	NaN	520	0.337874427437782	1	1	NaN	4558643.100845	NaN	4558644.0842409	4558644.60079397
101	21	0	0	90	36.1581920903955	36.241610738255	15	0.500048339925706	2	3	5	NaN	1	5	0.0305027806128239	0	1	NaN	152	3	26	1	120	220	320	NaN	520	0.576044082641602	2	0	NaN	4558645.7511118	NaN	4558646.7345133	4558647.25106132
101	21	0	0	90	36.1581920903955	36.241610738255	7	0.23335589196533	2	11	1	NaN	2	3	0.0305027806128239	0	1	NaN	153	3	27	1	120	220	320	NaN	520	1.63600484374911	2	1	NaN	4558648.6345906	NaN	4558649.618128	4558650.13468236
101	21	0	0	90	36.1581920903955	36.241610738255	23	0.766740787886083	2	9	3	NaN	2	5	0.0305027806128239	0	1	NaN	154	3	28	1	120	220	320	NaN	520	0.0854496750980616	1	0	NaN	4558652.5851241	NaN	4558653.5685123	4558654.08505963
101	21	0	0	90	36.1581920903955	36.241610738255	22	0.733404231891036	2	5	1	NaN	1	5	0.0305027806128239	0	1	NaN	155	3	29	1	120	220	320	NaN	520	0.469632222317159	2	0	NaN	4558654.9853391	NaN	4558655.9687765	4558656.48530268
101	21	0	0	90	36.1581920903955	36.241610738255	19	0.633394563905895	2	11	4	NaN	2	3	0.0305027806128239	0	1	NaN	156	3	30	1	120	220	320	NaN	520	0.149959675036371	2	1	NaN	4558657.7689562	NaN	4558658.75226	4558659.26889993
101	21	0	0	90	36.1581920903955	36.241610738255	15	0.500048339925706	2	12	1	NaN	2	5	0.0305027806128239	0	1	NaN	157	3	31	1	120	220	320	NaN	520	1.03514109179378	2	1	NaN	4558660.2359601	NaN	4558661.2192681	4558661.73581811
101	21	0	0	90	36.1581920903955	36.241610738255	11	0.366702115945518	2	6	6	NaN	1	5	0.0305027806128239	0	1	NaN	158	3	32	1	120	220	320	NaN	520	0.0104033751413226	1	1	NaN	4558663.5861925	NaN	4558664.5695772	4558665.08615142
101	21	0	0	90	36.1581920903955	36.241610738255	6	0.200019335970283	2	10	2	NaN	2	5	0.0305027806128239	0	1	NaN	159	3	33	1	120	220	320	NaN	520	0.359683022834361	1	0	NaN	4558665.9030855	NaN	4558666.8865142	4558667.40303758
101	21	0	0	90	36.1581920903955	36.241610738255	12	0.400038671940565	2	5	1	NaN	1	4	0.0305027806128239	0	1	NaN	160	3	34	1	120	220	320	NaN	520	0.524611039087176	1	1	NaN	4558668.570016	NaN	4558669.5534135	4558670.06997436
101	21	0	0	90	36.1581920903955	36.241610738255	16	0.533384895920753	2	7	6	NaN	2	3	0.0305027806128239	0	1	NaN	161	3	35	1	120	220	320	NaN	520	0.0511947274208069	1	0	NaN	4558671.4036391	NaN	4558672.3870331	4558672.90358837
101	21	0	0	90	36.1581920903955	36.241610738255	24	0.80007734388113	2	1	4	NaN	1	4	0.0305027806128239	0	1	NaN	162	3	36	1	120	220	320	NaN	520	0.340547274798155	1	1	NaN	4558673.7705376	NaN	4558674.7539407	4558675.27048072
101	21	0	0	90	36.1581920903955	36.241610738255	10	0.333365559950471	2	6	4	NaN	1	5	0.0305027806128239	0	1	NaN	163	3	37	1	120	220	320	NaN	520	0.433797274716198	1	1	NaN	4558676.4207951	NaN	4558677.4041931	4558677.92073623
101	21	0	0	90	36.1581920903955	36.241610738255	16	0.533384895920753	2	1	4	NaN	1	4	0.0305027806128239	0	1	NaN	164	3	38	1	120	220	320	NaN	520	0.388069175183773	2	0	NaN	4558679.1710703	NaN	4558680.1544569	4558680.67100572
101	21	0	0	90	36.1581920903955	36.241610738255	6	0.200019335970283	2	6	6	NaN	1	3	0.0305027806128239	0	1	NaN	165	3	39	1	120	220	320	NaN	520	0.183481991291046	1	1	NaN	4558681.8713226	NaN	4558682.8547105	4558683.37129711
101	21	0	0	90	36.1581920903955	36.241610738255	25	0.833413899876177	2	9	5	NaN	2	4	0.0305027806128239	0	1	NaN	166	3	40	1	120	220	320	NaN	520	0.0992853278294206	1	0	NaN	4558684.3715566	NaN	4558685.3549969	4558685.87152667
101	21	0	0	90	36.1581920903955	36.241610738255	15	0.500048339925706	2	9	3	NaN	2	5	0.0305027806128239	0	1	NaN	167	3	41	1	120	220	320	NaN	520	0.442867682315409	1	0	NaN	4558686.7718698	NaN	4558687.7552081	4558688.27175392
101	21	0	0	90	36.1581920903955	36.241610738255	13	0.433375227935612	2	7	1	NaN	2	4	0.0305027806128239	0	1	NaN	168	3	42	1	120	220	320	NaN	520	0.42857027426362	2	1	NaN	4558689.5220791	NaN	4558690.5054777	4558691.02203443
101	21	0	0	90	36.1581920903955	36.241610738255	0	0	1	5	3	NaN	1	4	0.0305027806128239	0	1	NaN	169	3	43	1	110	210	310	NaN	510	0.390541679225862	2	0	NaN	4558692.2723383	NaN	4558693.2557454	4558693.77230592
101	21	0	0	90	36.1581920903955	36.241610738255	25	0.833413899876177	2	7	3	NaN	2	4	0.0305027806128239	0	1	NaN	170	3	44	1	120	220	320	NaN	520	0.0104075744748116	1	0	NaN	4558694.9725996	NaN	4558695.9560016	4558696.47256343
101	21	0	0	90	36.1581920903955	36.241610738255	20	0.666731119900942	2	12	6	NaN	2	3	0.0305027806128239	0	1	NaN	171	3	45	1	120	220	320	NaN	520	0.565167374908924	1	0	NaN	4558697.2895089	NaN	4558698.2728943	4558698.78945693
101	21	0	0	90	36.1581920903955	36.241610738255	18	0.600058007910848	2	3	6	NaN	1	3	0.0305027806128239	0	1	NaN	172	3	46	1	120	220	320	NaN	520	0.257737339474261	1	1	NaN	4558700.1731285	NaN	4558701.1565221	4558701.67308356
101	21	0	0	90	36.1581920903955	36.241610738255	11	0.366702115945518	2	2	4	NaN	1	3	0.0305027806128239	0	1	NaN	173	3	47	1	120	220	320	NaN	520	5.70674234349281	2	0	NaN	4558702.7400508	NaN	4558703.7234426	4558704.24000736
101	21	0	0	90	36.1581920903955	36.241610738255	7	0.23335589196533	2	9	3	NaN	2	4	0.0305027806128239	0	1	NaN	174	3	48	1	120	220	320	NaN	520	0.313266475684941	2	1	NaN	4558710.7574911	NaN	4558711.7408935	4558712.25745192
101	21	0	0	90	36.1581920903955	36.241610738255	21	0.700067675895989	2	12	3	NaN	2	3	0.0305027806128239	0	1	NaN	175	3	49	1	120	220	320	NaN	520	0.010359731502831	2	1	NaN	4558713.3910832	NaN	4558714.3745141	4558714.89103957
101	21	0	0	90	36.1581920903955	36.241610738255	23	0.766740787886083	2	2	3	NaN	1	4	0.0305027806128239	0	1	NaN	176	3	50	1	120	220	320	NaN	520	0.834588726982474	2	0	NaN	4558715.7079904	NaN	4558716.691389	4558717.20795627
101	21	0	0	90	36.1581920903955	36.241610738255	19	0.633394563905895	2	6	3	NaN	1	5	0.0305027806128239	0	1	NaN	177	3	51	1	120	220	320	NaN	520	0.380578979849815	1	1	NaN	4558718.8582983	NaN	4558719.8417276	4558720.35825342
101	21	0	0	90	36.1581920903955	36.241610738255	10	0.333365559950471	2	9	3	NaN	2	5	0.0305027806128239	0	1	NaN	178	3	52	1	120	220	320	NaN	520	0.360761075280607	2	1	NaN	4558721.5418794	NaN	4558722.525288	4558723.04184692
101	21	0	0	90	36.1581920903955	36.241610738255	14	0.466711783930659	2	7	2	NaN	2	5	0.0305027806128239	0	1	NaN	179	3	53	1	120	220	320	NaN	520	0.469222026877105	2	1	NaN	4558724.2254795	NaN	4558725.2088919	4558725.72544827
101	21	0	0	90	36.1581920903955	36.241610738255	0	0	1	9	6	NaN	2	5	0.0305027806128239	0	1	NaN	180	3	54	1	110	210	310	NaN	510	0.357805943116546	1	0	NaN	4558727.0091031	NaN	4558727.9925085	4558728.50905046
101	21	0	0	90	36.1581920903955	36.241610738255	6	0.200019335970283	2	12	5	NaN	2	4	0.0305027806128239	0	1	NaN	181	3	55	1	120	220	320	NaN	520	1.70715247932822	2	1	NaN	4558729.6759003	NaN	4558730.6594063	4558731.17597402
101	21	0	0	90	36.1581920903955	36.241610738255	10	0.333365559950471	2	7	5	NaN	2	5	0.0305027806128239	0	1	NaN	182	3	56	1	120	220	320	NaN	520	0.361770775169134	2	1	NaN	4558733.6931007	NaN	4558734.6764945	4558735.19303153
101	21	0	0	90	36.1581920903955	36.241610738255	16	0.533384895920753	2	8	6	NaN	2	4	0.0305027806128239	0	1	NaN	183	3	57	1	120	220	320	NaN	520	0.846265874803066	1	0	NaN	4558736.376693	NaN	4558737.3600845	4558737.87662982
101	21	0	0	90	36.1581920903955	36.241610738255	9	0.300029003955424	2	5	2	NaN	1	4	0.0305027806128239	0	1	NaN	184	3	58	1	120	220	320	NaN	520	0.327943375334144	1	1	NaN	4558739.5268839	NaN	4558740.5103767	4558741.02693942
101	21	0	0	90	36.1581920903955	36.241610738255	6	0.200019335970283	2	8	3	NaN	2	5	0.0305027806128239	0	1	NaN	185	3	59	1	120	220	320	NaN	520	0.0104092750698328	2	1	NaN	4558742.1772512	NaN	4558743.1606707	4558743.67720332
101	21	0	0	90	36.1581920903955	36.241610738255	6	0.200019335970283	2	5	3	NaN	1	3	0.0305027806128239	0	1	NaN	186	3	60	1	120	220	320	NaN	520	0.464717671275139	1	1	NaN	4558744.4940225	NaN	4558745.4775547	4558745.99411863
101	21	0	0	90	36.1581920903955	36.241610738255	10	0.333365559950471	2	5	1	NaN	1	4	0.0305027806128239	0	1	NaN	187	3	61	1	120	220	320	NaN	520	0.601128074340522	2	0	NaN	4558747.2777646	NaN	4558748.2611556	4558748.77770333
101	21	0	0	90	36.1581920903955	36.241610738255	15	0.500048339925706	2	6	5	NaN	1	4	0.0305027806128239	0	1	NaN	188	3	62	1	120	220	320	NaN	520	0.452295378781855	1	1	NaN	4558750.194724	NaN	4558751.1781136	4558751.69466112
101	21	0	0	90	36.1581920903955	36.241610738255	7	0.23335589196533	2	3	4	NaN	1	3	0.0305027806128239	0	1	NaN	189	3	63	1	120	220	320	NaN	520	0.44508367497474	1	1	NaN	4558752.9615304	NaN	4558753.9450508	4558754.46159772
101	21	0	0	90	36.1581920903955	36.241610738255	24	0.80007734388113	2	5	6	NaN	1	5	0.0305027806128239	0	1	NaN	190	4	1	1	120	220	320	NaN	520	0.486988827586174	2	0	NaN	4558778.6640747	NaN	4558779.6475846	4558780.16413187
101	21	0	0	90	36.1581920903955	36.241610738255	23	0.766740787886083	2	10	5	NaN	2	4	0.0305027806128239	0	1	NaN	191	4	2	1	120	220	320	NaN	520	0.502814022824168	2	1	NaN	4558781.4644631	NaN	4558782.4478865	4558782.96439808
101	21	0	0	90	36.1581920903955	36.241610738255	15	0.500048339925706	2	2	2	NaN	1	3	0.0305027806128239	0	1	NaN	192	4	3	1	120	220	320	NaN	520	0.477420027367771	1	1	NaN	4558784.2814059	NaN	4558785.2648021	4558785.78134337
101	21	0	0	90	36.1581920903955	36.241610738255	20	0.666731119900942	2	12	3	NaN	2	3	0.0305027806128239	0	1	NaN	193	4	4	1	120	220	320	NaN	520	1.9500931231305	1	0	NaN	4558787.0650003	NaN	4558788.0483967	4558788.56494848
101	21	0	0	90	36.1581920903955	36.241610738255	24	0.80007734388113	2	7	2	NaN	2	4	0.0305027806128239	0	1	NaN	194	4	5	1	120	220	320	NaN	520	0.562786975875497	2	1	NaN	4558791.3320972	NaN	4558792.3155201	4558792.83204122
101	21	0	0	90	36.1581920903955	36.241610738255	0	0	1	3	3	NaN	1	3	0.0305027806128239	0	1	NaN	195	4	6	1	110	210	310	NaN	510	0.400172974914312	1	1	NaN	4558794.1990363	NaN	4558795.182447	4558795.69899312
101	21	0	0	90	36.1581920903955	36.241610738255	20	0.666731119900942	2	8	2	NaN	2	4	0.0305027806128239	0	1	NaN	196	4	7	1	120	220	320	NaN	520	0.483158626593649	2	1	NaN	4558796.9159742	NaN	4558797.8993781	4558798.41592867
101	21	0	0	90	36.1581920903955	36.241610738255	14	0.466711783930659	2	5	1	NaN	1	4	0.0305027806128239	0	1	NaN	197	4	8	1	120	220	320	NaN	520	0.49871957488358	2	0	NaN	4558799.7162626	NaN	4558800.6996385	4558801.21619593
101	21	0	0	90	36.1581920903955	36.241610738255	20	0.666731119900942	2	5	5	NaN	1	5	0.0305027806128239	0	1	NaN	198	4	9	1	120	220	320	NaN	520	0.400471591390669	2	0	NaN	4558802.5665191	NaN	4558803.5499223	4558804.06648191
101	21	0	0	90	36.1581920903955	36.241610738255	24	0.80007734388113	2	3	4	NaN	1	4	0.0305027806128239	0	1	NaN	199	4	10	1	120	220	320	NaN	520	0.40362477581948	1	1	NaN	4558805.2835027	NaN	4558806.2668675	4558806.78340502
101	21	0	0	90	36.1581920903955	36.241610738255	0	0	1	9	2	NaN	2	3	0.0305027806128239	0	1	NaN	200	4	11	1	110	210	310	NaN	510	0.446670575067401	2	1	NaN	4558808.0004003	NaN	4558808.9838087	4558809.50034343
101	21	0	0	90	36.1581920903955	36.241610738255	25	0.833413899876177	2	4	5	NaN	1	3	0.0305027806128239	0	1	NaN	201	4	12	1	120	220	320	NaN	520	0.303532327525318	1	1	NaN	4558810.7673314	NaN	4558811.7507303	4558812.26729007
101	21	0	0	90	36.1581920903955	36.241610738255	14	0.466711783930659	2	4	4	NaN	1	5	0.0305027806128239	0	1	NaN	202	4	13	1	120	220	320	NaN	520	0.374717023223639	1	1	NaN	4558813.3841333	NaN	4558814.3676588	4558814.88420988
101	21	0	0	90	36.1581920903955	36.241610738255	22	0.733404231891036	2	3	1	NaN	1	3	0.0305027806128239	0	1	NaN	203	4	14	1	120	220	320	NaN	520	0.539076091721654	2	0	NaN	4558816.0678637	NaN	4558817.05125	4558817.56780911
101	21	0	0	90	36.1581920903955	36.241610738255	8	0.266692447960377	2	6	2	NaN	1	3	0.0305027806128239	0	1	NaN	204	4	15	1	120	220	320	NaN	520	0.384805079549551	1	1	NaN	4558818.9180018	NaN	4558819.9014284	4558820.41808892
101	21	0	0	90	36.1581920903955	36.241610738255	20	0.666731119900942	2	5	5	NaN	1	5	0.0305027806128239	0	1	NaN	205	4	16	1	120	220	320	NaN	520	0.388476475141943	1	1	NaN	4558821.6184028	NaN	4558822.6018014	4558823.11834432
101	21	0	0	90	36.1581920903955	36.241610738255	19	0.633394563905895	2	12	5	NaN	2	5	0.0305027806128239	0	1	NaN	206	4	17	1	120	220	320	NaN	520	1.20819547958672	2	1	NaN	4558824.3186688	NaN	4558825.3020493	4558825.81863872
101	21	0	0	90	36.1581920903955	36.241610738255	25	0.833413899876177	2	11	2	NaN	2	3	0.0305027806128239	0	1	NaN	207	4	18	1	120	220	320	NaN	520	0.987657180055976	2	1	NaN	4558827.8355582	NaN	4558828.8190635	4558829.33563452
101	21	0	0	90	36.1581920903955	36.241610738255	18	0.600058007910848	2	12	4	NaN	2	5	0.0305027806128239	0	1	NaN	208	4	19	1	120	220	320	NaN	520	0.91925167478621	2	1	NaN	4558831.1358891	NaN	4558832.1194044	4558832.63595753
101	21	0	0	90	36.1581920903955	36.241610738255	7	0.23335589196533	2	5	5	NaN	1	3	0.0305027806128239	0	1	NaN	209	4	20	1	120	220	320	NaN	520	0.489672622643411	1	1	NaN	4558834.4696412	NaN	4558835.4530616	4558835.96960978
101	21	0	0	90	36.1581920903955	36.241610738255	18	0.600058007910848	2	8	4	NaN	2	3	0.0305027806128239	0	1	NaN	210	4	21	1	120	220	320	NaN	520	0.425104774534702	2	1	NaN	4558837.2699493	NaN	4558838.2533739	4558838.76989193
101	21	0	0	90	36.1581920903955	36.241610738255	17	0.566721451915801	2	1	3	NaN	1	4	0.0305027806128239	0	1	NaN	211	4	22	1	120	220	320	NaN	520	0.339473375119269	1	1	NaN	4558840.0035406	NaN	4558840.9869263	4558841.50348452
101	21	0	0	90	36.1581920903955	36.241610738255	23	0.766740787886083	2	9	6	NaN	2	3	0.0305027806128239	0	1	NaN	212	4	23	1	120	220	320	NaN	520	0.537136791273952	2	1	NaN	4558842.6538025	NaN	4558843.6371939	4558844.15375281
101	21	0	0	90	36.1581920903955	36.241610738255	25	0.833413899876177	2	1	6	NaN	1	4	0.0305027806128239	0	1	NaN	213	4	24	1	120	220	320	NaN	520	0.343091127462685	1	1	NaN	4558845.504089	NaN	4558846.4874945	4558847.00403847
101	21	0	0	90	36.1581920903955	36.241610738255	23	0.766740787886083	2	12	2	NaN	2	4	0.0305027806128239	0	1	NaN	214	4	25	1	120	220	320	NaN	520	0.332958927378058	1	0	NaN	4558848.1543512	NaN	4558849.1377753	4558849.65428977
101	21	0	0	90	36.1581920903955	36.241610738255	22	0.733404231891036	2	6	6	NaN	1	4	0.0305027806128239	0	1	NaN	215	4	26	1	120	220	320	NaN	520	0.53823547065258	1	1	NaN	4558850.8046001	NaN	4558851.7880038	4558852.30455543
101	21	0	0	90	36.1581920903955	36.241610738255	15	0.500048339925706	2	5	5	NaN	1	5	0.0305027806128239	0	1	NaN	216	4	27	1	120	220	320	NaN	520	0.470425775274634	1	1	NaN	4558853.9049535	NaN	4558854.8883348	4558855.40485132
101	21	0	0	90	36.1581920903955	36.241610738255	17	0.566721451915801	2	10	2	NaN	2	5	0.0305027806128239	0	1	NaN	217	4	28	1	120	220	320	NaN	520	0.446481526829302	1	0	NaN	4558856.688516	NaN	4558857.6719099	4558858.18847117
101	21	0	0	90	36.1581920903955	36.241610738255	25	0.833413899876177	2	3	6	NaN	1	4	0.0305027806128239	0	1	NaN	218	4	29	1	120	220	320	NaN	520	0.680533275008202	2	0	NaN	4558859.4387729	NaN	4558860.4221907	4558860.93873523
101	21	0	0	90	36.1581920903955	36.241610738255	12	0.400038671940565	2	12	4	NaN	2	4	0.0305027806128239	0	1	NaN	219	4	30	1	120	220	320	NaN	520	3.81585132330656	2	1	NaN	4558862.4390851	NaN	4558863.422467	4558863.93902478
101	21	0	0	90	36.1581920903955	36.241610738255	12	0.400038671940565	2	2	6	NaN	1	4	0.0305027806128239	0	1	NaN	220	4	31	1	120	220	320	NaN	520	0.354054475203156	1	1	NaN	4558868.5730021	NaN	4558869.5564097	4558870.07297223
101	21	0	0	90	36.1581920903955	36.241610738255	10	0.333365559950471	2	9	4	NaN	2	5	0.0305027806128239	0	1	NaN	221	4	32	1	120	220	320	NaN	520	0.342955127358437	1	0	NaN	4558871.2399358	NaN	4558872.2233654	4558872.73990027
101	21	0	0	90	36.1581920903955	36.241610738255	6	0.200019335970283	2	7	3	NaN	2	5	0.0305027806128239	0	1	NaN	222	4	33	1	120	220	320	NaN	520	0.525056474842131	2	1	NaN	4558873.8902138	NaN	4558874.8736299	4558875.39015143
101	21	0	0	90	36.1581920903955	36.241610738255	23	0.766740787886083	2	4	4	NaN	1	3	0.0305027806128239	0	1	NaN	223	4	34	1	120	220	320	NaN	520	2.55552852340043	1	1	NaN	4558876.7238156	NaN	4558877.7071999	4558878.22376708
101	21	0	0	90	36.1581920903955	36.241610738255	14	0.466711783930659	2	9	6	NaN	2	3	0.0305027806128239	0	1	NaN	224	4	35	1	120	220	320	NaN	520	0.464501323178411	1	0	NaN	4558881.5909699	NaN	4558882.5743652	4558883.09090848
101	21	0	0	90	36.1581920903955	36.241610738255	17	0.566721451915801	2	9	2	NaN	2	5	0.0305027806128239	0	1	NaN	225	4	36	1	120	220	320	NaN	520	0.624460127204657	1	0	NaN	4558884.3745851	NaN	4558885.3579523	4558885.87452617
101	21	0	0	90	36.1581920903955	36.241610738255	22	0.733404231891036	2	7	4	NaN	2	3	0.0305027806128239	0	1	NaN	226	4	37	1	120	220	320	NaN	520	0.354821975342929	1	0	NaN	4558887.3081964	NaN	4558888.2916123	4558888.80814672
101	21	0	0	90	36.1581920903955	36.241610738255	17	0.566721451915801	2	4	1	NaN	1	4	0.0305027806128239	0	1	NaN	227	4	38	1	120	220	320	NaN	520	0.52023777551949	1	1	NaN	4558889.9751263	NaN	4558890.9585471	4558891.47506842
101	21	0	0	90	36.1581920903955	36.241610738255	19	0.633394563905895	2	10	4	NaN	2	5	0.0305027806128239	0	1	NaN	228	4	39	1	120	220	320	NaN	520	0.126327374950051	2	1	NaN	4558892.808726	NaN	4558893.7920278	4558894.30867682
101	21	0	0	90	36.1581920903955	36.241610738255	7	0.23335589196533	2	5	5	NaN	1	5	0.0305027806128239	0	1	NaN	229	4	40	1	120	220	320	NaN	520	0.220765626989305	1	1	NaN	4558895.2423219	NaN	4558896.2257024	4558896.74225587
101	21	0	0	90	36.1581920903955	36.241610738255	15	0.500048339925706	2	11	6	NaN	2	5	0.0305027806128239	0	1	NaN	230	4	41	1	120	220	320	NaN	520	0.767505374737084	1	0	NaN	4558897.7759032	NaN	4558898.7592701	4558899.27584273
101	21	0	0	90	36.1581920903955	36.241610738255	21	0.700067675895989	2	11	3	NaN	2	3	0.0305027806128239	0	1	NaN	231	4	42	1	120	220	320	NaN	520	0.627947575412691	2	1	NaN	4558900.8595081	NaN	4558901.8429046	4558902.35947062
101	21	0	0	90	36.1581920903955	36.241610738255	14	0.466711783930659	2	1	4	NaN	1	5	0.0305027806128239	0	1	NaN	232	4	43	1	120	220	320	NaN	520	0.158024427480996	1	1	NaN	4558903.793142	NaN	4558904.7765466	4558905.29310277
101	21	0	0	90	36.1581920903955	36.241610738255	13	0.433375227935612	2	1	2	NaN	1	3	0.0305027806128239	0	1	NaN	233	4	44	1	120	220	320	NaN	520	0.323157027363777	1	1	NaN	4558906.2600645	NaN	4558907.2434397	4558907.76000127
101	21	0	0	90	36.1581920903955	36.241610738255	9	0.300029003955424	2	9	1	NaN	2	3	0.0305027806128239	0	1	NaN	234	4	45	1	120	220	320	NaN	520	0.281561074778438	2	1	NaN	4558908.8936628	NaN	4558909.8770737	4558910.39359923
101	21	0	0	90	36.1581920903955	36.241610738255	19	0.633394563905895	2	7	5	NaN	2	4	0.0305027806128239	0	1	NaN	235	4	46	1	120	220	320	NaN	520	0.37013737577945	1	0	NaN	4558911.4772263	NaN	4558912.4606295	4558912.97718782
101	21	0	0	90	36.1581920903955	36.241610738255	25	0.833413899876177	2	7	4	NaN	2	4	0.0305027806128239	0	1	NaN	236	4	47	1	120	220	320	NaN	520	0.390515775419772	1	0	NaN	4558914.160827	NaN	4558915.1442792	4558915.66078562
101	21	0	0	90	36.1581920903955	36.241610738255	23	0.766740787886083	2	1	3	NaN	1	4	0.0305027806128239	0	1	NaN	237	4	48	1	120	220	320	NaN	520	0.0420406758785248	2	0	NaN	4558916.8610929	NaN	4558917.8445038	4558918.36104552
101	21	0	0	90	36.1581920903955	36.241610738255	11	0.366702115945518	2	12	2	NaN	2	5	0.0305027806128239	0	1	NaN	238	4	49	1	120	220	320	NaN	520	0.203601174987853	2	1	NaN	4558919.2113678	NaN	4558920.1947264	4558920.71127332
101	21	0	0	90	36.1581920903955	36.241610738255	12	0.400038671940565	2	7	5	NaN	2	3	0.0305027806128239	0	1	NaN	239	4	50	1	120	220	320	NaN	520	0.479130127467215	2	1	NaN	4558921.7282175	NaN	4558922.7116652	4558923.22819967
101	21	0	0	90	36.1581920903955	36.241610738255	21	0.700067675895989	2	6	3	NaN	1	3	0.0305027806128239	0	1	NaN	240	4	51	1	120	220	320	NaN	520	0.383209775201976	2	0	NaN	4558924.5118414	NaN	4558925.4952473	4558926.01180482
101	21	0	0	90	36.1581920903955	36.241610738255	9	0.300029003955424	2	2	3	NaN	1	3	0.0305027806128239	0	1	NaN	241	4	52	1	120	220	320	NaN	520	1.31478327512741	2	0	NaN	4558927.2121252	NaN	4558928.19552	4558928.71206362
101	21	0	0	90	36.1581920903955	36.241610738255	6	0.200019335970283	2	1	3	NaN	1	4	0.0305027806128239	0	1	NaN	242	4	53	1	120	220	320	NaN	520	0.457248074933887	1	1	NaN	4558930.8458929	NaN	4558931.829236	4558932.34575152
101	21	0	0	90	36.1581920903955	36.241610738255	8	0.266692447960377	2	11	1	NaN	2	5	0.0305027806128239	0	1	NaN	243	4	54	1	120	220	320	NaN	520	0.562540574930608	1	0	NaN	4558933.612639	NaN	4558934.5961261	4558935.11269323
101	21	0	0	90	36.1581920903955	36.241610738255	12	0.400038671940565	2	10	2	NaN	2	5	0.0305027806128239	0	1	NaN	244	4	55	1	120	220	320	NaN	520	0.41535637434572	2	1	NaN	4558936.4796829	NaN	4558937.4630982	4558937.97964283
101	21	0	0	90	36.1581920903955	36.241610738255	16	0.533384895920753	2	11	3	NaN	2	5	0.0305027806128239	0	1	NaN	245	4	56	1	120	220	320	NaN	520	0.849813374690711	1	0	NaN	4558939.213291	NaN	4558940.1966798	4558940.71324662
101	21	0	0	90	36.1581920903955	36.241610738255	18	0.600058007910848	2	3	1	NaN	1	4	0.0305027806128239	0	1	NaN	246	4	57	1	120	220	320	NaN	520	0.490829175338149	2	0	NaN	4558942.3802939	NaN	4558943.3636766	4558943.88021842
101	21	0	0	90	36.1581920903955	36.241610738255	19	0.633394563905895	2	2	4	NaN	1	5	0.0305027806128239	0	1	NaN	247	4	58	1	120	220	320	NaN	520	0.386511675082147	2	0	NaN	4558945.180544	NaN	4558946.1639742	4558946.68049063
101	21	0	0	90	36.1581920903955	36.241610738255	16	0.533384895920753	2	2	1	NaN	1	5	0.0305027806128239	0	1	NaN	248	4	59	1	120	220	320	NaN	520	0.326224475167692	2	0	NaN	4558947.8808221	NaN	4558948.864199	4558949.38076042
101	21	0	0	90	36.1581920903955	36.241610738255	12	0.400038671940565	2	7	1	NaN	2	5	0.0305027806128239	0	1	NaN	249	4	60	1	120	220	320	NaN	520	0.620412427000701	1	0	NaN	4558950.5310777	NaN	4558951.514506	4558952.03103117
101	21	0	0	90	36.1581920903955	36.241610738255	21	0.700067675895989	2	8	2	NaN	2	4	0.0305027806128239	0	1	NaN	250	4	61	1	120	220	320	NaN	520	0.0104161752387881	1	0	NaN	4558953.4646842	NaN	4558954.4481023	4558954.96465022
101	21	0	0	90	36.1581920903955	36.241610738255	10	0.333365559950471	2	3	3	NaN	1	4	0.0305027806128239	0	1	NaN	251	4	62	1	120	220	320	NaN	520	0.361388427205384	1	1	NaN	4558955.7815842	NaN	4558956.7649882	4558957.28154527
101	21	0	0	90	36.1581920903955	36.241610738255	24	0.80007734388113	2	4	6	NaN	1	3	0.0305027806128239	0	1	NaN	252	4	63	1	120	220	320	NaN	520	0.309856090694666	1	1	NaN	4558958.4651987	NaN	4558959.4485851	4558959.96514171
101	21	0	0	90	36.1581920903955	36.241610738255	24	0.80007734388113	2	9	5	NaN	2	5	0.0305027806128239	0	1	NaN	253	5	1	1	120	220	320	NaN	520	1.02017302718014	2	1	NaN	4558990.0349466	NaN	4558991.0183538	4558991.53491347
101	21	0	0	90	36.1581920903955	36.241610738255	21	0.700067675895989	2	7	6	NaN	2	4	0.0305027806128239	0	1	NaN	254	5	2	1	120	220	320	NaN	520	0.502602675929666	2	1	NaN	4558993.3686191	NaN	4558994.3520243	4558994.86856272
101	21	0	0	90	36.1581920903955	36.241610738255	11	0.366702115945518	2	3	3	NaN	1	3	0.0305027806128239	0	1	NaN	255	5	3	1	120	220	320	NaN	520	0.40575207490474	2	0	NaN	4558996.1855321	NaN	4558997.1689616	4558997.68550923
101	21	0	0	90	36.1581920903955	36.241610738255	15	0.500048339925706	2	10	5	NaN	2	3	0.0305027806128239	0	1	NaN	256	5	4	1	120	220	320	NaN	520	0.4168202271685	2	1	NaN	4558998.9024905	NaN	4558999.8858952	4559000.40245017
101	21	0	0	90	36.1581920903955	36.241610738255	12	0.400038671940565	2	6	1	NaN	1	5	0.0305027806128239	0	1	NaN	257	5	5	1	120	220	320	NaN	520	0.435373227111995	1	1	NaN	4559001.6359666	NaN	4559002.6194946	4559003.13604267
101	21	0	0	90	36.1581920903955	36.241610738255	8	0.266692447960377	2	8	4	NaN	2	3	0.0305027806128239	0	1	NaN	258	5	6	1	120	220	320	NaN	520	0.956931526772678	2	1	NaN	4559004.386233	NaN	4559005.3697681	4559005.88632387
101	21	0	0	90	36.1581920903955	36.241610738255	11	0.366702115945518	2	10	2	NaN	2	4	0.0305027806128239	0	1	NaN	259	5	7	1	120	220	320	NaN	520	0.361892875283957	1	0	NaN	4559007.6533494	NaN	4559008.636766	4559009.15330162
101	21	0	0	90	36.1581920903955	36.241610738255	20	0.666731119900942	2	2	1	NaN	1	3	0.0305027806128239	0	1	NaN	260	5	8	1	120	220	320	NaN	520	0.350217683240771	2	0	NaN	4559010.3369532	NaN	4559011.3203654	4559011.83690222
101	21	0	0	90	36.1581920903955	36.241610738255	23	0.766740787886083	2	1	5	NaN	1	3	0.0305027806128239	0	1	NaN	261	5	9	1	120	220	320	NaN	520	0.579322875477374	2	0	NaN	4559013.0039097	NaN	4559013.9872793	4559014.50382772
101	21	0	0	90	36.1581920903955	36.241610738255	15	0.500048339925706	2	7	4	NaN	2	5	0.0305027806128239	0	1	NaN	262	5	10	1	120	220	320	NaN	520	0.463938075117767	1	0	NaN	4559015.8874957	NaN	4559016.8708904	4559017.38744572
101	21	0	0	90	36.1581920903955	36.241610738255	25	0.833413899876177	2	11	1	NaN	2	4	0.0305027806128239	0	1	NaN	263	5	11	1	120	220	320	NaN	520	0.592109975405037	2	1	NaN	4559018.671075	NaN	4559019.6545043	4559020.17104852
101	21	0	0	90	36.1581920903955	36.241610738255	9	0.300029003955424	2	5	3	NaN	1	5	0.0305027806128239	0	1	NaN	264	5	12	1	120	220	320	NaN	520	0.636069227010012	1	1	NaN	4559021.5713646	NaN	4559022.5547868	4559023.07134707
101	21	0	0	90	36.1581920903955	36.241610738255	21	0.700067675895989	2	4	1	NaN	1	4	0.0305027806128239	0	1	NaN	265	5	13	1	120	220	320	NaN	520	0.445628923363984	1	1	NaN	4559024.5216789	NaN	4559025.5050821	4559026.02163318
101	21	0	0	90	36.1581920903955	36.241610738255	19	0.633394563905895	2	10	1	NaN	2	4	0.0305027806128239	0	1	NaN	266	5	14	1	120	220	320	NaN	520	0.0232928711920977	2	1	NaN	4559027.2720437	NaN	4559028.2553531	4559028.77189553
101	21	0	0	90	36.1581920903955	36.241610738255	12	0.400038671940565	2	1	3	NaN	1	5	0.0305027806128239	0	1	NaN	267	5	15	1	120	220	320	NaN	520	0.242023275233805	1	1	NaN	4559029.605524	NaN	4559030.5889154	4559031.10545532
101	21	0	0	90	36.1581920903955	36.241610738255	22	0.733404231891036	2	12	6	NaN	2	4	0.0305027806128239	0	1	NaN	268	5	16	1	120	220	320	NaN	520	0.379669027402997	2	1	NaN	4559032.1558061	NaN	4559033.1391612	4559033.65572107
101	21	0	0	90	36.1581920903955	36.241610738255	18	0.600058007910848	2	12	6	NaN	2	3	0.0305027806128239	0	1	NaN	269	5	17	1	120	220	320	NaN	520	0.415918227285147	2	1	NaN	4559034.8392516	NaN	4559035.8227522	4559036.33931707
101	21	0	0	90	36.1581920903955	36.241610738255	14	0.466711783930659	2	6	2	NaN	1	5	0.0305027806128239	0	1	NaN	270	5	18	1	120	220	320	NaN	520	0.431959391571581	1	1	NaN	4559037.8396882	NaN	4559038.8230502	4559039.33960661
101	21	0	0	90	36.1581920903955	36.241610738255	20	0.666731119900942	2	10	4	NaN	2	4	0.0305027806128239	0	1	NaN	271	5	19	1	120	220	320	NaN	520	0.513303722254932	2	1	NaN	4559040.5899169	NaN	4559041.5733282	4559042.08986908
101	21	0	0	90	36.1581920903955	36.241610738255	10	0.333365559950471	2	4	3	NaN	1	5	0.0305027806128239	0	1	NaN	272	5	20	1	120	220	320	NaN	520	0.431602974422276	1	1	NaN	4559043.4235417	NaN	4559044.4069437	4559044.92348653
101	21	0	0	90	36.1581920903955	36.241610738255	22	0.733404231891036	2	11	1	NaN	2	4	0.0305027806128239	0	1	NaN	273	5	21	1	120	220	320	NaN	520	0.465670179575682	2	1	NaN	4559046.1738531	NaN	4559047.157211	4559047.67376292
101	21	0	0	90	36.1581920903955	36.241610738255	14	0.466711783930659	2	9	5	NaN	2	4	0.0305027806128239	0	1	NaN	274	5	22	1	120	220	320	NaN	520	0.417878127656877	1	0	NaN	4559048.9574301	NaN	4559049.9408162	4559050.45737217
101	21	0	0	90	36.1581920903955	36.241610738255	7	0.23335589196533	2	10	4	NaN	2	3	0.0305027806128239	0	1	NaN	275	5	23	1	120	220	320	NaN	520	0.316162874922156	2	1	NaN	4559051.6910087	NaN	4559052.6744212	4559053.19096383
101	21	0	0	90	36.1581920903955	36.241610738255	6	0.200019335970283	2	6	1	NaN	1	3	0.0305027806128239	0	1	NaN	276	5	24	1	120	220	320	NaN	520	0.266808543354273	1	1	NaN	4559054.3246112	NaN	4559055.3080088	4559055.82456036
101	21	0	0	90	36.1581920903955	36.241610738255	21	0.700067675895989	2	5	2	NaN	1	3	0.0305027806128239	0	1	NaN	277	5	25	1	120	220	320	NaN	520	0.386865123175085	2	0	NaN	4559056.9081897	NaN	4559057.8915767	4559058.40814228
101	21	0	0	90	36.1581920903955	36.241610738255	18	0.600058007910848	2	11	3	NaN	2	5	0.0305027806128239	0	1	NaN	278	5	26	1	120	220	320	NaN	520	0.492190275341272	2	1	NaN	4559060.0751437	NaN	4559061.0585704	4559061.57512653
101	21	0	0	90	36.1581920903955	36.241610738255	0	0	1	10	4	NaN	2	4	0.0305027806128239	0	1	NaN	279	5	27	1	110	210	310	NaN	510	0.252166123129427	2	1	NaN	4559062.8754616	NaN	4559063.85885	4559064.37540238
101	21	0	0	90	36.1581920903955	36.241610738255	17	0.566721451915801	2	8	3	NaN	2	4	0.0305027806128239	0	1	NaN	280	5	28	1	120	220	320	NaN	520	0.43694712780416	2	1	NaN	4559065.4424094	NaN	4559066.4257969	4559066.94232477
101	21	0	0	90	36.1581920903955	36.241610738255	8	0.266692447960377	2	9	2	NaN	2	4	0.0305027806128239	0	1	NaN	281	5	29	1	120	220	320	NaN	520	0.694571127183735	2	1	NaN	4559068.1926385	NaN	4559069.1760277	4559069.69259407
101	21	0	0	90	36.1581920903955	36.241610738255	22	0.733404231891036	2	12	4	NaN	2	5	0.0305027806128239	0	1	NaN	282	5	30	1	120	220	320	NaN	520	0.309634175151587	1	0	NaN	4559071.209479	NaN	4559072.1929971	4559072.70954712
101	21	0	0	90	36.1581920903955	36.241610738255	11	0.366702115945518	2	1	5	NaN	1	5	0.0305027806128239	0	1	NaN	283	5	31	1	120	220	320	NaN	520	0.396772580221295	1	1	NaN	4559073.8265411	NaN	4559074.8099292	4559075.32647992
101	21	0	0	90	36.1581920903955	36.241610738255	13	0.433375227935612	2	8	2	NaN	2	3	0.0305027806128239	0	1	NaN	284	5	32	1	120	220	320	NaN	520	0.399715975858271	1	0	NaN	4559076.5434865	NaN	4559077.5268581	4559078.04340392
101	21	0	0	90	36.1581920903955	36.241610738255	18	0.600058007910848	2	1	6	NaN	1	5	0.0305027806128239	0	1	NaN	285	5	33	1	120	220	320	NaN	520	0.891338274814188	2	0	NaN	4559079.2603676	NaN	4559080.2437923	4559080.76033833
101	21	0	0	90	36.1581920903955	36.241610738255	8	0.266692447960377	2	10	1	NaN	2	3	0.0305027806128239	0	1	NaN	286	5	34	1	120	220	320	NaN	520	0.434561975300312	2	1	NaN	4559082.4607023	NaN	4559083.4441019	4559083.96065202
101	21	0	0	90	36.1581920903955	36.241610738255	22	0.733404231891036	2	8	5	NaN	2	3	0.0305027806128239	0	1	NaN	287	5	35	1	120	220	320	NaN	520	0.572426774539053	2	1	NaN	4559085.2109858	NaN	4559086.1943815	4559086.71092283
101	21	0	0	90	36.1581920903955	36.241610738255	7	0.23335589196533	2	11	2	NaN	2	5	0.0305027806128239	0	1	NaN	288	5	36	1	120	220	320	NaN	520	0.360981327481568	2	1	NaN	4559088.0944825	NaN	4559089.0779947	4559089.59455267
101	21	0	0	90	36.1581920903955	36.241610738255	14	0.466711783930659	2	3	2	NaN	1	4	0.0305027806128239	0	1	NaN	289	5	37	1	120	220	320	NaN	520	0.478166479617357	1	1	NaN	4559090.7615127	NaN	4559091.7449219	4559092.26148122
101	21	0	0	90	36.1581920903955	36.241610738255	24	0.80007734388113	2	12	1	NaN	2	4	0.0305027806128239	0	1	NaN	290	5	38	1	120	220	320	NaN	520	0.453494726680219	1	0	NaN	4559093.5617979	NaN	4559094.5451825	4559095.06175197
101	21	0	0	90	36.1581920903955	36.241610738255	8	0.266692447960377	2	12	1	NaN	2	5	0.0305027806128239	0	1	NaN	291	5	39	1	120	220	320	NaN	520	3.67848507501185	2	1	NaN	4559096.3287457	NaN	4559097.3121398	4559097.82868353
101	21	0	0	90	36.1581920903955	36.241610738255	25	0.833413899876177	2	6	1	NaN	1	3	0.0305027806128239	0	1	NaN	292	5	40	1	120	220	320	NaN	520	0.0861239759251475	1	1	NaN	4559102.3293461	NaN	4559103.3127254	4559103.82927412
101	21	0	0	90	36.1581920903955	36.241610738255	11	0.366702115945518	2	6	3	NaN	1	3	0.0305027806128239	0	1	NaN	293	5	41	1	120	220	320	NaN	520	0.445736727677286	1	1	NaN	4559104.7295639	NaN	4559105.7128667	4559106.22950897
101	21	0	0	90	36.1581920903955	36.241610738255	14	0.466711783930659	2	1	2	NaN	1	5	0.0305027806128239	0	1	NaN	294	5	42	1	120	220	320	NaN	520	0.30317422747612	1	1	NaN	4559107.4964962	NaN	4559108.4799269	4559108.99645177
101	21	0	0	90	36.1581920903955	36.241610738255	14	0.466711783930659	2	8	2	NaN	2	3	0.0305027806128239	0	1	NaN	295	5	43	1	120	220	320	NaN	520	0.950074679218233	2	1	NaN	4559110.1134118	NaN	4559111.0968284	4559111.61337812
101	21	0	0	90	36.1581920903955	36.241610738255	22	0.733404231891036	2	6	2	NaN	1	3	0.0305027806128239	0	1	NaN	296	5	44	1	120	220	320	NaN	520	0.323260543867946	1	1	NaN	4559113.3804258	NaN	4559114.3638038	4559114.88037536
101	21	0	0	90	36.1581920903955	36.241610738255	18	0.600058007910848	2	6	5	NaN	1	5	0.0305027806128239	0	1	NaN	297	5	45	1	120	220	320	NaN	520	0.0494177099317312	2	0	NaN	4559116.0140016	NaN	4559116.9974053	4559117.51395279
101	21	0	0	90	36.1581920903955	36.241610738255	13	0.433375227935612	2	2	5	NaN	1	3	0.0305027806128239	0	1	NaN	298	5	46	1	120	220	320	NaN	520	0.162417674437165	2	0	NaN	4559118.3809064	NaN	4559119.364306	4559119.88085413
101	21	0	0	90	36.1581920903955	36.241610738255	14	0.466711783930659	2	6	4	NaN	1	5	0.0305027806128239	0	1	NaN	299	5	47	1	120	220	320	NaN	520	2.3188260756433	2	0	NaN	4559120.864577	NaN	4559121.8478804	4559122.36443182
101	21	0	0	90	36.1581920903955	36.241610738255	24	0.80007734388113	2	6	3	NaN	1	3	0.0305027806128239	0	1	NaN	300	5	48	1	120	220	320	NaN	520	0.0532690230756998	1	1	NaN	4559125.4982681	NaN	4559126.4816682	4559126.99821438
101	21	0	0	90	36.1581920903955	36.241610738255	18	0.600058007910848	2	9	5	NaN	2	5	0.0305027806128239	0	1	NaN	301	5	49	1	120	220	320	NaN	520	0.325853575952351	2	1	NaN	4559128.2818479	NaN	4559129.2652844	4559129.78182372
101	21	0	0	90	36.1581920903955	36.241610738255	15	0.500048339925706	2	9	6	NaN	2	5	0.0305027806128239	0	1	NaN	302	5	50	1	120	220	320	NaN	520	0.243336043320596	1	0	NaN	4559130.9321547	NaN	4559131.9155753	4559132.43209986
101	21	0	0	90	36.1581920903955	36.241610738255	20	0.666731119900942	2	4	1	NaN	1	3	0.0305027806128239	0	1	NaN	303	5	51	1	120	220	320	NaN	520	0.309453539550304	1	1	NaN	4559133.4824042	NaN	4559134.4657943	4559134.98234256
101	21	0	0	90	36.1581920903955	36.241610738255	22	0.733404231891036	2	4	1	NaN	1	5	0.0305027806128239	0	1	NaN	304	5	52	1	120	220	320	NaN	520	0.596396426670253	1	1	NaN	4559136.0993142	NaN	4559137.0827122	4559137.59927057
101	21	0	0	90	36.1581920903955	36.241610738255	12	0.400038671940565	2	8	1	NaN	2	3	0.0305027806128239	0	1	NaN	305	5	53	1	120	220	320	NaN	520	0.904193975031376	2	1	NaN	4559138.9995853	NaN	4559139.9829715	4559140.49954422
101	21	0	0	90	36.1581920903955	36.241610738255	25	0.833413899876177	2	2	3	NaN	1	4	0.0305027806128239	0	1	NaN	306	5	54	1	120	220	320	NaN	520	0.399152127094567	2	0	NaN	4559142.2165663	NaN	4559143.2000027	4559143.71652517
101	21	0	0	90	36.1581920903955	36.241610738255	21	0.700067675895989	2	1	6	NaN	1	5	0.0305027806128239	0	1	NaN	307	5	55	1	120	220	320	NaN	520	0.737888475880027	1	1	NaN	4559144.9335156	NaN	4559145.9169185	4559146.43345832
101	21	0	0	90	36.1581920903955	36.241610738255	8	0.266692447960377	2	3	4	NaN	1	4	0.0305027806128239	0	1	NaN	308	5	56	1	120	220	320	NaN	520	0.351867275312543	1	1	NaN	4559147.9837059	NaN	4559148.9672053	4559149.48375772
101	21	0	0	90	36.1581920903955	36.241610738255	16	0.533384895920753	2	6	5	NaN	1	5	0.0305027806128239	0	1	NaN	309	5	57	1	120	220	320	NaN	520	0.428561975248158	1	1	NaN	4559150.6507431	NaN	4559151.6341461	4559152.15068662
101	21	0	0	90	36.1581920903955	36.241610738255	23	0.766740787886083	2	6	4	NaN	1	4	0.0305027806128239	0	1	NaN	310	5	58	1	120	220	320	NaN	520	0.446531374938786	1	1	NaN	4559153.4010104	NaN	4559154.3844924	4559154.90096113
101	21	0	0	90	36.1581920903955	36.241610738255	25	0.833413899876177	2	2	3	NaN	1	4	0.0305027806128239	0	1	NaN	311	5	59	1	120	220	320	NaN	520	0.271550375036895	1	1	NaN	4559156.1679525	NaN	4559157.1513527	4559157.66789842
101	21	0	0	90	36.1581920903955	36.241610738255	15	0.500048339925706	2	11	4	NaN	2	4	0.0305027806128239	0	1	NaN	312	5	60	1	120	220	320	NaN	520	1.49562362674624	1	0	NaN	4559159.1514609	NaN	4559160.1349665	4559160.65153567
101	21	0	0	90	36.1581920903955	36.241610738255	0	0	1	10	5	NaN	2	3	0.0305027806128239	0	1	NaN	313	5	61	1	110	210	310	NaN	510	1.92184067517519	2	1	NaN	4559166.6856355	NaN	4559167.6690528	4559168.18560603
101	21	0	0	90	36.1581920903955	36.241610738255	6	0.200019335970283	2	8	3	NaN	2	5	0.0305027806128239	0	1	NaN	314	5	62	1	120	220	320	NaN	520	1.10429212730378	2	1	NaN	4559170.9192996	NaN	4559171.9028014	4559172.41935767
101	21	0	0	90	36.1581920903955	36.241610738255	20	0.666731119900942	2	9	1	NaN	2	4	0.0305027806128239	0	1	NaN	315	5	63	1	120	220	320	NaN	520	1.11909187585115	1	0	NaN	4559174.3364149	NaN	4559175.3197812	4559175.83635222
101	21	0	0	90	36.1581920903955	36.241610738255	16	0.533384895920753	2	10	5	NaN	2	4	0.0305027806128239	0	1	NaN	316	6	1	1	120	220	320	NaN	520	0.834475727751851	1	0	NaN	4559212.7568848	NaN	4559213.7402463	4559214.25680347
101	21	0	0	90	36.1581920903955	36.241610738255	23	0.766740787886083	2	8	1	NaN	2	3	0.0305027806128239	0	1	NaN	317	6	2	1	120	220	320	NaN	520	0.460623922757804	1	0	NaN	4559215.9071657	NaN	4559216.8905502	4559217.40709868
101	21	0	0	90	36.1581920903955	36.241610738255	17	0.566721451915801	2	3	2	NaN	1	3	0.0305027806128239	0	1	NaN	318	6	3	1	120	220	320	NaN	520	0.476699726656079	2	0	NaN	4559218.6907697	NaN	4559219.6741713	4559220.19071307
101	21	0	0	90	36.1581920903955	36.241610738255	18	0.600058007910848	2	8	3	NaN	2	4	0.0305027806128239	0	1	NaN	319	6	4	1	120	220	320	NaN	520	0.365208227187395	2	1	NaN	4559221.4743686	NaN	4559222.4577659	4559222.97432697
101	21	0	0	90	36.1581920903955	36.241610738255	24	0.80007734388113	2	9	1	NaN	2	3	0.0305027806128239	0	1	NaN	320	6	5	1	120	220	320	NaN	520	0.313900174573064	2	1	NaN	4559224.1579701	NaN	4559225.1413716	4559225.65791743
101	21	0	0	90	36.1581920903955	36.241610738255	17	0.566721451915801	2	7	4	NaN	2	3	0.0305027806128239	0	1	NaN	321	6	6	1	120	220	320	NaN	520	0.376005874946713	2	1	NaN	4559226.7915476	NaN	4559227.7749678	4559228.29150193
101	21	0	0	90	36.1581920903955	36.241610738255	8	0.266692447960377	2	10	6	NaN	2	3	0.0305027806128239	0	1	NaN	322	6	7	1	120	220	320	NaN	520	0.0203736750409007	1	0	NaN	4559229.475184	NaN	4559230.4585407	4559230.97510182
101	21	0	0	90	36.1581920903955	36.241610738255	12	0.400038671940565	2	2	4	NaN	1	5	0.0305027806128239	0	1	NaN	323	6	8	1	120	220	320	NaN	520	0.55873507540673	2	0	NaN	4559231.8087217	NaN	4559232.7921279	4559233.30866672
101	21	0	0	90	36.1581920903955	36.241610738255	11	0.366702115945518	2	7	1	NaN	2	5	0.0305027806128239	0	1	NaN	324	6	9	1	120	220	320	NaN	520	0.524223974905908	2	1	NaN	4559234.6756618	NaN	4559235.6590467	4559236.17562062
101	21	0	0	90	36.1581920903955	36.241610738255	0	0	1	2	6	NaN	1	5	0.0305027806128239	0	1	NaN	325	6	10	1	110	210	310	NaN	510	0.0104058757424355	1	1	NaN	4559237.5092754	NaN	4559238.4926626	4559239.00922912
101	21	0	0	90	36.1581920903955	36.241610738255	16	0.533384895920753	2	4	4	NaN	1	4	0.0305027806128239	0	1	NaN	326	6	11	1	120	220	320	NaN	520	0.341237927787006	1	1	NaN	4559239.8261617	NaN	4559240.8095725	4559241.32612847
101	21	0	0	90	36.1581920903955	36.241610738255	15	0.500048339925706	2	7	3	NaN	2	5	0.0305027806128239	0	1	NaN	327	6	12	1	120	220	320	NaN	520	3.57100027054548	2	1	NaN	4559242.4764177	NaN	4559243.4598326	4559243.97639163
101	21	0	0	90	36.1581920903955	36.241610738255	16	0.533384895920753	2	12	2	NaN	2	3	0.0305027806128239	0	1	NaN	328	6	13	1	120	220	320	NaN	520	0.455243575386703	1	0	NaN	4559248.3603548	NaN	4559249.3437658	4559249.86031072
101	21	0	0	90	36.1581920903955	36.241610738255	8	0.266692447960377	2	2	6	NaN	1	4	0.0305027806128239	0	1	NaN	329	6	14	1	120	220	320	NaN	520	0.408284374512732	1	1	NaN	4559251.1271678	NaN	4559252.1106846	4559252.62722783
101	21	0	0	90	36.1581920903955	36.241610738255	15	0.500048339925706	2	4	5	NaN	1	4	0.0305027806128239	0	1	NaN	330	6	15	1	120	220	320	NaN	520	0.515166322700679	1	1	NaN	4559253.8442119	NaN	4559254.8276131	4559255.34416198
101	21	0	0	90	36.1581920903955	36.241610738255	7	0.23335589196533	2	7	6	NaN	2	4	0.0305027806128239	0	1	NaN	331	6	16	1	120	220	320	NaN	520	0.378358727321029	1	0	NaN	4559256.6611637	NaN	4559257.6445569	4559258.16110847
101	21	0	0	90	36.1581920903955	36.241610738255	22	0.733404231891036	2	11	6	NaN	2	4	0.0305027806128239	0	1	NaN	332	6	17	1	120	220	320	NaN	520	0.398901782929897	2	1	NaN	4559259.3447868	NaN	4559260.3281594	4559260.84471152
101	21	0	0	90	36.1581920903955	36.241610738255	9	0.300029003955424	2	4	5	NaN	1	5	0.0305027806128239	0	1	NaN	333	6	18	1	120	220	320	NaN	520	0.89770317543298	1	1	NaN	4559262.0615661	NaN	4559263.0451181	4559263.56164193
101	21	0	0	90	36.1581920903955	36.241610738255	24	0.80007734388113	2	11	4	NaN	2	5	0.0305027806128239	0	1	NaN	334	6	19	1	120	220	320	NaN	520	0.344942079856992	2	1	NaN	4559265.2786717	NaN	4559266.262078	4559266.77862812
101	21	0	0	90	36.1581920903955	36.241610738255	19	0.633394563905895	2	8	1	NaN	2	4	0.0305027806128239	0	1	NaN	335	6	20	1	120	220	320	NaN	520	0.69496207498014	2	1	NaN	4559267.9289077	NaN	4559268.9123353	4559269.42888932
101	21	0	0	90	36.1581920903955	36.241610738255	11	0.366702115945518	2	8	6	NaN	2	5	0.0305027806128239	0	1	NaN	336	6	21	1	120	220	320	NaN	520	0.54265646263957	1	0	NaN	4559270.9292341	NaN	4559271.9126598	4559272.42917534
101	21	0	0	90	36.1581920903955	36.241610738255	20	0.666731119900942	2	3	2	NaN	1	5	0.0305027806128239	0	1	NaN	337	6	22	1	120	220	320	NaN	520	0.356293427757919	1	1	NaN	4559273.7795079	NaN	4559274.7629227	4559275.27946537
101	21	0	0	90	36.1581920903955	36.241610738255	7	0.23335589196533	2	1	2	NaN	1	5	0.0305027806128239	0	1	NaN	338	6	23	1	120	220	320	NaN	520	0.433088027872145	1	1	NaN	4559276.4464501	NaN	4559277.429842	4559277.94638807
101	21	0	0	90	36.1581920903955	36.241610738255	0	0	1	3	6	NaN	1	4	0.0305027806128239	0	1	NaN	339	6	24	1	110	210	310	NaN	510	0.090973075479269	2	0	NaN	4559279.1967098	NaN	4559280.1800951	4559280.69665562
101	21	0	0	90	36.1581920903955	36.241610738255	0	0	1	4	6	NaN	1	5	0.0305027806128239	0	1	NaN	340	6	25	1	110	210	310	NaN	510	0.594611975364387	1	1	NaN	4559281.5968391	NaN	4559282.5803246	4559283.09689322
101	21	0	0	90	36.1581920903955	36.241610738255	23	0.766740787886083	2	11	3	NaN	2	3	0.0305027806128239	0	1	NaN	341	6	26	1	120	220	320	NaN	520	0.214443726465106	1	0	NaN	4559284.4972282	NaN	4559285.4805408	4559285.99718337
101	21	0	0	90	36.1581920903955	36.241610738255	19	0.633394563905895	2	9	6	NaN	2	4	0.0305027806128239	0	1	NaN	342	6	27	1	120	220	320	NaN	520	0.47272527590394	1	0	NaN	4559287.0308233	NaN	4559288.0142125	4559288.53076032
101	21	0	0	90	36.1581920903955	36.241610738255	15	0.500048339925706	2	10	2	NaN	2	3	0.0305027806128239	0	1	NaN	343	6	28	1	120	220	320	NaN	520	0.273456475697458	1	0	NaN	4559289.8144163	NaN	4559290.7978085	4559291.31436662
101	21	0	0	90	36.1581920903955	36.241610738255	6	0.200019335970283	2	11	5	NaN	2	3	0.0305027806128239	0	1	NaN	344	6	29	1	120	220	320	NaN	520	0.337413075380027	2	1	NaN	4559292.3980146	NaN	4559293.3814197	4559293.89795772
101	21	0	0	90	36.1581920903955	36.241610738255	24	0.80007734388113	2	4	4	NaN	1	5	0.0305027806128239	0	1	NaN	345	6	30	1	120	220	320	NaN	520	0.335312775336206	1	1	NaN	4559295.0481539	NaN	4559296.0316836	4559296.54821012
101	21	0	0	90	36.1581920903955	36.241610738255	13	0.433375227935612	2	2	6	NaN	1	3	0.0305027806128239	0	1	NaN	346	6	31	1	120	220	320	NaN	520	0.0457913754507899	1	1	NaN	4559297.681871	NaN	4559298.6652373	4559299.18180712
101	21	0	0	90	36.1581920903955	36.241610738255	24	0.80007734388113	2	10	6	NaN	2	3	0.0305027806128239	0	1	NaN	347	6	32	1	120	220	320	NaN	520	0.0104124750941992	1	0	NaN	4559300.0320122	NaN	4559301.0154863	4559301.53204213
101	21	0	0	90	36.1581920903955	36.241610738255	20	0.666731119900942	2	6	2	NaN	1	3	0.0305027806128239	0	1	NaN	348	6	33	1	120	220	320	NaN	520	0.290194222703576	1	1	NaN	4559302.3656453	NaN	4559303.3490604	4559303.86559758
101	21	0	0	90	36.1581920903955	36.241610738255	21	0.700067675895989	2	2	6	NaN	1	4	0.0305027806128239	0	1	NaN	349	6	34	1	120	220	320	NaN	520	0.201688575558364	1	1	NaN	4559304.9659228	NaN	4559305.9493091	4559306.46585532
101	21	0	0	90	36.1581920903955	36.241610738255	25	0.833413899876177	2	5	4	NaN	1	5	0.0305027806128239	0	1	NaN	350	6	35	1	120	220	320	NaN	520	0.228823344223201	1	1	NaN	4559307.4828154	NaN	4559308.4662287	4559308.98277416
101	21	0	0	90	36.1581920903955	36.241610738255	15	0.500048339925706	2	1	4	NaN	1	3	0.0305027806128239	0	1	NaN	351	6	36	1	120	220	320	NaN	520	0.303539575077593	1	1	NaN	4559310.0164036	NaN	4559310.9998355	4559311.51636062
101	21	0	0	90	36.1581920903955	36.241610738255	22	0.733404231891036	2	10	4	NaN	2	5	0.0305027806128239	0	1	NaN	352	6	37	1	120	220	320	NaN	520	0.0703459791839123	1	0	NaN	4559312.6333193	NaN	4559313.6167328	4559314.13328202
101	21	0	0	90	36.1581920903955	36.241610738255	15	0.500048339925706	2	2	6	NaN	1	4	0.0305027806128239	0	1	NaN	353	6	38	1	120	220	320	NaN	520	4.5750386742875	1	1	NaN	4559315.0167563	NaN	4559316.0003034	4559316.51684443
101	21	0	0	90	36.1581920903955	36.241610738255	25	0.833413899876177	2	8	6	NaN	2	5	0.0305027806128239	0	1	NaN	354	6	39	1	120	220	320	NaN	520	0.378138475120068	2	1	NaN	4559321.9175782	NaN	4559322.9009807	4559323.41751863
101	21	0	0	90	36.1581920903955	36.241610738255	19	0.633394563905895	2	6	4	NaN	1	3	0.0305027806128239	0	1	NaN	355	6	40	1	120	220	320	NaN	520	0.0146107748150826	1	1	NaN	4559324.6011882	NaN	4559325.5845761	4559326.10111483
101	21	0	0	90	36.1581920903955	36.241610738255	16	0.533384895920753	2	4	6	NaN	1	5	0.0305027806128239	0	1	NaN	356	6	41	1	120	220	320	NaN	520	0.29832517541945	1	1	NaN	4559327.3013502	NaN	4559328.2848584	4559328.80138072
101	21	0	0	90	36.1581920903955	36.241610738255	7	0.23335589196533	2	4	1	NaN	1	4	0.0305027806128239	0	1	NaN	357	6	42	1	120	220	320	NaN	520	0.0980052752420306	1	1	NaN	4559329.9017069	NaN	4559330.8850791	4559331.40164382
101	21	0	0	90	36.1581920903955	36.241610738255	22	0.733404231891036	2	9	5	NaN	2	3	0.0305027806128239	0	1	NaN	358	6	43	1	120	220	320	NaN	520	0.842124274931848	2	1	NaN	4559332.3019165	NaN	4559333.2853261	4559333.80186963
101	21	0	0	90	36.1581920903955	36.241610738255	17	0.566721451915801	2	2	5	NaN	1	5	0.0305027806128239	0	1	NaN	359	6	44	1	120	220	320	NaN	520	0.451783522963524	1	1	NaN	4559335.4522307	NaN	4559336.4356351	4559336.95218048
101	21	0	0	90	36.1581920903955	36.241610738255	9	0.300029003955424	2	8	1	NaN	2	3	0.0305027806128239	0	1	NaN	360	6	45	1	120	220	320	NaN	520	0.0104178749024868	2	1	NaN	4559338.2191809	NaN	4559339.2025731	4559339.71912212
101	21	0	0	90	36.1581920903955	36.241610738255	15	0.500048339925706	2	5	1	NaN	1	3	0.0305027806128239	0	1	NaN	361	6	46	1	120	220	320	NaN	520	4.41546797472984	1	1	NaN	4559340.5359538	NaN	4559341.5194435	4559342.03601373
101	21	0	0	90	36.1581920903955	36.241610738255	16	0.533384895920753	2	3	4	NaN	1	4	0.0305027806128239	0	1	NaN	362	6	47	1	120	220	320	NaN	520	0.417675875127316	2	0	NaN	4559347.2700024	NaN	4559348.2534598	4559348.77001902
101	21	0	0	90	36.1581920903955	36.241610738255	17	0.566721451915801	2	8	1	NaN	2	4	0.0305027806128239	0	1	NaN	363	6	48	1	120	220	320	NaN	520	0.275971174240112	2	1	NaN	4559350.0036918	NaN	4559350.9871003	4559351.50361453
101	21	0	0	90	36.1581920903955	36.241610738255	22	0.733404231891036	2	4	2	NaN	1	5	0.0305027806128239	0	1	NaN	364	6	49	1	120	220	320	NaN	520	0.260293618775904	1	1	NaN	4559352.5871262	NaN	4559353.570632	4559354.08719978
101	21	0	0	90	36.1581920903955	36.241610738255	11	0.366702115945518	2	4	3	NaN	1	3	0.0305027806128239	0	1	NaN	365	6	50	1	120	220	320	NaN	520	0.293656075373292	2	0	NaN	4559355.1541679	NaN	4559356.1375673	4559356.65411702
101	21	0	0	90	36.1581920903955	36.241610738255	17	0.566721451915801	2	3	3	NaN	1	4	0.0305027806128239	0	1	NaN	366	6	51	1	120	220	320	NaN	520	0.269384775310755	1	1	NaN	4559357.7543038	NaN	4559358.7378288	4559359.25437632
101	21	0	0	90	36.1581920903955	36.241610738255	12	0.400038671940565	2	11	2	NaN	2	5	0.0305027806128239	0	1	NaN	367	6	52	1	120	220	320	NaN	520	0.341646774671972	1	0	NaN	4559360.3380223	NaN	4559361.3214242	4559361.83796703
101	21	0	0	90	36.1581920903955	36.241610738255	14	0.466711783930659	2	10	5	NaN	2	3	0.0305027806128239	0	1	NaN	368	6	53	1	120	220	320	NaN	520	0.0104216234758496	2	1	NaN	4559362.9882858	NaN	4559363.9716658	4559364.48822178
101	21	0	0	90	36.1581920903955	36.241610738255	13	0.433375227935612	2	3	1	NaN	1	4	0.0305027806128239	0	1	NaN	369	6	54	1	120	220	320	NaN	520	0.0104161752387881	2	0	NaN	4559365.3218382	NaN	4559366.3052348	4559366.82179072
101	21	0	0	90	36.1581920903955	36.241610738255	13	0.433375227935612	2	6	1	NaN	1	5	0.0305027806128239	0	1	NaN	370	6	55	1	120	220	320	NaN	520	0.352812575176358	1	1	NaN	4559367.6386044	NaN	4559368.6221317	4559369.13867783
101	21	0	0	90	36.1581920903955	36.241610738255	0	0	1	7	2	NaN	2	5	0.0305027806128239	0	1	NaN	371	6	56	1	110	210	310	NaN	510	1.21409177500755	1	0	NaN	4559370.3055574	NaN	4559371.2889711	4559371.80560542
101	21	0	0	90	36.1581920903955	36.241610738255	18	0.600058007910848	2	7	2	NaN	2	5	0.0305027806128239	0	1	NaN	372	6	57	1	120	220	320	NaN	520	0.0104185743257403	2	1	NaN	4559373.8393384	NaN	4559374.8227412	4559375.33928853
101	21	0	0	90	36.1581920903955	36.241610738255	23	0.766740787886083	2	11	4	NaN	2	3	0.0305027806128239	0	1	NaN	373	6	58	1	120	220	320	NaN	520	0.843706227838993	1	0	NaN	4559376.1561327	NaN	4559377.1396343	4559377.65618947
101	21	0	0	90	36.1581920903955	36.241610738255	9	0.300029003955424	2	7	2	NaN	2	4	0.0305027806128239	0	1	NaN	374	6	59	1	120	220	320	NaN	520	0.157081174664199	1	0	NaN	4559379.3064181	NaN	4559380.2899576	4559380.80649783
101	21	0	0	90	36.1581920903955	36.241610738255	16	0.533384895920753	2	2	1	NaN	1	5	0.0305027806128239	0	1	NaN	375	6	60	1	120	220	320	NaN	520	0.0104090748354793	2	0	NaN	4559381.7733799	NaN	4559382.7568486	4559383.27340433
101	21	0	0	90	36.1581920903955	36.241610738255	12	0.400038671940565	2	3	6	NaN	1	5	0.0305027806128239	0	1	NaN	376	6	61	1	120	220	320	NaN	520	0.0104218237102032	2	0	NaN	4559384.0903534	NaN	4559385.0737703	4559385.59029338
101	21	0	0	90	36.1581920903955	36.241610738255	11	0.366702115945518	2	10	6	NaN	2	3	0.0305027806128239	0	1	NaN	377	6	62	1	120	220	320	NaN	520	0.351731774397194	2	1	NaN	4559386.4239093	NaN	4559387.4072973	4559387.92385743
101	21	0	0	90	36.1581920903955	36.241610738255	19	0.633394563905895	2	4	5	NaN	1	5	0.0305027806128239	0	1	NaN	378	6	63	1	120	220	320	NaN	520	1.88523142691702	2	0	NaN	4559389.0908346	NaN	4559390.0742403	4559390.59079737
101	21	0	0	90	36.1581920903955	36.241610738255	24	0.80007734388113	2	11	3	NaN	2	5	0.0305027806128239	0	1	NaN	379	7	1	1	120	220	320	NaN	520	0.0581042747944593	2	1	NaN	4559398.3417482	NaN	4559399.3251901	4559399.84169353
101	21	0	0	90	36.1581920903955	36.241610738255	17	0.566721451915801	2	10	4	NaN	2	5	0.0305027806128239	0	1	NaN	380	7	2	1	120	220	320	NaN	520	0.0104007748886943	2	1	NaN	4559400.7086583	NaN	4559401.6920492	4559402.20859403
101	21	0	0	90	36.1581920903955	36.241610738255	19	0.633394563905895	2	11	6	NaN	2	5	0.0305027806128239	0	1	NaN	381	7	3	1	120	220	320	NaN	520	0.302114075049758	2	1	NaN	4559403.0254011	NaN	4559404.0089389	4559404.52549682
101	21	0	0	90	36.1581920903955	36.241610738255	18	0.600058007910848	2	5	2	NaN	1	5	0.0305027806128239	0	1	NaN	382	7	4	1	120	220	320	NaN	520	0.117405727505684	2	0	NaN	4559405.6423665	NaN	4559406.6258678	4559407.14241987
101	21	0	0	90	36.1581920903955	36.241610738255	18	0.600058007910848	2	7	1	NaN	2	5	0.0305027806128239	0	1	NaN	383	7	5	1	120	220	320	NaN	520	0.124122531153262	2	1	NaN	4559408.0759069	NaN	4559409.0594362	4559409.57598567
101	21	0	0	90	36.1581920903955	36.241610738255	7	0.23335589196533	2	8	4	NaN	2	3	0.0305027806128239	0	1	NaN	384	7	6	1	120	220	320	NaN	520	0.218005026690662	2	1	NaN	4559410.5096115	NaN	4559411.493008	4559412.00956797
101	21	0	0	90	36.1581920903955	36.241610738255	20	0.666731119900942	2	7	6	NaN	2	3	0.0305027806128239	0	1	NaN	385	7	7	1	120	220	320	NaN	520	0.0104204230010509	1	0	NaN	4559413.0432099	NaN	4559414.026595	4559414.54313828
101	21	0	0	90	36.1581920903955	36.241610738255	0	0	1	11	5	NaN	2	4	0.0305027806128239	0	1	NaN	386	7	8	1	110	210	310	NaN	510	1.79091437440366	2	1	NaN	4559415.3767607	NaN	4559416.3601498	4559416.87670453
101	21	0	0	90	36.1581920903955	36.241610738255	21	0.700067675895989	2	12	3	NaN	2	3	0.0305027806128239	0	1	NaN	387	7	9	1	120	220	320	NaN	520	0.922862974926829	2	1	NaN	4559419.4771499	NaN	4559420.4605574	4559420.97710642
101	21	0	0	90	36.1581920903955	36.241610738255	12	0.400038671940565	2	4	2	NaN	1	3	0.0305027806128239	0	1	NaN	388	7	10	1	120	220	320	NaN	520	0.184930575080216	1	1	NaN	4559422.7108382	NaN	4559423.6942313	4559424.21076252
101	21	0	0	90	36.1581920903955	36.241610738255	11	0.366702115945518	2	5	3	NaN	1	4	0.0305027806128239	0	1	NaN	389	7	11	1	120	220	320	NaN	520	0.285077675245702	2	0	NaN	4559425.2110505	NaN	4559426.1944852	4559426.71100833
101	21	0	0	90	36.1581920903955	36.241610738255	10	0.333365559950471	2	6	2	NaN	1	5	0.0305027806128239	0	1	NaN	390	7	12	1	120	220	320	NaN	520	0.572283075191081	1	1	NaN	4559427.8113181	NaN	4559428.7947358	4559429.31126232
101	21	0	0	90	36.1581920903955	36.241610738255	6	0.200019335970283	2	3	5	NaN	1	5	0.0305027806128239	0	1	NaN	391	7	13	1	120	220	320	NaN	520	0.248857875354588	1	1	NaN	4559430.6949231	NaN	4559431.6783298	4559432.19487942
101	21	0	0	90	36.1581920903955	36.241610738255	8	0.266692447960377	2	2	3	NaN	1	3	0.0305027806128239	0	1	NaN	392	7	14	1	120	220	320	NaN	520	0.0104003753513098	1	1	NaN	4559433.2618454	NaN	4559434.2452337	4559434.76179522
101	21	0	0	90	36.1581920903955	36.241610738255	6	0.200019335970283	2	4	1	NaN	1	3	0.0305027806128239	0	1	NaN	393	7	15	1	120	220	320	NaN	520	0.0103954272344708	1	1	NaN	4559435.5786137	NaN	4559436.5621435	4559437.07869777
101	21	0	0	90	36.1581920903955	36.241610738255	25	0.833413899876177	2	12	4	NaN	2	4	0.0305027806128239	0	1	NaN	394	7	16	1	120	220	320	NaN	520	0.535913675092161	1	0	NaN	4559437.91232	NaN	4559438.895712	4559439.41224553
101	21	0	0	90	36.1581920903955	36.241610738255	8	0.266692447960377	2	7	6	NaN	2	3	0.0305027806128239	0	1	NaN	395	7	17	1	120	220	320	NaN	520	0.0772705273702741	2	1	NaN	4559440.7625837	NaN	4559441.7459708	4559442.26252727
101	21	0	0	90	36.1581920903955	36.241610738255	15	0.500048339925706	2	1	6	NaN	1	5	0.0305027806128239	0	1	NaN	396	7	18	1	120	220	320	NaN	520	0.0104040754958987	1	1	NaN	4559443.1460142	NaN	4559444.1295868	4559444.64609362
101	21	0	0	90	36.1581920903955	36.241610738255	23	0.766740787886083	2	2	5	NaN	1	4	0.0305027806128239	0	1	NaN	397	7	19	1	120	220	320	NaN	520	0.128767975606024	2	0	NaN	4559445.4630345	NaN	4559446.446446	4559446.96298822
101	21	0	0	90	36.1581920903955	36.241610738255	10	0.333365559950471	2	11	2	NaN	2	5	0.0305027806128239	0	1	NaN	398	7	20	1	120	220	320	NaN	520	0.286532826721668	2	1	NaN	4559447.9132938	NaN	4559448.8966854	4559449.41323937
101	21	0	0	90	36.1581920903955	36.241610738255	8	0.266692447960377	2	1	4	NaN	1	3	0.0305027806128239	0	1	NaN	399	7	21	1	120	220	320	NaN	520	0.0104251755401492	2	0	NaN	4559450.5136323	NaN	4559451.4969424	4559452.01351232
101	21	0	0	90	36.1581920903955	36.241610738255	21	0.700067675895989	2	9	1	NaN	2	3	0.0305027806128239	0	1	NaN	400	7	22	1	120	220	320	NaN	520	0.553657127544284	2	1	NaN	4559452.8304316	NaN	4559453.8138337	4559454.33039807
101	21	0	0	90	36.1581920903955	36.241610738255	25	0.833413899876177	2	8	6	NaN	2	4	0.0305027806128239	0	1	NaN	401	7	23	1	120	220	320	NaN	520	0.0103981271386147	2	1	NaN	4559455.6973896	NaN	4559456.6807881	4559457.19733807
101	21	0	0	90	36.1581920903955	36.241610738255	25	0.833413899876177	2	10	1	NaN	2	3	0.0305027806128239	0	1	NaN	402	7	24	1	120	220	320	NaN	520	2.04974687471986	2	1	NaN	4559458.0142823	NaN	4559458.9977122	4559459.51423083
101	21	0	0	90	36.1581920903955	36.241610738255	9	0.300029003955424	2	12	5	NaN	2	4	0.0305027806128239	0	1	NaN	403	7	25	1	120	220	320	NaN	520	1.05879537574947	1	0	NaN	4559462.3813718	NaN	4559463.3647752	4559463.88132222
101	21	0	0	90	36.1581920903955	36.241610738255	24	0.80007734388113	2	1	1	NaN	1	4	0.0305027806128239	0	1	NaN	404	7	26	1	120	220	320	NaN	520	0.0103909270837903	1	1	NaN	4559465.7483617	NaN	4559466.7317687	4559467.24832407
101	21	0	0	90	36.1581920903955	36.241610738255	9	0.300029003955424	2	9	2	NaN	2	3	0.0305027806128239	0	1	NaN	405	7	27	1	120	220	320	NaN	520	0.206550974398851	2	1	NaN	4559468.0652645	NaN	4559469.0486638	4559469.56521363
101	21	0	0	90	36.1581920903955	36.241610738255	15	0.500048339925706	2	8	5	NaN	2	4	0.0305027806128239	0	1	NaN	406	7	28	1	120	220	320	NaN	520	0.169755422510207	1	0	NaN	4559470.5821716	NaN	4559471.5655656	4559472.08212668
101	21	0	0	90	36.1581920903955	36.241610738255	10	0.333365559950471	2	10	5	NaN	2	3	0.0305027806128239	0	1	NaN	407	7	29	1	120	220	320	NaN	520	0.310199074447155	1	0	NaN	4559473.0657574	NaN	4559474.0491621	4559474.56570353
101	21	0	0	90	36.1581920903955	36.241610738255	10	0.333365559950471	2	12	4	NaN	2	5	0.0305027806128239	0	1	NaN	408	7	30	1	120	220	320	NaN	520	0.0102814920246601	2	1	NaN	4559475.6826911	NaN	4559476.666073	4559477.18262971
101	21	0	0	90	36.1581920903955	36.241610738255	8	0.266692447960377	2	3	1	NaN	1	5	0.0305027806128239	0	1	NaN	409	7	31	1	120	220	320	NaN	520	0.144404674880207	1	1	NaN	4559477.9995803	NaN	4559478.9830039	4559479.49951813
101	21	0	0	90	36.1581920903955	36.241610738255	14	0.466711783930659	2	3	6	NaN	1	4	0.0305027806128239	0	1	NaN	410	7	32	1	120	220	320	NaN	520	0.0694001233205199	2	0	NaN	4559480.4665288	NaN	4559481.4498898	4559481.96642838
101	21	0	0	90	36.1581920903955	36.241610738255	15	0.500048339925706	2	6	5	NaN	1	4	0.0305027806128239	0	1	NaN	411	7	33	1	120	220	320	NaN	520	0.0103843277320266	2	0	NaN	4559482.8500726	NaN	4559483.8334636	4559484.35000887
101	21	0	0	90	36.1581920903955	36.241610738255	13	0.433375227935612	2	9	6	NaN	2	4	0.0305027806128239	0	1	NaN	412	7	34	1	120	220	320	NaN	520	0.328838927671313	1	0	NaN	4559485.1669832	NaN	4559486.1503694	4559486.66689337
101	21	0	0	90	36.1581920903955	36.241610738255	16	0.533384895920753	2	1	4	NaN	1	5	0.0305027806128239	0	1	NaN	413	7	35	1	120	220	320	NaN	520	0.127409222535789	2	0	NaN	4559487.8005732	NaN	4559488.7839342	4559489.30049048
101	21	0	0	90	36.1581920903955	36.241610738255	13	0.433375227935612	2	10	2	NaN	2	5	0.0305027806128239	0	1	NaN	414	7	36	1	120	220	320	NaN	520	0.253653675317764	1	0	NaN	4559490.2341496	NaN	4559491.2175076	4559491.73406183
101	21	0	0	90	36.1581920903955	36.241610738255	20	0.666731119900942	2	11	4	NaN	2	4	0.0305027806128239	0	1	NaN	415	7	37	1	120	220	320	NaN	520	0.191075675189495	2	1	NaN	4559492.8010153	NaN	4559493.7844256	4559494.30097413
101	21	0	0	90	36.1581920903955	36.241610738255	18	0.600058007910848	2	4	2	NaN	1	3	0.0305027806128239	0	1	NaN	416	7	38	1	120	220	320	NaN	520	0.355067575350404	1	1	NaN	4559495.301156	NaN	4559496.2846698	4559496.80121962
101	21	0	0	90	36.1581920903955	36.241610738255	24	0.80007734388113	2	3	4	NaN	1	3	0.0305027806128239	0	1	NaN	417	7	39	1	120	220	320	NaN	520	0.0103771798312664	1	1	NaN	4559497.9681938	NaN	4559498.9516022	4559499.46815862
101	21	0	0	90	36.1581920903955	36.241610738255	12	0.400038671940565	2	4	2	NaN	1	4	0.0305027806128239	0	1	NaN	418	7	40	1	120	220	320	NaN	520	0.0104061746969819	1	1	NaN	4559500.2850919	NaN	4559501.2684921	4559501.78505003
101	21	0	0	90	36.1581920903955	36.241610738255	18	0.600058007910848	2	6	5	NaN	1	4	0.0305027806128239	0	1	NaN	419	7	41	1	120	220	320	NaN	520	0.158198975026608	1	1	NaN	4559502.6019289	NaN	4559503.5853742	4559504.10193942
101	21	0	0	90	36.1581920903955	36.241610738255	12	0.400038671940565	2	9	5	NaN	2	3	0.0305027806128239	0	1	NaN	420	7	42	1	120	220	320	NaN	520	0.410984827205539	2	1	NaN	4559505.068894	NaN	4559506.0522981	4559506.56885347
101	21	0	0	90	36.1581920903955	36.241610738255	8	0.266692447960377	2	9	2	NaN	2	5	0.0305027806128239	0	1	NaN	421	7	43	1	120	220	320	NaN	520	0.22165197879076	1	0	NaN	4559507.802502	NaN	4559508.7858799	4559509.30245722
101	21	0	0	90	36.1581920903955	36.241610738255	8	0.266692447960377	2	4	6	NaN	1	4	0.0305027806128239	0	1	NaN	422	7	44	1	120	220	320	NaN	520	0.288349474780262	1	1	NaN	4559510.3361196	NaN	4559511.3195449	4559511.83603163
101	21	0	0	90	36.1581920903955	36.241610738255	18	0.600058007910848	2	4	3	NaN	1	3	0.0305027806128239	0	1	NaN	423	7	45	1	120	220	320	NaN	520	0.292616275139153	2	0	NaN	4559513.0196943	NaN	4559514.0030864	4559514.51962763
101	21	0	0	90	36.1581920903955	36.241610738255	20	0.666731119900942	2	11	5	NaN	2	4	0.0305027806128239	0	1	NaN	424	7	46	1	120	220	320	NaN	520	0.123686627484858	2	1	NaN	4559515.6366393	NaN	4559516.6199996	4559517.13656077
101	21	0	0	90	36.1581920903955	36.241610738255	11	0.366702115945518	2	11	6	NaN	2	4	0.0305027806128239	0	1	NaN	425	7	47	1	120	220	320	NaN	520	0.010402575135231	2	1	NaN	4559518.0700725	NaN	4559519.0535746	4559519.57012152
101	21	0	0	90	36.1581920903955	36.241610738255	12	0.400038671940565	2	8	4	NaN	2	4	0.0305027806128239	0	1	NaN	426	7	48	1	120	220	320	NaN	520	0.0104221226647496	1	0	NaN	4559520.3870814	NaN	4559521.3704705	4559521.88701678
101	21	0	0	90	36.1581920903955	36.241610738255	7	0.23335589196533	2	3	5	NaN	1	3	0.0305027806128239	0	1	NaN	427	7	49	1	120	220	320	NaN	520	0.383333374746144	1	1	NaN	4559522.7205335	NaN	4559523.7040359	4559524.22058022
101	21	0	0	90	36.1581920903955	36.241610738255	0	0	1	2	2	NaN	1	4	0.0305027806128239	0	1	NaN	428	7	50	1	110	210	310	NaN	510	0.0189918270334601	1	1	NaN	4559525.4209093	NaN	4559526.4043166	4559526.92085287
101	21	0	0	90	36.1581920903955	36.241610738255	13	0.433375227935612	2	8	6	NaN	2	5	0.0305027806128239	0	1	NaN	429	7	51	1	120	220	320	NaN	520	0.109561175107956	2	1	NaN	4559527.754333	NaN	4559528.7378647	4559529.25440952
101	21	0	0	90	36.1581920903955	36.241610738255	0	0	1	7	4	NaN	2	4	0.0305027806128239	0	1	NaN	430	7	52	1	110	210	310	NaN	510	0.252563674934208	1	0	NaN	4559530.1713837	NaN	4559531.1547759	4559531.67131433
101	21	0	0	90	36.1581920903955	36.241610738255	18	0.600058007910848	2	2	3	NaN	1	4	0.0305027806128239	0	1	NaN	431	7	53	1	120	220	320	NaN	520	0.277746527455747	1	1	NaN	4559532.7382224	NaN	4559533.7216922	4559534.23824107
101	21	0	0	90	36.1581920903955	36.241610738255	17	0.566721451915801	2	6	4	NaN	1	3	0.0305027806128239	0	1	NaN	432	7	54	1	120	220	320	NaN	520	0.229780475609004	2	0	NaN	4559535.3385354	NaN	4559536.32194	4559536.83849682
101	21	0	0	90	36.1581920903955	36.241610738255	20	0.666731119900942	2	3	2	NaN	1	5	0.0305027806128239	0	1	NaN	433	7	55	1	120	220	320	NaN	520	0.103043423034251	1	1	NaN	4559537.8887985	NaN	4559538.87217	4559539.38874148
101	21	0	0	90	36.1581920903955	36.241610738255	14	0.466711783930659	2	8	4	NaN	2	3	0.0305027806128239	0	1	NaN	434	7	56	1	120	220	320	NaN	520	0.182245426811278	2	1	NaN	4559540.3057021	NaN	4559541.2890966	4559541.80565307
101	21	0	0	90	36.1581920903955	36.241610738255	16	0.533384895920753	2	8	1	NaN	2	5	0.0305027806128239	0	1	NaN	435	7	57	1	120	220	320	NaN	520	0.122775127179921	2	1	NaN	4559542.789195	NaN	4559543.772656	4559544.28922877
101	21	0	0	90	36.1581920903955	36.241610738255	6	0.200019335970283	2	9	3	NaN	2	5	0.0305027806128239	0	1	NaN	436	7	58	1	120	220	320	NaN	520	0.385507574304938	1	0	NaN	4559545.2228463	NaN	4559546.2062427	4559546.72280203
101	21	0	0	90	36.1581920903955	36.241610738255	17	0.566721451915801	2	9	6	NaN	2	5	0.0305027806128239	0	1	NaN	437	7	59	1	120	220	320	NaN	520	0.557067426852882	2	1	NaN	4559547.9230937	NaN	4559548.9065119	4559549.42306767
101	21	0	0	90	36.1581920903955	36.241610738255	18	0.600058007910848	2	2	2	NaN	1	4	0.0305027806128239	0	1	NaN	438	7	60	1	120	220	320	NaN	520	0.409975274465978	1	1	NaN	4559550.7900563	NaN	4559551.7734589	4559552.29000563
101	21	0	0	90	36.1581920903955	36.241610738255	17	0.566721451915801	2	2	4	NaN	1	4	0.0305027806128239	0	1	NaN	439	7	61	1	120	220	320	NaN	520	0.0103888278827071	1	1	NaN	4559553.5069802	NaN	4559554.4904174	4559555.00694647
101	21	0	0	90	36.1581920903955	36.241610738255	19	0.633394563905895	2	4	3	NaN	1	4	0.0305027806128239	0	1	NaN	440	7	62	1	120	220	320	NaN	520	0.0480741234496236	2	0	NaN	4559555.8237652	NaN	4559556.8072884	4559557.32382968
101	21	0	0	90	36.1581920903955	36.241610738255	23	0.766740787886083	2	5	6	NaN	1	5	0.0305027806128239	0	1	NaN	441	7	63	1	120	220	320	NaN	520	0.0652903746813536	1	1	NaN	4559558.190773	NaN	4559559.1741834	4559559.69073263
101	21	0	0	90	36.1581920903955	36.241610738255	22	0.733404231891036	2	9	4	NaN	2	3	0.0305027806128239	0	1	NaN	442	8	1	1	120	220	320	NaN	520	0.621000527404249	2	1	NaN	4559564.0913681	NaN	4559565.0747661	4559565.59132017
101	21	0	0	90	36.1581920903955	36.241610738255	8	0.266692447960377	2	6	3	NaN	1	3	0.0305027806128239	0	1	NaN	443	8	2	1	120	220	320	NaN	520	0.383089275099337	1	1	NaN	4559567.0248948	NaN	4559568.0083723	4559568.52494312
101	21	0	0	90	36.1581920903955	36.241610738255	9	0.300029003955424	2	4	5	NaN	1	4	0.0305027806128239	0	1	NaN	444	8	3	1	120	220	320	NaN	520	0.275120499543846	2	0	NaN	4559569.7252493	NaN	4559570.708662	4559571.2252038
101	21	0	0	90	36.1581920903955	36.241610738255	17	0.566721451915801	2	12	2	NaN	2	4	0.0305027806128239	0	1	NaN	445	8	4	1	120	220	320	NaN	520	0.235206374898553	1	0	NaN	4559572.3088428	NaN	4559573.292242	4559573.80879383
101	21	0	0	90	36.1581920903955	36.241610738255	21	0.700067675895989	2	11	3	NaN	2	5	0.0305027806128239	0	1	NaN	446	8	5	1	120	220	320	NaN	520	0.373015874996781	1	0	NaN	4559574.8591259	NaN	4559575.8424924	4559576.35903373
101	21	0	0	90	36.1581920903955	36.241610738255	22	0.733404231891036	2	3	6	NaN	1	4	0.0305027806128239	0	1	NaN	447	8	6	1	120	220	320	NaN	520	0.121490322984755	2	0	NaN	4559577.5426951	NaN	4559578.5260866	4559579.04263158
101	21	0	0	90	36.1581920903955	36.241610738255	12	0.400038671940565	2	5	6	NaN	1	3	0.0305027806128239	0	1	NaN	448	8	7	1	120	220	320	NaN	520	0.0104187745600939	1	1	NaN	4559579.9762602	NaN	4559580.9596456	4559581.47620763
101	21	0	0	90	36.1581920903955	36.241610738255	11	0.366702115945518	2	3	1	NaN	1	3	0.0305027806128239	0	1	NaN	449	8	8	1	120	220	320	NaN	520	0.378726527094841	2	0	NaN	4559582.293152	NaN	4559583.2764356	4559583.79311097
101	21	0	0	90	36.1581920903955	36.241610738255	13	0.433375227935612	2	1	2	NaN	1	4	0.0305027806128239	0	1	NaN	450	8	9	1	120	220	320	NaN	520	0.32696027494967	2	0	NaN	4559584.9934096	NaN	4559585.9768239	4559586.49336393
101	21	0	0	90	36.1581920903955	36.241610738255	15	0.500048339925706	2	12	5	NaN	2	5	0.0305027806128239	0	1	NaN	451	8	10	1	120	220	320	NaN	520	0.140781975351274	2	1	NaN	4559587.627021	NaN	4559588.6104122	4559589.12696552
101	21	0	0	90	36.1581920903955	36.241610738255	12	0.400038671940565	2	9	1	NaN	2	5	0.0305027806128239	0	1	NaN	452	8	11	1	120	220	320	NaN	520	0.0747969746589661	2	1	NaN	4559590.0773376	NaN	4559591.0606273	4559591.57719553
101	21	0	0	90	36.1581920903955	36.241610738255	14	0.466711783930659	2	4	2	NaN	1	3	0.0305027806128239	0	1	NaN	453	8	12	1	120	220	320	NaN	520	0.0429766234010458	1	1	NaN	4559592.4608258	NaN	4559593.4442196	4559593.96076558
101	21	0	0	90	36.1581920903955	36.241610738255	24	0.80007734388113	2	2	4	NaN	1	5	0.0305027806128239	0	1	NaN	454	8	13	1	120	220	320	NaN	520	0.0131236230954528	1	1	NaN	4559594.8110584	NaN	4559595.7944451	4559596.31100128
101	21	0	0	90	36.1581920903955	36.241610738255	0	0	1	6	2	NaN	1	4	0.0305027806128239	0	1	NaN	455	8	14	1	110	210	310	NaN	510	0.215774222277105	1	1	NaN	4559597.1445009	NaN	4559598.1280063	4559598.64455948
101	21	0	0	90	36.1581920903955	36.241610738255	6	0.200019335970283	2	1	5	NaN	1	5	0.0305027806128239	0	1	NaN	456	8	15	1	120	220	320	NaN	520	0.0104046752676368	1	1	NaN	4559599.6781857	NaN	4559600.6616379	4559601.17814123
