subjno	age	gender	isPractice	viewdist	CmToPixX	CmToPixY	SOA_frm	SOA_time	targNum	targID	targExample	targRace	targGender	firstTargPos	contrast	familiarity	curr_staircase	iStair	TrialNum	BlockNum	blktrl	sessionNum	TC_FIXATION	TC_RSVP_START	TC_RSVP_END	TC_BLANK	TC_RESPONSE_ONSET	RT2afc	resp_2afc	acc	RSVPOnsetVBL	RSVPOnsetTime	RSVPOffsetVBL	RSVPOffsetTime	startrt_2afc
36	19	0	0	90	36.1581920903955	36.241610738255	25	0.833417299902067	2	12	6	NaN	2	3	0.0498166688863308	1	1	NaN	1	1	1	1	121	221	321	NaN	521	1.03550157975405	2	1	NaN	1973389.3157878	NaN	1973390.2990582	1973390.83217892
36	19	0	0	90	36.1581920903955	36.241610738255	22	0.733407223913819	2	9	5	NaN	2	3	0.0498166688863308	1	1	NaN	2	1	2	1	121	221	321	NaN	521	1.10639007971622	2	1	NaN	1973392.7327761	NaN	1973393.716053	1973394.24917582
36	19	0	0	90	36.1581920903955	36.241610738255	6	0.200020151976496	2	1	3	NaN	1	3	0.0498166688863308	1	1	NaN	3	1	3	1	121	221	321	NaN	521	0.0960972753819078	1	1	NaN	1973396.1829024	NaN	1973397.1663034	1973397.68284832
36	19	0	0	90	36.1581920903955	36.241610738255	24	0.800080607905984	2	3	5	NaN	1	5	0.0498166688863308	1	1	NaN	4	1	4	1	121	221	321	NaN	521	1.28761594370008	1	1	NaN	1973398.5996861	NaN	1973399.5832038	1973400.09975216
36	19	0	0	90	36.1581920903955	36.241610738255	0	0	1	9	1	NaN	2	3	0.0498166688863308	1	1	NaN	5	1	5	1	111	211	311	NaN	511	0.686207275604829	2	1	NaN	1973402.2167195	NaN	1973403.2001347	1973403.71677092
36	19	0	0	90	36.1581920903955	36.241610738255	22	0.733407223913819	2	6	3	NaN	1	5	0.0498166688863308	1	1	NaN	6	1	6	1	121	221	321	NaN	521	0.853512891801074	1	1	NaN	1973405.233807	NaN	1973406.2171832	1973406.73374571
36	19	0	0	90	36.1581920903955	36.241610738255	13	0.433376995949075	2	7	4	NaN	2	5	0.0498166688863308	1	1	NaN	7	1	7	1	121	221	321	NaN	521	0.597823727643117	2	1	NaN	1973408.4173218	NaN	1973409.4008395	1973409.91738107
36	19	0	0	90	36.1581920903955	36.241610738255	10	0.333366919960827	2	11	1	NaN	2	5	0.0498166688863308	1	1	NaN	8	1	8	1	121	221	321	NaN	521	0.896841427544132	2	1	NaN	1973411.3343683	NaN	1973412.317785	1973412.83433757
36	19	0	0	90	36.1581920903955	36.241610738255	25	0.833417299902067	2	2	6	NaN	1	4	0.0498166688863308	1	1	NaN	9	1	9	1	121	221	321	NaN	521	0.799834971316159	1	1	NaN	1973414.5514005	NaN	1973415.5347464	1973416.05131573
36	19	0	0	90	36.1581920903955	36.241610738255	14	0.466713687945157	2	7	4	NaN	2	3	0.0498166688863308	1	1	NaN	10	1	10	1	121	221	321	NaN	521	1.87481382745318	2	1	NaN	1973417.8684742	NaN	1973418.8517558	1973419.36831497
36	19	0	0	90	36.1581920903955	36.241610738255	10	0.333366919960827	2	1	5	NaN	1	4	0.0498166688863308	1	1	NaN	11	1	11	1	121	221	321	NaN	521	0.618789927568287	1	1	NaN	1973422.0687678	NaN	1973423.0521728	1973423.56872737
36	19	0	0	90	36.1581920903955	36.241610738255	9	0.300030227964744	2	9	3	NaN	2	4	0.0498166688863308	1	1	NaN	12	1	12	1	121	221	321	NaN	521	0.436757727526128	2	1	NaN	1973425.0024256	NaN	1973425.9857923	1973426.50234117
36	19	0	0	90	36.1581920903955	36.241610738255	8	0.266693535968661	2	10	2	NaN	2	5	0.0498166688863308	1	1	NaN	13	1	13	1	121	221	321	NaN	521	3.30187122756615	2	1	NaN	1973427.7693221	NaN	1973428.7527318	1973429.26928337
36	19	0	0	90	36.1581920903955	36.241610738255	24	0.800080607905984	2	1	2	NaN	1	4	0.0498166688863308	1	1	NaN	14	1	14	1	121	221	321	NaN	521	0.636815735604614	1	1	NaN	1973433.3866374	NaN	1973434.3699494	1973434.88649736
36	19	0	0	90	36.1581920903955	36.241610738255	23	0.766743915909901	2	7	2	NaN	2	3	0.0498166688863308	1	1	NaN	15	1	15	1	121	221	321	NaN	521	1.03003607550636	2	1	NaN	1973436.35351	NaN	1973437.3369102	1973437.85345732
36	19	0	0	90	36.1581920903955	36.241610738255	19	0.633397147925571	2	11	1	NaN	2	4	0.0498166688863308	1	1	NaN	16	1	16	1	121	221	321	NaN	521	0.311509227380157	2	1	NaN	1973439.7037111	NaN	1973440.6872326	1973441.20378987
36	19	0	0	90	36.1581920903955	36.241610738255	6	0.200020151976496	2	9	1	NaN	2	4	0.0498166688863308	1	1	NaN	17	1	17	1	121	221	321	NaN	521	0.20583337568678	2	1	NaN	1973442.3373014	NaN	1973443.3208449	1973443.83738442
36	19	0	0	90	36.1581920903955	36.241610738255	17	0.566723763933405	2	9	3	NaN	2	4	0.0498166688863308	1	1	NaN	18	1	18	1	121	221	321	NaN	521	0.792635996127501	2	1	NaN	1973444.8710222	NaN	1973445.8544056	1973446.3709672
36	19	0	0	90	36.1581920903955	36.241610738255	7	0.233356843972579	2	8	2	NaN	2	3	0.0498166688863308	1	1	NaN	19	1	19	1	121	221	321	NaN	521	0.0103893273044378	2	1	NaN	1973447.9879736	NaN	1973448.9713859	1973449.48793197
36	19	0	0	90	36.1581920903955	36.241610738255	6	0.200020151976496	2	1	2	NaN	1	5	0.0498166688863308	1	1	NaN	20	1	20	1	121	221	321	NaN	521	0.205913827288896	1	1	NaN	1973450.3215544	NaN	1973451.3049515	1973451.82149877
36	19	0	0	90	36.1581920903955	36.241610738255	23	0.766743915909901	2	11	1	NaN	2	4	0.0498166688863308	1	1	NaN	21	1	21	1	121	221	321	NaN	521	0.352236327482387	2	1	NaN	1973452.855142	NaN	1973453.8385365	1973454.35507867
36	19	0	0	90	36.1581920903955	36.241610738255	10	0.333366919960827	2	6	1	NaN	1	3	0.0498166688863308	1	1	NaN	22	1	22	1	121	221	321	NaN	521	0.781235927483067	1	1	NaN	1973455.5221383	NaN	1973456.5054545	1973457.02200587
36	19	0	0	90	36.1581920903955	36.241610738255	25	0.833417299902067	2	6	5	NaN	1	3	0.0498166688863308	1	1	NaN	23	1	23	1	121	221	321	NaN	521	1.08891347562894	1	1	NaN	1973458.6223652	NaN	1973459.6057687	1973460.12230762
36	19	0	0	90	36.1581920903955	36.241610738255	23	0.766743915909901	2	1	6	NaN	1	4	0.0498166688863308	1	1	NaN	24	1	24	1	121	221	321	NaN	521	0.576556227402762	1	1	NaN	1973462.0227038	NaN	1973463.0060951	1973463.52265167
36	19	0	0	90	36.1581920903955	36.241610738255	15	0.50005037994124	2	1	4	NaN	1	4	0.0498166688863308	1	1	NaN	25	1	25	1	121	221	321	NaN	521	0.700349343707785	1	1	NaN	1973464.9229543	NaN	1973465.9063822	1973466.42294006
36	19	0	0	90	36.1581920903955	36.241610738255	15	0.50005037994124	2	12	1	NaN	2	4	0.0498166688863308	1	1	NaN	26	1	26	1	121	221	321	NaN	521	3.1317523275502	2	1	NaN	1973467.9399366	NaN	1973468.9233572	1973469.43989507
36	19	0	0	90	36.1581920903955	36.241610738255	0	0	1	10	5	NaN	2	4	0.0498166688863308	1	1	NaN	27	1	27	1	111	211	311	NaN	511	0.632814227603376	1	0	NaN	1973473.3904842	NaN	1973474.3739215	1973474.89043077
36	19	0	0	90	36.1581920903955	36.241610738255	10	0.333366919960827	2	5	3	NaN	1	3	0.0498166688863308	1	1	NaN	28	1	28	1	121	221	321	NaN	521	0.450560471275821	1	1	NaN	1973476.3407579	NaN	1973477.3241632	1973477.84071983
36	19	0	0	90	36.1581920903955	36.241610738255	13	0.433376995949075	2	6	5	NaN	1	3	0.0498166688863308	1	1	NaN	29	1	29	1	121	221	321	NaN	521	0.291748175630346	1	1	NaN	1973479.1076189	NaN	1973480.0911585	1973480.60765182
36	19	0	0	90	36.1581920903955	36.241610738255	15	0.50005037994124	2	3	1	NaN	1	3	0.0498166688863308	1	1	NaN	30	1	30	1	121	221	321	NaN	521	1.6426749273669	1	1	NaN	1973481.724639	NaN	1973482.7079939	1973483.22458447
36	19	0	0	90	36.1581920903955	36.241610738255	16	0.533387071937323	2	3	6	NaN	1	4	0.0498166688863308	1	1	NaN	31	1	31	1	121	221	321	NaN	521	0.323672875529155	1	1	NaN	1973485.6916923	NaN	1973486.6750765	1973487.19163232
36	19	0	0	90	36.1581920903955	36.241610738255	0	0	1	7	5	NaN	2	3	0.0498166688863308	1	1	NaN	32	1	32	1	111	211	311	NaN	511	0.729844827437773	2	1	NaN	1973488.3252797	NaN	1973489.3086676	1973489.82521997
36	19	0	0	90	36.1581920903955	36.241610738255	12	0.400040303952992	2	8	4	NaN	2	3	0.0498166688863308	1	1	NaN	33	1	33	1	121	221	321	NaN	521	1.71109577547759	2	1	NaN	1973491.7921554	NaN	1973492.7756372	1973493.29223462
36	19	0	0	90	36.1581920903955	36.241610738255	12	0.400040303952992	2	6	6	NaN	1	5	0.0498166688863308	1	1	NaN	34	1	34	1	121	221	321	NaN	521	0.477683527395129	1	1	NaN	1973495.8260069	NaN	1973496.8094099	1973497.32595517
36	19	0	0	90	36.1581920903955	36.241610738255	7	0.233356843972579	2	5	1	NaN	1	5	0.0498166688863308	1	1	NaN	35	1	35	1	121	221	321	NaN	521	0.541072527645156	1	1	NaN	1973498.6262958	NaN	1973499.6096865	1973500.12624197
36	19	0	0	90	36.1581920903955	36.241610738255	16	0.533387071937323	2	8	6	NaN	2	5	0.0498166688863308	1	1	NaN	36	1	36	1	121	221	321	NaN	521	0.563221027608961	2	1	NaN	1973501.4765686	NaN	1973502.4599709	1973502.97651547
36	19	0	0	90	36.1581920903955	36.241610738255	20	0.666733839921653	2	1	4	NaN	1	5	0.0498166688863308	1	1	NaN	37	1	37	1	121	221	321	NaN	521	0.543309675529599	1	1	NaN	1973504.3601715	NaN	1973505.3434758	1973505.86012892
36	19	0	0	90	36.1581920903955	36.241610738255	7	0.233356843972579	2	10	5	NaN	2	5	0.0498166688863308	1	1	NaN	38	1	38	1	121	221	321	NaN	521	1.4922633273527	2	1	NaN	1973507.2271299	NaN	1973508.2105237	1973508.72708447
36	19	0	0	90	36.1581920903955	36.241610738255	10	0.333366919960827	2	3	4	NaN	1	5	0.0498166688863308	1	1	NaN	39	1	39	1	121	221	321	NaN	521	0.364125727443025	1	1	NaN	1973511.0275254	NaN	1973512.0108904	1973512.52745817
36	19	0	0	90	36.1581920903955	36.241610738255	10	0.333366919960827	2	12	5	NaN	2	4	0.0498166688863308	1	1	NaN	40	1	40	1	121	221	321	NaN	521	1.17722072754987	2	1	NaN	1973513.6944199	NaN	1973514.6778245	1973515.19438317
36	19	0	0	90	36.1581920903955	36.241610738255	6	0.200020151976496	2	5	6	NaN	1	4	0.0498166688863308	1	1	NaN	41	1	41	1	121	221	321	NaN	521	0.365054475609213	1	1	NaN	1973517.1947734	NaN	1973518.1781621	1973518.69472362
36	19	0	0	90	36.1581920903955	36.241610738255	17	0.566723763933405	2	4	4	NaN	1	3	0.0498166688863308	1	1	NaN	42	1	42	1	121	221	321	NaN	521	0.489182527642697	1	1	NaN	1973519.8783873	NaN	1973520.8617758	1973521.37831737
36	19	0	0	90	36.1581920903955	36.241610738255	25	0.833417299902067	2	5	5	NaN	1	5	0.0498166688863308	1	1	NaN	43	1	43	1	121	221	321	NaN	521	1.264012823347	1	1	NaN	1973522.6953068	NaN	1973523.6787051	1973524.19526648
36	19	0	0	90	36.1581920903955	36.241610738255	24	0.800080607905984	2	8	4	NaN	2	3	0.0498166688863308	1	1	NaN	44	1	44	1	121	221	321	NaN	521	0.217098227469251	2	1	NaN	1973526.2623463	NaN	1973527.245727	1973527.76228487
36	19	0	0	90	36.1581920903955	36.241610738255	6	0.200020151976496	2	7	5	NaN	2	5	0.0498166688863308	1	1	NaN	45	1	45	1	121	221	321	NaN	521	0.33982717548497	2	1	NaN	1973528.795794	NaN	1973529.7793323	1973530.29585912
36	19	0	0	90	36.1581920903955	36.241610738255	9	0.300030227964744	2	3	3	NaN	1	5	0.0498166688863308	1	1	NaN	46	1	46	1	121	221	321	NaN	521	0.521281427470967	1	1	NaN	1973531.446188	NaN	1973532.429603	1973532.94612677
36	19	0	0	90	36.1581920903955	36.241610738255	17	0.566723763933405	2	2	3	NaN	1	5	0.0498166688863308	1	1	NaN	47	1	47	1	121	221	321	NaN	521	0.887541675474495	1	1	NaN	1973534.2797918	NaN	1973535.2631879	1973535.77973352
36	19	0	0	90	36.1581920903955	36.241610738255	24	0.800080607905984	2	7	3	NaN	2	3	0.0498166688863308	1	1	NaN	48	1	48	1	121	221	321	NaN	521	0.862311727600172	2	1	NaN	1973537.9134542	NaN	1973538.8968898	1973539.41342937
36	19	0	0	90	36.1581920903955	36.241610738255	7	0.233356843972579	2	12	5	NaN	2	5	0.0498166688863308	1	1	NaN	49	1	49	1	121	221	321	NaN	521	0.447075075469911	2	1	NaN	1973541.0804647	NaN	1973542.063857	1973542.58040152
36	19	0	0	90	36.1581920903955	36.241610738255	19	0.633397147925571	2	6	6	NaN	1	4	0.0498166688863308	1	1	NaN	50	1	50	1	121	221	321	NaN	521	0.704373727552593	1	1	NaN	1973543.8473969	NaN	1973544.8308099	1973545.34733587
36	19	0	0	90	36.1581920903955	36.241610738255	15	0.50005037994124	2	6	4	NaN	1	4	0.0498166688863308	1	1	NaN	51	1	51	1	121	221	321	NaN	521	0.383186775725335	1	1	NaN	1973546.8642115	NaN	1973547.847776	1973548.36430172
36	19	0	0	90	36.1581920903955	36.241610738255	14	0.466713687945157	2	5	3	NaN	1	3	0.0498166688863308	1	1	NaN	52	1	52	1	121	221	321	NaN	521	0.475077975541353	1	1	NaN	1973549.5646086	NaN	1973550.5479971	1973551.06456562
36	19	0	0	90	36.1581920903955	36.241610738255	23	0.766743915909901	2	3	2	NaN	1	3	0.0498166688863308	1	1	NaN	53	1	53	1	121	221	321	NaN	521	0.466921075712889	1	1	NaN	1973552.3648864	NaN	1973553.3482997	1973553.86483882
36	19	0	0	90	36.1581920903955	36.241610738255	20	0.666733839921653	2	12	4	NaN	2	5	0.0498166688863308	1	1	NaN	54	1	54	1	121	221	321	NaN	521	0.89893997553736	2	1	NaN	1973555.1485312	NaN	1973556.1319055	1973556.64844802
36	19	0	0	90	36.1581920903955	36.241610738255	19	0.633397147925571	2	3	5	NaN	1	5	0.0498166688863308	1	1	NaN	55	1	55	1	121	221	321	NaN	521	0.785939775640145	1	1	NaN	1973558.3653557	NaN	1973559.3489042	1973559.86542542
36	19	0	0	90	36.1581920903955	36.241610738255	9	0.300030227964744	2	11	4	NaN	2	3	0.0498166688863308	1	1	NaN	56	1	56	1	121	221	321	NaN	521	0.229788227705285	2	1	NaN	1973561.4658031	NaN	1973562.4490764	1973562.96573717
36	19	0	0	90	36.1581920903955	36.241610738255	21	0.700070531917736	2	1	5	NaN	1	3	0.0498166688863308	1	1	NaN	57	1	57	1	121	221	321	NaN	521	0.183989575598389	1	1	NaN	1973563.999234	NaN	1973564.9827468	1973565.49931462
36	19	0	0	90	36.1581920903955	36.241610738255	25	0.833417299902067	2	3	4	NaN	1	4	0.0498166688863308	1	1	NaN	58	1	58	1	121	221	321	NaN	521	1.25991732743569	1	1	NaN	1973566.4996371	NaN	1973567.4830212	1973567.99955727
36	19	0	0	90	36.1581920903955	36.241610738255	16	0.533387071937323	2	1	6	NaN	1	5	0.0498166688863308	1	1	NaN	59	1	59	1	121	221	321	NaN	521	0.333113827509806	1	1	NaN	1973570.066612	NaN	1973571.0500943	1973571.56657847
36	19	0	0	90	36.1581920903955	36.241610738255	20	0.666733839921653	2	3	6	NaN	1	5	0.0498166688863308	1	1	NaN	60	1	60	1	121	221	321	NaN	521	0.312955827452242	1	1	NaN	1973572.7502332	NaN	1973573.7336273	1973574.25018067
36	19	0	0	90	36.1581920903955	36.241610738255	20	0.666733839921653	2	4	5	NaN	1	5	0.0498166688863308	1	1	NaN	61	1	61	1	121	221	321	NaN	521	0.439702927600592	1	1	NaN	1973575.3838091	NaN	1973576.3672476	1973576.88377297
36	19	0	0	90	36.1581920903955	36.241610738255	21	0.700070531917736	2	11	5	NaN	2	3	0.0498166688863308	1	1	NaN	62	1	62	1	121	221	321	NaN	521	0.609473527409136	2	1	NaN	1973578.134082	NaN	1973579.1175313	1973579.63404087
36	19	0	0	90	36.1581920903955	36.241610738255	9	0.300030227964744	2	8	3	NaN	2	3	0.0498166688863308	1	1	NaN	63	1	63	1	121	221	321	NaN	521	0.28438817569986	2	1	NaN	1973581.0510062	NaN	1973582.0344314	1973582.55099022
36	19	0	0	90	36.1581920903955	36.241610738255	11	0.366703611956909	2	11	6	NaN	2	4	0.0498166688863308	1	1	NaN	64	2	1	1	121	221	321	NaN	521	1.24599897535518	2	1	NaN	1973593.385452	NaN	1973594.3689835	1973594.88553002
36	19	0	0	90	36.1581920903955	36.241610738255	18	0.600060455929488	2	7	4	NaN	2	5	0.0498166688863308	1	1	NaN	65	2	2	1	121	221	321	NaN	521	0.390932127367705	2	1	NaN	1973596.9525916	NaN	1973597.9359976	1973598.45255177
36	19	0	0	90	36.1581920903955	36.241610738255	9	0.300030227964744	2	1	6	NaN	1	3	0.0498166688863308	1	1	NaN	66	2	3	1	121	221	321	NaN	521	1.29095617565326	2	0	NaN	1973599.6528605	NaN	1973600.6362605	1973601.15280972
36	19	0	0	90	36.1581920903955	36.241610738255	19	0.633397147925571	2	7	2	NaN	2	5	0.0498166688863308	1	1	NaN	67	2	4	1	121	221	321	NaN	521	0.38493442768231	2	1	NaN	1973603.2865637	NaN	1973604.2699344	1973604.78650867
36	19	0	0	90	36.1581920903955	36.241610738255	19	0.633397147925571	2	7	4	NaN	2	3	0.0498166688863308	1	1	NaN	68	2	5	1	121	221	321	NaN	521	0.453026375500485	2	1	NaN	1973605.9867904	NaN	1973606.9702235	1973607.48677082
36	19	0	0	90	36.1581920903955	36.241610738255	24	0.800080607905984	2	10	2	NaN	2	5	0.0498166688863308	1	1	NaN	69	2	6	1	121	221	321	NaN	521	2.5179810274858	2	1	NaN	1973608.7537728	NaN	1973609.7371562	1973610.25370937
36	19	0	0	90	36.1581920903955	36.241610738255	0	0	1	12	3	NaN	2	3	0.0498166688863308	1	1	NaN	70	2	7	1	111	211	311	NaN	511	0.580065927701071	2	1	NaN	1973613.5874536	NaN	1973614.5709433	1973615.08751267
36	19	0	0	90	36.1581920903955	36.241610738255	10	0.333366919960827	2	7	1	NaN	2	5	0.0498166688863308	1	1	NaN	71	2	8	1	121	221	321	NaN	521	0.328045879723504	2	1	NaN	1973616.487853	NaN	1973617.4712485	1973617.98780502
36	19	0	0	90	36.1581920903955	36.241610738255	16	0.533387071937323	2	4	1	NaN	1	5	0.0498166688863308	1	1	NaN	72	2	9	1	121	221	321	NaN	521	0.454065875615925	1	1	NaN	1973619.1214392	NaN	1973620.1048344	1973620.62138662
36	19	0	0	90	36.1581920903955	36.241610738255	24	0.800080607905984	2	6	1	NaN	1	4	0.0498166688863308	1	1	NaN	73	2	10	1	121	221	321	NaN	521	0.0313280795235187	1	1	NaN	1973621.8883896	NaN	1973622.8717781	1973623.38833672
36	19	0	0	90	36.1581920903955	36.241610738255	15	0.50005037994124	2	9	5	NaN	2	5	0.0498166688863308	1	1	NaN	74	2	11	1	121	221	321	NaN	521	1.8329267273657	2	1	NaN	1973624.2386067	NaN	1973625.2220115	1973625.73856637
36	19	0	0	90	36.1581920903955	36.241610738255	14	0.466713687945157	2	12	2	NaN	2	4	0.0498166688863308	1	1	NaN	75	2	12	1	121	221	321	NaN	521	0.250951639609411	2	1	NaN	1973628.3890293	NaN	1973629.3723997	1973629.88897156
36	19	0	0	90	36.1581920903955	36.241610738255	0	0	1	11	3	NaN	2	3	0.0498166688863308	1	1	NaN	76	2	13	1	111	211	311	NaN	511	0.460230323253199	2	1	NaN	1973630.9392577	NaN	1973631.92257	1973632.43921988
36	19	0	0	90	36.1581920903955	36.241610738255	8	0.266693535968661	2	10	2	NaN	2	3	0.0498166688863308	1	1	NaN	77	2	14	1	121	221	321	NaN	521	0.269649127498269	2	1	NaN	1973633.7062058	NaN	1973634.6896024	1973635.20615997
36	19	0	0	90	36.1581920903955	36.241610738255	16	0.533387071937323	2	11	4	NaN	2	4	0.0498166688863308	1	1	NaN	78	2	15	1	121	221	321	NaN	521	0.366042375564575	2	1	NaN	1973636.2896648	NaN	1973637.2731808	1973637.78973802
36	19	0	0	90	36.1581920903955	36.241610738255	19	0.633397147925571	2	2	1	NaN	1	4	0.0498166688863308	1	1	NaN	79	2	16	1	121	221	321	NaN	521	0.218208479695022	1	1	NaN	1973638.9733777	NaN	1973639.9567633	1973640.47333172
36	19	0	0	90	36.1581920903955	36.241610738255	9	0.300030227964744	2	10	4	NaN	2	5	0.0498166688863308	1	1	NaN	80	2	17	1	121	221	321	NaN	521	0.917828175472096	2	1	NaN	1973641.8736468	NaN	1973642.857055	1973643.37361952
36	19	0	0	90	36.1581920903955	36.241610738255	12	0.400040303952992	2	7	2	NaN	2	3	0.0498166688863308	1	1	NaN	81	2	18	1	121	221	321	NaN	521	0.38859477546066	2	1	NaN	1973645.107313	NaN	1973646.090762	1973646.60727142
36	19	0	0	90	36.1581920903955	36.241610738255	11	0.366703611956909	2	3	1	NaN	1	5	0.0498166688863308	1	1	NaN	82	2	19	1	121	221	321	NaN	521	0.376186227425933	1	1	NaN	1973647.8075796	NaN	1973648.7909858	1973649.30754197
36	19	0	0	90	36.1581920903955	36.241610738255	9	0.300030227964744	2	10	5	NaN	2	3	0.0498166688863308	1	1	NaN	83	2	20	1	121	221	321	NaN	521	2.91651497548446	2	1	NaN	1973650.4912003	NaN	1973651.4745923	1973651.99113402
36	19	0	0	90	36.1581920903955	36.241610738255	14	0.466713687945157	2	2	4	NaN	1	5	0.0498166688863308	1	1	NaN	84	2	21	1	121	221	321	NaN	521	0.202835123287514	1	1	NaN	1973655.7250389	NaN	1973656.7084548	1973657.22498498
36	19	0	0	90	36.1581920903955	36.241610738255	12	0.400040303952992	2	5	1	NaN	1	4	0.0498166688863308	1	1	NaN	85	2	22	1	121	221	321	NaN	521	0.317604227457196	1	1	NaN	1973658.2417932	NaN	1973659.2253665	1973659.74189697
36	19	0	0	90	36.1581920903955	36.241610738255	16	0.533387071937323	2	5	4	NaN	1	3	0.0498166688863308	1	1	NaN	86	2	23	1	121	221	321	NaN	521	0.252098723314703	1	1	NaN	1973660.8755131	NaN	1973661.858868	1973662.37549088
36	19	0	0	90	36.1581920903955	36.241610738255	21	0.700070531917736	2	4	2	NaN	1	5	0.0498166688863308	1	1	NaN	87	2	24	1	121	221	321	NaN	521	0.789283827645704	1	1	NaN	1973663.4424438	NaN	1973664.4258713	1973664.94240957
36	19	0	0	90	36.1581920903955	36.241610738255	13	0.433376995949075	2	9	5	NaN	2	4	0.0498166688863308	1	1	NaN	88	2	25	1	121	221	321	NaN	521	0.288979727542028	2	1	NaN	1973666.5427696	NaN	1973667.5261645	1973668.04271177
36	19	0	0	90	36.1581920903955	36.241610738255	18	0.600060455929488	2	3	5	NaN	1	3	0.0498166688863308	1	1	NaN	89	2	26	1	121	221	321	NaN	521	0.352524127578363	1	1	NaN	1973669.1430364	NaN	1973670.126344	1973670.64297157
36	19	0	0	90	36.1581920903955	36.241610738255	16	0.533387071937323	2	9	6	NaN	2	4	0.0498166688863308	1	1	NaN	90	2	27	1	121	221	321	NaN	521	0.118024127557874	2	1	NaN	1973671.8099612	NaN	1973672.7933697	1973673.30989117
36	19	0	0	90	36.1581920903955	36.241610738255	24	0.800080607905984	2	11	2	NaN	2	4	0.0498166688863308	1	1	NaN	91	2	28	1	121	221	321	NaN	521	0.289831075584516	2	1	NaN	1973674.6935377	NaN	1973675.6769515	1973676.19351222
36	19	0	0	90	36.1581920903955	36.241610738255	22	0.733407223913819	2	12	1	NaN	2	4	0.0498166688863308	1	1	NaN	92	2	29	1	121	221	321	NaN	521	0.289855083683506	2	1	NaN	1973677.2938255	NaN	1973678.2772032	1973678.79376342
36	19	0	0	90	36.1581920903955	36.241610738255	11	0.366703611956909	2	7	6	NaN	2	4	0.0498166688863308	1	1	NaN	93	2	30	1	121	221	321	NaN	521	0.465388575568795	2	1	NaN	1973679.8940404	NaN	1973680.8774715	1973681.39401632
36	19	0	0	90	36.1581920903955	36.241610738255	18	0.600060455929488	2	6	3	NaN	1	4	0.0498166688863308	1	1	NaN	94	2	31	1	121	221	321	NaN	521	0.210347375599667	1	1	NaN	1973682.6610412	NaN	1973683.6444087	1973684.16096062
36	19	0	0	90	36.1581920903955	36.241610738255	20	0.666733839921653	2	5	6	NaN	1	4	0.0498166688863308	1	1	NaN	95	2	32	1	121	221	321	NaN	521	0.238124975468963	1	1	NaN	1973685.1779395	NaN	1973686.1613146	1973686.67786352
36	19	0	0	90	36.1581920903955	36.241610738255	0	0	1	6	2	NaN	1	3	0.0498166688863308	1	1	NaN	96	2	33	1	111	211	311	NaN	511	0.631834075553343	1	1	NaN	1973687.7281717	NaN	1973688.7115666	1973689.22811732
36	19	0	0	90	36.1581920903955	36.241610738255	14	0.466713687945157	2	2	6	NaN	1	5	0.0498166688863308	1	1	NaN	97	2	34	1	121	221	321	NaN	521	0.681754527613521	1	1	NaN	1973690.6618455	NaN	1973691.6451864	1973692.16176087
36	19	0	0	90	36.1581920903955	36.241610738255	23	0.766743915909901	2	9	3	NaN	2	5	0.0498166688863308	1	1	NaN	98	2	35	1	121	221	321	NaN	521	0.274556875461712	2	1	NaN	1973693.6452844	NaN	1973694.6288256	1973695.14536202
36	19	0	0	90	36.1581920903955	36.241610738255	12	0.400040303952992	2	3	5	NaN	1	4	0.0498166688863308	1	1	NaN	99	2	36	1	121	221	321	NaN	521	0.275036179693416	1	1	NaN	1973696.2290052	NaN	1973697.2124017	1973697.72895092
36	19	0	0	90	36.1581920903955	36.241610738255	16	0.533387071937323	2	6	6	NaN	1	3	0.0498166688863308	1	1	NaN	100	2	37	1	121	221	321	NaN	521	0.115209775744006	1	1	NaN	1973698.812463	NaN	1973699.7959928	1973700.31254582
36	19	0	0	90	36.1581920903955	36.241610738255	18	0.600060455929488	2	2	2	NaN	1	3	0.0498166688863308	1	1	NaN	101	2	38	1	121	221	321	NaN	521	0.0496978275477886	1	1	NaN	1973701.2460432	NaN	1973702.2295641	1973702.74611897
36	19	0	0	90	36.1581920903955	36.241610738255	19	0.633397147925571	2	2	1	NaN	1	5	0.0498166688863308	1	1	NaN	102	2	39	1	121	221	321	NaN	521	0.354626027401537	1	1	NaN	1973703.6130657	NaN	1973704.5964733	1973705.11301137
36	19	0	0	90	36.1581920903955	36.241610738255	13	0.433376995949075	2	10	1	NaN	2	4	0.0498166688863308	1	1	NaN	103	2	40	1	121	221	321	NaN	521	0.855573427397758	2	1	NaN	1973706.2799914	NaN	1973707.263395	1973707.77994667
36	19	0	0	90	36.1581920903955	36.241610738255	7	0.233356843972579	2	11	4	NaN	2	4	0.0498166688863308	1	1	NaN	104	2	41	1	121	221	321	NaN	521	0.35290952748619	2	1	NaN	1973709.4468394	NaN	1973710.4303827	1973710.94692067
36	19	0	0	90	36.1581920903955	36.241610738255	10	0.333366919960827	2	8	3	NaN	2	5	0.0498166688863308	1	1	NaN	105	2	42	1	121	221	321	NaN	521	0.461790575645864	2	1	NaN	1973712.1138947	NaN	1973713.0972902	1973713.61384032
36	19	0	0	90	36.1581920903955	36.241610738255	6	0.200020151976496	2	10	6	NaN	2	3	0.0498166688863308	1	1	NaN	106	2	43	1	121	221	321	NaN	521	0.262978887883946	2	1	NaN	1973714.8808407	NaN	1973715.8642369	1973716.38079301
36	19	0	0	90	36.1581920903955	36.241610738255	20	0.666733839921653	2	10	4	NaN	2	5	0.0498166688863308	1	1	NaN	107	2	44	1	121	221	321	NaN	521	0.58357222750783	2	1	NaN	1973717.464421	NaN	1973718.4478252	1973718.96437737
36	19	0	0	90	36.1581920903955	36.241610738255	12	0.400040303952992	2	10	4	NaN	2	4	0.0498166688863308	1	1	NaN	108	2	45	1	121	221	321	NaN	521	0.363395475549623	2	1	NaN	1973720.3647065	NaN	1973721.3480982	1973721.86465252
36	19	0	0	90	36.1581920903955	36.241610738255	8	0.266693535968661	2	3	4	NaN	1	5	0.0498166688863308	1	1	NaN	109	2	46	1	121	221	321	NaN	521	0.103137927362695	1	1	NaN	1973723.0483159	NaN	1973724.0316898	1973724.54825457
36	19	0	0	90	36.1581920903955	36.241610738255	16	0.533387071937323	2	1	2	NaN	1	4	0.0498166688863308	1	1	NaN	110	2	47	1	121	221	321	NaN	521	0.878549775574356	1	1	NaN	1973725.4651522	NaN	1973726.4486199	1973726.96515082
36	19	0	0	90	36.1581920903955	36.241610738255	16	0.533387071937323	2	5	2	NaN	1	4	0.0498166688863308	1	1	NaN	111	2	48	1	121	221	321	NaN	521	0.374025227501988	1	1	NaN	1973728.6653911	NaN	1973729.6489132	1973730.16546457
36	19	0	0	90	36.1581920903955	36.241610738255	14	0.466713687945157	2	3	6	NaN	1	3	0.0498166688863308	1	1	NaN	112	2	49	1	121	221	321	NaN	521	0.322705975500867	1	1	NaN	1973731.3491339	NaN	1973732.3325248	1973732.84907042
36	19	0	0	90	36.1581920903955	36.241610738255	14	0.466713687945157	2	12	3	NaN	2	3	0.0498166688863308	1	1	NaN	113	2	50	1	121	221	321	NaN	521	0.0104076757561415	2	1	NaN	1973733.9826902	NaN	1973734.9661038	1973735.48265062
36	19	0	0	90	36.1581920903955	36.241610738255	9	0.300030227964744	2	6	4	NaN	1	4	0.0498166688863308	1	1	NaN	114	2	51	1	121	221	321	NaN	521	0.0520679755136371	1	1	NaN	1973736.2994746	NaN	1973737.2830001	1973737.79954742
36	19	0	0	90	36.1581920903955	36.241610738255	25	0.833417299902067	2	8	4	NaN	2	3	0.0498166688863308	1	1	NaN	115	2	52	1	121	221	321	NaN	521	0.0104201755020767	2	1	NaN	1973738.6665211	NaN	1973739.6498985	1973740.16644412
36	19	0	0	90	36.1581920903955	36.241610738255	18	0.600060455929488	2	4	2	NaN	1	5	0.0498166688863308	1	1	NaN	116	2	53	1	121	221	321	NaN	521	0.0104087756481022	1	1	NaN	1973741.0000651	NaN	1973741.9834611	1973742.50001232
36	19	0	0	90	36.1581920903955	36.241610738255	8	0.266693535968661	2	6	1	NaN	1	3	0.0498166688863308	1	1	NaN	117	2	54	1	121	221	321	NaN	521	0.659028375521302	1	1	NaN	1973743.3169619	NaN	1973744.3003471	1973744.81691122
36	19	0	0	90	36.1581920903955	36.241610738255	23	0.766743915909901	2	4	1	NaN	1	4	0.0498166688863308	1	1	NaN	118	2	55	1	121	221	321	NaN	521	0.364199875621125	1	1	NaN	1973746.283794	NaN	1973747.2673282	1973747.78386132
36	19	0	0	90	36.1581920903955	36.241610738255	18	0.600060455929488	2	4	3	NaN	1	4	0.0498166688863308	1	1	NaN	119	2	56	1	121	221	321	NaN	521	0.28055382752791	1	1	NaN	1973748.9675205	NaN	1973749.9509117	1973750.46746467
36	19	0	0	90	36.1581920903955	36.241610738255	13	0.433376995949075	2	10	5	NaN	2	3	0.0498166688863308	1	1	NaN	120	2	57	1	121	221	321	NaN	521	0.359882175689563	2	1	NaN	1973751.5676461	NaN	1973752.5511635	1973753.06771922
36	19	0	0	90	36.1581920903955	36.241610738255	21	0.700070531917736	2	10	3	NaN	2	5	0.0498166688863308	1	1	NaN	121	2	58	1	121	221	321	NaN	521	0.357375327497721	2	1	NaN	1973754.2347927	NaN	1973755.2181032	1973755.73464877
36	19	0	0	90	36.1581920903955	36.241610738255	18	0.600060455929488	2	7	5	NaN	2	4	0.0498166688863308	1	1	NaN	122	2	59	1	121	221	321	NaN	521	0.482255775714293	2	1	NaN	1973756.9016152	NaN	1973757.8849219	1973758.40156522
36	19	0	0	90	36.1581920903955	36.241610738255	9	0.300030227964744	2	2	5	NaN	1	5	0.0498166688863308	1	1	NaN	123	2	60	1	121	221	321	NaN	521	0.785931191872805	1	1	NaN	1973759.701898	NaN	1973760.6852907	1973761.20184631
36	19	0	0	90	36.1581920903955	36.241610738255	9	0.300030227964744	2	11	1	NaN	2	3	0.0498166688863308	1	1	NaN	124	2	61	1	121	221	321	NaN	521	0.0104376755189151	2	1	NaN	1973762.8022008	NaN	1973763.7855889	1973764.30214402
36	19	0	0	90	36.1581920903955	36.241610738255	16	0.533387071937323	2	7	2	NaN	2	4	0.0498166688863308	1	1	NaN	125	2	62	1	121	221	321	NaN	521	0.0104621755890548	2	1	NaN	1973765.1191088	NaN	1973766.1024956	1973766.61904612
36	19	0	0	90	36.1581920903955	36.241610738255	15	0.50005037994124	2	7	4	NaN	2	4	0.0498166688863308	1	1	NaN	126	2	63	1	121	221	321	NaN	521	0.251118675572798	2	1	NaN	1973767.4526757	NaN	1973768.4360699	1973768.95261622
36	19	0	0	90	36.1581920903955	36.241610738255	8	0.266693535968661	2	12	5	NaN	2	5	0.0498166688863308	1	1	NaN	127	3	1	1	121	221	321	NaN	521	0.176966427592561	2	1	NaN	1973776.2868734	NaN	1973777.2702843	1973777.78680957
36	19	0	0	90	36.1581920903955	36.241610738255	9	0.300030227964744	2	8	5	NaN	2	3	0.0498166688863308	1	1	NaN	128	3	2	1	121	221	321	NaN	521	0.620819531613961	2	1	NaN	1973778.7871328	NaN	1973779.7705008	1973780.28705787
36	19	0	0	90	36.1581920903955	36.241610738255	25	0.833417299902067	2	1	5	NaN	1	5	0.0498166688863308	1	1	NaN	129	3	3	1	121	221	321	NaN	521	0.111125675495714	1	1	NaN	1973781.7205903	NaN	1973782.7041246	1973783.22066902
36	19	0	0	90	36.1581920903955	36.241610738255	13	0.433376995949075	2	12	4	NaN	2	3	0.0498166688863308	1	1	NaN	130	3	4	1	121	221	321	NaN	521	1.35750252753496	1	0	NaN	1973784.1543073	NaN	1973785.1376951	1973785.65424307
36	19	0	0	90	36.1581920903955	36.241610738255	21	0.700070531917736	2	11	5	NaN	2	5	0.0498166688863308	1	1	NaN	131	3	5	1	121	221	321	NaN	521	1.21048252331093	1	0	NaN	1973787.8213649	NaN	1973788.8048147	1973789.32127208
36	19	0	0	90	36.1581920903955	36.241610738255	11	0.366703611956909	2	4	6	NaN	1	3	0.0498166688863308	1	1	NaN	132	3	6	1	121	221	321	NaN	521	1.82138562737964	1	1	NaN	1973791.3383513	NaN	1973792.3217365	1973792.83828537
36	19	0	0	90	36.1581920903955	36.241610738255	17	0.566723763933405	2	3	1	NaN	1	5	0.0498166688863308	1	1	NaN	133	3	7	1	121	221	321	NaN	521	0.359825275605544	1	1	NaN	1973795.4720733	NaN	1973796.4554753	1973796.97201762
36	19	0	0	90	36.1581920903955	36.241610738255	9	0.300030227964744	2	7	6	NaN	2	3	0.0498166688863308	1	1	NaN	134	3	8	1	121	221	321	NaN	521	0.0678311276715249	2	1	NaN	1973798.1556632	NaN	1973799.1390763	1973799.65562297
36	19	0	0	90	36.1581920903955	36.241610738255	17	0.566723763933405	2	12	2	NaN	2	3	0.0498166688863308	1	1	NaN	135	3	9	1	121	221	321	NaN	521	0.540964775485918	2	1	NaN	1973800.5392388	NaN	1973801.5226558	1973802.03918202
36	19	0	0	90	36.1581920903955	36.241610738255	23	0.766743915909901	2	8	6	NaN	2	4	0.0498166688863308	1	1	NaN	136	3	10	1	121	221	321	NaN	521	0.298250827472657	2	1	NaN	1973803.3895024	NaN	1973804.3728905	1973804.88946347
36	19	0	0	90	36.1581920903955	36.241610738255	18	0.600060455929488	2	1	1	NaN	1	4	0.0498166688863308	1	1	NaN	137	3	11	1	121	221	321	NaN	521	0.401392275467515	1	1	NaN	1973806.0064494	NaN	1973806.9898547	1973807.50638492
36	19	0	0	90	36.1581920903955	36.241610738255	10	0.333366919960827	2	12	3	NaN	2	3	0.0498166688863308	1	1	NaN	138	3	12	1	121	221	321	NaN	521	0.0103902274277061	2	1	NaN	1973808.7232279	NaN	1973809.7068097	1973810.22332287
36	19	0	0	90	36.1581920903955	36.241610738255	17	0.566723763933405	2	11	5	NaN	2	4	0.0498166688863308	1	1	NaN	139	3	13	1	121	221	321	NaN	521	0.271862375549972	2	1	NaN	1973811.0402545	NaN	1973812.0236694	1973812.54021372
36	19	0	0	90	36.1581920903955	36.241610738255	0	0	1	5	5	NaN	1	4	0.0498166688863308	1	1	NaN	140	3	14	1	111	211	311	NaN	511	0.183756327489391	1	1	NaN	1973813.6238223	NaN	1973814.6072707	1973815.12380927
36	19	0	0	90	36.1581920903955	36.241610738255	24	0.800080607905984	2	3	1	NaN	1	5	0.0498166688863308	1	1	NaN	141	3	15	1	121	221	321	NaN	521	0.0103955275844783	1	1	NaN	1973816.1240819	NaN	1973817.1075007	1973817.62404137
36	19	0	0	90	36.1581920903955	36.241610738255	6	0.200020151976496	2	5	2	NaN	1	4	0.0498166688863308	1	1	NaN	142	3	16	1	121	221	321	NaN	521	0.262854175642133	1	1	NaN	1973818.441013	NaN	1973819.4243915	1973819.94094252
36	19	0	0	90	36.1581920903955	36.241610738255	8	0.266693535968661	2	8	5	NaN	2	3	0.0498166688863308	1	1	NaN	143	3	17	1	121	221	321	NaN	521	0.376102875452489	2	1	NaN	1973821.0079145	NaN	1973821.9913227	1973822.50786462
36	19	0	0	90	36.1581920903955	36.241610738255	10	0.333366919960827	2	1	6	NaN	1	3	0.0498166688863308	1	1	NaN	144	3	18	1	121	221	321	NaN	521	0.452444575494155	2	0	NaN	1973823.6915228	NaN	1973824.6749058	1973825.19145062
36	19	0	0	90	36.1581920903955	36.241610738255	14	0.466713687945157	2	6	3	NaN	1	3	0.0498166688863308	1	1	NaN	145	3	19	1	121	221	321	NaN	521	0.10947327548638	1	1	NaN	1973826.4584453	NaN	1973827.4418359	1973827.95839552
36	19	0	0	90	36.1581920903955	36.241610738255	11	0.366703611956909	2	8	6	NaN	2	3	0.0498166688863308	1	1	NaN	146	3	20	1	121	221	321	NaN	521	0.700947523582727	2	1	NaN	1973828.8753499	NaN	1973829.8587456	1973830.37529248
36	19	0	0	90	36.1581920903955	36.241610738255	10	0.333366919960827	2	2	3	NaN	1	4	0.0498166688863308	1	1	NaN	147	3	21	1	121	221	321	NaN	521	0.0755192756187171	1	1	NaN	1973831.8923129	NaN	1973832.8757275	1973833.39225902
36	19	0	0	90	36.1581920903955	36.241610738255	17	0.566723763933405	2	7	4	NaN	2	3	0.0498166688863308	1	1	NaN	148	3	22	1	121	221	321	NaN	521	0.492277927463874	2	1	NaN	1973834.2758702	NaN	1973835.2592701	1973835.77584717
36	19	0	0	90	36.1581920903955	36.241610738255	6	0.200020151976496	2	11	6	NaN	2	4	0.0498166688863308	1	1	NaN	149	3	23	1	121	221	321	NaN	521	0.010458771372214	2	1	NaN	1973837.0760601	NaN	1973838.0595437	1973838.57609823
36	19	0	0	90	36.1581920903955	36.241610738255	8	0.266693535968661	2	3	6	NaN	1	5	0.0498166688863308	1	1	NaN	150	3	24	1	121	221	321	NaN	521	0.183207975700498	1	1	NaN	1973839.3929133	NaN	1973840.3764487	1973840.89299422
36	19	0	0	90	36.1581920903955	36.241610738255	6	0.200020151976496	2	8	5	NaN	2	3	0.0498166688863308	1	1	NaN	151	3	25	1	121	221	321	NaN	521	0.0505966276396066	2	1	NaN	1973841.893296	NaN	1973842.8767341	1973843.39324737
36	19	0	0	90	36.1581920903955	36.241610738255	25	0.833417299902067	2	5	3	NaN	1	4	0.0498166688863308	1	1	NaN	152	3	26	1	121	221	321	NaN	521	0.0678093275055289	1	1	NaN	1973844.2601865	NaN	1973845.2435674	1973845.76013907
36	19	0	0	90	36.1581920903955	36.241610738255	12	0.400040303952992	2	4	2	NaN	1	4	0.0498166688863308	1	1	NaN	153	3	27	1	121	221	321	NaN	521	0.788000523345545	2	0	NaN	1973846.6437566	NaN	1973847.6271628	1973848.14370708
36	19	0	0	90	36.1581920903955	36.241610738255	22	0.733407223913819	2	3	3	NaN	1	4	0.0498166688863308	1	1	NaN	154	3	28	1	121	221	321	NaN	521	0.559635327430442	1	1	NaN	1973849.7440644	NaN	1973850.7274694	1973851.24401757
36	19	0	0	90	36.1581920903955	36.241610738255	7	0.233356843972579	2	11	1	NaN	2	3	0.0498166688863308	1	1	NaN	155	3	29	1	121	221	321	NaN	521	0.892812175676227	2	1	NaN	1973852.6109944	NaN	1973853.5944085	1973854.11095782
36	19	0	0	90	36.1581920903955	36.241610738255	21	0.700070531917736	2	5	6	NaN	1	5	0.0498166688863308	1	1	NaN	156	3	30	1	121	221	321	NaN	521	0.556876727612689	1	1	NaN	1973855.8113176	NaN	1973856.7947272	1973857.31126957
36	19	0	0	90	36.1581920903955	36.241610738255	6	0.200020151976496	2	3	4	NaN	1	3	0.0498166688863308	1	1	NaN	157	3	31	1	121	221	321	NaN	521	0.36183117562905	1	1	NaN	1973858.6782735	NaN	1973859.661678	1973860.17821982
36	19	0	0	90	36.1581920903955	36.241610738255	21	0.700070531917736	2	7	3	NaN	2	5	0.0498166688863308	1	1	NaN	158	3	32	1	121	221	321	NaN	521	0.010398427490145	2	1	NaN	1973861.3618731	NaN	1973862.3451776	1973862.86181497
36	19	0	0	90	36.1581920903955	36.241610738255	24	0.800080607905984	2	5	2	NaN	1	5	0.0498166688863308	1	1	NaN	159	3	33	1	121	221	321	NaN	521	0.0104096755385399	1	1	NaN	1973863.6786949	NaN	1973864.6621736	1973865.17871622
36	19	0	0	90	36.1581920903955	36.241610738255	21	0.700070531917736	2	6	4	NaN	1	3	0.0498166688863308	1	1	NaN	160	3	34	1	121	221	321	NaN	521	0.71541532757692	2	0	NaN	1973866.0123422	NaN	1973866.9957112	1973867.51226987
36	19	0	0	90	36.1581920903955	36.241610738255	6	0.200020151976496	2	11	5	NaN	2	5	0.0498166688863308	1	1	NaN	161	3	35	1	121	221	321	NaN	521	0.0820330234710127	2	1	NaN	1973869.0459604	NaN	1973870.0293644	1973870.54590938
36	19	0	0	90	36.1581920903955	36.241610738255	7	0.233356843972579	2	1	3	NaN	1	3	0.0498166688863308	1	1	NaN	162	3	36	1	121	221	321	NaN	521	0.105884639546275	1	1	NaN	1973871.4461846	NaN	1973872.4295954	1973872.94614576
36	19	0	0	90	36.1581920903955	36.241610738255	17	0.566723763933405	2	12	6	NaN	2	5	0.0498166688863308	1	1	NaN	163	3	37	1	121	221	321	NaN	521	0.128751723328605	2	1	NaN	1973873.8630956	NaN	1973874.846495	1973875.36304208
36	19	0	0	90	36.1581920903955	36.241610738255	7	0.233356843972579	2	4	4	NaN	1	4	0.0498166688863308	1	1	NaN	164	3	38	1	121	221	321	NaN	521	0.287154227495193	1	1	NaN	1973876.2965638	NaN	1973877.2800504	1973877.79661677
36	19	0	0	90	36.1581920903955	36.241610738255	16	0.533387071937323	2	11	3	NaN	2	4	0.0498166688863308	1	1	NaN	165	3	39	1	121	221	321	NaN	521	0.0632234716322273	2	1	NaN	1973878.8968232	NaN	1973879.8803239	1973880.39686883
36	19	0	0	90	36.1581920903955	36.241610738255	21	0.700070531917736	2	8	4	NaN	2	5	0.0498166688863308	1	1	NaN	166	3	40	1	121	221	321	NaN	521	0.119534075492993	2	1	NaN	1973881.2804876	NaN	1973882.2638979	1973882.78043342
36	19	0	0	90	36.1581920903955	36.241610738255	20	0.666733839921653	2	6	4	NaN	1	5	0.0498166688863308	1	1	NaN	167	3	41	1	121	221	321	NaN	521	0.181538975564763	1	1	NaN	1973883.714062	NaN	1973884.6974634	1973885.21402352
36	19	0	0	90	36.1581920903955	36.241610738255	13	0.433376995949075	2	11	2	NaN	2	4	0.0498166688863308	1	1	NaN	168	3	42	1	121	221	321	NaN	521	3.30621032742783	1	0	NaN	1973886.1976517	NaN	1973887.181023	1973887.69758627
36	19	0	0	90	36.1581920903955	36.241610738255	15	0.50005037994124	2	11	4	NaN	2	3	0.0498166688863308	1	1	NaN	169	3	43	1	121	221	321	NaN	521	1.06543162767775	1	0	NaN	1973891.8149285	NaN	1973892.7983063	1973893.31480817
36	19	0	0	90	36.1581920903955	36.241610738255	14	0.466713687945157	2	7	3	NaN	2	4	0.0498166688863308	1	1	NaN	170	3	44	1	121	221	321	NaN	521	2.82527878764085	2	1	NaN	1973895.1983971	NaN	1973896.1819137	1973896.69847521
36	19	0	0	90	36.1581920903955	36.241610738255	8	0.266693535968661	2	2	3	NaN	1	5	0.0498166688863308	1	1	NaN	171	3	45	1	121	221	321	NaN	521	0.0104199233464897	1	1	NaN	1973900.3323786	NaN	1973901.3157779	1973901.83231048
36	19	0	0	90	36.1581920903955	36.241610738255	25	0.833417299902067	2	1	1	NaN	1	3	0.0498166688863308	1	1	NaN	172	3	46	1	121	221	321	NaN	521	0.0104083276819438	1	1	NaN	1973902.66592	NaN	1973903.6493126	1973904.16586637
36	19	0	0	90	36.1581920903955	36.241610738255	14	0.466713687945157	2	9	1	NaN	2	5	0.0498166688863308	1	1	NaN	173	3	47	1	121	221	321	NaN	521	0.153103023534641	2	1	NaN	1973904.9826718	NaN	1973905.9662268	1973906.48276638
36	19	0	0	90	36.1581920903955	36.241610738255	17	0.566723763933405	2	2	3	NaN	1	5	0.0498166688863308	1	1	NaN	174	3	48	1	121	221	321	NaN	521	0.230329227633774	1	1	NaN	1973907.4497249	NaN	1973908.433142	1973908.94966807
36	19	0	0	90	36.1581920903955	36.241610738255	12	0.400040303952992	2	11	2	NaN	2	3	0.0498166688863308	1	1	NaN	175	3	49	1	121	221	321	NaN	521	0.0103888276498765	2	1	NaN	1973909.9998495	NaN	1973910.9833806	1973911.49994487
36	19	0	0	90	36.1581920903955	36.241610738255	14	0.466713687945157	2	9	4	NaN	2	3	0.0498166688863308	1	1	NaN	176	3	50	1	121	221	321	NaN	521	0.131450675660744	2	1	NaN	1973912.3167979	NaN	1973913.3002687	1973913.81681242
36	19	0	0	90	36.1581920903955	36.241610738255	21	0.700070531917736	2	6	6	NaN	1	5	0.0498166688863308	1	1	NaN	177	3	51	1	121	221	321	NaN	521	0.0104396715760231	1	1	NaN	1973914.7669753	NaN	1973915.7505053	1973916.26705113
36	19	0	0	90	36.1581920903955	36.241610738255	7	0.233356843972579	2	10	2	NaN	2	5	0.0498166688863308	1	1	NaN	178	3	52	1	121	221	321	NaN	521	0.107372275786474	2	1	NaN	1973917.1006567	NaN	1973918.0840723	1973918.60061282
36	19	0	0	90	36.1581920903955	36.241610738255	17	0.566723763933405	2	7	1	NaN	2	4	0.0498166688863308	1	1	NaN	179	3	53	1	121	221	321	NaN	521	0.0102944397367537	2	1	NaN	1973919.5175819	NaN	1973920.5010214	1973921.01752936
36	19	0	0	90	36.1581920903955	36.241610738255	0	0	1	5	5	NaN	1	4	0.0498166688863308	1	1	NaN	180	3	54	1	111	211	311	NaN	511	0.0755174274090677	2	0	NaN	1973922.0843928	NaN	1973923.0678914	1973923.58444897
36	19	0	0	90	36.1581920903955	36.241610738255	9	0.300030227964744	2	12	4	NaN	2	3	0.0498166688863308	1	1	NaN	181	3	55	1	121	221	321	NaN	521	0.010376279707998	2	1	NaN	1973924.4680679	NaN	1973925.4514513	1973925.96800512
36	19	0	0	90	36.1581920903955	36.241610738255	19	0.633397147925571	2	1	4	NaN	1	4	0.0498166688863308	1	1	NaN	182	3	56	1	121	221	321	NaN	521	0.063126627355814	1	1	NaN	1973926.7848308	NaN	1973927.768401	1973928.28489677
36	19	0	0	90	36.1581920903955	36.241610738255	7	0.233356843972579	2	4	1	NaN	1	3	0.0498166688863308	1	1	NaN	183	3	57	1	121	221	321	NaN	521	0.567878075642511	1	1	NaN	1973929.1685265	NaN	1973930.1519233	1973930.66846452
36	19	0	0	90	36.1581920903955	36.241610738255	13	0.433376995949075	2	4	2	NaN	1	5	0.0498166688863308	1	1	NaN	184	3	58	1	121	221	321	NaN	521	0.556085927644745	1	1	NaN	1973932.0521365	NaN	1973933.0355432	1973933.55207987
36	19	0	0	90	36.1581920903955	36.241610738255	11	0.366703611956909	2	6	5	NaN	1	4	0.0498166688863308	1	1	NaN	185	3	59	1	121	221	321	NaN	521	0.296810775529593	1	1	NaN	1973934.919088	NaN	1973935.902504	1973936.41904082
36	19	0	0	90	36.1581920903955	36.241610738255	13	0.433376995949075	2	6	4	NaN	1	3	0.0498166688863308	1	1	NaN	186	3	60	1	121	221	321	NaN	521	0.36029377556406	1	1	NaN	1973937.5360062	NaN	1973938.5194204	1973939.03595402
36	19	0	0	90	36.1581920903955	36.241610738255	16	0.533387071937323	2	4	3	NaN	1	3	0.0498166688863308	1	1	NaN	187	3	61	1	121	221	321	NaN	521	0.359759927494451	1	1	NaN	1973940.3362645	NaN	1973941.3196934	1973941.83623147
36	19	0	0	90	36.1581920903955	36.241610738255	14	0.466713687945157	2	11	4	NaN	2	3	0.0498166688863308	1	1	NaN	188	3	62	1	121	221	321	NaN	521	0.0104215233586729	2	1	NaN	1973943.0032452	NaN	1973943.9866116	1973944.50316138
36	19	0	0	90	36.1581920903955	36.241610738255	10	0.333366919960827	2	11	3	NaN	2	4	0.0498166688863308	1	1	NaN	189	3	63	1	121	221	321	NaN	521	0.246946027502418	2	1	NaN	1973945.3366562	NaN	1973946.3201781	1973946.83672417
36	19	0	0	90	36.1581920903955	36.241610738255	11	0.366703611956909	2	2	6	NaN	1	4	0.0498166688863308	1	1	NaN	190	4	1	1	121	221	321	NaN	521	0.0990358756389469	1	1	NaN	1973954.0209434	NaN	1973955.0043448	1973955.52090292
36	19	0	0	90	36.1581920903955	36.241610738255	22	0.733407223913819	2	8	5	NaN	2	5	0.0498166688863308	1	1	NaN	191	4	2	1	121	221	321	NaN	521	1.44198753149249	2	1	NaN	1973956.437728	NaN	1973957.4212682	1973957.93781527
36	19	0	0	90	36.1581920903955	36.241610738255	17	0.566723763933405	2	1	4	NaN	1	3	0.0498166688863308	1	1	NaN	192	4	3	1	121	221	321	NaN	521	0.0918543755542487	1	1	NaN	1973960.1882398	NaN	1973961.1716368	1973961.68817572
36	19	0	0	90	36.1581920903955	36.241610738255	13	0.433376995949075	2	1	3	NaN	1	5	0.0498166688863308	1	1	NaN	193	4	4	1	121	221	321	NaN	521	0.411506027448922	1	1	NaN	1973962.5884625	NaN	1973963.5718788	1973964.08840967
36	19	0	0	90	36.1581920903955	36.241610738255	19	0.633397147925571	2	9	2	NaN	2	4	0.0498166688863308	1	1	NaN	194	4	5	1	121	221	321	NaN	521	0.245907219359651	2	1	NaN	1973965.3220652	NaN	1973966.3054598	1973966.82201188
36	19	0	0	90	36.1581920903955	36.241610738255	12	0.400040303952992	2	9	2	NaN	2	4	0.0498166688863308	1	1	NaN	195	4	6	1	121	221	321	NaN	521	0.0103914274368435	2	1	NaN	1973967.872249	NaN	1973968.8556511	1973969.37227087
36	19	0	0	90	36.1581920903955	36.241610738255	24	0.800080607905984	2	2	1	NaN	1	5	0.0498166688863308	1	1	NaN	196	4	7	1	121	221	321	NaN	521	1.17030497570522	1	1	NaN	1973970.2058852	NaN	1973971.1892852	1973971.70582332
36	19	0	0	90	36.1581920903955	36.241610738255	18	0.600060455929488	2	11	6	NaN	2	4	0.0498166688863308	1	1	NaN	197	4	8	1	121	221	321	NaN	521	0.0104387756437063	2	1	NaN	1973973.6894365	NaN	1973974.6729515	1973975.18949932
36	19	0	0	90	36.1581920903955	36.241610738255	21	0.700070531917736	2	3	1	NaN	1	3	0.0498166688863308	1	1	NaN	198	4	9	1	121	221	321	NaN	521	0.729487327393144	1	1	NaN	1973976.0064298	NaN	1973976.9898706	1973977.50640417
36	19	0	0	90	36.1581920903955	36.241610738255	19	0.633397147925571	2	9	3	NaN	2	4	0.0498166688863308	1	1	NaN	199	4	10	1	121	221	321	NaN	521	0.167176079470664	2	1	NaN	1973979.0568181	NaN	1973980.0401478	1973980.55670292
36	19	0	0	90	36.1581920903955	36.241610738255	7	0.233356843972579	2	8	1	NaN	2	5	0.0498166688863308	1	1	NaN	200	4	11	1	121	221	321	NaN	521	0.236020075622946	2	1	NaN	1973981.5402976	NaN	1973982.5237293	1973983.04026822
36	19	0	0	90	36.1581920903955	36.241610738255	11	0.366703611956909	2	3	5	NaN	1	4	0.0498166688863308	1	1	NaN	201	4	12	1	121	221	321	NaN	521	0.357703743735328	2	0	NaN	1973984.0905897	NaN	1973985.0739893	1973985.59052686
36	19	0	0	90	36.1581920903955	36.241610738255	20	0.666733839921653	2	7	5	NaN	2	5	0.0498166688863308	1	1	NaN	202	4	13	1	121	221	321	NaN	521	1.17875477555208	1	0	NaN	1973986.7574937	NaN	1973987.7409082	1973988.25744952
36	19	0	0	90	36.1581920903955	36.241610738255	15	0.50005037994124	2	12	2	NaN	2	4	0.0498166688863308	1	1	NaN	203	4	14	1	121	221	321	NaN	521	0.798127779504284	2	1	NaN	1973990.2578508	NaN	1973991.2412444	1973991.75780152
36	19	0	0	90	36.1581920903955	36.241610738255	21	0.700070531917736	2	2	1	NaN	1	3	0.0498166688863308	1	1	NaN	204	4	15	1	121	221	321	NaN	521	0.745780575554818	2	0	NaN	1973993.358135	NaN	1973994.3415998	1973994.85809522
36	19	0	0	90	36.1581920903955	36.241610738255	15	0.50005037994124	2	6	2	NaN	1	4	0.0498166688863308	1	1	NaN	205	4	16	1	121	221	321	NaN	521	1.06301952758804	1	1	NaN	1973996.4251289	NaN	1973997.4085111	1973997.92506907
36	19	0	0	90	36.1581920903955	36.241610738255	25	0.833417299902067	2	12	6	NaN	2	4	0.0498166688863308	1	1	NaN	206	4	17	1	121	221	321	NaN	521	0.0102554960176349	2	1	NaN	1973999.8087884	NaN	1974000.7921758	1974001.3087419
36	19	0	0	90	36.1581920903955	36.241610738255	7	0.233356843972579	2	9	4	NaN	2	3	0.0498166688863308	1	1	NaN	207	4	18	1	121	221	321	NaN	521	0.090398775646463	2	1	NaN	1974002.1257109	NaN	1974003.1090775	1974003.62562092
36	19	0	0	90	36.1581920903955	36.241610738255	15	0.50005037994124	2	9	3	NaN	2	3	0.0498166688863308	1	1	NaN	208	4	19	1	121	221	321	NaN	521	0.338356475578621	2	1	NaN	1974004.5258056	NaN	1974005.5093117	1974006.02586842
36	19	0	0	90	36.1581920903955	36.241610738255	10	0.333366919960827	2	7	5	NaN	2	5	0.0498166688863308	1	1	NaN	209	4	20	1	121	221	321	NaN	521	0.200040927389637	2	1	NaN	1974007.1760513	NaN	1974008.1595802	1974008.67612757
36	19	0	0	90	36.1581920903955	36.241610738255	21	0.700070531917736	2	3	2	NaN	1	3	0.0498166688863308	1	1	NaN	210	4	21	1	121	221	321	NaN	521	0.203339683590457	1	1	NaN	1974009.6931321	NaN	1974010.6765093	1974011.19303232
36	19	0	0	90	36.1581920903955	36.241610738255	10	0.333366919960827	2	6	6	NaN	1	4	0.0498166688863308	1	1	NaN	211	4	22	1	121	221	321	NaN	521	0.318100875709206	1	1	NaN	1974012.210027	NaN	1974013.193396	1974013.70994552
36	19	0	0	90	36.1581920903955	36.241610738255	15	0.50005037994124	2	7	6	NaN	2	4	0.0498166688863308	1	1	NaN	212	4	23	1	121	221	321	NaN	521	0.948607075726613	1	0	NaN	1974014.8436009	NaN	1974015.8269961	1974016.34353652
36	19	0	0	90	36.1581920903955	36.241610738255	15	0.50005037994124	2	8	3	NaN	2	5	0.0498166688863308	1	1	NaN	213	4	24	1	121	221	321	NaN	521	0.241930927615613	2	1	NaN	1974018.110592	NaN	1974019.0939686	1974019.61052897
36	19	0	0	90	36.1581920903955	36.241610738255	23	0.766743915909901	2	7	3	NaN	2	5	0.0498166688863308	1	1	NaN	214	4	25	1	121	221	321	NaN	521	1.56338797556236	2	1	NaN	1974020.6607828	NaN	1974021.6442228	1974022.16077592
36	19	0	0	90	36.1581920903955	36.241610738255	6	0.200020151976496	2	12	6	NaN	2	4	0.0498166688863308	1	1	NaN	215	4	26	1	121	221	321	NaN	521	0.247149427421391	2	1	NaN	1974024.7612203	NaN	1974025.7446324	1974026.26118297
36	19	0	0	90	36.1581920903955	36.241610738255	6	0.200020151976496	2	6	1	NaN	1	5	0.0498166688863308	1	1	NaN	216	4	27	1	121	221	321	NaN	521	0.255962975556031	1	1	NaN	1974027.3281377	NaN	1974028.3115382	1974028.82809762
36	19	0	0	90	36.1581920903955	36.241610738255	13	0.433376995949075	2	5	1	NaN	1	3	0.0498166688863308	1	1	NaN	217	4	28	1	121	221	321	NaN	521	0.0103470836766064	1	1	NaN	1974030.3784247	NaN	1974031.3618468	1974031.87839362
36	19	0	0	90	36.1581920903955	36.241610738255	9	0.300030227964744	2	5	3	NaN	1	4	0.0498166688863308	1	1	NaN	218	4	29	1	121	221	321	NaN	521	0.240165775641799	1	1	NaN	1974032.711889	NaN	1974033.6954027	1974034.21195242
36	19	0	0	90	36.1581920903955	36.241610738255	8	0.266693535968661	2	1	2	NaN	1	3	0.0498166688863308	1	1	NaN	219	4	30	1	121	221	321	NaN	521	0.802275327499956	1	1	NaN	1974035.2622821	NaN	1974036.2456657	1974036.76221057
36	19	0	0	90	36.1581920903955	36.241610738255	22	0.733407223913819	2	1	6	NaN	1	3	0.0498166688863308	1	1	NaN	220	4	31	1	121	221	321	NaN	521	0.197233423357829	1	1	NaN	1974038.3792535	NaN	1974039.3626338	1974039.87918128
36	19	0	0	90	36.1581920903955	36.241610738255	6	0.200020151976496	2	10	2	NaN	2	5	0.0498166688863308	1	1	NaN	221	4	32	1	121	221	321	NaN	521	0.0104087756481022	2	1	NaN	1974040.8961718	NaN	1974041.8795831	1974042.39609852
36	19	0	0	90	36.1581920903955	36.241610738255	20	0.666733839921653	2	4	1	NaN	1	5	0.0498166688863308	1	1	NaN	222	4	33	1	121	221	321	NaN	521	0.026296975556761	1	1	NaN	1974043.2297095	NaN	1974044.2131122	1974044.72966362
36	19	0	0	90	36.1581920903955	36.241610738255	7	0.233356843972579	2	12	5	NaN	2	4	0.0498166688863308	1	1	NaN	223	4	34	1	121	221	321	NaN	521	0.604828275740147	2	1	NaN	1974045.5632946	NaN	1974046.5466643	1974047.06323472
36	19	0	0	90	36.1581920903955	36.241610738255	12	0.400040303952992	2	3	3	NaN	1	3	0.0498166688863308	1	1	NaN	224	4	35	1	121	221	321	NaN	521	0.0104131756816059	1	1	NaN	1974048.4802241	NaN	1974049.4636213	1974049.98017402
36	19	0	0	90	36.1581920903955	36.241610738255	18	0.600060455929488	2	8	2	NaN	2	3	0.0498166688863308	1	1	NaN	225	4	36	1	121	221	321	NaN	521	0.163043175591156	2	1	NaN	1974050.7971202	NaN	1974051.7805273	1974052.29706512
36	19	0	0	90	36.1581920903955	36.241610738255	6	0.200020151976496	2	4	1	NaN	1	3	0.0498166688863308	1	1	NaN	226	4	37	1	121	221	321	NaN	521	0.0103908274322748	1	1	NaN	1974053.2639192	NaN	1974054.2474436	1974054.76397717
36	19	0	0	90	36.1581920903955	36.241610738255	13	0.433376995949075	2	3	2	NaN	1	4	0.0498166688863308	1	1	NaN	227	4	38	1	121	221	321	NaN	521	0.0104121274780482	1	1	NaN	1974055.5975986	NaN	1974056.5809938	1974057.09753257
36	19	0	0	90	36.1581920903955	36.241610738255	20	0.666733839921653	2	12	2	NaN	2	3	0.0498166688863308	1	1	NaN	228	4	39	1	121	221	321	NaN	521	0.0103946274612099	2	1	NaN	1974057.9143439	NaN	1974058.8978891	1974059.41443507
36	19	0	0	90	36.1581920903955	36.241610738255	6	0.200020151976496	2	8	1	NaN	2	4	0.0498166688863308	1	1	NaN	229	4	40	1	121	221	321	NaN	521	0.825127523392439	2	1	NaN	1974060.2313052	NaN	1974061.2147765	1974061.73132298
36	19	0	0	90	36.1581920903955	36.241610738255	17	0.566723763933405	2	5	4	NaN	1	5	0.0498166688863308	1	1	NaN	230	4	41	1	121	221	321	NaN	521	0.371105875587091	1	1	NaN	1974063.3650222	NaN	1974064.3484212	1974064.86496532
36	19	0	0	90	36.1581920903955	36.241610738255	0	0	1	12	1	NaN	2	4	0.0498166688863308	1	1	NaN	231	4	42	1	111	211	311	NaN	511	0.0103919275570661	2	1	NaN	1974066.0484951	NaN	1974067.0320078	1974067.54856327
36	19	0	0	90	36.1581920903955	36.241610738255	8	0.266693535968661	2	8	3	NaN	2	5	0.0498166688863308	1	1	NaN	232	4	43	1	121	221	321	NaN	521	0.275067675393075	2	1	NaN	1974068.3653911	NaN	1974069.3489178	1974069.86545212
36	19	0	0	90	36.1581920903955	36.241610738255	20	0.666733839921653	2	2	3	NaN	1	5	0.0498166688863308	1	1	NaN	233	4	44	1	121	221	321	NaN	521	0.0103898274246603	1	1	NaN	1974070.9491132	NaN	1974071.9324826	1974072.44905017
36	19	0	0	90	36.1581920903955	36.241610738255	20	0.666733839921653	2	1	2	NaN	1	3	0.0498166688863308	1	1	NaN	234	4	45	1	121	221	321	NaN	521	0.0104091754183173	1	1	NaN	1974073.26597	NaN	1974074.2493952	1974074.76593662
36	19	0	0	90	36.1581920903955	36.241610738255	10	0.333366919960827	2	4	4	NaN	1	3	0.0498166688863308	1	1	NaN	235	4	46	1	121	221	321	NaN	521	0.587123127421364	1	1	NaN	1974075.9328218	NaN	1974076.9163145	1974077.43286117
36	19	0	0	90	36.1581920903955	36.241610738255	11	0.366703611956909	2	12	4	NaN	2	3	0.0498166688863308	1	1	NaN	236	4	47	1	121	221	321	NaN	521	0.0232103276066482	2	1	NaN	1974078.8331839	NaN	1974079.8165952	1974080.33315377
36	19	0	0	90	36.1581920903955	36.241610738255	19	0.633397147925571	2	3	2	NaN	1	5	0.0498166688863308	1	1	NaN	237	4	48	1	121	221	321	NaN	521	0.337727527599782	1	1	NaN	1974081.1666242	NaN	1974082.1501781	1974082.66670747
36	19	0	0	90	36.1581920903955	36.241610738255	0	0	1	2	2	NaN	1	5	0.0498166688863308	1	1	NaN	238	4	49	1	111	211	311	NaN	511	0.367235175566748	1	1	NaN	1974083.8170257	NaN	1974084.8004216	1974085.31696732
36	19	0	0	90	36.1581920903955	36.241610738255	24	0.800080607905984	2	8	6	NaN	2	4	0.0498166688863308	1	1	NaN	239	4	50	1	121	221	321	NaN	521	0.11593878781423	2	1	NaN	1974086.5006236	NaN	1974087.4840331	1974088.00057751
36	19	0	0	90	36.1581920903955	36.241610738255	20	0.666733839921653	2	9	2	NaN	2	5	0.0498166688863308	1	1	NaN	240	4	51	1	121	221	321	NaN	521	0.114029771415517	1	0	NaN	1974088.9341903	NaN	1974089.9175965	1974090.43413973
36	19	0	0	90	36.1581920903955	36.241610738255	19	0.633397147925571	2	4	3	NaN	1	3	0.0498166688863308	1	1	NaN	241	4	52	1	121	221	321	NaN	521	0.848497927421704	1	1	NaN	1974091.3677629	NaN	1974092.3511578	1974092.86771847
36	19	0	0	90	36.1581920903955	36.241610738255	18	0.600060455929488	2	11	5	NaN	2	4	0.0498166688863308	1	1	NaN	242	4	53	1	121	221	321	NaN	521	0.0104215233586729	2	1	NaN	1974094.5347381	NaN	1974095.5181328	1974096.03468468
36	19	0	0	90	36.1581920903955	36.241610738255	0	0	1	7	6	NaN	2	3	0.0498166688863308	1	1	NaN	243	4	54	1	111	211	311	NaN	511	0.212951127439737	2	1	NaN	1974096.8515207	NaN	1974097.8350405	1974098.35159077
36	19	0	0	90	36.1581920903955	36.241610738255	13	0.433376995949075	2	3	5	NaN	1	4	0.0498166688863308	1	1	NaN	244	4	55	1	121	221	321	NaN	521	0.911495323525742	1	1	NaN	1974099.3686235	NaN	1974100.3519702	1974100.86849778
36	19	0	0	90	36.1581920903955	36.241610738255	15	0.50005037994124	2	4	5	NaN	1	5	0.0498166688863308	1	1	NaN	245	4	56	1	121	221	321	NaN	521	0.246315427357331	1	1	NaN	1974102.6022128	NaN	1974103.5855972	1974104.10215347
36	19	0	0	90	36.1581920903955	36.241610738255	0	0	1	4	5	NaN	1	3	0.0498166688863308	1	1	NaN	246	4	57	1	111	211	311	NaN	511	0.27936704386957	1	1	NaN	1974105.1691267	NaN	1974106.1525214	1974106.66906806
36	19	0	0	90	36.1581920903955	36.241610738255	8	0.266693535968661	2	11	3	NaN	2	5	0.0498166688863308	1	1	NaN	247	4	58	1	121	221	321	NaN	521	0.318912427406758	2	1	NaN	1974107.769384	NaN	1974108.7527814	1974109.26932877
36	19	0	0	90	36.1581920903955	36.241610738255	23	0.766743915909901	2	11	6	NaN	2	4	0.0498166688863308	1	1	NaN	248	4	59	1	121	221	321	NaN	521	0.541614275658503	2	1	NaN	1974110.4029649	NaN	1974111.3863708	1974111.90290862
36	19	0	0	90	36.1581920903955	36.241610738255	23	0.766743915909901	2	9	4	NaN	2	5	0.0498166688863308	1	1	NaN	249	4	60	1	121	221	321	NaN	521	0.154949827585369	2	1	NaN	1974113.2532515	NaN	1974114.2366352	1974114.75319817
36	19	0	0	90	36.1581920903955	36.241610738255	16	0.533387071937323	2	2	6	NaN	1	3	0.0498166688863308	1	1	NaN	250	4	61	1	121	221	321	NaN	521	0.0321280756033957	1	1	NaN	1974115.7200265	NaN	1974116.7035603	1974117.22009832
36	19	0	0	90	36.1581920903955	36.241610738255	25	0.833417299902067	2	3	1	NaN	1	3	0.0498166688863308	1	1	NaN	251	4	62	1	121	221	321	NaN	521	0.217868827516213	1	1	NaN	1974118.0703575	NaN	1974119.0537787	1974119.57033577
36	19	0	0	90	36.1581920903955	36.241610738255	17	0.566723763933405	2	10	4	NaN	2	3	0.0498166688863308	1	1	NaN	252	4	63	1	121	221	321	NaN	521	0.0363275755662471	2	1	NaN	1974120.6039672	NaN	1974121.5873699	1974122.10390912
36	19	0	0	90	36.1581920903955	36.241610738255	11	0.366703611956909	2	9	6	NaN	2	4	0.0498166688863308	1	1	NaN	253	5	1	1	121	221	321	NaN	521	0.753591027343646	2	1	NaN	1974129.0548064	NaN	1974130.0382187	1974130.55474377
36	19	0	0	90	36.1581920903955	36.241610738255	21	0.700070531917736	2	1	3	NaN	1	5	0.0498166688863308	1	1	NaN	254	5	2	1	121	221	321	NaN	521	0.534907175693661	1	1	NaN	1974132.1217203	NaN	1974133.1051671	1974133.62170312
36	19	0	0	90	36.1581920903955	36.241610738255	7	0.233356843972579	2	6	1	NaN	1	5	0.0498166688863308	1	1	NaN	255	5	3	1	121	221	321	NaN	521	0.724082275526598	1	1	NaN	1974134.9719926	NaN	1974135.9554504	1974136.47198702
36	19	0	0	90	36.1581920903955	36.241610738255	14	0.466713687945157	2	1	1	NaN	1	3	0.0498166688863308	1	1	NaN	256	5	4	1	121	221	321	NaN	521	1.26696962746792	1	1	NaN	1974138.0056854	NaN	1974138.9890727	1974139.50562417
36	19	0	0	90	36.1581920903955	36.241610738255	9	0.300030227964744	2	12	5	NaN	2	5	0.0498166688863308	1	1	NaN	257	5	5	1	121	221	321	NaN	521	0.186945327557623	2	1	NaN	1974141.5893227	NaN	1974142.5727637	1974143.08931017
36	19	0	0	90	36.1581920903955	36.241610738255	12	0.400040303952992	2	2	2	NaN	1	5	0.0498166688863308	1	1	NaN	258	5	6	1	121	221	321	NaN	521	0.0103949275799096	1	1	NaN	1974144.0896265	NaN	1974145.0730087	1974145.58954617
36	19	0	0	90	36.1581920903955	36.241610738255	23	0.766743915909901	2	8	6	NaN	2	4	0.0498166688863308	1	1	NaN	259	5	7	1	121	221	321	NaN	521	0.0103959275875241	2	1	NaN	1974146.4231745	NaN	1974147.4065911	1974147.92311347
36	19	0	0	90	36.1581920903955	36.241610738255	12	0.400040303952992	2	1	3	NaN	1	4	0.0498166688863308	1	1	NaN	260	5	8	1	121	221	321	NaN	521	0.82016507955268	1	1	NaN	1974148.7400704	NaN	1974149.7235035	1974150.24002822
36	19	0	0	90	36.1581920903955	36.241610738255	24	0.800080607905984	2	9	5	NaN	2	5	0.0498166688863308	1	1	NaN	261	5	9	1	121	221	321	NaN	521	0.222879275679588	2	1	NaN	1974151.8737023	NaN	1974152.8571078	1974153.37364942
36	19	0	0	90	36.1581920903955	36.241610738255	0	0	1	3	3	NaN	1	3	0.0498166688863308	1	1	NaN	262	5	10	1	111	211	311	NaN	511	0.0103784797247499	1	1	NaN	1974154.4072021	NaN	1974155.390684	1974155.90723502
36	19	0	0	90	36.1581920903955	36.241610738255	24	0.800080607905984	2	1	1	NaN	1	5	0.0498166688863308	1	1	NaN	263	5	11	1	121	221	321	NaN	521	0.0282673756591976	1	1	NaN	1974156.7241877	NaN	1974157.7075662	1974158.22411982
36	19	0	0	90	36.1581920903955	36.241610738255	15	0.50005037994124	2	3	4	NaN	1	5	0.0498166688863308	1	1	NaN	264	5	12	1	121	221	321	NaN	521	0.415097427554429	1	1	NaN	1974159.0577069	NaN	1974160.0411499	1974160.55767827
36	19	0	0	90	36.1581920903955	36.241610738255	17	0.566723763933405	2	10	6	NaN	2	4	0.0498166688863308	1	1	NaN	265	5	13	1	121	221	321	NaN	521	0.161063427571207	2	1	NaN	1974161.7913428	NaN	1974162.7747398	1974163.29128967
36	19	0	0	90	36.1581920903955	36.241610738255	23	0.766743915909901	2	10	3	NaN	2	4	0.0498166688863308	1	1	NaN	266	5	14	1	121	221	321	NaN	521	0.293948927428573	2	1	NaN	1974164.2582627	NaN	1974165.2416643	1974165.75819957
36	19	0	0	90	36.1581920903955	36.241610738255	0	0	1	10	1	NaN	2	3	0.0498166688863308	1	1	NaN	267	5	15	1	111	211	311	NaN	511	1.1661174276378	2	1	NaN	1974166.8585158	NaN	1974167.841898	1974168.35844697
36	19	0	0	90	36.1581920903955	36.241610738255	16	0.533387071937323	2	6	2	NaN	1	3	0.0498166688863308	1	1	NaN	268	5	16	1	121	221	321	NaN	521	0.0103927275631577	1	1	NaN	1974170.3422087	NaN	1974171.3255825	1974171.84212947
36	19	0	0	90	36.1581920903955	36.241610738255	11	0.366703611956909	2	11	6	NaN	2	4	0.0498166688863308	1	1	NaN	269	5	17	1	121	221	321	NaN	521	1.48417332745157	2	1	NaN	1974173.092422	NaN	1974174.0758354	1974174.59240157
36	19	0	0	90	36.1581920903955	36.241610738255	21	0.700070531917736	2	4	3	NaN	1	4	0.0498166688863308	1	1	NaN	270	5	18	1	121	221	321	NaN	521	0.283448691945523	1	1	NaN	1974176.8928282	NaN	1974177.8762609	1974178.39276641
36	19	0	0	90	36.1581920903955	36.241610738255	22	0.733407223913819	2	8	4	NaN	2	3	0.0498166688863308	1	1	NaN	271	5	19	1	121	221	321	NaN	521	0.171431323513389	2	1	NaN	1974179.4930705	NaN	1974180.4764916	1974180.99302828
36	19	0	0	90	36.1581920903955	36.241610738255	8	0.266693535968661	2	7	6	NaN	2	3	0.0498166688863308	1	1	NaN	272	5	20	1	121	221	321	NaN	521	0.887692379532382	2	1	NaN	1974181.9766758	NaN	1974182.9600507	1974183.47660632
36	19	0	0	90	36.1581920903955	36.241610738255	13	0.433376995949075	2	5	5	NaN	1	4	0.0498166688863308	1	1	NaN	273	5	21	1	121	221	321	NaN	521	0.639225427526981	1	1	NaN	1974185.176834	NaN	1974186.1603718	1974186.67691227
36	19	0	0	90	36.1581920903955	36.241610738255	25	0.833417299902067	2	2	2	NaN	1	5	0.0498166688863308	1	1	NaN	274	5	22	1	121	221	321	NaN	521	0.369030995992944	1	1	NaN	1974188.1272674	NaN	1974189.1106526	1974189.6272114
36	19	0	0	90	36.1581920903955	36.241610738255	8	0.266693535968661	2	12	6	NaN	2	4	0.0498166688863308	1	1	NaN	275	5	23	1	121	221	321	NaN	521	0.0104100755415857	2	1	NaN	1974190.8108542	NaN	1974191.7942468	1974192.31079522
36	19	0	0	90	36.1581920903955	36.241610738255	25	0.833417299902067	2	11	1	NaN	2	4	0.0498166688863308	1	1	NaN	276	5	24	1	121	221	321	NaN	521	0.0246276273392141	2	1	NaN	1974193.1277521	NaN	1974194.1111668	1974194.62769977
36	19	0	0	90	36.1581920903955	36.241610738255	12	0.400040303952992	2	11	5	NaN	2	4	0.0498166688863308	1	1	NaN	277	5	25	1	121	221	321	NaN	521	1.80304877553135	2	1	NaN	1974195.4612889	NaN	1974196.4447079	1974196.96125472
36	19	0	0	90	36.1581920903955	36.241610738255	14	0.466713687945157	2	4	6	NaN	1	4	0.0498166688863308	1	1	NaN	278	5	26	1	121	221	321	NaN	521	0.010394127573818	1	1	NaN	1974199.5782191	NaN	1974200.5617823	1974201.07832297
36	19	0	0	90	36.1581920903955	36.241610738255	18	0.600060455929488	2	10	6	NaN	2	5	0.0498166688863308	1	1	NaN	279	5	27	1	121	221	321	NaN	521	0.0103970274794847	2	1	NaN	1974201.9119493	NaN	1974202.8953548	1974203.41189397
36	19	0	0	90	36.1581920903955	36.241610738255	13	0.433376995949075	2	8	3	NaN	2	3	0.0498166688863308	1	1	NaN	280	5	28	1	121	221	321	NaN	521	0.107708227587864	2	1	NaN	1974204.2288518	NaN	1974205.2121467	1974205.72877957
36	19	0	0	90	36.1581920903955	36.241610738255	8	0.266693535968661	2	4	1	NaN	1	5	0.0498166688863308	1	1	NaN	281	5	29	1	121	221	321	NaN	521	0.473883275641128	1	1	NaN	1974206.6624141	NaN	1974207.6457975	1974208.16235232
36	19	0	0	90	36.1581920903955	36.241610738255	14	0.466713687945157	2	5	3	NaN	1	5	0.0498166688863308	1	1	NaN	282	5	30	1	121	221	321	NaN	521	0.225149327423424	1	1	NaN	1974209.4793731	NaN	1974210.4627339	1974210.97929527
36	19	0	0	90	36.1581920903955	36.241610738255	0	0	1	3	6	NaN	1	4	0.0498166688863308	1	1	NaN	283	5	31	1	111	211	311	NaN	511	0.219651527469978	1	1	NaN	1974212.0128031	NaN	1974212.9963086	1974213.51288017
36	19	0	0	90	36.1581920903955	36.241610738255	15	0.50005037994124	2	11	2	NaN	2	3	0.0498166688863308	1	1	NaN	284	5	32	1	121	221	321	NaN	521	0.141622027615085	2	1	NaN	1974214.5465231	NaN	1974215.52991	1974216.04646597
36	19	0	0	90	36.1581920903955	36.241610738255	19	0.633397147925571	2	5	4	NaN	1	4	0.0498166688863308	1	1	NaN	285	5	33	1	121	221	321	NaN	521	0.107707075541839	1	1	NaN	1974216.9966403	NaN	1974217.9801518	1974218.49669302
36	19	0	0	90	36.1581920903955	36.241610738255	24	0.800080607905984	2	9	5	NaN	2	3	0.0498166688863308	1	1	NaN	286	5	34	1	121	221	321	NaN	521	0.147109127603471	2	1	NaN	1974219.4136664	NaN	1974220.3970708	1974220.91360657
36	19	0	0	90	36.1581920903955	36.241610738255	17	0.566723763933405	2	3	4	NaN	1	3	0.0498166688863308	1	1	NaN	287	5	35	1	121	221	321	NaN	521	0.17621292732656	1	1	NaN	1974221.8805676	NaN	1974222.8639564	1974223.38050917
36	19	0	0	90	36.1581920903955	36.241610738255	6	0.200020151976496	2	6	6	NaN	1	3	0.0498166688863308	1	1	NaN	288	5	36	1	121	221	321	NaN	521	0.010406527435407	1	1	NaN	1974224.3641645	NaN	1974225.3475414	1974225.86409277
36	19	0	0	90	36.1581920903955	36.241610738255	11	0.366703611956909	2	4	3	NaN	1	3	0.0498166688863308	1	1	NaN	289	5	37	1	121	221	321	NaN	521	0.0706846755929291	1	1	NaN	1974226.6977046	NaN	1974227.6810817	1974228.19764592
36	19	0	0	90	36.1581920903955	36.241610738255	13	0.433376995949075	2	4	3	NaN	1	4	0.0498166688863308	1	1	NaN	290	5	38	1	121	221	321	NaN	521	0.639340227469802	1	1	NaN	1974229.081281	NaN	1974230.0646568	1974230.58122067
36	19	0	0	90	36.1581920903955	36.241610738255	12	0.400040303952992	2	9	1	NaN	2	4	0.0498166688863308	1	1	NaN	291	5	39	1	121	221	321	NaN	521	0.010399675462395	2	1	NaN	1974232.0315594	NaN	1974233.0149536	1974233.53150362
36	19	0	0	90	36.1581920903955	36.241610738255	16	0.533387071937323	2	8	6	NaN	2	3	0.0498166688863308	1	1	NaN	292	5	40	1	121	221	321	NaN	521	0.0103954274673015	2	1	NaN	1974234.3484654	NaN	1974235.3318426	1974235.84840287
36	19	0	0	90	36.1581920903955	36.241610738255	8	0.266693535968661	2	9	6	NaN	2	3	0.0498166688863308	1	1	NaN	293	5	41	1	121	221	321	NaN	521	0.118382975691929	2	1	NaN	1974236.6820191	NaN	1974237.6654041	1974238.18196162
36	19	0	0	90	36.1581920903955	36.241610738255	21	0.700070531917736	2	9	4	NaN	2	3	0.0498166688863308	1	1	NaN	294	5	42	1	121	221	321	NaN	521	0.140633875736967	2	1	NaN	1974239.1156346	NaN	1974240.099003	1974240.61553722
36	19	0	0	90	36.1581920903955	36.241610738255	7	0.233356843972579	2	7	6	NaN	2	5	0.0498166688863308	1	1	NaN	295	5	43	1	121	221	321	NaN	521	0.0906862276606262	2	1	NaN	1974241.5656994	NaN	1974242.5492277	1974243.06577287
36	19	0	0	90	36.1581920903955	36.241610738255	0	0	1	9	3	NaN	2	5	0.0498166688863308	1	1	NaN	296	5	44	1	111	211	311	NaN	511	0.058362279785797	2	1	NaN	1974243.9659456	NaN	1974244.9494603	1974245.46601832
36	19	0	0	90	36.1581920903955	36.241610738255	9	0.300030227964744	2	3	6	NaN	1	5	0.0498166688863308	1	1	NaN	297	5	45	1	121	221	321	NaN	521	1.39571717544459	1	1	NaN	1974246.3328246	NaN	1974247.316363	1974247.83290702
36	19	0	0	90	36.1581920903955	36.241610738255	17	0.566723763933405	2	8	4	NaN	2	5	0.0498166688863308	1	1	NaN	298	5	46	1	121	221	321	NaN	521	0.0103848273865879	2	1	NaN	1974250.0331938	NaN	1974251.0167417	1974251.53328087
36	19	0	0	90	36.1581920903955	36.241610738255	13	0.433376995949075	2	8	3	NaN	2	3	0.0498166688863308	1	1	NaN	299	5	47	1	121	221	321	NaN	521	0.0103921273257583	2	1	NaN	1974252.3502217	NaN	1974253.3336237	1974253.85016807
36	19	0	0	90	36.1581920903955	36.241610738255	12	0.400040303952992	2	12	4	NaN	2	4	0.0498166688863308	1	1	NaN	300	5	48	1	121	221	321	NaN	521	0.637368439696729	2	1	NaN	1974254.6671233	NaN	1974255.6505084	1974256.16706976
36	19	0	0	90	36.1581920903955	36.241610738255	13	0.433376995949075	2	1	3	NaN	1	5	0.0498166688863308	1	1	NaN	301	5	49	1	121	221	321	NaN	521	0.38327542738989	1	1	NaN	1974257.6173841	NaN	1974258.6008055	1974259.11735877
36	19	0	0	90	36.1581920903955	36.241610738255	16	0.533387071937323	2	2	3	NaN	1	3	0.0498166688863308	1	1	NaN	302	5	50	1	121	221	321	NaN	521	0.619057779666036	1	1	NaN	1974260.3176544	NaN	1974261.3010599	1974261.81762202
36	19	0	0	90	36.1581920903955	36.241610738255	23	0.766743915909901	2	2	2	NaN	1	3	0.0498166688863308	1	1	NaN	303	5	51	1	121	221	321	NaN	521	0.653461475390941	1	1	NaN	1974263.2512399	NaN	1974264.2346844	1974264.75123262
36	19	0	0	90	36.1581920903955	36.241610738255	17	0.566723763933405	2	9	1	NaN	2	4	0.0498166688863308	1	1	NaN	304	5	52	1	121	221	321	NaN	521	0.446573075605556	2	1	NaN	1974266.218253	NaN	1974267.2016556	1974267.71818762
36	19	0	0	90	36.1581920903955	36.241610738255	22	0.733407223913819	2	12	1	NaN	2	4	0.0498166688863308	1	1	NaN	305	5	53	1	121	221	321	NaN	521	0.495667627546936	2	1	NaN	1974268.9850948	NaN	1974269.9685885	1974270.48513317
36	19	0	0	90	36.1581920903955	36.241610738255	20	0.666733839921653	2	7	4	NaN	2	4	0.0498166688863308	1	1	NaN	306	5	54	1	121	221	321	NaN	521	0.342363927513361	2	1	NaN	1974271.8020689	NaN	1974272.7855285	1974273.30208087
36	19	0	0	90	36.1581920903955	36.241610738255	9	0.300030227964744	2	4	2	NaN	1	4	0.0498166688863308	1	1	NaN	307	5	55	1	121	221	321	NaN	521	1.02041762741283	2	0	NaN	1974274.4523744	NaN	1974275.4357912	1974275.95233397
36	19	0	0	90	36.1581920903955	36.241610738255	15	0.50005037994124	2	4	2	NaN	1	5	0.0498166688863308	1	1	NaN	308	5	56	1	121	221	321	NaN	521	0.0547393274027854	2	0	NaN	1974277.7860975	NaN	1974278.7694714	1974279.28600077
36	19	0	0	90	36.1581920903955	36.241610738255	20	0.666733839921653	2	6	5	NaN	1	3	0.0498166688863308	1	1	NaN	309	5	57	1	121	221	321	NaN	521	0.279390975600109	1	1	NaN	1974280.1528301	NaN	1974281.1363444	1974281.65288712
36	19	0	0	90	36.1581920903955	36.241610738255	12	0.400040303952992	2	4	5	NaN	1	5	0.0498166688863308	1	1	NaN	310	5	58	1	121	221	321	NaN	521	0.295377227477729	1	1	NaN	1974282.7532075	NaN	1974283.7365945	1974284.25315297
36	19	0	0	90	36.1581920903955	36.241610738255	18	0.600060455929488	2	1	4	NaN	1	5	0.0498166688863308	1	1	NaN	311	5	59	1	121	221	321	NaN	521	0.0311706755310297	1	1	NaN	1974285.3534622	NaN	1974286.336879	1974286.85340742
36	19	0	0	90	36.1581920903955	36.241610738255	9	0.300030227964744	2	4	4	NaN	1	5	0.0498166688863308	1	1	NaN	312	5	60	1	121	221	321	NaN	521	0.157786527415738	1	1	NaN	1974288.1870642	NaN	1974289.1704647	1974289.68701967
36	19	0	0	90	36.1581920903955	36.241610738255	23	0.766743915909901	2	1	5	NaN	1	5	0.0498166688863308	1	1	NaN	313	5	61	1	121	221	321	NaN	521	0.298530627507716	1	1	NaN	1974290.6540819	NaN	1974291.6373807	1974292.15393027
36	19	0	0	90	36.1581920903955	36.241610738255	6	0.200020151976496	2	12	3	NaN	2	4	0.0498166688863308	1	1	NaN	314	5	62	1	121	221	321	NaN	521	0.010407775407657	2	1	NaN	1974293.2707798	NaN	1974294.2541964	1974294.77084372
36	19	0	0	90	36.1581920903955	36.241610738255	12	0.400040303952992	2	10	1	NaN	2	4	0.0498166688863308	1	1	NaN	315	5	63	1	121	221	321	NaN	521	0.044721775688231	2	1	NaN	1974295.5877667	NaN	1974296.5711963	1974297.08774682
36	19	0	0	90	36.1581920903955	36.241610738255	25	0.833417299902067	2	4	3	NaN	1	3	0.0498166688863308	1	1	NaN	316	6	1	1	121	221	321	NaN	521	1.17166052758694	2	0	NaN	1974302.2051073	NaN	1974303.1885119	1974303.70505647
36	19	0	0	90	36.1581920903955	36.241610738255	19	0.633397147925571	2	6	5	NaN	1	4	0.0498166688863308	1	1	NaN	317	6	2	1	121	221	321	NaN	521	0.375046227360144	2	0	NaN	1974305.7054477	NaN	1974306.6888947	1974307.20540407
36	19	0	0	90	36.1581920903955	36.241610738255	7	0.233356843972579	2	2	4	NaN	1	3	0.0498166688863308	1	1	NaN	318	6	3	1	121	221	321	NaN	521	0.403711423277855	1	1	NaN	1974308.3890719	NaN	1974309.3724828	1974309.88899698
36	19	0	0	90	36.1581920903955	36.241610738255	22	0.733407223913819	2	4	4	NaN	1	3	0.0498166688863308	1	1	NaN	319	6	4	1	121	221	321	NaN	521	0.0104088755324483	1	1	NaN	1974311.1059905	NaN	1974312.0893752	1974312.60592712
36	19	0	0	90	36.1581920903955	36.241610738255	21	0.700070531917736	2	12	5	NaN	2	5	0.0498166688863308	1	1	NaN	320	6	5	1	121	221	321	NaN	521	0.481777075445279	2	1	NaN	1974313.4228068	NaN	1974314.4062732	1974314.92281712
36	19	0	0	90	36.1581920903955	36.241610738255	24	0.800080607905984	2	2	2	NaN	1	3	0.0498166688863308	1	1	NaN	321	6	6	1	121	221	321	NaN	521	1.24948777561076	1	1	NaN	1974316.2232016	NaN	1974317.2065482	1974317.72309872
36	19	0	0	90	36.1581920903955	36.241610738255	24	0.800080607905984	2	11	4	NaN	2	4	0.0498166688863308	1	1	NaN	322	6	7	1	121	221	321	NaN	521	0.506650291848928	2	1	NaN	1974319.7902638	NaN	1974320.7736162	1974321.29011591
36	19	0	0	90	36.1581920903955	36.241610738255	12	0.400040303952992	2	7	2	NaN	2	5	0.0498166688863308	1	1	NaN	323	6	8	1	121	221	321	NaN	521	0.737819627393037	2	1	NaN	1974322.607103	NaN	1974323.590499	1974324.10706287
36	19	0	0	90	36.1581920903955	36.241610738255	15	0.50005037994124	2	8	2	NaN	2	5	0.0498166688863308	1	1	NaN	324	6	9	1	121	221	321	NaN	521	0.295148723525926	2	1	NaN	1974325.6574037	NaN	1974326.6408189	1974327.15735518
36	19	0	0	90	36.1581920903955	36.241610738255	23	0.766743915909901	2	3	2	NaN	1	5	0.0498166688863308	1	1	NaN	325	6	10	1	121	221	321	NaN	521	2.19092312757857	1	1	NaN	1974328.2576432	NaN	1974329.2410548	1974329.75760877
36	19	0	0	90	36.1581920903955	36.241610738255	22	0.733407223913819	2	11	2	NaN	2	3	0.0498166688863308	1	1	NaN	326	6	11	1	121	221	321	NaN	521	0.322506527416408	2	1	NaN	1974332.7581014	NaN	1974333.7414876	1974334.25806027
36	19	0	0	90	36.1581920903955	36.241610738255	15	0.50005037994124	2	2	6	NaN	1	5	0.0498166688863308	1	1	NaN	327	6	12	1	121	221	321	NaN	521	0.641106163151562	2	0	NaN	1974335.3915901	NaN	1974336.3751299	1974336.89165814
36	19	0	0	90	36.1581920903955	36.241610738255	17	0.566723763933405	2	1	2	NaN	1	3	0.0498166688863308	1	1	NaN	328	6	13	1	121	221	321	NaN	521	0.090621623210609	1	1	NaN	1974338.3419739	NaN	1974339.3253906	1974339.84195668
36	19	0	0	90	36.1581920903955	36.241610738255	13	0.433376995949075	2	12	2	NaN	2	4	0.0498166688863308	1	1	NaN	329	6	14	1	121	221	321	NaN	521	0.538345079636201	2	1	NaN	1974340.7422145	NaN	1974341.7255471	1974342.24217572
36	19	0	0	90	36.1581920903955	36.241610738255	9	0.300030227964744	2	1	2	NaN	1	3	0.0498166688863308	1	1	NaN	330	6	15	1	121	221	321	NaN	521	0.312136727618054	1	1	NaN	1974343.5924953	NaN	1974344.5758875	1974345.09245357
36	19	0	0	90	36.1581920903955	36.241610738255	13	0.433376995949075	2	7	1	NaN	2	3	0.0498166688863308	1	1	NaN	331	6	16	1	121	221	321	NaN	521	0.966766375582665	2	1	NaN	1974346.2260891	NaN	1974347.2094923	1974347.72604172
36	19	0	0	90	36.1581920903955	36.241610738255	22	0.733407223913819	2	7	1	NaN	2	5	0.0498166688863308	1	1	NaN	332	6	17	1	121	221	321	NaN	521	0.386849527480081	2	1	NaN	1974349.5096308	NaN	1974350.4931601	1974351.00970247
36	19	0	0	90	36.1581920903955	36.241610738255	25	0.833417299902067	2	11	6	NaN	2	3	0.0498166688863308	1	1	NaN	333	6	18	1	121	221	321	NaN	521	0.238642375683412	2	1	NaN	1974352.2100032	NaN	1974353.1934052	1974353.70996202
36	19	0	0	90	36.1581920903955	36.241610738255	19	0.633397147925571	2	10	4	NaN	2	5	0.0498166688863308	1	1	NaN	334	6	19	1	121	221	321	NaN	521	0.0103950274642557	2	1	NaN	1974354.7602566	NaN	1974355.7436614	1974356.26021137
36	19	0	0	90	36.1581920903955	36.241610738255	24	0.800080607905984	2	12	5	NaN	2	4	0.0498166688863308	1	1	NaN	335	6	20	1	121	221	321	NaN	521	0.0104661274235696	2	1	NaN	1974357.0771438	NaN	1974358.0606222	1974358.57710967
36	19	0	0	90	36.1581920903955	36.241610738255	7	0.233356843972579	2	9	2	NaN	2	3	0.0498166688863308	1	1	NaN	336	6	21	1	121	221	321	NaN	521	0.0103841796517372	2	1	NaN	1974359.4108109	NaN	1974360.3941093	1974360.91067372
36	19	0	0	90	36.1581920903955	36.241610738255	16	0.533387071937323	2	7	6	NaN	2	4	0.0498166688863308	1	1	NaN	337	6	22	1	121	221	321	NaN	521	0.0103911275509745	2	1	NaN	1974361.7276174	NaN	1974362.7110219	1974363.22755607
36	19	0	0	90	36.1581920903955	36.241610738255	11	0.366703611956909	2	5	5	NaN	1	3	0.0498166688863308	1	1	NaN	338	6	23	1	121	221	321	NaN	521	0.0103928274475038	1	1	NaN	1974364.061195	NaN	1974365.044576	1974365.56112957
36	19	0	0	90	36.1581920903955	36.241610738255	23	0.766743915909901	2	2	2	NaN	1	5	0.0498166688863308	1	1	NaN	339	6	24	1	121	221	321	NaN	521	0.982346275588498	1	1	NaN	1974366.3781377	NaN	1974367.3614488	1974367.87801562
36	19	0	0	90	36.1581920903955	36.241610738255	20	0.666733839921653	2	9	4	NaN	2	5	0.0498166688863308	1	1	NaN	340	6	25	1	121	221	321	NaN	521	0.786126627586782	2	1	NaN	1974369.6784018	NaN	1974370.661802	1974371.17834397
36	19	0	0	90	36.1581920903955	36.241610738255	22	0.733407223913819	2	3	2	NaN	1	3	0.0498166688863308	1	1	NaN	341	6	26	1	121	221	321	NaN	521	0.397819075500593	1	1	NaN	1974372.7786964	NaN	1974373.7620703	1974374.27864392
36	19	0	0	90	36.1581920903955	36.241610738255	22	0.733407223913819	2	6	3	NaN	1	4	0.0498166688863308	1	1	NaN	342	6	27	1	121	221	321	NaN	521	0.681192027404904	1	1	NaN	1974375.495624	NaN	1974376.4790357	1974376.99557867
36	19	0	0	90	36.1581920903955	36.241610738255	11	0.366703611956909	2	5	4	NaN	1	4	0.0498166688863308	1	1	NaN	343	6	28	1	121	221	321	NaN	521	0.313068623421714	1	1	NaN	1974378.4959242	NaN	1974379.4793216	1974379.99587088
36	19	0	0	90	36.1581920903955	36.241610738255	16	0.533387071937323	2	3	6	NaN	1	3	0.0498166688863308	1	1	NaN	344	6	29	1	121	221	321	NaN	521	0.335902727441862	1	1	NaN	1974381.1128488	NaN	1974382.0962349	1974382.61279657
36	19	0	0	90	36.1581920903955	36.241610738255	19	0.633397147925571	2	4	2	NaN	1	5	0.0498166688863308	1	1	NaN	345	6	30	1	121	221	321	NaN	521	1.78115702746436	1	1	NaN	1974383.9796622	NaN	1974384.9632415	1974385.47974697
36	19	0	0	90	36.1581920903955	36.241610738255	21	0.700070531917736	2	10	4	NaN	2	5	0.0498166688863308	1	1	NaN	346	6	31	1	121	221	321	NaN	521	0.0103890276513994	2	1	NaN	1974388.0801998	NaN	1974389.0636085	1974389.58015027
36	19	0	0	90	36.1581920903955	36.241610738255	9	0.300030227964744	2	6	2	NaN	1	4	0.0498166688863308	1	1	NaN	347	6	32	1	121	221	321	NaN	521	0.731679879594594	1	1	NaN	1974390.396959	NaN	1974391.3804846	1974391.89704492
36	19	0	0	90	36.1581920903955	36.241610738255	0	0	1	6	1	NaN	1	5	0.0498166688863308	1	1	NaN	348	6	33	1	111	211	311	NaN	511	0.209414475597441	1	1	NaN	1974393.4473925	NaN	1974394.4307953	1974394.94733792
36	19	0	0	90	36.1581920903955	36.241610738255	6	0.200020151976496	2	3	4	NaN	1	4	0.0498166688863308	1	1	NaN	349	6	34	1	121	221	321	NaN	521	0.587755923625082	1	1	NaN	1974395.981078	NaN	1974396.9643679	1974397.48091778
36	19	0	0	90	36.1581920903955	36.241610738255	16	0.533387071937323	2	12	4	NaN	2	4	0.0498166688863308	1	1	NaN	350	6	35	1	121	221	321	NaN	521	0.367248575668782	2	1	NaN	1974398.8812574	NaN	1974399.8646593	1974400.38120122
36	19	0	0	90	36.1581920903955	36.241610738255	7	0.233356843972579	2	6	4	NaN	1	3	0.0498166688863308	1	1	NaN	351	6	36	1	121	221	321	NaN	521	0.0918607274070382	1	1	NaN	1974401.5647372	NaN	1974402.5482595	1974403.06480357
36	19	0	0	90	36.1581920903955	36.241610738255	14	0.466713687945157	2	10	5	NaN	2	5	0.0498166688863308	1	1	NaN	352	6	37	1	121	221	321	NaN	521	0.58797037974	2	1	NaN	1974403.964962	NaN	1974404.9484849	1974405.46504192
36	19	0	0	90	36.1581920903955	36.241610738255	24	0.800080607905984	2	4	6	NaN	1	4	0.0498166688863308	1	1	NaN	353	6	38	1	121	221	321	NaN	521	0.231104527367279	2	0	NaN	1974406.8653642	NaN	1974407.8487716	1974408.36532607
36	19	0	0	90	36.1581920903955	36.241610738255	10	0.333366919960827	2	3	3	NaN	1	4	0.0498166688863308	1	1	NaN	354	6	39	1	121	221	321	NaN	521	0.0104187233373523	1	1	NaN	1974409.4156303	NaN	1974410.3990159	1974410.91557668
36	19	0	0	90	36.1581920903955	36.241610738255	14	0.466713687945157	2	4	6	NaN	1	4	0.0498166688863308	1	1	NaN	355	6	40	1	121	221	321	NaN	521	0.124213175615296	1	1	NaN	1974411.732391	NaN	1974412.7159205	1974413.23246422
36	19	0	0	90	36.1581920903955	36.241610738255	25	0.833417299902067	2	6	2	NaN	1	3	0.0498166688863308	1	1	NaN	356	6	41	1	121	221	321	NaN	521	0.0104268796276301	1	1	NaN	1974414.1659657	NaN	1974415.1494932	1974415.66603392
36	19	0	0	90	36.1581920903955	36.241610738255	6	0.200020151976496	2	2	3	NaN	1	4	0.0498166688863308	1	1	NaN	357	6	42	1	121	221	321	NaN	521	1.96957297553308	1	1	NaN	1974416.9830058	NaN	1974417.966338	1974418.48297582
36	19	0	0	90	36.1581920903955	36.241610738255	24	0.800080607905984	2	5	3	NaN	1	4	0.0498166688863308	1	1	NaN	358	6	43	1	121	221	321	NaN	521	0.99615249177441	1	1	NaN	1974468.0045976	NaN	1974468.9881221	1974469.50465021
36	19	0	0	90	36.1581920903955	36.241610738255	17	0.566723763933405	2	11	3	NaN	2	5	0.0498166688863308	1	1	NaN	359	6	44	1	121	221	321	NaN	521	0.472921723499894	2	1	NaN	1974471.4717251	NaN	1974472.455136	1974472.97165528
36	19	0	0	90	36.1581920903955	36.241610738255	12	0.400040303952992	2	2	4	NaN	1	5	0.0498166688863308	1	1	NaN	360	6	45	1	121	221	321	NaN	521	0.481357239885256	1	1	NaN	1974474.2553381	NaN	1974475.2387377	1974475.75527586
36	19	0	0	90	36.1581920903955	36.241610738255	25	0.833417299902067	2	9	2	NaN	2	5	0.0498166688863308	1	1	NaN	361	6	46	1	121	221	321	NaN	521	0.0104618275072426	2	1	NaN	1974477.0555883	NaN	1974478.039028	1974478.55554417
36	19	0	0	90	36.1581920903955	36.241610738255	20	0.666733839921653	2	11	4	NaN	2	4	0.0498166688863308	1	1	NaN	362	6	47	1	121	221	321	NaN	521	0.755606627324596	2	1	NaN	1974479.3892029	NaN	1974480.3725715	1974480.88912347
36	19	0	0	90	36.1581920903955	36.241610738255	16	0.533387071937323	2	9	3	NaN	2	3	0.0498166688863308	1	1	NaN	363	6	48	1	121	221	321	NaN	521	0.296759071527049	2	1	NaN	1974482.456146	NaN	1974483.439517	1974483.95606683
36	19	0	0	90	36.1581920903955	36.241610738255	12	0.400040303952992	2	12	3	NaN	2	3	0.0498166688863308	1	1	NaN	364	6	49	1	121	221	321	NaN	521	0.295822875574231	2	1	NaN	1974485.0730646	NaN	1974486.0564458	1974486.57298912
36	19	0	0	90	36.1581920903955	36.241610738255	19	0.633397147925571	2	5	2	NaN	1	5	0.0498166688863308	1	1	NaN	365	6	50	1	121	221	321	NaN	521	0.0103328358381987	1	1	NaN	1974487.690087	NaN	1974488.6734222	1974489.18993016
36	19	0	0	90	36.1581920903955	36.241610738255	7	0.233356843972579	2	7	3	NaN	2	3	0.0498166688863308	1	1	NaN	366	6	51	1	121	221	321	NaN	521	0.433867575367913	1	0	NaN	1974490.0068851	NaN	1974490.9902991	1974491.50681472
36	19	0	0	90	36.1581920903955	36.241610738255	24	0.800080607905984	2	7	5	NaN	2	4	0.0498166688863308	1	1	NaN	367	6	52	1	121	221	321	NaN	521	0.507611975539476	1	0	NaN	1974492.7571359	NaN	1974493.7405374	1974494.25708312
36	19	0	0	90	36.1581920903955	36.241610738255	18	0.600060455929488	2	8	1	NaN	2	3	0.0498166688863308	1	1	NaN	368	6	53	1	121	221	321	NaN	521	0.0580559796653688	1	0	NaN	1974495.5907496	NaN	1974496.5741721	1974497.09069722
36	19	0	0	90	36.1581920903955	36.241610738255	20	0.666733839921653	2	10	6	NaN	2	3	0.0498166688863308	1	1	NaN	369	6	54	1	121	221	321	NaN	521	0.202456227503717	1	0	NaN	1974497.9743103	NaN	1974498.9577507	1974499.47426127
36	19	0	0	90	36.1581920903955	36.241610738255	8	0.266693535968661	2	5	4	NaN	1	4	0.0498166688863308	1	1	NaN	370	6	55	1	121	221	321	NaN	521	0.0103858876973391	1	1	NaN	1974500.4910767	NaN	1974501.4746274	1974501.99116991
36	19	0	0	90	36.1581920903955	36.241610738255	22	0.733407223913819	2	7	2	NaN	2	5	0.0498166688863308	1	1	NaN	371	6	56	1	121	221	321	NaN	521	0.304111027624458	2	1	NaN	1974502.8248166	NaN	1974503.808193	1974504.32473467
36	19	0	0	90	36.1581920903955	36.241610738255	14	0.466713687945157	2	6	3	NaN	1	4	0.0498166688863308	1	1	NaN	372	6	57	1	121	221	321	NaN	521	0.0544652275275439	1	1	NaN	1974505.4583774	NaN	1974506.4418269	1974506.95832717
36	19	0	0	90	36.1581920903955	36.241610738255	12	0.400040303952992	2	1	4	NaN	1	5	0.0498166688863308	1	1	NaN	373	6	58	1	121	221	321	NaN	521	0.303385275416076	1	1	NaN	1974507.8251473	NaN	1974508.8086779	1974509.32522482
36	19	0	0	90	36.1581920903955	36.241610738255	25	0.833417299902067	2	10	1	NaN	2	4	0.0498166688863308	1	1	NaN	374	6	59	1	121	221	321	NaN	521	0.366558635607362	2	1	NaN	1974510.442138	NaN	1974511.4256371	1974511.94215896
36	19	0	0	90	36.1581920903955	36.241610738255	13	0.433376995949075	2	11	3	NaN	2	4	0.0498166688863308	1	1	NaN	375	6	60	1	121	221	321	NaN	521	0.682406527455896	2	1	NaN	1974513.5424739	NaN	1974514.5259101	1974515.04246617
36	19	0	0	90	36.1581920903955	36.241610738255	14	0.466713687945157	2	3	5	NaN	1	4	0.0498166688863308	1	1	NaN	376	6	61	1	121	221	321	NaN	521	0.139059327542782	1	1	NaN	1974516.9261653	NaN	1974517.9095962	1974518.42611247
36	19	0	0	90	36.1581920903955	36.241610738255	7	0.233356843972579	2	5	3	NaN	1	5	0.0498166688863308	1	1	NaN	377	6	62	1	121	221	321	NaN	521	0.120459627592936	1	1	NaN	1974519.3765321	NaN	1974520.3598253	1974520.87636297
36	19	0	0	90	36.1581920903955	36.241610738255	15	0.50005037994124	2	10	2	NaN	2	4	0.0498166688863308	1	1	NaN	378	6	63	1	121	221	321	NaN	521	0.214313127333298	2	1	NaN	1974521.8266471	NaN	1974522.8100628	1974523.32660037
36	19	0	0	90	36.1581920903955	36.241610738255	11	0.366703611956909	2	10	6	NaN	2	4	0.0498166688863308	1	1	NaN	379	7	1	1	121	221	321	NaN	521	0.331780227599666	2	1	NaN	1974528.8772418	NaN	1974529.8607529	1974530.37728417
36	19	0	0	90	36.1581920903955	36.241610738255	19	0.633397147925571	2	11	1	NaN	2	5	0.0498166688863308	1	1	NaN	380	7	2	1	121	221	321	NaN	521	0.249346923315898	2	1	NaN	1974531.5276132	NaN	1974532.5110134	1974533.02754198
36	19	0	0	90	36.1581920903955	36.241610738255	10	0.333366919960827	2	2	5	NaN	1	3	0.0498166688863308	1	1	NaN	381	7	3	1	121	221	321	NaN	521	0.354261079570279	1	1	NaN	1974534.094538	NaN	1974535.0778227	1974535.59447242
36	19	0	0	90	36.1581920903955	36.241610738255	12	0.400040303952992	2	5	2	NaN	1	4	0.0498166688863308	1	1	NaN	382	7	4	1	121	221	321	NaN	521	0.134844027459621	1	1	NaN	1974536.7781211	NaN	1974537.7615059	1974538.27806677
36	19	0	0	90	36.1581920903955	36.241610738255	9	0.300030227964744	2	5	4	NaN	1	3	0.0498166688863308	1	1	NaN	383	7	5	1	121	221	321	NaN	521	0.252512019360438	1	1	NaN	1974539.2283538	NaN	1974540.2117661	1974540.72831428
36	19	0	0	90	36.1581920903955	36.241610738255	14	0.466713687945157	2	8	5	NaN	2	5	0.0498166688863308	1	1	NaN	384	7	6	1	121	221	321	NaN	521	0.0614725274499506	2	1	NaN	1974541.7952942	NaN	1974542.7786931	1974543.29522217
36	19	0	0	90	36.1581920903955	36.241610738255	23	0.766743915909901	2	5	6	NaN	1	5	0.0498166688863308	1	1	NaN	385	7	7	1	121	221	321	NaN	521	0.398492275504395	2	0	NaN	1974544.1787352	NaN	1974545.1622409	1974545.67878442
36	19	0	0	90	36.1581920903955	36.241610738255	11	0.366703611956909	2	1	1	NaN	1	3	0.0498166688863308	1	1	NaN	386	7	8	1	121	221	321	NaN	521	0.010456771356985	1	1	NaN	1974546.8957875	NaN	1974547.8791898	1974548.39571883
36	19	0	0	90	36.1581920903955	36.241610738255	8	0.266693535968661	2	11	5	NaN	2	4	0.0498166688863308	1	1	NaN	387	7	9	1	121	221	321	NaN	521	0.115497275488451	2	1	NaN	1974549.229351	NaN	1974550.2127289	1974550.72927842
36	19	0	0	90	36.1581920903955	36.241610738255	20	0.666733839921653	2	3	3	NaN	1	4	0.0498166688863308	1	1	NaN	388	7	10	1	121	221	321	NaN	521	0.769887175643817	1	1	NaN	1974551.6628178	NaN	1974552.6463067	1974553.16285342
36	19	0	0	90	36.1581920903955	36.241610738255	25	0.833417299902067	2	8	4	NaN	2	3	0.0498166688863308	1	1	NaN	389	7	11	1	121	221	321	NaN	521	0.645583991892636	2	1	NaN	1974554.7632492	NaN	1974555.7466262	1974556.26317231
36	19	0	0	90	36.1581920903955	36.241610738255	21	0.700070531917736	2	8	2	NaN	2	3	0.0498166688863308	1	1	NaN	390	7	12	1	121	221	321	NaN	521	0.118615100160241	2	1	NaN	1974557.7301732	NaN	1974558.7135933	1974559.2301291
36	19	0	0	90	36.1581920903955	36.241610738255	11	0.366703611956909	2	7	2	NaN	2	5	0.0498166688863308	1	1	NaN	391	7	13	1	121	221	321	NaN	521	0.0446902716066688	2	1	NaN	1974560.1804377	NaN	1974561.163825	1974561.68035833
36	19	0	0	90	36.1581920903955	36.241610738255	0	0	1	2	1	NaN	1	5	0.0498166688863308	1	1	NaN	392	7	14	1	111	211	311	NaN	511	0.205692527582869	1	1	NaN	1974562.5473113	NaN	1974563.5307265	1974564.04725327
36	19	0	0	90	36.1581920903955	36.241610738255	18	0.600060455929488	2	3	2	NaN	1	3	0.0498166688863308	1	1	NaN	393	7	15	1	121	221	321	NaN	521	0.303879527375102	1	1	NaN	1974565.0809179	NaN	1974566.0642994	1974566.58084457
36	19	0	0	90	36.1581920903955	36.241610738255	17	0.566723763933405	2	8	1	NaN	2	3	0.0498166688863308	1	1	NaN	394	7	16	1	121	221	321	NaN	521	0.0104110755492002	2	1	NaN	1974568.0978092	NaN	1974569.081253	1974569.59780152
36	19	0	0	90	36.1581920903955	36.241610738255	15	0.50005037994124	2	2	4	NaN	1	5	0.0498166688863308	1	1	NaN	395	7	17	1	121	221	321	NaN	521	0.314053727313876	1	1	NaN	1974570.414755	NaN	1974571.3981834	1974571.91470017
36	19	0	0	90	36.1581920903955	36.241610738255	21	0.700070531917736	2	2	5	NaN	1	3	0.0498166688863308	1	1	NaN	396	7	18	1	121	221	321	NaN	521	0.256716775707901	1	1	NaN	1974573.048334	NaN	1974574.0317522	1974574.54828312
36	19	0	0	90	36.1581920903955	36.241610738255	8	0.266693535968661	2	6	1	NaN	1	5	0.0498166688863308	1	1	NaN	397	7	19	1	121	221	321	NaN	521	0.265651835594326	1	1	NaN	1974575.6152634	NaN	1974576.5985754	1974577.11520526
36	19	0	0	90	36.1581920903955	36.241610738255	19	0.633397147925571	2	8	2	NaN	2	4	0.0498166688863308	1	1	NaN	398	7	20	1	121	221	321	NaN	521	0.130235075717792	2	1	NaN	1974578.1988434	NaN	1974579.1822485	1974579.69878832
36	19	0	0	90	36.1581920903955	36.241610738255	18	0.600060455929488	2	6	3	NaN	1	3	0.0498166688863308	1	1	NaN	399	7	21	1	121	221	321	NaN	521	0.0104749274905771	1	1	NaN	1974580.6491053	NaN	1974581.6324723	1974582.14903647
36	19	0	0	90	36.1581920903955	36.241610738255	11	0.366703611956909	2	1	4	NaN	1	3	0.0498166688863308	1	1	NaN	400	7	22	1	121	221	321	NaN	521	0.0104414795059711	1	1	NaN	1974582.9826554	NaN	1974583.9660883	1974584.48260272
36	19	0	0	90	36.1581920903955	36.241610738255	7	0.233356843972579	2	1	3	NaN	1	3	0.0498166688863308	1	1	NaN	401	7	23	1	121	221	321	NaN	521	1.06133352755569	1	1	NaN	1974585.2995563	NaN	1974586.2829429	1974586.79949417
36	19	0	0	90	36.1581920903955	36.241610738255	6	0.200020151976496	2	2	6	NaN	1	5	0.0498166688863308	1	1	NaN	402	7	24	1	121	221	321	NaN	521	0.246089227497578	1	1	NaN	1974588.6832058	NaN	1974589.6666526	1974590.18315477
36	19	0	0	90	36.1581920903955	36.241610738255	8	0.266693535968661	2	5	6	NaN	1	4	0.0498166688863308	1	1	NaN	403	7	25	1	121	221	321	NaN	521	0.255094479769468	1	1	NaN	1974591.2501229	NaN	1974592.2335399	1974592.75007992
36	19	0	0	90	36.1581920903955	36.241610738255	11	0.366703611956909	2	12	1	NaN	2	3	0.0498166688863308	1	1	NaN	404	7	26	1	121	221	321	NaN	521	1.05514327553101	2	1	NaN	1974593.833712	NaN	1974594.8171282	1974595.33365572
36	19	0	0	90	36.1581920903955	36.241610738255	6	0.200020151976496	2	4	6	NaN	1	3	0.0498166688863308	1	1	NaN	405	7	27	1	121	221	321	NaN	521	0.1757164276205	1	1	NaN	1974597.21738	NaN	1974598.200795	1974598.71732007
36	19	0	0	90	36.1581920903955	36.241610738255	22	0.733407223913819	2	2	5	NaN	1	3	0.0498166688863308	1	1	NaN	406	7	28	1	121	221	321	NaN	521	0.0104891234077513	1	1	NaN	1974599.700966	NaN	1974600.6843678	1974601.20090028
36	19	0	0	90	36.1581920903955	36.241610738255	19	0.633397147925571	2	8	5	NaN	2	3	0.0498166688863308	1	1	NaN	407	7	29	1	121	221	321	NaN	521	0.191011883784086	2	1	NaN	1974602.0178584	NaN	1974603.0012693	1974603.51779952
36	19	0	0	90	36.1581920903955	36.241610738255	24	0.800080607905984	2	4	5	NaN	1	3	0.0498166688863308	1	1	NaN	408	7	30	1	121	221	321	NaN	521	1.33872427558526	2	0	NaN	1974604.5180949	NaN	1974605.501488	1974606.01804392
36	19	0	0	90	36.1581920903955	36.241610738255	15	0.50005037994124	2	5	1	NaN	1	5	0.0498166688863308	1	1	NaN	409	7	31	1	121	221	321	NaN	521	0.0966394275892526	1	1	NaN	1974608.168469	NaN	1974609.1518328	1974609.66839767
36	19	0	0	90	36.1581920903955	36.241610738255	11	0.366703611956909	2	2	5	NaN	1	3	0.0498166688863308	1	1	NaN	410	7	32	1	121	221	321	NaN	521	0.0803239757660776	1	1	NaN	1974610.5686913	NaN	1974611.552105	1974612.06862942
36	19	0	0	90	36.1581920903955	36.241610738255	21	0.700070531917736	2	12	3	NaN	2	4	0.0498166688863308	1	1	NaN	411	7	33	1	121	221	321	NaN	521	0.0801683273166418	2	1	NaN	1974612.9689315	NaN	1974613.9523146	1974614.46887007
36	19	0	0	90	36.1581920903955	36.241610738255	24	0.800080607905984	2	10	1	NaN	2	4	0.0498166688863308	1	1	NaN	412	7	34	1	121	221	321	NaN	521	0.223714627325535	2	1	NaN	1974615.3691771	NaN	1974616.3525703	1974616.86910997
36	19	0	0	90	36.1581920903955	36.241610738255	7	0.233356843972579	2	2	1	NaN	1	5	0.0498166688863308	1	1	NaN	413	7	35	1	121	221	321	NaN	521	0.0900958755519241	1	1	NaN	1974617.9026276	NaN	1974618.886157	1974619.40268222
36	19	0	0	90	36.1581920903955	36.241610738255	14	0.466713687945157	2	1	5	NaN	1	3	0.0498166688863308	1	1	NaN	414	7	36	1	121	221	321	NaN	521	0.249299671500921	1	1	NaN	1974620.3196598	NaN	1974621.3030487	1974621.81958503
36	19	0	0	90	36.1581920903955	36.241610738255	8	0.266693535968661	2	1	5	NaN	1	4	0.0498166688863308	1	1	NaN	415	7	37	1	121	221	321	NaN	521	0.210393459070474	1	1	NaN	1974622.886585	NaN	1974623.8699842	1974624.38650894
36	19	0	0	90	36.1581920903955	36.241610738255	22	0.733407223913819	2	5	6	NaN	1	4	0.0498166688863308	1	1	NaN	416	7	38	1	121	221	321	NaN	521	0.676780875539407	1	1	NaN	1974625.4200334	NaN	1974626.4035663	1974626.92008272
36	19	0	0	90	36.1581920903955	36.241610738255	19	0.633397147925571	2	12	3	NaN	2	3	0.0498166688863308	1	1	NaN	417	7	39	1	121	221	321	NaN	521	0.260683527449146	2	1	NaN	1974628.4204403	NaN	1974629.4038447	1974629.92039107
36	19	0	0	90	36.1581920903955	36.241610738255	25	0.833417299902067	2	7	3	NaN	2	5	0.0498166688863308	1	1	NaN	418	7	40	1	121	221	321	NaN	521	0.133214227389544	2	1	NaN	1974631.0040155	NaN	1974631.9873596	1974632.50397597
36	19	0	0	90	36.1581920903955	36.241610738255	13	0.433376995949075	2	2	4	NaN	1	3	0.0498166688863308	1	1	NaN	419	7	41	1	121	221	321	NaN	521	0.234718983760104	1	1	NaN	1974633.4541856	NaN	1974634.4376773	1974634.95421642
36	19	0	0	90	36.1581920903955	36.241610738255	13	0.433376995949075	2	2	5	NaN	1	4	0.0498166688863308	1	1	NaN	420	7	42	1	121	221	321	NaN	521	0.0104143838398159	1	1	NaN	1974636.0046152	NaN	1974636.9879312	1974637.50447412
36	19	0	0	90	36.1581920903955	36.241610738255	20	0.666733839921653	2	11	3	NaN	2	4	0.0498166688863308	1	1	NaN	421	7	43	1	121	221	321	NaN	521	0.127308627357706	2	1	NaN	1974638.3379428	NaN	1974639.3214871	1974639.83804077
36	19	0	0	90	36.1581920903955	36.241610738255	22	0.733407223913819	2	10	3	NaN	2	3	0.0498166688863308	1	1	NaN	422	7	44	1	121	221	321	NaN	521	0.0104277755599469	2	1	NaN	1974640.7883127	NaN	1974641.7717264	1974642.28827502
36	19	0	0	90	36.1581920903955	36.241610738255	17	0.566723763933405	2	5	6	NaN	1	4	0.0498166688863308	1	1	NaN	423	7	45	1	121	221	321	NaN	521	0.0104052757378668	1	1	NaN	1974643.1218923	NaN	1974644.1052535	1974644.62182312
36	19	0	0	90	36.1581920903955	36.241610738255	10	0.333366919960827	2	4	4	NaN	1	4	0.0498166688863308	1	1	NaN	424	7	46	1	121	221	321	NaN	521	0.113724523456767	1	1	NaN	1974645.4554524	NaN	1974646.4388654	1974646.95539128
36	19	0	0	90	36.1581920903955	36.241610738255	21	0.700070531917736	2	9	5	NaN	2	3	0.0498166688863308	1	1	NaN	425	7	47	1	121	221	321	NaN	521	0.0104039756115526	2	1	NaN	1974647.8890315	NaN	1974648.8724349	1974649.38896222
36	19	0	0	90	36.1581920903955	36.241610738255	15	0.50005037994124	2	1	1	NaN	1	4	0.0498166688863308	1	1	NaN	426	7	48	1	121	221	321	NaN	521	0.299527375726029	1	1	NaN	1974650.2059129	NaN	1974651.1893174	1974651.70585092
36	19	0	0	90	36.1581920903955	36.241610738255	19	0.633397147925571	2	12	2	NaN	2	3	0.0498166688863308	1	1	NaN	427	7	49	1	121	221	321	NaN	521	0.19416739186272	2	1	NaN	1974652.8228465	NaN	1974653.8062387	1974654.32279111
36	19	0	0	90	36.1581920903955	36.241610738255	12	0.400040303952992	2	8	3	NaN	2	4	0.0498166688863308	1	1	NaN	428	7	50	1	121	221	321	NaN	521	0.869151927297935	2	1	NaN	1974655.3397632	NaN	1974656.3231729	1974656.83969617
36	19	0	0	90	36.1581920903955	36.241610738255	23	0.766743915909901	2	6	2	NaN	1	5	0.0498166688863308	1	1	NaN	429	7	51	1	121	221	321	NaN	521	0.213615875691175	1	1	NaN	1974658.5234073	NaN	1974659.5068336	1974660.02334402
36	19	0	0	90	36.1581920903955	36.241610738255	19	0.633397147925571	2	1	6	NaN	1	5	0.0498166688863308	1	1	NaN	430	7	52	1	121	221	321	NaN	521	0.112174975685775	1	1	NaN	1974661.0569612	NaN	1974662.040385	1974662.55692302
36	19	0	0	90	36.1581920903955	36.241610738255	18	0.600060455929488	2	5	2	NaN	1	5	0.0498166688863308	1	1	NaN	431	7	53	1	121	221	321	NaN	521	0.478770427405834	1	1	NaN	1974663.4905516	NaN	1974664.4739462	1974664.99048567
36	19	0	0	90	36.1581920903955	36.241610738255	18	0.600060455929488	2	5	5	NaN	1	3	0.0498166688863308	1	1	NaN	432	7	54	1	121	221	321	NaN	521	0.198961175512522	1	1	NaN	1974666.2741884	NaN	1974667.2575747	1974667.77409272
36	19	0	0	90	36.1581920903955	36.241610738255	9	0.300030227964744	2	2	1	NaN	1	3	0.0498166688863308	1	1	NaN	433	7	55	1	121	221	321	NaN	521	0.0105114234611392	1	1	NaN	1974668.7910724	NaN	1974669.7744804	1974670.29101558
36	19	0	0	90	36.1581920903955	36.241610738255	11	0.366703611956909	2	9	6	NaN	2	5	0.0498166688863308	1	1	NaN	434	7	56	1	121	221	321	NaN	521	0.148807343794033	2	1	NaN	1974671.1246356	NaN	1974672.1080226	1974672.62458586
36	19	0	0	90	36.1581920903955	36.241610738255	6	0.200020151976496	2	7	5	NaN	2	3	0.0498166688863308	1	1	NaN	435	7	57	1	121	221	321	NaN	521	0.409660979639739	2	1	NaN	1974673.5914495	NaN	1974674.5749372	1974675.09148392
36	19	0	0	90	36.1581920903955	36.241610738255	0	0	1	11	2	NaN	2	5	0.0498166688863308	1	1	NaN	436	7	58	1	111	211	311	NaN	511	0.107894327491522	2	1	NaN	1974676.3251388	NaN	1974677.3085557	1974677.82507577
36	19	0	0	90	36.1581920903955	36.241610738255	14	0.466713687945157	2	10	3	NaN	2	3	0.0498166688863308	1	1	NaN	437	7	59	1	121	221	321	NaN	521	0.178629871690646	2	1	NaN	1974678.758719	NaN	1974679.7421361	1974680.25865583
36	19	0	0	90	36.1581920903955	36.241610738255	7	0.233356843972579	2	3	1	NaN	1	3	0.0498166688863308	1	1	NaN	438	7	60	1	121	221	321	NaN	521	0.182154275709763	1	1	NaN	1974681.2588512	NaN	1974682.2423787	1974682.75890752
36	19	0	0	90	36.1581920903955	36.241610738255	15	0.50005037994124	2	5	1	NaN	1	4	0.0498166688863308	1	1	NaN	439	7	61	1	121	221	321	NaN	521	0.0740740713663399	1	1	NaN	1974683.759229	NaN	1974684.7425899	1974685.25915073
36	19	0	0	90	36.1581920903955	36.241610738255	23	0.766743915909901	2	12	1	NaN	2	3	0.0498166688863308	1	1	NaN	440	7	62	1	121	221	321	NaN	521	0.0104888235218823	2	1	NaN	1974686.1426483	NaN	1974687.1261615	1974687.64271818
36	19	0	0	90	36.1581920903955	36.241610738255	10	0.333366919960827	2	8	2	NaN	2	3	0.0498166688863308	1	1	NaN	441	7	63	1	121	221	321	NaN	521	0.0103919273242354	2	1	NaN	1974688.4763391	NaN	1974689.4597305	1974689.97627657
36	19	0	0	90	36.1581920903955	36.241610738255	12	0.400040303952992	2	6	4	NaN	1	5	0.0498166688863308	1	1	NaN	442	8	1	1	121	221	321	NaN	521	1.06607242743485	1	1	NaN	1974699.1107075	NaN	1974700.0941009	1974700.61065557
36	19	0	0	90	36.1581920903955	36.241610738255	25	0.833417299902067	2	9	2	NaN	2	3	0.0498166688863308	1	1	NaN	443	8	2	1	121	221	321	NaN	521	0.0670228274539113	2	1	NaN	1974702.4942471	NaN	1974703.477778	1974703.99432007
36	19	0	0	90	36.1581920903955	36.241610738255	8	0.266693535968661	2	4	6	NaN	1	4	0.0498166688863308	1	1	NaN	444	8	3	1	121	221	321	NaN	521	0.403565627522767	1	1	NaN	1974704.8778239	NaN	1974705.8613573	1974706.37788327
36	19	0	0	90	36.1581920903955	36.241610738255	17	0.566723763933405	2	4	4	NaN	1	3	0.0498166688863308	1	1	NaN	445	8	4	1	121	221	321	NaN	521	0.45457842736505	1	1	NaN	1974707.5948943	NaN	1974708.5782754	1974709.09481767
36	19	0	0	90	36.1581920903955	36.241610738255	18	0.600060455929488	2	12	1	NaN	2	4	0.0498166688863308	1	1	NaN	446	8	5	1	121	221	321	NaN	521	0.0102962397504598	2	1	NaN	1974710.3785014	NaN	1974711.3618992	1974711.87842836
36	19	0	0	90	36.1581920903955	36.241610738255	10	0.333366919960827	2	10	3	NaN	2	5	0.0498166688863308	1	1	NaN	447	8	6	1	121	221	321	NaN	521	0.0896977754309773	2	1	NaN	1974712.6952409	NaN	1974713.6787767	1974714.19531672
36	19	0	0	90	36.1581920903955	36.241610738255	0	0	1	8	5	NaN	2	3	0.0498166688863308	1	1	NaN	448	8	7	1	111	211	311	NaN	511	0.0175154234748334	2	1	NaN	1974715.0955535	NaN	1974716.0790076	1974716.59555068
36	19	0	0	90	36.1581920903955	36.241610738255	9	0.300030227964744	2	7	1	NaN	2	4	0.0498166688863308	1	1	NaN	449	8	8	1	121	221	321	NaN	521	0.945758623303846	2	1	NaN	1974717.4790658	NaN	1974718.4625669	1974718.97912488
36	19	0	0	90	36.1581920903955	36.241610738255	22	0.733407223913819	2	10	4	NaN	2	5	0.0498166688863308	1	1	NaN	450	8	9	1	121	221	321	NaN	521	0.310892079491168	2	1	NaN	1974720.7462068	NaN	1974721.7295871	1974722.24612052
36	19	0	0	90	36.1581920903955	36.241610738255	25	0.833417299902067	2	4	5	NaN	1	5	0.0498166688863308	1	1	NaN	451	8	10	1	121	221	321	NaN	521	0.101621627574787	1	1	NaN	1974723.3797581	NaN	1974724.363172	1974724.87970357
36	19	0	0	90	36.1581920903955	36.241610738255	17	0.566723763933405	2	6	5	NaN	1	3	0.0498166688863308	1	1	NaN	452	8	11	1	121	221	321	NaN	521	0.139118527527899	1	1	NaN	1974726.2300277	NaN	1974727.2134385	1974727.72997067
36	19	0	0	90	36.1581920903955	36.241610738255	14	0.466713687945157	2	8	1	NaN	2	5	0.0498166688863308	1	1	NaN	453	8	12	1	121	221	321	NaN	521	0.239955727476627	2	1	NaN	1974729.113618	NaN	1974730.0970567	1974730.61359697
36	19	0	0	90	36.1581920903955	36.241610738255	8	0.266693535968661	2	2	4	NaN	1	4	0.0498166688863308	1	1	NaN	454	8	13	1	121	221	321	NaN	521	0.0245346918236464	1	1	NaN	1974731.6806619	NaN	1974732.6639737	1974733.18052431
36	19	0	0	90	36.1581920903955	36.241610738255	20	0.666733839921653	2	2	5	NaN	1	3	0.0498166688863308	1	1	NaN	455	8	14	1	121	221	321	NaN	521	0.282362927449867	1	1	NaN	1974734.0308021	NaN	1974735.0141762	1974735.53073907
36	19	0	0	90	36.1581920903955	36.241610738255	19	0.633397147925571	2	10	6	NaN	2	4	0.0498166688863308	1	1	NaN	456	8	15	1	121	221	321	NaN	521	0.402421975508332	2	1	NaN	1974736.6310569	NaN	1974737.6144888	1974738.13098882
36	19	0	0	90	36.1581920903955	36.241610738255	23	0.766743915909901	2	10	2	NaN	2	5	0.0498166688863308	1	1	NaN	457	8	16	1	121	221	321	NaN	521	0.0104616275057197	2	1	NaN	1974739.3479538	NaN	1974740.3313944	1974740.84793737
