subjno	age	gender	isPractice	viewdist	CmToPixX	CmToPixY	SOA_frm	SOA_time	targNum	targID	targExample	targRace	targGender	firstTargPos	contrast	familiarity	curr_staircase	iStair	TrialNum	BlockNum	blktrl	sessionNum	TC_FIXATION	TC_RSVP_START	TC_RSVP_END	TC_BLANK	TC_RESPONSE_ONSET	RT2afc	resp_2afc	acc	RSVPOnsetVBL	RSVPOnsetTime	RSVPOffsetVBL	RSVPOffsetTime	startrt_2afc
80	18	0	0	90	36.1581920903955	36.241610738255	11	0.366700444035232	2	2	2	NaN	1	3	0.0233821743229072	0	1	NaN	1	1	1	2	120	220	320	NaN	520	0.294842630624771	1	1	NaN	3363750.8844685	NaN	3363751.8677692	3363752.40089017
80	18	0	0	90	36.1581920903955	36.241610738255	25	0.833410100080073	2	4	2	NaN	1	4	0.0233821743229072	0	1	NaN	2	1	2	2	120	220	320	NaN	520	0.107645578216761	2	0	NaN	3363753.5513568	NaN	3363754.534698	3363755.06782592
80	18	0	0	90	36.1581920903955	36.241610738255	11	0.366700444035232	2	8	6	NaN	2	3	0.0233821743229072	0	1	NaN	3	1	3	2	120	220	320	NaN	520	0.113382930867374	2	1	NaN	3363756.001445	NaN	3363756.9848391	3363757.51806787
80	18	0	0	90	36.1581920903955	36.241610738255	6	0.200018424019217	2	11	4	NaN	2	4	0.0233821743229072	0	1	NaN	4	1	4	2	120	220	320	NaN	520	0.391316678375006	1	0	NaN	3363758.4683609	NaN	3363759.4517558	3363759.96830842
80	18	0	0	90	36.1581920903955	36.241610738255	13	0.433373252041638	2	5	5	NaN	1	5	0.0233821743229072	0	1	NaN	5	1	5	2	120	220	320	NaN	520	0.386536126025021	1	1	NaN	3363761.1852951	NaN	3363762.1686813	3363762.68524197
80	18	0	0	90	36.1581920903955	36.241610738255	21	0.700064484067261	2	6	1	NaN	1	5	0.0233821743229072	0	1	NaN	6	1	6	2	120	220	320	NaN	520	0.133056825958192	2	0	NaN	3363763.902219	NaN	3363764.8856181	3363765.40218707
80	18	0	0	90	36.1581920903955	36.241610738255	7	0.23335482802242	2	3	1	NaN	1	3	0.0233821743229072	0	1	NaN	7	1	7	2	120	220	320	NaN	520	0.227371973451227	2	0	NaN	3363766.3524645	NaN	3363767.3358564	3363767.85241083
80	18	0	0	90	36.1581920903955	36.241610738255	15	0.500046060048044	2	7	2	NaN	2	4	0.0233821743229072	0	1	NaN	8	1	8	2	120	220	320	NaN	520	0.0768851260654628	1	0	NaN	3363768.9027172	NaN	3363769.8861457	3363770.40265517
80	18	0	0	90	36.1581920903955	36.241610738255	6	0.200018424019217	2	12	6	NaN	2	4	0.0233821743229072	0	1	NaN	9	1	9	2	120	220	320	NaN	520	0.196607491467148	2	1	NaN	3363771.3029719	NaN	3363772.2863843	3363772.80289921
80	18	0	0	90	36.1581920903955	36.241610738255	14	0.466709656044841	2	6	2	NaN	1	3	0.0233821743229072	0	1	NaN	10	1	10	2	120	220	320	NaN	520	0.119712273590267	1	1	NaN	3363773.8198707	NaN	3363774.8032531	3363775.31980653
80	18	0	0	90	36.1581920903955	36.241610738255	13	0.433373252041638	2	11	4	NaN	2	5	0.0233821743229072	0	1	NaN	11	1	11	2	120	220	320	NaN	520	0.197298573795706	2	1	NaN	3363776.270103	NaN	3363777.2535024	3363777.77004323
80	18	0	0	90	36.1581920903955	36.241610738255	14	0.466709656044841	2	12	5	NaN	2	4	0.0233821743229072	0	1	NaN	12	1	12	2	120	220	320	NaN	520	0.0563256735913455	1	0	NaN	3363778.7870342	NaN	3363779.7703853	3363780.28695963
80	18	0	0	90	36.1581920903955	36.241610738255	11	0.366700444035232	2	4	4	NaN	1	5	0.0233821743229072	0	1	NaN	13	1	13	2	120	220	320	NaN	520	0.0817214734852314	2	0	NaN	3363781.1539256	NaN	3363782.1373129	3363782.65386203
80	18	0	0	90	36.1581920903955	36.241610738255	17	0.56671886805445	2	3	6	NaN	1	4	0.0233821743229072	0	1	NaN	14	1	14	2	120	220	320	NaN	520	0.225691173691303	1	1	NaN	3363783.5541454	NaN	3363784.5375464	3363785.05409583
80	18	0	0	90	36.1581920903955	36.241610738255	10	0.333364040032029	2	8	5	NaN	2	5	0.0233821743229072	0	1	NaN	15	1	15	2	120	220	320	NaN	520	0.155270269140601	1	0	NaN	3363786.1043954	NaN	3363787.0877967	3363787.60434243
80	18	0	0	90	36.1581920903955	36.241610738255	10	0.333364040032029	2	12	5	NaN	2	5	0.0233821743229072	0	1	NaN	16	1	16	2	120	220	320	NaN	520	0.207851173821837	1	0	NaN	3363788.5879845	NaN	3363789.5714256	3363790.08792573
80	18	0	0	90	36.1581920903955	36.241610738255	21	0.700064484067261	2	10	5	NaN	2	5	0.0233821743229072	0	1	NaN	17	1	17	2	120	220	320	NaN	520	0.161966730374843	1	0	NaN	3363791.1215749	NaN	3363792.1049661	3363792.62151297
80	18	0	0	90	36.1581920903955	36.241610738255	23	0.766737292073667	2	2	5	NaN	1	3	0.0233821743229072	0	1	NaN	18	1	18	2	120	220	320	NaN	520	0.142718574032187	2	0	NaN	3363793.6051161	NaN	3363794.5885398	3363795.10508793
80	18	0	0	90	36.1581920903955	36.241610738255	6	0.200018424019217	2	8	6	NaN	2	4	0.0233821743229072	0	1	NaN	19	1	19	2	120	220	320	NaN	520	0.131947525776923	1	0	NaN	3363796.0719077	NaN	3363797.0554515	3363797.57200597
80	18	0	0	90	36.1581920903955	36.241610738255	19	0.633391676060855	2	7	4	NaN	2	5	0.0233821743229072	0	1	NaN	20	1	20	2	120	220	320	NaN	520	0.0732460957951844	2	1	NaN	3363798.5222842	NaN	3363799.5056355	3363800.0222452
80	18	0	0	90	36.1581920903955	36.241610738255	23	0.766737292073667	2	6	3	NaN	1	5	0.0233821743229072	0	1	NaN	21	1	21	2	120	220	320	NaN	520	0.57697487808764	1	1	NaN	3363800.9223998	NaN	3363801.9059206	3363802.42246642
80	18	0	0	90	36.1581920903955	36.241610738255	8	0.266691232025623	2	7	4	NaN	2	4	0.0233821743229072	0	1	NaN	22	1	22	2	120	220	320	NaN	520	0.0848612254485488	2	1	NaN	3363803.8228388	NaN	3363804.806203	3363805.32275087
80	18	0	0	90	36.1581920903955	36.241610738255	23	0.766737292073667	2	8	4	NaN	2	3	0.0233821743229072	0	1	NaN	23	1	23	2	120	220	320	NaN	520	0.108744725584984	2	1	NaN	3363806.2230492	NaN	3363807.206463	3363807.72299297
80	18	0	0	90	36.1581920903955	36.241610738255	24	0.80007369607687	2	10	4	NaN	2	3	0.0233821743229072	0	1	NaN	24	1	24	2	120	220	320	NaN	520	0.994830573908985	2	1	NaN	3363808.6566178	NaN	3363809.6400161	3363810.15656603
80	18	0	0	90	36.1581920903955	36.241610738255	24	0.80007369607687	2	3	1	NaN	1	4	0.0233821743229072	0	1	NaN	25	1	25	2	120	220	320	NaN	520	0.158026325982064	2	0	NaN	3363811.9736054	NaN	3363812.9569998	3363813.47356187
80	18	0	0	90	36.1581920903955	36.241610738255	11	0.366700444035232	2	6	1	NaN	1	4	0.0233821743229072	0	1	NaN	26	1	26	2	120	220	320	NaN	520	0.0104166739620268	1	1	NaN	3363814.4570599	NaN	3363815.4405119	3363815.95713003
80	18	0	0	90	36.1581920903955	36.241610738255	8	0.266691232025623	2	3	4	NaN	1	5	0.0233821743229072	0	1	NaN	27	1	27	2	120	220	320	NaN	520	0.365110673476011	2	0	NaN	3363816.7907558	NaN	3363817.7741337	3363818.29069693
80	18	0	0	90	36.1581920903955	36.241610738255	16	0.533382464051247	2	8	1	NaN	2	5	0.0233821743229072	0	1	NaN	28	1	28	2	120	220	320	NaN	520	0.169574073515832	2	1	NaN	3363819.4743464	NaN	3363820.4577287	3363820.97429403
80	18	0	0	90	36.1581920903955	36.241610738255	10	0.333364040032029	2	10	6	NaN	2	4	0.0233821743229072	0	1	NaN	29	1	29	2	120	220	320	NaN	520	0.653975925873965	2	1	NaN	3363822.1578985	NaN	3363823.1413436	3363823.65789597
80	18	0	0	90	36.1581920903955	36.241610738255	25	0.833410100080073	2	12	6	NaN	2	3	0.0233821743229072	0	1	NaN	30	1	30	2	120	220	320	NaN	520	0.094733573962003	1	0	NaN	3363825.1249608	NaN	3363826.1083242	3363826.62485193
80	18	0	0	90	36.1581920903955	36.241610738255	20	0.666728080064058	2	8	4	NaN	2	4	0.0233821743229072	0	1	NaN	31	1	31	2	120	220	320	NaN	520	0.133911739103496	2	1	NaN	3363827.5417961	NaN	3363828.5252044	3363829.04175156
80	18	0	0	90	36.1581920903955	36.241610738255	19	0.633391676060855	2	10	4	NaN	2	4	0.0233821743229072	0	1	NaN	32	1	32	2	120	220	320	NaN	520	0.363251621369272	2	1	NaN	3363830.008704	NaN	3363830.9921064	3363831.50866178
80	18	0	0	90	36.1581920903955	36.241610738255	0	0	1	12	5	NaN	2	5	0.0233821743229072	0	1	NaN	33	1	33	2	110	210	310	NaN	510	0.455679625738412	1	0	NaN	3363832.692306	NaN	3363833.6757111	3363834.19226097
80	18	0	0	90	36.1581920903955	36.241610738255	25	0.833410100080073	2	5	1	NaN	1	5	0.0233821743229072	0	1	NaN	34	1	34	2	120	220	320	NaN	520	0.0716786216944456	2	0	NaN	3363835.4759143	NaN	3363836.4593237	3363836.97586538
80	18	0	0	90	36.1581920903955	36.241610738255	17	0.56671886805445	2	7	1	NaN	2	4	0.0233821743229072	0	1	NaN	35	1	35	2	120	220	320	NaN	520	0.135513826273382	2	1	NaN	3363837.8760241	NaN	3363838.8595548	3363839.37610477
80	18	0	0	90	36.1581920903955	36.241610738255	10	0.333364040032029	2	4	4	NaN	1	3	0.0233821743229072	0	1	NaN	36	1	36	2	120	220	320	NaN	520	0.148611721582711	1	1	NaN	3363840.3430642	NaN	3363841.326445	3363841.84301158
80	18	0	0	90	36.1581920903955	36.241610738255	23	0.766737292073667	2	11	2	NaN	2	4	0.0233821743229072	0	1	NaN	37	1	37	2	120	220	320	NaN	520	0.241890425793827	2	1	NaN	3363842.8099911	NaN	3363843.793365	3363844.30991947
80	18	0	0	90	36.1581920903955	36.241610738255	11	0.366700444035232	2	11	1	NaN	2	5	0.0233821743229072	0	1	NaN	38	1	38	2	120	220	320	NaN	520	0.147487273905426	2	1	NaN	3363845.3602327	NaN	3363846.3436134	3363846.86016833
80	18	0	0	90	36.1581920903955	36.241610738255	12	0.400036848038435	2	5	5	NaN	1	5	0.0233821743229072	0	1	NaN	39	1	39	2	120	220	320	NaN	520	0.160514525603503	2	0	NaN	3363847.8271228	NaN	3363848.810569	3363849.32707977
80	18	0	0	90	36.1581920903955	36.241610738255	24	0.80007369607687	2	9	1	NaN	2	3	0.0233821743229072	0	1	NaN	40	1	40	2	120	220	320	NaN	520	0.164970021694899	2	1	NaN	3363850.3107069	NaN	3363851.2940975	3363851.81064818
80	18	0	0	90	36.1581920903955	36.241610738255	7	0.23335482802242	2	4	3	NaN	1	5	0.0233821743229072	0	1	NaN	41	1	41	2	120	220	320	NaN	520	0.201286925934255	1	1	NaN	3363852.7942856	NaN	3363853.7776834	3363854.29423467
80	18	0	0	90	36.1581920903955	36.241610738255	14	0.466709656044841	2	5	1	NaN	1	5	0.0233821743229072	0	1	NaN	42	1	42	2	120	220	320	NaN	520	0.0765117169357836	2	0	NaN	3363855.3112037	NaN	3363856.2946504	3363856.81113898
80	18	0	0	90	36.1581920903955	36.241610738255	12	0.400036848038435	2	12	5	NaN	2	5	0.0233821743229072	0	1	NaN	43	1	43	2	120	220	320	NaN	520	0.284373173955828	2	1	NaN	3363857.711252	NaN	3363858.6948265	3363859.21137953
80	18	0	0	90	36.1581920903955	36.241610738255	17	0.56671886805445	2	8	6	NaN	2	3	0.0233821743229072	0	1	NaN	44	1	44	2	120	220	320	NaN	520	0.0740131735801697	2	1	NaN	3363860.3616871	NaN	3363861.3450855	3363861.86163923
80	18	0	0	90	36.1581920903955	36.241610738255	24	0.80007369607687	2	2	3	NaN	1	5	0.0233821743229072	0	1	NaN	45	1	45	2	120	220	320	NaN	520	0.122298373840749	2	0	NaN	3363862.7452934	NaN	3363863.7286589	3363864.24521293
80	18	0	0	90	36.1581920903955	36.241610738255	9	0.300027636028826	2	10	1	NaN	2	3	0.0233821743229072	0	1	NaN	46	1	46	2	120	220	320	NaN	520	0.102196573745459	2	1	NaN	3363865.4454931	NaN	3363866.4289267	3363866.94546663
80	18	0	0	90	36.1581920903955	36.241610738255	9	0.300027636028826	2	10	2	NaN	2	3	0.0233821743229072	0	1	NaN	47	1	47	2	120	220	320	NaN	520	0.101395925972611	1	0	NaN	3363867.8624171	NaN	3363868.8458183	3363869.36237917
80	18	0	0	90	36.1581920903955	36.241610738255	24	0.80007369607687	2	9	6	NaN	2	3	0.0233821743229072	0	1	NaN	48	1	48	2	120	220	320	NaN	520	0.116502773948014	2	1	NaN	3363870.2793349	NaN	3363871.2627353	3363871.77927903
80	18	0	0	90	36.1581920903955	36.241610738255	11	0.366700444035232	2	12	2	NaN	2	4	0.0233821743229072	0	1	NaN	49	1	49	2	120	220	320	NaN	520	0.179189526010305	2	1	NaN	3363872.712769	NaN	3363873.696302	3363874.21285907
80	18	0	0	90	36.1581920903955	36.241610738255	6	0.200018424019217	2	9	1	NaN	2	3	0.0233821743229072	0	1	NaN	50	1	50	2	120	220	320	NaN	520	0.135283573530614	2	1	NaN	3363875.1964721	NaN	3363876.1799107	3363876.69642743
80	18	0	0	90	36.1581920903955	36.241610738255	14	0.466709656044841	2	10	4	NaN	2	3	0.0233821743229072	0	1	NaN	51	1	51	2	120	220	320	NaN	520	0.10905782552436	1	0	NaN	3363877.6467044	NaN	3363878.6301268	3363879.14667767
80	18	0	0	90	36.1581920903955	36.241610738255	6	0.200018424019217	2	5	1	NaN	1	4	0.0233821743229072	0	1	NaN	52	1	52	2	120	220	320	NaN	520	0.124315225984901	2	0	NaN	3363880.0636262	NaN	3363881.0470177	3363881.56357077
80	18	0	0	90	36.1581920903955	36.241610738255	21	0.700064484067261	2	8	4	NaN	2	5	0.0233821743229072	0	1	NaN	53	1	53	2	120	220	320	NaN	520	0.106395426206291	2	1	NaN	3363882.4972062	NaN	3363883.4806019	3363883.99715147
80	18	0	0	90	36.1581920903955	36.241610738255	19	0.633391676060855	2	8	6	NaN	2	5	0.0233821743229072	0	1	NaN	54	1	54	2	120	220	320	NaN	520	0.201486673671752	2	1	NaN	3363884.9141053	NaN	3363885.8975013	3363886.41405123
80	18	0	0	90	36.1581920903955	36.241610738255	6	0.200018424019217	2	3	3	NaN	1	5	0.0233821743229072	0	1	NaN	55	1	55	2	120	220	320	NaN	520	0.0592638258822262	2	0	NaN	3363888.2643938	NaN	3363889.247832	3363889.76438677
80	18	0	0	90	36.1581920903955	36.241610738255	11	0.366700444035232	2	9	3	NaN	2	4	0.0233821743229072	0	1	NaN	56	1	56	2	120	220	320	NaN	520	0.209777473472059	1	0	NaN	3363890.8980167	NaN	3363891.8814198	3363892.39797213
80	18	0	0	90	36.1581920903955	36.241610738255	13	0.433373252041638	2	6	1	NaN	1	4	0.0233821743229072	0	1	NaN	57	1	57	2	120	220	320	NaN	520	0.108144225552678	2	0	NaN	3363893.4315852	NaN	3363894.4150119	3363894.93156187
80	18	0	0	90	36.1581920903955	36.241610738255	25	0.833410100080073	2	9	5	NaN	2	3	0.0233821743229072	0	1	NaN	58	1	58	2	120	220	320	NaN	520	0.227243221364915	1	0	NaN	3363895.8485166	NaN	3363896.8319096	3363897.34845558
80	18	0	0	90	36.1581920903955	36.241610738255	11	0.366700444035232	2	8	4	NaN	2	3	0.0233821743229072	0	1	NaN	59	1	59	2	120	220	320	NaN	520	0.125024374108762	2	1	NaN	3363898.3987772	NaN	3363899.3821503	3363899.89870183
80	18	0	0	90	36.1581920903955	36.241610738255	17	0.56671886805445	2	6	5	NaN	1	3	0.0233821743229072	0	1	NaN	60	1	60	2	120	220	320	NaN	520	0.141638273373246	1	1	NaN	3363900.982224	NaN	3363901.9657569	3363902.48229173
80	18	0	0	90	36.1581920903955	36.241610738255	13	0.433373252041638	2	7	3	NaN	2	4	0.0233821743229072	0	1	NaN	61	1	61	2	120	220	320	NaN	520	0.238441073801368	2	1	NaN	3363903.7492874	NaN	3363904.7326896	3363905.24922833
80	18	0	0	90	36.1581920903955	36.241610738255	17	0.56671886805445	2	4	2	NaN	1	5	0.0233821743229072	0	1	NaN	62	1	62	2	120	220	320	NaN	520	0.175841369666159	1	1	NaN	3363906.5162533	NaN	3363907.4996035	3363908.01616373
80	18	0	0	90	36.1581920903955	36.241610738255	13	0.433373252041638	2	9	3	NaN	2	3	0.0233821743229072	0	1	NaN	63	1	63	2	120	220	320	NaN	520	0.21189822582528	1	0	NaN	3363908.9998154	NaN	3363909.9832186	3363910.49975487
80	18	0	0	90	36.1581920903955	36.241610738255	21	0.700064484067261	2	5	2	NaN	1	5	0.0233821743229072	0	1	NaN	64	2	1	2	120	220	320	NaN	520	0.385470173787326	1	1	NaN	3363923.6345807	NaN	3363924.6179708	3363925.13451643
80	18	0	0	90	36.1581920903955	36.241610738255	14	0.466709656044841	2	7	5	NaN	2	3	0.0233821743229072	0	1	NaN	65	2	2	2	120	220	320	NaN	520	0.0850574215874076	2	1	NaN	3363926.3348309	NaN	3363927.3181765	3363927.83477708
80	18	0	0	90	36.1581920903955	36.241610738255	9	0.300027636028826	2	1	5	NaN	1	4	0.0233821743229072	0	1	NaN	66	2	3	2	120	220	320	NaN	520	0.540528126060963	2	0	NaN	3363929.135074	NaN	3363930.1185156	3363930.63506577
80	18	0	0	90	36.1581920903955	36.241610738255	24	0.80007369607687	2	12	6	NaN	2	3	0.0233821743229072	0	1	NaN	67	2	4	2	120	220	320	NaN	520	0.450653821695596	2	1	NaN	3363931.9853982	NaN	3363932.9687778	3363933.48533688
80	18	0	0	90	36.1581920903955	36.241610738255	8	0.266691232025623	2	9	2	NaN	2	5	0.0233821743229072	0	1	NaN	68	2	5	2	120	220	320	NaN	520	2.06736522587016	2	1	NaN	3363934.7523245	NaN	3363935.7357359	3363936.25228227
80	18	0	0	90	36.1581920903955	36.241610738255	13	0.433373252041638	2	4	5	NaN	1	4	0.0233821743229072	0	1	NaN	69	2	6	2	120	220	320	NaN	520	0.231701325625181	1	1	NaN	3363939.4361131	NaN	3363940.4195222	3363940.93607597
80	18	0	0	90	36.1581920903955	36.241610738255	21	0.700064484067261	2	2	1	NaN	1	5	0.0233821743229072	0	1	NaN	70	2	7	2	120	220	320	NaN	520	0.289388877805322	1	1	NaN	3363941.986371	NaN	3363942.9697618	3363943.48632132
80	18	0	0	90	36.1581920903955	36.241610738255	25	0.833410100080073	2	8	2	NaN	2	3	0.0233821743229072	0	1	NaN	71	2	8	2	120	220	320	NaN	520	0.0650564734824002	1	0	NaN	3363944.5866652	NaN	3363945.5700135	3363946.08657733
80	18	0	0	90	36.1581920903955	36.241610738255	15	0.500046060048044	2	8	1	NaN	2	3	0.0233821743229072	0	1	NaN	72	2	9	2	120	220	320	NaN	520	0.265572825912386	1	0	NaN	3363946.9701826	NaN	3363947.9535965	3363948.47015097
80	18	0	0	90	36.1581920903955	36.241610738255	18	0.600055272057653	2	11	3	NaN	2	4	0.0233821743229072	0	1	NaN	73	2	10	2	120	220	320	NaN	520	0.170269473455846	2	1	NaN	3363949.553789	NaN	3363950.5370927	3363951.05372893
80	18	0	0	90	36.1581920903955	36.241610738255	14	0.466709656044841	2	3	4	NaN	1	5	0.0233821743229072	0	1	NaN	74	2	11	2	120	220	320	NaN	520	0.142507625743747	2	0	NaN	3363952.037231	NaN	3363953.0206631	3363953.53731467
80	18	0	0	90	36.1581920903955	36.241610738255	13	0.433373252041638	2	2	3	NaN	1	3	0.0233821743229072	0	1	NaN	75	2	12	2	120	220	320	NaN	520	0.0683220736682415	1	1	NaN	3363954.4874842	NaN	3363955.4709899	3363955.98755353
80	18	0	0	90	36.1581920903955	36.241610738255	14	0.466709656044841	2	6	5	NaN	1	5	0.0233821743229072	0	1	NaN	76	2	13	2	120	220	320	NaN	520	0.108539325650781	2	0	NaN	3363956.8711787	NaN	3363957.8545614	3363958.37111757
80	18	0	0	90	36.1581920903955	36.241610738255	17	0.56671886805445	2	2	4	NaN	1	3	0.0233821743229072	0	1	NaN	77	2	14	2	120	220	320	NaN	520	0.179594373330474	2	0	NaN	3363959.2880919	NaN	3363960.2714601	3363960.78801893
80	18	0	0	90	36.1581920903955	36.241610738255	21	0.700064484067261	2	3	3	NaN	1	3	0.0233821743229072	0	1	NaN	78	2	15	2	120	220	320	NaN	520	0.480051825754344	1	1	NaN	3363961.7716288	NaN	3363962.7550504	3363963.27160527
80	18	0	0	90	36.1581920903955	36.241610738255	15	0.500046060048044	2	4	3	NaN	1	5	0.0233821743229072	0	1	NaN	79	2	16	2	120	220	320	NaN	520	0.464182669296861	1	1	NaN	3363964.5719947	NaN	3363965.5553082	3363966.07186833
80	18	0	0	90	36.1581920903955	36.241610738255	19	0.633391676060855	2	6	3	NaN	1	4	0.0233821743229072	0	1	NaN	80	2	17	2	120	220	320	NaN	520	0.056247625965625	1	1	NaN	3363967.3554267	NaN	3363968.3389423	3363968.85548377
80	18	0	0	90	36.1581920903955	36.241610738255	19	0.633391676060855	2	5	5	NaN	1	4	0.0233821743229072	0	1	NaN	81	2	18	2	120	220	320	NaN	520	0.0974936736747622	1	1	NaN	3363969.7224464	NaN	3363970.7058314	3363971.22238493
80	18	0	0	90	36.1581920903955	36.241610738255	19	0.633391676060855	2	11	5	NaN	2	5	0.0233821743229072	0	1	NaN	82	2	19	2	120	220	320	NaN	520	0.19258822593838	2	1	NaN	3363972.139334	NaN	3363973.1227324	3363973.63928617
80	18	0	0	90	36.1581920903955	36.241610738255	0	0	1	9	2	NaN	2	3	0.0233821743229072	0	1	NaN	83	2	20	2	110	210	310	NaN	510	0.243670073803514	2	1	NaN	3363974.6562425	NaN	3363975.6396413	3363976.15619383
80	18	0	0	90	36.1581920903955	36.241610738255	20	0.666728080064058	2	12	1	NaN	2	4	0.0233821743229072	0	1	NaN	84	2	21	2	120	220	320	NaN	520	0.110097225755453	2	1	NaN	3363977.5898444	NaN	3363978.573281	3363979.08981197
80	18	0	0	90	36.1581920903955	36.241610738255	22	0.733400888070464	2	8	2	NaN	2	5	0.0233821743229072	0	1	NaN	85	2	22	2	120	220	320	NaN	520	0.1411700733006	1	0	NaN	3363980.0068244	NaN	3363980.9901703	3363981.50673393
80	18	0	0	90	36.1581920903955	36.241610738255	7	0.23335482802242	2	11	1	NaN	2	5	0.0233821743229072	0	1	NaN	86	2	23	2	120	220	320	NaN	520	0.0749839260242879	2	1	NaN	3363982.4570092	NaN	3363983.4404187	3363983.95696987
80	18	0	0	90	36.1581920903955	36.241610738255	18	0.600055272057653	2	12	6	NaN	2	5	0.0233821743229072	0	1	NaN	87	2	24	2	120	220	320	NaN	520	0.131473673507571	2	1	NaN	3363984.8405796	NaN	3363985.8239881	3363986.34052533
80	18	0	0	90	36.1581920903955	36.241610738255	10	0.333364040032029	2	7	1	NaN	2	5	0.0233821743229072	0	1	NaN	88	2	25	2	120	220	320	NaN	520	0.113169525749981	2	1	NaN	3363987.290691	NaN	3363988.2742169	3363988.79077697
80	18	0	0	90	36.1581920903955	36.241610738255	13	0.433373252041638	2	12	6	NaN	2	5	0.0233821743229072	0	1	NaN	89	2	26	2	120	220	320	NaN	520	0.136149273719639	2	1	NaN	3363989.70768	NaN	3363990.6911253	3363991.20767383
80	18	0	0	90	36.1581920903955	36.241610738255	25	0.833410100080073	2	8	4	NaN	2	5	0.0233821743229072	0	1	NaN	90	2	27	2	120	220	320	NaN	520	0.0778247737325728	2	1	NaN	3363992.1579664	NaN	3363993.1413681	3363993.65791753
80	18	0	0	90	36.1581920903955	36.241610738255	9	0.300027636028826	2	5	5	NaN	1	5	0.0233821743229072	0	1	NaN	91	2	28	2	120	220	320	NaN	520	0.118013373576105	1	1	NaN	3363994.5582063	NaN	3363995.5415889	3363996.05814683
80	18	0	0	90	36.1581920903955	36.241610738255	13	0.433373252041638	2	7	3	NaN	2	3	0.0233821743229072	0	1	NaN	92	2	29	2	120	220	320	NaN	520	0.164117825683206	2	1	NaN	3363996.9916465	NaN	3363997.975171	3363998.49172517
80	18	0	0	90	36.1581920903955	36.241610738255	10	0.333364040032029	2	6	6	NaN	1	4	0.0233821743229072	0	1	NaN	93	2	30	2	120	220	320	NaN	520	0.0726369740441442	1	1	NaN	3363999.4753516	NaN	3364000.4587445	3364000.97529283
80	18	0	0	90	36.1581920903955	36.241610738255	22	0.733400888070464	2	6	2	NaN	1	5	0.0233821743229072	0	1	NaN	94	2	31	2	120	220	320	NaN	520	0.26506072608754	1	1	NaN	3364001.8587842	NaN	3364002.8423237	3364003.35887357
80	18	0	0	90	36.1581920903955	36.241610738255	14	0.466709656044841	2	10	3	NaN	2	4	0.0233821743229072	0	1	NaN	95	2	32	2	120	220	320	NaN	520	0.0653955736197531	2	1	NaN	3364004.4425038	NaN	3364005.4258966	3364005.94245223
80	18	0	0	90	36.1581920903955	36.241610738255	18	0.600055272057653	2	8	6	NaN	2	3	0.0233821743229072	0	1	NaN	96	2	33	2	120	220	320	NaN	520	0.241564391180873	2	1	NaN	3364006.8260788	NaN	3364007.8094677	3364008.32602591
80	18	0	0	90	36.1581920903955	36.241610738255	14	0.466709656044841	2	4	2	NaN	1	4	0.0233821743229072	0	1	NaN	97	2	34	2	120	220	320	NaN	520	0.13151817349717	1	1	NaN	3364009.3763458	NaN	3364010.3597134	3364010.87627033
80	18	0	0	90	36.1581920903955	36.241610738255	12	0.400036848038435	2	11	4	NaN	2	4	0.0233821743229072	0	1	NaN	98	2	35	2	120	220	320	NaN	520	0.0974876256659627	2	1	NaN	3364011.8265662	NaN	3364012.8099718	3364013.32652017
80	18	0	0	90	36.1581920903955	36.241610738255	14	0.466709656044841	2	2	5	NaN	1	3	0.0233821743229072	0	1	NaN	99	2	36	2	120	220	320	NaN	520	1.03242377378047	2	0	NaN	3364014.2434723	NaN	3364015.2268685	3364015.74341143
80	18	0	0	90	36.1581920903955	36.241610738255	23	0.766737292073667	2	12	3	NaN	2	5	0.0233821743229072	0	1	NaN	100	2	37	2	120	220	320	NaN	520	0.186762373428792	2	1	NaN	3364017.5770083	NaN	3364018.5605235	3364019.07707143
80	18	0	0	90	36.1581920903955	36.241610738255	19	0.633391676060855	2	4	3	NaN	1	4	0.0233821743229072	0	1	NaN	101	2	38	2	120	220	320	NaN	520	0.590763173531741	2	0	NaN	3364020.0772998	NaN	3364021.0607618	3364021.57731903
80	18	0	0	90	36.1581920903955	36.241610738255	14	0.466709656044841	2	12	4	NaN	2	5	0.0233821743229072	0	1	NaN	102	2	39	2	120	220	320	NaN	520	0.154286126140505	2	1	NaN	3364022.977683	NaN	3364023.9610933	3364024.47761327
80	18	0	0	90	36.1581920903955	36.241610738255	19	0.633391676060855	2	9	1	NaN	2	5	0.0233821743229072	0	1	NaN	103	2	40	2	120	220	320	NaN	520	0.143317443784326	2	1	NaN	3364025.4446642	NaN	3364026.427966	3364026.94451776
80	18	0	0	90	36.1581920903955	36.241610738255	9	0.300027636028826	2	11	6	NaN	2	5	0.0233821743229072	0	1	NaN	104	2	41	2	120	220	320	NaN	520	0.437332125846297	2	1	NaN	3364027.8946845	NaN	3364028.87821	3364029.39476497
80	18	0	0	90	36.1581920903955	36.241610738255	25	0.833410100080073	2	10	6	NaN	2	4	0.0233821743229072	0	1	NaN	105	2	42	2	120	220	320	NaN	520	0.142738121561706	2	1	NaN	3364030.6451772	NaN	3364031.628471	3364032.14501948
80	18	0	0	90	36.1581920903955	36.241610738255	18	0.600055272057653	2	2	3	NaN	1	4	0.0233821743229072	0	1	NaN	106	2	43	2	120	220	320	NaN	520	0.204531773924828	1	1	NaN	3364033.095196	NaN	3364034.0787188	3364034.59526533
80	18	0	0	90	36.1581920903955	36.241610738255	24	0.80007369607687	2	4	4	NaN	1	5	0.0233821743229072	0	1	NaN	107	2	44	2	120	220	320	NaN	520	0.103719473350793	2	0	NaN	3364035.6121432	NaN	3364036.5956347	3364037.11218813
80	18	0	0	90	36.1581920903955	36.241610738255	14	0.466709656044841	2	11	1	NaN	2	4	0.0233821743229072	0	1	NaN	108	2	45	2	120	220	320	NaN	520	0.19082202622667	2	1	NaN	3364038.0291415	NaN	3364039.0125343	3364039.52908937
80	18	0	0	90	36.1581920903955	36.241610738255	8	0.266691232025623	2	10	6	NaN	2	3	0.0233821743229072	0	1	NaN	109	2	46	2	120	220	320	NaN	520	0.122397773433477	2	1	NaN	3364040.5292642	NaN	3364041.5127789	3364042.02932613
80	18	0	0	90	36.1581920903955	36.241610738255	25	0.833410100080073	2	11	3	NaN	2	3	0.0233821743229072	0	1	NaN	110	2	47	2	120	220	320	NaN	520	0.169232525862753	2	1	NaN	3364042.9628287	NaN	3364043.9463548	3364044.46290987
80	18	0	0	90	36.1581920903955	36.241610738255	9	0.300027636028826	2	1	1	NaN	1	3	0.0233821743229072	0	1	NaN	111	2	48	2	120	220	320	NaN	520	0.101463773753494	1	1	NaN	3364045.4465671	NaN	3364046.4299182	3364046.94648183
80	18	0	0	90	36.1581920903955	36.241610738255	11	0.366700444035232	2	7	3	NaN	2	5	0.0233821743229072	0	1	NaN	112	2	49	2	120	220	320	NaN	520	0.684298225678504	2	1	NaN	3364047.8634385	NaN	3364048.8468386	3364049.36339107
80	18	0	0	90	36.1581920903955	36.241610738255	20	0.666728080064058	2	6	2	NaN	1	4	0.0233821743229072	0	1	NaN	113	2	50	2	120	220	320	NaN	520	0.156467826105654	1	1	NaN	3364050.8637279	NaN	3364051.8471153	3364052.36368447
80	18	0	0	90	36.1581920903955	36.241610738255	19	0.633391676060855	2	8	5	NaN	2	3	0.0233821743229072	0	1	NaN	114	2	51	2	120	220	320	NaN	520	2.09761322615668	2	1	NaN	3364053.330554	NaN	3364054.3140399	3364054.83059487
80	18	0	0	90	36.1581920903955	36.241610738255	12	0.400036848038435	2	3	5	NaN	1	4	0.0233821743229072	0	1	NaN	115	2	52	2	120	220	320	NaN	520	0.0562820737250149	1	1	NaN	3364057.7477144	NaN	3364058.7311536	3364059.24768903
80	18	0	0	90	36.1581920903955	36.241610738255	14	0.466709656044841	2	11	1	NaN	2	3	0.0233821743229072	0	1	NaN	116	2	53	2	120	220	320	NaN	520	0.0103508825413883	2	1	NaN	3364060.1146435	NaN	3364061.098042	3364061.61458512
80	18	0	0	90	36.1581920903955	36.241610738255	23	0.766737292073667	2	4	1	NaN	1	4	0.0233821743229072	0	1	NaN	117	2	54	2	120	220	320	NaN	520	0.262969221919775	1	1	NaN	3364062.7648766	NaN	3364063.7483014	3364064.26486888
80	18	0	0	90	36.1581920903955	36.241610738255	22	0.733400888070464	2	5	2	NaN	1	5	0.0233821743229072	0	1	NaN	118	2	55	2	120	220	320	NaN	520	0.151495125610381	2	0	NaN	3364065.3484859	NaN	3364066.3318871	3364066.84844157
80	18	0	0	90	36.1581920903955	36.241610738255	18	0.600055272057653	2	5	1	NaN	1	5	0.0233821743229072	0	1	NaN	119	2	56	2	120	220	320	NaN	520	0.0104098739102483	1	1	NaN	3364067.8154811	NaN	3364068.7987859	3364069.31533913
80	18	0	0	90	36.1581920903955	36.241610738255	14	0.466709656044841	2	9	5	NaN	2	3	0.0233821743229072	0	1	NaN	120	2	57	2	120	220	320	NaN	520	0.279395625926554	2	1	NaN	3364070.1489515	NaN	3364071.1323743	3364071.64890267
80	18	0	0	90	36.1581920903955	36.241610738255	8	0.266691232025623	2	6	3	NaN	1	5	0.0233821743229072	0	1	NaN	121	2	58	2	120	220	320	NaN	520	0.24705597339198	1	1	NaN	3364072.7492116	NaN	3364073.7326073	3364074.24915863
80	18	0	0	90	36.1581920903955	36.241610738255	25	0.833410100080073	2	6	6	NaN	1	3	0.0233821743229072	0	1	NaN	122	2	59	2	120	220	320	NaN	520	0.280259925872087	2	0	NaN	3364075.3160053	NaN	3364076.2995186	3364076.81608377
80	18	0	0	90	36.1581920903955	36.241610738255	11	0.366700444035232	2	1	6	NaN	1	3	0.0233821743229072	0	1	NaN	123	2	60	2	120	220	320	NaN	520	0.127616873942316	2	0	NaN	3364077.9163818	NaN	3364078.8997795	3364079.41633583
80	18	0	0	90	36.1581920903955	36.241610738255	11	0.366700444035232	2	12	3	NaN	2	5	0.0233821743229072	0	1	NaN	124	2	61	2	120	220	320	NaN	520	0.109991239383817	2	1	NaN	3364080.3499725	NaN	3364081.3333652	3364081.84991076
80	18	0	0	90	36.1581920903955	36.241610738255	14	0.466709656044841	2	4	1	NaN	1	3	0.0233821743229072	0	1	NaN	125	2	62	2	120	220	320	NaN	520	0.0843244255520403	2	0	NaN	3364082.78355	NaN	3364083.7669242	3364084.28347817
80	18	0	0	90	36.1581920903955	36.241610738255	6	0.200018424019217	2	10	5	NaN	2	5	0.0233821743229072	0	1	NaN	126	2	63	2	120	220	320	NaN	520	0.0925920261070132	2	1	NaN	3364085.1836968	NaN	3364086.167184	3364086.68372197
80	18	0	0	90	36.1581920903955	36.241610738255	24	0.80007369607687	2	4	6	NaN	1	3	0.0233821743229072	0	1	NaN	127	3	1	2	120	220	320	NaN	520	2.02283432614058	2	0	NaN	3364122.2374209	NaN	3364123.2207964	3364123.73735547
80	18	0	0	90	36.1581920903955	36.241610738255	10	0.333364040032029	2	7	4	NaN	2	3	0.0233821743229072	0	1	NaN	128	3	2	2	120	220	320	NaN	520	0.167703521903604	2	1	NaN	3364127.0044698	NaN	3364127.9879507	3364128.50449198
80	18	0	0	90	36.1581920903955	36.241610738255	22	0.733400888070464	2	10	5	NaN	2	5	0.0233821743229072	0	1	NaN	129	3	3	2	120	220	320	NaN	520	0.172215073369443	1	0	NaN	3364129.4881533	NaN	3364130.4715123	3364130.98806043
80	18	0	0	90	36.1581920903955	36.241610738255	22	0.733400888070464	2	1	6	NaN	1	4	0.0233821743229072	0	1	NaN	130	3	4	2	120	220	320	NaN	520	0.3003946733661	2	0	NaN	3364132.4717165	NaN	3364133.4551349	3364133.97168513
80	18	0	0	90	36.1581920903955	36.241610738255	14	0.466709656044841	2	5	6	NaN	1	3	0.0233821743229072	0	1	NaN	131	3	5	2	120	220	320	NaN	520	0.134430873673409	2	0	NaN	3364136.2054181	NaN	3364137.1888494	3364137.70539023
80	18	0	0	90	36.1581920903955	36.241610738255	14	0.466709656044841	2	3	4	NaN	1	4	0.0233821743229072	0	1	NaN	132	3	6	2	120	220	320	NaN	520	0.20063977362588	2	0	NaN	3364138.9556937	NaN	3364139.9391035	3364140.45566133
80	18	0	0	90	36.1581920903955	36.241610738255	24	0.80007369607687	2	1	4	NaN	1	5	0.0233821743229072	0	1	NaN	133	3	7	2	120	220	320	NaN	520	0.107322725933045	1	1	NaN	3364141.4726234	NaN	3364142.4560289	3364142.97258427
80	18	0	0	90	36.1581920903955	36.241610738255	23	0.766737292073667	2	4	1	NaN	1	4	0.0233821743229072	0	1	NaN	134	3	8	2	120	220	320	NaN	520	0.10584712587297	1	1	NaN	3364143.9062195	NaN	3364144.8895872	3364145.40615137
80	18	0	0	90	36.1581920903955	36.241610738255	22	0.733400888070464	2	2	6	NaN	1	3	0.0233821743229072	0	1	NaN	135	3	9	2	120	220	320	NaN	520	0.0722224260680377	1	1	NaN	3364146.7397156	NaN	3364147.7232475	3364148.23976537
80	18	0	0	90	36.1581920903955	36.241610738255	15	0.500046060048044	2	11	3	NaN	2	4	0.0233821743229072	0	1	NaN	136	3	10	2	120	220	320	NaN	520	0.192574673332274	2	1	NaN	3364149.1232682	NaN	3364150.1067721	3364150.62332293
80	18	0	0	90	36.1581920903955	36.241610738255	25	0.833410100080073	2	4	5	NaN	1	3	0.0233821743229072	0	1	NaN	137	3	11	2	120	220	320	NaN	520	0.0919608259573579	1	1	NaN	3364151.6403269	NaN	3364152.6236944	3364153.14024757
80	18	0	0	90	36.1581920903955	36.241610738255	15	0.500046060048044	2	5	3	NaN	1	5	0.0233821743229072	0	1	NaN	138	3	12	2	120	220	320	NaN	520	28.1955908695236	2	0	NaN	3364154.0405327	NaN	3364155.0239248	3364155.54046923
80	18	0	0	90	36.1581920903955	36.241610738255	19	0.633391676060855	2	1	5	NaN	1	4	0.0233821743229072	0	1	NaN	139	3	13	2	120	220	320	NaN	520	1.98405187390745	1	1	NaN	3364284.8200414	NaN	3364285.8034396	3364286.31999233
80	18	0	0	90	36.1581920903955	36.241610738255	0	0	1	10	5	NaN	2	5	0.0233821743229072	0	1	NaN	140	3	14	2	110	210	310	NaN	510	0.284205995965749	1	0	NaN	3364289.1203398	NaN	3364290.1038886	3364290.6204243
80	18	0	0	90	36.1581920903955	36.241610738255	21	0.700064484067261	2	4	3	NaN	1	5	0.0233821743229072	0	1	NaN	141	3	15	2	120	220	320	NaN	520	0.138977673370391	1	1	NaN	3364291.7374022	NaN	3364292.7207948	3364293.23734353
80	18	0	0	90	36.1581920903955	36.241610738255	6	0.200018424019217	2	8	1	NaN	2	3	0.0233821743229072	0	1	NaN	142	3	16	2	120	220	320	NaN	520	0.112510691396892	1	0	NaN	3364294.1875058	NaN	3364295.1710428	3364295.68758291
80	18	0	0	90	36.1581920903955	36.241610738255	17	0.56671886805445	2	1	4	NaN	1	3	0.0233821743229072	0	1	NaN	143	3	17	2	120	220	320	NaN	520	0.151221373584121	1	1	NaN	3364296.6212197	NaN	3364297.6046393	3364298.12115193
80	18	0	0	90	36.1581920903955	36.241610738255	20	0.666728080064058	2	6	3	NaN	1	3	0.0233821743229072	0	1	NaN	144	3	18	2	120	220	320	NaN	520	0.172345273662359	1	1	NaN	3364299.0879955	NaN	3364300.0715685	3364300.58806953
80	18	0	0	90	36.1581920903955	36.241610738255	11	0.366700444035232	2	1	3	NaN	1	5	0.0233821743229072	0	1	NaN	145	3	19	2	120	220	320	NaN	520	0.799749169033021	2	0	NaN	3364301.5883526	NaN	3364302.5717495	3364303.08830413
80	18	0	0	90	36.1581920903955	36.241610738255	24	0.80007369607687	2	7	1	NaN	2	4	0.0233821743229072	0	1	NaN	146	3	20	2	120	220	320	NaN	520	0.410058825742453	1	0	NaN	3364304.7218818	NaN	3364305.7054256	3364306.22195007
80	18	0	0	90	36.1581920903955	36.241610738255	17	0.56671886805445	2	3	5	NaN	1	3	0.0233821743229072	0	1	NaN	147	3	21	2	120	220	320	NaN	520	0.18066467391327	1	1	NaN	3364307.4555878	NaN	3364308.4389044	3364308.95555683
80	18	0	0	90	36.1581920903955	36.241610738255	9	0.300027636028826	2	6	5	NaN	1	5	0.0233821743229072	0	1	NaN	148	3	22	2	120	220	320	NaN	520	0.152447525877506	1	1	NaN	3364309.9557323	NaN	3364310.9392725	3364311.45580547
80	18	0	0	90	36.1581920903955	36.241610738255	12	0.400036848038435	2	3	4	NaN	1	5	0.0233821743229072	0	1	NaN	149	3	23	2	120	220	320	NaN	520	0.869447574019432	2	0	NaN	3364312.4226396	NaN	3364313.4061699	3364313.92270763
80	18	0	0	90	36.1581920903955	36.241610738255	17	0.56671886805445	2	6	1	NaN	1	4	0.0233821743229072	0	1	NaN	150	3	24	2	120	220	320	NaN	520	0.123219425790012	1	1	NaN	3364316.2731675	NaN	3364317.256557	3364317.77309147
80	18	0	0	90	36.1581920903955	36.241610738255	19	0.633391676060855	2	2	6	NaN	1	4	0.0233821743229072	0	1	NaN	151	3	25	2	120	220	320	NaN	520	0.144918235018849	1	1	NaN	3364318.7232392	NaN	3364319.7067727	3364320.22333447
80	18	0	0	90	36.1581920903955	36.241610738255	8	0.266691232025623	2	1	3	NaN	1	4	0.0233821743229072	0	1	NaN	152	3	26	2	120	220	320	NaN	520	0.166917673777789	1	1	NaN	3364321.1735039	NaN	3364322.156977	3364322.67356883
80	18	0	0	90	36.1581920903955	36.241610738255	16	0.533382464051247	2	12	2	NaN	2	4	0.0233821743229072	0	1	NaN	153	3	27	2	120	220	320	NaN	520	0.13929376937449	2	1	NaN	3364323.6571968	NaN	3364324.6406086	3364325.15713993
80	18	0	0	90	36.1581920903955	36.241610738255	21	0.700064484067261	2	7	5	NaN	2	3	0.0233821743229072	0	1	NaN	154	3	28	2	120	220	320	NaN	520	0.177862125914544	1	0	NaN	3364326.4906839	NaN	3364327.4742234	3364327.99075897
80	18	0	0	90	36.1581920903955	36.241610738255	8	0.266691232025623	2	1	1	NaN	1	3	0.0233821743229072	0	1	NaN	155	3	29	2	120	220	320	NaN	520	0.0939225214533508	1	1	NaN	3364328.9743795	NaN	3364329.9577777	3364330.47433178
80	18	0	0	90	36.1581920903955	36.241610738255	17	0.56671886805445	2	10	5	NaN	2	5	0.0233821743229072	0	1	NaN	156	3	30	2	120	220	320	NaN	520	0.212874673772603	1	0	NaN	3364331.3912875	NaN	3364332.3747153	3364332.89123313
80	18	0	0	90	36.1581920903955	36.241610738255	20	0.666728080064058	2	5	4	NaN	1	5	0.0233821743229072	0	1	NaN	157	3	31	2	120	220	320	NaN	520	0.255485625937581	1	1	NaN	3364333.9248909	NaN	3364334.9082747	3364335.42481737
80	18	0	0	90	36.1581920903955	36.241610738255	25	0.833410100080073	2	10	4	NaN	2	5	0.0233821743229072	0	1	NaN	158	3	32	2	120	220	320	NaN	520	0.0619504260830581	1	0	NaN	3364336.9584891	NaN	3364337.9419306	3364338.45845977
80	18	0	0	90	36.1581920903955	36.241610738255	12	0.400036848038435	2	11	2	NaN	2	3	0.0233821743229072	0	1	NaN	159	3	33	2	120	220	320	NaN	520	0.230929221492261	1	0	NaN	3364339.3254622	NaN	3364340.3088149	3364340.82535228
80	18	0	0	90	36.1581920903955	36.241610738255	6	0.200018424019217	2	2	2	NaN	1	5	0.0233821743229072	0	1	NaN	160	3	34	2	120	220	320	NaN	520	0.176839374005795	1	1	NaN	3364341.875571	NaN	3364342.85905	3364343.37559613
80	18	0	0	90	36.1581920903955	36.241610738255	20	0.666728080064058	2	11	2	NaN	2	4	0.0233821743229072	0	1	NaN	161	3	35	2	120	220	320	NaN	520	0.196458869148046	2	1	NaN	3364344.3758177	NaN	3364345.3593062	3364345.87584683
80	18	0	0	90	36.1581920903955	36.241610738255	8	0.266691232025623	2	5	5	NaN	1	3	0.0233821743229072	0	1	NaN	162	3	36	2	120	220	320	NaN	520	0.223580673802644	1	1	NaN	3364346.8928323	NaN	3364347.876235	3364348.39275443
80	18	0	0	90	36.1581920903955	36.241610738255	15	0.500046060048044	2	1	2	NaN	1	5	0.0233821743229072	0	1	NaN	163	3	37	2	120	220	320	NaN	520	0.385609021410346	1	1	NaN	3364349.4264066	NaN	3364350.4097999	3364350.92634678
80	18	0	0	90	36.1581920903955	36.241610738255	15	0.500046060048044	2	9	3	NaN	2	3	0.0233821743229072	0	1	NaN	164	3	38	2	120	220	320	NaN	520	0.765025930479169	2	1	NaN	3364352.1433294	NaN	3364353.1267373	3364353.64327947
80	18	0	0	90	36.1581920903955	36.241610738255	7	0.23335482802242	2	10	1	NaN	2	4	0.0233821743229072	0	1	NaN	165	3	39	2	120	220	320	NaN	520	0.121706173755229	2	1	NaN	3364355.2269823	NaN	3364356.2103753	3364356.72691843
80	18	0	0	90	36.1581920903955	36.241610738255	24	0.80007369607687	2	12	3	NaN	2	5	0.0233821743229072	0	1	NaN	166	3	40	2	120	220	320	NaN	520	0.35971112549305	2	1	NaN	3364358.0604656	NaN	3364359.0439004	3364359.56052997
80	18	0	0	90	36.1581920903955	36.241610738255	11	0.366700444035232	2	10	5	NaN	2	3	0.0233821743229072	0	1	NaN	167	3	41	2	120	220	320	NaN	520	0.48413677373901	2	1	NaN	3364360.7440641	NaN	3364361.7275765	3364362.24412153
80	18	0	0	90	36.1581920903955	36.241610738255	9	0.300027636028826	2	7	5	NaN	2	3	0.0233821743229072	0	1	NaN	168	3	42	2	120	220	320	NaN	520	0.0200499738566577	1	0	NaN	3364363.5443042	NaN	3364364.527867	3364365.04440303
80	18	0	0	90	36.1581920903955	36.241610738255	25	0.833410100080073	2	9	5	NaN	2	3	0.0233821743229072	0	1	NaN	169	3	43	2	120	220	320	NaN	520	2.87799627333879	2	1	NaN	3364365.8946734	NaN	3364366.878116	3364367.39462763
80	18	0	0	90	36.1581920903955	36.241610738255	12	0.400036848038435	2	8	5	NaN	2	3	0.0233821743229072	0	1	NaN	170	3	44	2	120	220	320	NaN	520	0.189547525718808	2	1	NaN	3364371.095206	NaN	3364372.0786124	3364372.59514577
80	18	0	0	90	36.1581920903955	36.241610738255	23	0.766737292073667	2	7	5	NaN	2	4	0.0233821743229072	0	1	NaN	171	3	45	2	120	220	320	NaN	520	0.264604974072427	1	0	NaN	3364373.6121692	NaN	3364374.5954977	3364375.11205153
80	18	0	0	90	36.1581920903955	36.241610738255	7	0.23335482802242	2	12	4	NaN	2	4	0.0233821743229072	0	1	NaN	172	3	46	2	120	220	320	NaN	520	0.0967411259189248	1	0	NaN	3364376.1957046	NaN	3364377.1791408	3364377.69564697
80	18	0	0	90	36.1581920903955	36.241610738255	24	0.80007369607687	2	2	2	NaN	1	4	0.0233821743229072	0	1	NaN	173	3	47	2	120	220	320	NaN	520	0.886870621703565	2	0	NaN	3364378.6459415	NaN	3364379.6293359	3364380.14588078
80	18	0	0	90	36.1581920903955	36.241610738255	23	0.766737292073667	2	3	2	NaN	1	3	0.0233821743229072	0	1	NaN	174	3	48	2	120	220	320	NaN	520	0.830528343562037	1	1	NaN	3364381.8461156	NaN	3364382.8296936	3364383.34620856
80	18	0	0	90	36.1581920903955	36.241610738255	18	0.600055272057653	2	10	3	NaN	2	5	0.0233821743229072	0	1	NaN	175	3	49	2	120	220	320	NaN	520	0.167820221744478	1	0	NaN	3364384.9964834	NaN	3364385.979974	3364386.49651288
80	18	0	0	90	36.1581920903955	36.241610738255	11	0.366700444035232	2	3	3	NaN	1	5	0.0233821743229072	0	1	NaN	176	3	50	2	120	220	320	NaN	520	0.180344525724649	1	1	NaN	3364387.4801381	NaN	3364388.4635516	3364388.98008737
80	18	0	0	90	36.1581920903955	36.241610738255	12	0.400036848038435	2	6	5	NaN	1	3	0.0233821743229072	0	1	NaN	177	3	51	2	120	220	320	NaN	520	0.0959002212621272	1	1	NaN	3364389.9802614	NaN	3364390.9637937	3364391.48032468
80	18	0	0	90	36.1581920903955	36.241610738255	25	0.833410100080073	2	7	5	NaN	2	3	0.0233821743229072	0	1	NaN	178	3	52	2	120	220	320	NaN	520	0.223839825484902	1	0	NaN	3364392.3806182	NaN	3364393.3640334	3364393.88057107
80	18	0	0	90	36.1581920903955	36.241610738255	11	0.366700444035232	2	5	3	NaN	1	3	0.0233821743229072	0	1	NaN	179	3	53	2	120	220	320	NaN	520	0.0105232172645628	1	1	NaN	3364394.9308697	NaN	3364395.9142701	3364396.43081268
80	18	0	0	90	36.1581920903955	36.241610738255	9	0.300027636028826	2	9	4	NaN	2	3	0.0233821743229072	0	1	NaN	180	3	54	2	120	220	320	NaN	520	0.132281525991857	1	0	NaN	3364397.2642988	NaN	3364398.2478227	3364398.76438207
80	18	0	0	90	36.1581920903955	36.241610738255	17	0.56671886805445	2	11	6	NaN	2	5	0.0233821743229072	0	1	NaN	181	3	55	2	120	220	320	NaN	520	0.130084278061986	2	1	NaN	3364399.7146957	NaN	3364400.6980934	3364401.21462842
80	18	0	0	90	36.1581920903955	36.241610738255	22	0.733400888070464	2	9	6	NaN	2	4	0.0233821743229072	0	1	NaN	182	3	56	2	120	220	320	NaN	520	0.159391925670207	2	1	NaN	3364402.1647758	NaN	3364403.1483128	3364403.66486617
80	18	0	0	90	36.1581920903955	36.241610738255	18	0.600055272057653	2	6	2	NaN	1	3	0.0233821743229072	0	1	NaN	183	3	57	2	120	220	320	NaN	520	0.324569373391569	2	0	NaN	3364404.631826	NaN	3364405.6152411	3364406.13176133
80	18	0	0	90	36.1581920903955	36.241610738255	16	0.533382464051247	2	5	4	NaN	1	3	0.0233821743229072	0	1	NaN	184	3	58	2	120	220	320	NaN	520	0.0824156259186566	2	0	NaN	3364407.282087	NaN	3364408.26549	3364408.78203397
80	18	0	0	90	36.1581920903955	36.241610738255	23	0.766737292073667	2	1	3	NaN	1	5	0.0233821743229072	0	1	NaN	185	3	59	2	120	220	320	NaN	520	0.0104767736047506	1	1	NaN	3364409.8156892	NaN	3364410.7990767	3364411.31560803
80	18	0	0	90	36.1581920903955	36.241610738255	7	0.23335482802242	2	10	2	NaN	2	4	0.0233821743229072	0	1	NaN	186	3	60	2	120	220	320	NaN	520	0.0479317391291261	2	1	NaN	3364412.1325711	NaN	3364413.1160617	3364413.63250886
80	18	0	0	90	36.1581920903955	36.241610738255	7	0.23335482802242	2	3	3	NaN	1	4	0.0233821743229072	0	1	NaN	187	3	61	2	120	220	320	NaN	520	0.208377382718027	1	1	NaN	3364414.5161393	NaN	3364415.499537	3364416.01607922
80	18	0	0	90	36.1581920903955	36.241610738255	22	0.733400888070464	2	5	2	NaN	1	4	0.0233821743229072	0	1	NaN	188	3	62	2	120	220	320	NaN	520	0.0103320432826877	1	1	NaN	3364417.049697	NaN	3364418.0331052	3364418.54965866
80	18	0	0	90	36.1581920903955	36.241610738255	17	0.56671886805445	2	9	1	NaN	2	5	0.0233821743229072	0	1	NaN	189	3	63	2	120	220	320	NaN	520	0.205339273903519	2	1	NaN	3364419.3831594	NaN	3364420.3666692	3364420.88321363
80	18	0	0	90	36.1581920903955	36.241610738255	7	0.23335482802242	2	12	6	NaN	2	5	0.0233821743229072	0	1	NaN	190	4	1	2	120	220	320	NaN	520	0.527760843746364	2	1	NaN	3364445.4691501	NaN	3364446.4525614	3364446.96912526
80	18	0	0	90	36.1581920903955	36.241610738255	17	0.56671886805445	2	9	6	NaN	2	4	0.0233821743229072	0	1	NaN	191	4	2	2	120	220	320	NaN	520	2.63696307362989	2	1	NaN	3364448.3194663	NaN	3364449.3028547	3364449.81939263
80	18	0	0	90	36.1581920903955	36.241610738255	7	0.23335482802242	2	7	4	NaN	2	3	0.0233821743229072	0	1	NaN	192	4	3	2	120	220	320	NaN	520	0.269817521329969	2	1	NaN	3364453.2866019	NaN	3364454.2700344	3364454.78655368
80	18	0	0	90	36.1581920903955	36.241610738255	17	0.56671886805445	2	4	2	NaN	1	4	0.0233821743229072	0	1	NaN	193	4	4	2	120	220	320	NaN	520	0.19857202610001	1	1	NaN	3364455.8701529	NaN	3364456.8535889	3364457.37013627
80	18	0	0	90	36.1581920903955	36.241610738255	25	0.833410100080073	2	3	6	NaN	1	3	0.0233821743229072	0	1	NaN	194	4	5	2	120	220	320	NaN	520	0.193717921618372	1	1	NaN	3364458.3869955	NaN	3364459.3705036	3364459.88704938
80	18	0	0	90	36.1581920903955	36.241610738255	17	0.56671886805445	2	5	4	NaN	1	4	0.0233821743229072	0	1	NaN	195	4	6	2	120	220	320	NaN	520	0.18064822582528	1	1	NaN	3364460.904032	NaN	3364461.8874544	3364462.40396627
80	18	0	0	90	36.1581920903955	36.241610738255	6	0.200018424019217	2	6	2	NaN	1	5	0.0233821743229072	0	1	NaN	196	4	7	2	120	220	320	NaN	520	0.0637380261905491	1	1	NaN	3364463.4209354	NaN	3364464.4043333	3364464.92088387
80	18	0	0	90	36.1581920903955	36.241610738255	15	0.500046060048044	2	6	1	NaN	1	3	0.0233821743229072	0	1	NaN	197	4	8	2	120	220	320	NaN	520	0.128291625995189	1	1	NaN	3364465.8043771	NaN	3364466.7879009	3364467.30444827
80	18	0	0	90	36.1581920903955	36.241610738255	12	0.400036848038435	2	9	6	NaN	2	4	0.0233821743229072	0	1	NaN	198	4	9	2	120	220	320	NaN	520	0.0865008737891912	1	0	NaN	3364468.2379264	NaN	3364469.2214694	3364469.73801593
80	18	0	0	90	36.1581920903955	36.241610738255	24	0.80007369607687	2	5	1	NaN	1	4	0.0233821743229072	0	1	NaN	199	4	10	2	120	220	320	NaN	520	0.0616095261648297	2	0	NaN	3364470.65498	NaN	3364471.6383851	3364472.15492707
80	18	0	0	90	36.1581920903955	36.241610738255	7	0.23335482802242	2	8	1	NaN	2	3	0.0233821743229072	0	1	NaN	200	4	11	2	120	220	320	NaN	520	0.142064126208425	1	0	NaN	3364473.0385868	NaN	3364474.0219629	3364474.53849467
80	18	0	0	90	36.1581920903955	36.241610738255	11	0.366700444035232	2	7	5	NaN	2	4	0.0233821743229072	0	1	NaN	201	4	12	2	120	220	320	NaN	520	0.0911085736006498	1	0	NaN	3364475.5054694	NaN	3364476.4888768	3364477.00539763
80	18	0	0	90	36.1581920903955	36.241610738255	11	0.366700444035232	2	10	3	NaN	2	4	0.0233821743229072	0	1	NaN	202	4	13	2	120	220	320	NaN	520	0.0348182916641235	2	1	NaN	3364477.9056702	NaN	3364478.8890962	3364479.40563921
80	18	0	0	90	36.1581920903955	36.241610738255	25	0.833410100080073	2	3	6	NaN	1	5	0.0233821743229072	0	1	NaN	203	4	14	2	120	220	320	NaN	520	0.932616773992777	1	1	NaN	3364480.255928	NaN	3364481.2393348	3364481.75585773
80	18	0	0	90	36.1581920903955	36.241610738255	24	0.80007369607687	2	6	3	NaN	1	4	0.0233821743229072	0	1	NaN	204	4	15	2	120	220	320	NaN	520	0.0902169737964869	1	1	NaN	3364483.5061244	NaN	3364484.4896174	3364485.00620643
80	18	0	0	90	36.1581920903955	36.241610738255	18	0.600055272057653	2	9	3	NaN	2	4	0.0233821743229072	0	1	NaN	205	4	16	2	120	220	320	NaN	520	0.186085934750736	1	0	NaN	3364485.9063426	NaN	3364486.8898735	3364487.40642607
80	18	0	0	90	36.1581920903955	36.241610738255	15	0.500046060048044	2	10	5	NaN	2	4	0.0233821743229072	0	1	NaN	206	4	17	2	120	220	320	NaN	520	0.0539048737846315	1	0	NaN	3364488.4067339	NaN	3364489.3901169	3364489.90666363
80	18	0	0	90	36.1581920903955	36.241610738255	18	0.600055272057653	2	7	4	NaN	2	3	0.0233821743229072	0	1	NaN	207	4	18	2	120	220	320	NaN	520	1.91016922565177	2	1	NaN	3364490.7902994	NaN	3364491.7737541	3364492.29023427
80	18	0	0	90	36.1581920903955	36.241610738255	11	0.366700444035232	2	3	2	NaN	1	5	0.0233821743229072	0	1	NaN	208	4	19	2	120	220	320	NaN	520	0.0844510393217206	1	1	NaN	3364495.0240304	NaN	3364496.0074511	3364496.52399156
80	18	0	0	90	36.1581920903955	36.241610738255	19	0.633391676060855	2	3	5	NaN	1	5	0.0233821743229072	0	1	NaN	209	4	20	2	120	220	320	NaN	520	0.116710925940424	1	1	NaN	3364497.4242647	NaN	3364498.4076705	3364498.92422387
80	18	0	0	90	36.1581920903955	36.241610738255	0	0	1	8	5	NaN	2	3	0.0233821743229072	0	1	NaN	210	4	21	2	110	210	310	NaN	510	0.219019921496511	2	1	NaN	3364499.8577282	NaN	3364500.8412428	3364501.35779188
80	18	0	0	90	36.1581920903955	36.241610738255	17	0.56671886805445	2	12	5	NaN	2	3	0.0233821743229072	0	1	NaN	211	4	22	2	120	220	320	NaN	520	0.940482226200402	2	1	NaN	3364502.4081021	NaN	3364503.3915036	3364503.90803477
80	18	0	0	90	36.1581920903955	36.241610738255	19	0.633391676060855	2	7	2	NaN	2	5	0.0233821743229072	0	1	NaN	212	4	23	2	120	220	320	NaN	520	0.124838221818209	2	1	NaN	3364507.1918789	NaN	3364508.1752859	3364508.69184088
80	18	0	0	90	36.1581920903955	36.241610738255	16	0.533382464051247	2	11	1	NaN	2	4	0.0233821743229072	0	1	NaN	213	4	24	2	120	220	320	NaN	520	0.0751624740660191	2	1	NaN	3364509.6254703	NaN	3364510.60888	3364511.12541813
80	18	0	0	90	36.1581920903955	36.241610738255	23	0.766737292073667	2	3	3	NaN	1	3	0.0233821743229072	0	1	NaN	214	4	25	2	120	220	320	NaN	520	0.898997325915843	1	1	NaN	3364512.025582	NaN	3364513.0091401	3364513.52565697
80	18	0	0	90	36.1581920903955	36.241610738255	22	0.733400888070464	2	12	2	NaN	2	5	0.0233821743229072	0	1	NaN	215	4	26	2	120	220	320	NaN	520	0.0500333737581968	1	0	NaN	3364515.2427251	NaN	3364516.226092	3364516.74263143
80	18	0	0	90	36.1581920903955	36.241610738255	7	0.23335482802242	2	7	6	NaN	2	5	0.0233821743229072	0	1	NaN	216	4	27	2	120	220	320	NaN	520	0.722891169600189	2	1	NaN	3364517.6095916	NaN	3364518.5929939	3364519.10952233
80	18	0	0	90	36.1581920903955	36.241610738255	23	0.766737292073667	2	12	3	NaN	2	4	0.0233821743229072	0	1	NaN	217	4	28	2	120	220	320	NaN	520	0.201091126073152	2	1	NaN	3364520.6598951	NaN	3364521.6431952	3364522.15983217
80	18	0	0	90	36.1581920903955	36.241610738255	18	0.600055272057653	2	7	4	NaN	2	4	0.0233821743229072	0	1	NaN	218	4	29	2	120	220	320	NaN	520	0.0105005213990808	1	0	NaN	3364523.1768104	NaN	3364524.1601876	3364524.67675188
80	18	0	0	90	36.1581920903955	36.241610738255	12	0.400036848038435	2	4	6	NaN	1	5	0.0233821743229072	0	1	NaN	219	4	30	2	120	220	320	NaN	520	0.126376925967634	1	1	NaN	3364525.5102479	NaN	3364526.4937633	3364527.01031227
80	18	0	0	90	36.1581920903955	36.241610738255	20	0.666728080064058	2	2	2	NaN	1	4	0.0233821743229072	0	1	NaN	220	4	31	2	120	220	320	NaN	520	0.147935573477298	1	1	NaN	3364527.9604424	NaN	3364528.943938	3364529.46055463
80	18	0	0	90	36.1581920903955	36.241610738255	22	0.733400888070464	2	6	4	NaN	1	5	0.0233821743229072	0	1	NaN	221	4	32	2	120	220	320	NaN	520	0.0890906257554889	1	1	NaN	3364530.4274369	NaN	3364531.4109294	3364531.92746197
80	18	0	0	90	36.1581920903955	36.241610738255	19	0.633391676060855	2	1	3	NaN	1	3	0.0233821743229072	0	1	NaN	222	4	33	2	120	220	320	NaN	520	0.0647979779168963	2	0	NaN	3364532.8276896	NaN	3364533.8112035	3364534.32776342
80	18	0	0	90	36.1581920903955	36.241610738255	10	0.333364040032029	2	8	3	NaN	2	5	0.0233821743229072	0	1	NaN	223	4	34	2	120	220	320	NaN	520	0.19360893080011	1	0	NaN	3364535.2113216	NaN	3364536.1947271	3364536.71126847
80	18	0	0	90	36.1581920903955	36.241610738255	9	0.300027636028826	2	7	1	NaN	2	5	0.0233821743229072	0	1	NaN	224	4	35	2	120	220	320	NaN	520	0.0932257738895714	2	1	NaN	3364537.7115687	NaN	3364538.6949543	3364539.21150463
80	18	0	0	90	36.1581920903955	36.241610738255	15	0.500046060048044	2	12	3	NaN	2	4	0.0233821743229072	0	1	NaN	225	4	36	2	120	220	320	NaN	520	0.604521277826279	1	0	NaN	3364540.1118084	NaN	3364541.0952214	3364541.61174292
80	18	0	0	90	36.1581920903955	36.241610738255	16	0.533382464051247	2	6	6	NaN	1	4	0.0233821743229072	0	1	NaN	226	4	37	2	120	220	320	NaN	520	0.343330317176878	2	0	NaN	3364543.045422	NaN	3364544.0287747	3364544.54535548
80	18	0	0	90	36.1581920903955	36.241610738255	6	0.200018424019217	2	5	1	NaN	1	4	0.0233821743229072	0	1	NaN	227	4	38	2	120	220	320	NaN	520	0.116350125987083	1	1	NaN	3364545.7123667	NaN	3364546.6957623	3364547.21229547
80	18	0	0	90	36.1581920903955	36.241610738255	9	0.300027636028826	2	9	5	NaN	2	5	0.0233821743229072	0	1	NaN	228	4	39	2	120	220	320	NaN	520	0.25101687386632	1	0	NaN	3364548.1459399	NaN	3364549.1293774	3364549.64585933
80	18	0	0	90	36.1581920903955	36.241610738255	7	0.23335482802242	2	5	6	NaN	1	5	0.0233821743229072	0	1	NaN	229	4	40	2	120	220	320	NaN	520	0.0757750258781016	1	1	NaN	3364550.7127171	NaN	3364551.696256	3364552.21278827
80	18	0	0	90	36.1581920903955	36.241610738255	16	0.533382464051247	2	5	2	NaN	1	5	0.0233821743229072	0	1	NaN	230	4	41	2	120	220	320	NaN	520	0.875723673962057	2	0	NaN	3364553.1130826	NaN	3364554.0964621	3364554.61301133
80	18	0	0	90	36.1581920903955	36.241610738255	17	0.56671886805445	2	12	1	NaN	2	3	0.0233821743229072	0	1	NaN	231	4	42	2	120	220	320	NaN	520	0.0910998261533678	1	0	NaN	3364556.3133967	NaN	3364557.2968037	3364557.81333577
80	18	0	0	90	36.1581920903955	36.241610738255	16	0.533382464051247	2	9	3	NaN	2	3	0.0233821743229072	0	1	NaN	232	4	43	2	120	220	320	NaN	520	0.3142503737472	1	0	NaN	3364558.7302842	NaN	3364559.7136854	3364560.23024273
80	18	0	0	90	36.1581920903955	36.241610738255	6	0.200018424019217	2	12	2	NaN	2	5	0.0233821743229072	0	1	NaN	233	4	44	2	120	220	320	NaN	520	0.0727547258138657	2	1	NaN	3364561.3638855	NaN	3364562.3473091	3364562.86383257
80	18	0	0	90	36.1581920903955	36.241610738255	24	0.80007369607687	2	8	5	NaN	2	3	0.0233821743229072	0	1	NaN	234	4	45	2	120	220	320	NaN	520	0.0644895737059414	2	1	NaN	3364563.764117	NaN	3364564.7475121	3364565.26405953
80	18	0	0	90	36.1581920903955	36.241610738255	21	0.700064484067261	2	2	1	NaN	1	5	0.0233821743229072	0	1	NaN	235	4	46	2	120	220	320	NaN	520	0.353213695809245	2	0	NaN	3364566.1475702	NaN	3364567.1311092	3364567.6476405
80	18	0	0	90	36.1581920903955	36.241610738255	22	0.733400888070464	2	11	3	NaN	2	5	0.0233821743229072	0	1	NaN	236	4	47	2	120	220	320	NaN	520	0.0374549739062786	2	1	NaN	3364568.8312942	NaN	3364569.8146863	3364570.33122453
80	18	0	0	90	36.1581920903955	36.241610738255	16	0.533382464051247	2	2	1	NaN	1	3	0.0233821743229072	0	1	NaN	237	4	48	2	120	220	320	NaN	520	0.014534582849592	2	0	NaN	3364571.1981879	NaN	3364572.1815891	3364572.69813652
80	18	0	0	90	36.1581920903955	36.241610738255	16	0.533382464051247	2	2	3	NaN	1	5	0.0233821743229072	0	1	NaN	238	4	49	2	120	220	320	NaN	520	0.177347178105265	2	0	NaN	3364573.5318362	NaN	3364574.5151467	3364575.03169912
80	18	0	0	90	36.1581920903955	36.241610738255	7	0.23335482802242	2	11	1	NaN	2	3	0.0233821743229072	0	1	NaN	239	4	50	2	120	220	320	NaN	520	0.108787225559354	2	1	NaN	3364576.0320047	NaN	3364577.015404	3364577.53194017
80	18	0	0	90	36.1581920903955	36.241610738255	18	0.600055272057653	2	10	1	NaN	2	5	0.0233821743229072	0	1	NaN	240	4	51	2	120	220	320	NaN	520	0.139210073743016	2	1	NaN	3364578.4654843	NaN	3364579.4489799	3364579.96550313
80	18	0	0	90	36.1581920903955	36.241610738255	0	0	1	8	3	NaN	2	4	0.0233821743229072	0	1	NaN	241	4	52	2	110	210	310	NaN	510	0.200312273576856	2	1	NaN	3364580.9323755	NaN	3364581.9158827	3364582.43240953
80	18	0	0	90	36.1581920903955	36.241610738255	10	0.333364040032029	2	3	1	NaN	1	5	0.0233821743229072	0	1	NaN	242	4	53	2	120	220	320	NaN	520	0.243231939151883	2	0	NaN	3364583.4493794	NaN	3364584.4327792	3364584.94933396
80	18	0	0	90	36.1581920903955	36.241610738255	0	0	1	5	4	NaN	1	3	0.0233821743229072	0	1	NaN	243	4	54	2	110	210	310	NaN	510	0.202529473695904	2	0	NaN	3364586.2662103	NaN	3364587.2497552	3364587.76627403
80	18	0	0	90	36.1581920903955	36.241610738255	0	0	1	3	6	NaN	1	3	0.0233821743229072	0	1	NaN	244	4	55	2	110	210	310	NaN	510	0.101632521953434	2	0	NaN	3364588.7832498	NaN	3364589.7666509	3364590.28319098
80	18	0	0	90	36.1581920903955	36.241610738255	10	0.333364040032029	2	1	1	NaN	1	4	0.0233821743229072	0	1	NaN	245	4	56	2	120	220	320	NaN	520	0.108643673826009	1	1	NaN	3364591.1999973	NaN	3364592.1835453	3364592.70009053
80	18	0	0	90	36.1581920903955	36.241610738255	20	0.666728080064058	2	4	1	NaN	1	4	0.0233821743229072	0	1	NaN	246	4	57	2	120	220	320	NaN	520	0.714961473830044	1	1	NaN	3364593.6337319	NaN	3364594.6171183	3364595.13366543
80	18	0	0	90	36.1581920903955	36.241610738255	0	0	1	9	1	NaN	2	3	0.0233821743229072	0	1	NaN	247	4	58	2	110	210	310	NaN	510	0.249735325574875	2	1	NaN	3364596.6673671	NaN	3364597.6507537	3364598.16729757
80	18	0	0	90	36.1581920903955	36.241610738255	8	0.266691232025623	2	4	3	NaN	1	4	0.0233821743229072	0	1	NaN	248	4	59	2	120	220	320	NaN	520	0.162397721316665	2	0	NaN	3364599.2342645	NaN	3364600.2176819	3364600.73421718
80	18	0	0	90	36.1581920903955	36.241610738255	9	0.300027636028826	2	4	2	NaN	1	4	0.0233821743229072	0	1	NaN	249	4	60	2	120	220	320	NaN	520	0.263297917321324	1	1	NaN	3364601.717834	NaN	3364602.7012331	3364603.21779008
80	18	0	0	90	36.1581920903955	36.241610738255	22	0.733400888070464	2	8	6	NaN	2	5	0.0233821743229072	0	1	NaN	250	4	61	2	120	220	320	NaN	520	0.010425082873553	2	1	NaN	3364604.3014373	NaN	3364605.2848651	3364605.80138072
80	18	0	0	90	36.1581920903955	36.241610738255	0	0	1	1	2	NaN	1	3	0.0233821743229072	0	1	NaN	251	4	62	2	110	210	310	NaN	510	0.138127826154232	2	0	NaN	3364607.0183812	NaN	3364608.0017835	3364608.51831747
80	18	0	0	90	36.1581920903955	36.241610738255	0	0	1	6	4	NaN	1	4	0.0233821743229072	0	1	NaN	252	4	63	2	110	210	310	NaN	510	0.0634556780569255	2	0	NaN	3364609.4852721	NaN	3364610.4686776	3364610.98522602
80	18	0	0	90	36.1581920903955	36.241610738255	19	0.633391676060855	2	2	2	NaN	1	5	0.0233821743229072	0	1	NaN	253	5	1	2	120	220	320	NaN	520	0.202451577875763	1	1	NaN	3364744.4985398	NaN	3364745.4819439	3364745.99848062
80	18	0	0	90	36.1581920903955	36.241610738255	6	0.200018424019217	2	10	2	NaN	2	4	0.0233821743229072	0	1	NaN	254	5	2	2	120	220	320	NaN	520	1.49078361690044	2	1	NaN	3364747.0820819	NaN	3364748.0655218	3364748.58205658
80	18	0	0	90	36.1581920903955	36.241610738255	8	0.266691232025623	2	7	2	NaN	2	4	0.0233821743229072	0	1	NaN	255	5	3	2	120	220	320	NaN	520	0.11372882174328	2	1	NaN	3364750.8992159	NaN	3364751.8825829	3364752.39909978
80	18	0	0	90	36.1581920903955	36.241610738255	20	0.666728080064058	2	2	6	NaN	1	3	0.0233821743229072	0	1	NaN	256	5	4	2	120	220	320	NaN	520	0.424208017066121	2	0	NaN	3364753.3326462	NaN	3364754.3161266	3364754.83267558
80	18	0	0	90	36.1581920903955	36.241610738255	22	0.733400888070464	2	7	6	NaN	2	4	0.0233821743229072	0	1	NaN	257	5	5	2	120	220	320	NaN	520	0.810121125541627	2	1	NaN	3364756.0830083	NaN	3364757.0664472	3364757.58295447
80	18	0	0	90	36.1581920903955	36.241610738255	12	0.400036848038435	2	6	1	NaN	1	5	0.0233821743229072	0	1	NaN	258	5	6	2	120	220	320	NaN	520	0.444633921608329	2	0	NaN	3364759.2166313	NaN	3364760.2000482	3364760.71658608
80	18	0	0	90	36.1581920903955	36.241610738255	25	0.833410100080073	2	2	6	NaN	1	4	0.0233821743229072	0	1	NaN	259	5	7	2	120	220	320	NaN	520	0.124020678456873	2	0	NaN	3364762.2168417	NaN	3364763.200339	3364763.71688492
80	18	0	0	90	36.1581920903955	36.241610738255	16	0.533382464051247	2	9	2	NaN	2	3	0.0233821743229072	0	1	NaN	260	5	8	2	120	220	320	NaN	520	0.80962058249861	2	1	NaN	3364764.6671239	NaN	3364765.6505927	3364766.16712502
80	18	0	0	90	36.1581920903955	36.241610738255	20	0.666728080064058	2	5	4	NaN	1	3	0.0233821743229072	0	1	NaN	261	5	9	2	120	220	320	NaN	520	0.0104889739304781	2	0	NaN	3364767.800813	NaN	3364768.7842391	3364769.30076643
80	18	0	0	90	36.1581920903955	36.241610738255	8	0.266691232025623	2	8	2	NaN	2	4	0.0233821743229072	0	1	NaN	262	5	10	2	120	220	320	NaN	520	0.27860502153635	2	1	NaN	3364770.1343934	NaN	3364771.117789	3364771.63433268
80	18	0	0	90	36.1581920903955	36.241610738255	22	0.733400888070464	2	2	1	NaN	1	4	0.0233821743229072	0	1	NaN	263	5	11	2	120	220	320	NaN	520	0.478149025700986	2	0	NaN	3364772.734488	NaN	3364773.7180723	3364774.23458627
80	18	0	0	90	36.1581920903955	36.241610738255	10	0.333364040032029	2	11	1	NaN	2	5	0.0233821743229072	0	1	NaN	264	5	12	2	120	220	320	NaN	520	0.430225525982678	2	1	NaN	3364775.5349232	NaN	3364776.5183254	3364777.03486127
80	18	0	0	90	36.1581920903955	36.241610738255	23	0.766737292073667	2	6	2	NaN	1	4	0.0233821743229072	0	1	NaN	265	5	13	2	120	220	320	NaN	520	0.527621678076684	2	0	NaN	3364778.2851656	NaN	3364779.2686025	3364779.78513652
80	18	0	0	90	36.1581920903955	36.241610738255	24	0.80007369607687	2	7	6	NaN	2	4	0.0233821743229072	0	1	NaN	266	5	14	2	120	220	320	NaN	520	0.0534812738187611	2	1	NaN	3364781.1353505	NaN	3364782.1189004	3364782.63540903
80	18	0	0	90	36.1581920903955	36.241610738255	8	0.266691232025623	2	2	5	NaN	1	5	0.0233821743229072	0	1	NaN	267	5	15	2	120	220	320	NaN	520	0.55021802149713	2	0	NaN	3364783.5190295	NaN	3364784.5024422	3364785.01898158
80	18	0	0	90	36.1581920903955	36.241610738255	10	0.333364040032029	2	10	3	NaN	2	3	0.0233821743229072	0	1	NaN	268	5	16	2	120	220	320	NaN	520	0.0591900260187685	2	1	NaN	3364786.3859749	NaN	3364787.3693731	3364787.88591777
80	18	0	0	90	36.1581920903955	36.241610738255	25	0.833410100080073	2	11	3	NaN	2	4	0.0233821743229072	0	1	NaN	269	5	17	2	120	220	320	NaN	520	0.235559982713312	2	1	NaN	3364788.7695618	NaN	3364789.7529462	3364790.26948842
80	18	0	0	90	36.1581920903955	36.241610738255	18	0.600055272057653	2	5	2	NaN	1	4	0.0233821743229072	0	1	NaN	270	5	18	2	120	220	320	NaN	520	0.100519821979105	2	0	NaN	3364791.3365595	NaN	3364792.31987	3364792.83641248
80	18	0	0	90	36.1581920903955	36.241610738255	22	0.733400888070464	2	4	6	NaN	1	5	0.0233821743229072	0	1	NaN	271	5	19	2	120	220	320	NaN	520	0.226674934849143	2	0	NaN	3364793.7700506	NaN	3364794.7534392	3364795.26999077
80	18	0	0	90	36.1581920903955	36.241610738255	12	0.400036848038435	2	5	1	NaN	1	5	0.0233821743229072	0	1	NaN	272	5	20	2	120	220	320	NaN	520	0.708987291436642	2	0	NaN	3364796.3202854	NaN	3364797.3037035	3364797.82023471
80	18	0	0	90	36.1581920903955	36.241610738255	0	0	1	4	6	NaN	1	4	0.0233821743229072	0	1	NaN	273	5	21	2	110	210	310	NaN	510	0.139065273571759	1	1	NaN	3364799.3539459	NaN	3364800.3373318	3364800.85387013
80	18	0	0	90	36.1581920903955	36.241610738255	8	0.266691232025623	2	6	2	NaN	1	3	0.0233821743229072	0	1	NaN	274	5	22	2	120	220	320	NaN	520	0.208167326170951	1	1	NaN	3364801.8208335	NaN	3364802.8042304	3364803.32076717
80	18	0	0	90	36.1581920903955	36.241610738255	16	0.533382464051247	2	4	5	NaN	1	3	0.0233821743229072	0	1	NaN	275	5	23	2	120	220	320	NaN	520	0.266526743769646	2	0	NaN	3364804.3543986	NaN	3364805.3378243	3364805.85435836
80	18	0	0	90	36.1581920903955	36.241610738255	24	0.80007369607687	2	5	6	NaN	1	4	0.0233821743229072	0	1	NaN	276	5	24	2	120	220	320	NaN	520	0.13904032157734	1	1	NaN	3364806.9379471	NaN	3364807.9214022	3364808.43793558
80	18	0	0	90	36.1581920903955	36.241610738255	8	0.266691232025623	2	12	4	NaN	2	4	0.0233821743229072	0	1	NaN	277	5	25	2	120	220	320	NaN	520	0.767835474107414	2	1	NaN	3364809.4049	NaN	3364810.3883205	3364810.90484643
80	18	0	0	90	36.1581920903955	36.241610738255	22	0.733400888070464	2	11	6	NaN	2	4	0.0233821743229072	0	1	NaN	278	5	26	2	120	220	320	NaN	520	0.0103913871571422	2	1	NaN	3364812.4885255	NaN	3364813.471947	3364813.98849711
80	18	0	0	90	36.1581920903955	36.241610738255	10	0.333364040032029	2	5	3	NaN	1	3	0.0233821743229072	0	1	NaN	279	5	27	2	120	220	320	NaN	520	3.44770067371428	2	0	NaN	3364816.8056078	NaN	3364817.789052	3364818.30558703
80	18	0	0	90	36.1581920903955	36.241610738255	20	0.666728080064058	2	9	2	NaN	2	4	0.0233821743229072	0	1	NaN	280	5	28	2	120	220	320	NaN	520	0.418673921376467	2	1	NaN	3364824.706285	NaN	3364825.6898337	3364826.20635708
80	18	0	0	90	36.1581920903955	36.241610738255	8	0.266691232025623	2	3	5	NaN	1	4	0.0233821743229072	0	1	NaN	281	5	29	2	120	220	320	NaN	520	0.275003435090184	2	0	NaN	3364827.6899367	NaN	3364828.6734633	3364829.18998767
80	18	0	0	90	36.1581920903955	36.241610738255	15	0.500046060048044	2	9	1	NaN	2	4	0.0233821743229072	0	1	NaN	282	5	30	2	120	220	320	NaN	520	0.266813021618873	2	1	NaN	3364830.2903139	NaN	3364831.273701	3364831.79022918
80	18	0	0	90	36.1581920903955	36.241610738255	9	0.300027636028826	2	2	1	NaN	1	5	0.0233821743229072	0	1	NaN	283	5	31	2	120	220	320	NaN	520	0.0991616873070598	2	0	NaN	3364832.8738811	NaN	3364833.8572484	3364834.37383231
80	18	0	0	90	36.1581920903955	36.241610738255	18	0.600055272057653	2	3	1	NaN	1	4	0.0233821743229072	0	1	NaN	284	5	32	2	120	220	320	NaN	520	0.714240321423858	2	0	NaN	3364835.2907858	NaN	3364836.2741789	3364836.79071848
80	18	0	0	90	36.1581920903955	36.241610738255	24	0.80007369607687	2	6	6	NaN	1	5	0.0233821743229072	0	1	NaN	285	5	33	2	120	220	320	NaN	520	1.67261342145503	2	0	NaN	3364838.3242905	NaN	3364839.3078606	3364839.82435308
80	18	0	0	90	36.1581920903955	36.241610738255	13	0.433373252041638	2	3	6	NaN	1	4	0.0233821743229072	0	1	NaN	286	5	34	2	120	220	320	NaN	520	0.0642011174932122	1	1	NaN	3364842.3248156	NaN	3364843.3082106	3364843.82474818
80	18	0	0	90	36.1581920903955	36.241610738255	0	0	1	12	4	NaN	2	4	0.0233821743229072	0	1	NaN	287	5	35	2	110	210	310	NaN	510	0.0726587781682611	2	1	NaN	3364844.7083799	NaN	3364845.6916807	3364846.20832292
80	18	0	0	90	36.1581920903955	36.241610738255	19	0.633391676060855	2	12	2	NaN	2	4	0.0233821743229072	0	1	NaN	288	5	36	2	120	220	320	NaN	520	0.104638173710555	1	0	NaN	3364847.1084825	NaN	3364848.0920543	3364848.60855793
80	18	0	0	90	36.1581920903955	36.241610738255	12	0.400036848038435	2	1	5	NaN	1	3	0.0233821743229072	0	1	NaN	289	5	37	2	120	220	320	NaN	520	0.135890625882894	2	0	NaN	3364849.5255016	NaN	3364850.5089262	3364851.02546287
80	18	0	0	90	36.1581920903955	36.241610738255	18	0.600055272057653	2	2	4	NaN	1	3	0.0233821743229072	0	1	NaN	290	5	38	2	120	220	320	NaN	520	0.202563273720443	2	0	NaN	3364852.4423598	NaN	3364853.4258619	3364853.94241613
80	18	0	0	90	36.1581920903955	36.241610738255	18	0.600055272057653	2	8	6	NaN	2	5	0.0233821743229072	0	1	NaN	291	5	39	2	120	220	320	NaN	520	0.21292117331177	2	1	NaN	3364854.9760151	NaN	3364855.959458	3364856.47598943
80	18	0	0	90	36.1581920903955	36.241610738255	16	0.533382464051247	2	3	5	NaN	1	3	0.0233821743229072	0	1	NaN	292	5	40	2	120	220	320	NaN	520	0.23944447375834	2	0	NaN	3364857.5096356	NaN	3364858.4930528	3364859.00957693
80	18	0	0	90	36.1581920903955	36.241610738255	9	0.300027636028826	2	12	4	NaN	2	4	0.0233821743229072	0	1	NaN	293	5	41	2	120	220	320	NaN	520	0.160645430907607	2	1	NaN	3364860.0765399	NaN	3364861.0599707	3364861.57649757
80	18	0	0	90	36.1581920903955	36.241610738255	25	0.833410100080073	2	7	6	NaN	2	5	0.0233821743229072	0	1	NaN	294	5	42	2	120	220	320	NaN	520	0.37959721731022	2	1	NaN	3364862.7933591	NaN	3364863.776871	3364864.29341918
80	18	0	0	90	36.1581920903955	36.241610738255	7	0.23335482802242	2	5	5	NaN	1	5	0.0233821743229072	0	1	NaN	295	5	43	2	120	220	320	NaN	520	0.183335221838206	2	0	NaN	3364865.4937938	NaN	3364866.4772208	3364866.99369178
80	18	0	0	90	36.1581920903955	36.241610738255	14	0.466709656044841	2	8	3	NaN	2	4	0.0233821743229072	0	1	NaN	296	5	44	2	120	220	320	NaN	520	0.203524773474783	2	1	NaN	3364867.9940069	NaN	3364868.9774221	3364869.49394273
80	18	0	0	90	36.1581920903955	36.241610738255	15	0.500046060048044	2	8	1	NaN	2	3	0.0233821743229072	0	1	NaN	297	5	45	2	120	220	320	NaN	520	0.317435187287629	2	1	NaN	3364870.5275789	NaN	3364871.5109637	3364872.02751471
80	18	0	0	90	36.1581920903955	36.241610738255	21	0.700064484067261	2	10	6	NaN	2	3	0.0233821743229072	0	1	NaN	298	5	46	2	120	220	320	NaN	520	0.36034627398476	1	0	NaN	3364873.2445231	NaN	3364874.2279373	3364874.74445673
80	18	0	0	90	36.1581920903955	36.241610738255	17	0.56671886805445	2	2	5	NaN	1	5	0.0233821743229072	0	1	NaN	299	5	47	2	120	220	320	NaN	520	0.197060178034008	2	0	NaN	3364875.9280969	NaN	3364876.9115119	3364877.42805102
80	18	0	0	90	36.1581920903955	36.241610738255	9	0.300027636028826	2	4	3	NaN	1	3	0.0233821743229072	0	1	NaN	300	5	48	2	120	220	320	NaN	520	0.176241687033325	1	1	NaN	3364878.4448892	NaN	3364879.4284137	3364879.94495901
80	18	0	0	90	36.1581920903955	36.241610738255	20	0.666728080064058	2	1	1	NaN	1	3	0.0233821743229072	0	1	NaN	301	5	49	2	120	220	320	NaN	520	0.155848873779178	2	0	NaN	3364880.9451384	NaN	3364881.9286512	3364882.44520483
80	18	0	0	90	36.1581920903955	36.241610738255	21	0.700064484067261	2	6	4	NaN	1	5	0.0233821743229072	0	1	NaN	302	5	50	2	120	220	320	NaN	520	0.278336873743683	1	1	NaN	3364883.6787306	NaN	3364884.6622558	3364885.17881223
80	18	0	0	90	36.1581920903955	36.241610738255	16	0.533382464051247	2	12	2	NaN	2	4	0.0233821743229072	0	1	NaN	303	5	51	2	120	220	320	NaN	520	0.333855021744967	2	1	NaN	3364886.279025	NaN	3364887.2625304	3364887.77905928
80	18	0	0	90	36.1581920903955	36.241610738255	6	0.200018424019217	2	1	1	NaN	1	4	0.0233821743229072	0	1	NaN	304	5	52	2	120	220	320	NaN	520	0.219139639288187	1	1	NaN	3364888.9460522	NaN	3364889.929475	3364890.44599676
80	18	0	0	90	36.1581920903955	36.241610738255	16	0.533382464051247	2	4	5	NaN	1	3	0.0233821743229072	0	1	NaN	305	5	53	2	120	220	320	NaN	520	0.205228273756802	1	1	NaN	3364891.496192	NaN	3364892.4797008	3364892.99624953
80	18	0	0	90	36.1581920903955	36.241610738255	11	0.366700444035232	2	6	5	NaN	1	4	0.0233821743229072	0	1	NaN	306	5	54	2	120	220	320	NaN	520	0.111960973590612	1	1	NaN	3364894.0131137	NaN	3364894.9966109	3364895.51315943
80	18	0	0	90	36.1581920903955	36.241610738255	10	0.333364040032029	2	1	6	NaN	1	4	0.0233821743229072	0	1	NaN	307	5	55	2	120	220	320	NaN	520	0.110884139314294	2	0	NaN	3364896.4301347	NaN	3364897.4135322	3364897.93007986
80	18	0	0	90	36.1581920903955	36.241610738255	22	0.733400888070464	2	1	3	NaN	1	4	0.0233821743229072	0	1	NaN	308	5	56	2	120	220	320	NaN	520	0.117428321391344	1	1	NaN	3364898.8637171	NaN	3364899.8471512	3364900.36363778
80	18	0	0	90	36.1581920903955	36.241610738255	19	0.633391676060855	2	5	5	NaN	1	5	0.0233821743229072	0	1	NaN	309	5	57	2	120	220	320	NaN	520	0.259615073446184	2	0	NaN	3364901.2971134	NaN	3364902.2807128	3364902.79720803
80	18	0	0	90	36.1581920903955	36.241610738255	17	0.56671886805445	2	10	4	NaN	2	3	0.0233821743229072	0	1	NaN	310	5	58	2	120	220	320	NaN	520	0.196588921826333	2	1	NaN	3364904.2809043	NaN	3364905.264295	3364905.78083128
80	18	0	0	90	36.1581920903955	36.241610738255	23	0.766737292073667	2	1	5	NaN	1	5	0.0233821743229072	0	1	NaN	311	5	59	2	120	220	320	NaN	520	0.38334523467347	2	0	NaN	3364906.7978048	NaN	3364907.781191	3364908.29774977
80	18	0	0	90	36.1581920903955	36.241610738255	20	0.666728080064058	2	11	4	NaN	2	5	0.0233821743229072	0	1	NaN	312	5	60	2	120	220	320	NaN	520	0.562987621873617	2	1	NaN	3364909.4980648	NaN	3364910.4814783	3364910.99801388
80	18	0	0	90	36.1581920903955	36.241610738255	20	0.666728080064058	2	8	2	NaN	2	5	0.0233821743229072	0	1	NaN	313	5	61	2	120	220	320	NaN	520	0.223427173681557	1	0	NaN	3364912.3815704	NaN	3364913.3650778	3364913.88162263
80	18	0	0	90	36.1581920903955	36.241610738255	0	0	1	3	2	NaN	1	5	0.0233821743229072	0	1	NaN	314	5	62	2	110	210	310	NaN	510	0.432423721533269	2	0	NaN	3364915.948687	NaN	3364916.9321042	3364917.44865708
80	18	0	0	90	36.1581920903955	36.241610738255	24	0.80007369607687	2	1	2	NaN	1	5	0.0233821743229072	0	1	NaN	315	5	63	2	120	220	320	NaN	520	1.52216496085748	1	1	NaN	3364918.6989808	NaN	3364919.6823677	3364920.19891824
80	18	0	0	90	36.1581920903955	36.241610738255	25	0.833410100080073	2	2	6	NaN	1	4	0.0233821743229072	0	1	NaN	316	6	1	2	120	220	320	NaN	520	1.88388133887202	2	0	NaN	3364973.7376972	NaN	3364974.721112	3364975.23766346
80	18	0	0	90	36.1581920903955	36.241610738255	9	0.300027636028826	2	3	4	NaN	1	4	0.0233821743229072	0	1	NaN	317	6	2	2	120	220	320	NaN	520	1.06849444331601	2	0	NaN	3364981.1050762	NaN	3364982.0884956	3364982.60504436
80	18	0	0	90	36.1581920903955	36.241610738255	12	0.400036848038435	2	7	1	NaN	2	3	0.0233821743229072	0	1	NaN	318	6	3	2	120	220	320	NaN	520	3.69862049166113	2	1	NaN	3364984.7388778	NaN	3364985.7221973	3364986.23873491
80	18	0	0	90	36.1581920903955	36.241610738255	14	0.466709656044841	2	1	5	NaN	1	3	0.0233821743229072	0	1	NaN	319	6	4	2	120	220	320	NaN	520	4.47700902167708	2	0	NaN	3364993.0562771	NaN	3364994.0397045	3364994.55620908
80	18	0	0	90	36.1581920903955	36.241610738255	9	0.300027636028826	2	8	4	NaN	2	4	0.0233821743229072	0	1	NaN	320	6	5	2	120	220	320	NaN	520	0.204413287341595	2	1	NaN	3364999.856956	NaN	3365000.8403482	3365001.35688431
80	18	0	0	90	36.1581920903955	36.241610738255	6	0.200018424019217	2	4	2	NaN	1	5	0.0233821743229072	0	1	NaN	321	6	6	2	120	220	320	NaN	520	0.102741221431643	2	0	NaN	3365002.3905324	NaN	3365003.3739289	3365003.89046558
80	18	0	0	90	36.1581920903955	36.241610738255	7	0.23335482802242	2	8	3	NaN	2	5	0.0233821743229072	0	1	NaN	322	6	7	2	120	220	320	NaN	520	0.037937025539577	2	1	NaN	3365004.8073714	NaN	3365005.7908737	3365006.30737377
80	18	0	0	90	36.1581920903955	36.241610738255	15	0.500046060048044	2	2	4	NaN	1	3	0.0233821743229072	0	1	NaN	323	6	8	2	120	220	320	NaN	520	0.542950173839927	2	0	NaN	3365007.1743277	NaN	3365008.1577181	3365008.67427153
80	18	0	0	90	36.1581920903955	36.241610738255	23	0.766737292073667	2	8	3	NaN	2	3	0.0233821743229072	0	1	NaN	324	6	9	2	120	220	320	NaN	520	0.23623037384823	2	1	NaN	3365010.0411068	NaN	3365011.0247013	3365011.54121723
80	18	0	0	90	36.1581920903955	36.241610738255	10	0.333364040032029	2	2	1	NaN	1	3	0.0233821743229072	0	1	NaN	325	6	10	2	120	220	320	NaN	520	0.101158973760903	2	0	NaN	3365012.6081876	NaN	3365013.5916206	3365014.10813613
80	18	0	0	90	36.1581920903955	36.241610738255	0	0	1	7	4	NaN	2	4	0.0233821743229072	0	1	NaN	326	6	11	2	110	210	310	NaN	510	0.188050882425159	2	1	NaN	3365015.0249861	NaN	3365016.0085296	3365016.52504632
80	18	0	0	90	36.1581920903955	36.241610738255	11	0.366700444035232	2	4	5	NaN	1	3	0.0233821743229072	0	1	NaN	327	6	12	2	120	220	320	NaN	520	0.0104784737341106	1	1	NaN	3365017.5419509	NaN	3365018.5254092	3365019.04195203
80	18	0	0	90	36.1581920903955	36.241610738255	17	0.56671886805445	2	8	2	NaN	2	4	0.0233821743229072	0	1	NaN	328	6	13	2	120	220	320	NaN	520	0.105782273691148	2	1	NaN	3365019.8755704	NaN	3365020.8589706	3365021.37550993
80	18	0	0	90	36.1581920903955	36.241610738255	18	0.600055272057653	2	12	5	NaN	2	4	0.0233821743229072	0	1	NaN	329	6	14	2	120	220	320	NaN	520	0.106077825650573	1	0	NaN	3365022.6591625	NaN	3365023.6425793	3365024.15912617
80	18	0	0	90	36.1581920903955	36.241610738255	9	0.300027636028826	2	8	1	NaN	2	4	0.0233821743229072	0	1	NaN	330	6	15	2	120	220	320	NaN	520	1.01550367800519	2	1	NaN	3365035.6939018	NaN	3365036.6771964	3365037.19374132
80	18	0	0	90	36.1581920903955	36.241610738255	16	0.533382464051247	2	8	2	NaN	2	3	0.0233821743229072	0	1	NaN	331	6	16	2	120	220	320	NaN	520	0.0738615258596838	1	0	NaN	3365039.0274648	NaN	3365040.0108658	3365040.52741457
80	18	0	0	90	36.1581920903955	36.241610738255	0	0	1	2	4	NaN	1	3	0.0233821743229072	0	1	NaN	332	6	17	2	110	210	310	NaN	510	0.193723173812032	1	1	NaN	3365041.4275946	NaN	3365042.4110835	3365042.92762713
80	18	0	0	90	36.1581920903955	36.241610738255	6	0.200018424019217	2	1	4	NaN	1	3	0.0233821743229072	0	1	NaN	333	6	18	2	120	220	320	NaN	520	0.100940177682787	1	1	NaN	3365043.9446267	NaN	3365044.9280127	3365045.44454812
80	18	0	0	90	36.1581920903955	36.241610738255	8	0.266691232025623	2	4	6	NaN	1	5	0.0233821743229072	0	1	NaN	334	6	19	2	120	220	320	NaN	520	0.0104911737143993	2	0	NaN	3365046.361497	NaN	3365047.3449074	3365047.86145103
80	18	0	0	90	36.1581920903955	36.241610738255	9	0.300027636028826	2	6	5	NaN	1	3	0.0233821743229072	0	1	NaN	335	6	20	2	120	220	320	NaN	520	0.446306673809886	1	1	NaN	3365048.6949828	NaN	3365049.678485	3365050.19500433
80	18	0	0	90	36.1581920903955	36.241610738255	23	0.766737292073667	2	10	6	NaN	2	4	0.0233821743229072	0	1	NaN	336	6	21	2	120	220	320	NaN	520	0.119338173884898	2	1	NaN	3365051.4619052	NaN	3365052.4454367	3365052.96195143
80	18	0	0	90	36.1581920903955	36.241610738255	6	0.200018424019217	2	7	1	NaN	2	5	0.0233821743229072	0	1	NaN	337	6	22	2	120	220	320	NaN	520	0.199421691242605	2	1	NaN	3365056.0458681	NaN	3365057.0292574	3365057.54573881
80	18	0	0	90	36.1581920903955	36.241610738255	10	0.333364040032029	2	9	4	NaN	2	4	0.0233821743229072	0	1	NaN	338	6	23	2	120	220	320	NaN	520	0.37850912194699	2	1	NaN	3365060.5628861	NaN	3365061.5463164	3365062.06283588
80	18	0	0	90	36.1581920903955	36.241610738255	16	0.533382464051247	2	7	2	NaN	2	5	0.0233821743229072	0	1	NaN	339	6	24	2	120	220	320	NaN	520	0.174279778264463	2	1	NaN	3365063.2625075	NaN	3365064.2465903	3365064.76310782
80	18	0	0	90	36.1581920903955	36.241610738255	16	0.533382464051247	2	10	1	NaN	2	5	0.0233821743229072	0	1	NaN	340	6	25	2	120	220	320	NaN	520	0.138603091239929	2	1	NaN	3365065.7466906	NaN	3365066.7301334	3365067.24669711
80	18	0	0	90	36.1581920903955	36.241610738255	15	0.500046060048044	2	5	4	NaN	1	4	0.0233821743229072	0	1	NaN	341	6	26	2	120	220	320	NaN	520	0.391630826052278	1	1	NaN	3365068.2136751	NaN	3365069.1970847	3365069.71359577
80	18	0	0	90	36.1581920903955	36.241610738255	7	0.23335482802242	2	2	6	NaN	1	4	0.0233821743229072	0	1	NaN	342	6	27	2	120	220	320	NaN	520	0.146928634960204	1	1	NaN	3365070.9305806	NaN	3365071.9139896	3365072.43053976
80	18	0	0	90	36.1581920903955	36.241610738255	0	0	1	5	3	NaN	1	3	0.0233821743229072	0	1	NaN	343	6	28	2	110	210	310	NaN	510	1.33563512610272	1	1	NaN	3365073.3974737	NaN	3365074.3808926	3365074.89744447
80	18	0	0	90	36.1581920903955	36.241610738255	18	0.600055272057653	2	3	4	NaN	1	4	0.0233821743229072	0	1	NaN	344	6	29	2	120	220	320	NaN	520	0.212896921206266	2	0	NaN	3365077.0645297	NaN	3365078.0479095	3365078.56446198
80	18	0	0	90	36.1581920903955	36.241610738255	23	0.766737292073667	2	5	2	NaN	1	4	0.0233821743229072	0	1	NaN	345	6	30	2	120	220	320	NaN	520	0.119261582847685	1	1	NaN	3365079.5981145	NaN	3365080.5815311	3365081.09804062
80	18	0	0	90	36.1581920903955	36.241610738255	21	0.700064484067261	2	8	3	NaN	2	3	0.0233821743229072	0	1	NaN	346	6	31	2	120	220	320	NaN	520	0.261166791431606	2	1	NaN	3365082.0482134	NaN	3365083.0317075	3365083.54829691
80	18	0	0	90	36.1581920903955	36.241610738255	19	0.633391676060855	2	9	3	NaN	2	3	0.0233821743229072	0	1	NaN	347	6	32	2	120	220	320	NaN	520	0.131007425952703	2	1	NaN	3365084.6985948	NaN	3365085.6820012	3365086.19854857
80	18	0	0	90	36.1581920903955	36.241610738255	11	0.366700444035232	2	9	4	NaN	2	3	0.0233821743229072	0	1	NaN	348	6	33	2	120	220	320	NaN	520	0.104506587143987	2	1	NaN	3365087.1488539	NaN	3365088.1322486	3365088.64879391
80	18	0	0	90	36.1581920903955	36.241610738255	23	0.766737292073667	2	5	4	NaN	1	3	0.0233821743229072	0	1	NaN	349	6	34	2	120	220	320	NaN	520	0.0190701736137271	1	1	NaN	3365089.8823346	NaN	3365090.8658518	3365091.38238643
80	18	0	0	90	36.1581920903955	36.241610738255	16	0.533382464051247	2	10	3	NaN	2	5	0.0233821743229072	0	1	NaN	350	6	35	2	120	220	320	NaN	520	0.0105187734588981	2	1	NaN	3365092.2159888	NaN	3365093.1994276	3365093.71595613
80	18	0	0	90	36.1581920903955	36.241610738255	13	0.433373252041638	2	1	3	NaN	1	4	0.0233821743229072	0	1	NaN	351	6	36	2	120	220	320	NaN	520	0.488062573596835	2	0	NaN	3365094.5495567	NaN	3365095.5329825	3365096.04950643
80	18	0	0	90	36.1581920903955	36.241610738255	23	0.766737292073667	2	2	6	NaN	1	3	0.0233821743229072	0	1	NaN	352	6	37	2	120	220	320	NaN	520	1.74266503052786	2	0	NaN	3365099.7667383	NaN	3365100.7501432	3365101.26669647
80	18	0	0	90	36.1581920903955	36.241610738255	16	0.533382464051247	2	11	3	NaN	2	5	0.0233821743229072	0	1	NaN	353	6	38	2	120	220	320	NaN	520	0.382587073836476	1	0	NaN	3365106.1506738	NaN	3365107.1341322	3365107.65064593
80	18	0	0	90	36.1581920903955	36.241610738255	20	0.666728080064058	2	4	6	NaN	1	5	0.0233821743229072	0	1	NaN	354	6	39	2	120	220	320	NaN	520	0.316199721302837	2	0	NaN	3365111.2011117	NaN	3365112.1846696	3365112.70114638
80	18	0	0	90	36.1581920903955	36.241610738255	8	0.266691232025623	2	12	2	NaN	2	3	0.0233821743229072	0	1	NaN	355	6	40	2	120	220	320	NaN	520	0.281850926112384	2	1	NaN	3365113.8514765	NaN	3365114.8348714	3365115.35140787
80	18	0	0	90	36.1581920903955	36.241610738255	13	0.433373252041638	2	1	2	NaN	1	5	0.0233821743229072	0	1	NaN	356	6	41	2	120	220	320	NaN	520	0.225080117583275	2	0	NaN	3365116.468387	NaN	3365117.4518002	3365117.96832458
80	18	0	0	90	36.1581920903955	36.241610738255	13	0.433373252041638	2	10	2	NaN	2	3	0.0233821743229072	0	1	NaN	357	6	42	2	120	220	320	NaN	520	0.0988275781273842	1	0	NaN	3365119.018584	NaN	3365120.0020329	3365120.51858102
80	18	0	0	90	36.1581920903955	36.241610738255	24	0.80007369607687	2	11	2	NaN	2	4	0.0233821743229072	0	1	NaN	358	6	43	2	120	220	320	NaN	520	0.081858778372407	2	1	NaN	3365121.4354132	NaN	3365122.4189359	3365122.93548112
80	18	0	0	90	36.1581920903955	36.241610738255	6	0.200018424019217	2	4	5	NaN	1	3	0.0233821743229072	0	1	NaN	359	6	44	2	120	220	320	NaN	520	0.282062873709947	2	0	NaN	3365123.8357787	NaN	3365124.819201	3365125.33571983
80	18	0	0	90	36.1581920903955	36.241610738255	23	0.766737292073667	2	7	6	NaN	2	5	0.0233821743229072	0	1	NaN	360	6	45	2	120	220	320	NaN	520	0.633601426146924	1	0	NaN	3365126.4360444	NaN	3365127.4194699	3365127.93597167
80	18	0	0	90	36.1581920903955	36.241610738255	13	0.433373252041638	2	8	5	NaN	2	3	0.0233821743229072	0	1	NaN	361	6	46	2	120	220	320	NaN	520	0.955458673648536	2	1	NaN	3365129.3863197	NaN	3365130.3697443	3365130.88626123
80	18	0	0	90	36.1581920903955	36.241610738255	7	0.23335482802242	2	9	4	NaN	2	4	0.0233821743229072	0	1	NaN	362	6	47	2	120	220	320	NaN	520	0.280040677636862	2	1	NaN	3365132.6532453	NaN	3365133.6367244	3365134.15326102
80	18	0	0	90	36.1581920903955	36.241610738255	9	0.300027636028826	2	12	1	NaN	2	5	0.0233821743229072	0	1	NaN	363	6	48	2	120	220	320	NaN	520	0.111890825908631	2	1	NaN	3365135.2535695	NaN	3365136.2369819	3365136.75351467
80	18	0	0	90	36.1581920903955	36.241610738255	14	0.466709656044841	2	8	1	NaN	2	3	0.0233821743229072	0	1	NaN	364	6	49	2	120	220	320	NaN	520	0.630699977744371	2	1	NaN	3365137.6871179	NaN	3365138.6705442	3365139.18708262
80	18	0	0	90	36.1581920903955	36.241610738255	18	0.600055272057653	2	11	5	NaN	2	3	0.0233821743229072	0	1	NaN	365	6	50	2	120	220	320	NaN	520	0.518475291319191	2	1	NaN	3365140.8707722	NaN	3365141.8542023	3365142.37072901
80	18	0	0	90	36.1581920903955	36.241610738255	20	0.666728080064058	2	10	2	NaN	2	5	0.0233821743229072	0	1	NaN	366	6	51	2	120	220	320	NaN	520	0.444088978227228	2	1	NaN	3365143.9377633	NaN	3365144.9211648	3365145.43770302
80	18	0	0	90	36.1581920903955	36.241610738255	23	0.766737292073667	2	9	4	NaN	2	4	0.0233821743229072	0	1	NaN	367	6	52	2	120	220	320	NaN	520	0.156011973973364	2	1	NaN	3365146.9213848	NaN	3365147.9047459	3365148.42131953
80	18	0	0	90	36.1581920903955	36.241610738255	8	0.266691232025623	2	2	3	NaN	1	4	0.0233821743229072	0	1	NaN	368	6	53	2	120	220	320	NaN	520	0.096404873766005	2	0	NaN	3365149.4049775	NaN	3365150.3883498	3365150.90489633
80	18	0	0	90	36.1581920903955	36.241610738255	25	0.833410100080073	2	6	1	NaN	1	3	0.0233821743229072	0	1	NaN	369	6	54	2	120	220	320	NaN	520	0.16853327350691	2	0	NaN	3365152.0051485	NaN	3365152.9886182	3365153.50514933
80	18	0	0	90	36.1581920903955	36.241610738255	21	0.700064484067261	2	7	2	NaN	2	4	0.0233821743229072	0	1	NaN	370	6	55	2	120	220	320	NaN	520	0.164829173590988	2	1	NaN	3365154.4888262	NaN	3365155.4721829	3365155.98873273
80	18	0	0	90	36.1581920903955	36.241610738255	18	0.600055272057653	2	1	6	NaN	1	3	0.0233821743229072	0	1	NaN	371	6	56	2	120	220	320	NaN	520	0.161113143898547	2	0	NaN	3365156.9723617	NaN	3365157.955643	3365158.47231546
80	18	0	0	90	36.1581920903955	36.241610738255	6	0.200018424019217	2	3	2	NaN	1	5	0.0233821743229072	0	1	NaN	372	6	57	2	120	220	320	NaN	520	0.269491521641612	1	1	NaN	3365159.455932	NaN	3365160.4393433	3365160.95588158
80	18	0	0	90	36.1581920903955	36.241610738255	19	0.633391676060855	2	12	4	NaN	2	4	0.0233821743229072	0	1	NaN	373	6	58	2	120	220	320	NaN	520	0.343324234709144	2	1	NaN	3365162.4061001	NaN	3365163.3896422	3365163.90617897
80	18	0	0	90	36.1581920903955	36.241610738255	20	0.666728080064058	2	9	2	NaN	2	5	0.0233821743229072	0	1	NaN	374	6	59	2	120	220	320	NaN	520	0.324683339335024	2	1	NaN	3365165.0731772	NaN	3365166.0565787	3365166.57310636
80	18	0	0	90	36.1581920903955	36.241610738255	7	0.23335482802242	2	6	4	NaN	1	3	0.0233821743229072	0	1	NaN	375	6	60	2	120	220	320	NaN	520	0.146034277975559	2	0	NaN	3365167.7234268	NaN	3365168.7068488	3365169.22337072
80	18	0	0	90	36.1581920903955	36.241610738255	12	0.400036848038435	2	10	1	NaN	2	3	0.0233821743229072	0	1	NaN	376	6	61	2	120	220	320	NaN	520	0.119120696093887	2	1	NaN	3365170.1901943	NaN	3365171.1737335	3365171.6902869
80	18	0	0	90	36.1581920903955	36.241610738255	14	0.466709656044841	2	1	4	NaN	1	5	0.0233821743229072	0	1	NaN	377	6	62	2	120	220	320	NaN	520	0.197287025861442	2	0	NaN	3365172.8405944	NaN	3365173.8240012	3365174.34053957
80	18	0	0	90	36.1581920903955	36.241610738255	25	0.833410100080073	2	1	1	NaN	1	5	0.0233821743229072	0	1	NaN	378	6	63	2	120	220	320	NaN	520	0.0879753776825964	1	1	NaN	3365175.3573668	NaN	3365176.3409281	3365176.85746062
80	18	0	0	90	36.1581920903955	36.241610738255	25	0.833410100080073	2	12	3	NaN	2	3	0.0233821743229072	0	1	NaN	379	7	1	2	120	220	320	NaN	520	0.305102047976106	2	1	NaN	3365201.2767292	NaN	3365202.260211	3365202.77668155
80	18	0	0	90	36.1581920903955	36.241610738255	15	0.500046060048044	2	2	5	NaN	1	3	0.0233821743229072	0	1	NaN	380	7	2	2	120	220	320	NaN	520	0.133318273816258	2	0	NaN	3365204.160313	NaN	3365205.1437554	3365205.66027933
80	18	0	0	90	36.1581920903955	36.241610738255	18	0.600055272057653	2	6	4	NaN	1	5	0.0233821743229072	0	1	NaN	381	7	3	2	120	220	320	NaN	520	0.114631291478872	1	1	NaN	3365206.6105522	NaN	3365207.5939794	3365208.11051571
80	18	0	0	90	36.1581920903955	36.241610738255	8	0.266691232025623	2	10	2	NaN	2	4	0.0233821743229072	0	1	NaN	382	7	4	2	120	220	320	NaN	520	0.201409125700593	1	0	NaN	3365209.0440441	NaN	3365210.0275323	3365210.54407947
80	18	0	0	90	36.1581920903955	36.241610738255	15	0.500046060048044	2	3	4	NaN	1	5	0.0233821743229072	0	1	NaN	383	7	5	2	120	220	320	NaN	520	0.252471039071679	2	0	NaN	3365211.560931	NaN	3365212.5444731	3365213.06099736
80	18	0	0	90	36.1581920903955	36.241610738255	21	0.700064484067261	2	11	6	NaN	2	3	0.0233821743229072	0	1	NaN	384	7	6	2	120	220	320	NaN	520	0.0528370435349643	2	1	NaN	3365214.1445334	NaN	3365215.1280416	3365215.64460346
80	18	0	0	90	36.1581920903955	36.241610738255	15	0.500046060048044	2	4	4	NaN	1	5	0.0233821743229072	0	1	NaN	385	7	7	2	120	220	320	NaN	520	0.109406877774745	2	0	NaN	3365216.528215	NaN	3365217.5116272	3365218.02815722
80	18	0	0	90	36.1581920903955	36.241610738255	15	0.500046060048044	2	1	2	NaN	1	5	0.0233821743229072	0	1	NaN	386	7	8	2	120	220	320	NaN	520	0.356213973835111	2	0	NaN	3365218.9617928	NaN	3365219.9451799	3365220.46173193
80	18	0	0	90	36.1581920903955	36.241610738255	21	0.700064484067261	2	12	1	NaN	2	4	0.0233821743229072	0	1	NaN	387	7	9	2	120	220	320	NaN	520	0.0562420305795968	2	1	NaN	3365221.6453818	NaN	3365222.628798	3365223.14532527
80	18	0	0	90	36.1581920903955	36.241610738255	10	0.333364040032029	2	3	1	NaN	1	5	0.0233821743229072	0	1	NaN	388	7	10	2	120	220	320	NaN	520	0.0105019737966359	1	1	NaN	3365224.0956566	NaN	3365225.0790122	3365225.59555883
80	18	0	0	90	36.1581920903955	36.241610738255	10	0.333364040032029	2	2	4	NaN	1	3	0.0233821743229072	0	1	NaN	389	7	11	2	120	220	320	NaN	520	0.256476377602667	1	1	NaN	3365226.4290562	NaN	3365227.4125068	3365227.92913062
80	18	0	0	90	36.1581920903955	36.241610738255	12	0.400036848038435	2	4	4	NaN	1	5	0.0233821743229072	0	1	NaN	390	7	12	2	120	220	320	NaN	520	0.735089121386409	2	0	NaN	3365229.0627582	NaN	3365230.0461651	3365230.56271858
80	18	0	0	90	36.1581920903955	36.241610738255	13	0.433373252041638	2	2	5	NaN	1	5	0.0233821743229072	0	1	NaN	391	7	13	2	120	220	320	NaN	520	0.0104810735210776	2	0	NaN	3365232.3964333	NaN	3365233.3798594	3365233.89638013
80	18	0	0	90	36.1581920903955	36.241610738255	20	0.666728080064058	2	7	1	NaN	2	3	0.0233821743229072	0	1	NaN	392	7	14	2	120	220	320	NaN	520	0.11556697357446	2	1	NaN	3365234.7299203	NaN	3365235.7133812	3365236.22993553
80	18	0	0	90	36.1581920903955	36.241610738255	23	0.766737292073667	2	11	5	NaN	2	5	0.0233821743229072	0	1	NaN	393	7	15	2	120	220	320	NaN	520	0.146253682672977	2	1	NaN	3365237.1636741	NaN	3365238.1469728	3365238.66351922
80	18	0	0	90	36.1581920903955	36.241610738255	21	0.700064484067261	2	1	1	NaN	1	4	0.0233821743229072	0	1	NaN	394	7	16	2	120	220	320	NaN	520	0.0105109694413841	1	1	NaN	3365239.6303566	NaN	3365240.6138887	3365241.13041943
80	18	0	0	90	36.1581920903955	36.241610738255	16	0.533382464051247	2	7	6	NaN	2	5	0.0233821743229072	0	1	NaN	395	7	17	2	120	220	320	NaN	520	0.0575377740897238	2	1	NaN	3365241.964054	NaN	3365242.9474442	3365243.46398123
80	18	0	0	90	36.1581920903955	36.241610738255	7	0.23335482802242	2	1	3	NaN	1	3	0.0233821743229072	0	1	NaN	396	7	18	2	120	220	320	NaN	520	0.0104000349529088	1	1	NaN	3365244.3476173	NaN	3365245.3310126	3365245.84755616
80	18	0	0	90	36.1581920903955	36.241610738255	22	0.733400888070464	2	3	1	NaN	1	5	0.0233821743229072	0	1	NaN	397	7	19	2	120	220	320	NaN	520	0.0604850351810455	2	0	NaN	3365246.6811616	NaN	3365247.6645925	3365248.18112087
80	18	0	0	90	36.1581920903955	36.241610738255	8	0.266691232025623	2	5	2	NaN	1	5	0.0233821743229072	0	1	NaN	398	7	20	2	120	220	320	NaN	520	0.0929543734528124	1	1	NaN	3365249.0647531	NaN	3365250.0481781	3365250.56468723
80	18	0	0	90	36.1581920903955	36.241610738255	25	0.833410100080073	2	5	3	NaN	1	3	0.0233821743229072	0	1	NaN	399	7	21	2	120	220	320	NaN	520	0.0599552257917821	2	0	NaN	3365251.4815325	NaN	3365252.4650576	3365252.98158447
80	18	0	0	90	36.1581920903955	36.241610738255	18	0.600055272057653	2	4	1	NaN	1	4	0.0233821743229072	0	1	NaN	400	7	22	2	120	220	320	NaN	520	0.164409873541445	1	1	NaN	3365253.8652148	NaN	3365254.8486344	3365255.36514983
80	18	0	0	90	36.1581920903955	36.241610738255	23	0.766737292073667	2	10	4	NaN	2	5	0.0233821743229072	0	1	NaN	401	7	23	2	120	220	320	NaN	520	0.0490269348956645	2	1	NaN	3365256.3488095	NaN	3365257.3321824	3365257.84872717
80	18	0	0	90	36.1581920903955	36.241610738255	7	0.23335482802242	2	1	6	NaN	1	4	0.0233821743229072	0	1	NaN	402	7	24	2	120	220	320	NaN	520	0.0578821352683008	2	0	NaN	3365258.7157661	NaN	3365259.6990979	3365260.21563936
80	18	0	0	90	36.1581920903955	36.241610738255	12	0.400036848038435	2	1	5	NaN	1	4	0.0233821743229072	0	1	NaN	403	7	25	2	120	220	320	NaN	520	0.0104593257419765	2	0	NaN	3365261.0991426	NaN	3365262.0826439	3365262.59918977
80	18	0	0	90	36.1581920903955	36.241610738255	7	0.23335482802242	2	2	3	NaN	1	5	0.0233821743229072	0	1	NaN	404	7	26	2	120	220	320	NaN	520	0.108943043276668	2	0	NaN	3365263.4328264	NaN	3365264.4162214	3365264.93276996
80	18	0	0	90	36.1581920903955	36.241610738255	19	0.633391676060855	2	4	3	NaN	1	5	0.0233821743229072	0	1	NaN	405	7	27	2	120	220	320	NaN	520	0.123240325599909	2	0	NaN	3365265.8664127	NaN	3365266.8497999	3365267.36633377
80	18	0	0	90	36.1581920903955	36.241610738255	17	0.56671886805445	2	7	3	NaN	2	4	0.0233821743229072	0	1	NaN	406	7	28	2	120	220	320	NaN	520	0.105008073616773	2	1	NaN	3365268.3166537	NaN	3365269.3000509	3365269.81657413
80	18	0	0	90	36.1581920903955	36.241610738255	13	0.433373252041638	2	5	6	NaN	1	4	0.0233821743229072	0	1	NaN	407	7	29	2	120	220	320	NaN	520	0.0560823394916952	2	0	NaN	3365270.733575	NaN	3365271.7169439	3365272.23348386
80	18	0	0	90	36.1581920903955	36.241610738255	16	0.533382464051247	2	1	2	NaN	1	3	0.0233821743229072	0	1	NaN	408	7	30	2	120	220	320	NaN	520	0.010458926204592	2	0	NaN	3365273.1170867	NaN	3365274.1004988	3365274.61704207
80	18	0	0	90	36.1581920903955	36.241610738255	8	0.266691232025623	2	8	3	NaN	2	4	0.0233821743229072	0	1	NaN	409	7	31	2	120	220	320	NaN	520	0.0670318738557398	2	1	NaN	3365275.4506714	NaN	3365276.4340752	3365276.95062233
80	18	0	0	90	36.1581920903955	36.241610738255	0	0	1	7	2	NaN	2	3	0.0233821743229072	0	1	NaN	410	7	32	2	110	210	310	NaN	510	0.114817077759653	2	1	NaN	3365277.8508899	NaN	3365278.8343197	3365279.35084492
80	18	0	0	90	36.1581920903955	36.241610738255	21	0.700064484067261	2	5	6	NaN	1	5	0.0233821743229072	0	1	NaN	411	7	33	2	120	220	320	NaN	520	0.0104617257602513	1	1	NaN	3365280.2844858	NaN	3365281.2678871	3365281.78441897
80	18	0	0	90	36.1581920903955	36.241610738255	8	0.266691232025623	2	9	6	NaN	2	3	0.0233821743229072	0	1	NaN	412	7	34	2	120	220	320	NaN	520	0.0103396433405578	2	1	NaN	3365283.8181369	NaN	3365284.8015481	3365285.31809966
80	18	0	0	90	36.1581920903955	36.241610738255	22	0.733400888070464	2	3	2	NaN	1	3	0.0233821743229072	0	1	NaN	413	7	35	2	120	220	320	NaN	520	0.139469873625785	2	0	NaN	3365286.218523	NaN	3365287.2017867	3365287.71834093
80	18	0	0	90	36.1581920903955	36.241610738255	0	0	1	10	1	NaN	2	3	0.0233821743229072	0	1	NaN	414	7	36	2	110	210	310	NaN	510	0.0491214911453426	2	1	NaN	3365288.6686349	NaN	3365289.6519384	3365290.16858241
80	18	0	0	90	36.1581920903955	36.241610738255	0	0	1	11	3	NaN	2	4	0.0233821743229072	0	1	NaN	415	7	37	2	110	210	310	NaN	510	0.169596387073398	2	1	NaN	3365291.05208	NaN	3365292.0356245	3365292.55213601
80	18	0	0	90	36.1581920903955	36.241610738255	15	0.500046060048044	2	7	3	NaN	2	4	0.0233821743229072	0	1	NaN	416	7	38	2	120	220	320	NaN	520	0.0578230260871351	2	1	NaN	3365293.8357838	NaN	3365294.8191797	3365295.33575037
80	18	0	0	90	36.1581920903955	36.241610738255	7	0.23335482802242	2	9	6	NaN	2	4	0.0233821743229072	0	1	NaN	417	7	39	2	120	220	320	NaN	520	0.240232821553946	2	1	NaN	3365296.6693808	NaN	3365297.6528193	3365298.16934898
80	18	0	0	90	36.1581920903955	36.241610738255	17	0.56671886805445	2	11	4	NaN	2	3	0.0233821743229072	0	1	NaN	418	7	40	2	120	220	320	NaN	520	0.141947325784713	2	1	NaN	3365299.9196729	NaN	3365300.9031435	3365301.41967097
80	18	0	0	90	36.1581920903955	36.241610738255	25	0.833410100080073	2	1	5	NaN	1	4	0.0233821743229072	0	1	NaN	419	7	41	2	120	220	320	NaN	520	0.17911041714251	2	0	NaN	3365302.3866379	NaN	3365303.3700313	3365303.88657548
80	18	0	0	90	36.1581920903955	36.241610738255	10	0.333364040032029	2	12	5	NaN	2	4	0.0233821743229072	0	1	NaN	420	7	42	2	120	220	320	NaN	520	0.286675169598311	2	1	NaN	3365304.8868945	NaN	3365305.8703055	3365306.38682333
80	18	0	0	90	36.1581920903955	36.241610738255	9	0.300027636028826	2	11	6	NaN	2	5	0.0233821743229072	0	1	NaN	421	7	43	2	120	220	320	NaN	520	0.0619995258748531	2	1	NaN	3365307.5037973	NaN	3365308.4872065	3365309.00374697
80	18	0	0	90	36.1581920903955	36.241610738255	13	0.433373252041638	2	11	6	NaN	2	5	0.0233821743229072	0	1	NaN	422	7	44	2	120	220	320	NaN	520	0.094406773801893	2	1	NaN	3365309.8872575	NaN	3365310.8707853	3365311.38731433
80	18	0	0	90	36.1581920903955	36.241610738255	18	0.600055272057653	2	9	5	NaN	2	4	0.0233821743229072	0	1	NaN	423	7	45	2	120	220	320	NaN	520	0.0373996733687818	2	1	NaN	3365312.3042929	NaN	3365313.2876842	3365313.80422643
80	18	0	0	90	36.1581920903955	36.241610738255	15	0.500046060048044	2	10	3	NaN	2	3	0.0233821743229072	0	1	NaN	424	7	46	2	120	220	320	NaN	520	0.734678435139358	2	1	NaN	3365314.6711715	NaN	3365315.6545643	3365316.17112886
80	18	0	0	90	36.1581920903955	36.241610738255	9	0.300027636028826	2	3	2	NaN	1	5	0.0233821743229072	0	1	NaN	425	7	47	2	120	220	320	NaN	520	0.0843132911249995	1	1	NaN	3365317.7215612	NaN	3365318.7049002	3365319.22143001
80	18	0	0	90	36.1581920903955	36.241610738255	12	0.400036848038435	2	10	4	NaN	2	4	0.0233821743229072	0	1	NaN	426	7	48	2	120	220	320	NaN	520	0.151228073984385	2	1	NaN	3365320.8383812	NaN	3365321.8218723	3365322.33838963
80	18	0	0	90	36.1581920903955	36.241610738255	24	0.80007369607687	2	3	2	NaN	1	5	0.0233821743229072	0	1	NaN	427	7	49	2	120	220	320	NaN	520	0.147576795425266	1	1	NaN	3365323.3220315	NaN	3365324.3054251	3365324.8219873
80	18	0	0	90	36.1581920903955	36.241610738255	24	0.80007369607687	2	10	3	NaN	2	4	0.0233821743229072	0	1	NaN	428	7	50	2	120	220	320	NaN	520	0.010519121773541	2	1	NaN	3365325.9389512	NaN	3365326.922363	3365327.43889988
80	18	0	0	90	36.1581920903955	36.241610738255	14	0.466709656044841	2	7	5	NaN	2	5	0.0233821743229072	0	1	NaN	429	7	51	2	120	220	320	NaN	520	0.0104792737402022	2	1	NaN	3365330.4227509	NaN	3365331.4061607	3365331.92266633
80	18	0	0	90	36.1581920903955	36.241610738255	12	0.400036848038435	2	12	4	NaN	2	5	0.0233821743229072	0	1	NaN	430	7	52	2	120	220	320	NaN	520	0.709642177913338	2	1	NaN	3365333.8563702	NaN	3365334.8398237	3365335.35635952
80	18	0	0	90	36.1581920903955	36.241610738255	6	0.200018424019217	2	7	2	NaN	2	3	0.0233821743229072	0	1	NaN	431	7	53	2	120	220	320	NaN	520	0.0104919215664268	2	1	NaN	3365336.890039	NaN	3365337.8734358	3365338.38996368
80	18	0	0	90	36.1581920903955	36.241610738255	20	0.666728080064058	2	7	6	NaN	2	3	0.0233821743229072	0	1	NaN	432	7	54	2	120	220	320	NaN	520	0.150139973964542	2	1	NaN	3365339.2236076	NaN	3365340.2069588	3365340.72352973
80	18	0	0	90	36.1581920903955	36.241610738255	14	0.466709656044841	2	2	3	NaN	1	3	0.0233821743229072	0	1	NaN	433	7	55	2	120	220	320	NaN	520	0.467301630415022	2	0	NaN	3365341.6903794	NaN	3365342.673934	3365343.19044127
80	18	0	0	90	36.1581920903955	36.241610738255	8	0.266691232025623	2	11	5	NaN	2	5	0.0233821743229072	0	1	NaN	434	7	56	2	120	220	320	NaN	520	0.187768725678325	2	1	NaN	3365344.4741133	NaN	3365345.4575442	3365345.97405127
80	18	0	0	90	36.1581920903955	36.241610738255	6	0.200018424019217	2	11	2	NaN	2	5	0.0233821743229072	0	1	NaN	435	7	57	2	120	220	320	NaN	520	0.11151082161814	2	1	NaN	3365346.9743395	NaN	3365347.9577573	3365348.47429398
80	18	0	0	90	36.1581920903955	36.241610738255	19	0.633391676060855	2	3	6	NaN	1	4	0.0233821743229072	0	1	NaN	436	7	58	2	120	220	320	NaN	520	0.453754873480648	2	0	NaN	3365349.4079349	NaN	3365350.3913686	3365350.90786253
80	18	0	0	90	36.1581920903955	36.241610738255	6	0.200018424019217	2	2	2	NaN	1	3	0.0233821743229072	0	1	NaN	437	7	59	2	120	220	320	NaN	520	1.25446947384626	2	0	NaN	3365352.1915461	NaN	3365353.1749532	3365353.69147563
80	18	0	0	90	36.1581920903955	36.241610738255	7	0.23335482802242	2	6	6	NaN	1	4	0.0233821743229072	0	1	NaN	438	7	60	2	120	220	320	NaN	520	0.24691822566092	2	0	NaN	3365355.7751748	NaN	3365356.7586374	3365357.27515327
80	18	0	0	90	36.1581920903955	36.241610738255	21	0.700064484067261	2	9	2	NaN	2	4	0.0233821743229072	0	1	NaN	439	7	61	2	120	220	320	NaN	520	0.640000339597464	2	1	NaN	3365358.3420003	NaN	3365359.3255363	3365359.84207826
80	18	0	0	90	36.1581920903955	36.241610738255	22	0.733400888070464	2	10	6	NaN	2	5	0.0233821743229072	0	1	NaN	440	7	62	2	120	220	320	NaN	520	0.112685039173812	2	1	NaN	3365361.309113	NaN	3365362.2924941	3365362.80904106
80	18	0	0	90	36.1581920903955	36.241610738255	13	0.433373252041638	2	4	1	NaN	1	3	0.0233821743229072	0	1	NaN	441	7	63	2	120	220	320	NaN	520	0.297788538970053	2	0	NaN	3365364.2760533	NaN	3365365.2594186	3365365.77599716
80	18	0	0	90	36.1581920903955	36.241610738255	0	0	1	2	2	NaN	1	3	0.0233821743229072	0	1	NaN	442	8	1	2	110	210	310	NaN	510	0.149766769260168	1	1	NaN	3365411.2638866	NaN	3365412.2474213	3365412.76393123
80	18	0	0	90	36.1581920903955	36.241610738255	10	0.333364040032029	2	6	3	NaN	1	5	0.0233821743229072	0	1	NaN	443	8	2	2	120	220	320	NaN	520	0.403001873753965	1	1	NaN	3365413.7309057	NaN	3365414.7143104	3365415.23084493
80	18	0	0	90	36.1581920903955	36.241610738255	11	0.366700444035232	2	5	6	NaN	1	3	0.0233821743229072	0	1	NaN	444	8	3	2	120	220	320	NaN	520	0.209321921691298	2	0	NaN	3365418.1646628	NaN	3365419.1480971	3365419.66460768
80	18	0	0	90	36.1581920903955	36.241610738255	15	0.500046060048044	2	12	1	NaN	2	5	0.0233821743229072	0	1	NaN	445	8	4	2	120	220	320	NaN	520	0.708877725992352	2	1	NaN	3365421.4648296	NaN	3365422.4484209	3365422.96494607
80	18	0	0	90	36.1581920903955	36.241610738255	20	0.666728080064058	2	3	3	NaN	1	3	0.0233821743229072	0	1	NaN	446	8	5	2	120	220	320	NaN	520	0.288617582991719	2	0	NaN	3365425.5653849	NaN	3365426.5488105	3365427.06533972
80	18	0	0	90	36.1581920903955	36.241610738255	13	0.433373252041638	2	10	6	NaN	2	4	0.0233821743229072	0	1	NaN	447	8	6	2	120	220	320	NaN	520	0.244895269162953	2	1	NaN	3365428.849049	NaN	3365429.8324676	3365430.34899143
80	18	0	0	90	36.1581920903955	36.241610738255	6	0.200018424019217	2	9	1	NaN	2	4	0.0233821743229072	0	1	NaN	448	8	7	2	120	220	320	NaN	520	0.597827891353518	2	1	NaN	3365431.4158312	NaN	3365432.3993566	3365432.91592251
80	18	0	0	90	36.1581920903955	36.241610738255	19	0.633391676060855	2	6	4	NaN	1	5	0.0233821743229072	0	1	NaN	449	8	8	2	120	220	320	NaN	520	0.0370096736587584	2	0	NaN	3365434.4329393	NaN	3365435.4163774	3365435.93287593
80	18	0	0	90	36.1581920903955	36.241610738255	14	0.466709656044841	2	9	4	NaN	2	4	0.0233821743229072	0	1	NaN	450	8	9	2	120	220	320	NaN	520	1.14389776950702	1	0	NaN	3365437.1500176	NaN	3365438.1332377	3365438.64980713
80	18	0	0	90	36.1581920903955	36.241610738255	13	0.433373252041638	2	3	5	NaN	1	3	0.0233821743229072	0	1	NaN	451	8	10	2	120	220	320	NaN	520	0.142227121628821	2	0	NaN	3365440.7836261	NaN	3365441.7668793	3365442.28349798
80	18	0	0	90	36.1581920903955	36.241610738255	6	0.200018424019217	2	6	6	NaN	1	3	0.0233821743229072	0	1	NaN	452	8	11	2	120	220	320	NaN	520	0.259616121649742	1	1	NaN	3365443.2504577	NaN	3365444.2338677	3365444.75041378
80	18	0	0	90	36.1581920903955	36.241610738255	21	0.700064484067261	2	12	3	NaN	2	3	0.0233821743229072	0	1	NaN	453	8	12	2	120	220	320	NaN	520	0.0510702696628869	2	1	NaN	3365446.050707	NaN	3365447.0340039	3365447.55068153
80	18	0	0	90	36.1581920903955	36.241610738255	20	0.666728080064058	2	3	5	NaN	1	5	0.0233821743229072	0	1	NaN	454	8	13	2	120	220	320	NaN	520	0.0682717738673091	1	1	NaN	3365448.4176346	NaN	3365449.4010564	3365449.91758993
80	18	0	0	90	36.1581920903955	36.241610738255	19	0.633391676060855	2	10	1	NaN	2	3	0.0233821743229072	0	1	NaN	455	8	14	2	120	220	320	NaN	520	0.195355621632189	2	1	NaN	3365451.6345967	NaN	3365452.6180039	3365453.13456398
80	18	0	0	90	36.1581920903955	36.241610738255	0	0	1	6	4	NaN	1	3	0.0233821743229072	0	1	NaN	456	8	15	2	110	210	310	NaN	510	0.0509668691083789	2	0	NaN	3365454.2348744	NaN	3365455.2182788	3365455.73482093
80	18	0	0	90	36.1581920903955	36.241610738255	22	0.733400888070464	2	7	3	NaN	2	3	0.0233821743229072	0	1	NaN	457	8	16	2	120	220	320	NaN	520	0.212747821584344	2	1	NaN	3365456.9851593	NaN	3365457.9685661	3365458.48508788
