subjno	age	gender	isPractice	viewdist	CmToPixX	CmToPixY	SOA_frm	SOA_time	targNum	targID	targExample	targRace	targGender	firstTargPos	contrast	familiarity	curr_staircase	iStair	TrialNum	BlockNum	blktrl	sessionNum	TC_FIXATION	TC_RSVP_START	TC_RSVP_END	TC_BLANK	TC_RESPONSE_ONSET	RT2afc	resp_2afc	acc	RSVPOnsetVBL	RSVPOnsetTime	RSVPOffsetVBL	RSVPOffsetTime	startrt_2afc
50	22	0	0	90	36.1581920903955	36.241610738255	8	0.266684287935495	2	11	5	NaN	2	5	0.583423467416068	1	1	NaN	1	1	1	1	121	221	321	NaN	521	1.20668802689761	2	1	NaN	2160996.2425808	NaN	2160997.2259091	2160997.75899927
50	22	0	0	90	36.1581920903955	36.241610738255	10	0.333355359919369	2	7	1	NaN	2	5	0.583423467416068	1	1	NaN	2	1	2	1	121	221	321	NaN	521	2.35018062684685	2	1	NaN	2161000.0428954	NaN	2161001.0262145	2161001.55937207
50	22	0	0	90	36.1581920903955	36.241610738255	23	0.766717327814549	2	11	3	NaN	2	5	0.583423467416068	1	1	NaN	3	1	3	1	121	221	321	NaN	521	8.41936488961801	1	0	NaN	2161004.7265527	NaN	2161005.7099478	2161006.22649721
50	22	0	0	90	36.1581920903955	36.241610738255	23	0.766717327814549	2	5	1	NaN	1	3	0.583423467416068	1	1	NaN	4	1	4	1	121	221	321	NaN	521	2.57209182158113	1	1	NaN	2161015.4776087	NaN	2161016.4609762	2161016.97755138
50	22	0	0	90	36.1581920903955	36.241610738255	17	0.566704111862928	2	3	4	NaN	1	3	0.583423467416068	1	1	NaN	5	1	5	1	121	221	321	NaN	521	2.54441032186151	2	0	NaN	2161020.3614246	NaN	2161021.3447994	2161021.86136798
50	22	0	0	90	36.1581920903955	36.241610738255	10	0.333355359919369	2	10	5	NaN	2	5	0.583423467416068	1	1	NaN	6	1	6	1	121	221	321	NaN	521	1.0608437214978	2	1	NaN	2161025.2285582	NaN	2161026.2119593	2161026.72851728
50	22	0	0	90	36.1581920903955	36.241610738255	14	0.466697503887117	2	7	2	NaN	2	3	0.583423467416068	1	1	NaN	7	1	7	1	121	221	321	NaN	521	1.40499112196267	2	1	NaN	2161028.6288961	NaN	2161029.6123462	2161030.12884808
50	22	0	0	90	36.1581920903955	36.241610738255	13	0.43336196789518	2	11	4	NaN	2	5	0.583423467416068	1	1	NaN	8	1	8	1	121	221	321	NaN	521	1.59165453677997	2	1	NaN	2161032.3459239	NaN	2161033.3293782	2161033.84588006
50	22	0	0	90	36.1581920903955	36.241610738255	19	0.633375183846801	2	1	3	NaN	1	5	0.583423467416068	1	1	NaN	9	1	9	1	121	221	321	NaN	521	1.25848536891863	1	1	NaN	2161036.2629826	NaN	2161037.2463834	2161037.76292323
50	22	0	0	90	36.1581920903955	36.241610738255	15	0.500033039879054	2	2	6	NaN	1	3	0.583423467416068	1	1	NaN	10	1	10	1	121	221	321	NaN	521	4.38130241632462	1	1	NaN	2161040.1799089	NaN	2161041.163424	2161041.67997538
50	22	0	0	90	36.1581920903955	36.241610738255	14	0.466697503887117	2	8	3	NaN	2	4	0.583423467416068	1	1	NaN	11	1	11	1	121	221	321	NaN	521	0.400891621597111	2	1	NaN	2161046.8807208	NaN	2161047.8640874	2161048.38066268
50	22	0	0	90	36.1581920903955	36.241610738255	16	0.533368575870991	2	1	4	NaN	1	4	0.583423467416068	1	1	NaN	12	1	12	1	121	221	321	NaN	521	0.316026874352247	1	1	NaN	2161049.5976139	NaN	2161050.5810005	2161051.09757473
50	22	0	0	90	36.1581920903955	36.241610738255	12	0.400026431903243	2	1	1	NaN	1	4	0.583423467416068	1	1	NaN	13	1	13	1	121	221	321	NaN	521	2.98982776887715	1	1	NaN	2161052.5478866	NaN	2161053.5313178	2161054.04785893
50	22	0	0	90	36.1581920903955	36.241610738255	19	0.633375183846801	2	4	2	NaN	1	4	0.583423467416068	1	1	NaN	14	1	14	1	121	221	321	NaN	521	0.464589942246675	2	0	NaN	2161057.8651093	NaN	2161058.8484831	2161059.36505346
50	22	0	0	90	36.1581920903955	36.241610738255	16	0.533368575870991	2	9	1	NaN	2	5	0.583423467416068	1	1	NaN	15	1	15	1	121	221	321	NaN	521	0.328846121672541	2	1	NaN	2161060.6485667	NaN	2161061.6321097	2161062.14865768
50	22	0	0	90	36.1581920903955	36.241610738255	17	0.566704111862928	2	1	6	NaN	1	3	0.583423467416068	1	1	NaN	16	1	16	1	121	221	321	NaN	521	0.102820021566004	1	1	NaN	2161063.2989738	NaN	2161064.2823611	2161064.79891908
50	22	0	0	90	36.1581920903955	36.241610738255	19	0.633375183846801	2	5	5	NaN	1	4	0.583423467416068	1	1	NaN	17	1	17	1	121	221	321	NaN	521	1.60237722145393	1	1	NaN	2161065.7992061	NaN	2161066.7826278	2161067.29917418
50	22	0	0	90	36.1581920903955	36.241610738255	12	0.400026431903243	2	7	6	NaN	2	5	0.583423467416068	1	1	NaN	18	1	18	1	121	221	321	NaN	521	2.63695712154731	1	0	NaN	2161069.7329485	NaN	2161070.7163426	2161071.23288328
50	22	0	0	90	36.1581920903955	36.241610738255	7	0.233348751943558	2	9	4	NaN	2	3	0.583423467416068	1	1	NaN	19	1	19	1	121	221	321	NaN	521	0.286250921431929	2	1	NaN	2161074.6834172	NaN	2161075.6667179	2161076.18337848
50	22	0	0	90	36.1581920903955	36.241610738255	9	0.300019823927432	2	2	3	NaN	1	3	0.583423467416068	1	1	NaN	20	1	20	1	121	221	321	NaN	521	1.03820922132581	1	1	NaN	2161077.2836759	NaN	2161078.2670858	2161078.78362678
50	22	0	0	90	36.1581920903955	36.241610738255	21	0.700046255830675	2	3	4	NaN	1	5	0.583423467416068	1	1	NaN	21	1	21	1	121	221	321	NaN	521	0.383212221320719	1	1	NaN	2161080.6340086	NaN	2161081.6174181	2161082.13396488
50	22	0	0	90	36.1581920903955	36.241610738255	8	0.266684287935495	2	11	4	NaN	2	5	0.583423467416068	1	1	NaN	22	1	22	1	121	221	321	NaN	521	2.34730442147702	2	1	NaN	2161083.3341824	NaN	2161084.3176736	2161084.83422568
50	22	0	0	90	36.1581920903955	36.241610738255	20	0.666710719838738	2	9	2	NaN	2	5	0.583423467416068	1	1	NaN	23	1	23	1	121	221	321	NaN	521	0.560378621798009	2	1	NaN	2161088.0012796	NaN	2161088.9847985	2161089.50136078
50	22	0	0	90	36.1581920903955	36.241610738255	14	0.466697503887117	2	8	2	NaN	2	5	0.583423467416068	1	1	NaN	24	1	24	1	121	221	321	NaN	521	0.476927479729056	2	1	NaN	2161090.8850326	NaN	2161091.8684179	2161092.38497512
50	22	0	0	90	36.1581920903955	36.241610738255	22	0.733381791822612	2	2	6	NaN	1	4	0.583423467416068	1	1	NaN	25	1	25	1	121	221	321	NaN	521	2.11672572186217	2	0	NaN	2161093.6852923	NaN	2161094.668682	2161095.18525248
50	22	0	0	90	36.1581920903955	36.241610738255	12	0.400026431903243	2	10	3	NaN	2	4	0.583423467416068	1	1	NaN	26	1	26	1	121	221	321	NaN	521	0.586419568862766	2	1	NaN	2161098.1357254	NaN	2161099.119136	2161099.63568633
50	22	0	0	90	36.1581920903955	36.241610738255	7	0.233348751943558	2	2	1	NaN	1	5	0.583423467416068	1	1	NaN	27	1	27	1	121	221	321	NaN	521	1.51747812144458	1	1	NaN	2161101.0360364	NaN	2161102.0194693	2161102.53597618
50	22	0	0	90	36.1581920903955	36.241610738255	16	0.533368575870991	2	4	3	NaN	1	3	0.583423467416068	1	1	NaN	28	1	28	1	121	221	321	NaN	521	0.428204121533781	1	1	NaN	2161104.8697339	NaN	2161105.8531297	2161106.36968098
50	22	0	0	90	36.1581920903955	36.241610738255	25	0.833388399798423	2	3	5	NaN	1	3	0.583423467416068	1	1	NaN	29	1	29	1	121	221	321	NaN	521	2.43762312177569	2	0	NaN	2161107.6199865	NaN	2161108.6033023	2161109.11995328
50	22	0	0	90	36.1581920903955	36.241610738255	0	0	1	2	6	NaN	1	4	0.583423467416068	1	1	NaN	30	1	30	1	111	211	311	NaN	511	2.32717332150787	2	0	NaN	2161112.3704502	NaN	2161113.3538569	2161113.87042188
50	22	0	0	90	36.1581920903955	36.241610738255	16	0.533368575870991	2	8	5	NaN	2	3	0.583423467416068	1	1	NaN	31	1	31	1	121	221	321	NaN	521	0.661062021739781	2	1	NaN	2161117.0209205	NaN	2161118.0043486	2161118.52087718
50	22	0	0	90	36.1581920903955	36.241610738255	17	0.566704111862928	2	12	1	NaN	2	4	0.583423467416068	1	1	NaN	32	1	32	1	121	221	321	NaN	521	0.877363421488553	2	1	NaN	2161120.0045542	NaN	2161120.9879737	2161121.50449998
50	22	0	0	90	36.1581920903955	36.241610738255	8	0.266684287935495	2	9	4	NaN	2	4	0.583423467416068	1	1	NaN	33	1	33	1	121	221	321	NaN	521	0.852991769090295	2	1	NaN	2161123.2048707	NaN	2161124.1882447	2161124.70481153
50	22	0	0	90	36.1581920903955	36.241610738255	25	0.833388399798423	2	10	5	NaN	2	3	0.583423467416068	1	1	NaN	34	1	34	1	121	221	321	NaN	521	0.566303374245763	2	1	NaN	2161126.3718528	NaN	2161127.3552363	2161127.87180113
50	22	0	0	90	36.1581920903955	36.241610738255	16	0.533368575870991	2	10	4	NaN	2	4	0.583423467416068	1	1	NaN	35	1	35	1	121	221	321	NaN	521	0.314215621910989	2	1	NaN	2161129.2554569	NaN	2161130.238913	2161130.75541628
50	22	0	0	90	36.1581920903955	36.241610738255	16	0.533368575870991	2	2	2	NaN	1	3	0.583423467416068	1	1	NaN	36	1	36	1	121	221	321	NaN	521	0.177096968982369	1	1	NaN	2161131.8889066	NaN	2161132.8724751	2161133.38901653
50	22	0	0	90	36.1581920903955	36.241610738255	7	0.233348751943558	2	7	3	NaN	2	5	0.583423467416068	1	1	NaN	37	1	37	1	121	221	321	NaN	521	1.6924686213024	2	1	NaN	2161134.389285	NaN	2161135.3726905	2161135.88925188
50	22	0	0	90	36.1581920903955	36.241610738255	21	0.700046255830675	2	8	2	NaN	2	4	0.583423467416068	1	1	NaN	38	1	38	1	121	221	321	NaN	521	0.396029621828347	2	1	NaN	2161138.3895477	NaN	2161139.3731057	2161139.88964188
50	22	0	0	90	36.1581920903955	36.241610738255	23	0.766717327814549	2	6	4	NaN	1	5	0.583423467416068	1	1	NaN	39	1	39	1	121	221	321	NaN	521	0.847354421857744	1	1	NaN	2161141.1066161	NaN	2161142.0900263	2161142.60658128
50	22	0	0	90	36.1581920903955	36.241610738255	10	0.333355359919369	2	11	1	NaN	2	4	0.583423467416068	1	1	NaN	40	1	40	1	121	221	321	NaN	521	1.12814886868	1	0	NaN	2161144.2736053	NaN	2161145.2570027	2161145.77355273
50	22	0	0	90	36.1581920903955	36.241610738255	14	0.466697503887117	2	1	1	NaN	1	5	0.583423467416068	1	1	NaN	41	1	41	1	121	221	321	NaN	521	0.577276221476495	1	1	NaN	2161147.8406256	NaN	2161148.8240098	2161149.34057458
50	22	0	0	90	36.1581920903955	36.241610738255	14	0.466697503887117	2	4	2	NaN	1	4	0.583423467416068	1	1	NaN	42	1	42	1	121	221	321	NaN	521	1.05319032166153	1	1	NaN	2161150.7409099	NaN	2161151.7243094	2161152.24085758
50	22	0	0	90	36.1581920903955	36.241610738255	18	0.600039647854865	2	2	2	NaN	1	3	0.583423467416068	1	1	NaN	43	1	43	1	121	221	321	NaN	521	0.574118921533227	1	1	NaN	2161154.1078937	NaN	2161155.0913195	2161155.60785568
50	22	0	0	90	36.1581920903955	36.241610738255	22	0.733381791822612	2	12	2	NaN	2	3	0.583423467416068	1	1	NaN	44	1	44	1	121	221	321	NaN	521	1.3065553214401	2	1	NaN	2161156.9915161	NaN	2161157.9749059	2161158.49147478
50	22	0	0	90	36.1581920903955	36.241610738255	9	0.300019823927432	2	9	3	NaN	2	4	0.583423467416068	1	1	NaN	45	1	45	1	121	221	321	NaN	521	0.825363021809608	2	1	NaN	2161160.6086459	NaN	2161161.5919446	2161162.10849888
50	22	0	0	90	36.1581920903955	36.241610738255	24	0.800052863806486	2	10	3	NaN	2	5	0.583423467416068	1	1	NaN	46	1	46	1	121	221	321	NaN	521	0.0677045220509171	2	1	NaN	2161163.7421804	NaN	2161164.7255709	2161165.24214458
50	22	0	0	90	36.1581920903955	36.241610738255	19	0.633375183846801	2	1	6	NaN	1	5	0.583423467416068	1	1	NaN	47	1	47	1	121	221	321	NaN	521	0.66000603698194	1	1	NaN	2161166.1257358	NaN	2161167.1091461	2161167.62571106
50	22	0	0	90	36.1581920903955	36.241610738255	11	0.366690895911306	2	10	2	NaN	2	5	0.583423467416068	1	1	NaN	48	1	48	1	121	221	321	NaN	521	0.0103804743848741	2	1	NaN	2161169.092706	NaN	2161170.0760949	2161170.59267123
50	22	0	0	90	36.1581920903955	36.241610738255	24	0.800052863806486	2	1	2	NaN	1	3	0.583423467416068	1	1	NaN	49	1	49	1	121	221	321	NaN	521	0.0231386693194509	1	1	NaN	2161171.4262739	NaN	2161172.4097411	2161172.92622033
50	22	0	0	90	36.1581920903955	36.241610738255	13	0.43336196789518	2	9	4	NaN	2	5	0.583423467416068	1	1	NaN	50	1	50	1	121	221	321	NaN	521	0.35394852142781	2	1	NaN	2161173.7597156	NaN	2161174.7432271	2161175.25978498
50	22	0	0	90	36.1581920903955	36.241610738255	23	0.766717327814549	2	3	3	NaN	1	4	0.583423467416068	1	1	NaN	51	1	51	1	121	221	321	NaN	521	0.479324369225651	1	1	NaN	2161176.4267827	NaN	2161177.4101541	2161177.92671513
50	22	0	0	90	36.1581920903955	36.241610738255	19	0.633375183846801	2	4	2	NaN	1	4	0.583423467416068	1	1	NaN	52	1	52	1	121	221	321	NaN	521	0.638831769116223	1	1	NaN	2161179.2270463	NaN	2161180.2104251	2161180.72700293
50	22	0	0	90	36.1581920903955	36.241610738255	22	0.733381791822612	2	12	2	NaN	2	3	0.583423467416068	1	1	NaN	53	1	53	1	121	221	321	NaN	521	2.49660992156714	2	1	NaN	2161182.1772839	NaN	2161183.1607585	2161183.67728098
50	22	0	0	90	36.1581920903955	36.241610738255	0	0	1	6	6	NaN	1	4	0.583423467416068	1	1	NaN	54	1	54	1	111	211	311	NaN	511	0.591197521891445	1	1	NaN	2161186.9944654	NaN	2161187.9778744	2161188.49442648
50	22	0	0	90	36.1581920903955	36.241610738255	24	0.800052863806486	2	4	6	NaN	1	5	0.583423467416068	1	1	NaN	55	1	55	1	121	221	321	NaN	521	0.610990721732378	1	1	NaN	2161189.8947462	NaN	2161190.8781665	2161191.39470638
50	22	0	0	90	36.1581920903955	36.241610738255	6	0.200013215951622	2	7	3	NaN	2	3	0.583423467416068	1	1	NaN	56	1	56	1	121	221	321	NaN	521	1.94930158928037	2	1	NaN	2161192.8283893	NaN	2161193.8117836	2161194.32833271
50	22	0	0	90	36.1581920903955	36.241610738255	6	0.200013215951622	2	3	1	NaN	1	5	0.583423467416068	1	1	NaN	57	1	57	1	121	221	321	NaN	521	0.546582621522248	1	1	NaN	2161197.0954565	NaN	2161198.0789159	2161198.59542488
50	22	0	0	90	36.1581920903955	36.241610738255	19	0.633375183846801	2	5	1	NaN	1	5	0.583423467416068	1	1	NaN	58	1	58	1	121	221	321	NaN	521	0.514683769084513	1	1	NaN	2161200.0790811	NaN	2161201.0625016	2161201.57904003
50	22	0	0	90	36.1581920903955	36.241610738255	10	0.333355359919369	2	3	5	NaN	1	5	0.583423467416068	1	1	NaN	59	1	59	1	121	221	321	NaN	521	0.705158521421254	1	1	NaN	2161202.9126984	NaN	2161203.8961096	2161204.41266398
50	22	0	0	90	36.1581920903955	36.241610738255	22	0.733381791822612	2	6	3	NaN	1	3	0.583423467416068	1	1	NaN	60	1	60	1	121	221	321	NaN	521	1.08808042155579	1	1	NaN	2161205.9297018	NaN	2161206.9130538	2161207.42962808
50	22	0	0	90	36.1581920903955	36.241610738255	20	0.666710719838738	2	6	3	NaN	1	3	0.583423467416068	1	1	NaN	61	1	61	1	121	221	321	NaN	521	0.823779969010502	2	0	NaN	2161209.3298842	NaN	2161210.3133995	2161210.82995933
50	22	0	0	90	36.1581920903955	36.241610738255	9	0.300019823927432	2	1	4	NaN	1	4	0.583423467416068	1	1	NaN	62	1	62	1	121	221	321	NaN	521	0.146464069373906	1	1	NaN	2161212.4636165	NaN	2161213.4470355	2161213.96359023
50	22	0	0	90	36.1581920903955	36.241610738255	24	0.800052863806486	2	12	3	NaN	2	5	0.583423467416068	1	1	NaN	63	1	63	1	121	221	321	NaN	521	0.559300921857357	2	1	NaN	2161214.9305603	NaN	2161215.913964	2161216.43050858
50	22	0	0	90	36.1581920903955	36.241610738255	13	0.43336196789518	2	12	2	NaN	2	3	0.583423467416068	1	1	NaN	64	2	1	1	121	221	321	NaN	521	1.07785242144018	2	1	NaN	2161236.9160577	NaN	2161237.8994623	2161238.41601038
50	22	0	0	90	36.1581920903955	36.241610738255	13	0.43336196789518	2	8	4	NaN	2	5	0.583423467416068	1	1	NaN	65	2	2	1	121	221	321	NaN	521	0.925746868830174	2	1	NaN	2161240.3163853	NaN	2161241.2997884	2161241.81633453
50	22	0	0	90	36.1581920903955	36.241610738255	10	0.333355359919369	2	9	6	NaN	2	5	0.583423467416068	1	1	NaN	66	2	3	1	121	221	321	NaN	521	0.739959169179201	2	1	NaN	2161243.5500293	NaN	2161244.5334351	2161245.04998673
50	22	0	0	90	36.1581920903955	36.241610738255	15	0.500033039879054	2	11	4	NaN	2	4	0.583423467416068	1	1	NaN	67	2	4	1	121	221	321	NaN	521	1.11380062159151	2	1	NaN	2161246.60034	NaN	2161247.5837379	2161248.10028658
50	22	0	0	90	36.1581920903955	36.241610738255	18	0.600039647854865	2	4	5	NaN	1	4	0.583423467416068	1	1	NaN	68	2	5	1	121	221	321	NaN	521	0.68859514221549	2	0	NaN	2161250.0173258	NaN	2161251.0007314	2161251.51729286
50	22	0	0	90	36.1581920903955	36.241610738255	6	0.200013215951622	2	4	5	NaN	1	5	0.583423467416068	1	1	NaN	69	2	6	1	121	221	321	NaN	521	0.79240952199325	2	0	NaN	2161253.0176449	NaN	2161254.0010229	2161254.51759178
50	22	0	0	90	36.1581920903955	36.241610738255	16	0.533368575870991	2	4	2	NaN	1	4	0.583423467416068	1	1	NaN	70	2	7	1	121	221	321	NaN	521	1.40360502200201	1	1	NaN	2161256.1178201	NaN	2161257.1013221	2161257.61789568
50	22	0	0	90	36.1581920903955	36.241610738255	20	0.666710719838738	2	12	4	NaN	2	4	0.583423467416068	1	1	NaN	71	2	8	1	121	221	321	NaN	521	1.4306602217257	2	1	NaN	2161259.8349824	NaN	2161260.8183686	2161261.33492058
50	22	0	0	90	36.1581920903955	36.241610738255	21	0.700046255830675	2	2	5	NaN	1	4	0.583423467416068	1	1	NaN	72	2	9	1	121	221	321	NaN	521	0.328563521616161	1	1	NaN	2161263.5853296	NaN	2161264.5687211	2161265.08529158
50	22	0	0	90	36.1581920903955	36.241610738255	20	0.666710719838738	2	2	1	NaN	1	5	0.583423467416068	1	1	NaN	73	2	10	1	121	221	321	NaN	521	0.385711521375924	1	1	NaN	2161266.5522744	NaN	2161267.5356791	2161268.05225448
50	22	0	0	90	36.1581920903955	36.241610738255	16	0.533368575870991	2	12	5	NaN	2	3	0.583423467416068	1	1	NaN	74	2	11	1	121	221	321	NaN	521	0.245400726795197	2	1	NaN	2161269.2525515	NaN	2161270.2359696	2161270.75252647
50	22	0	0	90	36.1581920903955	36.241610738255	7	0.233348751943558	2	8	4	NaN	2	5	0.583423467416068	1	1	NaN	75	2	12	1	121	221	321	NaN	521	0.711387474555522	1	0	NaN	2161271.8028261	NaN	2161272.7862309	2161273.30277713
50	22	0	0	90	36.1581920903955	36.241610738255	7	0.233348751943558	2	4	6	NaN	1	3	0.583423467416068	1	1	NaN	76	2	13	1	121	221	321	NaN	521	0.846540421713144	1	1	NaN	2161274.8198556	NaN	2161275.8031819	2161276.31973508
50	22	0	0	90	36.1581920903955	36.241610738255	19	0.633375183846801	2	11	6	NaN	2	4	0.583423467416068	1	1	NaN	77	2	14	1	121	221	321	NaN	521	0.335388569161296	2	1	NaN	2161277.9867419	NaN	2161278.9701601	2161279.48670473
50	22	0	0	90	36.1581920903955	36.241610738255	21	0.700046255830675	2	1	5	NaN	1	4	0.583423467416068	1	1	NaN	78	2	15	1	121	221	321	NaN	521	0.61298882169649	1	1	NaN	2161280.6370302	NaN	2161281.6204274	2161282.13697708
50	22	0	0	90	36.1581920903955	36.241610738255	22	0.733381791822612	2	2	4	NaN	1	5	0.583423467416068	1	1	NaN	79	2	16	1	121	221	321	NaN	521	0.0479256166145205	1	1	NaN	2161283.5538772	NaN	2161284.5373836	2161285.05392148
50	22	0	0	90	36.1581920903955	36.241610738255	7	0.233348751943558	2	3	2	NaN	1	4	0.583423467416068	1	1	NaN	80	2	17	1	121	221	321	NaN	521	1.36936932150275	1	1	NaN	2161285.9207492	NaN	2161286.9042795	2161287.42082498
50	22	0	0	90	36.1581920903955	36.241610738255	14	0.466697503887117	2	9	4	NaN	2	5	0.583423467416068	1	1	NaN	81	2	18	1	121	221	321	NaN	521	0.789441868662834	2	1	NaN	2161289.6044448	NaN	2161290.5879943	2161291.10451793
50	22	0	0	90	36.1581920903955	36.241610738255	23	0.766717327814549	2	11	2	NaN	2	3	0.583423467416068	1	1	NaN	82	2	19	1	121	221	321	NaN	521	0.888688321691006	2	1	NaN	2161292.7048656	NaN	2161293.6882757	2161294.20482388
50	22	0	0	90	36.1581920903955	36.241610738255	0	0	1	8	4	NaN	2	5	0.583423467416068	1	1	NaN	83	2	20	1	111	211	311	NaN	511	0.633349421899766	2	1	NaN	2161295.9051833	NaN	2161296.8885891	2161297.40514378
50	22	0	0	90	36.1581920903955	36.241610738255	9	0.300019823927432	2	10	1	NaN	2	3	0.583423467416068	1	1	NaN	84	2	21	1	121	221	321	NaN	521	0.971497868653387	2	1	NaN	2161298.8388473	NaN	2161299.8222323	2161300.33875503
50	22	0	0	90	36.1581920903955	36.241610738255	18	0.600039647854865	2	5	1	NaN	1	4	0.583423467416068	1	1	NaN	85	2	22	1	121	221	321	NaN	521	0.0954923368990421	1	1	NaN	2161302.1224672	NaN	2161303.1058432	2161303.62242046
50	22	0	0	90	36.1581920903955	36.241610738255	8	0.266684287935495	2	1	2	NaN	1	4	0.583423467416068	1	1	NaN	86	2	23	1	121	221	321	NaN	521	0.0104272686876357	1	1	NaN	2161304.9060542	NaN	2161305.8894666	2161306.40602663
50	22	0	0	90	36.1581920903955	36.241610738255	14	0.466697503887117	2	4	2	NaN	1	4	0.583423467416068	1	1	NaN	87	2	24	1	121	221	321	NaN	521	1.93030782183632	1	1	NaN	2161307.2396267	NaN	2161308.2230366	2161308.73958508
50	22	0	0	90	36.1581920903955	36.241610738255	19	0.633375183846801	2	9	5	NaN	2	3	0.583423467416068	1	1	NaN	88	2	25	1	121	221	321	NaN	521	3.52806052193046	1	0	NaN	2161311.4901011	NaN	2161312.4734644	2161312.99001178
50	22	0	0	90	36.1581920903955	36.241610738255	12	0.400026431903243	2	12	1	NaN	2	3	0.583423467416068	1	1	NaN	89	2	26	1	121	221	321	NaN	521	0.0103821745142341	2	1	NaN	2161317.3406413	NaN	2161318.324025	2161318.84058633
50	22	0	0	90	36.1581920903955	36.241610738255	11	0.366690895911306	2	3	1	NaN	1	4	0.583423467416068	1	1	NaN	90	2	27	1	121	221	321	NaN	521	0.010394221637398	1	1	NaN	2161319.6742082	NaN	2161320.6575746	2161321.17414908
50	22	0	0	90	36.1581920903955	36.241610738255	20	0.666710719838738	2	2	5	NaN	1	4	0.583423467416068	1	1	NaN	91	2	28	1	121	221	321	NaN	521	0.514519669115543	1	1	NaN	2161321.9910899	NaN	2161322.9744845	2161323.49103483
50	22	0	0	90	36.1581920903955	36.241610738255	16	0.533368575870991	2	3	2	NaN	1	4	0.583423467416068	1	1	NaN	92	2	29	1	121	221	321	NaN	521	0.433405069168657	1	1	NaN	2161324.8247075	NaN	2161325.8081061	2161326.32465863
50	22	0	0	90	36.1581920903955	36.241610738255	24	0.800052863806486	2	11	5	NaN	2	4	0.583423467416068	1	1	NaN	93	2	30	1	121	221	321	NaN	521	0.283120121341199	2	1	NaN	2161327.5749554	NaN	2161328.5584129	2161329.07492508
50	22	0	0	90	36.1581920903955	36.241610738255	11	0.366690895911306	2	7	4	NaN	2	5	0.583423467416068	1	1	NaN	94	2	31	1	121	221	321	NaN	521	0.354789769276977	2	1	NaN	2161330.1752262	NaN	2161331.1586318	2161331.67517473
50	22	0	0	90	36.1581920903955	36.241610738255	23	0.766717327814549	2	2	3	NaN	1	5	0.583423467416068	1	1	NaN	95	2	32	1	121	221	321	NaN	521	0.287933121435344	2	0	NaN	2161332.8421549	NaN	2161333.8255547	2161334.34210908
50	22	0	0	90	36.1581920903955	36.241610738255	15	0.500033039879054	2	7	2	NaN	2	5	0.583423467416068	1	1	NaN	96	2	33	1	121	221	321	NaN	521	0.3548553744331	2	1	NaN	2161335.7590981	NaN	2161336.7425007	2161337.25906283
50	22	0	0	90	36.1581920903955	36.241610738255	18	0.600039647854865	2	7	3	NaN	2	5	0.583423467416068	1	1	NaN	97	2	34	1	121	221	321	NaN	521	0.471603121608496	2	1	NaN	2161338.4260383	NaN	2161339.4094444	2161339.92599028
50	22	0	0	90	36.1581920903955	36.241610738255	0	0	1	5	4	NaN	1	4	0.583423467416068	1	1	NaN	98	2	35	1	111	211	311	NaN	511	0.520673306193203	1	1	NaN	2161341.2096383	NaN	2161342.1930452	2161342.70959699
50	22	0	0	90	36.1581920903955	36.241610738255	17	0.566704111862928	2	8	1	NaN	2	5	0.583423467416068	1	1	NaN	99	2	36	1	121	221	321	NaN	521	0.324781489558518	2	1	NaN	2161344.293248	NaN	2161345.276684	2161345.79324261
50	22	0	0	90	36.1581920903955	36.241610738255	21	0.700046255830675	2	10	6	NaN	2	4	0.583423467416068	1	1	NaN	100	2	37	1	121	221	321	NaN	521	0.347464621532708	2	1	NaN	2161346.9267657	NaN	2161347.9102763	2161348.42683128
50	22	0	0	90	36.1581920903955	36.241610738255	12	0.400026431903243	2	3	3	NaN	1	5	0.583423467416068	1	1	NaN	101	2	38	1	121	221	321	NaN	521	0.376329721417278	1	1	NaN	2161349.5938055	NaN	2161350.5772107	2161351.09375978
50	22	0	0	90	36.1581920903955	36.241610738255	7	0.233348751943558	2	1	1	NaN	1	4	0.583423467416068	1	1	NaN	102	2	39	1	121	221	321	NaN	521	4.38094882154837	1	1	NaN	2161352.277385	NaN	2161353.2608041	2161353.77735818
50	22	0	0	90	36.1581920903955	36.241610738255	11	0.366690895911306	2	7	5	NaN	2	4	0.583423467416068	1	1	NaN	103	2	40	1	121	221	321	NaN	521	0.336056821513921	2	1	NaN	2161358.978054	NaN	2161359.9614486	2161360.47800768
50	22	0	0	90	36.1581920903955	36.241610738255	23	0.766717327814549	2	9	5	NaN	2	3	0.583423467416068	1	1	NaN	104	2	41	1	121	221	321	NaN	521	1.15799572179094	2	1	NaN	2161361.6283277	NaN	2161362.6116943	2161363.12827858
50	22	0	0	90	36.1581920903955	36.241610738255	19	0.633375183846801	2	8	6	NaN	2	3	0.583423467416068	1	1	NaN	105	2	42	1	121	221	321	NaN	521	0.29099932173267	2	1	NaN	2161365.0953298	NaN	2161366.078728	2161366.59528008
50	22	0	0	90	36.1581920903955	36.241610738255	0	0	1	9	5	NaN	2	3	0.583423467416068	1	1	NaN	106	2	43	1	111	211	311	NaN	511	0.554513921495527	2	1	NaN	2161367.6955785	NaN	2161368.6789741	2161369.19554198
50	22	0	0	90	36.1581920903955	36.241610738255	21	0.700046255830675	2	5	5	NaN	1	4	0.583423467416068	1	1	NaN	107	2	44	1	121	221	321	NaN	521	1.07152786897495	1	1	NaN	2161370.5624636	NaN	2161371.5459361	2161372.06247913
50	22	0	0	90	36.1581920903955	36.241610738255	24	0.800052863806486	2	4	6	NaN	1	4	0.583423467416068	1	1	NaN	108	2	45	1	121	221	321	NaN	521	0.552198979537934	1	1	NaN	2161373.9461853	NaN	2161374.9295976	2161375.44614862
50	22	0	0	90	36.1581920903955	36.241610738255	11	0.366690895911306	2	11	1	NaN	2	3	0.583423467416068	1	1	NaN	109	2	46	1	121	221	321	NaN	521	0.0105638112872839	2	1	NaN	2161376.8131374	NaN	2161377.7965447	2161378.31312819
50	22	0	0	90	36.1581920903955	36.241610738255	9	0.300019823927432	2	3	2	NaN	1	5	0.583423467416068	1	1	NaN	110	2	47	1	121	221	321	NaN	521	0.647274721879512	1	1	NaN	2161379.1466633	NaN	2161380.1301126	2161380.64666638
50	22	0	0	90	36.1581920903955	36.241610738255	24	0.800052863806486	2	10	3	NaN	2	5	0.583423467416068	1	1	NaN	111	2	48	1	121	221	321	NaN	521	1.9603570215404	1	0	NaN	2161382.1136715	NaN	2161383.0970796	2161383.61362768
50	22	0	0	90	36.1581920903955	36.241610738255	17	0.566704111862928	2	6	2	NaN	1	3	0.583423467416068	1	1	NaN	112	2	49	1	121	221	321	NaN	521	0.20527292182669	1	1	NaN	2161386.380644	NaN	2161387.3641456	2161387.88071228
50	22	0	0	90	36.1581920903955	36.241610738255	25	0.833388399798423	2	5	1	NaN	1	5	0.583423467416068	1	1	NaN	113	2	50	1	121	221	321	NaN	521	0.010389621835202	1	1	NaN	2161388.8976738	NaN	2161389.8810791	2161390.39762858
50	22	0	0	90	36.1581920903955	36.241610738255	8	0.266684287935495	2	2	6	NaN	1	3	0.583423467416068	1	1	NaN	114	2	51	1	121	221	321	NaN	521	1.29949026927352	1	1	NaN	2161391.2145532	NaN	2161392.19794	2161392.71451573
50	22	0	0	90	36.1581920903955	36.241610738255	18	0.600039647854865	2	11	2	NaN	2	3	0.583423467416068	1	1	NaN	115	2	52	1	121	221	321	NaN	521	0.138386374339461	2	1	NaN	2161394.8316047	NaN	2161395.8149895	2161396.33154303
50	22	0	0	90	36.1581920903955	36.241610738255	15	0.500033039879054	2	2	4	NaN	1	3	0.583423467416068	1	1	NaN	116	2	53	1	121	221	321	NaN	521	0.216493621934205	1	1	NaN	2161397.2818187	NaN	2161398.2652107	2161398.78178578
50	22	0	0	90	36.1581920903955	36.241610738255	22	0.733381791822612	2	9	1	NaN	2	4	0.583423467416068	1	1	NaN	117	2	54	1	121	221	321	NaN	521	1.20251002162695	2	1	NaN	2161399.8153979	NaN	2161400.7987919	2161401.31536828
50	22	0	0	90	36.1581920903955	36.241610738255	7	0.233348751943558	2	5	2	NaN	1	5	0.583423467416068	1	1	NaN	118	2	55	1	121	221	321	NaN	521	0.325511422008276	1	1	NaN	2161403.3323178	NaN	2161404.3158334	2161404.83237878
50	22	0	0	90	36.1581920903955	36.241610738255	9	0.300019823927432	2	6	4	NaN	1	3	0.583423467416068	1	1	NaN	119	2	56	1	121	221	321	NaN	521	1.09761942178011	1	1	NaN	2161406.2326754	NaN	2161407.2161362	2161407.73266198
50	22	0	0	90	36.1581920903955	36.241610738255	10	0.333355359919369	2	12	1	NaN	2	5	0.583423467416068	1	1	NaN	120	2	57	1	121	221	321	NaN	521	0.672630069311708	2	1	NaN	2161409.6497282	NaN	2161410.6331149	2161411.14965763
50	22	0	0	90	36.1581920903955	36.241610738255	24	0.800052863806486	2	12	6	NaN	2	5	0.583423467416068	1	1	NaN	121	2	58	1	121	221	321	NaN	521	0.473050673957914	2	1	NaN	2161412.6333577	NaN	2161413.6167356	2161414.13329883
50	22	0	0	90	36.1581920903955	36.241610738255	9	0.300019823927432	2	5	4	NaN	1	4	0.583423467416068	1	1	NaN	122	2	59	1	121	221	321	NaN	521	0.369480821769685	1	1	NaN	2161415.4169546	NaN	2161416.4003838	2161416.91690638
50	22	0	0	90	36.1581920903955	36.241610738255	16	0.533368575870991	2	6	5	NaN	1	4	0.583423467416068	1	1	NaN	123	2	60	1	121	221	321	NaN	521	0.517859769053757	1	1	NaN	2161418.1005504	NaN	2161419.0839502	2161419.60050043
50	22	0	0	90	36.1581920903955	36.241610738255	10	0.333355359919369	2	6	2	NaN	1	5	0.583423467416068	1	1	NaN	124	2	61	1	121	221	321	NaN	521	1.23594916891307	1	1	NaN	2161420.9340294	NaN	2161421.9175657	2161422.43410263
50	22	0	0	90	36.1581920903955	36.241610738255	25	0.833388399798423	2	4	5	NaN	1	3	0.583423467416068	1	1	NaN	125	2	62	1	121	221	321	NaN	521	0.341942074242979	1	1	NaN	2161424.4845101	NaN	2161425.4678971	2161425.98446273
50	22	0	0	90	36.1581920903955	36.241610738255	19	0.633375183846801	2	3	2	NaN	1	5	0.583423467416068	1	1	NaN	126	2	63	1	121	221	321	NaN	521	0.163528221659362	1	1	NaN	2161427.1347682	NaN	2161428.1181727	2161428.63472858
50	22	0	0	90	36.1581920903955	36.241610738255	11	0.366690895911306	2	2	2	NaN	1	5	0.583423467416068	1	1	NaN	127	3	1	1	121	221	321	NaN	521	1.59434382151812	1	1	NaN	2161433.7520898	NaN	2161434.7354894	2161435.25203938
50	22	0	0	90	36.1581920903955	36.241610738255	11	0.366690895911306	2	12	6	NaN	2	5	0.583423467416068	1	1	NaN	128	3	2	1	121	221	321	NaN	521	0.309385085012764	2	1	NaN	2161437.6691433	NaN	2161438.6525844	2161439.16909022
50	22	0	0	90	36.1581920903955	36.241610738255	17	0.566704111862928	2	12	6	NaN	2	4	0.583423467416068	1	1	NaN	129	3	3	1	121	221	321	NaN	521	0.315932921599597	2	1	NaN	2161440.2860494	NaN	2161441.2694708	2161441.78601458
50	22	0	0	90	36.1581920903955	36.241610738255	23	0.766717327814549	2	9	3	NaN	2	3	0.583423467416068	1	1	NaN	130	3	4	1	121	221	321	NaN	521	0.586698121391237	2	1	NaN	2161442.91966	NaN	2161443.903046	2161444.41961088
50	22	0	0	90	36.1581920903955	36.241610738255	17	0.566704111862928	2	2	3	NaN	1	4	0.583423467416068	1	1	NaN	131	3	5	1	121	221	321	NaN	521	0.78218142176047	1	1	NaN	2161445.8199699	NaN	2161446.8033402	2161447.31989378
50	22	0	0	90	36.1581920903955	36.241610738255	8	0.266684287935495	2	12	3	NaN	2	5	0.583423467416068	1	1	NaN	132	3	6	1	121	221	321	NaN	521	0.546214816626161	2	1	NaN	2161448.9202326	NaN	2161449.9036391	2161450.42020298
50	22	0	0	90	36.1581920903955	36.241610738255	19	0.633375183846801	2	6	4	NaN	1	3	0.583423467416068	1	1	NaN	133	3	7	1	121	221	321	NaN	521	0.726797721348703	1	1	NaN	2161451.7872193	NaN	2161452.7705912	2161453.28714688
50	22	0	0	90	36.1581920903955	36.241610738255	25	0.833388399798423	2	7	6	NaN	2	4	0.583423467416068	1	1	NaN	134	3	8	1	121	221	321	NaN	521	0.0207282691262662	2	1	NaN	2161454.8374974	NaN	2161455.8208844	2161456.33744063
50	22	0	0	90	36.1581920903955	36.241610738255	12	0.400026431903243	2	9	6	NaN	2	5	0.583423467416068	1	1	NaN	135	3	9	1	121	221	321	NaN	521	0.543109821621329	2	1	NaN	2161457.1710495	NaN	2161458.1544448	2161458.67101208
50	22	0	0	90	36.1581920903955	36.241610738255	6	0.200013215951622	2	8	1	NaN	2	3	0.583423467416068	1	1	NaN	136	3	10	1	121	221	321	NaN	521	0.364928521681577	2	1	NaN	2161460.021253	NaN	2161461.0047252	2161461.52129288
50	22	0	0	90	36.1581920903955	36.241610738255	6	0.200013215951622	2	9	1	NaN	2	4	0.583423467416068	1	1	NaN	137	3	11	1	121	221	321	NaN	521	1.08136256923899	2	1	NaN	2161462.704926	NaN	2161463.6883273	2161464.20487653
50	22	0	0	90	36.1581920903955	36.241610738255	6	0.200013215951622	2	4	1	NaN	1	5	0.583423467416068	1	1	NaN	138	3	12	1	121	221	321	NaN	521	1.17706597410142	1	1	NaN	2161466.1052672	NaN	2161467.0886614	2161467.60522403
50	22	0	0	90	36.1581920903955	36.241610738255	20	0.666710719838738	2	5	4	NaN	1	4	0.583423467416068	1	1	NaN	139	3	13	1	121	221	321	NaN	521	0.669481721706688	1	1	NaN	2161469.5889246	NaN	2161470.5723403	2161471.08888718
50	22	0	0	90	36.1581920903955	36.241610738255	22	0.733381791822612	2	7	2	NaN	2	5	0.583423467416068	1	1	NaN	140	3	14	1	121	221	321	NaN	521	0.205586069263518	2	1	NaN	2161472.5725235	NaN	2161473.5559741	2161474.07251433
50	22	0	0	90	36.1581920903955	36.241610738255	8	0.266684287935495	2	7	1	NaN	2	4	0.583423467416068	1	1	NaN	141	3	15	1	121	221	321	NaN	521	2.06501092156395	2	1	NaN	2161475.0893582	NaN	2161476.0728921	2161476.58943658
50	22	0	0	90	36.1581920903955	36.241610738255	9	0.300019823927432	2	10	1	NaN	2	3	0.583423467416068	1	1	NaN	142	3	16	1	121	221	321	NaN	521	0.344992568716407	2	1	NaN	2161479.4732424	NaN	2161480.4566907	2161480.97319573
50	22	0	0	90	36.1581920903955	36.241610738255	8	0.266684287935495	2	10	6	NaN	2	4	0.583423467416068	1	1	NaN	143	3	17	1	121	221	321	NaN	521	0.0103927217423916	2	1	NaN	2161482.1235284	NaN	2161483.1068994	2161483.62346388
50	22	0	0	90	36.1581920903955	36.241610738255	24	0.800052863806486	2	11	1	NaN	2	5	0.583423467416068	1	1	NaN	144	3	18	1	121	221	321	NaN	521	0.38605146901682	2	1	NaN	2161484.4404017	NaN	2161485.4237968	2161485.94035623
50	22	0	0	90	36.1581920903955	36.241610738255	17	0.566704111862928	2	4	5	NaN	1	3	0.583423467416068	1	1	NaN	145	3	19	1	121	221	321	NaN	521	0.757705794647336	1	1	NaN	2161487.1406981	NaN	2161488.1240726	2161488.64062671
50	22	0	0	90	36.1581920903955	36.241610738255	9	0.300019823927432	2	8	2	NaN	2	3	0.583423467416068	1	1	NaN	146	3	20	1	121	221	321	NaN	521	0.0104056214913726	2	1	NaN	2161490.2242993	NaN	2161491.2077004	2161491.72425268
50	22	0	0	90	36.1581920903955	36.241610738255	13	0.43336196789518	2	12	4	NaN	2	3	0.583423467416068	1	1	NaN	147	3	21	1	121	221	321	NaN	521	0.605206621810794	2	1	NaN	2161492.5411242	NaN	2161493.5246381	2161494.04115848
50	22	0	0	90	36.1581920903955	36.241610738255	23	0.766717327814549	2	5	5	NaN	1	5	0.583423467416068	1	1	NaN	148	3	22	1	121	221	321	NaN	521	0.45615362143144	2	0	NaN	2161495.4581438	NaN	2161496.4415506	2161496.95809838
50	22	0	0	90	36.1581920903955	36.241610738255	25	0.833388399798423	2	11	5	NaN	2	3	0.583423467416068	1	1	NaN	149	3	23	1	121	221	321	NaN	521	1.36913232179359	1	0	NaN	2161498.2250917	NaN	2161499.2085009	2161499.72504718
50	22	0	0	90	36.1581920903955	36.241610738255	15	0.500033039879054	2	6	2	NaN	1	3	0.583423467416068	1	1	NaN	150	3	24	1	121	221	321	NaN	521	0.55786456912756	1	1	NaN	2161501.9087762	NaN	2161502.8921908	2161503.40873363
50	22	0	0	90	36.1581920903955	36.241610738255	16	0.533368575870991	2	1	3	NaN	1	3	0.583423467416068	1	1	NaN	151	3	25	1	121	221	321	NaN	521	0.282705921679735	1	1	NaN	2161504.7756468	NaN	2161505.7591455	2161506.27569118
50	22	0	0	90	36.1581920903955	36.241610738255	7	0.233348751943558	2	7	3	NaN	2	3	0.583423467416068	1	1	NaN	152	3	26	1	121	221	321	NaN	521	0.0823309691622853	2	1	NaN	2161507.3759891	NaN	2161508.359372	2161508.87593683
50	22	0	0	90	36.1581920903955	36.241610738255	12	0.400026431903243	2	4	4	NaN	1	3	0.583423467416068	1	1	NaN	153	3	27	1	121	221	321	NaN	521	0.762121569365263	1	1	NaN	2161509.7762422	NaN	2161510.7596721	2161511.27617283
50	22	0	0	90	36.1581920903955	36.241610738255	9	0.300019823927432	2	7	6	NaN	2	4	0.583423467416068	1	1	NaN	154	3	28	1	121	221	321	NaN	521	2.40629676915705	2	1	NaN	2161512.859873	NaN	2161513.843243	2161514.35981163
50	22	0	0	90	36.1581920903955	36.241610738255	10	0.333355359919369	2	4	3	NaN	1	3	0.583423467416068	1	1	NaN	155	3	29	1	121	221	321	NaN	521	0.353602121584117	2	0	NaN	2161517.577009	NaN	2161518.5603913	2161519.07694968
50	22	0	0	90	36.1581920903955	36.241610738255	0	0	1	9	1	NaN	2	4	0.583423467416068	1	1	NaN	156	3	30	1	111	211	311	NaN	511	0.638575469143689	2	1	NaN	2161520.2439115	NaN	2161521.2273236	2161521.74387333
50	22	0	0	90	36.1581920903955	36.241610738255	0	0	1	6	2	NaN	1	4	0.583423467416068	1	1	NaN	157	3	31	1	111	211	311	NaN	511	0.368027021642774	2	0	NaN	2161523.1942271	NaN	2161524.1775108	2161524.69417298
50	22	0	0	90	36.1581920903955	36.241610738255	10	0.333355359919369	2	3	5	NaN	1	4	0.583423467416068	1	1	NaN	158	3	32	1	121	221	321	NaN	521	0.540593721903861	1	1	NaN	2161525.8778144	NaN	2161526.8611975	2161527.37776838
50	22	0	0	90	36.1581920903955	36.241610738255	17	0.566704111862928	2	5	2	NaN	1	4	0.583423467416068	1	1	NaN	159	3	33	1	121	221	321	NaN	521	0.626065568998456	1	1	NaN	2161528.728118	NaN	2161529.7114904	2161530.22803823
50	22	0	0	90	36.1581920903955	36.241610738255	23	0.766717327814549	2	7	2	NaN	2	3	0.583423467416068	1	1	NaN	160	3	34	1	121	221	321	NaN	521	0.0685741687193513	2	1	NaN	2161531.6616016	NaN	2161532.645109	2161533.16165903
50	22	0	0	90	36.1581920903955	36.241610738255	18	0.600039647854865	2	8	5	NaN	2	5	0.583423467416068	1	1	NaN	161	3	35	1	121	221	321	NaN	521	0.620846095029265	1	0	NaN	2161534.0452837	NaN	2161535.0286936	2161535.54524241
50	22	0	0	90	36.1581920903955	36.241610738255	21	0.700046255830675	2	6	4	NaN	1	4	0.583423467416068	1	1	NaN	162	3	36	1	121	221	321	NaN	521	0.0103949219919741	1	1	NaN	2161536.9789131	NaN	2161537.9623143	2161538.47886188
50	22	0	0	90	36.1581920903955	36.241610738255	22	0.733381791822612	2	4	1	NaN	1	4	0.583423467416068	1	1	NaN	163	3	37	1	121	221	321	NaN	521	0.0419087219052017	2	0	NaN	2161539.3124634	NaN	2161540.2958607	2161540.81242258
50	22	0	0	90	36.1581920903955	36.241610738255	14	0.466697503887117	2	12	3	NaN	2	3	0.583423467416068	1	1	NaN	164	3	38	1	121	221	321	NaN	521	1.86796986917034	2	1	NaN	2161541.6625751	NaN	2161542.646096	2161543.16264343
50	22	0	0	90	36.1581920903955	36.241610738255	6	0.200013215951622	2	6	6	NaN	1	4	0.583423467416068	1	1	NaN	165	3	39	1	121	221	321	NaN	521	0.660266068764031	1	1	NaN	2161545.8297696	NaN	2161546.8131716	2161547.32974233
50	22	0	0	90	36.1581920903955	36.241610738255	20	0.666710719838738	2	5	4	NaN	1	3	0.583423467416068	1	1	NaN	166	3	40	1	121	221	321	NaN	521	0.837186568882316	1	1	NaN	2161548.7967391	NaN	2161549.780109	2161550.29668623
50	22	0	0	90	36.1581920903955	36.241610738255	18	0.600039647854865	2	9	4	NaN	2	3	0.583423467416068	1	1	NaN	167	3	41	1	121	221	321	NaN	521	1.15127832163125	2	1	NaN	2161551.9470484	NaN	2161552.9304631	2161553.44699978
50	22	0	0	90	36.1581920903955	36.241610738255	8	0.266684287935495	2	10	1	NaN	2	5	0.583423467416068	1	1	NaN	168	3	42	1	121	221	321	NaN	521	0.404364721383899	1	0	NaN	2161555.4140695	NaN	2161556.397475	2161556.91400918
50	22	0	0	90	36.1581920903955	36.241610738255	13	0.43336196789518	2	10	2	NaN	2	3	0.583423467416068	1	1	NaN	169	3	43	1	121	221	321	NaN	521	0.46342012193054	2	1	NaN	2161558.1309609	NaN	2161559.1143948	2161559.63093318
50	22	0	0	90	36.1581920903955	36.241610738255	0	0	1	4	4	NaN	1	3	0.583423467416068	1	1	NaN	170	3	44	1	111	211	311	NaN	511	0.634461421519518	1	1	NaN	2161561.2479342	NaN	2161562.2313494	2161562.74791698
50	22	0	0	90	36.1581920903955	36.241610738255	19	0.633375183846801	2	6	5	NaN	1	3	0.583423467416068	1	1	NaN	171	3	45	1	121	221	321	NaN	521	0.403995421249419	1	1	NaN	2161564.1982578	NaN	2161565.1816759	2161565.69819958
50	22	0	0	90	36.1581920903955	36.241610738255	18	0.600039647854865	2	3	3	NaN	1	3	0.583423467416068	1	1	NaN	172	3	46	1	121	221	321	NaN	521	0.215154368896037	1	1	NaN	2161566.915179	NaN	2161567.8985741	2161568.41513813
50	22	0	0	90	36.1581920903955	36.241610738255	0	0	1	12	4	NaN	2	5	0.583423467416068	1	1	NaN	173	3	47	1	111	211	311	NaN	511	0.265662869438529	2	1	NaN	2161569.4486463	NaN	2161570.4321751	2161570.94872943
50	22	0	0	90	36.1581920903955	36.241610738255	0	0	1	1	2	NaN	1	3	0.583423467416068	1	1	NaN	174	3	48	1	111	211	311	NaN	511	0.394093784503639	1	1	NaN	2161572.0323764	NaN	2161573.0157564	2161573.53231302
50	22	0	0	90	36.1581920903955	36.241610738255	11	0.366690895911306	2	9	1	NaN	2	5	0.583423467416068	1	1	NaN	175	3	49	1	121	221	321	NaN	521	0.301165821962059	2	1	NaN	2161574.7491144	NaN	2161575.7327175	2161576.24924498
50	22	0	0	90	36.1581920903955	36.241610738255	8	0.266684287935495	2	3	4	NaN	1	5	0.583423467416068	1	1	NaN	176	3	50	1	121	221	321	NaN	521	0.892077021766454	2	0	NaN	2161577.3662187	NaN	2161578.3496029	2161578.86616428
50	22	0	0	90	36.1581920903955	36.241610738255	0	0	1	12	3	NaN	2	5	0.583423467416068	1	1	NaN	177	3	51	1	111	211	311	NaN	511	0.475830021779984	2	1	NaN	2161580.566499	NaN	2161581.5499165	2161582.06647558
50	22	0	0	90	36.1581920903955	36.241610738255	23	0.766717327814549	2	10	4	NaN	2	3	0.583423467416068	1	1	NaN	178	3	52	1	121	221	321	NaN	521	0.388498769141734	2	1	NaN	2161583.3500616	NaN	2161584.3335353	2161584.85007843
50	22	0	0	90	36.1581920903955	36.241610738255	11	0.366690895911306	2	2	1	NaN	1	3	0.583423467416068	1	1	NaN	179	3	53	1	121	221	321	NaN	521	0.335964121855795	1	1	NaN	2161586.0502616	NaN	2161587.0337864	2161587.55035118
50	22	0	0	90	36.1581920903955	36.241610738255	25	0.833388399798423	2	1	6	NaN	1	3	0.583423467416068	1	1	NaN	180	3	54	1	121	221	321	NaN	521	0.245835021603853	1	1	NaN	2161588.7006516	NaN	2161589.6840467	2161590.20061208
50	22	0	0	90	36.1581920903955	36.241610738255	16	0.533368575870991	2	11	4	NaN	2	3	0.583423467416068	1	1	NaN	181	3	55	1	121	221	321	NaN	521	0.0103014367632568	2	1	NaN	2161591.2509058	NaN	2161592.2343408	2161592.75086456
50	22	0	0	90	36.1581920903955	36.241610738255	23	0.766717327814549	2	4	1	NaN	1	5	0.583423467416068	1	1	NaN	182	3	56	1	121	221	321	NaN	521	2.42645812174305	1	1	NaN	2161593.5678003	NaN	2161594.5511933	2161595.06775818
50	22	0	0	90	36.1581920903955	36.241610738255	23	0.766717327814549	2	7	5	NaN	2	4	0.583423467416068	1	1	NaN	183	3	57	1	121	221	321	NaN	521	0.452084721531719	2	1	NaN	2161598.3182726	NaN	2161599.3016815	2161599.81822998
50	22	0	0	90	36.1581920903955	36.241610738255	25	0.833388399798423	2	9	4	NaN	2	5	0.583423467416068	1	1	NaN	184	3	58	1	121	221	321	NaN	521	0.549489085096866	2	1	NaN	2161601.0852163	NaN	2161602.0686083	2161602.58516992
50	22	0	0	90	36.1581920903955	36.241610738255	9	0.300019823927432	2	5	3	NaN	1	4	0.583423467416068	1	1	NaN	185	3	59	1	121	221	321	NaN	521	0.418527421541512	1	1	NaN	2161603.9521068	NaN	2161604.9355836	2161605.45211388
50	22	0	0	90	36.1581920903955	36.241610738255	6	0.200013215951622	2	12	5	NaN	2	5	0.583423467416068	1	1	NaN	186	3	60	1	121	221	321	NaN	521	0.796897721476853	1	0	NaN	2161606.6857564	NaN	2161607.6691573	2161608.18571678
50	22	0	0	90	36.1581920903955	36.241610738255	13	0.43336196789518	2	8	5	NaN	2	5	0.583423467416068	1	1	NaN	187	3	61	1	121	221	321	NaN	521	0.0104045220650733	2	1	NaN	2161609.7859429	NaN	2161610.7694448	2161611.28601838
50	22	0	0	90	36.1581920903955	36.241610738255	18	0.600039647854865	2	7	1	NaN	2	5	0.583423467416068	1	1	NaN	188	3	62	1	121	221	321	NaN	521	0.323633421678096	2	1	NaN	2161612.102962	NaN	2161613.0863564	2161613.60291748
50	22	0	0	90	36.1581920903955	36.241610738255	22	0.733381791822612	2	10	6	NaN	2	5	0.583423467416068	1	1	NaN	189	3	63	1	121	221	321	NaN	521	0.345831369049847	2	1	NaN	2161614.7365525	NaN	2161615.7199554	2161616.23650243
50	22	0	0	90	36.1581920903955	36.241610738255	10	0.333355359919369	2	1	1	NaN	1	3	0.583423467416068	1	1	NaN	190	4	1	1	121	221	321	NaN	521	4.92368112178519	2	0	NaN	2161672.3588455	NaN	2161673.342298	2161673.85883628
50	22	0	0	90	36.1581920903955	36.241610738255	19	0.633375183846801	2	11	5	NaN	2	3	0.583423467416068	1	1	NaN	191	4	2	1	121	221	321	NaN	521	1.08958186907694	2	1	NaN	2161679.5929338	NaN	2161680.576375	2161681.09287793
50	22	0	0	90	36.1581920903955	36.241610738255	0	0	1	4	2	NaN	1	5	0.583423467416068	1	1	NaN	192	4	3	1	111	211	311	NaN	511	0.0572045217268169	2	0	NaN	2161682.9932545	NaN	2161683.9766782	2161684.49322018
50	22	0	0	90	36.1581920903955	36.241610738255	25	0.833388399798423	2	9	2	NaN	2	4	0.583423467416068	1	1	NaN	193	4	4	1	121	221	321	NaN	521	0.370401021558791	2	1	NaN	2161685.3601518	NaN	2161686.3435667	2161686.86012238
50	22	0	0	90	36.1581920903955	36.241610738255	21	0.700046255830675	2	4	1	NaN	1	5	0.583423467416068	1	1	NaN	194	4	5	1	121	221	321	NaN	521	4.97486682143062	2	0	NaN	2161688.0437843	NaN	2161689.0271623	2161689.54371678
50	22	0	0	90	36.1581920903955	36.241610738255	7	0.233348751943558	2	4	6	NaN	1	3	0.583423467416068	1	1	NaN	195	4	6	1	121	221	321	NaN	521	1.1227455213666	2	0	NaN	2161695.3278155	NaN	2161696.3112162	2161696.82776448
50	22	0	0	90	36.1581920903955	36.241610738255	20	0.666710719838738	2	8	3	NaN	2	3	0.583423467416068	1	1	NaN	196	4	7	1	121	221	321	NaN	521	0.968902921769768	2	1	NaN	2161698.7614974	NaN	2161699.7449281	2161700.26144198
50	22	0	0	90	36.1581920903955	36.241610738255	22	0.733381791822612	2	11	6	NaN	2	3	0.583423467416068	1	1	NaN	197	4	8	1	121	221	321	NaN	521	1.27764542168006	2	1	NaN	2161702.0451453	NaN	2161703.0285309	2161703.54509728
50	22	0	0	90	36.1581920903955	36.241610738255	12	0.400026431903243	2	5	1	NaN	1	4	0.583423467416068	1	1	NaN	198	4	9	1	121	221	321	NaN	521	0.388942221645266	1	1	NaN	2161705.6454843	NaN	2161706.6288906	2161707.14545248
50	22	0	0	90	36.1581920903955	36.241610738255	24	0.800052863806486	2	8	5	NaN	2	4	0.583423467416068	1	1	NaN	199	4	10	1	121	221	321	NaN	521	0.440787521656603	2	1	NaN	2161708.3457584	NaN	2161709.3291545	2161709.84571678
50	22	0	0	90	36.1581920903955	36.241610738255	12	0.400026431903243	2	3	1	NaN	1	4	0.583423467416068	1	1	NaN	200	4	11	1	121	221	321	NaN	521	0.610666968859732	1	1	NaN	2161711.0960222	NaN	2161712.0794975	2161712.59598323
50	22	0	0	90	36.1581920903955	36.241610738255	20	0.666710719838738	2	3	5	NaN	1	3	0.583423467416068	1	1	NaN	201	4	12	1	121	221	321	NaN	521	0.509687521494925	1	1	NaN	2161714.0130754	NaN	2161714.9963673	2161715.51294108
50	22	0	0	90	36.1581920903955	36.241610738255	21	0.700046255830675	2	11	4	NaN	2	4	0.583423467416068	1	1	NaN	202	4	13	1	121	221	321	NaN	521	0.868009269237518	2	1	NaN	2161716.8466963	NaN	2161717.8299869	2161718.34654263
50	22	0	0	90	36.1581920903955	36.241610738255	8	0.266684287935495	2	8	6	NaN	2	4	0.583423467416068	1	1	NaN	203	4	14	1	121	221	321	NaN	521	0.388377674389631	2	1	NaN	2161720.0302463	NaN	2161721.0136439	2161721.53022233
50	22	0	0	90	36.1581920903955	36.241610738255	10	0.333355359919369	2	5	4	NaN	1	5	0.583423467416068	1	1	NaN	204	4	15	1	121	221	321	NaN	521	0.120077869389206	1	1	NaN	2161722.7305019	NaN	2161723.7138976	2161724.23045913
50	22	0	0	90	36.1581920903955	36.241610738255	11	0.366690895911306	2	4	4	NaN	1	3	0.583423467416068	1	1	NaN	205	4	16	1	121	221	321	NaN	521	1.0035173217766	1	1	NaN	2161725.4475066	NaN	2161726.4308346	2161726.94739418
50	22	0	0	90	36.1581920903955	36.241610738255	12	0.400026431903243	2	2	3	NaN	1	5	0.583423467416068	1	1	NaN	206	4	17	1	121	221	321	NaN	521	0.749988421797752	1	1	NaN	2161728.7644306	NaN	2161729.7478465	2161730.26438808
50	22	0	0	90	36.1581920903955	36.241610738255	21	0.700046255830675	2	10	5	NaN	2	5	0.583423467416068	1	1	NaN	207	4	18	1	121	221	321	NaN	521	0.491500922013074	2	1	NaN	2161731.8314049	NaN	2161732.8148084	2161733.33135988
50	22	0	0	90	36.1581920903955	36.241610738255	25	0.833388399798423	2	11	1	NaN	2	4	0.583423467416068	1	1	NaN	208	4	19	1	121	221	321	NaN	521	0.0909455688670278	2	1	NaN	2161734.6316764	NaN	2161735.6150708	2161736.13162573
50	22	0	0	90	36.1581920903955	36.241610738255	6	0.200013215951622	2	5	3	NaN	1	5	0.583423467416068	1	1	NaN	209	4	20	1	121	221	321	NaN	521	0.050778569187969	1	1	NaN	2161737.0317566	NaN	2161738.0153217	2161738.53186403
50	22	0	0	90	36.1581920903955	36.241610738255	13	0.43336196789518	2	6	1	NaN	1	4	0.583423467416068	1	1	NaN	210	4	21	1	121	221	321	NaN	521	0.107837669085711	2	0	NaN	2161739.3986913	NaN	2161740.3822317	2161740.89877323
50	22	0	0	90	36.1581920903955	36.241610738255	10	0.333355359919369	2	8	1	NaN	2	4	0.583423467416068	1	1	NaN	211	4	22	1	121	221	321	NaN	521	0.322176821529865	2	1	NaN	2161741.8323914	NaN	2161742.8156796	2161743.33234238
50	22	0	0	90	36.1581920903955	36.241610738255	16	0.533368575870991	2	7	1	NaN	2	3	0.583423467416068	1	1	NaN	212	4	23	1	121	221	321	NaN	521	0.560762121807784	2	1	NaN	2161744.4658782	NaN	2161745.4493877	2161745.96593528
50	22	0	0	90	36.1581920903955	36.241610738255	12	0.400026431903243	2	5	1	NaN	1	3	0.583423467416068	1	1	NaN	213	4	24	1	121	221	321	NaN	521	0.653276026714593	1	1	NaN	2161747.3328987	NaN	2161748.3163235	2161748.83288727
50	22	0	0	90	36.1581920903955	36.241610738255	13	0.43336196789518	2	10	4	NaN	2	5	0.583423467416068	1	1	NaN	214	4	25	1	121	221	321	NaN	521	0.303031768649817	2	1	NaN	2161750.2998846	NaN	2161751.2832804	2161751.79983243
50	22	0	0	90	36.1581920903955	36.241610738255	25	0.833388399798423	2	6	1	NaN	1	5	0.583423467416068	1	1	NaN	215	4	26	1	121	221	321	NaN	521	0.518162521533668	1	1	NaN	2161752.9168222	NaN	2161753.9002069	2161754.41676638
50	22	0	0	90	36.1581920903955	36.241610738255	11	0.366690895911306	2	6	2	NaN	1	3	0.583423467416068	1	1	NaN	216	4	27	1	121	221	321	NaN	521	0.700515521690249	1	1	NaN	2161755.7504697	NaN	2161756.7338264	2161757.25036998
50	22	0	0	90	36.1581920903955	36.241610738255	13	0.43336196789518	2	5	2	NaN	1	5	0.583423467416068	1	1	NaN	217	4	28	1	121	221	321	NaN	521	0.611250969115645	2	0	NaN	2161758.7673852	NaN	2161759.7507748	2161760.26733323
50	22	0	0	90	36.1581920903955	36.241610738255	24	0.800052863806486	2	3	2	NaN	1	4	0.583423467416068	1	1	NaN	218	4	29	1	121	221	321	NaN	521	0.55839761113748	2	0	NaN	2161761.684333	NaN	2161762.6677286	2161763.18428439
50	22	0	0	90	36.1581920903955	36.241610738255	6	0.200013215951622	2	1	2	NaN	1	4	0.583423467416068	1	1	NaN	219	4	30	1	121	221	321	NaN	521	0.0113938320428133	1	1	NaN	2161764.5512911	NaN	2161765.5347087	2161766.05124837
50	22	0	0	90	36.1581920903955	36.241610738255	14	0.466697503887117	2	6	5	NaN	1	3	0.583423467416068	1	1	NaN	220	4	31	1	121	221	321	NaN	521	0.765802174340934	2	0	NaN	2161766.8848498	NaN	2161767.8683368	2161768.38479963
50	22	0	0	90	36.1581920903955	36.241610738255	23	0.766717327814549	2	1	4	NaN	1	3	0.583423467416068	1	1	NaN	221	4	32	1	121	221	321	NaN	521	0.890139821916819	1	1	NaN	2161769.9684824	NaN	2161770.9518891	2161771.46844208
50	22	0	0	90	36.1581920903955	36.241610738255	8	0.266684287935495	2	5	5	NaN	1	3	0.583423467416068	1	1	NaN	222	4	33	1	121	221	321	NaN	521	1.09774387441576	1	1	NaN	2161773.1687922	NaN	2161774.1522428	2161774.66875043
50	22	0	0	90	36.1581920903955	36.241610738255	6	0.200013215951622	2	2	5	NaN	1	5	0.583423467416068	1	1	NaN	223	4	34	1	121	221	321	NaN	521	0.74008352169767	1	1	NaN	2161776.9025056	NaN	2161777.8859014	2161778.40246188
50	22	0	0	90	36.1581920903955	36.241610738255	17	0.566704111862928	2	1	3	NaN	1	3	0.583423467416068	1	1	NaN	224	4	35	1	121	221	321	NaN	521	0.45787512185052	1	1	NaN	2161779.9526907	NaN	2161780.9362123	2161781.45276018
50	22	0	0	90	36.1581920903955	36.241610738255	0	0	1	11	2	NaN	2	3	0.583423467416068	1	1	NaN	225	4	36	1	111	211	311	NaN	511	0.307184468954802	2	1	NaN	2161782.7197606	NaN	2161783.7031479	2161784.21968893
50	22	0	0	90	36.1581920903955	36.241610738255	24	0.800052863806486	2	5	2	NaN	1	4	0.583423467416068	1	1	NaN	226	4	37	1	121	221	321	NaN	521	0.289199016522616	1	1	NaN	2161785.3533285	NaN	2161786.336745	2161786.85328138
50	22	0	0	90	36.1581920903955	36.241610738255	20	0.666710719838738	2	10	6	NaN	2	4	0.583423467416068	1	1	NaN	227	4	38	1	121	221	321	NaN	521	0.369310521520674	2	1	NaN	2161787.9535938	NaN	2161788.9369849	2161789.45354458
50	22	0	0	90	36.1581920903955	36.241610738255	14	0.466697503887117	2	3	1	NaN	1	3	0.583423467416068	1	1	NaN	228	4	39	1	121	221	321	NaN	521	0.357540869154036	1	1	NaN	2161790.637178	NaN	2161791.6205843	2161792.13713323
50	22	0	0	90	36.1581920903955	36.241610738255	13	0.43336196789518	2	7	4	NaN	2	3	0.583423467416068	1	1	NaN	229	4	40	1	121	221	321	NaN	521	0.026637174654752	2	1	NaN	2161793.3041206	NaN	2161794.2875353	2161794.80407543
50	22	0	0	90	36.1581920903955	36.241610738255	14	0.466697503887117	2	7	5	NaN	2	5	0.583423467416068	1	1	NaN	230	4	41	1	121	221	321	NaN	521	0.516963979229331	2	1	NaN	2161795.6375355	NaN	2161796.6210738	2161797.13763192
50	22	0	0	90	36.1581920903955	36.241610738255	0	0	1	1	5	NaN	1	4	0.583423467416068	1	1	NaN	231	4	42	1	111	211	311	NaN	511	0.259376921691	1	1	NaN	2161798.4713458	NaN	2161799.4546961	2161799.97125088
50	22	0	0	90	36.1581920903955	36.241610738255	6	0.200013215951622	2	7	2	NaN	2	4	0.583423467416068	1	1	NaN	232	4	43	1	121	221	321	NaN	521	0.556310421787202	2	1	NaN	2161801.0380863	NaN	2161802.021604	2161802.53816568
50	22	0	0	90	36.1581920903955	36.241610738255	11	0.366690895911306	2	6	1	NaN	1	3	0.583423467416068	1	1	NaN	233	4	44	1	121	221	321	NaN	521	0.193577368743718	1	1	NaN	2161803.9051631	NaN	2161804.8885494	2161805.40510583
50	22	0	0	90	36.1581920903955	36.241610738255	12	0.400026431903243	2	12	1	NaN	2	3	0.583423467416068	1	1	NaN	234	4	45	1	121	221	321	NaN	521	0.453123811166734	2	1	NaN	2161806.4054204	NaN	2161807.3888066	2161807.90534929
50	22	0	0	90	36.1581920903955	36.241610738255	17	0.566704111862928	2	11	3	NaN	2	5	0.583423467416068	1	1	NaN	235	4	46	1	121	221	321	NaN	521	0.734497768804431	2	1	NaN	2161809.1723283	NaN	2161810.1557425	2161810.67229533
50	22	0	0	90	36.1581920903955	36.241610738255	17	0.566704111862928	2	3	5	NaN	1	5	0.583423467416068	1	1	NaN	236	4	47	1	121	221	321	NaN	521	0.116090669296682	1	1	NaN	2161812.2226593	NaN	2161813.2060481	2161813.72259293
50	22	0	0	90	36.1581920903955	36.241610738255	11	0.366690895911306	2	1	5	NaN	1	3	0.583423467416068	1	1	NaN	237	4	48	1	121	221	321	NaN	521	0.202538068871945	1	1	NaN	2161814.6562273	NaN	2161815.6396015	2161816.15617873
50	22	0	0	90	36.1581920903955	36.241610738255	12	0.400026431903243	2	11	4	NaN	2	4	0.583423467416068	1	1	NaN	238	4	49	1	121	221	321	NaN	521	0.445546069182456	2	1	NaN	2161817.1731287	NaN	2161818.1565174	2161818.67307963
50	22	0	0	90	36.1581920903955	36.241610738255	0	0	1	5	6	NaN	1	5	0.583423467416068	1	1	NaN	239	4	50	1	111	211	311	NaN	511	0.1515081692487	1	1	NaN	2161819.9234005	NaN	2161820.9067962	2161821.42334953
50	22	0	0	90	36.1581920903955	36.241610738255	19	0.633375183846801	2	10	2	NaN	2	5	0.583423467416068	1	1	NaN	240	4	51	1	121	221	321	NaN	521	0.300425521563739	2	1	NaN	2161822.3903174	NaN	2161823.3737271	2161823.89026668
50	22	0	0	90	36.1581920903955	36.241610738255	17	0.566704111862928	2	9	1	NaN	2	3	0.583423467416068	1	1	NaN	241	4	52	1	121	221	321	NaN	521	0.507483774330467	1	0	NaN	2161825.0072282	NaN	2161825.9906669	2161826.50719063
50	22	0	0	90	36.1581920903955	36.241610738255	14	0.466697503887117	2	9	6	NaN	2	5	0.583423467416068	1	1	NaN	242	4	53	1	121	221	321	NaN	521	0.562450879719108	2	1	NaN	2161827.8241817	NaN	2161828.8075814	2161829.32413552
50	22	0	0	90	36.1581920903955	36.241610738255	8	0.266684287935495	2	5	6	NaN	1	5	0.583423467416068	1	1	NaN	243	4	54	1	121	221	321	NaN	521	0.502904369030148	2	0	NaN	2161830.7077897	NaN	2161831.6911878	2161832.20774283
50	22	0	0	90	36.1581920903955	36.241610738255	12	0.400026431903243	2	7	4	NaN	2	5	0.583423467416068	1	1	NaN	244	4	55	1	121	221	321	NaN	521	0.302006221376359	2	1	NaN	2161833.5245931	NaN	2161834.5081224	2161835.02469998
50	22	0	0	90	36.1581920903955	36.241610738255	7	0.233348751943558	2	1	2	NaN	1	3	0.583423467416068	1	1	NaN	245	4	56	1	121	221	321	NaN	521	0.972697221674025	1	1	NaN	2161836.1583133	NaN	2161837.1417288	2161837.65828328
50	22	0	0	90	36.1581920903955	36.241610738255	10	0.333355359919369	2	12	5	NaN	2	4	0.583423467416068	1	1	NaN	246	4	57	1	121	221	321	NaN	521	0.416845221538097	1	0	NaN	2161839.4420741	NaN	2161840.4253985	2161840.94194438
50	22	0	0	90	36.1581920903955	36.241610738255	14	0.466697503887117	2	10	1	NaN	2	5	0.583423467416068	1	1	NaN	247	4	58	1	121	221	321	NaN	521	0.435240121558309	2	1	NaN	2161842.1755951	NaN	2161843.1589871	2161843.67554318
50	22	0	0	90	36.1581920903955	36.241610738255	18	0.600039647854865	2	3	2	NaN	1	4	0.583423467416068	1	1	NaN	248	4	59	1	121	221	321	NaN	521	0.284964168909937	1	1	NaN	2161844.9257505	NaN	2161845.9092661	2161846.42580743
50	22	0	0	90	36.1581920903955	36.241610738255	22	0.733381791822612	2	5	6	NaN	1	4	0.583423467416068	1	1	NaN	249	4	60	1	121	221	321	NaN	521	0.314087469130754	1	1	NaN	2161847.592741	NaN	2161848.5761951	2161849.09274863
50	22	0	0	90	36.1581920903955	36.241610738255	14	0.466697503887117	2	3	3	NaN	1	5	0.583423467416068	1	1	NaN	250	4	61	1	121	221	321	NaN	521	0.768268716521561	1	1	NaN	2161850.2263703	NaN	2161851.2097828	2161851.72632918
50	22	0	0	90	36.1581920903955	36.241610738255	18	0.600039647854865	2	1	6	NaN	1	3	0.583423467416068	1	1	NaN	251	4	62	1	121	221	321	NaN	521	1.14070563204587	1	1	NaN	2161853.3100211	NaN	2161854.2934504	2161854.80998037
50	22	0	0	90	36.1581920903955	36.241610738255	25	0.833388399798423	2	12	1	NaN	2	4	0.583423467416068	1	1	NaN	252	4	63	1	121	221	321	NaN	521	0.338723216205835	2	1	NaN	2161856.7603532	NaN	2161857.7437622	2161858.26031168
50	22	0	0	90	36.1581920903955	36.241610738255	11	0.366690895911306	2	5	6	NaN	1	4	0.583423467416068	1	1	NaN	253	5	1	1	121	221	321	NaN	521	1.50250182161108	1	1	NaN	2161870.0283334	NaN	2161871.0117404	2161871.52828158
50	22	0	0	90	36.1581920903955	36.241610738255	19	0.633375183846801	2	3	1	NaN	1	3	0.583423467416068	1	1	NaN	254	5	2	1	121	221	321	NaN	521	0.7973015694879	1	1	NaN	2161873.8454397	NaN	2161874.8288258	2161875.34532533
50	22	0	0	90	36.1581920903955	36.241610738255	0	0	1	2	1	NaN	1	5	0.583423467416068	1	1	NaN	255	5	3	1	111	211	311	NaN	511	0.753018694464117	1	1	NaN	2161876.9455702	NaN	2161877.9291008	2161878.44564221
50	22	0	0	90	36.1581920903955	36.241610738255	23	0.766717327814549	2	6	3	NaN	1	3	0.583423467416068	1	1	NaN	256	5	4	1	121	221	321	NaN	521	0.593531521502882	1	1	NaN	2161880.129326	NaN	2161881.1127204	2161881.62927478
50	22	0	0	90	36.1581920903955	36.241610738255	24	0.800052863806486	2	8	3	NaN	2	5	0.583423467416068	1	1	NaN	257	5	5	1	121	221	321	NaN	521	0.108830921817571	2	1	NaN	2161883.0296981	NaN	2161884.0130154	2161884.52956168
50	22	0	0	90	36.1581920903955	36.241610738255	18	0.600039647854865	2	12	6	NaN	2	5	0.583423467416068	1	1	NaN	258	5	6	1	121	221	321	NaN	521	0.468574521597475	2	1	NaN	2161885.4465058	NaN	2161886.4299226	2161886.94647208
50	22	0	0	90	36.1581920903955	36.241610738255	9	0.300019823927432	2	9	3	NaN	2	5	0.583423467416068	1	1	NaN	259	5	7	1	121	221	321	NaN	521	0.0103924213908613	2	1	NaN	2161888.2301177	NaN	2161889.2135089	2161889.73008018
50	22	0	0	90	36.1581920903955	36.241610738255	6	0.200013215951622	2	11	2	NaN	2	3	0.583423467416068	1	1	NaN	260	5	8	1	121	221	321	NaN	521	0.455254069063812	2	1	NaN	2161890.5637447	NaN	2161891.5470699	2161892.06363133
50	22	0	0	90	36.1581920903955	36.241610738255	0	0	1	8	1	NaN	2	5	0.583423467416068	1	1	NaN	261	5	9	1	111	211	311	NaN	511	0.288315516430885	2	1	NaN	2161893.330725	NaN	2161894.3140296	2161894.83056928
50	22	0	0	90	36.1581920903955	36.241610738255	18	0.600039647854865	2	2	4	NaN	1	5	0.583423467416068	1	1	NaN	262	5	10	1	121	221	321	NaN	521	0.271806221455336	1	1	NaN	2161895.9308967	NaN	2161896.9142674	2161897.43082708
50	22	0	0	90	36.1581920903955	36.241610738255	20	0.666710719838738	2	12	5	NaN	2	5	0.583423467416068	1	1	NaN	263	5	11	1	121	221	321	NaN	521	0.48826552182436	2	1	NaN	2161898.5144765	NaN	2161899.497874	2161900.01442608
50	22	0	0	90	36.1581920903955	36.241610738255	18	0.600039647854865	2	8	4	NaN	2	5	0.583423467416068	1	1	NaN	264	5	12	1	121	221	321	NaN	521	1.2562004220672	2	1	NaN	2161901.3147274	NaN	2161902.2981472	2161902.81469048
50	22	0	0	90	36.1581920903955	36.241610738255	6	0.200013215951622	2	11	3	NaN	2	3	0.583423467416068	1	1	NaN	265	5	13	1	121	221	321	NaN	521	0.241297821514308	2	1	NaN	2161904.8817548	NaN	2161905.865151	2161906.38171658
50	22	0	0	90	36.1581920903955	36.241610738255	15	0.500033039879054	2	11	3	NaN	2	5	0.583423467416068	1	1	NaN	266	5	14	1	121	221	321	NaN	521	1.14685716899112	2	1	NaN	2161907.432016	NaN	2161908.4154066	2161908.93196733
50	22	0	0	90	36.1581920903955	36.241610738255	9	0.300019823927432	2	4	1	NaN	1	3	0.583423467416068	1	1	NaN	267	5	15	1	121	221	321	NaN	521	1.25144172133878	2	0	NaN	2161911.0155822	NaN	2161911.9991515	2161912.51565238
50	22	0	0	90	36.1581920903955	36.241610738255	9	0.300019823927432	2	4	4	NaN	1	4	0.583423467416068	1	1	NaN	268	5	16	1	121	221	321	NaN	521	0.010458021890372	1	1	NaN	2161914.5827211	NaN	2161915.5661144	2161916.08266098
50	22	0	0	90	36.1581920903955	36.241610738255	15	0.500033039879054	2	9	6	NaN	2	3	0.583423467416068	1	1	NaN	269	5	17	1	121	221	321	NaN	521	0.271548121701926	2	1	NaN	2161916.8996276	NaN	2161917.8830191	2161918.39957378
50	22	0	0	90	36.1581920903955	36.241610738255	7	0.233348751943558	2	12	4	NaN	2	5	0.583423467416068	1	1	NaN	270	5	18	1	121	221	321	NaN	521	0.0796335423365235	2	1	NaN	2161919.4830828	NaN	2161920.4665985	2161920.98315476
50	22	0	0	90	36.1581920903955	36.241610738255	18	0.600039647854865	2	10	3	NaN	2	5	0.583423467416068	1	1	NaN	271	5	19	1	121	221	321	NaN	521	2.37554506910965	2	1	NaN	2161921.8834302	NaN	2161922.8668376	2161923.38337823
50	22	0	0	90	36.1581920903955	36.241610738255	11	0.366690895911306	2	10	1	NaN	2	5	0.583423467416068	1	1	NaN	272	5	20	1	121	221	321	NaN	521	0.643638069275767	2	1	NaN	2161926.5672341	NaN	2161927.5506323	2161928.06717323
50	22	0	0	90	36.1581920903955	36.241610738255	14	0.466697503887117	2	2	6	NaN	1	4	0.583423467416068	1	1	NaN	273	5	21	1	121	221	321	NaN	521	1.02669392153621	1	1	NaN	2161929.5841656	NaN	2161930.5675842	2161931.08414478
50	22	0	0	90	36.1581920903955	36.241610738255	14	0.466697503887117	2	6	5	NaN	1	4	0.583423467416068	1	1	NaN	274	5	22	1	121	221	321	NaN	521	0.148425274528563	1	1	NaN	2161932.9345131	NaN	2161933.9179199	2161934.43447863
50	22	0	0	90	36.1581920903955	36.241610738255	21	0.700046255830675	2	3	3	NaN	1	5	0.583423467416068	1	1	NaN	275	5	23	1	121	221	321	NaN	521	1.01006062189117	1	1	NaN	2161935.3846306	NaN	2161936.3681719	2161936.88471888
50	22	0	0	90	36.1581920903955	36.241610738255	7	0.233348751943558	2	12	4	NaN	2	5	0.583423467416068	1	1	NaN	276	5	24	1	121	221	321	NaN	521	0.468826169148088	2	1	NaN	2161938.7184164	NaN	2161939.7018426	2161940.21837373
50	22	0	0	90	36.1581920903955	36.241610738255	6	0.200013215951622	2	10	3	NaN	2	5	0.583423467416068	1	1	NaN	277	5	25	1	121	221	321	NaN	521	0.652864521834999	2	1	NaN	2161941.5020166	NaN	2161942.4854354	2161943.00198238
50	22	0	0	90	36.1581920903955	36.241610738255	7	0.233348751943558	2	8	3	NaN	2	4	0.583423467416068	1	1	NaN	278	5	26	1	121	221	321	NaN	521	1.54994232160971	2	1	NaN	2161944.4689778	NaN	2161945.4524342	2161945.96893178
50	22	0	0	90	36.1581920903955	36.241610738255	25	0.833388399798423	2	6	4	NaN	1	4	0.583423467416068	1	1	NaN	279	5	27	1	121	221	321	NaN	521	0.570874769240618	1	1	NaN	2161948.3360401	NaN	2161949.3194437	2161949.83598653
50	22	0	0	90	36.1581920903955	36.241610738255	8	0.266684287935495	2	4	3	NaN	1	5	0.583423467416068	1	1	NaN	280	5	28	1	121	221	321	NaN	521	1.0234520691447	1	1	NaN	2161951.2196561	NaN	2161952.2030455	2161952.71960453
50	22	0	0	90	36.1581920903955	36.241610738255	15	0.500033039879054	2	9	5	NaN	2	5	0.583423467416068	1	1	NaN	281	5	29	1	121	221	321	NaN	521	0.0103936213999987	2	1	NaN	2161954.5532967	NaN	2161955.5367607	2161956.05326308
50	22	0	0	90	36.1581920903955	36.241610738255	24	0.800052863806486	2	2	5	NaN	1	5	0.583423467416068	1	1	NaN	282	5	30	1	121	221	321	NaN	521	0.412008721381426	1	1	NaN	2161956.8868665	NaN	2161957.8702802	2161958.38682968
50	22	0	0	90	36.1581920903955	36.241610738255	22	0.733381791822612	2	11	5	NaN	2	4	0.583423467416068	1	1	NaN	283	5	31	1	121	221	321	NaN	521	0.782636721618474	1	0	NaN	2161959.6204699	NaN	2161960.603876	2161961.12043238
50	22	0	0	90	36.1581920903955	36.241610738255	24	0.800052863806486	2	1	3	NaN	1	4	0.583423467416068	1	1	NaN	284	5	32	1	121	221	321	NaN	521	0.394324868917465	1	1	NaN	2161962.7206273	NaN	2161963.7042206	2161964.22073913
50	22	0	0	90	36.1581920903955	36.241610738255	14	0.466697503887117	2	11	1	NaN	2	5	0.583423467416068	1	1	NaN	285	5	33	1	121	221	321	NaN	521	0.357862074393779	2	1	NaN	2161965.4210186	NaN	2161966.4044436	2161966.92100313
50	22	0	0	90	36.1581920903955	36.241610738255	23	0.766717327814549	2	12	2	NaN	2	3	0.583423467416068	1	1	NaN	286	5	34	1	121	221	321	NaN	521	0.371322769206017	2	1	NaN	2161968.0879697	NaN	2161969.0713569	2161969.58792433
50	22	0	0	90	36.1581920903955	36.241610738255	22	0.733381791822612	2	1	4	NaN	1	4	0.583423467416068	1	1	NaN	287	5	35	1	121	221	321	NaN	521	0.303285721689463	1	1	NaN	2161970.7715657	NaN	2161971.7550188	2161972.27153298
50	22	0	0	90	36.1581920903955	36.241610738255	21	0.700046255830675	2	6	5	NaN	1	3	0.583423467416068	1	1	NaN	288	5	36	1	121	221	321	NaN	521	0.286599521990865	1	1	NaN	2161973.3885098	NaN	2161974.3719159	2161974.88844928
50	22	0	0	90	36.1581920903955	36.241610738255	10	0.333355359919369	2	2	3	NaN	1	3	0.583423467416068	1	1	NaN	289	5	37	1	121	221	321	NaN	521	0.010389621835202	1	1	NaN	2161975.9886252	NaN	2161976.9721622	2161977.48870828
50	22	0	0	90	36.1581920903955	36.241610738255	12	0.400026431903243	2	10	5	NaN	2	3	0.583423467416068	1	1	NaN	290	5	38	1	121	221	321	NaN	521	0.849380521569401	2	1	NaN	2161978.3056439	NaN	2161979.2890533	2161979.80559988
50	22	0	0	90	36.1581920903955	36.241610738255	20	0.666710719838738	2	11	1	NaN	2	5	0.583423467416068	1	1	NaN	291	5	39	1	121	221	321	NaN	521	0.666241721715778	2	1	NaN	2161981.4726328	NaN	2161982.4560323	2161982.97258018
50	22	0	0	90	36.1581920903955	36.241610738255	25	0.833388399798423	2	8	6	NaN	2	3	0.583423467416068	1	1	NaN	292	5	40	1	121	221	321	NaN	521	0.274636569432914	2	1	NaN	2161984.4562394	NaN	2161985.439662	2161985.95620213
50	22	0	0	90	36.1581920903955	36.241610738255	19	0.633375183846801	2	10	2	NaN	2	5	0.583423467416068	1	1	NaN	293	5	41	1	121	221	321	NaN	521	1.31507316883653	2	1	NaN	2161987.0398656	NaN	2161988.0232337	2161988.53978933
50	22	0	0	90	36.1581920903955	36.241610738255	15	0.500033039879054	2	3	6	NaN	1	4	0.583423467416068	1	1	NaN	294	5	42	1	121	221	321	NaN	521	0.121068694628775	1	1	NaN	2161990.6733954	NaN	2161991.6569275	2161992.17349621
50	22	0	0	90	36.1581920903955	36.241610738255	19	0.633375183846801	2	8	4	NaN	2	4	0.583423467416068	1	1	NaN	295	5	43	1	121	221	321	NaN	521	0.010394221637398	2	1	NaN	2161993.1070873	NaN	2161994.0905179	2161994.60704918
50	22	0	0	90	36.1581920903955	36.241610738255	24	0.800052863806486	2	2	4	NaN	1	3	0.583423467416068	1	1	NaN	296	5	44	1	121	221	321	NaN	521	0.27490686904639	2	0	NaN	2161995.423924	NaN	2161996.4074103	2161996.92394563
50	22	0	0	90	36.1581920903955	36.241610738255	17	0.566704111862928	2	8	1	NaN	2	3	0.583423467416068	1	1	NaN	297	5	45	1	121	221	321	NaN	521	0.243167021777481	2	1	NaN	2161998.0075902	NaN	2161998.990982	2161999.50753918
50	22	0	0	90	36.1581920903955	36.241610738255	22	0.733381791822612	2	6	2	NaN	1	5	0.583423467416068	1	1	NaN	298	5	46	1	121	221	321	NaN	521	0.0104028689675033	1	1	NaN	2162000.5578287	NaN	2162001.541278	2162002.05779623
50	22	0	0	90	36.1581920903955	36.241610738255	21	0.700046255830675	2	7	3	NaN	2	5	0.583423467416068	1	1	NaN	299	5	47	1	121	221	321	NaN	521	0.94430512143299	1	0	NaN	2162002.8747283	NaN	2162003.8581502	2162004.37468158
50	22	0	0	90	36.1581920903955	36.241610738255	17	0.566704111862928	2	9	5	NaN	2	4	0.583423467416068	1	1	NaN	300	5	48	1	121	221	321	NaN	521	0.220885421615094	1	0	NaN	2162006.1417119	NaN	2162007.1251162	2162007.64166748
50	22	0	0	90	36.1581920903955	36.241610738255	8	0.266684287935495	2	8	2	NaN	2	3	0.583423467416068	1	1	NaN	301	5	49	1	121	221	321	NaN	521	0.263582927174866	2	1	NaN	2162008.6753038	NaN	2162009.658696	2162010.17526127
50	22	0	0	90	36.1581920903955	36.241610738255	20	0.666710719838738	2	8	2	NaN	2	3	0.583423467416068	1	1	NaN	302	5	50	1	121	221	321	NaN	521	0.768104621674865	1	0	NaN	2162011.2588923	NaN	2162012.2422948	2162012.75884048
50	22	0	0	90	36.1581920903955	36.241610738255	7	0.233348751943558	2	5	5	NaN	1	5	0.583423467416068	1	1	NaN	303	5	51	1	121	221	321	NaN	521	0.305100122001022	1	1	NaN	2162014.6258872	NaN	2162015.6092855	2162016.12584288
50	22	0	0	90	36.1581920903955	36.241610738255	16	0.533368575870991	2	9	2	NaN	2	5	0.583423467416068	1	1	NaN	304	5	52	1	121	221	321	NaN	521	0.0721380687318742	2	1	NaN	2162017.2428146	NaN	2162018.2262127	2162018.74275773
50	22	0	0	90	36.1581920903955	36.241610738255	17	0.566704111862928	2	10	5	NaN	2	5	0.583423467416068	1	1	NaN	305	5	53	1	121	221	321	NaN	521	0.408517521806061	2	1	NaN	2162019.6262849	NaN	2162020.6097861	2162021.12633368
50	22	0	0	90	36.1581920903955	36.241610738255	11	0.366690895911306	2	3	6	NaN	1	5	0.583423467416068	1	1	NaN	306	5	54	1	121	221	321	NaN	521	0.939933768939227	1	1	NaN	2162022.3431866	NaN	2162023.3267115	2162023.84325893
50	22	0	0	90	36.1581920903955	36.241610738255	21	0.700046255830675	2	2	4	NaN	1	4	0.583423467416068	1	1	NaN	307	5	55	1	121	221	321	NaN	521	1.34563917433843	1	1	NaN	2162025.5936334	NaN	2162026.5770238	2162027.09358643
50	22	0	0	90	36.1581920903955	36.241610738255	13	0.43336196789518	2	11	6	NaN	2	5	0.583423467416068	1	1	NaN	308	5	56	1	121	221	321	NaN	521	0.719328842125833	1	0	NaN	2162029.2438967	NaN	2162030.2274191	2162030.74395126
50	22	0	0	90	36.1581920903955	36.241610738255	20	0.666710719838738	2	4	4	NaN	1	3	0.583423467416068	1	1	NaN	309	5	57	1	121	221	321	NaN	521	0.773295669350773	1	1	NaN	2162032.2776445	NaN	2162033.2610319	2162033.77756853
50	22	0	0	90	36.1581920903955	36.241610738255	13	0.43336196789518	2	1	6	NaN	1	4	0.583423467416068	1	1	NaN	310	5	58	1	121	221	321	NaN	521	0.329866121523082	1	1	NaN	2162035.3612503	NaN	2162036.3446603	2162036.86121208
50	22	0	0	90	36.1581920903955	36.241610738255	23	0.766717327814549	2	8	6	NaN	2	5	0.583423467416068	1	1	NaN	311	5	59	1	121	221	321	NaN	521	0.551607121713459	2	1	NaN	2162038.0115416	NaN	2162038.994918	2162039.51146768
50	22	0	0	90	36.1581920903955	36.241610738255	11	0.366690895911306	2	8	2	NaN	2	4	0.583423467416068	1	1	NaN	312	5	60	1	121	221	321	NaN	521	0.420549668837339	2	1	NaN	2162040.8784823	NaN	2162041.8618724	2162042.37841633
50	22	0	0	90	36.1581920903955	36.241610738255	22	0.733381791822612	2	10	2	NaN	2	5	0.583423467416068	1	1	NaN	313	5	61	1	121	221	321	NaN	521	0.382948969025165	2	1	NaN	2162043.612077	NaN	2162044.5954647	2162045.11202073
50	22	0	0	90	36.1581920903955	36.241610738255	25	0.833388399798423	2	2	1	NaN	1	4	0.583423467416068	1	1	NaN	314	5	62	1	121	221	321	NaN	521	0.0507431691512465	1	1	NaN	2162046.312336	NaN	2162047.2957433	2162047.81228413
50	22	0	0	90	36.1581920903955	36.241610738255	17	0.566704111862928	2	7	6	NaN	2	4	0.583423467416068	1	1	NaN	315	5	63	1	121	221	321	NaN	521	0.363789321389049	2	1	NaN	2162048.6792297	NaN	2162049.6626736	2162050.17919058
50	22	0	0	90	36.1581920903955	36.241610738255	13	0.43336196789518	2	3	6	NaN	1	5	0.583423467416068	1	1	NaN	316	6	1	1	121	221	321	NaN	521	1.70313462149352	1	1	NaN	2162060.7637418	NaN	2162061.7471674	2162062.26370538
50	22	0	0	90	36.1581920903955	36.241610738255	20	0.666710719838738	2	11	5	NaN	2	5	0.583423467416068	1	1	NaN	317	6	2	1	121	221	321	NaN	521	0.982639621943235	2	1	NaN	2162064.7808206	NaN	2162065.7642138	2162066.28077508
50	22	0	0	90	36.1581920903955	36.241610738255	24	0.800052863806486	2	5	2	NaN	1	4	0.583423467416068	1	1	NaN	318	6	3	1	121	221	321	NaN	521	0.602091669104993	1	1	NaN	2162068.0811318	NaN	2162069.0645489	2162069.58109113
50	22	0	0	90	36.1581920903955	36.241610738255	16	0.533368575870991	2	6	5	NaN	1	4	0.583423467416068	1	1	NaN	319	6	4	1	121	221	321	NaN	521	0.836557389702648	1	1	NaN	2162070.9980986	NaN	2162071.9815034	2162072.49805561
50	22	0	0	90	36.1581920903955	36.241610738255	20	0.666710719838738	2	7	5	NaN	2	3	0.583423467416068	1	1	NaN	320	6	5	1	121	221	321	NaN	521	1.27864256920293	1	0	NaN	2162074.1483984	NaN	2162075.1318048	2162075.64835253
50	22	0	0	90	36.1581920903955	36.241610738255	24	0.800052863806486	2	9	6	NaN	2	4	0.583423467416068	1	1	NaN	321	6	6	1	121	221	321	NaN	521	0.478574074339122	2	1	NaN	2162077.7486388	NaN	2162078.732183	2162079.24871513
50	22	0	0	90	36.1581920903955	36.241610738255	10	0.333355359919369	2	10	1	NaN	2	5	0.583423467416068	1	1	NaN	322	6	7	1	121	221	321	NaN	521	0.134164721705019	2	1	NaN	2162080.5491132	NaN	2162081.532448	2162082.04899338
50	22	0	0	90	36.1581920903955	36.241610738255	12	0.400026431903243	2	8	6	NaN	2	3	0.583423467416068	1	1	NaN	323	6	8	1	121	221	321	NaN	521	0.427880874369293	2	1	NaN	2162082.999292	NaN	2162083.9826701	2162084.49923443
50	22	0	0	90	36.1581920903955	36.241610738255	8	0.266684287935495	2	9	2	NaN	2	4	0.583423467416068	1	1	NaN	324	6	9	1	121	221	321	NaN	521	0.398476221598685	1	0	NaN	2162085.7328748	NaN	2162086.7162873	2162087.23283998
50	22	0	0	90	36.1581920903955	36.241610738255	16	0.533368575870991	2	10	6	NaN	2	4	0.583423467416068	1	1	NaN	325	6	10	1	121	221	321	NaN	521	0.409567021764815	2	1	NaN	2162088.4332454	NaN	2162089.4165426	2162089.93310598
50	22	0	0	90	36.1581920903955	36.241610738255	11	0.366690895911306	2	4	1	NaN	1	3	0.583423467416068	1	1	NaN	326	6	11	1	121	221	321	NaN	521	0.53284062165767	1	1	NaN	2162091.1499435	NaN	2162092.1334923	2162092.65003638
50	22	0	0	90	36.1581920903955	36.241610738255	21	0.700046255830675	2	9	3	NaN	2	4	0.583423467416068	1	1	NaN	327	6	12	1	121	221	321	NaN	521	1.09050876926631	2	1	NaN	2162094.0003571	NaN	2162094.983756	2162095.50033663
50	22	0	0	90	36.1581920903955	36.241610738255	15	0.500033039879054	2	3	4	NaN	1	5	0.583423467416068	1	1	NaN	328	6	13	1	121	221	321	NaN	521	0.35474066901952	1	1	NaN	2162097.4007	NaN	2162098.3840881	2162098.90066403
50	22	0	0	90	36.1581920903955	36.241610738255	10	0.333355359919369	2	5	4	NaN	1	4	0.583423467416068	1	1	NaN	329	6	14	1	121	221	321	NaN	521	0.551583658438176	1	1	NaN	2162100.0676378	NaN	2162101.0510175	2162101.56756884
50	22	0	0	90	36.1581920903955	36.241610738255	21	0.700046255830675	2	11	6	NaN	2	5	0.583423467416068	1	1	NaN	330	6	15	1	121	221	321	NaN	521	0.0285058687441051	2	1	NaN	2162102.9345838	NaN	2162103.9179483	2162104.43452103
50	22	0	0	90	36.1581920903955	36.241610738255	12	0.400026431903243	2	11	6	NaN	2	3	0.583423467416068	1	1	NaN	331	6	16	1	121	221	321	NaN	521	0.126267121639103	2	1	NaN	2162105.2848023	NaN	2162106.2682099	2162106.78475398
50	22	0	0	90	36.1581920903955	36.241610738255	20	0.666710719838738	2	7	4	NaN	2	5	0.583423467416068	1	1	NaN	332	6	17	1	121	221	321	NaN	521	0.364882421679795	2	1	NaN	2162107.7184017	NaN	2162108.7017829	2162109.21832908
50	22	0	0	90	36.1581920903955	36.241610738255	7	0.233348751943558	2	6	3	NaN	1	3	0.583423467416068	1	1	NaN	333	6	18	1	121	221	321	NaN	521	0.265466468874365	1	1	NaN	2162110.4019606	NaN	2162111.3853635	2162111.90191993
50	22	0	0	90	36.1581920903955	36.241610738255	8	0.266684287935495	2	3	6	NaN	1	3	0.583423467416068	1	1	NaN	334	6	19	1	121	221	321	NaN	521	0.233620621729642	1	1	NaN	2162112.9854306	NaN	2162113.9689698	2162114.48552108
50	22	0	0	90	36.1581920903955	36.241610738255	18	0.600039647854865	2	12	2	NaN	2	3	0.583423467416068	1	1	NaN	335	6	20	1	121	221	321	NaN	521	0.131400621961802	2	1	NaN	2162115.5357598	NaN	2162116.5191926	2162117.03576408
50	22	0	0	90	36.1581920903955	36.241610738255	14	0.466697503887117	2	12	1	NaN	2	5	0.583423467416068	1	1	NaN	336	6	21	1	121	221	321	NaN	521	1.32103946898133	2	1	NaN	2162117.9860446	NaN	2162118.9694333	2162119.48600423
50	22	0	0	90	36.1581920903955	36.241610738255	24	0.800052863806486	2	7	1	NaN	2	4	0.583423467416068	1	1	NaN	337	6	22	1	121	221	321	NaN	521	0.647395321633667	2	1	NaN	2162121.6197743	NaN	2162122.6031451	2162123.11969168
50	22	0	0	90	36.1581920903955	36.241610738255	14	0.466697503887117	2	5	3	NaN	1	4	0.583423467416068	1	1	NaN	338	6	23	1	121	221	321	NaN	521	0.232685569208115	1	1	NaN	2162124.58668	NaN	2162125.5701081	2162126.08665703
50	22	0	0	90	36.1581920903955	36.241610738255	23	0.766717327814549	2	4	6	NaN	1	4	0.583423467416068	1	1	NaN	339	6	24	1	121	221	321	NaN	521	0.49779487401247	1	1	NaN	2162127.1368035	NaN	2162128.1203653	2162128.63690193
50	22	0	0	90	36.1581920903955	36.241610738255	9	0.300019823927432	2	2	5	NaN	1	4	0.583423467416068	1	1	NaN	340	6	25	1	121	221	321	NaN	521	0.577267769258469	1	1	NaN	2162129.9538847	NaN	2162130.9373024	2162131.45384563
50	22	0	0	90	36.1581920903955	36.241610738255	15	0.500033039879054	2	12	2	NaN	2	5	0.583423467416068	1	1	NaN	341	6	26	1	121	221	321	NaN	521	1.79751686891541	2	1	NaN	2162132.8374846	NaN	2162133.8209081	2162134.33746233
50	22	0	0	90	36.1581920903955	36.241610738255	6	0.200013215951622	2	5	3	NaN	1	3	0.583423467416068	1	1	NaN	342	6	27	1	121	221	321	NaN	521	0.448647721670568	1	1	NaN	2162136.9545701	NaN	2162137.9379788	2162138.45454118
50	22	0	0	90	36.1581920903955	36.241610738255	11	0.366690895911306	2	1	5	NaN	1	4	0.583423467416068	1	1	NaN	343	6	28	1	121	221	321	NaN	521	0.449755274225026	1	1	NaN	2162139.7215195	NaN	2162140.7049292	2162141.22148413
50	22	0	0	90	36.1581920903955	36.241610738255	25	0.833388399798423	2	5	5	NaN	1	4	0.583423467416068	1	1	NaN	344	6	29	1	121	221	321	NaN	521	1.61067126924172	1	1	NaN	2162142.4885552	NaN	2162143.4718689	2162143.98841703
50	22	0	0	90	36.1581920903955	36.241610738255	18	0.600039647854865	2	6	6	NaN	1	3	0.583423467416068	1	1	NaN	345	6	30	1	121	221	321	NaN	521	1.62901462148875	1	1	NaN	2162146.4221879	NaN	2162147.4055731	2162147.92213248
50	22	0	0	90	36.1581920903955	36.241610738255	16	0.533368575870991	2	8	1	NaN	2	3	0.583423467416068	1	1	NaN	346	6	31	1	121	221	321	NaN	521	0.342638368718326	2	1	NaN	2162150.3724465	NaN	2162151.3559665	2162151.87252693
50	22	0	0	90	36.1581920903955	36.241610738255	7	0.233348751943558	2	3	6	NaN	1	5	0.583423467416068	1	1	NaN	347	6	32	1	121	221	321	NaN	521	0.292557321954519	1	1	NaN	2162153.0227238	NaN	2162154.0062451	2162154.52278138
50	22	0	0	90	36.1581920903955	36.241610738255	22	0.733381791822612	2	5	4	NaN	1	4	0.583423467416068	1	1	NaN	348	6	33	1	121	221	321	NaN	521	1.10037116892636	1	1	NaN	2162155.6231141	NaN	2162156.6064832	2162157.12304593
50	22	0	0	90	36.1581920903955	36.241610738255	0	0	1	3	6	NaN	1	4	0.583423467416068	1	1	NaN	349	6	34	1	111	211	311	NaN	511	0.322504169307649	2	0	NaN	2162159.0567536	NaN	2162160.0401554	2162160.55670553
50	22	0	0	90	36.1581920903955	36.241610738255	11	0.366690895911306	2	11	3	NaN	2	5	0.583423467416068	1	1	NaN	350	6	35	1	121	221	321	NaN	521	2.08874852163717	2	1	NaN	2162161.6903703	NaN	2162162.6737598	2162163.19031048
50	22	0	0	90	36.1581920903955	36.241610738255	23	0.766717327814549	2	1	5	NaN	1	5	0.583423467416068	1	1	NaN	351	6	36	1	121	221	321	NaN	521	0.608797437045723	1	1	NaN	2162166.0906541	NaN	2162167.0741659	2162167.59074156
50	22	0	0	90	36.1581920903955	36.241610738255	16	0.533368575870991	2	12	6	NaN	2	5	0.583423467416068	1	1	NaN	352	6	37	1	121	221	321	NaN	521	1.00369262183085	2	1	NaN	2162169.0077273	NaN	2162169.9911318	2162170.50769298
50	22	0	0	90	36.1581920903955	36.241610738255	24	0.800052863806486	2	6	2	NaN	1	4	0.583423467416068	1	1	NaN	353	6	38	1	121	221	321	NaN	521	0.894796768669039	1	1	NaN	2162172.3247379	NaN	2162173.3081343	2162173.82468113
50	22	0	0	90	36.1581920903955	36.241610738255	19	0.633375183846801	2	12	3	NaN	2	4	0.583423467416068	1	1	NaN	354	6	39	1	121	221	321	NaN	521	0.741294621955603	2	1	NaN	2162175.5417198	NaN	2162176.5251085	2162177.04166508
50	22	0	0	90	36.1581920903955	36.241610738255	8	0.266684287935495	2	6	1	NaN	1	3	0.583423467416068	1	1	NaN	355	6	40	1	121	221	321	NaN	521	0.0104147689417005	1	1	NaN	2162178.5920183	NaN	2162179.575412	2162180.09196083
50	22	0	0	90	36.1581920903955	36.241610738255	23	0.766717327814549	2	8	2	NaN	2	4	0.583423467416068	1	1	NaN	356	6	41	1	121	221	321	NaN	521	0.166495121549815	2	1	NaN	2162180.9089136	NaN	2162181.8923043	2162182.40886818
50	22	0	0	90	36.1581920903955	36.241610738255	18	0.600039647854865	2	6	3	NaN	1	5	0.583423467416068	1	1	NaN	357	6	42	1	121	221	321	NaN	521	0.346997121814638	1	1	NaN	2162183.3924578	NaN	2162184.3758717	2162184.89244708
50	22	0	0	90	36.1581920903955	36.241610738255	6	0.200013215951622	2	1	3	NaN	1	3	0.583423467416068	1	1	NaN	358	6	43	1	121	221	321	NaN	521	0.360078268684447	1	1	NaN	2162186.0594167	NaN	2162187.0428399	2162187.55936803
50	22	0	0	90	36.1581920903955	36.241610738255	12	0.400026431903243	2	8	3	NaN	2	5	0.583423467416068	1	1	NaN	359	6	44	1	121	221	321	NaN	521	0.42894952185452	2	1	NaN	2162188.7263392	NaN	2162189.7097432	2162190.22629438
50	22	0	0	90	36.1581920903955	36.241610738255	9	0.300019823927432	2	12	6	NaN	2	5	0.583423467416068	1	1	NaN	360	6	45	1	121	221	321	NaN	521	0.350855921860784	2	1	NaN	2162191.4766346	NaN	2162192.4600391	2162192.97656978
50	22	0	0	90	36.1581920903955	36.241610738255	15	0.500033039879054	2	1	1	NaN	1	5	0.583423467416068	1	1	NaN	361	6	46	1	121	221	321	NaN	521	0.947976521681994	2	0	NaN	2162194.1435414	NaN	2162195.1269959	2162195.64350158
50	22	0	0	90	36.1581920903955	36.241610738255	8	0.266684287935495	2	12	1	NaN	2	5	0.583423467416068	1	1	NaN	362	6	47	1	121	221	321	NaN	521	0.408677021507174	2	1	NaN	2162197.4105387	NaN	2162198.393938	2162198.91048498
50	22	0	0	90	36.1581920903955	36.241610738255	23	0.766717327814549	2	12	3	NaN	2	3	0.583423467416068	1	1	NaN	363	6	48	1	121	221	321	NaN	521	0.422654221765697	2	1	NaN	2162200.4608362	NaN	2162201.4442337	2162201.96078608
50	22	0	0	90	36.1581920903955	36.241610738255	0	0	1	7	3	NaN	2	3	0.583423467416068	1	1	NaN	364	6	49	1	111	211	311	NaN	511	0.592869069427252	2	1	NaN	2162203.1944887	NaN	2162204.1778371	2162204.69437983
50	22	0	0	90	36.1581920903955	36.241610738255	20	0.666710719838738	2	1	1	NaN	1	3	0.583423467416068	1	1	NaN	365	6	50	1	121	221	321	NaN	521	0.436762474477291	1	1	NaN	2162206.0947201	NaN	2162207.078112	2162207.59467513
50	22	0	0	90	36.1581920903955	36.241610738255	24	0.800052863806486	2	7	6	NaN	2	3	0.583423467416068	1	1	NaN	366	6	51	1	121	221	321	NaN	521	0.470502868760377	2	1	NaN	2162208.8449771	NaN	2162209.8283998	2162210.34493853
50	22	0	0	90	36.1581920903955	36.241610738255	20	0.666710719838738	2	4	3	NaN	1	3	0.583423467416068	1	1	NaN	367	6	52	1	121	221	321	NaN	521	0.598855721764266	2	0	NaN	2162211.6285941	NaN	2162212.6119958	2162213.12854998
50	22	0	0	90	36.1581920903955	36.241610738255	25	0.833388399798423	2	7	5	NaN	2	4	0.583423467416068	1	1	NaN	368	6	53	1	121	221	321	NaN	521	2.52976227924228	2	1	NaN	2162214.5455664	NaN	2162215.5289599	2162216.04549972
50	22	0	0	90	36.1581920903955	36.241610738255	17	0.566704111862928	2	6	6	NaN	1	3	0.583423467416068	1	1	NaN	369	6	54	1	121	221	321	NaN	521	0.623317768797278	1	1	NaN	2162219.3959209	NaN	2162220.3794563	2162220.89597553
50	22	0	0	90	36.1581920903955	36.241610738255	9	0.300019823927432	2	1	6	NaN	1	4	0.583423467416068	1	1	NaN	370	6	55	1	121	221	321	NaN	521	1.43386887945235	1	1	NaN	2162222.3296339	NaN	2162223.3130547	2162223.82960632
50	22	0	0	90	36.1581920903955	36.241610738255	16	0.533368575870991	2	7	2	NaN	2	3	0.583423467416068	1	1	NaN	371	6	56	1	121	221	321	NaN	521	0.547315621748567	1	0	NaN	2162226.0800238	NaN	2162227.0634088	2162227.57997728
50	22	0	0	90	36.1581920903955	36.241610738255	21	0.700046255830675	2	12	5	NaN	2	4	0.583423467416068	1	1	NaN	372	6	57	1	121	221	321	NaN	521	2.46460102172568	2	1	NaN	2162228.9469787	NaN	2162229.9303918	2162230.44692068
50	22	0	0	90	36.1581920903955	36.241610738255	25	0.833388399798423	2	2	6	NaN	1	3	0.583423467416068	1	1	NaN	373	6	58	1	121	221	321	NaN	521	1.33674400579184	1	1	NaN	2162233.7307611	NaN	2162234.714164	2162235.23071799
50	22	0	0	90	36.1581920903955	36.241610738255	7	0.233348751943558	2	11	6	NaN	2	5	0.583423467416068	1	1	NaN	374	6	59	1	121	221	321	NaN	521	0.318324521649629	2	1	NaN	2162237.3810207	NaN	2162238.3645346	2162238.88108508
50	22	0	0	90	36.1581920903955	36.241610738255	25	0.833388399798423	2	10	5	NaN	2	5	0.583423467416068	1	1	NaN	375	6	60	1	121	221	321	NaN	521	0.452818921767175	2	1	NaN	2162240.0147081	NaN	2162240.9981289	2162241.51467728
50	22	0	0	90	36.1581920903955	36.241610738255	12	0.400026431903243	2	2	2	NaN	1	3	0.583423467416068	1	1	NaN	376	6	61	1	121	221	321	NaN	521	0.957707421854138	2	0	NaN	2162242.7816545	NaN	2162243.7650602	2162244.28161538
50	22	0	0	90	36.1581920903955	36.241610738255	16	0.533368575870991	2	5	3	NaN	1	4	0.583423467416068	1	1	NaN	377	6	62	1	121	221	321	NaN	521	0.586539116222411	1	1	NaN	2162246.0485224	NaN	2162247.0320577	2162247.54859838
50	22	0	0	90	36.1581920903955	36.241610738255	8	0.266684287935495	2	2	4	NaN	1	4	0.583423467416068	1	1	NaN	378	6	63	1	121	221	321	NaN	521	0.486266821622849	1	1	NaN	2162248.9489246	NaN	2162249.9323643	2162250.44889208
50	22	0	0	90	36.1581920903955	36.241610738255	13	0.43336196789518	2	7	5	NaN	2	3	0.583423467416068	1	1	NaN	379	7	1	1	121	221	321	NaN	521	1.74043832160532	1	0	NaN	2162262.5669296	NaN	2162263.5503427	2162264.06689238
50	22	0	0	90	36.1581920903955	36.241610738255	0	0	1	10	3	NaN	2	3	0.583423467416068	1	1	NaN	380	7	2	1	111	211	311	NaN	511	1.194016774185	1	0	NaN	2162266.6173353	NaN	2162267.6007278	2162268.11729453
50	22	0	0	90	36.1581920903955	36.241610738255	19	0.633375183846801	2	7	2	NaN	2	5	0.583423467416068	1	1	NaN	381	7	3	1	121	221	321	NaN	521	0.373017821460962	1	0	NaN	2162270.1343588	NaN	2162271.1177545	2162271.63430658
50	22	0	0	90	36.1581920903955	36.241610738255	15	0.500033039879054	2	7	4	NaN	2	5	0.583423467416068	1	1	NaN	382	7	4	1	121	221	321	NaN	521	0.065680421423167	2	1	NaN	2162272.817955	NaN	2162273.8013389	2162274.31790218
50	22	0	0	90	36.1581920903955	36.241610738255	6	0.200013215951622	2	12	4	NaN	2	4	0.583423467416068	1	1	NaN	383	7	5	1	121	221	321	NaN	521	0.498086721636355	2	1	NaN	2162275.2015262	NaN	2162276.1849238	2162276.70147398
50	22	0	0	90	36.1581920903955	36.241610738255	6	0.200013215951622	2	10	4	NaN	2	4	0.583423467416068	1	1	NaN	384	7	6	1	121	221	321	NaN	521	0.465479921549559	2	1	NaN	2162278.0016711	NaN	2162278.9852004	2162279.50174988
50	22	0	0	90	36.1581920903955	36.241610738255	9	0.300019823927432	2	7	6	NaN	2	4	0.583423467416068	1	1	NaN	385	7	7	1	121	221	321	NaN	521	0.681880342308432	2	1	NaN	2162280.7854174	NaN	2162281.7688042	2162282.28534926
50	22	0	0	90	36.1581920903955	36.241610738255	14	0.466697503887117	2	11	2	NaN	2	4	0.583423467416068	1	1	NaN	386	7	8	1	121	221	321	NaN	521	0.466607221867889	2	1	NaN	2162283.7690391	NaN	2162284.7524259	2162285.26898268
50	22	0	0	90	36.1581920903955	36.241610738255	24	0.800052863806486	2	9	3	NaN	2	3	0.583423467416068	1	1	NaN	387	7	9	1	121	221	321	NaN	521	0.402740969322622	2	1	NaN	2162286.5526226	NaN	2162287.5360567	2162288.05257693
50	22	0	0	90	36.1581920903955	36.241610738255	18	0.600039647854865	2	11	3	NaN	2	4	0.583423467416068	1	1	NaN	388	7	10	1	121	221	321	NaN	521	1.0136837689206	2	1	NaN	2162289.2695729	NaN	2162290.2529606	2162290.76951333
50	22	0	0	90	36.1581920903955	36.241610738255	12	0.400026431903243	2	9	1	NaN	2	4	0.583423467416068	1	1	NaN	389	7	11	1	121	221	321	NaN	521	0.592058374546468	2	1	NaN	2162292.6032347	NaN	2162293.5866341	2162294.10317523
50	22	0	0	90	36.1581920903955	36.241610738255	13	0.43336196789518	2	9	5	NaN	2	4	0.583423467416068	1	1	NaN	390	7	12	1	121	221	321	NaN	521	0.459160921629518	2	1	NaN	2162295.5201778	NaN	2162296.503569	2162297.02013458
50	22	0	0	90	36.1581920903955	36.241610738255	15	0.500033039879054	2	1	5	NaN	1	4	0.583423467416068	1	1	NaN	391	7	13	1	121	221	321	NaN	521	0.652551021426916	2	0	NaN	2162298.2871221	NaN	2162299.2705116	2162299.78707688
50	22	0	0	90	36.1581920903955	36.241610738255	20	0.666710719838738	2	3	2	NaN	1	3	0.583423467416068	1	1	NaN	392	7	14	1	121	221	321	NaN	521	0.517327521927655	1	1	NaN	2162301.2539442	NaN	2162302.2374814	2162302.75403638
50	22	0	0	90	36.1581920903955	36.241610738255	6	0.200013215951622	2	2	5	NaN	1	5	0.583423467416068	1	1	NaN	393	7	15	1	121	221	321	NaN	521	0.371976921800524	1	1	NaN	2162304.0876776	NaN	2162305.0710997	2162305.58764198
50	22	0	0	90	36.1581920903955	36.241610738255	6	0.200013215951622	2	8	5	NaN	2	3	0.583423467416068	1	1	NaN	394	7	16	1	121	221	321	NaN	521	0.32031142199412	2	1	NaN	2162306.7712582	NaN	2162307.7546885	2162308.27123278
50	22	0	0	90	36.1581920903955	36.241610738255	7	0.233348751943558	2	9	5	NaN	2	5	0.583423467416068	1	1	NaN	395	7	17	1	121	221	321	NaN	521	0.0104010687209666	2	1	NaN	2162309.4048459	NaN	2162310.3882782	2162310.90482413
50	22	0	0	90	36.1581920903955	36.241610738255	9	0.300019823927432	2	11	5	NaN	2	3	0.583423467416068	1	1	NaN	396	7	18	1	121	221	321	NaN	521	2.9692055163905	1	0	NaN	2162311.7384281	NaN	2162312.721845	2162313.23838888
50	22	0	0	90	36.1581920903955	36.241610738255	18	0.600039647854865	2	4	3	NaN	1	3	0.583423467416068	1	1	NaN	397	7	19	1	121	221	321	NaN	521	0.397410121746361	2	0	NaN	2162317.0222999	NaN	2162318.0056204	2162318.52224078
50	22	0	0	90	36.1581920903955	36.241610738255	8	0.266684287935495	2	1	2	NaN	1	5	0.583423467416068	1	1	NaN	398	7	20	1	121	221	321	NaN	521	0.536270921584219	1	1	NaN	2162319.7392097	NaN	2162320.7226277	2162321.23918498
50	22	0	0	90	36.1581920903955	36.241610738255	13	0.43336196789518	2	5	2	NaN	1	4	0.583423467416068	1	1	NaN	399	7	21	1	121	221	321	NaN	521	0.550197621807456	1	1	NaN	2162322.58954	NaN	2162323.5729079	2162324.08946648
50	22	0	0	90	36.1581920903955	36.241610738255	21	0.700046255830675	2	1	6	NaN	1	4	0.583423467416068	1	1	NaN	400	7	22	1	121	221	321	NaN	521	0.403245358262211	1	1	NaN	2162325.4565103	NaN	2162326.4398601	2162326.95640014
50	22	0	0	90	36.1581920903955	36.241610738255	21	0.700046255830675	2	4	3	NaN	1	4	0.583423467416068	1	1	NaN	401	7	23	1	121	221	321	NaN	521	0.65429072175175	1	1	NaN	2162328.1733816	NaN	2162329.1567969	2162329.67334858
50	22	0	0	90	36.1581920903955	36.241610738255	14	0.466697503887117	2	5	3	NaN	1	3	0.583423467416068	1	1	NaN	402	7	24	1	121	221	321	NaN	521	0.703143221791834	1	1	NaN	2162331.1403536	NaN	2162332.1236502	2162332.64030798
50	22	0	0	90	36.1581920903955	36.241610738255	15	0.500033039879054	2	8	5	NaN	2	3	0.583423467416068	1	1	NaN	403	7	25	1	121	221	321	NaN	521	0.365623721852899	2	1	NaN	2162334.5739036	NaN	2162335.5574121	2162336.07397658
50	22	0	0	90	36.1581920903955	36.241610738255	17	0.566704111862928	2	5	5	NaN	1	3	0.583423467416068	1	1	NaN	404	7	26	1	121	221	321	NaN	521	1.25755026889965	1	1	NaN	2162337.2575938	NaN	2162338.2410616	2162338.75756373
50	22	0	0	90	36.1581920903955	36.241610738255	9	0.300019823927432	2	6	6	NaN	1	3	0.583423467416068	1	1	NaN	405	7	27	1	121	221	321	NaN	521	0.930835722014308	1	1	NaN	2162340.8245655	NaN	2162341.8080605	2162342.32458698
50	22	0	0	90	36.1581920903955	36.241610738255	21	0.700046255830675	2	9	3	NaN	2	5	0.583423467416068	1	1	NaN	406	7	28	1	121	221	321	NaN	521	0.464301621541381	2	1	NaN	2162344.0749484	NaN	2162345.0583829	2162345.57490428
50	22	0	0	90	36.1581920903955	36.241610738255	22	0.733381791822612	2	7	1	NaN	2	4	0.583423467416068	1	1	NaN	407	7	29	1	121	221	321	NaN	521	0.43311681644991	2	1	NaN	2162346.8585564	NaN	2162347.8419656	2162348.35851298
50	22	0	0	90	36.1581920903955	36.241610738255	10	0.333355359919369	2	7	4	NaN	2	3	0.583423467416068	1	1	NaN	408	7	30	1	121	221	321	NaN	521	0.035373221617192	2	1	NaN	2162349.5921713	NaN	2162350.5755624	2162351.09212188
50	22	0	0	90	36.1581920903955	36.241610738255	23	0.766717327814549	2	10	4	NaN	2	4	0.583423467416068	1	1	NaN	409	7	31	1	121	221	321	NaN	521	0.965107721742243	1	0	NaN	2162351.9423877	NaN	2162352.9257889	2162353.44234968
50	22	0	0	90	36.1581920903955	36.241610738255	11	0.366690895911306	2	12	4	NaN	2	3	0.583423467416068	1	1	NaN	410	7	32	1	121	221	321	NaN	521	0.463468468748033	2	1	NaN	2162355.2760494	NaN	2162356.2594512	2162356.77600263
50	22	0	0	90	36.1581920903955	36.241610738255	20	0.666710719838738	2	6	3	NaN	1	5	0.583423467416068	1	1	NaN	411	7	33	1	121	221	321	NaN	521	0.680383816361427	1	1	NaN	2162358.0430035	NaN	2162359.0264322	2162359.54294548
50	22	0	0	90	36.1581920903955	36.241610738255	19	0.633375183846801	2	12	5	NaN	2	3	0.583423467416068	1	1	NaN	412	7	34	1	121	221	321	NaN	521	1.21641166880727	2	1	NaN	2162361.0432807	NaN	2162362.0266931	2162362.54323953
50	22	0	0	90	36.1581920903955	36.241610738255	14	0.466697503887117	2	10	5	NaN	2	4	0.583423467416068	1	1	NaN	413	7	35	1	121	221	321	NaN	521	0.362801621668041	2	1	NaN	2162364.57697	NaN	2162365.56035	2162366.07692918
50	22	0	0	90	36.1581920903955	36.241610738255	15	0.500033039879054	2	4	6	NaN	1	3	0.583423467416068	1	1	NaN	414	7	36	1	121	221	321	NaN	521	1.08711212174967	1	1	NaN	2162367.2605538	NaN	2162368.2439828	2162368.76052288
50	22	0	0	90	36.1581920903955	36.241610738255	13	0.43336196789518	2	3	4	NaN	1	3	0.583423467416068	1	1	NaN	415	7	37	1	121	221	321	NaN	521	0.414749569259584	1	1	NaN	2162370.6609222	NaN	2162371.6443128	2162372.16085443
50	22	0	0	90	36.1581920903955	36.241610738255	18	0.600039647854865	2	5	6	NaN	1	4	0.583423467416068	1	1	NaN	416	7	38	1	121	221	321	NaN	521	0.336915473919362	1	1	NaN	2162373.394501	NaN	2162374.3779117	2162374.89446413
50	22	0	0	90	36.1581920903955	36.241610738255	15	0.500033039879054	2	10	4	NaN	2	3	0.583423467416068	1	1	NaN	417	7	39	1	121	221	321	NaN	521	0.406796969007701	1	0	NaN	2162376.0446922	NaN	2162377.0281709	2162377.54471393
50	22	0	0	90	36.1581920903955	36.241610738255	18	0.600039647854865	2	9	2	NaN	2	3	0.583423467416068	1	1	NaN	418	7	40	1	121	221	321	NaN	521	0.609624826814979	1	0	NaN	2162378.7616982	NaN	2162379.7450839	2162380.26165057
50	22	0	0	90	36.1581920903955	36.241610738255	0	0	1	3	5	NaN	1	3	0.583423467416068	1	1	NaN	419	7	41	1	111	211	311	NaN	511	1.07711043721065	1	1	NaN	2162381.6786519	NaN	2162382.6620862	2162383.17861746
50	22	0	0	90	36.1581920903955	36.241610738255	22	0.733381791822612	2	3	5	NaN	1	5	0.583423467416068	1	1	NaN	420	7	42	1	121	221	321	NaN	521	1.46078672166914	1	1	NaN	2162385.0789799	NaN	2162386.0623834	2162386.57893598
50	22	0	0	90	36.1581920903955	36.241610738255	17	0.566704111862928	2	10	6	NaN	2	3	0.583423467416068	1	1	NaN	421	7	43	1	121	221	321	NaN	521	0.820633521769196	2	1	NaN	2162388.8626907	NaN	2162389.846121	2162390.36264178
50	22	0	0	90	36.1581920903955	36.241610738255	10	0.333355359919369	2	4	3	NaN	1	3	0.583423467416068	1	1	NaN	422	7	44	1	121	221	321	NaN	521	1.9111544219777	2	0	NaN	2162391.9963295	NaN	2162392.9797284	2162393.49628518
50	22	0	0	90	36.1581920903955	36.241610738255	11	0.366690895911306	2	9	3	NaN	2	3	0.583423467416068	1	1	NaN	423	7	45	1	121	221	321	NaN	521	0.506908721290529	2	1	NaN	2162396.2967446	NaN	2162397.2801642	2162397.79671558
50	22	0	0	90	36.1581920903955	36.241610738255	22	0.733381791822612	2	4	5	NaN	1	5	0.583423467416068	1	1	NaN	424	7	46	1	121	221	321	NaN	521	0.889769068919122	2	0	NaN	2162399.113707	NaN	2162400.0970925	2162400.61364863
50	22	0	0	90	36.1581920903955	36.241610738255	8	0.266684287935495	2	6	6	NaN	1	3	0.583423467416068	1	1	NaN	425	7	47	1	121	221	321	NaN	521	0.329585916828364	1	1	NaN	2162402.3140023	NaN	2162403.2974225	2162403.81397008
50	22	0	0	90	36.1581920903955	36.241610738255	7	0.233348751943558	2	10	1	NaN	2	3	0.583423467416068	1	1	NaN	426	7	48	1	121	221	321	NaN	521	0.431758121587336	2	1	NaN	2162404.9476165	NaN	2162405.9310154	2162406.44755988
50	22	0	0	90	36.1581920903955	36.241610738255	19	0.633375183846801	2	2	5	NaN	1	4	0.583423467416068	1	1	NaN	427	7	49	1	121	221	321	NaN	521	0.594580721575767	1	1	NaN	2162407.6811982	NaN	2162408.664607	2162409.18116648
50	22	0	0	90	36.1581920903955	36.241610738255	17	0.566704111862928	2	7	4	NaN	2	4	0.583423467416068	1	1	NaN	428	7	50	1	121	221	321	NaN	521	0.478396821767092	2	1	NaN	2162410.5814846	NaN	2162411.5648976	2162412.08145448
50	22	0	0	90	36.1581920903955	36.241610738255	0	0	1	11	4	NaN	2	3	0.583423467416068	1	1	NaN	429	7	51	1	111	211	311	NaN	511	0.341921421699226	2	1	NaN	2162413.3817719	NaN	2162414.3651789	2162414.88172598
50	22	0	0	90	36.1581920903955	36.241610738255	11	0.366690895911306	2	5	1	NaN	1	4	0.583423467416068	1	1	NaN	430	7	52	1	121	221	321	NaN	521	0.387785479426384	1	1	NaN	2162416.0320336	NaN	2162417.0154316	2162417.53198602
50	22	0	0	90	36.1581920903955	36.241610738255	25	0.833388399798423	2	12	3	NaN	2	3	0.583423467416068	1	1	NaN	431	7	53	1	121	221	321	NaN	521	1.51158276898786	2	1	NaN	2162418.732288	NaN	2162419.715693	2162420.23225193
50	22	0	0	90	36.1581920903955	36.241610738255	20	0.666710719838738	2	1	4	NaN	1	5	0.583423467416068	1	1	NaN	432	7	54	1	121	221	321	NaN	521	1.51773976907134	1	1	NaN	2162422.5660148	NaN	2162423.5493854	2162424.06595953
50	22	0	0	90	36.1581920903955	36.241610738255	24	0.800052863806486	2	6	3	NaN	1	3	0.583423467416068	1	1	NaN	433	7	55	1	121	221	321	NaN	521	0.531808921601623	1	1	NaN	2162426.3997257	NaN	2162427.3831207	2162427.89967708
50	22	0	0	90	36.1581920903955	36.241610738255	16	0.533368575870991	2	5	6	NaN	1	5	0.583423467416068	1	1	NaN	434	7	56	1	121	221	321	NaN	521	0.737423821352422	1	1	NaN	2162429.2500144	NaN	2162430.233392	2162430.74995618
50	22	0	0	90	36.1581920903955	36.241610738255	22	0.733381791822612	2	1	3	NaN	1	5	0.583423467416068	1	1	NaN	435	7	57	1	121	221	321	NaN	521	0.911576332058758	1	1	NaN	2162432.3002978	NaN	2162433.2837076	2162433.80024817
50	22	0	0	90	36.1581920903955	36.241610738255	25	0.833388399798423	2	3	6	NaN	1	5	0.583423467416068	1	1	NaN	436	7	58	1	121	221	321	NaN	521	0.182266821619123	1	1	NaN	2162435.5172801	NaN	2162436.5006895	2162437.01724198
50	22	0	0	90	36.1581920903955	36.241610738255	16	0.533368575870991	2	3	1	NaN	1	5	0.583423467416068	1	1	NaN	437	7	59	1	121	221	321	NaN	521	0.138190168887377	1	1	NaN	2162438.0175189	NaN	2162439.0009378	2162439.51747633
50	22	0	0	90	36.1581920903955	36.241610738255	10	0.333355359919369	2	9	6	NaN	2	4	0.583423467416068	1	1	NaN	438	7	60	1	121	221	321	NaN	521	3.67181097436696	1	0	NaN	2162440.4677541	NaN	2162441.4511724	2162441.96771603
50	22	0	0	90	36.1581920903955	36.241610738255	11	0.366690895911306	2	8	4	NaN	2	3	0.583423467416068	1	1	NaN	439	7	61	1	121	221	321	NaN	521	0.528161121532321	2	1	NaN	2162446.4516819	NaN	2162447.4350875	2162447.95164678
50	22	0	0	90	36.1581920903955	36.241610738255	22	0.733381791822612	2	8	3	NaN	2	5	0.583423467416068	1	1	NaN	440	7	62	1	121	221	321	NaN	521	0.669959669467062	2	1	NaN	2162449.3019681	NaN	2162450.2853718	2162450.80192283
50	22	0	0	90	36.1581920903955	36.241610738255	9	0.300019823927432	2	8	1	NaN	2	5	0.583423467416068	1	1	NaN	441	7	63	1	121	221	321	NaN	521	0.598261284641922	2	1	NaN	2162452.2855841	NaN	2162453.2689738	2162453.78554892
50	22	0	0	90	36.1581920903955	36.241610738255	16	0.533368575870991	2	11	2	NaN	2	4	0.583423467416068	1	1	NaN	442	8	1	1	121	221	321	NaN	521	3.976762522012	1	0	NaN	2162489.1392355	NaN	2162490.1226278	2162490.63917168
50	22	0	0	90	36.1581920903955	36.241610738255	10	0.333355359919369	2	6	4	NaN	1	4	0.583423467416068	1	1	NaN	443	8	2	1	121	221	321	NaN	521	0.716431068722159	1	1	NaN	2162495.4231755	NaN	2162496.4065545	2162496.92311763
50	22	0	0	90	36.1581920903955	36.241610738255	19	0.633375183846801	2	2	3	NaN	1	4	0.583423467416068	1	1	NaN	444	8	3	1	121	221	321	NaN	521	0.571091321762651	1	1	NaN	2162498.4568054	NaN	2162499.4402348	2162499.95675978
50	22	0	0	90	36.1581920903955	36.241610738255	13	0.43336196789518	2	2	1	NaN	1	3	0.583423467416068	1	1	NaN	445	8	4	1	121	221	321	NaN	521	0.735139621421695	1	1	NaN	2162501.3404234	NaN	2162502.3239033	2162502.84037238
50	22	0	0	90	36.1581920903955	36.241610738255	18	0.600039647854865	2	10	4	NaN	2	3	0.583423467416068	1	1	NaN	446	8	5	1	121	221	321	NaN	521	0.404922221787274	2	1	NaN	2162504.390719	NaN	2162505.3741221	2162505.89068108
50	22	0	0	90	36.1581920903955	36.241610738255	15	0.500033039879054	2	5	6	NaN	1	3	0.583423467416068	1	1	NaN	447	8	6	1	121	221	321	NaN	521	0.496128521393985	1	1	NaN	2162507.1076655	NaN	2162508.0910396	2162508.60761398
50	22	0	0	90	36.1581920903955	36.241610738255	22	0.733381791822612	2	9	2	NaN	2	5	0.583423467416068	1	1	NaN	448	8	7	1	121	221	321	NaN	521	0.735403821803629	2	1	NaN	2162509.9245938	NaN	2162510.9080084	2162511.42454918
50	22	0	0	90	36.1581920903955	36.241610738255	21	0.700046255830675	2	7	3	NaN	2	5	0.583423467416068	1	1	NaN	449	8	8	1	121	221	321	NaN	521	0.580700316466391	2	1	NaN	2162512.9748945	NaN	2162513.9582922	2162514.47484648
50	22	0	0	90	36.1581920903955	36.241610738255	9	0.300019823927432	2	11	1	NaN	2	5	0.583423467416068	1	1	NaN	450	8	9	1	121	221	321	NaN	521	0.432767021469772	2	1	NaN	2162515.8751731	NaN	2162516.8585878	2162517.37514008
50	22	0	0	90	36.1581920903955	36.241610738255	25	0.833388399798423	2	8	4	NaN	2	5	0.583423467416068	1	1	NaN	451	8	10	1	121	221	321	NaN	521	0.786291521508247	2	1	NaN	2162518.6254577	NaN	2162519.6088603	2162520.12541358
50	22	0	0	90	36.1581920903955	36.241610738255	15	0.500033039879054	2	4	4	NaN	1	3	0.583423467416068	1	1	NaN	452	8	11	1	121	221	321	NaN	521	1.3820663690567	2	0	NaN	2162521.7257449	NaN	2162522.7091625	2162523.22570453
50	22	0	0	90	36.1581920903955	36.241610738255	13	0.43336196789518	2	4	5	NaN	1	4	0.583423467416068	1	1	NaN	453	8	12	1	121	221	321	NaN	521	0.585492068901658	2	0	NaN	2162525.4261198	NaN	2162526.4095172	2162526.92607113
50	22	0	0	90	36.1581920903955	36.241610738255	7	0.233348751943558	2	2	3	NaN	1	5	0.583423467416068	1	1	NaN	454	8	13	1	121	221	321	NaN	521	1.4133338634856	2	0	NaN	2162528.3263676	NaN	2162529.3098172	2162529.82635784
50	22	0	0	90	36.1581920903955	36.241610738255	10	0.333355359919369	2	8	6	NaN	2	3	0.583423467416068	1	1	NaN	455	8	14	1	121	221	321	NaN	521	0.655631869100034	2	1	NaN	2162532.0601065	NaN	2162533.0435117	2162533.56005703
50	22	0	0	90	36.1581920903955	36.241610738255	13	0.43336196789518	2	6	6	NaN	1	3	0.583423467416068	1	1	NaN	456	8	15	1	121	221	321	NaN	521	0.0103918216191232	1	1	NaN	2162535.0270863	NaN	2162536.0104801	2162536.52702178
50	22	0	0	90	36.1581920903955	36.241610738255	17	0.566704111862928	2	11	6	NaN	2	3	0.583423467416068	1	1	NaN	457	8	16	1	121	221	321	NaN	521	0.363314721733332	2	1	NaN	2162537.3606352	NaN	2162538.3440231	2162538.86058298
50	22	0	0	90	36.1581920903955	36.241610738255	15	0.500033039879054	2	10	3	NaN	2	3	0.583423467416068	1	1	NaN	458	8	17	1	121	221	321	NaN	521	0.496017342433333	2	1	NaN	2162540.0275559	NaN	2162541.010947	2162541.52752406
50	22	0	0	90	36.1581920903955	36.241610738255	9	0.300019823927432	2	3	4	NaN	1	3	0.583423467416068	1	1	NaN	459	8	18	1	121	221	321	NaN	521	0.399440369103104	1	1	NaN	2162542.844491	NaN	2162543.8279126	2162544.34445833
50	22	0	0	90	36.1581920903955	36.241610738255	15	0.500033039879054	2	6	5	NaN	1	3	0.583423467416068	1	1	NaN	460	8	19	1	121	221	321	NaN	521	0.458536169026047	1	1	NaN	2162545.5614281	NaN	2162546.5448385	2162547.06138283
