subjno	age	gender	isPractice	viewdist	CmToPixX	CmToPixY	SOA_frm	SOA_time	targNum	targID	targExample	targRace	targGender	firstTargPos	contrast	familiarity	curr_staircase	iStair	TrialNum	BlockNum	blktrl	sessionNum	TC_FIXATION	TC_RSVP_START	TC_RSVP_END	TC_BLANK	TC_RESPONSE_ONSET	RT2afc	resp_2afc	acc	RSVPOnsetVBL	RSVPOnsetTime	RSVPOffsetVBL	RSVPOffsetTime	startrt_2afc
28	20	1	0	90	36.1581920903955	36.241610738255	14	0.46671665603295	2	4	2	NaN	1	3	0.132056268018382	1	1	NaN	1	1	1	1	121	221	321	NaN	521	2.21004078071564	2	0	NaN	1294672.7953378	NaN	1294673.7786136	1294674.31173522
28	20	1	0	90	36.1581920903955	36.241610738255	13	0.433379752030596	2	7	4	NaN	2	3	0.132056268018382	1	1	NaN	2	1	2	1	121	221	321	NaN	521	1.70655918074772	1	0	NaN	1294677.3790723	NaN	1294678.362399	1294678.89552002
28	20	1	0	90	36.1581920903955	36.241610738255	7	0.233358328016475	2	10	2	NaN	2	4	0.132056268018382	1	1	NaN	3	1	3	1	121	221	321	NaN	521	1.03214664012194	2	1	NaN	1294681.4293085	NaN	1294682.4126987	1294682.92926156
28	20	1	0	90	36.1581920903955	36.241610738255	0	0	1	3	3	NaN	1	4	0.132056268018382	1	1	NaN	4	1	4	1	111	211	311	NaN	511	1.58582604001276	1	1	NaN	1294684.7796494	NaN	1294685.763025	1294686.27958066
28	20	1	0	90	36.1581920903955	36.241610738255	18	0.600064272042364	2	1	5	NaN	1	5	0.132056268018382	1	1	NaN	5	1	5	1	121	221	321	NaN	521	0.756995876785368	1	1	NaN	1294688.6966761	NaN	1294689.6800784	1294690.19662562
28	20	1	0	90	36.1581920903955	36.241610738255	11	0.366705944025889	2	10	4	NaN	2	5	0.132056268018382	1	1	NaN	6	1	6	1	121	221	321	NaN	521	0.577214228687808	2	1	NaN	1294691.7803249	NaN	1294692.7637181	1294693.28027287
28	20	1	0	90	36.1581920903955	36.241610738255	12	0.400042848028243	2	7	1	NaN	2	5	0.132056268018382	1	1	NaN	7	1	7	1	121	221	321	NaN	521	0.692322628572583	2	1	NaN	1294694.6972635	NaN	1294695.6806624	1294696.19722597
28	20	1	0	90	36.1581920903955	36.241610738255	20	0.666738080047071	2	8	2	NaN	2	3	0.132056268018382	1	1	NaN	8	1	8	1	121	221	321	NaN	521	0.93945777695626	2	1	NaN	1294697.714221	NaN	1294698.6976417	1294699.21417782
28	20	1	0	90	36.1581920903955	36.241610738255	8	0.266695232018828	2	5	2	NaN	1	4	0.132056268018382	1	1	NaN	9	1	9	1	121	221	321	NaN	521	0.496470976620913	1	1	NaN	1294700.9812205	NaN	1294701.9646032	1294702.48116542
28	20	1	0	90	36.1581920903955	36.241610738255	23	0.766748792054132	2	5	5	NaN	1	5	0.132056268018382	1	1	NaN	10	1	10	1	121	221	321	NaN	521	1.14381112484261	1	1	NaN	1294703.7981795	NaN	1294704.7815905	1294705.29810708
28	20	1	0	90	36.1581920903955	36.241610738255	14	0.46671665603295	2	6	4	NaN	1	3	0.132056268018382	1	1	NaN	11	1	11	1	121	221	321	NaN	521	0.596410928759724	1	1	NaN	1294707.2650456	NaN	1294708.2485599	1294708.76512717
28	20	1	0	90	36.1581920903955	36.241610738255	12	0.400042848028243	2	10	4	NaN	2	4	0.132056268018382	1	1	NaN	12	1	12	1	121	221	321	NaN	521	0.559628228656948	2	1	NaN	1294710.1821055	NaN	1294711.1655435	1294711.68207607
28	20	1	0	90	36.1581920903955	36.241610738255	15	0.500053560035303	2	7	6	NaN	2	3	0.132056268018382	1	1	NaN	13	1	13	1	121	221	321	NaN	521	0.53184627671726	2	1	NaN	1294713.0657391	NaN	1294714.049137	1294714.56569132
28	20	1	0	90	36.1581920903955	36.241610738255	22	0.733411888051778	2	6	3	NaN	1	4	0.132056268018382	1	1	NaN	14	1	14	1	121	221	321	NaN	521	0.508213476743549	1	1	NaN	1294716.2493968	NaN	1294717.2327881	1294717.74933042
28	20	1	0	90	36.1581920903955	36.241610738255	16	0.533390464037657	2	11	2	NaN	2	5	0.132056268018382	1	1	NaN	15	1	15	1	121	221	321	NaN	521	0.418981176801026	2	1	NaN	1294719.0829989	NaN	1294720.0664065	1294720.58293972
28	20	1	0	90	36.1581920903955	36.241610738255	25	0.833422600058839	2	1	1	NaN	1	3	0.132056268018382	1	1	NaN	16	1	16	1	121	221	321	NaN	521	0.645024928729981	1	1	NaN	1294721.8166262	NaN	1294722.79999	1294723.31655297
28	20	1	0	90	36.1581920903955	36.241610738255	23	0.766748792054132	2	11	4	NaN	2	5	0.132056268018382	1	1	NaN	17	1	17	1	121	221	321	NaN	521	0.342096364824101	2	1	NaN	1294724.7835574	NaN	1294725.7669626	1294726.28350184
28	20	1	0	90	36.1581920903955	36.241610738255	18	0.600064272042364	2	3	5	NaN	1	5	0.132056268018382	1	1	NaN	18	1	18	1	121	221	321	NaN	521	0.335097728529945	1	1	NaN	1294727.7504	NaN	1294728.7339128	1294729.25046857
28	20	1	0	90	36.1581920903955	36.241610738255	10	0.333369040023536	2	6	5	NaN	1	4	0.132056268018382	1	1	NaN	19	1	19	1	121	221	321	NaN	521	0.364209476858377	1	1	NaN	1294730.4174358	NaN	1294731.4008402	1294731.91738632
28	20	1	0	90	36.1581920903955	36.241610738255	17	0.56672736804001	2	10	2	NaN	2	5	0.132056268018382	1	1	NaN	20	1	20	1	121	221	321	NaN	521	0.360762076918036	2	1	NaN	1294733.1010466	NaN	1294734.0844344	1294734.60098402
28	20	1	0	90	36.1581920903955	36.241610738255	8	0.266695232018828	2	9	2	NaN	2	3	0.132056268018382	1	1	NaN	21	1	21	1	121	221	321	NaN	521	0.390374728478491	1	0	NaN	1294735.9512986	NaN	1294736.9347767	1294737.45126917
28	20	1	0	90	36.1581920903955	36.241610738255	24	0.800085696056485	2	1	4	NaN	1	3	0.132056268018382	1	1	NaN	22	1	22	1	121	221	321	NaN	521	0.465420428663492	1	1	NaN	1294738.6682652	NaN	1294739.6516607	1294740.16820627
28	20	1	0	90	36.1581920903955	36.241610738255	15	0.500053560035303	2	5	5	NaN	1	3	0.132056268018382	1	1	NaN	23	1	23	1	121	221	321	NaN	521	0.329701676731929	1	1	NaN	1294741.4518618	NaN	1294742.4352545	1294742.95180272
28	20	1	0	90	36.1581920903955	36.241610738255	18	0.600064272042364	2	5	3	NaN	1	4	0.132056268018382	1	1	NaN	24	1	24	1	121	221	321	NaN	521	0.447522976668552	1	1	NaN	1294744.1021338	NaN	1294745.0855348	1294745.60207492
28	20	1	0	90	36.1581920903955	36.241610738255	24	0.800085696056485	2	6	3	NaN	1	4	0.132056268018382	1	1	NaN	25	1	25	1	121	221	321	NaN	521	0.448590428801253	1	1	NaN	1294746.8691566	NaN	1294747.8524511	1294748.36901327
28	20	1	0	90	36.1581920903955	36.241610738255	0	0	1	5	2	NaN	1	4	0.132056268018382	1	1	NaN	26	1	26	1	111	211	311	NaN	511	0.505336276721209	1	1	NaN	1294749.6526651	NaN	1294750.6360713	1294751.15261082
28	20	1	0	90	36.1581920903955	36.241610738255	22	0.733411888051778	2	10	3	NaN	2	4	0.132056268018382	1	1	NaN	27	1	27	1	121	221	321	NaN	521	0.775364276720211	2	1	NaN	1294752.4862799	NaN	1294753.4696724	1294753.98621962
28	20	1	0	90	36.1581920903955	36.241610738255	16	0.533390464037657	2	3	1	NaN	1	3	0.132056268018382	1	1	NaN	28	1	28	1	121	221	321	NaN	521	0.539035928668454	1	1	NaN	1294755.5865813	NaN	1294756.5700352	1294757.08653317
28	20	1	0	90	36.1581920903955	36.241610738255	22	0.733411888051778	2	3	3	NaN	1	3	0.132056268018382	1	1	NaN	29	1	29	1	121	221	321	NaN	521	0.437373680528253	1	1	NaN	1294758.5201953	NaN	1294759.503589	1294760.02015552
28	20	1	0	90	36.1581920903955	36.241610738255	9	0.300032136021182	2	3	5	NaN	1	4	0.132056268018382	1	1	NaN	30	1	30	1	121	221	321	NaN	521	0.842253872891888	1	1	NaN	1294761.6038375	NaN	1294762.5872617	1294763.10378213
28	20	1	0	90	36.1581920903955	36.241610738255	8	0.266695232018828	2	7	5	NaN	2	4	0.132056268018382	1	1	NaN	31	1	31	1	121	221	321	NaN	521	0.290908676804975	2	1	NaN	1294764.7708127	NaN	1294765.75422	1294766.27077662
28	20	1	0	90	36.1581920903955	36.241610738255	10	0.333369040023536	2	7	3	NaN	2	3	0.132056268018382	1	1	NaN	32	1	32	1	121	221	321	NaN	521	0.433880328666419	1	0	NaN	1294767.3877401	NaN	1294768.3711331	1294768.88769627
28	20	1	0	90	36.1581920903955	36.241610738255	8	0.266695232018828	2	8	1	NaN	2	4	0.132056268018382	1	1	NaN	33	1	33	1	121	221	321	NaN	521	0.387754928553477	2	1	NaN	1294770.1380134	NaN	1294771.1213999	1294771.63796577
28	20	1	0	90	36.1581920903955	36.241610738255	14	0.46671665603295	2	2	3	NaN	1	5	0.132056268018382	1	1	NaN	34	1	34	1	121	221	321	NaN	521	0.374770628521219	1	1	NaN	1294772.8549545	NaN	1294773.83834	1294774.35489627
28	20	1	0	90	36.1581920903955	36.241610738255	21	0.700074984049424	2	4	5	NaN	1	5	0.132056268018382	1	1	NaN	35	1	35	1	121	221	321	NaN	521	1.59493732871488	1	1	NaN	1294775.5552012	NaN	1294776.538598	1294777.05516407
28	20	1	0	90	36.1581920903955	36.241610738255	13	0.433379752030596	2	3	4	NaN	1	4	0.132056268018382	1	1	NaN	36	1	36	1	121	221	321	NaN	521	0.373192628612742	1	1	NaN	1294779.4889352	NaN	1294780.4723273	1294780.98888317
28	20	1	0	90	36.1581920903955	36.241610738255	8	0.266695232018828	2	1	1	NaN	1	4	0.132056268018382	1	1	NaN	37	1	37	1	121	221	321	NaN	521	0.424859976861626	1	1	NaN	1294782.1892104	NaN	1294783.1725793	1294783.68913762
28	20	1	0	90	36.1581920903955	36.241610738255	14	0.46671665603295	2	3	1	NaN	1	3	0.132056268018382	1	1	NaN	38	1	38	1	121	221	321	NaN	521	0.410211928654462	1	1	NaN	1294784.9394756	NaN	1294785.922896	1294786.43941357
28	20	1	0	90	36.1581920903955	36.241610738255	10	0.333369040023536	2	10	4	NaN	2	3	0.132056268018382	1	1	NaN	39	1	39	1	121	221	321	NaN	521	0.309238928603008	2	1	NaN	1294787.6563895	NaN	1294788.6397883	1294789.15635197
28	20	1	0	90	36.1581920903955	36.241610738255	10	0.333369040023536	2	7	3	NaN	2	4	0.132056268018382	1	1	NaN	40	1	40	1	121	221	321	NaN	521	0.548383524874225	1	0	NaN	1294790.2733169	NaN	1294791.2567402	1294791.77326228
28	20	1	0	90	36.1581920903955	36.241610738255	14	0.46671665603295	2	10	3	NaN	2	5	0.132056268018382	1	1	NaN	41	1	41	1	121	221	321	NaN	521	0.513424476841465	2	1	NaN	1294793.1402651	NaN	1294794.1236623	1294794.64021342
28	20	1	0	90	36.1581920903955	36.241610738255	20	0.666738080047071	2	1	1	NaN	1	5	0.132056268018382	1	1	NaN	42	1	42	1	121	221	321	NaN	521	0.455870780628175	1	1	NaN	1294795.9738864	NaN	1294796.9572663	1294797.47382972
28	20	1	0	90	36.1581920903955	36.241610738255	19	0.633401176044717	2	7	4	NaN	2	4	0.132056268018382	1	1	NaN	43	1	43	1	121	221	321	NaN	521	0.7681794767268	2	1	NaN	1294798.7574864	NaN	1294799.7408799	1294800.25742812
28	20	1	0	90	36.1581920903955	36.241610738255	11	0.366705944025889	2	1	6	NaN	1	3	0.132056268018382	1	1	NaN	44	1	44	1	121	221	321	NaN	521	0.31659822864458	1	1	NaN	1294801.8411099	NaN	1294802.8245188	1294803.34107427
28	20	1	0	90	36.1581920903955	36.241610738255	10	0.333369040023536	2	3	1	NaN	1	4	0.132056268018382	1	1	NaN	45	1	45	1	121	221	321	NaN	521	0.331255573080853	1	1	NaN	1294804.4747286	NaN	1294805.4581832	1294805.97466673
28	20	1	0	90	36.1581920903955	36.241610738255	10	0.333369040023536	2	1	2	NaN	1	4	0.132056268018382	1	1	NaN	46	1	46	1	121	221	321	NaN	521	0.728863476775587	2	0	NaN	1294807.1249704	NaN	1294808.1083718	1294808.62492472
28	20	1	0	90	36.1581920903955	36.241610738255	16	0.533390464037657	2	3	4	NaN	1	5	0.132056268018382	1	1	NaN	47	1	47	1	121	221	321	NaN	521	0.38277532486245	1	1	NaN	1294810.1753067	NaN	1294811.1586769	1294811.67522628
28	20	1	0	90	36.1581920903955	36.241610738255	21	0.700074984049424	2	5	2	NaN	1	4	0.132056268018382	1	1	NaN	48	1	48	1	121	221	321	NaN	521	0.938252128660679	1	1	NaN	1294812.8755624	NaN	1294813.8589361	1294814.37549347
28	20	1	0	90	36.1581920903955	36.241610738255	11	0.366705944025889	2	5	2	NaN	1	4	0.132056268018382	1	1	NaN	49	1	49	1	121	221	321	NaN	521	0.424185772892088	1	1	NaN	1294816.1258535	NaN	1294817.1092476	1294817.62580493
28	20	1	0	90	36.1581920903955	36.241610738255	13	0.433379752030596	2	5	5	NaN	1	3	0.132056268018382	1	1	NaN	50	1	50	1	121	221	321	NaN	521	0.834336424712092	1	1	NaN	1294818.8594611	NaN	1294819.8428631	1294820.35940158
28	20	1	0	90	36.1581920903955	36.241610738255	15	0.500053560035303	2	11	1	NaN	2	4	0.132056268018382	1	1	NaN	51	1	51	1	121	221	321	NaN	521	0.324417028808966	2	1	NaN	1294822.0096462	NaN	1294822.9932054	1294823.50972507
28	20	1	0	90	36.1581920903955	36.241610738255	12	0.400042848028243	2	12	2	NaN	2	3	0.132056268018382	1	1	NaN	52	1	52	1	121	221	321	NaN	521	0.778269524918869	2	1	NaN	1294824.6433606	NaN	1294825.6267618	1294826.14331578
28	20	1	0	90	36.1581920903955	36.241610738255	18	0.600064272042364	2	9	4	NaN	2	4	0.132056268018382	1	1	NaN	53	1	53	1	121	221	321	NaN	521	5.5742255768273	2	1	NaN	1294827.7436673	NaN	1294828.7270556	1294829.24361232
28	20	1	0	90	36.1581920903955	36.241610738255	14	0.46671665603295	2	3	5	NaN	1	3	0.132056268018382	1	1	NaN	54	1	54	1	121	221	321	NaN	521	0.329955728724599	1	1	NaN	1294835.6277881	NaN	1294836.6111831	1294837.12772177
28	20	1	0	90	36.1581920903955	36.241610738255	21	0.700074984049424	2	2	3	NaN	1	5	0.132056268018382	1	1	NaN	55	1	55	1	121	221	321	NaN	521	0.468089528614655	1	1	NaN	1294838.3779671	NaN	1294839.3614406	1294839.87799997
28	20	1	0	90	36.1581920903955	36.241610738255	18	0.600064272042364	2	3	4	NaN	1	4	0.132056268018382	1	1	NaN	56	1	56	1	121	221	321	NaN	521	0.348188676871359	1	1	NaN	1294841.1616566	NaN	1294842.1450626	1294842.66160052
28	20	1	0	90	36.1581920903955	36.241610738255	12	0.400042848028243	2	2	6	NaN	1	5	0.132056268018382	1	1	NaN	57	1	57	1	121	221	321	NaN	521	0.457623428432271	1	1	NaN	1294843.8285758	NaN	1294844.8119821	1294845.32853457
28	20	1	0	90	36.1581920903955	36.241610738255	13	0.433379752030596	2	4	3	NaN	1	3	0.132056268018382	1	1	NaN	58	1	58	1	121	221	321	NaN	521	0.330635376740247	1	1	NaN	1294846.59552	NaN	1294847.5789159	1294848.09546602
28	20	1	0	90	36.1581920903955	36.241610738255	23	0.766748792054132	2	2	2	NaN	1	4	0.132056268018382	1	1	NaN	59	1	59	1	121	221	321	NaN	521	0.416046776575968	2	0	NaN	1294849.2457711	NaN	1294850.2291611	1294850.74572502
28	20	1	0	90	36.1581920903955	36.241610738255	10	0.333369040023536	2	11	1	NaN	2	3	0.132056268018382	1	1	NaN	60	1	60	1	121	221	321	NaN	521	0.490513376658782	2	1	NaN	1294851.9794038	NaN	1294852.9627807	1294853.47932372
28	20	1	0	90	36.1581920903955	36.241610738255	21	0.700074984049424	2	12	5	NaN	2	5	0.132056268018382	1	1	NaN	61	1	61	1	121	221	321	NaN	521	0.594283572863787	2	1	NaN	1294854.7796541	NaN	1294855.7631002	1294856.27960063
28	20	1	0	90	36.1581920903955	36.241610738255	13	0.433379752030596	2	10	1	NaN	2	4	0.132056268018382	1	1	NaN	62	1	62	1	121	221	321	NaN	521	0.405580328544602	2	1	NaN	1294857.6966192	NaN	1294858.6800056	1294859.19656237
28	20	1	0	90	36.1581920903955	36.241610738255	16	0.533390464037657	2	4	6	NaN	1	4	0.132056268018382	1	1	NaN	63	1	63	1	121	221	321	NaN	521	0.800285176839679	2	0	NaN	1294860.413538	NaN	1294861.3969307	1294861.91348482
28	20	1	0	90	36.1581920903955	36.241610738255	10	0.333369040023536	2	5	3	NaN	1	4	0.132056268018382	1	1	NaN	64	2	1	1	121	221	321	NaN	521	0.832701324950904	1	1	NaN	1294896.1170466	NaN	1294897.1004327	1294897.61699638
28	20	1	0	90	36.1581920903955	36.241610738255	10	0.333369040023536	2	11	5	NaN	2	5	0.132056268018382	1	1	NaN	65	2	2	1	121	221	321	NaN	521	1.29047442879528	2	1	NaN	1294899.2673705	NaN	1294900.2507571	1294900.76732837
28	20	1	0	90	36.1581920903955	36.241610738255	6	0.200021424014121	2	4	6	NaN	1	3	0.132056268018382	1	1	NaN	66	2	3	1	121	221	321	NaN	521	0.857488124864176	2	0	NaN	1294902.8843789	NaN	1294903.867777	1294904.38432578
28	20	1	0	90	36.1581920903955	36.241610738255	25	0.833422600058839	2	11	4	NaN	2	5	0.132056268018382	1	1	NaN	67	2	4	1	121	221	321	NaN	521	0.858654328621924	2	1	NaN	1294906.0513645	NaN	1294907.0347469	1294907.55130877
28	20	1	0	90	36.1581920903955	36.241610738255	14	0.46671665603295	2	1	6	NaN	1	3	0.132056268018382	1	1	NaN	68	2	5	1	121	221	321	NaN	521	0.395965228555724	1	1	NaN	1294909.2184264	NaN	1294910.2017099	1294910.71828737
28	20	1	0	90	36.1581920903955	36.241610738255	20	0.666738080047071	2	5	4	NaN	1	5	0.132056268018382	1	1	NaN	69	2	6	1	121	221	321	NaN	521	0.496613176772371	1	1	NaN	1294912.2852891	NaN	1294913.2687045	1294913.78524322
28	20	1	0	90	36.1581920903955	36.241610738255	20	0.666738080047071	2	3	5	NaN	1	3	0.132056268018382	1	1	NaN	70	2	7	1	121	221	321	NaN	521	0.351713776821271	1	1	NaN	1294915.1022324	NaN	1294916.0856296	1294916.60218522
28	20	1	0	90	36.1581920903955	36.241610738255	13	0.433379752030596	2	12	2	NaN	2	5	0.132056268018382	1	1	NaN	71	2	8	1	121	221	321	NaN	521	0.389073176775128	2	1	NaN	1294918.1691865	NaN	1294919.1526088	1294919.66915472
28	20	1	0	90	36.1581920903955	36.241610738255	6	0.200021424014121	2	7	2	NaN	2	4	0.132056268018382	1	1	NaN	72	2	9	1	121	221	321	NaN	521	0.464288488263264	2	1	NaN	1294921.069479	NaN	1294922.0529141	1294922.56945181
28	20	1	0	90	36.1581920903955	36.241610738255	19	0.633401176044717	2	10	6	NaN	2	5	0.132056268018382	1	1	NaN	73	2	10	1	121	221	321	NaN	521	0.504788276739419	2	1	NaN	1294923.853186	NaN	1294924.8365109	1294925.35304642
28	20	1	0	90	36.1581920903955	36.241610738255	19	0.633401176044717	2	10	4	NaN	2	3	0.132056268018382	1	1	NaN	74	2	11	1	121	221	321	NaN	521	0.33592047682032	2	1	NaN	1294926.6700487	NaN	1294927.6534289	1294928.16998912
28	20	1	0	90	36.1581920903955	36.241610738255	8	0.266695232018828	2	4	1	NaN	1	4	0.132056268018382	1	1	NaN	75	2	12	1	121	221	321	NaN	521	0.333877128781751	1	1	NaN	1294929.3201721	NaN	1294930.3037066	1294930.82025797
28	20	1	0	90	36.1581920903955	36.241610738255	21	0.700074984049424	2	9	1	NaN	2	5	0.132056268018382	1	1	NaN	76	2	13	1	121	221	321	NaN	521	0.419267880730331	2	1	NaN	1294931.9705777	NaN	1294932.9539663	1294933.47051332
28	20	1	0	90	36.1581920903955	36.241610738255	22	0.733411888051778	2	5	1	NaN	1	5	0.132056268018382	1	1	NaN	77	2	14	1	121	221	321	NaN	521	0.404357728548348	1	1	NaN	1294935.137563	NaN	1294936.1209381	1294936.63750027
28	20	1	0	90	36.1581920903955	36.241610738255	9	0.300032136021182	2	7	2	NaN	2	3	0.132056268018382	1	1	NaN	78	2	15	1	121	221	321	NaN	521	0.423465576721355	2	1	NaN	1294937.8544742	NaN	1294938.8378491	1294939.35442102
28	20	1	0	90	36.1581920903955	36.241610738255	20	0.666738080047071	2	2	2	NaN	1	5	0.132056268018382	1	1	NaN	79	2	16	1	121	221	321	NaN	521	0.561751028522849	1	1	NaN	1294940.5879528	NaN	1294941.5714775	1294942.08803577
28	20	1	0	90	36.1581920903955	36.241610738255	6	0.200021424014121	2	1	5	NaN	1	5	0.132056268018382	1	1	NaN	80	2	17	1	121	221	321	NaN	521	0.831327576655895	1	1	NaN	1294943.4550467	NaN	1294944.4384206	1294944.95497012
28	20	1	0	90	36.1581920903955	36.241610738255	20	0.666738080047071	2	2	5	NaN	1	3	0.132056268018382	1	1	NaN	81	2	18	1	121	221	321	NaN	521	0.648611128563061	1	1	NaN	1294946.605349	NaN	1294947.5887326	1294948.10528887
28	20	1	0	90	36.1581920903955	36.241610738255	0	0	1	11	2	NaN	2	4	0.132056268018382	1	1	NaN	82	2	19	1	111	211	311	NaN	511	1.14616578049026	2	1	NaN	1294949.5722821	NaN	1294950.5556872	1294951.07225222
28	20	1	0	90	36.1581920903955	36.241610738255	9	0.300032136021182	2	5	1	NaN	1	3	0.132056268018382	1	1	NaN	83	2	20	1	121	221	321	NaN	521	0.573332536499947	1	1	NaN	1294953.0726512	NaN	1294954.0560428	1294954.57259466
28	20	1	0	90	36.1581920903955	36.241610738255	18	0.600064272042364	2	12	3	NaN	2	5	0.132056268018382	1	1	NaN	84	2	21	1	121	221	321	NaN	521	0.650065128691494	2	1	NaN	1294955.9562626	NaN	1294956.9396451	1294957.45620937
28	20	1	0	90	36.1581920903955	36.241610738255	25	0.833422600058839	2	2	4	NaN	1	5	0.132056268018382	1	1	NaN	85	2	22	1	121	221	321	NaN	521	0.634914628695697	1	1	NaN	1294958.9232293	NaN	1294959.9066207	1294960.42316807
28	20	1	0	90	36.1581920903955	36.241610738255	20	0.666738080047071	2	9	6	NaN	2	5	0.132056268018382	1	1	NaN	86	2	23	1	121	221	321	NaN	521	0.652389380615205	2	1	NaN	1294961.8734964	NaN	1294962.8568908	1294963.37344802
28	20	1	0	90	36.1581920903955	36.241610738255	21	0.700074984049424	2	3	2	NaN	1	5	0.132056268018382	1	1	NaN	87	2	24	1	121	221	321	NaN	521	0.589633972849697	1	1	NaN	1294964.8404982	NaN	1294965.8238618	1294966.34040183
28	20	1	0	90	36.1581920903955	36.241610738255	11	0.366705944025889	2	9	6	NaN	2	5	0.132056268018382	1	1	NaN	88	2	25	1	121	221	321	NaN	521	0.545177828753367	2	1	NaN	1294967.7406196	NaN	1294968.7241797	1294969.24070177
28	20	1	0	90	36.1581920903955	36.241610738255	12	0.400042848028243	2	4	6	NaN	1	5	0.132056268018382	1	1	NaN	89	2	26	1	121	221	321	NaN	521	1.20653047668748	2	0	NaN	1294970.6077137	NaN	1294971.5910948	1294972.10763712
28	20	1	0	90	36.1581920903955	36.241610738255	7	0.233358328016475	2	11	1	NaN	2	3	0.132056268018382	1	1	NaN	90	2	27	1	121	221	321	NaN	521	0.857562576653436	2	1	NaN	1294974.1248021	NaN	1294975.1080963	1294975.62464852
28	20	1	0	90	36.1581920903955	36.241610738255	24	0.800085696056485	2	9	2	NaN	2	3	0.132056268018382	1	1	NaN	91	2	28	1	121	221	321	NaN	521	0.642442840384319	2	1	NaN	1294977.2916908	NaN	1294978.2750795	1294978.79163206
28	20	1	0	90	36.1581920903955	36.241610738255	0	0	1	1	4	NaN	1	5	0.132056268018382	1	1	NaN	92	2	29	1	111	211	311	NaN	511	0.668424276867881	1	1	NaN	1294980.241983	NaN	1294981.2253686	1294981.74191462
28	20	1	0	90	36.1581920903955	36.241610738255	14	0.46671665603295	2	5	5	NaN	1	5	0.132056268018382	1	1	NaN	93	2	30	1	121	221	321	NaN	521	0.700510876718909	1	1	NaN	1294983.2255169	NaN	1294984.209001	1294984.72554892
28	20	1	0	90	36.1581920903955	36.241610738255	21	0.700074984049424	2	10	1	NaN	2	5	0.132056268018382	1	1	NaN	94	2	31	1	121	221	321	NaN	521	0.731642128666863	1	0	NaN	1294986.242565	NaN	1294987.2259424	1294987.74251747
28	20	1	0	90	36.1581920903955	36.241610738255	16	0.533390464037657	2	2	4	NaN	1	5	0.132056268018382	1	1	NaN	95	2	32	1	121	221	321	NaN	521	0.529561376897618	1	1	NaN	1294989.2927389	NaN	1294990.2762599	1294990.79280872
28	20	1	0	90	36.1581920903955	36.241610738255	19	0.633401176044717	2	4	1	NaN	1	5	0.132056268018382	1	1	NaN	96	2	33	1	121	221	321	NaN	521	0.647778476588428	1	1	NaN	1294992.1263532	NaN	1294993.1098409	1294993.62641642
28	20	1	0	90	36.1581920903955	36.241610738255	8	0.266695232018828	2	12	3	NaN	2	3	0.132056268018382	1	1	NaN	97	2	34	1	121	221	321	NaN	521	0.688529428793117	2	1	NaN	1294995.0934607	NaN	1294996.0768286	1294996.59338327
28	20	1	0	90	36.1581920903955	36.241610738255	8	0.266695232018828	2	10	5	NaN	2	3	0.132056268018382	1	1	NaN	98	2	35	1	121	221	321	NaN	521	0.664593128487468	2	1	NaN	1294998.0937264	NaN	1294999.0771574	1294999.59368207
28	20	1	0	90	36.1581920903955	36.241610738255	8	0.266695232018828	2	12	1	NaN	2	5	0.132056268018382	1	1	NaN	99	2	36	1	121	221	321	NaN	521	2.42466604802758	2	1	NaN	1295001.0773607	NaN	1295002.0607522	1295002.57731815
28	20	1	0	90	36.1581920903955	36.241610738255	15	0.500053560035303	2	2	2	NaN	1	4	0.132056268018382	1	1	NaN	100	2	37	1	121	221	321	NaN	521	0.481064272811636	1	1	NaN	1295006.0611747	NaN	1295007.0445751	1295007.56111563
28	20	1	0	90	36.1581920903955	36.241610738255	21	0.700074984049424	2	1	3	NaN	1	4	0.132056268018382	1	1	NaN	101	2	38	1	121	221	321	NaN	521	0.657700228504837	1	1	NaN	1295008.8446483	NaN	1295009.8281899	1295010.34473837
28	20	1	0	90	36.1581920903955	36.241610738255	22	0.733411888051778	2	9	4	NaN	2	5	0.132056268018382	1	1	NaN	102	2	39	1	121	221	321	NaN	521	0.784152236301452	2	1	NaN	1295011.8616609	NaN	1295012.8451323	1295013.36168946
28	20	1	0	90	36.1581920903955	36.241610738255	6	0.200021424014121	2	11	6	NaN	2	3	0.132056268018382	1	1	NaN	103	2	40	1	121	221	321	NaN	521	0.580027376767248	2	1	NaN	1295014.9619486	NaN	1295015.9454306	1295016.46199832
28	20	1	0	90	36.1581920903955	36.241610738255	21	0.700074984049424	2	8	4	NaN	2	3	0.132056268018382	1	1	NaN	104	2	41	1	121	221	321	NaN	521	0.62383457669057	2	1	NaN	1295017.862341	NaN	1295018.8457222	1295019.36227682
28	20	1	0	90	36.1581920903955	36.241610738255	19	0.633401176044717	2	6	5	NaN	1	4	0.132056268018382	1	1	NaN	105	2	42	1	121	221	321	NaN	521	0.378042428521439	1	1	NaN	1295020.7959623	NaN	1295021.7793522	1295022.29590757
28	20	1	0	90	36.1581920903955	36.241610738255	7	0.233358328016475	2	6	3	NaN	1	4	0.132056268018382	1	1	NaN	106	2	43	1	121	221	321	NaN	521	0.566888828529045	1	1	NaN	1295023.4795549	NaN	1295024.4629464	1295024.97950467
28	20	1	0	90	36.1581920903955	36.241610738255	18	0.600064272042364	2	8	5	NaN	2	3	0.132056268018382	1	1	NaN	107	2	44	1	121	221	321	NaN	521	0.707218540133908	2	1	NaN	1295026.3631901	NaN	1295027.3465675	1295027.86312116
28	20	1	0	90	36.1581920903955	36.241610738255	11	0.366705944025889	2	6	6	NaN	1	3	0.132056268018382	1	1	NaN	108	2	45	1	121	221	321	NaN	521	0.306073328480124	1	1	NaN	1295029.3801291	NaN	1295030.3635202	1295030.88008377
28	20	1	0	90	36.1581920903955	36.241610738255	24	0.800085696056485	2	11	4	NaN	2	4	0.132056268018382	1	1	NaN	109	2	46	1	121	221	321	NaN	521	0.49741272488609	2	1	NaN	1295031.9970549	NaN	1295032.9804497	1295033.49700458
28	20	1	0	90	36.1581920903955	36.241610738255	7	0.233358328016475	2	12	5	NaN	2	5	0.132056268018382	1	1	NaN	110	2	47	1	121	221	321	NaN	521	0.343946576584131	2	1	NaN	1295034.8140067	NaN	1295035.7973844	1295036.31394262
28	20	1	0	90	36.1581920903955	36.241610738255	13	0.433379752030596	2	6	6	NaN	1	5	0.132056268018382	1	1	NaN	111	2	48	1	121	221	321	NaN	521	0.508999980753288	1	1	NaN	1295037.4809387	NaN	1295038.4643234	1295038.98087532
28	20	1	0	90	36.1581920903955	36.241610738255	9	0.300032136021182	2	1	5	NaN	1	3	0.132056268018382	1	1	NaN	112	2	49	1	121	221	321	NaN	521	0.748196028638631	2	0	NaN	1295040.2978807	NaN	1295041.2812696	1295041.79782477
28	20	1	0	90	36.1581920903955	36.241610738255	14	0.46671665603295	2	11	2	NaN	2	4	0.132056268018382	1	1	NaN	113	2	50	1	121	221	321	NaN	521	0.353279676754028	2	1	NaN	1295043.3647444	NaN	1295044.3482411	1295044.86478102
28	20	1	0	90	36.1581920903955	36.241610738255	25	0.833422600058839	2	8	5	NaN	2	5	0.132056268018382	1	1	NaN	114	2	51	1	121	221	321	NaN	521	0.302341428818181	2	1	NaN	1295046.0316549	NaN	1295047.015164	1295047.53172257
28	20	1	0	90	36.1581920903955	36.241610738255	18	0.600064272042364	2	10	2	NaN	2	3	0.132056268018382	1	1	NaN	115	2	52	1	121	221	321	NaN	521	0.325813376577571	2	1	NaN	1295048.6486942	NaN	1295049.6320992	1295050.14864942
28	20	1	0	90	36.1581920903955	36.241610738255	20	0.666738080047071	2	9	2	NaN	2	5	0.132056268018382	1	1	NaN	116	2	53	1	121	221	321	NaN	521	0.299162628594786	1	0	NaN	1295051.2989482	NaN	1295052.2823256	1295052.79890277
28	20	1	0	90	36.1581920903955	36.241610738255	9	0.300032136021182	2	7	5	NaN	2	4	0.132056268018382	1	1	NaN	117	2	54	1	121	221	321	NaN	521	0.569966076640412	2	1	NaN	1295053.9158763	NaN	1295054.8992709	1295055.41582202
28	20	1	0	90	36.1581920903955	36.241610738255	24	0.800085696056485	2	8	2	NaN	2	3	0.132056268018382	1	1	NaN	118	2	55	1	121	221	321	NaN	521	0.318556376732886	1	0	NaN	1295056.799386	NaN	1295057.7828978	1295058.29943462
28	20	1	0	90	36.1581920903955	36.241610738255	11	0.366705944025889	2	3	3	NaN	1	3	0.132056268018382	1	1	NaN	119	2	56	1	121	221	321	NaN	521	0.285005076555535	1	1	NaN	1295059.4329471	NaN	1295060.4164573	1295060.93302812
28	20	1	0	90	36.1581920903955	36.241610738255	0	0	1	7	3	NaN	2	3	0.132056268018382	1	1	NaN	120	2	57	1	111	211	311	NaN	511	0.340780176687986	2	1	NaN	1295062.0333373	NaN	1295063.016733	1295063.53329152
28	20	1	0	90	36.1581920903955	36.241610738255	20	0.666738080047071	2	1	4	NaN	1	5	0.132056268018382	1	1	NaN	121	2	58	1	121	221	321	NaN	521	0.306999776745215	1	1	NaN	1295064.6836144	NaN	1295065.6669932	1295066.18354312
28	20	1	0	90	36.1581920903955	36.241610738255	7	0.233358328016475	2	9	1	NaN	2	3	0.132056268018382	1	1	NaN	122	2	59	1	121	221	321	NaN	521	0.393648776691407	2	1	NaN	1295067.300563	NaN	1295068.2839141	1295068.80046452
28	20	1	0	90	36.1581920903955	36.241610738255	23	0.766748792054132	2	2	3	NaN	1	3	0.132056268018382	1	1	NaN	123	2	60	1	121	221	321	NaN	521	0.397061128634959	1	1	NaN	1295070.0007446	NaN	1295070.9841857	1295071.50074327
28	20	1	0	90	36.1581920903955	36.241610738255	11	0.366705944025889	2	4	5	NaN	1	4	0.132056268018382	1	1	NaN	124	2	61	1	121	221	321	NaN	521	0.337438924936578	2	0	NaN	1295072.7010567	NaN	1295073.6844422	1295074.20100588
28	20	1	0	90	36.1581920903955	36.241610738255	17	0.56672736804001	2	5	6	NaN	1	3	0.132056268018382	1	1	NaN	125	2	62	1	121	221	321	NaN	521	0.287160972831771	1	1	NaN	1295075.3513231	NaN	1295076.3347109	1295076.85125273
28	20	1	0	90	36.1581920903955	36.241610738255	24	0.800085696056485	2	11	3	NaN	2	5	0.132056268018382	1	1	NaN	126	2	63	1	121	221	321	NaN	521	1.20698923640884	2	1	NaN	1295077.9515811	NaN	1295078.9349688	1295079.45152146
28	20	1	0	90	36.1581920903955	36.241610738255	12	0.400042848028243	2	9	5	NaN	2	5	0.132056268018382	1	1	NaN	127	3	1	1	121	221	321	NaN	521	0.814428128534928	1	0	NaN	1295137.2240247	NaN	1295138.2074509	1295138.72400067
28	20	1	0	90	36.1581920903955	36.241610738255	7	0.233358328016475	2	9	1	NaN	2	5	0.132056268018382	1	1	NaN	128	3	2	1	121	221	321	NaN	521	0.368760328507051	2	1	NaN	1295140.3577112	NaN	1295141.3411262	1295141.85765227
28	20	1	0	90	36.1581920903955	36.241610738255	22	0.733411888051778	2	9	4	NaN	2	4	0.132056268018382	1	1	NaN	129	3	3	1	121	221	321	NaN	521	0.48530382476747	2	1	NaN	1295143.0413178	NaN	1295144.0246955	1295144.54124128
28	20	1	0	90	36.1581920903955	36.241610738255	8	0.266695232018828	2	11	1	NaN	2	4	0.132056268018382	1	1	NaN	130	3	4	1	121	221	321	NaN	521	0.312953428598121	2	1	NaN	1295145.9415707	NaN	1295146.9249702	1295147.44153337
28	20	1	0	90	36.1581920903955	36.241610738255	22	0.733411888051778	2	11	3	NaN	2	4	0.132056268018382	1	1	NaN	131	3	5	1	121	221	321	NaN	521	0.320069976849481	2	1	NaN	1295148.5585302	NaN	1295149.5419068	1295150.05844722
28	20	1	0	90	36.1581920903955	36.241610738255	22	0.733411888051778	2	2	6	NaN	1	4	0.132056268018382	1	1	NaN	132	3	6	1	121	221	321	NaN	521	0.238616428570822	1	1	NaN	1295151.1919869	NaN	1295152.1754848	1295152.69203897
28	20	1	0	90	36.1581920903955	36.241610738255	16	0.533390464037657	2	9	4	NaN	2	3	0.132056268018382	1	1	NaN	133	3	7	1	121	221	321	NaN	521	0.256309028714895	2	1	NaN	1295153.7423698	NaN	1295154.7257426	1295155.24229777
28	20	1	0	90	36.1581920903955	36.241610738255	6	0.200021424014121	2	9	5	NaN	2	4	0.132056268018382	1	1	NaN	134	3	8	1	121	221	321	NaN	521	0.592949628597125	2	1	NaN	1295156.3092572	NaN	1295157.292649	1295157.80921827
28	20	1	0	90	36.1581920903955	36.241610738255	8	0.266695232018828	2	11	2	NaN	2	5	0.132056268018382	1	1	NaN	135	3	9	1	121	221	321	NaN	521	0.292364128632471	2	1	NaN	1295159.2262195	NaN	1295160.2096092	1295160.72617037
28	20	1	0	90	36.1581920903955	36.241610738255	0	0	1	7	6	NaN	2	5	0.132056268018382	1	1	NaN	136	3	10	1	111	211	311	NaN	511	0.187821980565786	2	1	NaN	1295161.8264615	NaN	1295162.8098691	1295163.32641842
28	20	1	0	90	36.1581920903955	36.241610738255	16	0.533390464037657	2	7	4	NaN	2	5	0.132056268018382	1	1	NaN	137	3	11	1	121	221	321	NaN	521	0.335870276670903	2	1	NaN	1295164.3267289	NaN	1295165.3101078	1295165.82666042
28	20	1	0	90	36.1581920903955	36.241610738255	24	0.800085696056485	2	6	4	NaN	1	3	0.132056268018382	1	1	NaN	138	3	12	1	121	221	321	NaN	521	1.94167757686228	1	1	NaN	1295166.9769761	NaN	1295167.9603553	1295168.47692762
28	20	1	0	90	36.1581920903955	36.241610738255	15	0.500053560035303	2	12	1	NaN	2	4	0.132056268018382	1	1	NaN	139	3	13	1	121	221	321	NaN	521	0.275268928613514	2	1	NaN	1295171.2272636	NaN	1295172.2108046	1295172.72736667
28	20	1	0	90	36.1581920903955	36.241610738255	23	0.766748792054132	2	4	3	NaN	1	4	0.132056268018382	1	1	NaN	140	3	14	1	121	221	321	NaN	521	0.40259032859467	1	1	NaN	1295173.8276512	NaN	1295174.8110351	1295175.32760617
28	20	1	0	90	36.1581920903955	36.241610738255	15	0.500053560035303	2	6	3	NaN	1	3	0.132056268018382	1	1	NaN	141	3	15	1	121	221	321	NaN	521	0.335314276861027	1	1	NaN	1295176.9114068	NaN	1295177.8947044	1295178.41124132
28	20	1	0	90	36.1581920903955	36.241610738255	6	0.200021424014121	2	6	4	NaN	1	5	0.132056268018382	1	1	NaN	142	3	16	1	121	221	321	NaN	521	0.316463228780776	1	1	NaN	1295179.5615422	NaN	1295180.5449438	1295181.06150227
28	20	1	0	90	36.1581920903955	36.241610738255	15	0.500053560035303	2	3	3	NaN	1	4	0.132056268018382	1	1	NaN	143	3	17	1	121	221	321	NaN	521	0.291424776893109	1	1	NaN	1295182.1951687	NaN	1295183.1785452	1295183.69508272
28	20	1	0	90	36.1581920903955	36.241610738255	21	0.700074984049424	2	7	4	NaN	2	5	0.132056268018382	1	1	NaN	144	3	18	1	121	221	321	NaN	521	0.213567876722664	2	1	NaN	1295185.1287291	NaN	1295186.1121567	1295186.62870082
28	20	1	0	90	36.1581920903955	36.241610738255	25	0.833422600058839	2	6	6	NaN	1	3	0.132056268018382	1	1	NaN	145	3	19	1	121	221	321	NaN	521	0.245206076651812	1	1	NaN	1295188.1290617	NaN	1295189.1123452	1295189.62900122
28	20	1	0	90	36.1581920903955	36.241610738255	8	0.266695232018828	2	6	3	NaN	1	5	0.132056268018382	1	1	NaN	146	3	20	1	121	221	321	NaN	521	0.318624072708189	1	1	NaN	1295190.6959815	NaN	1295191.6794298	1295192.19591573
28	20	1	0	90	36.1581920903955	36.241610738255	10	0.333369040023536	2	2	3	NaN	1	4	0.132056268018382	1	1	NaN	147	3	21	1	121	221	321	NaN	521	0.261215776670724	1	1	NaN	1295193.3295757	NaN	1295194.3129629	1295194.82950662
28	20	1	0	90	36.1581920903955	36.241610738255	9	0.300032136021182	2	8	5	NaN	2	3	0.132056268018382	1	1	NaN	148	3	22	1	121	221	321	NaN	521	0.269211928825825	2	1	NaN	1295195.9131446	NaN	1295196.8965625	1295197.41309967
28	20	1	0	90	36.1581920903955	36.241610738255	16	0.533390464037657	2	11	5	NaN	2	4	0.132056268018382	1	1	NaN	149	3	23	1	121	221	321	NaN	521	0.772328128572553	2	1	NaN	1295199.1300278	NaN	1295200.1135311	1295200.63008697
28	20	1	0	90	36.1581920903955	36.241610738255	16	0.533390464037657	2	12	4	NaN	2	5	0.132056268018382	1	1	NaN	150	3	24	1	121	221	321	NaN	521	0.29696532478556	2	1	NaN	1295202.2137651	NaN	1295203.1971782	1295203.71371498
28	20	1	0	90	36.1581920903955	36.241610738255	6	0.200021424014121	2	3	2	NaN	1	5	0.132056268018382	1	1	NaN	151	3	25	1	121	221	321	NaN	521	0.252563328715041	1	1	NaN	1295205.3140749	NaN	1295206.2974702	1295206.81402877
28	20	1	0	90	36.1581920903955	36.241610738255	9	0.300032136021182	2	4	4	NaN	1	3	0.132056268018382	1	1	NaN	152	3	26	1	121	221	321	NaN	521	0.397388376761228	2	0	NaN	1295207.8809867	NaN	1295208.8643754	1295209.38093502
28	20	1	0	90	36.1581920903955	36.241610738255	12	0.400042848028243	2	1	3	NaN	1	3	0.132056268018382	1	1	NaN	153	3	27	1	121	221	321	NaN	521	0.281793676782399	1	1	NaN	1295210.7645731	NaN	1295211.7480779	1295212.26455662
28	20	1	0	90	36.1581920903955	36.241610738255	15	0.500053560035303	2	9	1	NaN	2	5	0.132056268018382	1	1	NaN	154	3	28	1	121	221	321	NaN	521	0.290821376722306	1	0	NaN	1295213.7315439	NaN	1295214.7149476	1295215.23151142
28	20	1	0	90	36.1581920903955	36.241610738255	7	0.233358328016475	2	6	5	NaN	1	3	0.132056268018382	1	1	NaN	155	3	29	1	121	221	321	NaN	521	0.258374528493732	1	1	NaN	1295216.3318478	NaN	1295217.3152267	1295217.83177517
28	20	1	0	90	36.1581920903955	36.241610738255	13	0.433379752030596	2	7	6	NaN	2	4	0.132056268018382	1	1	NaN	156	3	30	1	121	221	321	NaN	521	0.268183276755735	2	1	NaN	1295219.2821388	NaN	1295220.2654952	1295220.78205612
28	20	1	0	90	36.1581920903955	36.241610738255	7	0.233358328016475	2	8	3	NaN	2	4	0.132056268018382	1	1	NaN	157	3	31	1	121	221	321	NaN	521	0.644659676821902	2	1	NaN	1295221.8657125	NaN	1295222.8491017	1295223.36565352
28	20	1	0	90	36.1581920903955	36.241610738255	23	0.766748792054132	2	3	5	NaN	1	4	0.132056268018382	1	1	NaN	158	3	32	1	121	221	321	NaN	521	0.200044276658446	2	0	NaN	1295225.1827028	NaN	1295226.1660878	1295226.68265152
28	20	1	0	90	36.1581920903955	36.241610738255	23	0.766748792054132	2	6	2	NaN	1	3	0.132056268018382	1	1	NaN	159	3	33	1	121	221	321	NaN	521	0.299273876706138	1	1	NaN	1295228.0828591	NaN	1295229.0663653	1295229.58292622
28	20	1	0	90	36.1581920903955	36.241610738255	0	0	1	10	6	NaN	2	4	0.132056268018382	1	1	NaN	160	3	34	1	111	211	311	NaN	511	0.178516428684816	2	1	NaN	1295230.6999183	NaN	1295231.6832951	1295232.19985177
28	20	1	0	90	36.1581920903955	36.241610738255	8	0.266695232018828	2	2	3	NaN	1	5	0.132056268018382	1	1	NaN	161	3	35	1	121	221	321	NaN	521	0.398573376936838	1	1	NaN	1295233.2001306	NaN	1295234.1835447	1295234.70009632
28	20	1	0	90	36.1581920903955	36.241610738255	18	0.600064272042364	2	4	4	NaN	1	5	0.132056268018382	1	1	NaN	162	3	36	1	121	221	321	NaN	521	0.513260328676552	1	1	NaN	1295235.9170983	NaN	1295236.9004716	1295237.41703707
28	20	1	0	90	36.1581920903955	36.241610738255	21	0.700074984049424	2	3	3	NaN	1	5	0.132056268018382	1	1	NaN	163	3	37	1	121	221	321	NaN	521	0.924319076584652	1	1	NaN	1295239.2340767	NaN	1295240.2174748	1295240.73402592
28	20	1	0	90	36.1581920903955	36.241610738255	24	0.800085696056485	2	12	6	NaN	2	4	0.132056268018382	1	1	NaN	164	3	38	1	121	221	321	NaN	521	0.393953776918352	2	1	NaN	1295242.4843673	NaN	1295243.4677879	1295243.98435822
28	20	1	0	90	36.1581920903955	36.241610738255	15	0.500053560035303	2	6	6	NaN	1	4	0.132056268018382	1	1	NaN	165	3	39	1	121	221	321	NaN	521	0.277217176742852	1	1	NaN	1295245.2011694	NaN	1295246.1847135	1295246.70127002
28	20	1	0	90	36.1581920903955	36.241610738255	24	0.800085696056485	2	12	3	NaN	2	4	0.132056268018382	1	1	NaN	166	3	40	1	121	221	321	NaN	521	0.213404428679496	2	1	NaN	1295247.7849067	NaN	1295248.7683033	1295249.28486407
28	20	1	0	90	36.1581920903955	36.241610738255	17	0.56672736804001	2	12	2	NaN	2	5	0.132056268018382	1	1	NaN	167	3	41	1	121	221	321	NaN	521	0.224670228548348	2	1	NaN	1295250.3018269	NaN	1295251.2853439	1295251.80178017
28	20	1	0	90	36.1581920903955	36.241610738255	19	0.633401176044717	2	12	6	NaN	2	4	0.132056268018382	1	1	NaN	168	3	42	1	121	221	321	NaN	521	0.0830825767479837	2	1	NaN	1295252.8353383	NaN	1295253.8188017	1295254.33535012
28	20	1	0	90	36.1581920903955	36.241610738255	7	0.233358328016475	2	7	2	NaN	2	3	0.132056268018382	1	1	NaN	169	3	43	1	121	221	321	NaN	521	0.243134480668232	2	1	NaN	1295255.2356465	NaN	1295256.2190389	1295256.73559412
28	20	1	0	90	36.1581920903955	36.241610738255	21	0.700074984049424	2	6	6	NaN	1	3	0.132056268018382	1	1	NaN	170	3	44	1	121	221	321	NaN	521	2.24458732875064	1	1	NaN	1295257.7859816	NaN	1295258.7692757	1295259.28585057
28	20	1	0	90	36.1581920903955	36.241610738255	15	0.500053560035303	2	4	5	NaN	1	5	0.132056268018382	1	1	NaN	171	3	45	1	121	221	321	NaN	521	0.315757924690843	1	1	NaN	1295262.8030708	NaN	1295263.7864477	1295264.30299608
28	20	1	0	90	36.1581920903955	36.241610738255	22	0.733411888051778	2	1	2	NaN	1	4	0.132056268018382	1	1	NaN	172	3	46	1	121	221	321	NaN	521	0.318381876684725	1	1	NaN	1295265.9200046	NaN	1295266.9034192	1295267.41996842
28	20	1	0	90	36.1581920903955	36.241610738255	7	0.233358328016475	2	5	3	NaN	1	5	0.132056268018382	1	1	NaN	173	3	47	1	121	221	321	NaN	521	0.29279982461594	1	1	NaN	1295268.5536152	NaN	1295269.5370172	1295270.05356738
28	20	1	0	90	36.1581920903955	36.241610738255	0	0	1	4	6	NaN	1	5	0.132056268018382	1	1	NaN	174	3	48	1	111	211	311	NaN	511	0.900217076763511	2	0	NaN	1295271.1703999	NaN	1295272.1539504	1295272.67048652
28	20	1	0	90	36.1581920903955	36.241610738255	6	0.200021424014121	2	5	6	NaN	1	4	0.132056268018382	1	1	NaN	175	3	49	1	121	221	321	NaN	521	0.243363424669951	1	1	NaN	1295274.3875241	NaN	1295275.3708347	1295275.88747038
28	20	1	0	90	36.1581920903955	36.241610738255	12	0.400042848028243	2	3	1	NaN	1	5	0.132056268018382	1	1	NaN	176	3	50	1	121	221	321	NaN	521	0.273472976638004	1	1	NaN	1295277.4211532	NaN	1295278.4045496	1295278.92109972
28	20	1	0	90	36.1581920903955	36.241610738255	0	0	1	4	4	NaN	1	4	0.132056268018382	1	1	NaN	177	3	51	1	111	211	311	NaN	511	0.706575284246355	2	0	NaN	1295280.1880701	NaN	1295281.1714881	1295281.68804572
28	20	1	0	90	36.1581920903955	36.241610738255	19	0.633401176044717	2	2	5	NaN	1	4	0.132056268018382	1	1	NaN	178	3	52	1	121	221	321	NaN	521	0.20123489247635	1	1	NaN	1295283.2050602	NaN	1295284.1884531	1295284.70500561
28	20	1	0	90	36.1581920903955	36.241610738255	20	0.666738080047071	2	11	4	NaN	2	4	0.132056268018382	1	1	NaN	179	3	53	1	121	221	321	NaN	521	0.281841476680711	1	0	NaN	1295286.188559	NaN	1295287.1720856	1295287.68862872
28	20	1	0	90	36.1581920903955	36.241610738255	19	0.633401176044717	2	2	6	NaN	1	4	0.132056268018382	1	1	NaN	180	3	54	1	121	221	321	NaN	521	0.593460376840085	2	0	NaN	1295288.7889343	NaN	1295289.7723588	1295290.28888142
28	20	1	0	90	36.1581920903955	36.241610738255	23	0.766748792054132	2	3	5	NaN	1	5	0.132056268018382	1	1	NaN	181	3	55	1	121	221	321	NaN	521	0.212641324847937	1	1	NaN	1295291.7059242	NaN	1295292.6892936	1295293.20583528
28	20	1	0	90	36.1581920903955	36.241610738255	12	0.400042848028243	2	12	3	NaN	2	5	0.132056268018382	1	1	NaN	182	3	56	1	121	221	321	NaN	521	0.495254076551646	1	0	NaN	1295294.2395063	NaN	1295295.222852	1295295.73941792
28	20	1	0	90	36.1581920903955	36.241610738255	24	0.800085696056485	2	10	3	NaN	2	4	0.132056268018382	1	1	NaN	183	3	57	1	121	221	321	NaN	521	0.2230045767501	2	1	NaN	1295297.4396625	NaN	1295298.4231707	1295298.93973662
28	20	1	0	90	36.1581920903955	36.241610738255	0	0	1	8	4	NaN	2	3	0.132056268018382	1	1	NaN	184	3	58	1	111	211	311	NaN	511	0.432367076631635	2	1	NaN	1295299.9900423	NaN	1295300.9733418	1295301.48998552
28	20	1	0	90	36.1581920903955	36.241610738255	17	0.56672736804001	2	11	4	NaN	2	4	0.132056268018382	1	1	NaN	185	3	59	1	121	221	321	NaN	521	0.346033580601215	1	0	NaN	1295302.7403073	NaN	1295303.7236996	1295304.24025412
28	20	1	0	90	36.1581920903955	36.241610738255	12	0.400042848028243	2	7	4	NaN	2	3	0.132056268018382	1	1	NaN	186	3	60	1	121	221	321	NaN	521	0.262284976663068	2	1	NaN	1295305.4405888	NaN	1295306.4239646	1295306.94051812
28	20	1	0	90	36.1581920903955	36.241610738255	0	0	1	12	1	NaN	2	4	0.132056268018382	1	1	NaN	187	3	61	1	111	211	311	NaN	511	0.69437152473256	2	1	NaN	1295308.0241879	NaN	1295309.0075581	1295309.52411438
28	20	1	0	90	36.1581920903955	36.241610738255	16	0.533390464037657	2	2	6	NaN	1	4	0.132056268018382	1	1	NaN	188	3	62	1	121	221	321	NaN	521	0.2693995248992	1	1	NaN	1295311.0411277	NaN	1295312.0245202	1295312.54107018
28	20	1	0	90	36.1581920903955	36.241610738255	20	0.666738080047071	2	8	1	NaN	2	4	0.132056268018382	1	1	NaN	189	3	63	1	121	221	321	NaN	521	0.781866296194494	2	1	NaN	1295313.6247174	NaN	1295314.6081083	1295315.1246696
28	20	1	0	90	36.1581920903955	36.241610738255	25	0.833422600058839	2	8	5	NaN	2	4	0.132056268018382	1	1	NaN	190	4	1	1	121	221	321	NaN	521	0.277506128652021	2	1	NaN	1295340.7773895	NaN	1295341.7607788	1295342.27733137
28	20	1	0	90	36.1581920903955	36.241610738255	16	0.533390464037657	2	7	2	NaN	2	5	0.132056268018382	1	1	NaN	191	4	2	1	121	221	321	NaN	521	0.453658324899152	2	1	NaN	1295343.3609627	NaN	1295344.3443637	1295344.86091638
28	20	1	0	90	36.1581920903955	36.241610738255	13	0.433379752030596	2	4	3	NaN	1	3	0.132056268018382	1	1	NaN	192	4	3	1	121	221	321	NaN	521	0.233070828719065	1	1	NaN	1295346.2612902	NaN	1295347.2446455	1295347.76120587
28	20	1	0	90	36.1581920903955	36.241610738255	9	0.300032136021182	2	11	2	NaN	2	4	0.132056268018382	1	1	NaN	193	4	4	1	121	221	321	NaN	521	0.490979776717722	2	1	NaN	1295348.8115085	NaN	1295349.7949012	1295350.31144252
28	20	1	0	90	36.1581920903955	36.241610738255	13	0.433379752030596	2	6	1	NaN	1	4	0.132056268018382	1	1	NaN	194	4	5	1	121	221	321	NaN	521	0.226339496206492	1	1	NaN	1295351.6284517	NaN	1295352.6118484	1295353.1284036
28	20	1	0	90	36.1581920903955	36.241610738255	9	0.300032136021182	2	6	6	NaN	1	4	0.132056268018382	1	1	NaN	195	4	6	1	121	221	321	NaN	521	0.281782076694071	1	1	NaN	1295354.6287379	NaN	1295355.612142	1295356.12868312
28	20	1	0	90	36.1581920903955	36.241610738255	25	0.833422600058839	2	10	5	NaN	2	3	0.132056268018382	1	1	NaN	196	4	7	1	121	221	321	NaN	521	0.182480228831992	2	1	NaN	1295357.712315	NaN	1295358.6957766	1295359.21233087
28	20	1	0	90	36.1581920903955	36.241610738255	8	0.266695232018828	2	3	4	NaN	1	5	0.132056268018382	1	1	NaN	197	4	8	1	121	221	321	NaN	521	0.279297228669748	1	1	NaN	1295360.6793079	NaN	1295361.662709	1295362.17928787
28	20	1	0	90	36.1581920903955	36.241610738255	7	0.233358328016475	2	4	1	NaN	1	4	0.132056268018382	1	1	NaN	198	4	9	1	121	221	321	NaN	521	0.251746180700138	1	1	NaN	1295363.3628977	NaN	1295364.3463285	1295364.86288572
28	20	1	0	90	36.1581920903955	36.241610738255	11	0.366705944025889	2	4	2	NaN	1	5	0.132056268018382	1	1	NaN	199	4	10	1	121	221	321	NaN	521	0.277079073013738	1	1	NaN	1295366.3298951	NaN	1295367.3132886	1295367.82983583
28	20	1	0	90	36.1581920903955	36.241610738255	13	0.433379752030596	2	11	5	NaN	2	5	0.132056268018382	1	1	NaN	200	4	11	1	121	221	321	NaN	521	0.19702567672357	2	1	NaN	1295368.9135563	NaN	1295369.8968781	1295370.41342992
28	20	1	0	90	36.1581920903955	36.241610738255	15	0.500053560035303	2	9	6	NaN	2	5	0.132056268018382	1	1	NaN	201	4	12	1	121	221	321	NaN	521	0.213377228705212	1	0	NaN	1295371.8970981	NaN	1295372.8805067	1295373.39704467
28	20	1	0	90	36.1581920903955	36.241610738255	11	0.366705944025889	2	7	3	NaN	2	5	0.132056268018382	1	1	NaN	202	4	13	1	121	221	321	NaN	521	0.740489176707342	2	1	NaN	1295374.9140963	NaN	1295375.8974743	1295376.41401272
28	20	1	0	90	36.1581920903955	36.241610738255	9	0.300032136021182	2	8	3	NaN	2	4	0.132056268018382	1	1	NaN	203	4	14	1	121	221	321	NaN	521	0.226626680698246	2	1	NaN	1295377.9643686	NaN	1295378.9477579	1295379.46431132
28	20	1	0	90	36.1581920903955	36.241610738255	11	0.366705944025889	2	8	6	NaN	2	3	0.132056268018382	1	1	NaN	204	4	15	1	121	221	321	NaN	521	0.188834792468697	2	1	NaN	1295380.4979497	NaN	1295381.4813499	1295381.99789711
28	20	1	0	90	36.1581920903955	36.241610738255	21	0.700074984049424	2	6	3	NaN	1	5	0.132056268018382	1	1	NaN	205	4	16	1	121	221	321	NaN	521	0.216676176758483	1	1	NaN	1295382.9981907	NaN	1295383.9815733	1295384.49813222
28	20	1	0	90	36.1581920903955	36.241610738255	0	0	1	10	4	NaN	2	3	0.132056268018382	1	1	NaN	206	4	17	1	111	211	311	NaN	511	0.231036276789382	2	1	NaN	1295386.0317907	NaN	1295387.0152194	1295387.53176982
28	20	1	0	90	36.1581920903955	36.241610738255	21	0.700074984049424	2	5	4	NaN	1	4	0.132056268018382	1	1	NaN	207	4	18	1	121	221	321	NaN	521	0.267982976743951	1	1	NaN	1295388.8987635	NaN	1295389.8821675	1295390.39871642
28	20	1	0	90	36.1581920903955	36.241610738255	20	0.666738080047071	2	10	1	NaN	2	4	0.132056268018382	1	1	NaN	208	4	19	1	121	221	321	NaN	521	0.19415157684125	2	1	NaN	1295391.9324356	NaN	1295392.9158038	1295393.43234352
28	20	1	0	90	36.1581920903955	36.241610738255	25	0.833422600058839	2	12	3	NaN	2	4	0.132056268018382	1	1	NaN	209	4	20	1	121	221	321	NaN	521	0.305857828818262	2	1	NaN	1295394.5326264	NaN	1295395.5160446	1295396.03261197
28	20	1	0	90	36.1581920903955	36.241610738255	25	0.833422600058839	2	11	4	NaN	2	4	0.132056268018382	1	1	NaN	210	4	21	1	121	221	321	NaN	521	0.297120744129643	2	1	NaN	1295397.1495912	NaN	1295398.1329883	1295398.64953216
28	20	1	0	90	36.1581920903955	36.241610738255	20	0.666738080047071	2	6	3	NaN	1	5	0.132056268018382	1	1	NaN	211	4	22	1	121	221	321	NaN	521	0.295979176647961	1	1	NaN	1295399.766316	NaN	1295400.7499017	1295401.26645322
28	20	1	0	90	36.1581920903955	36.241610738255	11	0.366705944025889	2	5	5	NaN	1	5	0.132056268018382	1	1	NaN	212	4	23	1	121	221	321	NaN	521	0.120125476736575	1	1	NaN	1295402.5668369	NaN	1295403.5501789	1295404.06673402
28	20	1	0	90	36.1581920903955	36.241610738255	10	0.333369040023536	2	10	4	NaN	2	5	0.132056268018382	1	1	NaN	213	4	24	1	121	221	321	NaN	521	0.262317876797169	2	1	NaN	1295405.0002362	NaN	1295405.9838108	1295406.50029742
28	20	1	0	90	36.1581920903955	36.241610738255	24	0.800085696056485	2	8	4	NaN	2	3	0.132056268018382	1	1	NaN	214	4	25	1	121	221	321	NaN	521	0.289399424800649	2	1	NaN	1295407.9171677	NaN	1295408.9006905	1295409.41725248
28	20	1	0	90	36.1581920903955	36.241610738255	23	0.766748792054132	2	9	3	NaN	2	4	0.132056268018382	1	1	NaN	215	4	26	1	121	221	321	NaN	521	0.246438428526744	2	1	NaN	1295410.9842831	NaN	1295411.9676636	1295412.48422737
28	20	1	0	90	36.1581920903955	36.241610738255	18	0.600064272042364	2	7	2	NaN	2	3	0.132056268018382	1	1	NaN	216	4	27	1	121	221	321	NaN	521	0.26237977668643	2	1	NaN	1295413.9844349	NaN	1295414.9679791	1295415.48451452
28	20	1	0	90	36.1581920903955	36.241610738255	0	0	1	9	3	NaN	2	3	0.132056268018382	1	1	NaN	217	4	28	1	111	211	311	NaN	511	0.278430528473109	2	1	NaN	1295416.5680601	NaN	1295417.5515463	1295418.06810837
28	20	1	0	90	36.1581920903955	36.241610738255	7	0.233358328016475	2	10	6	NaN	2	3	0.132056268018382	1	1	NaN	218	4	29	1	121	221	321	NaN	521	0.342939876718447	2	1	NaN	1295419.1517466	NaN	1295420.1351409	1295420.65169012
28	20	1	0	90	36.1581920903955	36.241610738255	16	0.533390464037657	2	10	5	NaN	2	5	0.132056268018382	1	1	NaN	219	4	30	1	121	221	321	NaN	521	0.267822928493842	2	1	NaN	1295421.8186675	NaN	1295422.802064	1295423.31862497
28	20	1	0	90	36.1581920903955	36.241610738255	15	0.500053560035303	2	5	1	NaN	1	3	0.132056268018382	1	1	NaN	220	4	31	1	121	221	321	NaN	521	0.244373476598412	1	1	NaN	1295424.4022688	NaN	1295425.3856473	1295425.90220832
28	20	1	0	90	36.1581920903955	36.241610738255	24	0.800085696056485	2	3	6	NaN	1	4	0.132056268018382	1	1	NaN	221	4	32	1	121	221	321	NaN	521	0.157764880452305	1	1	NaN	1295426.9691862	NaN	1295427.9525973	1295428.46912792
28	20	1	0	90	36.1581920903955	36.241610738255	11	0.366705944025889	2	11	5	NaN	2	3	0.132056268018382	1	1	NaN	222	4	33	1	121	221	321	NaN	521	0.138971224660054	2	1	NaN	1295429.4360939	NaN	1295430.4194105	1295430.93603948
28	20	1	0	90	36.1581920903955	36.241610738255	7	0.233358328016475	2	2	4	NaN	1	4	0.132056268018382	1	1	NaN	223	4	34	1	121	221	321	NaN	521	0.232331276638433	1	1	NaN	1295431.8863199	NaN	1295432.8697132	1295433.38626812
28	20	1	0	90	36.1581920903955	36.241610738255	22	0.733411888051778	2	7	5	NaN	2	3	0.132056268018382	1	1	NaN	224	4	35	1	121	221	321	NaN	521	0.141400476917624	2	1	NaN	1295435.1532831	NaN	1295436.1367127	1295436.65325712
28	20	1	0	90	36.1581920903955	36.241610738255	11	0.366705944025889	2	11	1	NaN	2	5	0.132056268018382	1	1	NaN	225	4	36	1	121	221	321	NaN	521	0.257618076633662	2	1	NaN	1295437.8368807	NaN	1295438.8203007	1295439.33685062
28	20	1	0	90	36.1581920903955	36.241610738255	23	0.766748792054132	2	5	4	NaN	1	3	0.132056268018382	1	1	NaN	226	4	37	1	121	221	321	NaN	521	0.193435176741332	1	1	NaN	1295440.8372226	NaN	1295441.8206059	1295442.33714512
28	20	1	0	90	36.1581920903955	36.241610738255	21	0.700074984049424	2	11	2	NaN	2	3	0.132056268018382	1	1	NaN	227	4	38	1	121	221	321	NaN	521	0.120529276784509	2	1	NaN	1295443.8541525	NaN	1295444.8375471	1295445.35411282
28	20	1	0	90	36.1581920903955	36.241610738255	17	0.56672736804001	2	8	3	NaN	2	3	0.132056268018382	1	1	NaN	228	4	39	1	121	221	321	NaN	521	0.388126676669344	2	1	NaN	1295446.5544528	NaN	1295447.5378126	1295448.05437322
28	20	1	0	90	36.1581920903955	36.241610738255	8	0.266695232018828	2	9	3	NaN	2	3	0.132056268018382	1	1	NaN	229	4	40	1	121	221	321	NaN	521	0.142411976819858	2	1	NaN	1295449.7047619	NaN	1295450.6881213	1295451.20469112
28	20	1	0	90	36.1581920903955	36.241610738255	15	0.500053560035303	2	4	4	NaN	1	3	0.132056268018382	1	1	NaN	230	4	41	1	121	221	321	NaN	521	0.160058376844972	2	0	NaN	1295452.4549847	NaN	1295453.4384211	1295453.95495622
28	20	1	0	90	36.1581920903955	36.241610738255	25	0.833422600058839	2	3	5	NaN	1	4	0.132056268018382	1	1	NaN	231	4	42	1	121	221	321	NaN	521	0.220816328655928	1	1	NaN	1295454.921915	NaN	1295455.9053034	1295456.42187657
28	20	1	0	90	36.1581920903955	36.241610738255	21	0.700074984049424	2	11	3	NaN	2	3	0.132056268018382	1	1	NaN	232	4	43	1	121	221	321	NaN	521	0.691528628813103	1	0	NaN	1295457.5554811	NaN	1295458.5389044	1295459.05546647
28	20	1	0	90	36.1581920903955	36.241610738255	20	0.666738080047071	2	3	2	NaN	1	4	0.132056268018382	1	1	NaN	233	4	44	1	121	221	321	NaN	521	0.314854776719585	1	1	NaN	1295460.5557982	NaN	1295461.5392036	1295462.05575362
28	20	1	0	90	36.1581920903955	36.241610738255	24	0.800085696056485	2	3	6	NaN	1	5	0.132056268018382	1	1	NaN	234	4	45	1	121	221	321	NaN	521	0.0104308247100562	1	1	NaN	1295463.1894084	NaN	1295464.1727957	1295464.68934918
28	20	1	0	90	36.1581920903955	36.241610738255	7	0.233358328016475	2	1	6	NaN	1	5	0.132056268018382	1	1	NaN	235	4	46	1	121	221	321	NaN	521	0.180724872974679	1	1	NaN	1295465.5062895	NaN	1295466.4896886	1295467.00623823
28	20	1	0	90	36.1581920903955	36.241610738255	12	0.400042848028243	2	5	4	NaN	1	4	0.132056268018382	1	1	NaN	236	4	47	1	121	221	321	NaN	521	0.127987024839967	1	1	NaN	1295468.0065483	NaN	1295468.9899392	1295469.50647928
28	20	1	0	90	36.1581920903955	36.241610738255	16	0.533390464037657	2	5	1	NaN	1	5	0.132056268018382	1	1	NaN	237	4	48	1	121	221	321	NaN	521	0.174246576614678	1	1	NaN	1295470.4567846	NaN	1295471.4401752	1295471.95672592
28	20	1	0	90	36.1581920903955	36.241610738255	12	0.400042848028243	2	6	1	NaN	1	4	0.132056268018382	1	1	NaN	238	4	49	1	121	221	321	NaN	521	0.250432976754382	1	1	NaN	1295472.9403831	NaN	1295473.9237591	1295474.44030042
28	20	1	0	90	36.1581920903955	36.241610738255	14	0.46671665603295	2	7	6	NaN	2	3	0.132056268018382	1	1	NaN	239	4	50	1	121	221	321	NaN	521	0.155716176843271	2	1	NaN	1295475.7072886	NaN	1295476.6906795	1295477.20723592
28	20	1	0	90	36.1581920903955	36.241610738255	19	0.633401176044717	2	9	2	NaN	2	3	0.132056268018382	1	1	NaN	240	4	51	1	121	221	321	NaN	521	0.288882476743311	2	1	NaN	1295478.1742067	NaN	1295479.1575996	1295479.67414702
28	20	1	0	90	36.1581920903955	36.241610738255	14	0.46671665603295	2	7	6	NaN	2	4	0.132056268018382	1	1	NaN	241	4	52	1	121	221	321	NaN	521	0.0164463766850531	2	1	NaN	1295480.7744556	NaN	1295481.7578514	1295482.27440542
28	20	1	0	90	36.1581920903955	36.241610738255	25	0.833422600058839	2	5	6	NaN	1	3	0.132056268018382	1	1	NaN	242	4	53	1	121	221	321	NaN	521	0.267051976639777	1	1	NaN	1295483.1078943	NaN	1295484.0914215	1295484.60797302
28	20	1	0	90	36.1581920903955	36.241610738255	10	0.333369040023536	2	8	2	NaN	2	5	0.132056268018382	1	1	NaN	243	4	54	1	121	221	321	NaN	521	0.21147807687521	2	1	NaN	1295485.6916113	NaN	1295486.6750041	1295487.19154982
28	20	1	0	90	36.1581920903955	36.241610738255	6	0.200021424014121	2	3	2	NaN	1	4	0.132056268018382	1	1	NaN	244	4	55	1	121	221	321	NaN	521	0.238784676650539	1	1	NaN	1295488.2085645	NaN	1295489.1919191	1295489.70847642
28	20	1	0	90	36.1581920903955	36.241610738255	8	0.266695232018828	2	6	5	NaN	1	5	0.132056268018382	1	1	NaN	245	4	56	1	121	221	321	NaN	521	0.336247528670356	1	1	NaN	1295490.7587728	NaN	1295491.7421702	1295492.25872857
28	20	1	0	90	36.1581920903955	36.241610738255	21	0.700074984049424	2	9	6	NaN	2	3	0.132056268018382	1	1	NaN	246	4	57	1	121	221	321	NaN	521	0.277694576885551	1	0	NaN	1295493.4090259	NaN	1295494.3924295	1295494.90898762
28	20	1	0	90	36.1581920903955	36.241610738255	17	0.56672736804001	2	9	5	NaN	2	5	0.132056268018382	1	1	NaN	247	4	58	1	121	221	321	NaN	521	0.150025628507137	2	1	NaN	1295496.0092905	NaN	1295496.9927442	1295497.50924457
28	20	1	0	90	36.1581920903955	36.241610738255	14	0.46671665603295	2	2	6	NaN	1	5	0.132056268018382	1	1	NaN	248	4	59	1	121	221	321	NaN	521	0.0103987285401672	1	1	NaN	1295498.476079	NaN	1295499.4596005	1295499.97615277
28	20	1	0	90	36.1581920903955	36.241610738255	16	0.533390464037657	2	6	2	NaN	1	4	0.132056268018382	1	1	NaN	249	4	60	1	121	221	321	NaN	521	0.285699580563232	1	1	NaN	1295500.7930948	NaN	1295501.7764762	1295502.29303442
28	20	1	0	90	36.1581920903955	36.241610738255	17	0.56672736804001	2	8	2	NaN	2	3	0.132056268018382	1	1	NaN	250	4	61	1	121	221	321	NaN	521	0.333773428574204	1	0	NaN	1295503.3933534	NaN	1295504.3767342	1295504.89329667
28	20	1	0	90	36.1581920903955	36.241610738255	17	0.56672736804001	2	9	4	NaN	2	4	0.132056268018382	1	1	NaN	251	4	62	1	121	221	321	NaN	521	0.147592776687816	2	1	NaN	1295506.0436079	NaN	1295507.0270001	1295507.54354972
28	20	1	0	90	36.1581920903955	36.241610738255	14	0.46671665603295	2	12	4	NaN	2	5	0.132056268018382	1	1	NaN	252	4	63	1	121	221	321	NaN	521	0.488531576935202	1	0	NaN	1295508.5105245	NaN	1295509.4939168	1295510.01045772
28	20	1	0	90	36.1581920903955	36.241610738255	25	0.833422600058839	2	2	1	NaN	1	3	0.132056268018382	1	1	NaN	253	5	1	1	121	221	321	NaN	521	0.544333828613162	1	1	NaN	1295553.4148891	NaN	1295554.3983191	1295554.91487397
28	20	1	0	90	36.1581920903955	36.241610738255	16	0.533390464037657	2	10	1	NaN	2	3	0.132056268018382	1	1	NaN	254	5	2	1	121	221	321	NaN	521	0.46997708058916	1	0	NaN	1295556.2652005	NaN	1295557.2486005	1295557.76515362
28	20	1	0	90	36.1581920903955	36.241610738255	17	0.56672736804001	2	1	3	NaN	1	4	0.132056268018382	1	1	NaN	255	5	3	1	121	221	321	NaN	521	0.254231528611854	1	1	NaN	1295559.048842	NaN	1295560.0321968	1295560.54876127
28	20	1	0	90	36.1581920903955	36.241610738255	6	0.200021424014121	2	5	3	NaN	1	3	0.132056268018382	1	1	NaN	256	5	4	1	121	221	321	NaN	521	0.119380076648667	1	1	NaN	1295561.6156184	NaN	1295562.5991191	1295563.11568322
28	20	1	0	90	36.1581920903955	36.241610738255	22	0.733411888051778	2	7	4	NaN	2	3	0.132056268018382	1	1	NaN	257	5	5	1	121	221	321	NaN	521	0.541337676811963	2	1	NaN	1295564.049322	NaN	1295565.0327327	1295565.54924602
28	20	1	0	90	36.1581920903955	36.241610738255	19	0.633401176044717	2	9	1	NaN	2	3	0.132056268018382	1	1	NaN	258	5	6	1	121	221	321	NaN	521	0.139329676749185	2	1	NaN	1295566.8995749	NaN	1295567.8829824	1295568.39953302
28	20	1	0	90	36.1581920903955	36.241610738255	22	0.733411888051778	2	4	2	NaN	1	4	0.132056268018382	1	1	NaN	259	5	7	1	121	221	321	NaN	521	0.440976176876575	1	1	NaN	1295569.3498215	NaN	1295570.3332116	1295570.84976682
28	20	1	0	90	36.1581920903955	36.241610738255	23	0.766748792054132	2	9	6	NaN	2	4	0.132056268018382	1	1	NaN	260	5	8	1	121	221	321	NaN	521	0.298848728649318	2	1	NaN	1295572.1000894	NaN	1295573.0833958	1295573.60004867
28	20	1	0	90	36.1581920903955	36.241610738255	0	0	1	6	5	NaN	1	4	0.132056268018382	1	1	NaN	261	5	9	1	111	211	311	NaN	511	0.75388527661562	1	1	NaN	1295574.7170201	NaN	1295575.7003974	1295576.21696112
28	20	1	0	90	36.1581920903955	36.241610738255	21	0.700074984049424	2	2	4	NaN	1	3	0.132056268018382	1	1	NaN	262	5	10	1	121	221	321	NaN	521	0.285152428783476	1	1	NaN	1295577.834014	NaN	1295578.8173862	1295579.33394407
28	20	1	0	90	36.1581920903955	36.241610738255	12	0.400042848028243	2	5	2	NaN	1	3	0.132056268018382	1	1	NaN	263	5	11	1	121	221	321	NaN	521	0.308431584388018	1	1	NaN	1295580.4341437	NaN	1295581.4176457	1295581.93419322
28	20	1	0	90	36.1581920903955	36.241610738255	0	0	1	8	4	NaN	2	3	0.132056268018382	1	1	NaN	264	5	12	1	111	211	311	NaN	511	0.299098376883194	2	1	NaN	1295583.4677339	NaN	1295584.4512824	1295584.96781642
28	20	1	0	90	36.1581920903955	36.241610738255	0	0	1	6	2	NaN	1	4	0.132056268018382	1	1	NaN	265	5	13	1	111	211	311	NaN	511	0.402381528634578	2	0	NaN	1295586.0847966	NaN	1295587.068273	1295587.58474907
28	20	1	0	90	36.1581920903955	36.241610738255	9	0.300032136021182	2	11	2	NaN	2	3	0.132056268018382	1	1	NaN	266	5	14	1	121	221	321	NaN	521	0.220999980578199	2	1	NaN	1295588.8017418	NaN	1295589.7851103	1295590.30167522
28	20	1	0	90	36.1581920903955	36.241610738255	9	0.300032136021182	2	9	3	NaN	2	4	0.132056268018382	1	1	NaN	267	5	15	1	121	221	321	NaN	521	0.319921576650813	1	0	NaN	1295591.3353865	NaN	1295592.3187266	1295592.83526252
28	20	1	0	90	36.1581920903955	36.241610738255	15	0.500053560035303	2	8	4	NaN	2	3	0.132056268018382	1	1	NaN	268	5	16	1	121	221	321	NaN	521	0.678374776616693	2	1	NaN	1295593.9689039	NaN	1295594.9523184	1295595.46886432
28	20	1	0	90	36.1581920903955	36.241610738255	6	0.200021424014121	2	12	1	NaN	2	4	0.132056268018382	1	1	NaN	269	5	17	1	121	221	321	NaN	521	0.174196076579392	2	1	NaN	1295596.9525368	NaN	1295597.9359265	1295598.45248622
28	20	1	0	90	36.1581920903955	36.241610738255	9	0.300032136021182	2	2	6	NaN	1	5	0.132056268018382	1	1	NaN	270	5	18	1	121	221	321	NaN	521	0.298798328731209	1	1	NaN	1295599.4361032	NaN	1295600.4195028	1295600.93606527
28	20	1	0	90	36.1581920903955	36.241610738255	16	0.533390464037657	2	6	6	NaN	1	4	0.132056268018382	1	1	NaN	271	5	19	1	121	221	321	NaN	521	0.28180407662876	1	1	NaN	1295602.0530428	NaN	1295603.0364367	1295603.55297972
28	20	1	0	90	36.1581920903955	36.241610738255	22	0.733411888051778	2	12	5	NaN	2	3	0.132056268018382	1	1	NaN	272	5	20	1	121	221	321	NaN	521	0.281731224851683	2	1	NaN	1295604.6532881	NaN	1295605.6366786	1295606.15324258
28	20	1	0	90	36.1581920903955	36.241610738255	9	0.300032136021182	2	10	5	NaN	2	5	0.132056268018382	1	1	NaN	273	5	21	1	121	221	321	NaN	521	0.161605728790164	2	1	NaN	1295607.2535473	NaN	1295608.2369717	1295608.75349347
28	20	1	0	90	36.1581920903955	36.241610738255	19	0.633401176044717	2	5	5	NaN	1	3	0.132056268018382	1	1	NaN	274	5	22	1	121	221	321	NaN	521	0.202742528636009	1	1	NaN	1295610.2204953	NaN	1295611.2038794	1295611.72045317
28	20	1	0	90	36.1581920903955	36.241610738255	22	0.733411888051778	2	3	6	NaN	1	4	0.132056268018382	1	1	NaN	275	5	23	1	121	221	321	NaN	521	0.181460976600647	1	1	NaN	1295612.7372965	NaN	1295613.7208678	1295614.23736472
28	20	1	0	90	36.1581920903955	36.241610738255	10	0.333369040023536	2	12	1	NaN	2	5	0.132056268018382	1	1	NaN	276	5	24	1	121	221	321	NaN	521	0.177695976803079	2	1	NaN	1295615.2375992	NaN	1295616.2210554	1295616.73760742
28	20	1	0	90	36.1581920903955	36.241610738255	25	0.833422600058839	2	4	2	NaN	1	5	0.132056268018382	1	1	NaN	277	5	25	1	121	221	321	NaN	521	0.302866328740492	1	1	NaN	1295618.0879113	NaN	1295619.0713491	1295619.58789007
28	20	1	0	90	36.1581920903955	36.241610738255	11	0.366705944025889	2	8	2	NaN	2	4	0.132056268018382	1	1	NaN	278	5	26	1	121	221	321	NaN	521	0.143345128744841	2	1	NaN	1295621.0714607	NaN	1295622.0549577	1295622.57152267
28	20	1	0	90	36.1581920903955	36.241610738255	22	0.733411888051778	2	8	6	NaN	2	5	0.132056268018382	1	1	NaN	279	5	27	1	121	221	321	NaN	521	0.205234276829287	1	0	NaN	1295623.5218074	NaN	1295624.5052276	1295625.02174872
28	20	1	0	90	36.1581920903955	36.241610738255	10	0.333369040023536	2	4	5	NaN	1	4	0.132056268018382	1	1	NaN	280	5	28	1	121	221	321	NaN	521	0.248095376882702	1	1	NaN	1295626.0387155	NaN	1295627.0221268	1295627.53866402
28	20	1	0	90	36.1581920903955	36.241610738255	15	0.500053560035303	2	3	1	NaN	1	5	0.132056268018382	1	1	NaN	281	5	29	1	121	221	321	NaN	521	0.273186976788566	1	1	NaN	1295628.6056657	NaN	1295629.5890453	1295630.10558892
28	20	1	0	90	36.1581920903955	36.241610738255	24	0.800085696056485	2	1	5	NaN	1	4	0.132056268018382	1	1	NaN	282	5	30	1	121	221	321	NaN	521	0.209650376811624	1	1	NaN	1295631.1891031	NaN	1295632.1726099	1295632.68916832
28	20	1	0	90	36.1581920903955	36.241610738255	9	0.300032136021182	2	9	2	NaN	2	4	0.132056268018382	1	1	NaN	283	5	31	1	121	221	321	NaN	521	0.156738076824695	2	1	NaN	1295633.706149	NaN	1295634.6895419	1295635.20608702
28	20	1	0	90	36.1581920903955	36.241610738255	19	0.633401176044717	2	3	2	NaN	1	5	0.132056268018382	1	1	NaN	284	5	32	1	121	221	321	NaN	521	0.0572556285187602	1	1	NaN	1295636.1897116	NaN	1295637.1731079	1295637.68966027
28	20	1	0	90	36.1581920903955	36.241610738255	22	0.733411888051778	2	1	4	NaN	1	5	0.132056268018382	1	1	NaN	285	5	33	1	121	221	321	NaN	521	0.170303176622838	1	1	NaN	1295638.5566243	NaN	1295639.5400144	1295640.05657062
28	20	1	0	90	36.1581920903955	36.241610738255	0	0	1	9	3	NaN	2	3	0.132056268018382	1	1	NaN	286	5	34	1	111	211	311	NaN	511	0.158528476720676	2	1	NaN	1295641.0402192	NaN	1295642.0236509	1295642.54013522
28	20	1	0	90	36.1581920903955	36.241610738255	22	0.733411888051778	2	11	3	NaN	2	3	0.132056268018382	1	1	NaN	287	5	35	1	121	221	321	NaN	521	0.476236528716981	2	1	NaN	1295643.5070972	NaN	1295644.4904975	1295645.00705297
28	20	1	0	90	36.1581920903955	36.241610738255	14	0.46671665603295	2	9	4	NaN	2	3	0.132056268018382	1	1	NaN	288	5	36	1	121	221	321	NaN	521	0.236048028571531	2	1	NaN	1295646.2907005	NaN	1295647.274106	1295647.79066527
28	20	1	0	90	36.1581920903955	36.241610738255	20	0.666738080047071	2	5	1	NaN	1	5	0.132056268018382	1	1	NaN	289	5	37	1	121	221	321	NaN	521	0.152615828672424	1	1	NaN	1295649.1742063	NaN	1295650.1577276	1295650.67428157
28	20	1	0	90	36.1581920903955	36.241610738255	17	0.56672736804001	2	1	6	NaN	1	3	0.132056268018382	1	1	NaN	290	5	38	1	121	221	321	NaN	521	0.302017228677869	1	1	NaN	1295651.6412291	NaN	1295652.6247326	1295653.14118787
28	20	1	0	90	36.1581920903955	36.241610738255	18	0.600064272042364	2	12	3	NaN	2	4	0.132056268018382	1	1	NaN	291	5	39	1	121	221	321	NaN	521	0.252806276781484	2	1	NaN	1295654.258164	NaN	1295655.2415554	1295655.75810662
28	20	1	0	90	36.1581920903955	36.241610738255	25	0.833422600058839	2	3	6	NaN	1	3	0.132056268018382	1	1	NaN	292	5	40	1	121	221	321	NaN	521	0.0859114727936685	1	1	NaN	1295656.8250784	NaN	1295657.8084581	1295658.32502863
28	20	1	0	90	36.1581920903955	36.241610738255	19	0.633401176044717	2	8	1	NaN	2	4	0.132056268018382	1	1	NaN	293	5	41	1	121	221	321	NaN	521	0.237624572822824	2	1	NaN	1295659.2251982	NaN	1295660.2087135	1295660.72525283
28	20	1	0	90	36.1581920903955	36.241610738255	14	0.46671665603295	2	9	3	NaN	2	4	0.132056268018382	1	1	NaN	294	5	42	1	121	221	321	NaN	521	0.231495876796544	2	1	NaN	1295661.7755593	NaN	1295662.7589585	1295663.27550872
28	20	1	0	90	36.1581920903955	36.241610738255	15	0.500053560035303	2	10	3	NaN	2	4	0.132056268018382	1	1	NaN	295	5	43	1	121	221	321	NaN	521	0.257114328676835	2	1	NaN	1295664.3257779	NaN	1295665.3091926	1295665.82576457
28	20	1	0	90	36.1581920903955	36.241610738255	24	0.800085696056485	2	7	2	NaN	2	3	0.132056268018382	1	1	NaN	296	5	44	1	121	221	321	NaN	521	0.226527676684782	1	0	NaN	1295666.8928286	NaN	1295667.8761276	1295668.39270222
28	20	1	0	90	36.1581920903955	36.241610738255	6	0.200021424014121	2	11	3	NaN	2	3	0.132056268018382	1	1	NaN	297	5	45	1	121	221	321	NaN	521	0.275936576537788	1	0	NaN	1295669.4430003	NaN	1295670.4264074	1295670.94293752
28	20	1	0	90	36.1581920903955	36.241610738255	17	0.56672736804001	2	12	6	NaN	2	5	0.132056268018382	1	1	NaN	298	5	46	1	121	221	321	NaN	521	2.10827127681114	2	1	NaN	1295672.0265865	NaN	1295673.0099629	1295673.52651202
28	20	1	0	90	36.1581920903955	36.241610738255	6	0.200021424014121	2	1	4	NaN	1	4	0.132056268018382	1	1	NaN	299	5	47	1	121	221	321	NaN	521	0.202692976687104	1	1	NaN	1295676.4602215	NaN	1295677.4437541	1295677.96028742
28	20	1	0	90	36.1581920903955	36.241610738255	17	0.56672736804001	2	4	2	NaN	1	5	0.132056268018382	1	1	NaN	300	5	48	1	121	221	321	NaN	521	0.237958176760003	2	0	NaN	1295678.9772744	NaN	1295679.9606835	1295680.47719492
28	20	1	0	90	36.1581920903955	36.241610738255	24	0.800085696056485	2	10	2	NaN	2	4	0.132056268018382	1	1	NaN	301	5	49	1	121	221	321	NaN	521	0.0104114767163992	2	1	NaN	1295681.5274886	NaN	1295682.5109013	1295683.02744532
28	20	1	0	90	36.1581920903955	36.241610738255	19	0.633401176044717	2	3	6	NaN	1	4	0.132056268018382	1	1	NaN	302	5	50	1	121	221	321	NaN	521	0.298982628621161	1	1	NaN	1295683.8443706	NaN	1295684.8277917	1295685.34435227
28	20	1	0	90	36.1581920903955	36.241610738255	8	0.266695232018828	2	1	2	NaN	1	5	0.132056268018382	1	1	NaN	303	5	51	1	121	221	321	NaN	521	0.313629028853029	1	1	NaN	1295686.4613343	NaN	1295687.4447178	1295687.96127217
28	20	1	0	90	36.1581920903955	36.241610738255	15	0.500053560035303	2	1	6	NaN	1	4	0.132056268018382	1	1	NaN	304	5	52	1	121	221	321	NaN	521	0.216113476781175	1	1	NaN	1295689.0949043	NaN	1295690.0783161	1295690.59485392
28	20	1	0	90	36.1581920903955	36.241610738255	0	0	1	2	4	NaN	1	4	0.132056268018382	1	1	NaN	305	5	53	1	111	211	311	NaN	511	0.226625576615334	1	1	NaN	1295691.6285041	NaN	1295692.6118852	1295693.12843992
28	20	1	0	90	36.1581920903955	36.241610738255	17	0.56672736804001	2	7	1	NaN	2	3	0.132056268018382	1	1	NaN	306	5	54	1	121	221	321	NaN	521	1.36483279243112	2	1	NaN	1295694.1620947	NaN	1295695.1454521	1295695.66202541
28	20	1	0	90	36.1581920903955	36.241610738255	23	0.766748792054132	2	8	3	NaN	2	4	0.132056268018382	1	1	NaN	307	5	55	1	121	221	321	NaN	521	0.178275928832591	2	1	NaN	1295697.8291224	NaN	1295698.8124987	1295699.32905937
28	20	1	0	90	36.1581920903955	36.241610738255	10	0.333369040023536	2	8	3	NaN	2	3	0.132056268018382	1	1	NaN	308	5	56	1	121	221	321	NaN	521	1.70963457669131	2	1	NaN	1295700.3292443	NaN	1295701.3127481	1295701.82929072
28	20	1	0	90	36.1581920903955	36.241610738255	18	0.600064272042364	2	2	1	NaN	1	3	0.132056268018382	1	1	NaN	309	5	57	1	121	221	321	NaN	521	0.300580876646563	1	1	NaN	1295704.346416	NaN	1295705.3298278	1295705.84635462
28	20	1	0	90	36.1581920903955	36.241610738255	20	0.666738080047071	2	12	4	NaN	2	3	0.132056268018382	1	1	NaN	310	5	58	1	121	221	321	NaN	521	0.676012928597629	2	1	NaN	1295706.963347	NaN	1295707.9467482	1295708.46328677
28	20	1	0	90	36.1581920903955	36.241610738255	18	0.600064272042364	2	6	1	NaN	1	3	0.132056268018382	1	1	NaN	311	5	59	1	121	221	321	NaN	521	0.756047328468412	1	1	NaN	1295709.9469981	NaN	1295710.930356	1295711.44691587
28	20	1	0	90	36.1581920903955	36.241610738255	25	0.833422600058839	2	9	2	NaN	2	4	0.132056268018382	1	1	NaN	312	5	60	1	121	221	321	NaN	521	0.249114172998816	1	0	NaN	1295713.01378	NaN	1295713.9973264	1295714.51387113
28	20	1	0	90	36.1581920903955	36.241610738255	12	0.400042848028243	2	10	5	NaN	2	3	0.132056268018382	1	1	NaN	313	5	61	1	121	221	321	NaN	521	0.106167628662661	2	1	NaN	1295715.5808585	NaN	1295716.5643094	1295717.08079547
28	20	1	0	90	36.1581920903955	36.241610738255	10	0.333369040023536	2	2	5	NaN	1	3	0.132056268018382	1	1	NaN	314	5	62	1	121	221	321	NaN	521	0.193321728613228	2	0	NaN	1295717.9977582	NaN	1295718.9811445	1295719.49770597
28	20	1	0	90	36.1581920903955	36.241610738255	12	0.400042848028243	2	11	6	NaN	2	3	0.132056268018382	1	1	NaN	315	5	63	1	121	221	321	NaN	521	0.316944376798347	2	1	NaN	1295720.4980009	NaN	1295721.4813963	1295721.99793962
28	20	1	0	90	36.1581920903955	36.241610738255	23	0.766748792054132	2	1	4	NaN	1	5	0.132056268018382	1	1	NaN	316	6	1	1	121	221	321	NaN	521	3.10196902859025	1	1	NaN	1295773.1531398	NaN	1295774.1365508	1295774.65312027
28	20	1	0	90	36.1581920903955	36.241610738255	6	0.200021424014121	2	2	5	NaN	1	5	0.132056268018382	1	1	NaN	317	6	2	1	121	221	321	NaN	521	0.228590572951362	1	1	NaN	1295778.5703714	NaN	1295779.5537701	1295780.07031023
28	20	1	0	90	36.1581920903955	36.241610738255	14	0.46671665603295	2	1	1	NaN	1	4	0.132056268018382	1	1	NaN	318	6	3	1	121	221	321	NaN	521	0.190750976791605	1	1	NaN	1295781.120617	NaN	1295782.1040173	1295782.62056582
28	20	1	0	90	36.1581920903955	36.241610738255	10	0.333369040023536	2	5	4	NaN	1	3	0.132056268018382	1	1	NaN	319	6	4	1	121	221	321	NaN	521	0.16227107658051	1	1	NaN	1295783.6208702	NaN	1295784.6042521	1295785.12079992
28	20	1	0	90	36.1581920903955	36.241610738255	21	0.700074984049424	2	7	2	NaN	2	4	0.132056268018382	1	1	NaN	320	6	5	1	121	221	321	NaN	521	0.151743176626042	2	1	NaN	1295786.0876477	NaN	1295787.0711596	1295787.58770882
28	20	1	0	90	36.1581920903955	36.241610738255	22	0.733411888051778	2	10	6	NaN	2	5	0.132056268018382	1	1	NaN	321	6	6	1	121	221	321	NaN	521	0.260486176703125	1	0	NaN	1295788.5546778	NaN	1295789.5380733	1295790.05462402
28	20	1	0	90	36.1581920903955	36.241610738255	19	0.633401176044717	2	12	4	NaN	2	3	0.132056268018382	1	1	NaN	322	6	7	1	121	221	321	NaN	521	0.148855928797275	1	0	NaN	1295791.1382658	NaN	1295792.1216405	1295792.63821727
28	20	1	0	90	36.1581920903955	36.241610738255	0	0	1	3	1	NaN	1	3	0.132056268018382	1	1	NaN	323	6	8	1	111	211	311	NaN	511	0.0899290649686009	1	1	NaN	1295793.6051789	NaN	1295794.5885854	1295795.10511584
28	20	1	0	90	36.1581920903955	36.241610738255	18	0.600064272042364	2	2	3	NaN	1	4	0.132056268018382	1	1	NaN	324	6	9	1	121	221	321	NaN	521	0.177015428664163	1	1	NaN	1295796.0220685	NaN	1295797.0054623	1295797.52204877
28	20	1	0	90	36.1581920903955	36.241610738255	11	0.366705944025889	2	3	2	NaN	1	5	0.132056268018382	1	1	NaN	325	6	10	1	121	221	321	NaN	521	2.06100277695805	1	1	NaN	1295798.5223403	NaN	1295799.505612	1295800.02228952
28	20	1	0	90	36.1581920903955	36.241610738255	13	0.433379752030596	2	9	5	NaN	2	5	0.132056268018382	1	1	NaN	326	6	11	1	121	221	321	NaN	521	1.24545832071453	2	1	NaN	1295802.9060844	NaN	1295803.8894628	1295804.40602538
28	20	1	0	90	36.1581920903955	36.241610738255	13	0.433379752030596	2	1	5	NaN	1	5	0.132056268018382	1	1	NaN	327	6	12	1	121	221	321	NaN	521	0.0104267767164856	1	1	NaN	1295806.4730949	NaN	1295807.4564999	1295807.97304362
28	20	1	0	90	36.1581920903955	36.241610738255	8	0.266695232018828	2	4	3	NaN	1	3	0.132056268018382	1	1	NaN	328	6	13	1	121	221	321	NaN	521	0.37681338051334	1	1	NaN	1295808.8066564	NaN	1295809.7900681	1295810.30660942
28	20	1	0	90	36.1581920903955	36.241610738255	16	0.533390464037657	2	5	2	NaN	1	4	0.132056268018382	1	1	NaN	329	6	14	1	121	221	321	NaN	521	0.404665324604139	1	1	NaN	1295811.5069526	NaN	1295812.490334	1295813.00687758
28	20	1	0	90	36.1581920903955	36.241610738255	25	0.833422600058839	2	1	3	NaN	1	4	0.132056268018382	1	1	NaN	330	6	15	1	121	221	321	NaN	521	0.295313928741962	2	0	NaN	1295814.2238638	NaN	1295815.2072657	1295815.72381457
28	20	1	0	90	36.1581920903955	36.241610738255	8	0.266695232018828	2	3	3	NaN	1	4	0.132056268018382	1	1	NaN	331	6	16	1	121	221	321	NaN	521	0.207692096242681	1	1	NaN	1295817.2074689	NaN	1295818.1908888	1295818.7074387
28	20	1	0	90	36.1581920903955	36.241610738255	10	0.333369040023536	2	6	4	NaN	1	5	0.132056268018382	1	1	NaN	332	6	17	1	121	221	321	NaN	521	0.242800076724961	1	1	NaN	1295819.7244856	NaN	1295820.7077947	1295821.22434532
28	20	1	0	90	36.1581920903955	36.241610738255	24	0.800085696056485	2	5	6	NaN	1	4	0.132056268018382	1	1	NaN	333	6	18	1	121	221	321	NaN	521	0.212202676804736	1	1	NaN	1295822.2912132	NaN	1295823.2747289	1295823.79126862
28	20	1	0	90	36.1581920903955	36.241610738255	6	0.200021424014121	2	12	2	NaN	2	3	0.132056268018382	1	1	NaN	334	6	19	1	121	221	321	NaN	521	0.19862172845751	2	1	NaN	1295824.824907	NaN	1295825.8082947	1295826.32484927
28	20	1	0	90	36.1581920903955	36.241610738255	9	0.300032136021182	2	3	1	NaN	1	5	0.132056268018382	1	1	NaN	335	6	20	1	121	221	321	NaN	521	0.281553128734231	1	1	NaN	1295827.3418281	NaN	1295828.3252283	1295828.84176887
28	20	1	0	90	36.1581920903955	36.241610738255	11	0.366705944025889	2	12	2	NaN	2	4	0.132056268018382	1	1	NaN	336	6	21	1	121	221	321	NaN	521	0.593524928670377	2	1	NaN	1295829.9420701	NaN	1295830.9255321	1295831.44202767
28	20	1	0	90	36.1581920903955	36.241610738255	6	0.200021424014121	2	2	1	NaN	1	5	0.132056268018382	1	1	NaN	337	6	22	1	121	221	321	NaN	521	0.252846028655767	1	1	NaN	1295832.8423708	NaN	1295833.825743	1295834.34230807
28	20	1	0	90	36.1581920903955	36.241610738255	17	0.56672736804001	2	2	1	NaN	1	5	0.132056268018382	1	1	NaN	338	6	23	1	121	221	321	NaN	521	0.230333328712732	1	1	NaN	1295835.4092399	NaN	1295836.3926674	1295836.90923217
28	20	1	0	90	36.1581920903955	36.241610738255	24	0.800085696056485	2	4	6	NaN	1	3	0.132056268018382	1	1	NaN	339	6	24	1	121	221	321	NaN	521	0.535656528780237	1	1	NaN	1295837.9595593	NaN	1295838.9429306	1295839.45948117
28	20	1	0	90	36.1581920903955	36.241610738255	11	0.366705944025889	2	12	3	NaN	2	3	0.132056268018382	1	1	NaN	340	6	25	1	121	221	321	NaN	521	0.109409228665754	2	1	NaN	1295840.8096841	NaN	1295841.7932006	1295842.30976257
28	20	1	0	90	36.1581920903955	36.241610738255	7	0.233358328016475	2	3	3	NaN	1	4	0.132056268018382	1	1	NaN	341	6	26	1	121	221	321	NaN	521	0.172604876803234	1	1	NaN	1295843.2267	NaN	1295844.2100914	1295844.72665212
28	20	1	0	90	36.1581920903955	36.241610738255	10	0.333369040023536	2	9	6	NaN	2	3	0.132056268018382	1	1	NaN	342	6	27	1	121	221	321	NaN	521	0.208862276747823	2	1	NaN	1295845.7102851	NaN	1295846.6936878	1295847.21023542
28	20	1	0	90	36.1581920903955	36.241610738255	18	0.600064272042364	2	9	3	NaN	2	3	0.132056268018382	1	1	NaN	343	6	28	1	121	221	321	NaN	521	0.236422080779448	2	1	NaN	1295848.2272192	NaN	1295849.2104978	1295849.72715842
28	20	1	0	90	36.1581920903955	36.241610738255	0	0	1	1	2	NaN	1	5	0.132056268018382	1	1	NaN	344	6	29	1	111	211	311	NaN	511	0.141712428536266	1	1	NaN	1295850.7774544	NaN	1295851.7608535	1295852.27740497
28	20	1	0	90	36.1581920903955	36.241610738255	24	0.800085696056485	2	5	3	NaN	1	4	0.132056268018382	1	1	NaN	345	6	30	1	121	221	321	NaN	521	0.0916462286841124	1	1	NaN	1295853.2276718	NaN	1295854.211084	1295854.72764907
28	20	1	0	90	36.1581920903955	36.241610738255	7	0.233358328016475	2	2	2	NaN	1	4	0.132056268018382	1	1	NaN	346	6	31	1	121	221	321	NaN	521	0.155416328459978	1	1	NaN	1295855.6279374	NaN	1295856.6113123	1295857.12788397
28	20	1	0	90	36.1581920903955	36.241610738255	9	0.300032136021182	2	1	1	NaN	1	4	0.132056268018382	1	1	NaN	347	6	32	1	121	221	321	NaN	521	0.28051604423672	1	1	NaN	1295858.0948455	NaN	1295859.0782338	1295859.59478656
28	20	1	0	90	36.1581920903955	36.241610738255	12	0.400042848028243	2	1	2	NaN	1	4	0.132056268018382	1	1	NaN	348	6	33	1	121	221	321	NaN	521	0.22423937683925	1	1	NaN	1295860.6950194	NaN	1295861.6784799	1295862.19503352
28	20	1	0	90	36.1581920903955	36.241610738255	13	0.433379752030596	2	3	2	NaN	1	4	0.132056268018382	1	1	NaN	349	6	34	1	121	221	321	NaN	521	0.162590688327327	1	1	NaN	1295863.2287078	NaN	1295864.2120694	1295864.72862591
28	20	1	0	90	36.1581920903955	36.241610738255	23	0.766748792054132	2	10	6	NaN	2	4	0.132056268018382	1	1	NaN	350	6	35	1	121	221	321	NaN	521	0.127364476909861	2	1	NaN	1295865.7122433	NaN	1295866.6956525	1295867.21219322
28	20	1	0	90	36.1581920903955	36.241610738255	7	0.233358328016475	2	11	4	NaN	2	3	0.132056268018382	1	1	NaN	351	6	36	1	121	221	321	NaN	521	0.236845344305038	2	1	NaN	1295868.1624891	NaN	1295869.1459217	1295869.66243886
28	20	1	0	90	36.1581920903955	36.241610738255	12	0.400042848028243	2	3	6	NaN	1	3	0.132056268018382	1	1	NaN	352	6	37	1	121	221	321	NaN	521	0.11889122473076	1	1	NaN	1295870.712739	NaN	1295871.696131	1295872.21269388
28	20	1	0	90	36.1581920903955	36.241610738255	17	0.56672736804001	2	4	3	NaN	1	5	0.132056268018382	1	1	NaN	353	6	38	1	121	221	321	NaN	521	0.156937428750098	1	1	NaN	1295873.146323	NaN	1295874.1297203	1295874.64626777
28	20	1	0	90	36.1581920903955	36.241610738255	20	0.666738080047071	2	7	1	NaN	2	3	0.132056268018382	1	1	NaN	354	6	39	1	121	221	321	NaN	521	0.185845328727737	2	1	NaN	1295875.8298993	NaN	1295876.8133042	1295877.32986797
28	20	1	0	90	36.1581920903955	36.241610738255	24	0.800085696056485	2	9	5	NaN	2	3	0.132056268018382	1	1	NaN	355	6	40	1	121	221	321	NaN	521	0.0931430766358972	2	1	NaN	1295878.3301608	NaN	1295879.3135567	1295879.83010292
28	20	1	0	90	36.1581920903955	36.241610738255	24	0.800085696056485	2	2	4	NaN	1	4	0.132056268018382	1	1	NaN	356	6	41	1	121	221	321	NaN	521	0.65236527658999	2	0	NaN	1295880.7469466	NaN	1295881.7304927	1295882.24700502
28	20	1	0	90	36.1581920903955	36.241610738255	17	0.56672736804001	2	10	2	NaN	2	4	0.132056268018382	1	1	NaN	357	6	42	1	121	221	321	NaN	521	0.149590576766059	2	1	NaN	1295883.7140149	NaN	1295884.6974133	1295885.21397282
28	20	1	0	90	36.1581920903955	36.241610738255	23	0.766748792054132	2	12	5	NaN	2	4	0.132056268018382	1	1	NaN	358	6	43	1	121	221	321	NaN	521	0.122695524711162	2	1	NaN	1295886.1809326	NaN	1295887.1643309	1295887.68087328
28	20	1	0	90	36.1581920903955	36.241610738255	9	0.300032136021182	2	10	1	NaN	2	4	0.132056268018382	1	1	NaN	359	6	44	1	121	221	321	NaN	521	0.233233528677374	2	1	NaN	1295888.6145009	NaN	1295889.5978991	1295890.11445377
28	20	1	0	90	36.1581920903955	36.241610738255	19	0.633401176044717	2	7	1	NaN	2	3	0.132056268018382	1	1	NaN	360	6	45	1	121	221	321	NaN	521	0.1784735287074	2	1	NaN	1295891.1647552	NaN	1295892.1480475	1295892.66470697
28	20	1	0	90	36.1581920903955	36.241610738255	23	0.766748792054132	2	10	2	NaN	2	3	0.132056268018382	1	1	NaN	361	6	46	1	121	221	321	NaN	521	0.214304628549144	2	1	NaN	1295893.664864	NaN	1295894.6483902	1295895.16495227
28	20	1	0	90	36.1581920903955	36.241610738255	25	0.833422600058839	2	4	3	NaN	1	3	0.132056268018382	1	1	NaN	362	6	47	1	121	221	321	NaN	521	1.13779199239798	1	1	NaN	1295896.3819759	NaN	1295897.365321	1295897.88188131
28	20	1	0	90	36.1581920903955	36.241610738255	0	0	1	12	4	NaN	2	3	0.132056268018382	1	1	NaN	363	6	48	1	111	211	311	NaN	511	0.183018876705319	2	1	NaN	1295899.8323035	NaN	1295900.8156622	1295901.33221952
28	20	1	0	90	36.1581920903955	36.241610738255	14	0.46671665603295	2	10	6	NaN	2	5	0.132056268018382	1	1	NaN	364	6	49	1	121	221	321	NaN	521	0.499103720765561	2	1	NaN	1295902.3324122	NaN	1295903.3159093	1295903.83246088
28	20	1	0	90	36.1581920903955	36.241610738255	8	0.266695232018828	2	5	6	NaN	1	5	0.132056268018382	1	1	NaN	365	6	50	1	121	221	321	NaN	521	0.145859428681433	1	1	NaN	1295905.1494711	NaN	1295906.1328537	1295906.64940917
28	20	1	0	90	36.1581920903955	36.241610738255	12	0.400042848028243	2	8	4	NaN	2	4	0.132056268018382	1	1	NaN	366	6	51	1	121	221	321	NaN	521	0.199688272783533	2	1	NaN	1295907.5996748	NaN	1295908.5830948	1295909.09964103
28	20	1	0	90	36.1581920903955	36.241610738255	13	0.433379752030596	2	8	6	NaN	2	5	0.132056268018382	1	1	NaN	367	6	52	1	121	221	321	NaN	521	0.363022528588772	2	1	NaN	1295910.1166125	NaN	1295911.1000199	1295911.61656217
28	20	1	0	90	36.1581920903955	36.241610738255	15	0.500053560035303	2	2	1	NaN	1	5	0.132056268018382	1	1	NaN	368	6	53	1	121	221	321	NaN	521	0.287296428577974	1	1	NaN	1295912.8001642	NaN	1295913.7836145	1295914.30015817
28	20	1	0	90	36.1581920903955	36.241610738255	13	0.433379752030596	2	2	4	NaN	1	5	0.132056268018382	1	1	NaN	369	6	54	1	121	221	321	NaN	521	0.247337276814505	1	1	NaN	1295915.4004809	NaN	1295916.3838812	1295916.90041552
28	20	1	0	90	36.1581920903955	36.241610738255	13	0.433379752030596	2	12	6	NaN	2	3	0.132056268018382	1	1	NaN	370	6	55	1	121	221	321	NaN	521	0.208340428769588	2	1	NaN	1295917.9673788	NaN	1295918.950782	1295919.46733497
28	20	1	0	90	36.1581920903955	36.241610738255	13	0.433379752030596	2	9	5	NaN	2	4	0.132056268018382	1	1	NaN	371	6	56	1	121	221	321	NaN	521	0.19485652865842	2	1	NaN	1295920.4843152	NaN	1295921.4677068	1295921.98425977
28	20	1	0	90	36.1581920903955	36.241610738255	21	0.700074984049424	2	8	5	NaN	2	4	0.132056268018382	1	1	NaN	372	6	57	1	121	221	321	NaN	521	0.0460663286503404	2	1	NaN	1295923.0010917	NaN	1295923.9846161	1295924.50116077
28	20	1	0	90	36.1581920903955	36.241610738255	14	0.46671665603295	2	8	1	NaN	2	4	0.132056268018382	1	1	NaN	373	6	58	1	121	221	321	NaN	521	0.167550924699754	2	1	NaN	1295925.3681247	NaN	1295926.351505	1295926.86805118
28	20	1	0	90	36.1581920903955	36.241610738255	21	0.700074984049424	2	12	2	NaN	2	5	0.132056268018382	1	1	NaN	374	6	59	1	121	221	321	NaN	521	0.21171787683852	2	1	NaN	1295927.851681	NaN	1295928.8350758	1295929.35162742
28	20	1	0	90	36.1581920903955	36.241610738255	23	0.766748792054132	2	1	6	NaN	1	4	0.132056268018382	1	1	NaN	375	6	60	1	121	221	321	NaN	521	0.15076427673921	2	0	NaN	1295930.3686056	NaN	1295931.3519987	1295931.86855142
28	20	1	0	90	36.1581920903955	36.241610738255	15	0.500053560035303	2	8	6	NaN	2	5	0.132056268018382	1	1	NaN	376	6	61	1	121	221	321	NaN	521	0.235846176743507	2	1	NaN	1295932.8355041	NaN	1295933.8188979	1295934.33545132
28	20	1	0	90	36.1581920903955	36.241610738255	6	0.200021424014121	2	10	3	NaN	2	3	0.132056268018382	1	1	NaN	377	6	62	1	121	221	321	NaN	521	0.189968996215612	2	1	NaN	1295935.3857722	NaN	1295936.3692211	1295936.8857122
28	20	1	0	90	36.1581920903955	36.241610738255	14	0.46671665603295	2	8	3	NaN	2	4	0.132056268018382	1	1	NaN	378	6	63	1	121	221	321	NaN	521	0.0732931769452989	2	1	NaN	1295937.8860026	NaN	1295938.8694102	1295939.38594632
28	20	1	0	90	36.1581920903955	36.241610738255	9	0.300032136021182	2	5	5	NaN	1	4	0.132056268018382	1	1	NaN	379	7	1	1	121	221	321	NaN	521	0.216778528643772	1	1	NaN	1295954.4709127	NaN	1295955.4543628	1295955.97091897
28	20	1	0	90	36.1581920903955	36.241610738255	23	0.766748792054132	2	6	1	NaN	1	3	0.132056268018382	1	1	NaN	380	7	2	1	121	221	321	NaN	521	0.619195880601183	1	1	NaN	1295957.0045603	NaN	1295957.9879468	1295958.50449332
28	20	1	0	90	36.1581920903955	36.241610738255	24	0.800085696056485	2	4	1	NaN	1	5	0.132056268018382	1	1	NaN	381	7	3	1	121	221	321	NaN	521	0.261239376617596	1	1	NaN	1295959.9381668	NaN	1295960.9215916	1295961.43811322
28	20	1	0	90	36.1581920903955	36.241610738255	13	0.433379752030596	2	2	2	NaN	1	5	0.132056268018382	1	1	NaN	382	7	4	1	121	221	321	NaN	521	0.150288228644058	2	0	NaN	1295962.5051054	NaN	1295963.4884851	1295964.00503957
28	20	1	0	90	36.1581920903955	36.241610738255	13	0.433379752030596	2	5	6	NaN	1	4	0.132056268018382	1	1	NaN	383	7	5	1	121	221	321	NaN	521	0.139132328564301	1	1	NaN	1295964.9719895	NaN	1295965.9553948	1295966.47195247
28	20	1	0	90	36.1581920903955	36.241610738255	22	0.733411888051778	2	2	3	NaN	1	4	0.132056268018382	1	1	NaN	384	7	6	1	121	221	321	NaN	521	0.151753876591101	1	1	NaN	1295967.8555943	NaN	1295968.8390177	1295969.35556602
28	20	1	0	90	36.1581920903955	36.241610738255	16	0.533390464037657	2	4	4	NaN	1	5	0.132056268018382	1	1	NaN	385	7	7	1	121	221	321	NaN	521	0.117280476726592	1	1	NaN	1295970.3225418	NaN	1295971.3059152	1295971.82246362
28	20	1	0	90	36.1581920903955	36.241610738255	24	0.800085696056485	2	2	1	NaN	1	4	0.132056268018382	1	1	NaN	386	7	8	1	121	221	321	NaN	521	0.115254164906219	1	1	NaN	1295972.7561012	NaN	1295973.7395193	1295974.25603524
28	20	1	0	90	36.1581920903955	36.241610738255	15	0.500053560035303	2	12	5	NaN	2	3	0.132056268018382	1	1	NaN	387	7	9	1	121	221	321	NaN	521	0.305506528588012	2	1	NaN	1295975.1896712	NaN	1295976.1730422	1295976.68962307
28	20	1	0	90	36.1581920903955	36.241610738255	18	0.600064272042364	2	1	3	NaN	1	3	0.132056268018382	1	1	NaN	388	7	10	1	121	221	321	NaN	521	0.128948176512495	1	1	NaN	1295977.8066013	NaN	1295978.7899965	1295979.30653492
28	20	1	0	90	36.1581920903955	36.241610738255	8	0.266695232018828	2	2	5	NaN	1	5	0.132056268018382	1	1	NaN	389	7	11	1	121	221	321	NaN	521	0.102583376690745	1	1	NaN	1295980.2568264	NaN	1295981.2402316	1295981.75679042
28	20	1	0	90	36.1581920903955	36.241610738255	25	0.833422600058839	2	7	3	NaN	2	4	0.132056268018382	1	1	NaN	390	7	12	1	121	221	321	NaN	521	0.253636192297563	2	1	NaN	1295982.6737411	NaN	1295983.6572076	1295984.17368801
28	20	1	0	90	36.1581920903955	36.241610738255	11	0.366705944025889	2	2	2	NaN	1	3	0.132056268018382	1	1	NaN	391	7	13	1	121	221	321	NaN	521	0.0103998286649585	1	1	NaN	1295985.2405283	NaN	1295986.2240561	1295986.74060897
28	20	1	0	90	36.1581920903955	36.241610738255	9	0.300032136021182	2	12	5	NaN	2	5	0.132056268018382	1	1	NaN	392	7	14	1	121	221	321	NaN	521	0.105265076737851	2	1	NaN	1295987.5742123	NaN	1295988.5576325	1295989.07415942
28	20	1	0	90	36.1581920903955	36.241610738255	19	0.633401176044717	2	11	6	NaN	2	3	0.132056268018382	1	1	NaN	393	7	15	1	121	221	321	NaN	521	0.240261776605621	2	1	NaN	1295989.9911271	NaN	1295990.9744971	1295991.49106332
28	20	1	0	90	36.1581920903955	36.241610738255	18	0.600064272042364	2	11	5	NaN	2	4	0.132056268018382	1	1	NaN	394	7	16	1	121	221	321	NaN	521	0.0104231766890734	2	1	NaN	1295992.5413765	NaN	1295993.5247729	1295994.04131982
28	20	1	0	90	36.1581920903955	36.241610738255	6	0.200021424014121	2	4	4	NaN	1	4	0.132056268018382	1	1	NaN	395	7	17	1	121	221	321	NaN	521	0.100579924648628	1	1	NaN	1295994.8749319	NaN	1295995.8583379	1295996.37488688
28	20	1	0	90	36.1581920903955	36.241610738255	20	0.666738080047071	2	10	6	NaN	2	4	0.132056268018382	1	1	NaN	396	7	18	1	121	221	321	NaN	521	0.0436225766316056	1	0	NaN	1295997.2918365	NaN	1295998.2752505	1295998.79178452
28	20	1	0	90	36.1581920903955	36.241610738255	17	0.56672736804001	2	7	5	NaN	2	3	0.132056268018382	1	1	NaN	397	7	19	1	121	221	321	NaN	521	0.138294680509716	2	1	NaN	1295999.7252828	NaN	1296000.7088586	1296001.22536552
28	20	1	0	90	36.1581920903955	36.241610738255	17	0.56672736804001	2	5	3	NaN	1	5	0.132056268018382	1	1	NaN	398	7	20	1	121	221	321	NaN	521	0.215744076762348	1	1	NaN	1296002.1756557	NaN	1296003.159048	1296003.67559022
28	20	1	0	90	36.1581920903955	36.241610738255	12	0.400042848028243	2	9	1	NaN	2	5	0.132056268018382	1	1	NaN	399	7	21	1	121	221	321	NaN	521	0.0663745768833905	2	1	NaN	1296004.9093769	NaN	1296005.8926407	1296006.40919412
28	20	1	0	90	36.1581920903955	36.241610738255	18	0.600064272042364	2	10	1	NaN	2	4	0.132056268018382	1	1	NaN	400	7	22	1	121	221	321	NaN	521	0.218835228588432	1	0	NaN	1296007.2928266	NaN	1296008.2762198	1296008.79277237
28	20	1	0	90	36.1581920903955	36.241610738255	17	0.56672736804001	2	6	4	NaN	1	3	0.132056268018382	1	1	NaN	401	7	23	1	121	221	321	NaN	521	0.20702112861909	1	1	NaN	1296009.9764474	NaN	1296010.9598613	1296011.47637037
28	20	1	0	90	36.1581920903955	36.241610738255	18	0.600064272042364	2	8	6	NaN	2	4	0.132056268018382	1	1	NaN	402	7	24	1	121	221	321	NaN	521	0.154078376712278	2	1	NaN	1296012.4933317	NaN	1296013.4767201	1296013.99327632
28	20	1	0	90	36.1581920903955	36.241610738255	13	0.433379752030596	2	1	2	NaN	1	3	0.132056268018382	1	1	NaN	403	7	25	1	121	221	321	NaN	521	0.231211124919355	1	1	NaN	1296014.9602316	NaN	1296015.943635	1296016.46018448
28	20	1	0	90	36.1581920903955	36.241610738255	19	0.633401176044717	2	4	3	NaN	1	3	0.132056268018382	1	1	NaN	404	7	26	1	121	221	321	NaN	521	0.177568628452718	1	1	NaN	1296017.493825	NaN	1296018.4772169	1296018.99377477
28	20	1	0	90	36.1581920903955	36.241610738255	23	0.766748792054132	2	7	1	NaN	2	5	0.132056268018382	1	1	NaN	405	7	27	1	121	221	321	NaN	521	0.25087127671577	2	1	NaN	1296020.6607772	NaN	1296021.644189	1296022.16074242
28	20	1	0	90	36.1581920903955	36.241610738255	7	0.233358328016475	2	4	1	NaN	1	5	0.132056268018382	1	1	NaN	406	7	28	1	121	221	321	NaN	521	0.139723528642207	1	1	NaN	1296023.2277231	NaN	1296024.2111105	1296024.72766537
28	20	1	0	90	36.1581920903955	36.241610738255	22	0.733411888051778	2	8	1	NaN	2	4	0.132056268018382	1	1	NaN	407	7	29	1	121	221	321	NaN	521	0.128939276793972	2	1	NaN	1296025.6946241	NaN	1296026.6780232	1296027.19456732
28	20	1	0	90	36.1581920903955	36.241610738255	19	0.633401176044717	2	8	4	NaN	2	4	0.132056268018382	1	1	NaN	408	7	30	1	121	221	321	NaN	521	0.0943719286005944	1	0	NaN	1296028.1448709	NaN	1296029.1282905	1296029.64481957
28	20	1	0	90	36.1581920903955	36.241610738255	10	0.333369040023536	2	1	5	NaN	1	5	0.132056268018382	1	1	NaN	409	7	31	1	121	221	321	NaN	521	0.0681586286518723	1	1	NaN	1296030.7951218	NaN	1296031.7785182	1296032.29507177
28	20	1	0	90	36.1581920903955	36.241610738255	18	0.600064272042364	2	5	3	NaN	1	5	0.132056268018382	1	1	NaN	410	7	32	1	121	221	321	NaN	521	0.204790628515184	1	1	NaN	1296033.1787068	NaN	1296034.1621157	1296034.67864237
28	20	1	0	90	36.1581920903955	36.241610738255	25	0.833422600058839	2	7	4	NaN	2	3	0.132056268018382	1	1	NaN	411	7	33	1	121	221	321	NaN	521	0.264458076562732	2	1	NaN	1296035.6956031	NaN	1296036.6790079	1296037.19554742
28	20	1	0	90	36.1581920903955	36.241610738255	15	0.500053560035303	2	10	2	NaN	2	4	0.132056268018382	1	1	NaN	412	7	34	1	121	221	321	NaN	521	0.112400424899533	2	1	NaN	1296038.2791998	NaN	1296039.2626154	1296039.77913608
28	20	1	0	90	36.1581920903955	36.241610738255	15	0.500053560035303	2	11	1	NaN	2	5	0.132056268018382	1	1	NaN	413	7	35	1	121	221	321	NaN	521	0.119107044069096	2	1	NaN	1296040.7127586	NaN	1296041.6961718	1296042.21271786
28	20	1	0	90	36.1581920903955	36.241610738255	24	0.800085696056485	2	7	5	NaN	2	4	0.132056268018382	1	1	NaN	414	7	36	1	121	221	321	NaN	521	0.125207376666367	2	1	NaN	1296043.1463409	NaN	1296044.1297991	1296044.64629042
28	20	1	0	90	36.1581920903955	36.241610738255	10	0.333369040023536	2	9	6	NaN	2	5	0.132056268018382	1	1	NaN	415	7	37	1	121	221	321	NaN	521	0.0822246768511832	2	1	NaN	1296046.0133482	NaN	1296046.9966752	1296047.51323562
28	20	1	0	90	36.1581920903955	36.241610738255	18	0.600064272042364	2	6	2	NaN	1	3	0.132056268018382	1	1	NaN	416	7	38	1	121	221	321	NaN	521	1.14587372867391	2	0	NaN	1296048.4135193	NaN	1296049.3969259	1296049.91347117
28	20	1	0	90	36.1581920903955	36.241610738255	16	0.533390464037657	2	1	5	NaN	1	3	0.132056268018382	1	1	NaN	417	7	39	1	121	221	321	NaN	521	0.110976772848517	1	1	NaN	1296051.8805269	NaN	1296052.8639309	1296053.38048223
28	20	1	0	90	36.1581920903955	36.241610738255	0	0	1	11	5	NaN	2	5	0.132056268018382	1	1	NaN	418	7	40	1	111	211	311	NaN	511	0.0103829805739224	2	1	NaN	1296054.314114	NaN	1296055.2974986	1296055.81404972
28	20	1	0	90	36.1581920903955	36.241610738255	25	0.833422600058839	2	12	6	NaN	2	4	0.132056268018382	1	1	NaN	419	7	41	1	121	221	321	NaN	521	0.400267928605899	2	1	NaN	1296056.6476616	NaN	1296057.631138	1296058.14761957
28	20	1	0	90	36.1581920903955	36.241610738255	23	0.766748792054132	2	8	1	NaN	2	3	0.132056268018382	1	1	NaN	420	7	42	1	121	221	321	NaN	521	1.04287157673389	1	0	NaN	1296059.364469	NaN	1296060.3479978	1296060.86455162
28	20	1	0	90	36.1581920903955	36.241610738255	9	0.300032136021182	2	6	2	NaN	1	4	0.132056268018382	1	1	NaN	421	7	43	1	121	221	321	NaN	521	0.14834912866354	1	1	NaN	1296062.7315967	NaN	1296063.7149662	1296064.23154617
28	20	1	0	90	36.1581920903955	36.241610738255	0	0	1	5	1	NaN	1	4	0.132056268018382	1	1	NaN	422	7	44	1	111	211	311	NaN	511	0.113126828568056	1	1	NaN	1296065.1985121	NaN	1296066.1818997	1296066.69845807
28	20	1	0	90	36.1581920903955	36.241610738255	7	0.233358328016475	2	7	5	NaN	2	3	0.132056268018382	1	1	NaN	423	7	45	1	121	221	321	NaN	521	0.272133376682177	2	1	NaN	1296068.01554	NaN	1296068.998837	1296069.51538672
28	20	1	0	90	36.1581920903955	36.241610738255	16	0.533390464037657	2	12	1	NaN	2	5	0.132056268018382	1	1	NaN	424	7	46	1	121	221	321	NaN	521	0.148993176640943	2	1	NaN	1296070.6823564	NaN	1296071.6657717	1296072.18232612
28	20	1	0	90	36.1581920903955	36.241610738255	16	0.533390464037657	2	8	2	NaN	2	5	0.132056268018382	1	1	NaN	425	7	47	1	121	221	321	NaN	521	0.298077572835609	2	1	NaN	1296073.1493563	NaN	1296074.132708	1296074.64922793
28	20	1	0	90	36.1581920903955	36.241610738255	9	0.300032136021182	2	2	2	NaN	1	5	0.132056268018382	1	1	NaN	426	7	48	1	121	221	321	NaN	521	0.137310088146478	1	1	NaN	1296075.7662181	NaN	1296076.7496093	1296077.26616541
28	20	1	0	90	36.1581920903955	36.241610738255	20	0.666738080047071	2	6	1	NaN	1	4	0.132056268018382	1	1	NaN	427	7	49	1	121	221	321	NaN	521	0.702845828607678	1	1	NaN	1296078.2164495	NaN	1296079.1998376	1296079.71640307
28	20	1	0	90	36.1581920903955	36.241610738255	12	0.400042848028243	2	4	4	NaN	1	5	0.132056268018382	1	1	NaN	428	7	50	1	121	221	321	NaN	521	0.142188876867294	1	1	NaN	1296081.2334263	NaN	1296082.2168018	1296082.73336452
28	20	1	0	90	36.1581920903955	36.241610738255	21	0.700074984049424	2	10	5	NaN	2	3	0.132056268018382	1	1	NaN	429	7	51	1	121	221	321	NaN	521	0.148234828608111	2	1	NaN	1296083.6836524	NaN	1296084.6670426	1296085.18360487
28	20	1	0	90	36.1581920903955	36.241610738255	11	0.366705944025889	2	2	1	NaN	1	3	0.132056268018382	1	1	NaN	430	7	52	1	121	221	321	NaN	521	0.225441476795822	1	1	NaN	1296086.150585	NaN	1296087.1339513	1296087.65050372
28	20	1	0	90	36.1581920903955	36.241610738255	19	0.633401176044717	2	1	4	NaN	1	3	0.132056268018382	1	1	NaN	431	7	53	1	121	221	321	NaN	521	0.107382276793942	1	1	NaN	1296088.6841437	NaN	1296089.6675344	1296090.18408472
28	20	1	0	90	36.1581920903955	36.241610738255	11	0.366705944025889	2	1	2	NaN	1	5	0.132056268018382	1	1	NaN	432	7	54	1	121	221	321	NaN	521	0.209840928670019	1	1	NaN	1296091.5177122	NaN	1296092.5011506	1296093.01770607
28	20	1	0	90	36.1581920903955	36.241610738255	21	0.700074984049424	2	1	6	NaN	1	4	0.132056268018382	1	1	NaN	433	7	55	1	121	221	321	NaN	521	0.180920076789334	1	1	NaN	1296094.0346628	NaN	1296095.0181003	1296095.53460842
28	20	1	0	90	36.1581920903955	36.241610738255	12	0.400042848028243	2	6	5	NaN	1	3	0.132056268018382	1	1	NaN	434	7	56	1	121	221	321	NaN	521	0.0486498246900737	1	1	NaN	1296096.5349189	NaN	1296097.5183135	1296098.03486408
28	20	1	0	90	36.1581920903955	36.241610738255	11	0.366705944025889	2	10	1	NaN	2	4	0.132056268018382	1	1	NaN	435	7	57	1	121	221	321	NaN	521	0.209762028651312	2	1	NaN	1296098.9017992	NaN	1296099.8852088	1296100.40176297
28	20	1	0	90	36.1581920903955	36.241610738255	19	0.633401176044717	2	1	1	NaN	1	4	0.132056268018382	1	1	NaN	436	7	58	1	121	221	321	NaN	521	0.572266076691449	1	1	NaN	1296101.4353441	NaN	1296102.4188228	1296102.93534062
28	20	1	0	90	36.1581920903955	36.241610738255	14	0.46671665603295	2	6	4	NaN	1	5	0.132056268018382	1	1	NaN	437	7	59	1	121	221	321	NaN	521	0.010407276917249	1	1	NaN	1296104.318895	NaN	1296105.302405	1296105.81896822
28	20	1	0	90	36.1581920903955	36.241610738255	25	0.833422600058839	2	6	4	NaN	1	4	0.132056268018382	1	1	NaN	438	7	60	1	121	221	321	NaN	521	0.292073828633875	1	1	NaN	1296106.635898	NaN	1296107.619304	1296108.13586007
28	20	1	0	90	36.1581920903955	36.241610738255	12	0.400042848028243	2	8	6	NaN	2	3	0.132056268018382	1	1	NaN	439	7	61	1	121	221	321	NaN	521	0.0995355767663568	2	1	NaN	1296109.2361573	NaN	1296110.2195583	1296110.73610852
28	20	1	0	90	36.1581920903955	36.241610738255	13	0.433379752030596	2	10	3	NaN	2	3	0.132056268018382	1	1	NaN	440	7	62	1	121	221	321	NaN	521	0.23428988060914	2	1	NaN	1296111.6530929	NaN	1296112.6364691	1296113.15301532
28	20	1	0	90	36.1581920903955	36.241610738255	23	0.766748792054132	2	11	3	NaN	2	3	0.132056268018382	1	1	NaN	441	7	63	1	121	221	321	NaN	521	0.284766772994772	2	1	NaN	1296114.2033136	NaN	1296115.1866994	1296115.70326693
28	20	1	0	90	36.1581920903955	36.241610738255	10	0.333369040023536	2	12	4	NaN	2	4	0.132056268018382	1	1	NaN	442	8	1	1	121	221	321	NaN	521	0.495376128703356	2	1	NaN	1296130.0883648	NaN	1296131.0716138	1296131.58815757
28	20	1	0	90	36.1581920903955	36.241610738255	17	0.56672736804001	2	2	5	NaN	1	4	0.132056268018382	1	1	NaN	443	8	2	1	121	221	321	NaN	521	0.206484376685694	1	1	NaN	1296132.9051516	NaN	1296133.888558	1296134.40509262
28	20	1	0	90	36.1581920903955	36.241610738255	8	0.266695232018828	2	7	6	NaN	2	3	0.132056268018382	1	1	NaN	444	8	3	1	121	221	321	NaN	521	0.241683576721698	2	1	NaN	1296135.4219461	NaN	1296136.405458	1296136.92200352
28	20	1	0	90	36.1581920903955	36.241610738255	7	0.233358328016475	2	3	4	NaN	1	3	0.132056268018382	1	1	NaN	445	8	4	1	121	221	321	NaN	521	0.298753128852695	1	1	NaN	1296137.9889794	NaN	1296138.972386	1296139.48893307
28	20	1	0	90	36.1581920903955	36.241610738255	9	0.300032136021182	2	12	6	NaN	2	5	0.132056268018382	1	1	NaN	446	8	5	1	121	221	321	NaN	521	0.290077473036945	2	1	NaN	1296140.6059131	NaN	1296141.5892811	1296142.10584793
28	20	1	0	90	36.1581920903955	36.241610738255	16	0.533390464037657	2	1	3	NaN	1	5	0.132056268018382	1	1	NaN	447	8	6	1	121	221	321	NaN	521	0.305330028524622	1	1	NaN	1296143.2061951	NaN	1296144.1895606	1296144.70611387
28	20	1	0	90	36.1581920903955	36.241610738255	0	0	1	2	5	NaN	1	4	0.132056268018382	1	1	NaN	448	8	7	1	111	211	311	NaN	511	1.51288938056678	1	1	NaN	1296145.8230938	NaN	1296146.8064733	1296147.32303782
28	20	1	0	90	36.1581920903955	36.241610738255	20	0.666738080047071	2	4	5	NaN	1	5	0.132056268018382	1	1	NaN	449	8	8	1	121	221	321	NaN	521	0.311920480569825	1	1	NaN	1296149.6401298	NaN	1296150.6235121	1296151.14007612
28	20	1	0	90	36.1581920903955	36.241610738255	19	0.633401176044717	2	6	5	NaN	1	4	0.132056268018382	1	1	NaN	450	8	9	1	121	221	321	NaN	521	0.23844422865659	2	0	NaN	1296152.273708	NaN	1296153.257101	1296153.77365847
28	20	1	0	90	36.1581920903955	36.241610738255	19	0.633401176044717	2	5	4	NaN	1	4	0.132056268018382	1	1	NaN	451	8	10	1	121	221	321	NaN	521	0.720063376706094	1	1	NaN	1296154.8239793	NaN	1296155.8073656	1296156.32391892
28	20	1	0	90	36.1581920903955	36.241610738255	21	0.700074984049424	2	4	2	NaN	1	4	0.132056268018382	1	1	NaN	452	8	11	1	121	221	321	NaN	521	0.475429876707494	1	1	NaN	1296158.3242849	NaN	1296159.3077044	1296159.82425272
28	20	1	0	90	36.1581920903955	36.241610738255	18	0.600064272042364	2	7	3	NaN	2	3	0.132056268018382	1	1	NaN	453	8	12	1	121	221	321	NaN	521	0.305062076542526	2	1	NaN	1296161.574645	NaN	1296162.5580293	1296163.07458582
28	20	1	0	90	36.1581920903955	36.241610738255	11	0.366705944025889	2	6	2	NaN	1	5	0.132056268018382	1	1	NaN	454	8	13	1	121	221	321	NaN	521	0.125823828624561	1	1	NaN	1296164.4582212	NaN	1296165.4416343	1296165.95820257
28	20	1	0	90	36.1581920903955	36.241610738255	7	0.233358328016475	2	12	6	NaN	2	5	0.132056268018382	1	1	NaN	455	8	14	1	121	221	321	NaN	521	0.201088728616014	2	1	NaN	1296167.3583989	NaN	1296168.341933	1296168.85847647
28	20	1	0	90	36.1581920903955	36.241610738255	22	0.733411888051778	2	4	1	NaN	1	3	0.132056268018382	1	1	NaN	456	8	15	1	121	221	321	NaN	521	0.165626380592585	1	1	NaN	1296170.242118	NaN	1296171.2255388	1296171.74210242
28	20	1	0	90	36.1581920903955	36.241610738255	17	0.56672736804001	2	3	4	NaN	1	5	0.132056268018382	1	1	NaN	457	8	16	1	121	221	321	NaN	521	0.185885624727234	1	1	NaN	1296172.7257248	NaN	1296173.7091159	1296174.22567518
28	20	1	0	90	36.1581920903955	36.241610738255	25	0.833422600058839	2	9	1	NaN	2	4	0.132056268018382	1	1	NaN	458	8	17	1	121	221	321	NaN	521	0.229667492443696	2	1	NaN	1296175.2259658	NaN	1296176.2093553	1296176.72592441
28	20	1	0	90	36.1581920903955	36.241610738255	22	0.733411888051778	2	12	4	NaN	2	4	0.132056268018382	1	1	NaN	459	8	18	1	121	221	321	NaN	521	0.184526024619117	1	0	NaN	1296177.9594465	NaN	1296178.942964	1296179.45951318
28	20	1	0	90	36.1581920903955	36.241610738255	6	0.200021424014121	2	10	3	NaN	2	3	0.132056268018382	1	1	NaN	460	8	19	1	121	221	321	NaN	521	0.245384976733476	2	1	NaN	1296180.6263909	NaN	1296181.6098938	1296182.12644312
