subjno	age	gender	isPractice	viewdist	CmToPixX	CmToPixY	SOA_frm	SOA_time	targNum	targID	targExample	targRace	targGender	firstTargPos	contrast	familiarity	curr_staircase	iStair	TrialNum	BlockNum	blktrl	sessionNum	TC_FIXATION	TC_RSVP_START	TC_RSVP_END	TC_BLANK	TC_RESPONSE_ONSET	RT2afc	resp_2afc	acc	RSVPOnsetVBL	RSVPOnsetTime	RSVPOffsetVBL	RSVPOffsetTime	startrt_2afc
117	23	0	0	90	36.1581920903955	36.241610738255	24	0.800072544515133	2	1	1	NaN	1	3	0.0501030471703878	0	1	NaN	1	1	1	1	120	220	320	NaN	520	0.348549973219633	2	0	NaN	5703360.604861	NaN	5703361.5881976	5703362.12124473
117	23	0	0	90	36.1581920903955	36.241610738255	22	0.733399832472205	2	11	3	NaN	2	4	0.0501030471703878	0	1	NaN	2	1	2	1	120	220	320	NaN	520	0.76760062482208	1	0	NaN	5703363.3218301	NaN	5703364.3050946	5703364.83818957
117	23	0	0	90	36.1581920903955	36.241610738255	23	0.766736188493669	2	6	2	NaN	1	5	0.0501030471703878	0	1	NaN	3	1	3	1	120	220	320	NaN	520	1.06721142586321	1	1	NaN	5703366.4386485	NaN	5703367.4219668	5703367.93848017
117	23	0	0	90	36.1581920903955	36.241610738255	19	0.633390764407814	2	10	3	NaN	2	4	0.0501030471703878	0	1	NaN	4	1	4	1	120	220	320	NaN	520	0.715027891099453	1	0	NaN	5703369.8387255	NaN	5703370.8222657	5703371.33882641
117	23	0	0	90	36.1581920903955	36.241610738255	19	0.633390764407814	2	9	5	NaN	2	5	0.0501030471703878	0	1	NaN	5	1	5	1	120	220	320	NaN	520	0.273263173177838	2	1	NaN	5703372.8725373	NaN	5703373.8559421	5703374.37245433
117	23	0	0	90	36.1581920903955	36.241610738255	12	0.400036272257566	2	10	6	NaN	2	3	0.0501030471703878	0	1	NaN	6	1	6	1	120	220	320	NaN	520	0.417104491963983	2	1	NaN	5703375.4727592	NaN	5703376.4561985	5703376.97271571
117	23	0	0	90	36.1581920903955	36.241610738255	23	0.766736188493669	2	7	5	NaN	2	5	0.0501030471703878	0	1	NaN	7	1	7	1	120	220	320	NaN	520	0.290720391087234	1	0	NaN	5703378.2230893	NaN	5703379.2064776	5703379.72299481
117	23	0	0	90	36.1581920903955	36.241610738255	12	0.400036272257566	2	10	3	NaN	2	4	0.0501030471703878	0	1	NaN	8	1	8	1	120	220	320	NaN	520	1.43373958300799	1	0	NaN	5703380.8400935	NaN	5703381.8233915	5703382.33990482
117	23	0	0	90	36.1581920903955	36.241610738255	10	0.333363560214639	2	10	6	NaN	2	3	0.0501030471703878	0	1	NaN	9	1	9	1	120	220	320	NaN	520	0.307080825790763	2	1	NaN	5703384.6070016	NaN	5703385.5904238	5703386.10694097
117	23	0	0	90	36.1581920903955	36.241610738255	14	0.466708984300494	2	1	6	NaN	1	4	0.0501030471703878	0	1	NaN	10	1	10	1	120	220	320	NaN	520	1.05702262558043	2	0	NaN	5703387.2405543	NaN	5703388.2239885	5703388.74053257
117	23	0	0	90	36.1581920903955	36.241610738255	21	0.700063476450741	2	2	5	NaN	1	3	0.0501030471703878	0	1	NaN	11	1	11	1	120	220	320	NaN	520	0.426124269142747	1	1	NaN	5703390.607655	NaN	5703391.5910166	5703392.10753443
117	23	0	0	90	36.1581920903955	36.241610738255	25	0.833408900536597	2	7	3	NaN	2	4	0.0501030471703878	0	1	NaN	12	1	12	1	120	220	320	NaN	520	0.331927691586316	1	0	NaN	5703393.3578865	NaN	5703394.3413635	5703394.85781231
117	23	0	0	90	36.1581920903955	36.241610738255	16	0.533381696343422	2	8	3	NaN	2	4	0.0501030471703878	0	1	NaN	13	1	13	1	120	220	320	NaN	520	0.769743512384593	1	0	NaN	5703396.0081077	NaN	5703396.9915433	5703397.50806769
117	23	0	0	90	36.1581920903955	36.241610738255	21	0.700063476450741	2	11	5	NaN	2	3	0.0501030471703878	0	1	NaN	14	1	14	1	120	220	320	NaN	520	0.309923973865807	2	1	NaN	5703399.0917679	NaN	5703400.0751989	5703400.59170603
117	23	0	0	90	36.1581920903955	36.241610738255	11	0.366699916236103	2	2	1	NaN	1	3	0.0501030471703878	0	1	NaN	15	1	15	1	120	220	320	NaN	520	4.4444809211418	2	0	NaN	5703401.7252136	NaN	5703402.7087849	5703403.22529258
117	23	0	0	90	36.1581920903955	36.241610738255	22	0.733399832472205	2	9	1	NaN	2	4	0.0501030471703878	0	1	NaN	16	1	16	1	120	220	320	NaN	520	0.317791482433677	1	0	NaN	5703408.4926809	NaN	5703409.4761607	5703409.99263682
117	23	0	0	90	36.1581920903955	36.241610738255	6	0.200018136128783	2	4	4	NaN	1	5	0.0501030471703878	0	1	NaN	17	1	17	1	120	220	320	NaN	520	0.434785612858832	1	1	NaN	5703411.1429482	NaN	5703412.1263673	5703412.64288829
117	23	0	0	90	36.1581920903955	36.241610738255	8	0.266690848171711	2	4	1	NaN	1	5	0.0501030471703878	0	1	NaN	18	1	18	1	120	220	320	NaN	520	0.219812178984284	1	1	NaN	5703413.9098889	NaN	5703414.8933203	5703415.40984242
117	23	0	0	90	36.1581920903955	36.241610738255	17	0.566718052364886	2	9	4	NaN	2	3	0.0501030471703878	0	1	NaN	19	1	19	1	120	220	320	NaN	520	0.878131173551083	1	0	NaN	5703416.4601108	NaN	5703417.4435712	5703417.96008373
117	23	0	0	90	36.1581920903955	36.241610738255	21	0.700063476450741	2	12	6	NaN	2	3	0.0501030471703878	0	1	NaN	20	1	20	1	120	220	320	NaN	520	0.612656278535724	1	0	NaN	5703419.6772195	NaN	5703420.6605692	5703421.17707612
117	23	0	0	90	36.1581920903955	36.241610738255	13	0.43337262827903	2	10	3	NaN	2	5	0.0501030471703878	0	1	NaN	21	1	21	1	120	220	320	NaN	520	0.487227808684111	1	0	NaN	5703422.6106253	NaN	5703423.5941836	5703424.11068159
117	23	0	0	90	36.1581920903955	36.241610738255	8	0.266690848171711	2	6	1	NaN	1	3	0.0501030471703878	0	1	NaN	22	1	22	1	120	220	320	NaN	520	0.270262286998332	1	1	NaN	5703425.427688	NaN	5703426.4111025	5703426.92763541
117	23	0	0	90	36.1581920903955	36.241610738255	20	0.666727120429277	2	10	5	NaN	2	3	0.0501030471703878	0	1	NaN	23	1	23	1	120	220	320	NaN	520	2.24592877365649	2	1	NaN	5703428.027852	NaN	5703429.0113688	5703429.52789303
117	23	0	0	90	36.1581920903955	36.241610738255	16	0.533381696343422	2	4	6	NaN	1	5	0.0501030471703878	0	1	NaN	24	1	24	1	120	220	320	NaN	520	0.286856091581285	2	0	NaN	5703432.5949537	NaN	5703433.57847	5703434.09500641
117	23	0	0	90	36.1581920903955	36.241610738255	11	0.366699916236103	2	3	6	NaN	1	3	0.0501030471703878	0	1	NaN	25	1	25	1	120	220	320	NaN	520	0.65377592574805	2	0	NaN	5703435.2119804	NaN	5703436.1954058	5703436.71193437
117	23	0	0	90	36.1581920903955	36.241610738255	10	0.333363560214639	2	3	4	NaN	1	3	0.0501030471703878	0	1	NaN	26	1	26	1	120	220	320	NaN	520	0.270267573185265	1	1	NaN	5703438.1957069	NaN	5703439.1790356	5703439.69555443
117	23	0	0	90	36.1581920903955	36.241610738255	13	0.43337262827903	2	11	3	NaN	2	3	0.0501030471703878	0	1	NaN	27	1	27	1	120	220	320	NaN	520	0.462113791145384	2	1	NaN	5703440.7958583	NaN	5703441.7792857	5703442.29582201
117	23	0	0	90	36.1581920903955	36.241610738255	18	0.60005440838635	2	11	1	NaN	2	5	0.0501030471703878	0	1	NaN	28	1	28	1	120	220	320	NaN	520	0.222439891658723	2	1	NaN	5703443.5794732	NaN	5703444.5629112	5703445.07942641
117	23	0	0	90	36.1581920903955	36.241610738255	25	0.833408900536597	2	8	1	NaN	2	4	0.0501030471703878	0	1	NaN	29	1	29	1	120	220	320	NaN	520	0.552136391401291	2	1	NaN	5703446.1297262	NaN	5703447.1131557	5703447.62967531
117	23	0	0	90	36.1581920903955	36.241610738255	24	0.800072544515133	2	10	2	NaN	2	4	0.0501030471703878	0	1	NaN	30	1	30	1	120	220	320	NaN	520	2.00514994375408	2	1	NaN	5703448.9966859	NaN	5703449.9801343	5703450.49663466
117	23	0	0	90	36.1581920903955	36.241610738255	24	0.800072544515133	2	10	6	NaN	2	5	0.0501030471703878	0	1	NaN	31	1	31	1	120	220	320	NaN	520	0.471400660462677	2	1	NaN	5703453.3304356	NaN	5703454.3138688	5703454.83038264
117	23	0	0	90	36.1581920903955	36.241610738255	24	0.800072544515133	2	12	5	NaN	2	3	0.0501030471703878	0	1	NaN	32	1	32	1	120	220	320	NaN	520	0.279265591874719	1	0	NaN	5703456.1305925	NaN	5703457.114135	5703457.63066541
117	23	0	0	90	36.1581920903955	36.241610738255	10	0.333363560214639	2	3	6	NaN	1	3	0.0501030471703878	0	1	NaN	33	1	33	1	120	220	320	NaN	520	0.207003290764987	1	1	NaN	5703458.7310746	NaN	5703459.7143837	5703460.23092121
117	23	0	0	90	36.1581920903955	36.241610738255	16	0.533381696343422	2	1	1	NaN	1	3	0.0501030471703878	0	1	NaN	34	1	34	1	120	220	320	NaN	520	0.169352978467941	1	1	NaN	5703461.2645219	NaN	5703462.247987	5703462.76450592
117	23	0	0	90	36.1581920903955	36.241610738255	18	0.60005440838635	2	3	1	NaN	1	3	0.0501030471703878	0	1	NaN	35	1	35	1	120	220	320	NaN	520	0.397079679183662	2	0	NaN	5703463.7646977	NaN	5703464.7482379	5703465.26475442
117	23	0	0	90	36.1581920903955	36.241610738255	19	0.633390764407814	2	8	2	NaN	2	5	0.0501030471703878	0	1	NaN	36	1	36	1	120	220	320	NaN	520	0.192282624542713	1	0	NaN	5703466.4817304	NaN	5703467.4651503	5703467.98167678
117	23	0	0	90	36.1581920903955	36.241610738255	6	0.200018136128783	2	12	5	NaN	2	3	0.0501030471703878	0	1	NaN	37	1	37	1	120	220	320	NaN	520	1.41929349116981	1	0	NaN	5703468.9986555	NaN	5703469.9820803	5703470.49860061
117	23	0	0	90	36.1581920903955	36.241610738255	25	0.833408900536597	2	2	5	NaN	1	5	0.0501030471703878	0	1	NaN	38	1	38	1	120	220	320	NaN	520	0.477630591951311	1	1	NaN	5703472.7323659	NaN	5703473.7157857	5703474.23229851
117	23	0	0	90	36.1581920903955	36.241610738255	8	0.266690848171711	2	10	5	NaN	2	4	0.0501030471703878	0	1	NaN	39	1	39	1	120	220	320	NaN	520	0.317279973067343	1	0	NaN	5703475.5326404	NaN	5703476.516046	5703477.03257023
117	23	0	0	90	36.1581920903955	36.241610738255	13	0.43337262827903	2	2	3	NaN	1	5	0.0501030471703878	0	1	NaN	40	1	40	1	120	220	320	NaN	520	0.308327220380306	2	0	NaN	5703478.1662023	NaN	5703479.1496434	5703479.66616578
117	23	0	0	90	36.1581920903955	36.241610738255	11	0.366699916236103	2	8	5	NaN	2	5	0.0501030471703878	0	1	NaN	41	1	41	1	120	220	320	NaN	520	0.586110078729689	2	1	NaN	5703480.7998179	NaN	5703481.7832255	5703482.29976502
117	23	0	0	90	36.1581920903955	36.241610738255	6	0.200018136128783	2	10	3	NaN	2	3	0.0501030471703878	0	1	NaN	42	1	42	1	120	220	320	NaN	520	0.357827530242503	2	1	NaN	5703483.7001036	NaN	5703484.6835346	5703485.20005307
117	23	0	0	90	36.1581920903955	36.241610738255	23	0.766736188493669	2	9	4	NaN	2	5	0.0501030471703878	0	1	NaN	43	1	43	1	120	220	320	NaN	520	1.21825913898647	1	0	NaN	5703486.3837049	NaN	5703487.3671018	5703487.88364516
117	23	0	0	90	36.1581920903955	36.241610738255	24	0.800072544515133	2	1	5	NaN	1	4	0.0501030471703878	0	1	NaN	44	1	44	1	120	220	320	NaN	520	0.347889312542975	1	1	NaN	5703489.9339288	NaN	5703490.9174604	5703491.43399529
117	23	0	0	90	36.1581920903955	36.241610738255	21	0.700063476450741	2	7	2	NaN	2	5	0.0501030471703878	0	1	NaN	45	1	45	1	120	220	320	NaN	520	1.09690964408219	1	0	NaN	5703492.6009664	NaN	5703493.5844229	5703494.10092696
117	23	0	0	90	36.1581920903955	36.241610738255	13	0.43337262827903	2	4	5	NaN	1	3	0.0501030471703878	0	1	NaN	46	1	46	1	120	220	320	NaN	520	0.303874873556197	1	1	NaN	5703496.0178663	NaN	5703497.0014027	5703497.51791973
117	23	0	0	90	36.1581920903955	36.241610738255	19	0.633390764407814	2	4	3	NaN	1	3	0.0501030471703878	0	1	NaN	47	1	47	1	120	220	320	NaN	520	0.822890778072178	1	1	NaN	5703498.6348892	NaN	5703499.6183628	5703500.13484672
117	23	0	0	90	36.1581920903955	36.241610738255	25	0.833408900536597	2	8	2	NaN	2	5	0.0501030471703878	0	1	NaN	48	1	48	1	120	220	320	NaN	520	0.584751873277128	2	1	NaN	5703501.7850815	NaN	5703502.7686143	5703503.28515313
117	23	0	0	90	36.1581920903955	36.241610738255	15	0.500045340321958	2	4	2	NaN	1	5	0.0501030471703878	0	1	NaN	49	1	49	1	120	220	320	NaN	520	1.47577417269349	2	0	NaN	5703504.7021753	NaN	5703505.6856231	5703506.20210603
117	23	0	0	90	36.1581920903955	36.241610738255	11	0.366699916236103	2	2	1	NaN	1	5	0.0501030471703878	0	1	NaN	50	1	50	1	120	220	320	NaN	520	0.259489891119301	1	1	NaN	5703508.5024564	NaN	5703509.4859568	5703510.00248911
117	23	0	0	90	36.1581920903955	36.241610738255	11	0.366699916236103	2	3	4	NaN	1	3	0.0501030471703878	0	1	NaN	51	1	51	1	120	220	320	NaN	520	0.268447125330567	1	1	NaN	5703511.0694396	NaN	5703512.0528962	5703512.56939967
117	23	0	0	90	36.1581920903955	36.241610738255	9	0.300027204193175	2	3	2	NaN	1	5	0.0501030471703878	0	1	NaN	52	1	52	1	120	220	320	NaN	520	0.244781673885882	1	1	NaN	5703513.6529633	NaN	5703514.6364758	5703515.15299053
117	23	0	0	90	36.1581920903955	36.241610738255	18	0.60005440838635	2	2	4	NaN	1	3	0.0501030471703878	0	1	NaN	53	1	53	1	120	220	320	NaN	520	0.817649591714144	2	0	NaN	5703516.3366475	NaN	5703517.3200701	5703517.83659271
117	23	0	0	90	36.1581920903955	36.241610738255	9	0.300027204193175	2	11	2	NaN	2	3	0.0501030471703878	0	1	NaN	54	1	54	1	120	220	320	NaN	520	0.379714025184512	1	0	NaN	5703519.4702858	NaN	5703520.4537105	5703520.97023007
117	23	0	0	90	36.1581920903955	36.241610738255	9	0.300027204193175	2	10	3	NaN	2	5	0.0501030471703878	0	1	NaN	55	1	55	1	120	220	320	NaN	520	0.272136990912259	2	1	NaN	5703522.1539175	NaN	5703523.1373051	5703523.65383501
117	23	0	0	90	36.1581920903955	36.241610738255	21	0.700063476450741	2	10	1	NaN	2	4	0.0501030471703878	0	1	NaN	56	1	56	1	120	220	320	NaN	520	0.303807625547051	2	1	NaN	5703524.7541414	NaN	5703525.7375672	5703526.25409437
117	23	0	0	90	36.1581920903955	36.241610738255	20	0.666727120429277	2	3	4	NaN	1	3	0.0501030471703878	0	1	NaN	57	1	57	1	120	220	320	NaN	520	0.694852182641625	1	1	NaN	5703527.3710697	NaN	5703528.3544992	5703528.87102742
117	23	0	0	90	36.1581920903955	36.241610738255	15	0.500045340321958	2	12	1	NaN	2	4	0.0501030471703878	0	1	NaN	58	1	58	1	120	220	320	NaN	520	0.349833031184971	2	1	NaN	5703530.3880248	NaN	5703531.371451	5703531.88797607
117	23	0	0	90	36.1581920903955	36.241610738255	17	0.566718052364886	2	1	1	NaN	1	5	0.0501030471703878	0	1	NaN	59	1	59	1	120	220	320	NaN	520	1.0031127249822	2	0	NaN	5703533.0549435	NaN	5703534.0384026	5703534.55489867
117	23	0	0	90	36.1581920903955	36.241610738255	10	0.333363560214639	2	9	1	NaN	2	4	0.0501030471703878	0	1	NaN	60	1	60	1	120	220	320	NaN	520	0.630086872726679	2	1	NaN	5703536.3718416	NaN	5703537.3553484	5703537.87189033
117	23	0	0	90	36.1581920903955	36.241610738255	13	0.43337262827903	2	9	6	NaN	2	5	0.0501030471703878	0	1	NaN	61	1	61	1	120	220	320	NaN	520	0.423765026032925	2	1	NaN	5703539.3222419	NaN	5703540.3056709	5703540.82219327
117	23	0	0	90	36.1581920903955	36.241610738255	20	0.666727120429277	2	8	6	NaN	2	3	0.0501030471703878	0	1	NaN	62	1	62	1	120	220	320	NaN	520	0.642275873571634	2	1	NaN	5703542.0558859	NaN	5703543.0392433	5703543.55578783
117	23	0	0	90	36.1581920903955	36.241610738255	6	0.200018136128783	2	5	6	NaN	1	5	0.0501030471703878	0	1	NaN	63	1	63	1	120	220	320	NaN	520	0.164071643725038	1	1	NaN	5703545.0062292	NaN	5703545.9894525	5703546.50609186
117	23	0	0	90	36.1581920903955	36.241610738255	25	0.833408900536597	2	12	3	NaN	2	3	0.0501030471703878	0	1	NaN	64	2	1	1	120	220	320	NaN	520	0.250107964500785	1	0	NaN	5703551.6401335	NaN	5703552.6235276	5703553.14007184
117	23	0	0	90	36.1581920903955	36.241610738255	18	0.60005440838635	2	2	1	NaN	1	5	0.0501030471703878	0	1	NaN	65	2	2	1	120	220	320	NaN	520	0.739279978908598	1	1	NaN	5703554.207022	NaN	5703555.1904821	5703555.70698362
117	23	0	0	90	36.1581920903955	36.241610738255	6	0.200018136128783	2	9	2	NaN	2	5	0.0501030471703878	0	1	NaN	66	2	3	1	120	220	320	NaN	520	0.216858673840761	1	0	NaN	5703557.2573579	NaN	5703558.240749	5703558.75729153
117	23	0	0	90	36.1581920903955	36.241610738255	23	0.766736188493669	2	12	2	NaN	2	5	0.0501030471703878	0	1	NaN	67	2	4	1	120	220	320	NaN	520	1.82724363077432	1	0	NaN	5703559.7909153	NaN	5703560.7743135	5703561.29086617
117	23	0	0	90	36.1581920903955	36.241610738255	12	0.400036272257566	2	3	1	NaN	1	5	0.0501030471703878	0	1	NaN	68	2	5	1	120	220	320	NaN	520	0.548799373209476	2	0	NaN	5703563.9413286	NaN	5703564.9247085	5703565.44128523
117	23	0	0	90	36.1581920903955	36.241610738255	11	0.366699916236103	2	10	1	NaN	2	5	0.0501030471703878	0	1	NaN	69	2	6	1	120	220	320	NaN	520	0.29788507334888	2	1	NaN	5703566.8082715	NaN	5703567.7916732	5703568.30822163
117	23	0	0	90	36.1581920903955	36.241610738255	9	0.300027204193175	2	11	5	NaN	2	4	0.0501030471703878	0	1	NaN	70	2	7	1	120	220	320	NaN	520	1.01685277372599	2	1	NaN	5703569.4252004	NaN	5703570.4086119	5703570.92514973
117	23	0	0	90	36.1581920903955	36.241610738255	23	0.766736188493669	2	2	2	NaN	1	4	0.0501030471703878	0	1	NaN	71	2	8	1	120	220	320	NaN	520	0.195578172802925	1	1	NaN	5703572.758857	NaN	5703573.7422585	5703574.25880563
117	23	0	0	90	36.1581920903955	36.241610738255	9	0.300027204193175	2	1	6	NaN	1	4	0.0501030471703878	0	1	NaN	72	2	9	1	120	220	320	NaN	520	0.662303273566067	2	0	NaN	5703575.2758096	NaN	5703576.2591795	5703576.77572153
117	23	0	0	90	36.1581920903955	36.241610738255	25	0.833408900536597	2	10	6	NaN	2	4	0.0501030471703878	0	1	NaN	73	2	10	1	120	220	320	NaN	520	0.247367673553526	2	1	NaN	5703578.2426118	NaN	5703579.2261939	5703579.74267803
117	23	0	0	90	36.1581920903955	36.241610738255	14	0.466708984300494	2	2	5	NaN	1	4	0.0501030471703878	0	1	NaN	74	2	11	1	120	220	320	NaN	520	0.472841573879123	2	0	NaN	5703580.8096515	NaN	5703581.7930832	5703582.30960373
117	23	0	0	90	36.1581920903955	36.241610738255	10	0.333363560214639	2	10	2	NaN	2	3	0.0501030471703878	0	1	NaN	75	2	12	1	120	220	320	NaN	520	0.169268243946135	1	0	NaN	5703583.5932585	NaN	5703584.5766624	5703585.09321036
117	23	0	0	90	36.1581920903955	36.241610738255	16	0.533381696343422	2	7	3	NaN	2	5	0.0501030471703878	0	1	NaN	76	2	13	1	120	220	320	NaN	520	0.845677525736392	1	0	NaN	5703586.0768637	NaN	5703587.0602373	5703587.57679587
117	23	0	0	90	36.1581920903955	36.241610738255	19	0.633390764407814	2	4	1	NaN	1	4	0.0501030471703878	0	1	NaN	77	2	14	1	120	220	320	NaN	520	0.150686825625598	1	1	NaN	5703589.2438166	NaN	5703590.2272158	5703590.74377387
117	23	0	0	90	36.1581920903955	36.241610738255	14	0.466708984300494	2	8	2	NaN	2	3	0.0501030471703878	0	1	NaN	78	2	15	1	120	220	320	NaN	520	0.267495420761406	1	0	NaN	5703591.7107299	NaN	5703592.6941286	5703593.21067168
117	23	0	0	90	36.1581920903955	36.241610738255	20	0.666727120429277	2	12	5	NaN	2	5	0.0501030471703878	0	1	NaN	79	2	16	1	120	220	320	NaN	520	0.324194372631609	1	0	NaN	5703594.2944075	NaN	5703595.2777065	5703595.79425783
117	23	0	0	90	36.1581920903955	36.241610738255	17	0.566718052364886	2	12	5	NaN	2	3	0.0501030471703878	0	1	NaN	80	2	17	1	120	220	320	NaN	520	0.18631827365607	1	0	NaN	5703596.9279065	NaN	5703597.9113592	5703598.42785433
117	23	0	0	90	36.1581920903955	36.241610738255	10	0.333363560214639	2	8	4	NaN	2	4	0.0501030471703878	0	1	NaN	81	2	18	1	120	220	320	NaN	520	0.486102573573589	2	1	NaN	5703599.4281527	NaN	5703600.4115481	5703600.92809543
117	23	0	0	90	36.1581920903955	36.241610738255	25	0.833408900536597	2	10	1	NaN	2	4	0.0501030471703878	0	1	NaN	82	2	19	1	120	220	320	NaN	520	1.0137354740873	2	1	NaN	5703602.2284339	NaN	5703603.2118313	5703603.72837493
117	23	0	0	90	36.1581920903955	36.241610738255	24	0.800072544515133	2	9	1	NaN	2	4	0.0501030471703878	0	1	NaN	83	2	20	1	120	220	320	NaN	520	1.00003362540156	1	0	NaN	5703605.5620878	NaN	5703606.5454903	5703607.06204377
117	23	0	0	90	36.1581920903955	36.241610738255	12	0.400036272257566	2	4	4	NaN	1	5	0.0501030471703878	0	1	NaN	84	2	21	1	120	220	320	NaN	520	0.155113369226456	2	0	NaN	5703608.8790758	NaN	5703609.8624865	5703610.37903123
117	23	0	0	90	36.1581920903955	36.241610738255	12	0.400036272257566	2	8	6	NaN	2	5	0.0501030471703878	0	1	NaN	85	2	22	1	120	220	320	NaN	520	0.336552524939179	2	1	NaN	5703611.346089	NaN	5703612.3293921	5703612.84594547
117	23	0	0	90	36.1581920903955	36.241610738255	10	0.333363560214639	2	4	5	NaN	1	5	0.0501030471703878	0	1	NaN	86	2	23	1	120	220	320	NaN	520	0.237974573858082	1	1	NaN	5703613.9962771	NaN	5703614.9796365	5703615.49619883
117	23	0	0	90	36.1581920903955	36.241610738255	9	0.300027204193175	2	1	2	NaN	1	5	0.0501030471703878	0	1	NaN	87	2	24	1	120	220	320	NaN	520	0.256041972897947	2	0	NaN	5703616.5465075	NaN	5703617.5299036	5703618.04644853
117	23	0	0	90	36.1581920903955	36.241610738255	18	0.60005440838635	2	8	6	NaN	2	3	0.0501030471703878	0	1	NaN	88	2	25	1	120	220	320	NaN	520	0.729121573269367	2	1	NaN	5703619.1134213	NaN	5703620.0968271	5703620.61336743
117	23	0	0	90	36.1581920903955	36.241610738255	23	0.766736188493669	2	5	4	NaN	1	5	0.0501030471703878	0	1	NaN	89	2	26	1	120	220	320	NaN	520	0.230857472866774	1	1	NaN	5703622.1637147	NaN	5703623.1471235	5703623.66366803
117	23	0	0	90	36.1581920903955	36.241610738255	24	0.800072544515133	2	7	1	NaN	2	3	0.0501030471703878	0	1	NaN	90	2	27	1	120	220	320	NaN	520	0.256245872937143	1	0	NaN	5703624.7139899	NaN	5703625.6973736	5703626.21392083
117	23	0	0	90	36.1581920903955	36.241610738255	17	0.566718052364886	2	3	6	NaN	1	4	0.0501030471703878	0	1	NaN	91	2	28	1	120	220	320	NaN	520	0.20926147326827	1	1	NaN	5703627.280891	NaN	5703628.2643009	5703628.78083573
117	23	0	0	90	36.1581920903955	36.241610738255	14	0.466708984300494	2	9	3	NaN	2	4	0.0501030471703878	0	1	NaN	92	2	29	1	120	220	320	NaN	520	1.37287667300552	2	1	NaN	5703629.7978027	NaN	5703630.7812142	5703631.29775613
117	23	0	0	90	36.1581920903955	36.241610738255	12	0.400036272257566	2	4	1	NaN	1	3	0.0501030471703878	0	1	NaN	93	2	30	1	120	220	320	NaN	520	0.856577073223889	1	1	NaN	5703633.4815438	NaN	5703634.464895	5703634.98144633
117	23	0	0	90	36.1581920903955	36.241610738255	16	0.533381696343422	2	9	2	NaN	2	3	0.0501030471703878	0	1	NaN	94	2	31	1	120	220	320	NaN	520	0.266130273230374	2	1	NaN	5703636.6483456	NaN	5703637.6318841	5703638.14843213
117	23	0	0	90	36.1581920903955	36.241610738255	15	0.500045340321958	2	10	4	NaN	2	3	0.0501030471703878	0	1	NaN	95	2	32	1	120	220	320	NaN	520	0.346659373492002	2	1	NaN	5703639.2153111	NaN	5703640.1987935	5703640.71535213
117	23	0	0	90	36.1581920903955	36.241610738255	16	0.533381696343422	2	3	2	NaN	1	3	0.0501030471703878	0	1	NaN	96	2	33	1	120	220	320	NaN	520	0.335838872939348	1	1	NaN	5703641.8823436	NaN	5703642.8657264	5703643.38227963
117	23	0	0	90	36.1581920903955	36.241610738255	25	0.833408900536597	2	1	3	NaN	1	5	0.0501030471703878	0	1	NaN	97	2	34	1	120	220	320	NaN	520	0.365934072993696	1	1	NaN	5703644.5324586	NaN	5703645.5160002	5703646.03253443
117	23	0	0	90	36.1581920903955	36.241610738255	22	0.733399832472205	2	7	3	NaN	2	5	0.0501030471703878	0	1	NaN	98	2	35	1	120	220	320	NaN	520	0.562511025927961	2	1	NaN	5703647.2161836	NaN	5703648.1996064	5703648.71614367
117	23	0	0	90	36.1581920903955	36.241610738255	21	0.700063476450741	2	1	3	NaN	1	5	0.0501030471703878	0	1	NaN	99	2	36	1	120	220	320	NaN	520	1.07027847319841	2	0	NaN	5703650.099789	NaN	5703651.0832042	5703651.59974843
117	23	0	0	90	36.1581920903955	36.241610738255	14	0.466708984300494	2	6	6	NaN	1	4	0.0501030471703878	0	1	NaN	100	2	37	1	120	220	320	NaN	520	0.215208120644093	1	1	NaN	5703653.4835626	NaN	5703654.4668887	5703654.98341508
117	23	0	0	90	36.1581920903955	36.241610738255	7	0.233354492150247	2	7	6	NaN	2	4	0.0501030471703878	0	1	NaN	101	2	38	1	120	220	320	NaN	520	0.218216424807906	1	0	NaN	5703656.0002632	NaN	5703656.9837859	5703657.50033667
117	23	0	0	90	36.1581920903955	36.241610738255	20	0.666727120429277	2	11	3	NaN	2	4	0.0501030471703878	0	1	NaN	102	2	39	1	120	220	320	NaN	520	0.309352768585086	2	1	NaN	5703658.5173038	NaN	5703659.500702	5703660.01725103
117	23	0	0	90	36.1581920903955	36.241610738255	11	0.366699916236103	2	10	6	NaN	2	4	0.0501030471703878	0	1	NaN	103	2	40	1	120	220	320	NaN	520	0.308282973244786	2	1	NaN	5703661.1342225	NaN	5703662.117627	5703662.63417383
117	23	0	0	90	36.1581920903955	36.241610738255	11	0.366699916236103	2	11	5	NaN	2	5	0.0501030471703878	0	1	NaN	104	2	41	1	120	220	320	NaN	520	0.363192074000835	2	1	NaN	5703663.7511677	NaN	5703664.7345603	5703665.25109193
117	23	0	0	90	36.1581920903955	36.241610738255	17	0.566718052364886	2	2	2	NaN	1	3	0.0501030471703878	0	1	NaN	105	2	42	1	120	220	320	NaN	520	0.544448873028159	2	0	NaN	5703666.4181769	NaN	5703667.4014661	5703667.91802133
117	23	0	0	90	36.1581920903955	36.241610738255	8	0.266690848171711	2	1	6	NaN	1	5	0.0501030471703878	0	1	NaN	106	2	43	1	120	220	320	NaN	520	0.685634691268206	1	1	NaN	5703669.2850269	NaN	5703670.2684425	5703670.78497641
117	23	0	0	90	36.1581920903955	36.241610738255	15	0.500045340321958	2	5	3	NaN	1	3	0.0501030471703878	0	1	NaN	107	2	44	1	120	220	320	NaN	520	0.588706572540104	1	1	NaN	5703672.2853275	NaN	5703673.2687286	5703673.78526593
117	23	0	0	90	36.1581920903955	36.241610738255	12	0.400036272257566	2	3	1	NaN	1	3	0.0501030471703878	0	1	NaN	108	2	45	1	120	220	320	NaN	520	0.288651773706079	2	0	NaN	5703675.1855139	NaN	5703676.1689805	5703676.68555163
117	23	0	0	90	36.1581920903955	36.241610738255	25	0.833408900536597	2	4	4	NaN	1	3	0.0501030471703878	0	1	NaN	109	2	46	1	120	220	320	NaN	520	1.2082305252552	1	1	NaN	5703677.7857621	NaN	5703678.7692564	5703679.28581947
117	23	0	0	90	36.1581920903955	36.241610738255	17	0.566718052364886	2	6	5	NaN	1	5	0.0501030471703878	0	1	NaN	110	2	47	1	120	220	320	NaN	520	0.819529925473034	1	1	NaN	5703681.3028699	NaN	5703682.2862747	5703682.80282827
117	23	0	0	90	36.1581920903955	36.241610738255	20	0.666727120429277	2	4	2	NaN	1	5	0.0501030471703878	0	1	NaN	111	2	48	1	120	220	320	NaN	520	0.261732772924006	1	1	NaN	5703684.4363971	NaN	5703685.4199211	5703685.93645993
117	23	0	0	90	36.1581920903955	36.241610738255	6	0.200018136128783	2	5	5	NaN	1	5	0.0501030471703878	0	1	NaN	112	2	49	1	120	220	320	NaN	520	0.302778273820877	1	1	NaN	5703687.0033612	NaN	5703687.986841	5703688.50338173
117	23	0	0	90	36.1581920903955	36.241610738255	15	0.500045340321958	2	7	6	NaN	2	3	0.0501030471703878	0	1	NaN	113	2	50	1	120	220	320	NaN	520	0.0859467731788754	1	0	NaN	5703689.6203599	NaN	5703690.6037335	5703691.12031933
117	23	0	0	90	36.1581920903955	36.241610738255	22	0.733399832472205	2	6	4	NaN	1	5	0.0501030471703878	0	1	NaN	114	2	51	1	120	220	320	NaN	520	0.21364567335695	1	1	NaN	5703692.0205999	NaN	5703693.0040008	5703693.52054243
117	23	0	0	90	36.1581920903955	36.241610738255	6	0.200018136128783	2	9	3	NaN	2	3	0.0501030471703878	0	1	NaN	115	2	52	1	120	220	320	NaN	520	0.232023973949254	2	1	NaN	5703694.5541841	NaN	5703695.5375805	5703696.05412353
117	23	0	0	90	36.1581920903955	36.241610738255	7	0.233354492150247	2	4	6	NaN	1	3	0.0501030471703878	0	1	NaN	116	2	53	1	120	220	320	NaN	520	0.312304372899234	2	0	NaN	5703697.9378168	NaN	5703698.9212544	5703699.43779023
117	23	0	0	90	36.1581920903955	36.241610738255	17	0.566718052364886	2	4	6	NaN	1	5	0.0501030471703878	0	1	NaN	117	2	54	1	120	220	320	NaN	520	0.759434239007533	2	0	NaN	5703700.5547659	NaN	5703701.5381566	5703702.05471766
117	23	0	0	90	36.1581920903955	36.241610738255	18	0.60005440838635	2	4	4	NaN	1	5	0.0501030471703878	0	1	NaN	118	2	55	1	120	220	320	NaN	520	0.228870373219252	1	1	NaN	5703703.6217572	NaN	5703704.605165	5703705.12168533
117	23	0	0	90	36.1581920903955	36.241610738255	9	0.300027204193175	2	12	3	NaN	2	4	0.0501030471703878	0	1	NaN	119	2	56	1	120	220	320	NaN	520	0.27904197294265	2	1	NaN	5703706.1553198	NaN	5703707.1387217	5703707.65526903
117	23	0	0	90	36.1581920903955	36.241610738255	7	0.233354492150247	2	1	6	NaN	1	3	0.0501030471703878	0	1	NaN	120	2	57	1	120	220	320	NaN	520	0.31918472610414	2	0	NaN	5703708.7555962	NaN	5703709.7389912	5703710.25553167
117	23	0	0	90	36.1581920903955	36.241610738255	11	0.366699916236103	2	6	4	NaN	1	3	0.0501030471703878	0	1	NaN	121	2	58	1	120	220	320	NaN	520	0.173543773591518	1	1	NaN	5703711.3891738	NaN	5703712.37256	5703712.88911093
117	23	0	0	90	36.1581920903955	36.241610738255	9	0.300027204193175	2	7	6	NaN	2	4	0.0501030471703878	0	1	NaN	122	2	59	1	120	220	320	NaN	520	0.257680925540626	2	1	NaN	5703713.8726342	NaN	5703714.8561368	5703715.37270287
117	23	0	0	90	36.1581920903955	36.241610738255	13	0.43337262827903	2	12	3	NaN	2	5	0.0501030471703878	0	1	NaN	123	2	60	1	120	220	320	NaN	520	0.508343873545527	2	1	NaN	5703716.6062137	NaN	5703717.5897458	5703718.10629223
117	23	0	0	90	36.1581920903955	36.241610738255	21	0.700063476450741	2	11	4	NaN	2	5	0.0501030471703878	0	1	NaN	124	2	61	1	120	220	320	NaN	520	1.19482272490859	2	1	NaN	5703719.4233043	NaN	5703720.4066998	5703720.92324627
117	23	0	0	90	36.1581920903955	36.241610738255	14	0.466708984300494	2	11	1	NaN	2	5	0.0501030471703878	0	1	NaN	125	2	62	1	120	220	320	NaN	520	0.261986525729299	2	1	NaN	5703722.940303	NaN	5703723.9236928	5703724.44025137
117	23	0	0	90	36.1581920903955	36.241610738255	14	0.466708984300494	2	2	6	NaN	1	3	0.0501030471703878	0	1	NaN	126	2	63	1	120	220	320	NaN	520	0.254973916336894	1	1	NaN	5703725.5072157	NaN	5703726.4906328	5703727.00717798
117	23	0	0	90	36.1581920903955	36.241610738255	12	0.400036272257566	2	1	3	NaN	1	3	0.0501030471703878	0	1	NaN	127	3	1	1	120	220	320	NaN	520	0.879659526050091	1	1	NaN	5703730.0908862	NaN	5703731.0744216	5703731.59096137
117	23	0	0	90	36.1581920903955	36.241610738255	15	0.500045340321958	2	1	5	NaN	1	4	0.0501030471703878	0	1	NaN	128	3	2	1	120	220	320	NaN	520	0.223684669472277	1	1	NaN	5703733.274545	NaN	5703734.258106	5703734.77460513
117	23	0	0	90	36.1581920903955	36.241610738255	13	0.43337262827903	2	5	5	NaN	1	3	0.0501030471703878	0	1	NaN	129	3	3	1	120	220	320	NaN	520	0.210165073163807	1	1	NaN	5703735.8081224	NaN	5703736.7916447	5703737.30818643
117	23	0	0	90	36.1581920903955	36.241610738255	8	0.266690848171711	2	11	2	NaN	2	5	0.0501030471703878	0	1	NaN	130	3	4	1	120	220	320	NaN	520	0.372849225066602	2	1	NaN	5703738.341702	NaN	5703739.3252242	5703739.84177397
117	23	0	0	90	36.1581920903955	36.241610738255	10	0.333363560214639	2	6	3	NaN	1	5	0.0501030471703878	0	1	NaN	131	3	5	1	120	220	320	NaN	520	0.224922973662615	1	1	NaN	5703741.0254109	NaN	5703742.0087152	5703742.52536673
117	23	0	0	90	36.1581920903955	36.241610738255	23	0.766736188493669	2	4	5	NaN	1	4	0.0501030471703878	0	1	NaN	132	3	6	1	120	220	320	NaN	520	0.851395421661437	1	1	NaN	5703743.5588788	NaN	5703744.5424035	5703745.05895088
117	23	0	0	90	36.1581920903955	36.241610738255	17	0.566718052364886	2	2	6	NaN	1	3	0.0501030471703878	0	1	NaN	133	3	7	1	120	220	320	NaN	520	0.22052149195224	1	1	NaN	5703746.725971	NaN	5703747.70938	5703748.22592941
117	23	0	0	90	36.1581920903955	36.241610738255	20	0.666727120429277	2	9	3	NaN	2	3	0.0501030471703878	0	1	NaN	134	3	8	1	120	220	320	NaN	520	1.06278908718377	2	1	NaN	5703749.4595966	NaN	5703750.4429925	5703750.95953391
117	23	0	0	90	36.1581920903955	36.241610738255	8	0.266690848171711	2	8	4	NaN	2	3	0.0501030471703878	0	1	NaN	135	3	9	1	120	220	320	NaN	520	0.32816862501204	2	1	NaN	5703752.8265732	NaN	5703753.8099678	5703754.32653167
117	23	0	0	90	36.1581920903955	36.241610738255	6	0.200018136128783	2	8	3	NaN	2	5	0.0501030471703878	0	1	NaN	136	3	10	1	120	220	320	NaN	520	0.29402732104063	2	1	NaN	5703755.4600412	NaN	5703756.443578	5703756.96011858
117	23	0	0	90	36.1581920903955	36.241610738255	7	0.233354492150247	2	9	2	NaN	2	4	0.0501030471703878	0	1	NaN	137	3	11	1	120	220	320	NaN	520	0.0104076731950045	2	1	NaN	5703758.0603097	NaN	5703759.0438434	5703759.56037123
117	23	0	0	90	36.1581920903955	36.241610738255	21	0.700063476450741	2	4	1	NaN	1	3	0.0501030471703878	0	1	NaN	138	3	12	1	120	220	320	NaN	520	0.472976725548506	2	0	NaN	5703760.3771839	NaN	5703761.3607248	5703761.87726877
117	23	0	0	90	36.1581920903955	36.241610738255	15	0.500045340321958	2	11	6	NaN	2	5	0.0501030471703878	0	1	NaN	139	3	13	1	120	220	320	NaN	520	1.47339617274702	2	1	NaN	5703763.1609294	NaN	5703764.1443729	5703764.66087643
117	23	0	0	90	36.1581920903955	36.241610738255	22	0.733399832472205	2	11	5	NaN	2	4	0.0501030471703878	0	1	NaN	140	3	14	1	120	220	320	NaN	520	0.249694573692977	2	1	NaN	5703766.9444995	NaN	5703767.9280521	5703768.44457643
117	23	0	0	90	36.1581920903955	36.241610738255	6	0.200018136128783	2	7	4	NaN	2	3	0.0501030471703878	0	1	NaN	141	3	15	1	120	220	320	NaN	520	0.13104447349906	1	0	NaN	5703769.5114343	NaN	5703770.4949922	5703771.01149623
117	23	0	0	90	36.1581920903955	36.241610738255	17	0.566718052364886	2	7	5	NaN	2	4	0.0501030471703878	0	1	NaN	142	3	16	1	120	220	320	NaN	520	0.419291473925114	2	1	NaN	5703772.0951486	NaN	5703773.0785338	5703773.59508273
117	23	0	0	90	36.1581920903955	36.241610738255	14	0.466708984300494	2	5	2	NaN	1	5	0.0501030471703878	0	1	NaN	143	3	17	1	120	220	320	NaN	520	0.253508972935379	1	1	NaN	5703774.8287404	NaN	5703775.8121402	5703776.32868673
117	23	0	0	90	36.1581920903955	36.241610738255	24	0.800072544515133	2	8	3	NaN	2	4	0.0501030471703878	0	1	NaN	144	3	18	1	120	220	320	NaN	520	0.214664220809937	1	0	NaN	5703777.3956114	NaN	5703778.3790734	5703778.89560658
117	23	0	0	90	36.1581920903955	36.241610738255	16	0.533381696343422	2	12	5	NaN	2	3	0.0501030471703878	0	1	NaN	145	3	19	1	120	220	320	NaN	520	0.43430052511394	1	0	NaN	5703779.9124624	NaN	5703780.8960233	5703781.41252877
117	23	0	0	90	36.1581920903955	36.241610738255	11	0.366699916236103	2	12	6	NaN	2	3	0.0501030471703878	0	1	NaN	146	3	20	1	120	220	320	NaN	520	0.259616524912417	1	0	NaN	5703782.6629273	NaN	5703783.6462288	5703784.16280077
117	23	0	0	90	36.1581920903955	36.241610738255	22	0.733399832472205	2	12	3	NaN	2	4	0.0501030471703878	0	1	NaN	147	3	21	1	120	220	320	NaN	520	0.788999925367534	2	1	NaN	5703785.2297901	NaN	5703786.2131949	5703786.72971847
117	23	0	0	90	36.1581920903955	36.241610738255	6	0.200018136128783	2	1	3	NaN	1	3	0.0501030471703878	0	1	NaN	148	3	22	1	120	220	320	NaN	520	0.0103925252333283	1	1	NaN	5703788.329947	NaN	5703789.3134605	5703789.83001527
117	23	0	0	90	36.1581920903955	36.241610738255	12	0.400036272257566	2	9	5	NaN	2	5	0.0501030471703878	0	1	NaN	149	3	23	1	120	220	320	NaN	520	0.331306672655046	1	0	NaN	5703790.6636259	NaN	5703791.6470407	5703792.16357483
117	23	0	0	90	36.1581920903955	36.241610738255	17	0.566718052364886	2	1	1	NaN	1	4	0.0501030471703878	0	1	NaN	150	3	24	1	120	220	320	NaN	520	0.329586178064346	1	1	NaN	5703793.2972066	NaN	5703794.2806188	5703794.79718232
117	23	0	0	90	36.1581920903955	36.241610738255	24	0.800072544515133	2	2	4	NaN	1	5	0.0501030471703878	0	1	NaN	151	3	25	1	120	220	320	NaN	520	0.302956678904593	1	1	NaN	5703795.947485	NaN	5703796.9308687	5703797.44744232
117	23	0	0	90	36.1581920903955	36.241610738255	10	0.333363560214639	2	6	4	NaN	1	4	0.0501030471703878	0	1	NaN	152	3	26	1	120	220	320	NaN	520	0.390012673102319	1	1	NaN	5703798.5644075	NaN	5703799.5478066	5703800.06435243
117	23	0	0	90	36.1581920903955	36.241610738255	24	0.800072544515133	2	9	4	NaN	2	3	0.0501030471703878	0	1	NaN	153	3	27	1	120	220	320	NaN	520	0.553726673126221	1	0	NaN	5703801.2646705	NaN	5703802.2481044	5703802.76461973
117	23	0	0	90	36.1581920903955	36.241610738255	12	0.400036272257566	2	12	6	NaN	2	3	0.0501030471703878	0	1	NaN	154	3	28	1	120	220	320	NaN	520	0.302831873297691	2	1	NaN	5703804.1316265	NaN	5703805.1150069	5703805.63156653
117	23	0	0	90	36.1581920903955	36.241610738255	19	0.633390764407814	2	1	5	NaN	1	3	0.0501030471703878	0	1	NaN	155	3	29	1	120	220	320	NaN	520	0.302393972873688	1	1	NaN	5703806.7485434	NaN	5703807.731957	5703808.24849303
117	23	0	0	90	36.1581920903955	36.241610738255	6	0.200018136128783	2	11	6	NaN	2	5	0.0501030471703878	0	1	NaN	156	3	30	1	120	220	320	NaN	520	0.429007773287594	1	0	NaN	5703809.3653916	NaN	5703810.3489493	5703810.86541733
117	23	0	0	90	36.1581920903955	36.241610738255	11	0.366699916236103	2	6	6	NaN	1	3	0.0501030471703878	0	1	NaN	157	3	31	1	120	220	320	NaN	520	0.182780773378909	1	1	NaN	5703812.1157344	NaN	5703813.0991682	5703813.61569103
117	23	0	0	90	36.1581920903955	36.241610738255	23	0.766736188493669	2	4	3	NaN	1	5	0.0501030471703878	0	1	NaN	158	3	32	1	120	220	320	NaN	520	0.314437672495842	2	0	NaN	5703814.6159855	NaN	5703815.5993937	5703816.11593543
117	23	0	0	90	36.1581920903955	36.241610738255	23	0.766736188493669	2	12	1	NaN	2	3	0.0501030471703878	0	1	NaN	159	3	33	1	120	220	320	NaN	520	0.26518162060529	2	1	NaN	5703817.2494533	NaN	5703818.2329857	5703818.74952548
117	23	0	0	90	36.1581920903955	36.241610738255	22	0.733399832472205	2	2	1	NaN	1	4	0.0501030471703878	0	1	NaN	160	3	34	1	120	220	320	NaN	520	0.537678472697735	2	0	NaN	5703819.8331731	NaN	5703820.8165681	5703821.33311773
117	23	0	0	90	36.1581920903955	36.241610738255	21	0.700063476450741	2	5	3	NaN	1	3	0.0501030471703878	0	1	NaN	161	3	35	1	120	220	320	NaN	520	0.447469172999263	2	0	NaN	5703822.6834353	NaN	5703823.6668547	5703824.18339823
117	23	0	0	90	36.1581920903955	36.241610738255	17	0.566718052364886	2	12	2	NaN	2	3	0.0501030471703878	0	1	NaN	162	3	36	1	120	220	320	NaN	520	0.728458125144243	2	1	NaN	5703825.450383	NaN	5703826.433812	5703826.95034217
117	23	0	0	90	36.1581920903955	36.241610738255	25	0.833408900536597	2	9	6	NaN	2	3	0.0501030471703878	0	1	NaN	163	3	37	1	120	220	320	NaN	520	0.598103073425591	2	1	NaN	5703828.5006844	NaN	5703829.48411	5703830.00063223
117	23	0	0	90	36.1581920903955	36.241610738255	0	0	1	5	6	NaN	1	3	0.0501030471703878	0	1	NaN	164	3	38	1	110	210	310	NaN	510	1.14602627325803	1	1	NaN	5703831.4008415	NaN	5703832.3843657	5703832.90091393
117	23	0	0	90	36.1581920903955	36.241610738255	7	0.233354492150247	2	3	6	NaN	1	5	0.0501030471703878	0	1	NaN	165	3	39	1	120	220	320	NaN	520	0.262951068580151	1	1	NaN	5703834.8679482	NaN	5703835.8513808	5703836.36794203
117	23	0	0	90	36.1581920903955	36.241610738255	7	0.233354492150247	2	5	5	NaN	1	3	0.0501030471703878	0	1	NaN	166	3	40	1	120	220	320	NaN	520	0.438775774091482	1	1	NaN	5703837.4515692	NaN	5703838.4349633	5703838.95150863
117	23	0	0	90	36.1581920903955	36.241610738255	11	0.366699916236103	2	8	2	NaN	2	4	0.0501030471703878	0	1	NaN	167	3	41	1	120	220	320	NaN	520	0.296986573375762	1	0	NaN	5703840.2018302	NaN	5703841.1852206	5703841.70178173
117	23	0	0	90	36.1581920903955	36.241610738255	24	0.800072544515133	2	5	6	NaN	1	5	0.0501030471703878	0	1	NaN	168	3	42	1	120	220	320	NaN	520	0.392371226102114	2	0	NaN	5703842.8020907	NaN	5703843.7854787	5703844.30204777
117	23	0	0	90	36.1581920903955	36.241610738255	7	0.233354492150247	2	3	5	NaN	1	3	0.0501030471703878	0	1	NaN	169	3	43	1	120	220	320	NaN	520	0.324108879081905	2	0	NaN	5703845.5022376	NaN	5703846.4857483	5703847.00233132
117	23	0	0	90	36.1581920903955	36.241610738255	12	0.400036272257566	2	7	1	NaN	2	4	0.0501030471703878	0	1	NaN	170	3	44	1	120	220	320	NaN	520	0.274547721259296	1	0	NaN	5703848.1358512	NaN	5703849.1194817	5703849.63590258
117	23	0	0	90	36.1581920903955	36.241610738255	20	0.666727120429277	2	7	3	NaN	2	3	0.0501030471703878	0	1	NaN	171	3	45	1	120	220	320	NaN	520	0.17110473010689	2	1	NaN	5703850.7195332	NaN	5703851.7029564	5703852.21949467
117	23	0	0	90	36.1581920903955	36.241610738255	22	0.733399832472205	2	10	4	NaN	2	3	0.0501030471703878	0	1	NaN	172	3	46	1	120	220	320	NaN	520	0.839811325073242	2	1	NaN	5703853.2029839	NaN	5703854.1866048	5703854.70307077
117	23	0	0	90	36.1581920903955	36.241610738255	13	0.43337262827903	2	8	2	NaN	2	5	0.0501030471703878	0	1	NaN	173	3	47	1	120	220	320	NaN	520	0.225056025199592	2	1	NaN	5703856.3535134	NaN	5703857.3368361	5703857.85337497
117	23	0	0	90	36.1581920903955	36.241610738255	23	0.766736188493669	2	11	1	NaN	2	3	0.0501030471703878	0	1	NaN	174	3	48	1	120	220	320	NaN	520	0.227503943257034	2	1	NaN	5703858.8869974	NaN	5703859.8703874	5703860.38696146
117	23	0	0	90	36.1581920903955	36.241610738255	20	0.666727120429277	2	1	6	NaN	1	4	0.0501030471703878	0	1	NaN	175	3	49	1	120	220	320	NaN	520	0.74226632155478	2	0	NaN	5703861.4205917	NaN	5703862.4039962	5703862.92054298
117	23	0	0	90	36.1581920903955	36.241610738255	17	0.566718052364886	2	11	5	NaN	2	3	0.0501030471703878	0	1	NaN	176	3	50	1	120	220	320	NaN	520	0.323730625212193	2	1	NaN	5703864.4708701	NaN	5703865.4543	5703865.97083528
117	23	0	0	90	36.1581920903955	36.241610738255	0	0	1	9	6	NaN	2	3	0.0501030471703878	0	1	NaN	177	3	51	1	110	210	310	NaN	510	0.305966973304749	2	1	NaN	5703867.1044856	NaN	5703868.0878887	5703868.60442673
117	23	0	0	90	36.1581920903955	36.241610738255	10	0.333363560214639	2	12	4	NaN	2	3	0.0501030471703878	0	1	NaN	178	3	52	1	120	220	320	NaN	520	0.225262872874737	1	0	NaN	5703869.7214038	NaN	5703870.7047879	5703871.22134773
117	23	0	0	90	36.1581920903955	36.241610738255	22	0.733399832472205	2	5	5	NaN	1	5	0.0501030471703878	0	1	NaN	179	3	53	1	120	220	320	NaN	520	0.260080873034894	1	1	NaN	5703872.2549879	NaN	5703873.2384089	5703873.75493653
117	23	0	0	90	36.1581920903955	36.241610738255	0	0	1	3	4	NaN	1	3	0.0501030471703878	0	1	NaN	180	3	54	1	110	210	310	NaN	510	0.731895473785698	1	1	NaN	5703874.83858	NaN	5703875.8219791	5703876.33851963
117	23	0	0	90	36.1581920903955	36.241610738255	14	0.466708984300494	2	7	5	NaN	2	3	0.0501030471703878	0	1	NaN	181	3	55	1	120	220	320	NaN	520	0.170088373124599	2	1	NaN	5703877.8888828	NaN	5703878.8722838	5703879.38882413
117	23	0	0	90	36.1581920903955	36.241610738255	11	0.366699916236103	2	1	4	NaN	1	5	0.0501030471703878	0	1	NaN	182	3	56	1	120	220	320	NaN	520	0.21444789133966	1	1	NaN	5703880.372452	NaN	5703881.3558497	5703881.87240171
117	23	0	0	90	36.1581920903955	36.241610738255	23	0.766736188493669	2	1	1	NaN	1	5	0.0501030471703878	0	1	NaN	183	3	57	1	120	220	320	NaN	520	0.408631172962487	1	1	NaN	5703882.9060376	NaN	5703883.889441	5703884.40598333
117	23	0	0	90	36.1581920903955	36.241610738255	0	0	1	7	5	NaN	2	3	0.0501030471703878	0	1	NaN	184	3	58	1	110	210	310	NaN	510	0.331623521633446	1	0	NaN	5703885.6228549	NaN	5703886.6063682	5703887.12292238
117	23	0	0	90	36.1581920903955	36.241610738255	18	0.60005440838635	2	12	3	NaN	2	4	0.0501030471703878	0	1	NaN	185	3	59	1	120	220	320	NaN	520	1.00951397325844	1	0	NaN	5703888.2732248	NaN	5703889.2566414	5703889.77317183
117	23	0	0	90	36.1581920903955	36.241610738255	20	0.666727120429277	2	6	2	NaN	1	5	0.0501030471703878	0	1	NaN	186	3	60	1	120	220	320	NaN	520	0.228374125435948	1	1	NaN	5703891.590237	NaN	5703892.573621	5703893.09017097
117	23	0	0	90	36.1581920903955	36.241610738255	12	0.400036272257566	2	12	2	NaN	2	4	0.0501030471703878	0	1	NaN	187	3	61	1	120	220	320	NaN	520	0.21461277268827	2	1	NaN	5703894.1237947	NaN	5703895.1072083	5703895.62375033
117	23	0	0	90	36.1581920903955	36.241610738255	19	0.633390764407814	2	11	4	NaN	2	3	0.0501030471703878	0	1	NaN	188	3	62	1	120	220	320	NaN	520	0.329182125627995	2	1	NaN	5703896.6573049	NaN	5703897.6407892	5703898.15733807
117	23	0	0	90	36.1581920903955	36.241610738255	7	0.233354492150247	2	8	6	NaN	2	4	0.0501030471703878	0	1	NaN	189	3	63	1	120	220	320	NaN	520	0.526921173557639	2	1	NaN	5703899.307505	NaN	5703900.2910501	5703900.80761433
117	23	0	0	90	36.1581920903955	36.241610738255	13	0.43337262827903	2	3	6	NaN	1	4	0.0501030471703878	0	1	NaN	190	4	1	1	120	220	320	NaN	520	0.23957009986043	1	1	NaN	5703904.6907906	NaN	5703905.6742375	5703906.1909195
117	23	0	0	90	36.1581920903955	36.241610738255	0	0	1	1	2	NaN	1	5	0.0501030471703878	0	1	NaN	191	4	2	1	110	210	310	NaN	510	0.257152525708079	1	1	NaN	5703907.2415065	NaN	5703908.2249892	5703908.74170947
117	23	0	0	90	36.1581920903955	36.241610738255	0	0	1	5	4	NaN	1	5	0.0501030471703878	0	1	NaN	192	4	3	1	110	210	310	NaN	510	0.0897699827328324	1	1	NaN	5703909.8086844	NaN	5703910.7920757	5703911.30863702
117	23	0	0	90	36.1581920903955	36.241610738255	22	0.733399832472205	2	2	2	NaN	1	5	0.0501030471703878	0	1	NaN	193	4	4	1	120	220	320	NaN	520	1.16177737340331	2	0	NaN	5703912.2088342	NaN	5703913.19232	5703913.70885983
117	23	0	0	90	36.1581920903955	36.241610738255	19	0.633390764407814	2	6	6	NaN	1	4	0.0501030471703878	0	1	NaN	194	4	5	1	120	220	320	NaN	520	0.125960073433816	1	1	NaN	5703915.6925801	NaN	5703916.6759721	5703917.19253853
117	23	0	0	90	36.1581920903955	36.241610738255	6	0.200018136128783	2	8	1	NaN	2	5	0.0501030471703878	0	1	NaN	195	4	6	1	120	220	320	NaN	520	0.172398842871189	1	0	NaN	5703918.1261649	NaN	5703919.1095747	5703919.62612466
117	23	0	0	90	36.1581920903955	36.241610738255	8	0.266690848171711	2	12	1	NaN	2	4	0.0501030471703878	0	1	NaN	196	4	7	1	120	220	320	NaN	520	0.176782539114356	2	1	NaN	5703920.6097439	NaN	5703921.5931567	5703922.10969136
117	23	0	0	90	36.1581920903955	36.241610738255	25	0.833408900536597	2	9	2	NaN	2	5	0.0501030471703878	0	1	NaN	197	4	8	1	120	220	320	NaN	520	0.261210825294256	1	0	NaN	5703923.0933237	NaN	5703924.0767107	5703924.59327077
117	23	0	0	90	36.1581920903955	36.241610738255	9	0.300027204193175	2	8	3	NaN	2	4	0.0501030471703878	0	1	NaN	198	4	9	1	120	220	320	NaN	520	0.213664221577346	2	1	NaN	5703925.676899	NaN	5703926.6603105	5703927.17684948
117	23	0	0	90	36.1581920903955	36.241610738255	8	0.266690848171711	2	5	4	NaN	1	5	0.0501030471703878	0	1	NaN	199	4	10	1	120	220	320	NaN	520	0.344197973608971	1	1	NaN	5703928.2104887	NaN	5703929.1938901	5703929.71043203
117	23	0	0	90	36.1581920903955	36.241610738255	20	0.666727120429277	2	8	5	NaN	2	5	0.0501030471703878	0	1	NaN	200	4	11	1	120	220	320	NaN	520	0.318320420570672	1	0	NaN	5703930.8607461	NaN	5703931.8441603	5703932.36069478
117	23	0	0	90	36.1581920903955	36.241610738255	19	0.633390764407814	2	2	2	NaN	1	3	0.0501030471703878	0	1	NaN	201	4	12	1	120	220	320	NaN	520	0.244277573190629	1	1	NaN	5703933.4942166	NaN	5703934.4777476	5703934.99428663
117	23	0	0	90	36.1581920903955	36.241610738255	15	0.500045340321958	2	2	1	NaN	1	4	0.0501030471703878	0	1	NaN	202	4	13	1	120	220	320	NaN	520	0.158468272536993	1	1	NaN	5703936.0445954	NaN	5703937.0280011	5703937.54453523
117	23	0	0	90	36.1581920903955	36.241610738255	12	0.400036272257566	2	7	5	NaN	2	4	0.0501030471703878	0	1	NaN	203	4	14	1	120	220	320	NaN	520	0.306479073129594	1	0	NaN	5703938.528165	NaN	5703939.5115695	5703940.02811263
117	23	0	0	90	36.1581920903955	36.241610738255	16	0.533381696343422	2	9	4	NaN	2	3	0.0501030471703878	0	1	NaN	204	4	15	1	120	220	320	NaN	520	0.929763873107731	1	0	NaN	5703941.1450893	NaN	5703942.1285	5703942.64504323
117	23	0	0	90	36.1581920903955	36.241610738255	16	0.533381696343422	2	6	4	NaN	1	4	0.0501030471703878	0	1	NaN	205	4	16	1	120	220	320	NaN	520	0.583259273320436	1	1	NaN	5703944.3954157	NaN	5703945.3788134	5703945.89536203
117	23	0	0	90	36.1581920903955	36.241610738255	22	0.733399832472205	2	3	3	NaN	1	5	0.0501030471703878	0	1	NaN	206	4	17	1	120	220	320	NaN	520	0.252045168541372	2	0	NaN	5703947.2789094	NaN	5703948.2624805	5703948.77898033
117	23	0	0	90	36.1581920903955	36.241610738255	17	0.566718052364886	2	3	1	NaN	1	4	0.0501030471703878	0	1	NaN	207	4	18	1	120	220	320	NaN	520	0.357124872505665	2	0	NaN	5703949.8459458	NaN	5703950.8293429	5703951.34589763
117	23	0	0	90	36.1581920903955	36.241610738255	15	0.500045340321958	2	10	4	NaN	2	5	0.0501030471703878	0	1	NaN	208	4	19	1	120	220	320	NaN	520	0.233777672983706	2	1	NaN	5703952.5128704	NaN	5703953.4962838	5703954.01282473
117	23	0	0	90	36.1581920903955	36.241610738255	12	0.400036272257566	2	5	3	NaN	1	5	0.0501030471703878	0	1	NaN	209	4	20	1	120	220	320	NaN	520	0.259436125867069	1	1	NaN	5703955.0631205	NaN	5703956.0465341	5703956.56308517
117	23	0	0	90	36.1581920903955	36.241610738255	10	0.333363560214639	2	4	4	NaN	1	4	0.0501030471703878	0	1	NaN	210	4	21	1	120	220	320	NaN	520	0.227905573323369	1	1	NaN	5703957.6467179	NaN	5703958.630127	5703959.14666583
117	23	0	0	90	36.1581920903955	36.241610738255	21	0.700063476450741	2	9	4	NaN	2	4	0.0501030471703878	0	1	NaN	211	4	22	1	120	220	320	NaN	520	2.03025909140706	1	0	NaN	5703960.1803028	NaN	5703961.1636947	5703961.68025321
117	23	0	0	90	36.1581920903955	36.241610738255	25	0.833408900536597	2	12	1	NaN	2	3	0.0501030471703878	0	1	NaN	212	4	23	1	120	220	320	NaN	520	0.239858321845531	2	1	NaN	5703964.5307217	NaN	5703965.5141344	5703966.03067218
117	23	0	0	90	36.1581920903955	36.241610738255	7	0.233354492150247	2	7	6	NaN	2	4	0.0501030471703878	0	1	NaN	213	4	24	1	120	220	320	NaN	520	0.170115472748876	2	1	NaN	5703967.0809903	NaN	5703968.0642746	5703968.58093193
117	23	0	0	90	36.1581920903955	36.241610738255	22	0.733399832472205	2	5	4	NaN	1	4	0.0501030471703878	0	1	NaN	214	4	25	1	120	220	320	NaN	520	0.757942224852741	2	0	NaN	5703969.5645498	NaN	5703970.5479817	5703971.06451157
117	23	0	0	90	36.1581920903955	36.241610738255	19	0.633390764407814	2	6	5	NaN	1	4	0.0501030471703878	0	1	NaN	215	4	26	1	120	220	320	NaN	520	0.314566225744784	1	1	NaN	5703972.6481965	NaN	5703973.6316081	5703974.14814787
117	23	0	0	90	36.1581920903955	36.241610738255	24	0.800072544515133	2	11	6	NaN	2	3	0.0501030471703878	0	1	NaN	216	4	27	1	120	220	320	NaN	520	0.0104073733091354	2	1	NaN	5703975.2816701	NaN	5703976.2651889	5703976.78173073
117	23	0	0	90	36.1581920903955	36.241610738255	6	0.200018136128783	2	6	5	NaN	1	3	0.0501030471703878	0	1	NaN	217	4	28	1	120	220	320	NaN	520	0.811633072793484	2	0	NaN	5703977.6153512	NaN	5703978.5987503	5703979.11528953
117	23	0	0	90	36.1581920903955	36.241610738255	7	0.233354492150247	2	1	1	NaN	1	5	0.0501030471703878	0	1	NaN	218	4	29	1	120	220	320	NaN	520	0.189691878855228	1	1	NaN	5703980.7490092	NaN	5703981.7323984	5703982.24894222
117	23	0	0	90	36.1581920903955	36.241610738255	7	0.233354492150247	2	10	5	NaN	2	4	0.0501030471703878	0	1	NaN	219	4	30	1	120	220	320	NaN	520	0.265264125540853	1	0	NaN	5703983.2492385	NaN	5703984.2326295	5703984.74918467
117	23	0	0	90	36.1581920903955	36.241610738255	13	0.43337262827903	2	4	5	NaN	1	4	0.0501030471703878	0	1	NaN	220	4	31	1	120	220	320	NaN	520	0.162338273599744	1	1	NaN	5703985.8328249	NaN	5703986.8162297	5703987.33276333
117	23	0	0	90	36.1581920903955	36.241610738255	8	0.266690848171711	2	2	3	NaN	1	5	0.0501030471703878	0	1	NaN	221	4	32	1	120	220	320	NaN	520	0.310273330658674	1	1	NaN	5703988.3163972	NaN	5703989.2998041	5703989.81635207
117	23	0	0	90	36.1581920903955	36.241610738255	16	0.533381696343422	2	10	2	NaN	2	5	0.0501030471703878	0	1	NaN	222	4	33	1	120	220	320	NaN	520	0.165774196386337	2	1	NaN	5703990.9333209	NaN	5703991.9167262	5703992.4332755
117	23	0	0	90	36.1581920903955	36.241610738255	20	0.666727120429277	2	10	1	NaN	2	5	0.0501030471703878	0	1	NaN	223	4	34	1	120	220	320	NaN	520	0.137839472852647	2	1	NaN	5703993.4169237	NaN	5703994.4002966	5703994.91684173
117	23	0	0	90	36.1581920903955	36.241610738255	22	0.733399832472205	2	12	2	NaN	2	4	0.0501030471703878	0	1	NaN	224	4	35	1	120	220	320	NaN	520	0.12001977302134	2	1	NaN	5703995.867136	NaN	5703996.8505313	5703997.36708763
117	23	0	0	90	36.1581920903955	36.241610738255	20	0.666727120429277	2	9	1	NaN	2	5	0.0501030471703878	0	1	NaN	225	4	36	1	120	220	320	NaN	520	0.341192420572042	1	0	NaN	5703998.3172769	NaN	5703999.3008085	5703999.81733138
117	23	0	0	90	36.1581920903955	36.241610738255	16	0.533381696343422	2	12	3	NaN	2	5	0.0501030471703878	0	1	NaN	226	4	37	1	120	220	320	NaN	520	0.40291094314307	1	0	NaN	5704000.9843179	NaN	5704001.9677819	5704002.48428856
117	23	0	0	90	36.1581920903955	36.241610738255	18	0.60005440838635	2	3	5	NaN	1	4	0.0501030471703878	0	1	NaN	227	4	38	1	120	220	320	NaN	520	1.45345758274198	2	0	NaN	5704003.7012561	NaN	5704004.6846201	5704005.20119182
117	23	0	0	90	36.1581920903955	36.241610738255	10	0.333363560214639	2	12	4	NaN	2	4	0.0501030471703878	0	1	NaN	228	4	39	1	120	220	320	NaN	520	0.285598172806203	2	1	NaN	5704007.4849587	NaN	5704008.4683149	5704008.98490073
117	23	0	0	90	36.1581920903955	36.241610738255	18	0.60005440838635	2	7	2	NaN	2	5	0.0501030471703878	0	1	NaN	229	4	40	1	120	220	320	NaN	520	0.156952925026417	2	1	NaN	5704010.1019093	NaN	5704011.0853141	5704011.60182657
117	23	0	0	90	36.1581920903955	36.241610738255	17	0.566718052364886	2	8	4	NaN	2	4	0.0501030471703878	0	1	NaN	230	4	41	1	120	220	320	NaN	520	0.476908935233951	2	1	NaN	5704012.5848712	NaN	5704013.5734707	5704014.08541217
117	23	0	0	90	36.1581920903955	36.241610738255	13	0.43337262827903	2	12	4	NaN	2	4	0.0501030471703878	0	1	NaN	231	4	42	1	120	220	320	NaN	520	0.180193025618792	1	0	NaN	5704015.5023162	NaN	5704016.485826	5704017.00235567
117	23	0	0	90	36.1581920903955	36.241610738255	19	0.633390764407814	2	3	1	NaN	1	5	0.0501030471703878	0	1	NaN	232	4	43	1	120	220	320	NaN	520	0.344116973690689	2	0	NaN	5704018.0025343	NaN	5704018.9860995	5704019.50260133
117	23	0	0	90	36.1581920903955	36.241610738255	22	0.733399832472205	2	7	3	NaN	2	5	0.0501030471703878	0	1	NaN	233	4	44	1	120	220	320	NaN	520	0.220929499715567	2	1	NaN	5704020.6694713	NaN	5704021.6529559	5704022.1695438
117	23	0	0	90	36.1581920903955	36.241610738255	20	0.666727120429277	2	2	6	NaN	1	4	0.0501030471703878	0	1	NaN	234	4	45	1	120	220	320	NaN	520	0.3511250205338	1	1	NaN	5704023.2198511	NaN	5704024.203227	5704024.71977628
117	23	0	0	90	36.1581920903955	36.241610738255	15	0.500045340321958	2	6	5	NaN	1	4	0.0501030471703878	0	1	NaN	235	4	46	1	120	220	320	NaN	520	0.732006574049592	2	0	NaN	5704025.8867958	NaN	5704026.8701828	5704027.38671163
117	23	0	0	90	36.1581920903955	36.241610738255	25	0.833408900536597	2	5	1	NaN	1	4	0.0501030471703878	0	1	NaN	236	4	47	1	120	220	320	NaN	520	0.169410743750632	1	1	NaN	5704028.936952	NaN	5704029.92043	5704030.43703486
117	23	0	0	90	36.1581920903955	36.241610738255	9	0.300027204193175	2	8	1	NaN	2	5	0.0501030471703878	0	1	NaN	237	4	48	1	120	220	320	NaN	520	0.213479825295508	2	1	NaN	5704031.4373363	NaN	5704032.4207297	5704032.93725517
117	23	0	0	90	36.1581920903955	36.241610738255	16	0.533381696343422	2	5	6	NaN	1	3	0.0501030471703878	0	1	NaN	238	4	49	1	120	220	320	NaN	520	0.207808925770223	2	0	NaN	5704033.9707726	NaN	5704034.954379	5704035.47083997
117	23	0	0	90	36.1581920903955	36.241610738255	21	0.700063476450741	2	10	4	NaN	2	4	0.0501030471703878	0	1	NaN	239	4	50	1	120	220	320	NaN	520	0.298180220648646	2	1	NaN	5704036.5045195	NaN	5704037.4879898	5704038.00442178
117	23	0	0	90	36.1581920903955	36.241610738255	12	0.400036272257566	2	6	1	NaN	1	4	0.0501030471703878	0	1	NaN	240	4	51	1	120	220	320	NaN	520	0.34523999132216	1	1	NaN	5704039.121407	NaN	5704040.1047916	5704040.62133831
117	23	0	0	90	36.1581920903955	36.241610738255	10	0.333363560214639	2	2	5	NaN	1	4	0.0501030471703878	0	1	NaN	241	4	52	1	120	220	320	NaN	520	0.318477673456073	2	0	NaN	5704041.7883407	NaN	5704042.7717243	5704043.28826433
117	23	0	0	90	36.1581920903955	36.241610738255	20	0.666727120429277	2	3	4	NaN	1	3	0.0501030471703878	0	1	NaN	242	4	53	1	120	220	320	NaN	520	0.413284073583782	2	0	NaN	5704044.4219141	NaN	5704045.4053116	5704045.92185613
117	23	0	0	90	36.1581920903955	36.241610738255	14	0.466708984300494	2	7	6	NaN	2	3	0.0501030471703878	0	1	NaN	243	4	54	1	120	220	320	NaN	520	0.263238273561001	2	1	NaN	5704047.1555828	NaN	5704048.1389102	5704048.65545743
117	23	0	0	90	36.1581920903955	36.241610738255	15	0.500045340321958	2	4	2	NaN	1	4	0.0501030471703878	0	1	NaN	244	4	55	1	120	220	320	NaN	520	0.239844321273267	1	1	NaN	5704049.739104	NaN	5704050.7225071	5704051.23904598
117	23	0	0	90	36.1581920903955	36.241610738255	25	0.833408900536597	2	5	1	NaN	1	5	0.0501030471703878	0	1	NaN	245	4	56	1	120	220	320	NaN	520	0.913486773148179	1	1	NaN	5704052.2893482	NaN	5704053.2727513	5704053.78929493
117	23	0	0	90	36.1581920903955	36.241610738255	0	0	1	4	1	NaN	1	4	0.0501030471703878	0	1	NaN	246	4	57	1	110	210	310	NaN	510	0.223726825788617	2	0	NaN	5704055.5229378	NaN	5704056.506407	5704057.02295837
117	23	0	0	90	36.1581920903955	36.241610738255	10	0.333363560214639	2	5	5	NaN	1	4	0.0501030471703878	0	1	NaN	247	4	58	1	120	220	320	NaN	520	0.490103625692427	1	1	NaN	5704058.0565922	NaN	5704059.0399842	5704059.55653907
117	23	0	0	90	36.1581920903955	36.241610738255	21	0.700063476450741	2	3	4	NaN	1	5	0.0501030471703878	0	1	NaN	248	4	59	1	120	220	320	NaN	520	0.24212132114917	2	0	NaN	5704060.856885	NaN	5704061.8402612	5704062.35680378
117	23	0	0	90	36.1581920903955	36.241610738255	18	0.60005440838635	2	9	4	NaN	2	3	0.0501030471703878	0	1	NaN	249	4	60	1	120	220	320	NaN	520	0.196165025234222	2	1	NaN	5704063.407112	NaN	5704064.390607	5704064.90706357
117	23	0	0	90	36.1581920903955	36.241610738255	7	0.233354492150247	2	12	4	NaN	2	5	0.0501030471703878	0	1	NaN	250	4	61	1	120	220	320	NaN	520	0.263486473821104	2	1	NaN	5704065.9072122	NaN	5704066.8907572	5704067.40730183
117	23	0	0	90	36.1581920903955	36.241610738255	20	0.666727120429277	2	5	4	NaN	1	4	0.0501030471703878	0	1	NaN	251	4	62	1	120	220	320	NaN	520	0.079916724935174	1	1	NaN	5704068.4909578	NaN	5704069.4743421	5704069.99090088
117	23	0	0	90	36.1581920903955	36.241610738255	8	0.266690848171711	2	7	4	NaN	2	5	0.0501030471703878	0	1	NaN	252	4	63	1	120	220	320	NaN	520	0.255651173181832	2	1	NaN	5704070.8911829	NaN	5704071.8745693	5704072.39113653
117	23	0	0	90	36.1581920903955	36.241610738255	11	0.366699916236103	2	1	3	NaN	1	5	0.0501030471703878	0	1	NaN	253	5	1	1	120	220	320	NaN	520	0.984909725375473	2	0	NaN	5704091.6098914	NaN	5704092.5931727	5704093.10983207
117	23	0	0	90	36.1581920903955	36.241610738255	19	0.633390764407814	2	12	4	NaN	2	4	0.0501030471703878	0	1	NaN	254	5	2	1	120	220	320	NaN	520	0.516874573193491	2	1	NaN	5704094.9102047	NaN	5704095.8936113	5704096.41015063
117	23	0	0	90	36.1581920903955	36.241610738255	23	0.766736188493669	2	8	4	NaN	2	5	0.0501030471703878	0	1	NaN	255	5	3	1	120	220	320	NaN	520	0.211025125347078	1	0	NaN	5704097.7436565	NaN	5704098.7272165	5704099.24377617
117	23	0	0	90	36.1581920903955	36.241610738255	24	0.800072544515133	2	8	4	NaN	2	3	0.0501030471703878	0	1	NaN	256	5	4	1	120	220	320	NaN	520	0.198167773894966	1	0	NaN	5704100.2607329	NaN	5704101.2441215	5704101.76067813
117	23	0	0	90	36.1581920903955	36.241610738255	19	0.633390764407814	2	5	3	NaN	1	3	0.0501030471703878	0	1	NaN	257	5	5	1	120	220	320	NaN	520	0.145657521672547	1	1	NaN	5704102.7776364	NaN	5704103.7610472	5704104.27758998
117	23	0	0	90	36.1581920903955	36.241610738255	12	0.400036272257566	2	2	5	NaN	1	3	0.0501030471703878	0	1	NaN	258	5	6	1	120	220	320	NaN	520	0.0102870920673013	1	1	NaN	5704105.244532	NaN	5704106.2279695	5704106.74450831
117	23	0	0	90	36.1581920903955	36.241610738255	14	0.466708984300494	2	8	3	NaN	2	5	0.0501030471703878	0	1	NaN	259	5	7	1	120	220	320	NaN	520	0.136718673631549	2	1	NaN	5704107.5781153	NaN	5704108.5615234	5704109.07806613
117	23	0	0	90	36.1581920903955	36.241610738255	8	0.266690848171711	2	3	1	NaN	1	4	0.0501030471703878	0	1	NaN	260	5	8	1	120	220	320	NaN	520	0.870623573660851	1	1	NaN	5704110.0282319	NaN	5704111.0117591	5704111.52830343
117	23	0	0	90	36.1581920903955	36.241610738255	21	0.700063476450741	2	7	4	NaN	2	5	0.0501030471703878	0	1	NaN	261	5	9	1	120	220	320	NaN	520	0.0947623308748007	1	0	NaN	5704113.212022	NaN	5704114.1954076	5704114.71195257
117	23	0	0	90	36.1581920903955	36.241610738255	23	0.766736188493669	2	3	6	NaN	1	4	0.0501030471703878	0	1	NaN	262	5	10	1	120	220	320	NaN	520	1.48682687338442	1	1	NaN	5704115.6121758	NaN	5704116.595694	5704117.11218653
117	23	0	0	90	36.1581920903955	36.241610738255	8	0.266690848171711	2	6	6	NaN	1	5	0.0501030471703878	0	1	NaN	263	5	11	1	120	220	320	NaN	520	0.222264473326504	1	1	NaN	5704119.4126259	NaN	5704120.3960209	5704120.91256313
117	23	0	0	90	36.1581920903955	36.241610738255	7	0.233354492150247	2	4	1	NaN	1	3	0.0501030471703878	0	1	NaN	264	5	12	1	120	220	320	NaN	520	0.176772025413811	2	0	NaN	5704121.9461763	NaN	5704122.9296069	5704123.44615177
117	23	0	0	90	36.1581920903955	36.241610738255	22	0.733399832472205	2	10	3	NaN	2	3	0.0501030471703878	0	1	NaN	265	5	13	1	120	220	320	NaN	520	0.253056173212826	2	1	NaN	5704124.4297673	NaN	5704125.4131919	5704125.92972333
117	23	0	0	90	36.1581920903955	36.241610738255	0	0	1	2	3	NaN	1	5	0.0501030471703878	0	1	NaN	266	5	14	1	110	210	310	NaN	510	0.102248273789883	2	0	NaN	5704126.9965745	NaN	5704127.980095	5704128.49663633
117	23	0	0	90	36.1581920903955	36.241610738255	19	0.633390764407814	2	12	1	NaN	2	5	0.0501030471703878	0	1	NaN	267	5	15	1	120	220	320	NaN	520	0.509393773041666	2	1	NaN	5704129.4136006	NaN	5704130.3970013	5704130.91354383
117	23	0	0	90	36.1581920903955	36.241610738255	16	0.533381696343422	2	11	2	NaN	2	3	0.0501030471703878	0	1	NaN	268	5	16	1	120	220	320	NaN	520	0.132423325441778	1	0	NaN	5704132.2305438	NaN	5704133.2139439	5704133.73049397
117	23	0	0	90	36.1581920903955	36.241610738255	24	0.800072544515133	2	4	2	NaN	1	4	0.0501030471703878	0	1	NaN	269	5	17	1	120	220	320	NaN	520	0.282147224992514	1	1	NaN	5704134.6807939	NaN	5704135.6641878	5704136.18075407
117	23	0	0	90	36.1581920903955	36.241610738255	18	0.60005440838635	2	10	3	NaN	2	5	0.0501030471703878	0	1	NaN	270	5	18	1	120	220	320	NaN	520	0.36227192543447	1	0	NaN	5704137.2810052	NaN	5704138.2644376	5704138.78098407
117	23	0	0	90	36.1581920903955	36.241610738255	0	0	1	10	2	NaN	2	3	0.0501030471703878	0	1	NaN	271	5	19	1	110	210	310	NaN	510	0.382253672927618	2	1	NaN	5704139.9646679	NaN	5704140.9480377	5704141.46457883
117	23	0	0	90	36.1581920903955	36.241610738255	6	0.200018136128783	2	1	6	NaN	1	4	0.0501030471703878	0	1	NaN	272	5	20	1	120	220	320	NaN	520	0.31405992526561	2	0	NaN	5704142.6648932	NaN	5704143.64836	5704144.16485457
117	23	0	0	90	36.1581920903955	36.241610738255	24	0.800072544515133	2	11	6	NaN	2	4	0.0501030471703878	0	1	NaN	273	5	21	1	120	220	320	NaN	520	0.280441121198237	2	1	NaN	5704145.2984402	NaN	5704146.2818851	5704146.79843518
117	23	0	0	90	36.1581920903955	36.241610738255	8	0.266690848171711	2	4	1	NaN	1	3	0.0501030471703878	0	1	NaN	274	5	22	1	120	220	320	NaN	520	0.280285225249827	1	1	NaN	5704147.8987555	NaN	5704148.8821774	5704149.39869197
117	23	0	0	90	36.1581920903955	36.241610738255	16	0.533381696343422	2	6	2	NaN	1	3	0.0501030471703878	0	1	NaN	275	5	23	1	120	220	320	NaN	520	0.424006873741746	2	0	NaN	5704150.4990217	NaN	5704151.4824088	5704151.99895143
117	23	0	0	90	36.1581920903955	36.241610738255	20	0.666727120429277	2	4	6	NaN	1	5	0.0501030471703878	0	1	NaN	276	5	24	1	120	220	320	NaN	520	0.410660373046994	2	0	NaN	5704153.2325821	NaN	5704154.2160042	5704154.73255563
117	23	0	0	90	36.1581920903955	36.241610738255	21	0.700063476450741	2	8	4	NaN	2	4	0.0501030471703878	0	1	NaN	277	5	25	1	120	220	320	NaN	520	0.373633473180234	1	0	NaN	5704155.9494171	NaN	5704156.9329392	5704157.44950773
117	23	0	0	90	36.1581920903955	36.241610738255	13	0.43337262827903	2	1	4	NaN	1	5	0.0501030471703878	0	1	NaN	278	5	26	1	120	220	320	NaN	520	0.186038572341204	1	1	NaN	5704158.6331353	NaN	5704159.6165369	5704160.13308373
117	23	0	0	90	36.1581920903955	36.241610738255	15	0.500045340321958	2	1	6	NaN	1	5	0.0501030471703878	0	1	NaN	279	5	27	1	120	220	320	NaN	520	0.397459544241428	1	1	NaN	5704161.1333702	NaN	5704162.1167868	5704162.63334326
117	23	0	0	90	36.1581920903955	36.241610738255	17	0.566718052364886	2	11	3	NaN	2	3	0.0501030471703878	0	1	NaN	280	5	28	1	120	220	320	NaN	520	0.112830673344433	1	0	NaN	5704163.850321	NaN	5704164.8337279	5704165.35025893
117	23	0	0	90	36.1581920903955	36.241610738255	11	0.366699916236103	2	9	5	NaN	2	5	0.0501030471703878	0	1	NaN	281	5	29	1	120	220	320	NaN	520	0.175220273435116	1	0	NaN	5704166.2838914	NaN	5704167.2672919	5704167.78382983
117	23	0	0	90	36.1581920903955	36.241610738255	13	0.43337262827903	2	6	5	NaN	1	5	0.0501030471703878	0	1	NaN	282	5	30	1	120	220	320	NaN	520	0.291529872454703	1	1	NaN	5704168.7674642	NaN	5704169.7508625	5704170.26740753
117	23	0	0	90	36.1581920903955	36.241610738255	18	0.60005440838635	2	5	6	NaN	1	4	0.0501030471703878	0	1	NaN	283	5	31	1	120	220	320	NaN	520	1.99571917299181	1	1	NaN	5704171.3677227	NaN	5704172.3511212	5704172.86767333
117	23	0	0	90	36.1581920903955	36.241610738255	23	0.766736188493669	2	1	2	NaN	1	4	0.0501030471703878	0	1	NaN	284	5	32	1	120	220	320	NaN	520	0.24615953117609	2	0	NaN	5704175.6848138	NaN	5704176.668238	5704177.18476017
117	23	0	0	90	36.1581920903955	36.241610738255	23	0.766736188493669	2	7	5	NaN	2	5	0.0501030471703878	0	1	NaN	285	5	33	1	120	220	320	NaN	520	0.0104111731052399	1	0	NaN	5704178.2517215	NaN	5704179.2351559	5704179.75168083
117	23	0	0	90	36.1581920903955	36.241610738255	17	0.566718052364886	2	5	2	NaN	1	4	0.0501030471703878	0	1	NaN	286	5	34	1	120	220	320	NaN	520	0.0657581211999059	1	1	NaN	5704180.5852944	NaN	5704181.5686856	5704182.08524418
117	23	0	0	90	36.1581920903955	36.241610738255	11	0.366699916236103	2	9	2	NaN	2	4	0.0501030471703878	0	1	NaN	287	5	35	1	120	220	320	NaN	520	0.138793473131955	2	1	NaN	5704182.9521666	NaN	5704183.9356156	5704184.45214213
117	23	0	0	90	36.1581920903955	36.241610738255	9	0.300027204193175	2	9	5	NaN	2	4	0.0501030471703878	0	1	NaN	288	5	36	1	120	220	320	NaN	520	0.0885332254692912	1	0	NaN	5704185.4024502	NaN	5704186.3858588	5704186.90237447
117	23	0	0	90	36.1581920903955	36.241610738255	14	0.466708984300494	2	10	5	NaN	2	3	0.0501030471703878	0	1	NaN	289	5	37	1	120	220	320	NaN	520	0.256741425022483	2	1	NaN	5704187.8026636	NaN	5704188.7860654	5704189.30261977
117	23	0	0	90	36.1581920903955	36.241610738255	19	0.633390764407814	2	5	4	NaN	1	5	0.0501030471703878	0	1	NaN	290	5	38	1	120	220	320	NaN	520	0.0495139211416245	1	1	NaN	5704190.3695815	NaN	5704191.3530328	5704191.86952988
117	23	0	0	90	36.1581920903955	36.241610738255	16	0.533381696343422	2	3	2	NaN	1	5	0.0501030471703878	0	1	NaN	291	5	39	1	120	220	320	NaN	520	0.186502895317972	1	1	NaN	5704192.7364954	NaN	5704193.7198942	5704194.2364483
117	23	0	0	90	36.1581920903955	36.241610738255	9	0.300027204193175	2	10	6	NaN	2	5	0.0501030471703878	0	1	NaN	292	5	40	1	120	220	320	NaN	520	0.0103946253657341	2	1	NaN	5704195.2366138	NaN	5704196.2201314	5704196.73668857
117	23	0	0	90	36.1581920903955	36.241610738255	24	0.800072544515133	2	6	3	NaN	1	3	0.0501030471703878	0	1	NaN	293	5	41	1	120	220	320	NaN	520	0.305397124961019	1	1	NaN	5704197.55359	NaN	5704198.5370311	5704199.05358267
117	23	0	0	90	36.1581920903955	36.241610738255	14	0.466708984300494	2	1	5	NaN	1	3	0.0501030471703878	0	1	NaN	294	5	42	1	120	220	320	NaN	520	0.304742973297834	2	0	NaN	5704200.1705506	NaN	5704201.1539504	5704201.67049433
117	23	0	0	90	36.1581920903955	36.241610738255	8	0.266690848171711	2	9	2	NaN	2	3	0.0501030471703878	0	1	NaN	295	5	43	1	120	220	320	NaN	520	0.559481873176992	1	0	NaN	5704202.787488	NaN	5704203.7708973	5704204.28742493
117	23	0	0	90	36.1581920903955	36.241610738255	7	0.233354492150247	2	2	1	NaN	1	3	0.0501030471703878	0	1	NaN	296	5	44	1	120	220	320	NaN	520	0.220947220921516	1	1	NaN	5704205.6544196	NaN	5704206.6378201	5704207.15437168
117	23	0	0	90	36.1581920903955	36.241610738255	13	0.43337262827903	2	7	1	NaN	2	4	0.0501030471703878	0	1	NaN	297	5	45	1	120	220	320	NaN	520	0.415050273761153	2	1	NaN	5704208.1880038	NaN	5704209.1714072	5704209.68795263
117	23	0	0	90	36.1581920903955	36.241610738255	18	0.60005440838635	2	6	2	NaN	1	3	0.0501030471703878	0	1	NaN	298	5	46	1	120	220	320	NaN	520	0.121318973600864	1	1	NaN	5704210.9216037	NaN	5704211.9050187	5704212.42156463
117	23	0	0	90	36.1581920903955	36.241610738255	21	0.700063476450741	2	6	6	NaN	1	4	0.0501030471703878	0	1	NaN	299	5	47	1	120	220	320	NaN	520	0.343845973722637	1	1	NaN	5704213.355173	NaN	5704214.3384824	5704214.85512853
117	23	0	0	90	36.1581920903955	36.241610738255	6	0.200018136128783	2	3	5	NaN	1	3	0.0501030471703878	0	1	NaN	300	5	48	1	120	220	320	NaN	520	0.140903078019619	1	1	NaN	5704216.0219648	NaN	5704217.005498	5704217.52206162
117	23	0	0	90	36.1581920903955	36.241610738255	24	0.800072544515133	2	2	3	NaN	1	3	0.0501030471703878	0	1	NaN	301	5	49	1	120	220	320	NaN	520	0.411242621019483	1	1	NaN	5704218.4723707	NaN	5704219.4557498	5704219.97229188
117	23	0	0	90	36.1581920903955	36.241610738255	15	0.500045340321958	2	6	1	NaN	1	4	0.0501030471703878	0	1	NaN	302	5	50	1	120	220	320	NaN	520	0.205506620928645	1	1	NaN	5704221.2059552	NaN	5704222.1893593	5704222.70590268
117	23	0	0	90	36.1581920903955	36.241610738255	10	0.333363560214639	2	1	5	NaN	1	5	0.0501030471703878	0	1	NaN	303	5	51	1	120	220	320	NaN	520	0.872127320617437	1	1	NaN	5704223.722745	NaN	5704224.7062642	5704225.22280938
117	23	0	0	90	36.1581920903955	36.241610738255	0	0	1	11	4	NaN	2	3	0.0501030471703878	0	1	NaN	304	5	52	1	110	210	310	NaN	510	0.0104159731417894	2	1	NaN	5704226.9064871	NaN	5704227.8899061	5704228.40646003
117	23	0	0	90	36.1581920903955	36.241610738255	11	0.366699916236103	2	5	1	NaN	1	3	0.0501030471703878	0	1	NaN	305	5	53	1	120	220	320	NaN	520	0.196051073260605	1	1	NaN	5704229.2232635	NaN	5704230.2068243	5704230.72335083
117	23	0	0	90	36.1581920903955	36.241610738255	14	0.466708984300494	2	11	4	NaN	2	3	0.0501030471703878	0	1	NaN	306	5	54	1	120	220	320	NaN	520	0.0104176728054881	2	1	NaN	5704231.7236695	NaN	5704232.7070547	5704233.22360223
117	23	0	0	90	36.1581920903955	36.241610738255	6	0.200018136128783	2	7	1	NaN	2	3	0.0501030471703878	0	1	NaN	307	5	55	1	120	220	320	NaN	520	0.506514473818243	1	0	NaN	5704234.040541	NaN	5704235.0239507	5704235.54049063
117	23	0	0	90	36.1581920903955	36.241610738255	19	0.633390764407814	2	8	1	NaN	2	5	0.0501030471703878	0	1	NaN	308	5	56	1	120	220	320	NaN	520	1.18551352154464	2	1	NaN	5704236.8574844	NaN	5704237.8408678	5704238.35743788
117	23	0	0	90	36.1581920903955	36.241610738255	21	0.700063476450741	2	6	4	NaN	1	4	0.0501030471703878	0	1	NaN	309	5	57	1	120	220	320	NaN	520	0.357588373124599	1	1	NaN	5704240.3578321	NaN	5704241.3412141	5704241.85777293
117	23	0	0	90	36.1581920903955	36.241610738255	7	0.233354492150247	2	9	5	NaN	2	3	0.0501030471703878	0	1	NaN	310	5	58	1	120	220	320	NaN	520	0.513044478371739	1	0	NaN	5704243.0580924	NaN	5704244.0415099	5704244.55804932
117	23	0	0	90	36.1581920903955	36.241610738255	6	0.200018136128783	2	12	4	NaN	2	5	0.0501030471703878	0	1	NaN	311	5	59	1	120	220	320	NaN	520	1.23185127321631	1	0	NaN	5704245.8917033	NaN	5704246.8751146	5704247.39164973
117	23	0	0	90	36.1581920903955	36.241610738255	20	0.666727120429277	2	2	2	NaN	1	4	0.0501030471703878	0	1	NaN	312	5	60	1	120	220	320	NaN	520	0.257015121169388	1	1	NaN	5704249.4420653	NaN	5704250.4254581	5704250.94199828
117	23	0	0	90	36.1581920903955	36.241610738255	22	0.733399832472205	2	8	1	NaN	2	3	0.0501030471703878	0	1	NaN	313	5	61	1	120	220	320	NaN	520	0.410585072822869	1	0	NaN	5704252.0089684	NaN	5704252.992378	5704253.50891863
117	23	0	0	90	36.1581920903955	36.241610738255	21	0.700063476450741	2	3	3	NaN	1	3	0.0501030471703878	0	1	NaN	314	5	62	1	120	220	320	NaN	520	0.253243673592806	1	1	NaN	5704254.7259324	NaN	5704255.7092998	5704256.22585903
117	23	0	0	90	36.1581920903955	36.241610738255	10	0.333363560214639	2	11	3	NaN	2	4	0.0501030471703878	0	1	NaN	315	5	63	1	120	220	320	NaN	520	0.358648273162544	2	1	NaN	5704257.2927	NaN	5704258.2762566	5704258.79277093
117	23	0	0	90	36.1581920903955	36.241610738255	10	0.333363560214639	2	5	3	NaN	1	3	0.0501030471703878	0	1	NaN	316	6	1	1	120	220	320	NaN	520	0.315527473576367	1	1	NaN	5704261.3598844	NaN	5704262.343299	5704262.85983623
117	23	0	0	90	36.1581920903955	36.241610738255	14	0.466708984300494	2	4	4	NaN	1	3	0.0501030471703878	0	1	NaN	317	6	2	1	120	220	320	NaN	520	0.513943978585303	1	1	NaN	5704263.993486	NaN	5704264.9768892	5704265.49344022
117	23	0	0	90	36.1581920903955	36.241610738255	20	0.666727120429277	2	6	2	NaN	1	5	0.0501030471703878	0	1	NaN	318	6	3	1	120	220	320	NaN	520	0.0103654833510518	1	1	NaN	5704266.827083	NaN	5704267.810506	5704268.32704792
117	23	0	0	90	36.1581920903955	36.241610738255	7	0.233354492150247	2	2	6	NaN	1	3	0.0501030471703878	0	1	NaN	319	6	4	1	120	220	320	NaN	520	0.155064521357417	2	0	NaN	5704269.1438496	NaN	5704270.127398	5704270.64393588
117	23	0	0	90	36.1581920903955	36.241610738255	23	0.766736188493669	2	8	6	NaN	2	5	0.0501030471703878	0	1	NaN	320	6	5	1	120	220	320	NaN	520	0.408090521581471	1	0	NaN	5704271.6109016	NaN	5704272.5942886	5704273.11085578
117	23	0	0	90	36.1581920903955	36.241610738255	0	0	1	10	5	NaN	2	4	0.0501030471703878	0	1	NaN	321	6	6	1	110	210	310	NaN	510	0.067257291637361	1	0	NaN	5704274.3278349	NaN	5704275.3112371	5704275.82778431
117	23	0	0	90	36.1581920903955	36.241610738255	7	0.233354492150247	2	5	4	NaN	1	3	0.0501030471703878	0	1	NaN	322	6	7	1	120	220	320	NaN	520	1.35560470074415	1	1	NaN	5704276.7113956	NaN	5704277.694773	5704278.2113569
117	23	0	0	90	36.1581920903955	36.241610738255	0	0	1	2	2	NaN	1	3	0.0501030471703878	0	1	NaN	323	6	8	1	110	210	310	NaN	510	1.08054837305099	1	1	NaN	5704280.3784294	NaN	5704281.3618539	5704281.87837203
117	23	0	0	90	36.1581920903955	36.241610738255	13	0.43337262827903	2	1	5	NaN	1	5	0.0501030471703878	0	1	NaN	324	6	9	1	120	220	320	NaN	520	0.256801673211157	1	1	NaN	5704283.7787832	NaN	5704284.7621544	5704285.27870953
117	23	0	0	90	36.1581920903955	36.241610738255	12	0.400036272257566	2	6	3	NaN	1	3	0.0501030471703878	0	1	NaN	325	6	10	1	120	220	320	NaN	520	0.161790672689676	1	1	NaN	5704286.3456098	NaN	5704287.3291039	5704287.84562453
117	23	0	0	90	36.1581920903955	36.241610738255	16	0.533381696343422	2	4	3	NaN	1	5	0.0501030471703878	0	1	NaN	326	6	11	1	120	220	320	NaN	520	0.230163173750043	2	0	NaN	5704288.8292631	NaN	5704289.8126571	5704290.32920593
117	23	0	0	90	36.1581920903955	36.241610738255	17	0.566718052364886	2	6	6	NaN	1	5	0.0501030471703878	0	1	NaN	327	6	12	1	120	220	320	NaN	520	0.14360913913697	1	1	NaN	5704291.3795059	NaN	5704292.3628972	5704292.87945586
117	23	0	0	90	36.1581920903955	36.241610738255	13	0.43337262827903	2	7	1	NaN	2	3	0.0501030471703878	0	1	NaN	328	6	13	1	120	220	320	NaN	520	0.165325772948563	2	1	NaN	5704293.8297683	NaN	5704294.8131537	5704295.32972693
117	23	0	0	90	36.1581920903955	36.241610738255	21	0.700063476450741	2	8	2	NaN	2	5	0.0501030471703878	0	1	NaN	329	6	14	1	120	220	320	NaN	520	0.0259040920063853	1	0	NaN	5704296.3133006	NaN	5704297.2967286	5704297.81328251
117	23	0	0	90	36.1581920903955	36.241610738255	22	0.733399832472205	2	1	4	NaN	1	3	0.0501030471703878	0	1	NaN	330	6	15	1	120	220	320	NaN	520	0.268231578171253	1	1	NaN	5704298.6468791	NaN	5704299.6303317	5704300.14684542
117	23	0	0	90	36.1581920903955	36.241610738255	23	0.766736188493669	2	11	4	NaN	2	3	0.0501030471703878	0	1	NaN	331	6	16	1	120	220	320	NaN	520	0.19693077262491	2	1	NaN	5704301.2304781	NaN	5704302.2138805	5704302.73044003
117	23	0	0	90	36.1581920903955	36.241610738255	11	0.366699916236103	2	12	6	NaN	2	5	0.0501030471703878	0	1	NaN	332	6	17	1	120	220	320	NaN	520	0.255777772516012	2	1	NaN	5704303.7473071	NaN	5704304.730791	5704305.24733473
117	23	0	0	90	36.1581920903955	36.241610738255	25	0.833408900536597	2	11	6	NaN	2	4	0.0501030471703878	0	1	NaN	333	6	18	1	120	220	320	NaN	520	0.153352725319564	2	1	NaN	5704306.3144213	NaN	5704307.2977006	5704307.81426607
117	23	0	0	90	36.1581920903955	36.241610738255	8	0.266690848171711	2	12	4	NaN	2	5	0.0501030471703878	0	1	NaN	334	6	19	1	120	220	320	NaN	520	1.94205167237669	2	1	NaN	5704308.7812037	NaN	5704309.7646171	5704310.28116473
117	23	0	0	90	36.1581920903955	36.241610738255	10	0.333363560214639	2	9	5	NaN	2	5	0.0501030471703878	0	1	NaN	335	6	20	1	120	220	320	NaN	520	0.443511373363435	1	0	NaN	5704313.031633	NaN	5704314.0150344	5704314.53158043
117	23	0	0	90	36.1581920903955	36.241610738255	7	0.233354492150247	2	10	5	NaN	2	4	0.0501030471703878	0	1	NaN	336	6	21	1	120	220	320	NaN	520	0.204494673758745	1	0	NaN	5704315.7985749	NaN	5704316.7819843	5704317.29852113
117	23	0	0	90	36.1581920903955	36.241610738255	8	0.266690848171711	2	10	2	NaN	2	3	0.0501030471703878	0	1	NaN	337	6	22	1	120	220	320	NaN	520	0.0956695787608624	1	0	NaN	5704318.3154859	NaN	5704319.2988856	5704319.81544512
117	23	0	0	90	36.1581920903955	36.241610738255	20	0.666727120429277	2	12	6	NaN	2	5	0.0501030471703878	0	1	NaN	338	6	23	1	120	220	320	NaN	520	0.0869000731036067	2	1	NaN	5704320.7323795	NaN	5704321.7158351	5704322.23233403
117	23	0	0	90	36.1581920903955	36.241610738255	18	0.60005440838635	2	10	2	NaN	2	3	0.0501030471703878	0	1	NaN	339	6	24	1	120	220	320	NaN	520	0.102516973391175	1	0	NaN	5704323.1326262	NaN	5704324.1160277	5704324.63257133
117	23	0	0	90	36.1581920903955	36.241610738255	15	0.500045340321958	2	8	3	NaN	2	3	0.0501030471703878	0	1	NaN	340	6	25	1	120	220	320	NaN	520	0.0104090729728341	1	0	NaN	5704325.5495191	NaN	5704326.5329438	5704327.04947923
117	23	0	0	90	36.1581920903955	36.241610738255	10	0.333363560214639	2	1	3	NaN	1	4	0.0501030471703878	0	1	NaN	341	6	26	1	120	220	320	NaN	520	0.944738138467073	1	1	NaN	5704327.8663864	NaN	5704328.8498134	5704329.36637546
117	23	0	0	90	36.1581920903955	36.241610738255	8	0.266690848171711	2	8	5	NaN	2	3	0.0501030471703878	0	1	NaN	342	6	27	1	120	220	320	NaN	520	0.0104088736698031	2	1	NaN	5704331.1167368	NaN	5704332.1001578	5704332.61669623
117	23	0	0	90	36.1581920903955	36.241610738255	12	0.400036272257566	2	11	2	NaN	2	3	0.0501030471703878	0	1	NaN	343	6	28	1	120	220	320	NaN	520	0.241010791622102	2	1	NaN	5704333.450308	NaN	5704334.4336911	5704334.95025581
117	23	0	0	90	36.1581920903955	36.241610738255	18	0.60005440838635	2	6	4	NaN	1	4	0.0501030471703878	0	1	NaN	344	6	29	1	120	220	320	NaN	520	0.410650278441608	1	1	NaN	5704336.0004384	NaN	5704336.9839573	5704337.50051322
117	23	0	0	90	36.1581920903955	36.241610738255	18	0.60005440838635	2	4	3	NaN	1	5	0.0501030471703878	0	1	NaN	345	6	30	1	120	220	320	NaN	520	0.197450420819223	2	0	NaN	5704338.7173831	NaN	5704339.7008869	5704340.21743718
117	23	0	0	90	36.1581920903955	36.241610738255	16	0.533381696343422	2	8	6	NaN	2	3	0.0501030471703878	0	1	NaN	346	6	31	1	120	220	320	NaN	520	0.409242721274495	1	0	NaN	5704341.2344067	NaN	5704342.2177836	5704342.73434908
117	23	0	0	90	36.1581920903955	36.241610738255	23	0.766736188493669	2	9	3	NaN	2	5	0.0501030471703878	0	1	NaN	347	6	32	1	120	220	320	NaN	520	0.243909673765302	1	0	NaN	5704343.9513527	NaN	5704344.9347363	5704345.45128063
117	23	0	0	90	36.1581920903955	36.241610738255	9	0.300027204193175	2	4	6	NaN	1	4	0.0501030471703878	0	1	NaN	348	6	33	1	120	220	320	NaN	520	0.245846243575215	1	1	NaN	5704346.5015803	NaN	5704347.4849916	5704348.00154386
117	23	0	0	90	36.1581920903955	36.241610738255	14	0.466708984300494	2	5	3	NaN	1	4	0.0501030471703878	0	1	NaN	349	6	34	1	120	220	320	NaN	520	0.479296972975135	1	1	NaN	5704349.0518508	NaN	5704350.0351812	5704350.55178283
117	23	0	0	90	36.1581920903955	36.241610738255	17	0.566718052364886	2	5	1	NaN	1	3	0.0501030471703878	0	1	NaN	350	6	35	1	120	220	320	NaN	520	0.29505767300725	2	0	NaN	5704351.8521016	NaN	5704352.8355302	5704353.35205903
117	23	0	0	90	36.1581920903955	36.241610738255	21	0.700063476450741	2	2	6	NaN	1	4	0.0501030471703878	0	1	NaN	351	6	36	1	120	220	320	NaN	520	0.223061420954764	1	1	NaN	5704354.4523693	NaN	5704355.4357709	5704355.95231428
117	23	0	0	90	36.1581920903955	36.241610738255	13	0.43337262827903	2	2	2	NaN	1	3	0.0501030471703878	0	1	NaN	352	6	37	1	120	220	320	NaN	520	0.201721478253603	1	1	NaN	5704356.9859531	NaN	5704357.9693542	5704358.48590112
117	23	0	0	90	36.1581920903955	36.241610738255	19	0.633390764407814	2	7	4	NaN	2	5	0.0501030471703878	0	1	NaN	353	6	38	1	120	220	320	NaN	520	0.260367324575782	1	0	NaN	5704359.5028654	NaN	5704360.4862841	5704361.00282128
117	23	0	0	90	36.1581920903955	36.241610738255	14	0.466708984300494	2	9	3	NaN	2	5	0.0501030471703878	0	1	NaN	354	6	39	1	120	220	320	NaN	520	0.613125425763428	2	1	NaN	5704362.0864568	NaN	5704363.0699003	5704363.58640257
117	23	0	0	90	36.1581920903955	36.241610738255	7	0.233354492150247	2	6	1	NaN	1	5	0.0501030471703878	0	1	NaN	355	6	40	1	120	220	320	NaN	520	0.20757657289505	1	1	NaN	5704365.0200566	NaN	5704366.0034599	5704366.52001643
117	23	0	0	90	36.1581920903955	36.241610738255	6	0.200018136128783	2	2	5	NaN	1	4	0.0501030471703878	0	1	NaN	356	6	41	1	120	220	320	NaN	520	0.0502379732206464	1	1	NaN	5704367.5369885	NaN	5704368.5203898	5704369.03693403
117	23	0	0	90	36.1581920903955	36.241610738255	15	0.500045340321958	2	5	1	NaN	1	3	0.0501030471703878	0	1	NaN	357	6	42	1	120	220	320	NaN	520	0.123757673427463	1	1	NaN	5704369.9037642	NaN	5704370.8872862	5704371.40383073
117	23	0	0	90	36.1581920903955	36.241610738255	19	0.633390764407814	2	11	3	NaN	2	5	0.0501030471703878	0	1	NaN	358	6	43	1	120	220	320	NaN	520	0.0104540251195431	2	1	NaN	5704372.3374617	NaN	5704373.3208609	5704373.83741507
117	23	0	0	90	36.1581920903955	36.241610738255	22	0.733399832472205	2	6	1	NaN	1	5	0.0501030471703878	0	1	NaN	359	6	44	1	120	220	320	NaN	520	0.204270573332906	1	1	NaN	5704374.671022	NaN	5704375.6543368	5704376.17096673
117	23	0	0	90	36.1581920903955	36.241610738255	14	0.466708984300494	2	3	5	NaN	1	5	0.0501030471703878	0	1	NaN	360	6	45	1	120	220	320	NaN	520	0.207353573292494	1	1	NaN	5704377.1879391	NaN	5704378.1713429	5704378.68788553
117	23	0	0	90	36.1581920903955	36.241610738255	13	0.43337262827903	2	9	2	NaN	2	5	0.0501030471703878	0	1	NaN	361	6	46	1	120	220	320	NaN	520	0.314773725345731	2	1	NaN	5704379.7048411	NaN	5704380.6882556	5704381.20479807
117	23	0	0	90	36.1581920903955	36.241610738255	24	0.800072544515133	2	6	3	NaN	1	4	0.0501030471703878	0	1	NaN	362	6	47	1	120	220	320	NaN	520	0.193745672702789	1	1	NaN	5704382.3217639	NaN	5704383.3051633	5704383.82171883
117	23	0	0	90	36.1581920903955	36.241610738255	23	0.766736188493669	2	10	1	NaN	2	3	0.0501030471703878	0	1	NaN	363	6	48	1	120	220	320	NaN	520	0.213288673199713	2	1	NaN	5704384.8218945	NaN	5704385.8054201	5704386.32196383
117	23	0	0	90	36.1581920903955	36.241610738255	8	0.266690848171711	2	5	2	NaN	1	4	0.0501030471703878	0	1	NaN	364	6	49	1	120	220	320	NaN	520	0.58370307367295	1	1	NaN	5704387.3556035	NaN	5704388.339007	5704388.85554813
117	23	0	0	90	36.1581920903955	36.241610738255	16	0.533381696343422	2	11	4	NaN	2	3	0.0501030471703878	0	1	NaN	365	6	50	1	120	220	320	NaN	520	0.0674919728189707	2	1	NaN	5704390.2558853	NaN	5704391.239288	5704391.75582843
117	23	0	0	90	36.1581920903955	36.241610738255	7	0.233354492150247	2	11	5	NaN	2	5	0.0501030471703878	0	1	NaN	366	6	51	1	120	220	320	NaN	520	0.34782387316227	2	1	NaN	5704392.6394802	NaN	5704393.6228519	5704394.13940573
117	23	0	0	90	36.1581920903955	36.241610738255	18	0.60005440838635	2	1	5	NaN	1	5	0.0501030471703878	0	1	NaN	367	6	52	1	120	220	320	NaN	520	0.296771130524576	1	1	NaN	5704395.3063826	NaN	5704396.2897757	5704396.80633537
117	23	0	0	90	36.1581920903955	36.241610738255	9	0.300027204193175	2	12	5	NaN	2	5	0.0501030471703878	0	1	NaN	368	6	53	1	120	220	320	NaN	520	0.241026720963418	2	1	NaN	5704397.9065155	NaN	5704398.8900464	5704399.40658318
117	23	0	0	90	36.1581920903955	36.241610738255	23	0.766736188493669	2	3	2	NaN	1	5	0.0501030471703878	0	1	NaN	369	6	54	1	120	220	320	NaN	520	1.70637272577733	1	1	NaN	5704400.4567702	NaN	5704401.4402967	5704401.95684417
117	23	0	0	90	36.1581920903955	36.241610738255	19	0.633390764407814	2	3	6	NaN	1	4	0.0501030471703878	0	1	NaN	370	6	55	1	120	220	320	NaN	520	0.305450725369155	2	0	NaN	5704404.4739417	NaN	5704405.4573564	5704405.97390477
117	23	0	0	90	36.1581920903955	36.241610738255	20	0.666727120429277	2	5	2	NaN	1	3	0.0501030471703878	0	1	NaN	371	6	56	1	120	220	320	NaN	520	0.744348973035812	1	1	NaN	5704407.0908762	NaN	5704408.0743496	5704408.59082043
117	23	0	0	90	36.1581920903955	36.241610738255	15	0.500045340321958	2	2	4	NaN	1	5	0.0501030471703878	0	1	NaN	372	6	57	1	120	220	320	NaN	520	0.494090925902128	1	1	NaN	5704410.1411727	NaN	5704411.1245546	5704411.64112917
117	23	0	0	90	36.1581920903955	36.241610738255	11	0.366699916236103	2	5	3	NaN	1	5	0.0501030471703878	0	1	NaN	373	6	58	1	120	220	320	NaN	520	0.077281572856009	1	1	NaN	5704412.9581135	NaN	5704413.9415499	5704414.45805763
117	23	0	0	90	36.1581920903955	36.241610738255	21	0.700063476450741	2	5	5	NaN	1	4	0.0501030471703878	0	1	NaN	374	6	59	1	120	220	320	NaN	520	0.165656825527549	1	1	NaN	5704415.3416775	NaN	5704416.3250893	5704416.84163027
117	23	0	0	90	36.1581920903955	36.241610738255	6	0.200018136128783	2	2	1	NaN	1	4	0.0501030471703878	0	1	NaN	375	6	60	1	120	220	320	NaN	520	0.1380526246503	2	0	NaN	5704417.8252598	NaN	5704418.8086663	5704419.32521727
117	23	0	0	90	36.1581920903955	36.241610738255	11	0.366699916236103	2	11	1	NaN	2	3	0.0501030471703878	0	1	NaN	376	6	61	1	120	220	320	NaN	520	0.256242473609746	2	1	NaN	5704420.2755035	NaN	5704421.2589394	5704421.77545133
117	23	0	0	90	36.1581920903955	36.241610738255	9	0.300027204193175	2	4	6	NaN	1	3	0.0501030471703878	0	1	NaN	377	6	62	1	120	220	320	NaN	520	0.120892473496497	2	0	NaN	5704422.8423001	NaN	5704423.8258873	5704424.34236313
117	23	0	0	90	36.1581920903955	36.241610738255	21	0.700063476450741	2	4	3	NaN	1	3	0.0501030471703878	0	1	NaN	378	6	63	1	120	220	320	NaN	520	0.191257520578802	1	1	NaN	5704425.2759834	NaN	5704426.2593728	5704426.77593338
117	23	0	0	90	36.1581920903955	36.241610738255	18	0.60005440838635	2	9	1	NaN	2	5	0.0501030471703878	0	1	NaN	379	7	1	1	120	220	320	NaN	520	0.342257743701339	2	1	NaN	5704429.2930543	NaN	5704430.2764584	5704430.79301506
117	23	0	0	90	36.1581920903955	36.241610738255	22	0.733399832472205	2	9	4	NaN	2	5	0.0501030471703878	0	1	NaN	380	7	2	1	120	220	320	NaN	520	0.259835826233029	2	1	NaN	5704431.9432502	NaN	5704432.9265996	5704433.44326767
117	23	0	0	90	36.1581920903955	36.241610738255	9	0.300027204193175	2	5	6	NaN	1	4	0.0501030471703878	0	1	NaN	381	7	3	1	120	220	320	NaN	520	0.0104051735252142	1	1	NaN	5704434.5102821	NaN	5704435.493635	5704436.01017943
117	23	0	0	90	36.1581920903955	36.241610738255	17	0.566718052364886	2	10	5	NaN	2	5	0.0501030471703878	0	1	NaN	382	7	4	1	120	220	320	NaN	520	0.160640421323478	1	0	NaN	5704436.8270044	NaN	5704437.810515	5704438.32708148
117	23	0	0	90	36.1581920903955	36.241610738255	12	0.400036272257566	2	9	1	NaN	2	5	0.0501030471703878	0	1	NaN	383	7	5	1	120	220	320	NaN	520	0.332967173308134	2	1	NaN	5704439.310702	NaN	5704440.2941134	5704440.81066013
117	23	0	0	90	36.1581920903955	36.241610738255	22	0.733399832472205	2	1	2	NaN	1	5	0.0501030471703878	0	1	NaN	384	7	6	1	120	220	320	NaN	520	0.250366995111108	2	0	NaN	5704441.9609618	NaN	5704442.9443712	5704443.4609223
117	23	0	0	90	36.1581920903955	36.241610738255	6	0.200018136128783	2	11	2	NaN	2	3	0.0501030471703878	0	1	NaN	385	7	7	1	120	220	320	NaN	520	0.355452069081366	2	1	NaN	5704444.5279098	NaN	5704445.5113067	5704446.02782593
117	23	0	0	90	36.1581920903955	36.241610738255	18	0.60005440838635	2	11	1	NaN	2	5	0.0501030471703878	0	1	NaN	386	7	8	1	120	220	320	NaN	520	0.20841587241739	2	1	NaN	5704447.1948047	NaN	5704448.1782161	5704448.69476623
117	23	0	0	90	36.1581920903955	36.241610738255	10	0.333363560214639	2	8	5	NaN	2	5	0.0501030471703878	0	1	NaN	387	7	9	1	120	220	320	NaN	520	0.523644473403692	2	1	NaN	5704449.7116988	NaN	5704450.695129	5704451.21168293
117	23	0	0	90	36.1581920903955	36.241610738255	12	0.400036272257566	2	5	2	NaN	1	3	0.0501030471703878	0	1	NaN	388	7	10	1	120	220	320	NaN	520	0.186434120871127	1	1	NaN	5704452.5452153	NaN	5704453.5287416	5704454.04529218
117	23	0	0	90	36.1581920903955	36.241610738255	19	0.633390764407814	2	9	3	NaN	2	4	0.0501030471703878	0	1	NaN	389	7	11	1	120	220	320	NaN	520	0.597771724686027	1	0	NaN	5704455.0455828	NaN	5704456.0289829	5704456.54553468
117	23	0	0	90	36.1581920903955	36.241610738255	0	0	1	8	5	NaN	2	5	0.0501030471703878	0	1	NaN	390	7	12	1	110	210	310	NaN	510	0.0648127254098654	2	1	NaN	5704457.9625329	NaN	5704458.945947	5704459.46248988
117	23	0	0	90	36.1581920903955	36.241610738255	17	0.566718052364886	2	9	3	NaN	2	3	0.0501030471703878	0	1	NaN	391	7	13	1	120	220	320	NaN	520	0.297089773230255	1	0	NaN	5704460.3461048	NaN	5704461.3295466	5704461.84605383
117	23	0	0	90	36.1581920903955	36.241610738255	18	0.60005440838635	2	8	2	NaN	2	3	0.0501030471703878	0	1	NaN	392	7	14	1	120	220	320	NaN	520	0.0103971259668469	1	0	NaN	5704462.9630243	NaN	5704463.9464516	5704464.46297997
117	23	0	0	90	36.1581920903955	36.241610738255	13	0.43337262827903	2	11	2	NaN	2	3	0.0501030471703878	0	1	NaN	393	7	15	1	120	220	320	NaN	520	0.363480772823095	2	1	NaN	5704465.2799469	NaN	5704466.2633322	5704466.77986573
117	23	0	0	90	36.1581920903955	36.241610738255	17	0.566718052364886	2	8	6	NaN	2	3	0.0501030471703878	0	1	NaN	394	7	16	1	120	220	320	NaN	520	0.208360491320491	2	1	NaN	5704467.9635165	NaN	5704468.9469164	5704469.46347281
117	23	0	0	90	36.1581920903955	36.241610738255	12	0.400036272257566	2	11	3	NaN	2	5	0.0501030471703878	0	1	NaN	395	7	17	1	120	220	320	NaN	520	0.291335873305798	1	0	NaN	5704470.4804212	NaN	5704471.4638562	5704471.98037743
117	23	0	0	90	36.1581920903955	36.241610738255	19	0.633390764407814	2	2	6	NaN	1	3	0.0501030471703878	0	1	NaN	396	7	18	1	120	220	320	NaN	520	0.827097420580685	2	0	NaN	5704473.0806868	NaN	5704474.0641141	5704474.58063428
117	23	0	0	90	36.1581920903955	36.241610738255	14	0.466708984300494	2	3	2	NaN	1	3	0.0501030471703878	0	1	NaN	397	7	19	1	120	220	320	NaN	520	5.12505629099905	1	1	NaN	5704476.2142144	NaN	5704477.1977359	5704477.71427501
117	23	0	0	90	36.1581920903955	36.241610738255	15	0.500045340321958	2	3	2	NaN	1	3	0.0501030471703878	0	1	NaN	398	7	20	1	120	220	320	NaN	520	0.194342660717666	2	0	NaN	5704483.6650516	NaN	5704484.648444	5704485.16501204
117	23	0	0	90	36.1581920903955	36.241610738255	25	0.833408900536597	2	11	5	NaN	2	4	0.0501030471703878	0	1	NaN	399	7	21	1	120	220	320	NaN	520	0.48588577285409	2	1	NaN	5704486.1819717	NaN	5704487.1653777	5704487.68192623
117	23	0	0	90	36.1581920903955	36.241610738255	17	0.566718052364886	2	7	3	NaN	2	5	0.0501030471703878	0	1	NaN	400	7	22	1	120	220	320	NaN	520	0.19762896001339	2	1	NaN	5704488.9822488	NaN	5704489.9656592	5704490.48219964
117	23	0	0	90	36.1581920903955	36.241610738255	25	0.833408900536597	2	3	5	NaN	1	4	0.0501030471703878	0	1	NaN	401	7	23	1	120	220	320	NaN	520	0.224240126088262	1	1	NaN	5704491.4992425	NaN	5704492.4825626	5704492.99911717
117	23	0	0	90	36.1581920903955	36.241610738255	12	0.400036272257566	2	2	3	NaN	1	4	0.0501030471703878	0	1	NaN	402	7	24	1	120	220	320	NaN	520	0.106668173335493	2	0	NaN	5704494.0326245	NaN	5704495.0161529	5704495.53269163
117	23	0	0	90	36.1581920903955	36.241610738255	6	0.200018136128783	2	6	3	NaN	1	3	0.0501030471703878	0	1	NaN	403	7	25	1	120	220	320	NaN	520	0.138153420761228	1	1	NaN	5704496.4496541	NaN	5704497.4330504	5704497.94959038
117	23	0	0	90	36.1581920903955	36.241610738255	24	0.800072544515133	2	4	2	NaN	1	3	0.0501030471703878	0	1	NaN	404	7	26	1	120	220	320	NaN	520	0.295891521498561	2	0	NaN	5704498.8999099	NaN	5704499.8832888	5704500.39984478
117	23	0	0	90	36.1581920903955	36.241610738255	13	0.43337262827903	2	6	5	NaN	1	5	0.0501030471703878	0	1	NaN	405	7	27	1	120	220	320	NaN	520	0.0546773737296462	1	1	NaN	5704501.5168138	NaN	5704502.5002166	5704503.01675803
117	23	0	0	90	36.1581920903955	36.241610738255	9	0.300027204193175	2	5	5	NaN	1	5	0.0501030471703878	0	1	NaN	406	7	28	1	120	220	320	NaN	520	0.247862973250449	1	1	NaN	5704503.8837072	NaN	5704504.8671202	5704505.38365593
117	23	0	0	90	36.1581920903955	36.241610738255	0	0	1	1	4	NaN	1	4	0.0501030471703878	0	1	NaN	407	7	29	1	110	210	310	NaN	510	0.345229772850871	1	1	NaN	5704506.4506181	NaN	5704507.4340504	5704507.95058133
117	23	0	0	90	36.1581920903955	36.241610738255	9	0.300027204193175	2	7	2	NaN	2	5	0.0501030471703878	0	1	NaN	408	7	30	1	120	220	320	NaN	520	0.165777821093798	2	1	NaN	5704509.1175802	NaN	5704510.1009584	5704510.61750888
117	23	0	0	90	36.1581920903955	36.241610738255	14	0.466708984300494	2	4	5	NaN	1	5	0.0501030471703878	0	1	NaN	409	7	31	1	120	220	320	NaN	520	1.33835718221962	1	1	NaN	5704511.6012264	NaN	5704512.5845377	5704513.10108312
117	23	0	0	90	36.1581920903955	36.241610738255	21	0.700063476450741	2	12	2	NaN	2	4	0.0501030471703878	0	1	NaN	410	7	32	1	120	220	320	NaN	520	0.184115072712302	1	0	NaN	5704515.2514943	NaN	5704516.234899	5704516.75143753
117	23	0	0	90	36.1581920903955	36.241610738255	8	0.266690848171711	2	11	6	NaN	2	5	0.0501030471703878	0	1	NaN	411	7	33	1	120	220	320	NaN	520	0.135464525781572	2	1	NaN	5704517.8682881	NaN	5704518.8518474	5704519.36837317
117	23	0	0	90	36.1581920903955	36.241610738255	0	0	1	8	1	NaN	2	5	0.0501030471703878	0	1	NaN	412	7	34	1	110	210	310	NaN	510	0.596998173743486	2	1	NaN	5704520.3185573	NaN	5704521.3020583	5704521.81860253
117	23	0	0	90	36.1581920903955	36.241610738255	25	0.833408900536597	2	7	4	NaN	2	5	0.0501030471703878	0	1	NaN	413	7	35	1	120	220	320	NaN	520	0.407897125929594	2	1	NaN	5704523.2356032	NaN	5704524.2190321	5704524.73556067
117	23	0	0	90	36.1581920903955	36.241610738255	13	0.43337262827903	2	3	3	NaN	1	4	0.0501030471703878	0	1	NaN	414	7	36	1	120	220	320	NaN	520	0.283298021182418	2	0	NaN	5704525.9525487	NaN	5704526.9359443	5704527.45249778
117	23	0	0	90	36.1581920903955	36.241610738255	14	0.466708984300494	2	6	2	NaN	1	3	0.0501030471703878	0	1	NaN	415	7	37	1	120	220	320	NaN	520	0.186597673222423	1	1	NaN	5704528.5528128	NaN	5704529.5362012	5704530.05274713
117	23	0	0	90	36.1581920903955	36.241610738255	25	0.833408900536597	2	4	3	NaN	1	4	0.0501030471703878	0	1	NaN	416	7	38	1	120	220	320	NaN	520	0.31051236949861	1	1	NaN	5704531.0530409	NaN	5704532.0364548	5704532.55299153
117	23	0	0	90	36.1581920903955	36.241610738255	13	0.43337262827903	2	5	1	NaN	1	4	0.0501030471703878	0	1	NaN	417	7	39	1	120	220	320	NaN	520	0.213383172638714	1	1	NaN	5704533.6699738	NaN	5704534.6533732	5704535.16992303
117	23	0	0	90	36.1581920903955	36.241610738255	22	0.733399832472205	2	3	3	NaN	1	3	0.0501030471703878	0	1	NaN	418	7	40	1	120	220	320	NaN	520	0.376250673085451	2	0	NaN	5704536.2035514	NaN	5704537.1869458	5704537.70350273
117	23	0	0	90	36.1581920903955	36.241610738255	6	0.200018136128783	2	4	4	NaN	1	5	0.0501030471703878	0	1	NaN	419	7	41	1	120	220	320	NaN	520	0.523666673339903	1	1	NaN	5704538.9038309	NaN	5704539.8872526	5704540.40376073
117	23	0	0	90	36.1581920903955	36.241610738255	0	0	1	11	1	NaN	2	5	0.0501030471703878	0	1	NaN	420	7	42	1	110	210	310	NaN	510	0.258471520617604	2	1	NaN	5704541.7374265	NaN	5704542.7208107	5704543.23737608
117	23	0	0	90	36.1581920903955	36.241610738255	25	0.833408900536597	2	3	3	NaN	1	4	0.0501030471703878	0	1	NaN	421	7	43	1	120	220	320	NaN	520	0.331050225533545	1	1	NaN	5704544.3043413	NaN	5704545.2877525	5704545.80430347
117	23	0	0	90	36.1581920903955	36.241610738255	16	0.533381696343422	2	10	4	NaN	2	3	0.0501030471703878	0	1	NaN	422	7	44	1	120	220	320	NaN	520	0.1049858732149	2	1	NaN	5704546.9546049	NaN	5704547.9380218	5704548.45456203
117	23	0	0	90	36.1581920903955	36.241610738255	0	0	1	12	5	NaN	2	3	0.0501030471703878	0	1	NaN	423	7	45	1	110	210	310	NaN	510	0.336414691992104	1	0	NaN	5704549.3714996	NaN	5704550.3549148	5704550.87146751
117	23	0	0	90	36.1581920903955	36.241610738255	21	0.700063476450741	2	9	6	NaN	2	5	0.0501030471703878	0	1	NaN	424	7	46	1	120	220	320	NaN	520	0.125476825982332	2	1	NaN	5704552.0216477	NaN	5704553.0051869	5704553.52172587
117	23	0	0	90	36.1581920903955	36.241610738255	7	0.233354492150247	2	11	4	NaN	2	5	0.0501030471703878	0	1	NaN	425	7	47	1	120	220	320	NaN	520	1.55420722533017	1	0	NaN	5704554.5053236	NaN	5704555.4887482	5704556.00530357
117	23	0	0	90	36.1581920903955	36.241610738255	8	0.266690848171711	2	3	3	NaN	1	5	0.0501030471703878	0	1	NaN	426	7	48	1	120	220	320	NaN	520	0.0948717724531889	1	1	NaN	5704558.3724017	NaN	5704559.3557865	5704559.87235233
117	23	0	0	90	36.1581920903955	36.241610738255	16	0.533381696343422	2	5	6	NaN	1	3	0.0501030471703878	0	1	NaN	427	7	49	1	120	220	320	NaN	520	0.334578673355281	2	0	NaN	5704560.789309	NaN	5704561.7727159	5704562.28924493
117	23	0	0	90	36.1581920903955	36.241610738255	25	0.833408900536597	2	2	4	NaN	1	5	0.0501030471703878	0	1	NaN	428	7	50	1	120	220	320	NaN	520	0.188050673343241	2	0	NaN	5704563.4395621	NaN	5704564.4229638	5704564.93950363
117	23	0	0	90	36.1581920903955	36.241610738255	22	0.733399832472205	2	4	2	NaN	1	4	0.0501030471703878	0	1	NaN	429	7	51	1	120	220	320	NaN	520	0.0104083735495806	2	0	NaN	5704565.9398118	NaN	5704566.9232114	5704567.43975013
117	23	0	0	90	36.1581920903955	36.241610738255	6	0.200018136128783	2	3	4	NaN	1	4	0.0501030471703878	0	1	NaN	430	7	52	1	120	220	320	NaN	520	0.193372368812561	2	0	NaN	5704568.2899191	NaN	5704569.2734413	5704569.78998653
117	23	0	0	90	36.1581920903955	36.241610738255	15	0.500045340321958	2	11	2	NaN	2	5	0.0501030471703878	0	1	NaN	431	7	53	1	120	220	320	NaN	520	0.0105266077443957	2	1	NaN	5704570.7902787	NaN	5704571.7736845	5704572.29022249
117	23	0	0	90	36.1581920903955	36.241610738255	17	0.566718052364886	2	4	2	NaN	1	4	0.0501030471703878	0	1	NaN	432	7	54	1	120	220	320	NaN	520	0.30408292170614	1	1	NaN	5704573.1237179	NaN	5704574.1072494	5704574.62379678
117	23	0	0	90	36.1581920903955	36.241610738255	24	0.800072544515133	2	5	2	NaN	1	3	0.0501030471703878	0	1	NaN	433	7	55	1	120	220	320	NaN	520	0.190746572799981	1	1	NaN	5704575.7407784	NaN	5704576.7241758	5704577.24071343
117	23	0	0	90	36.1581920903955	36.241610738255	10	0.333363560214639	2	11	1	NaN	2	5	0.0501030471703878	0	1	NaN	434	7	56	1	120	220	320	NaN	520	0.122899425216019	2	1	NaN	5704578.2410183	NaN	5704579.2243951	5704579.74097097
117	23	0	0	90	36.1581920903955	36.241610738255	15	0.500045340321958	2	12	6	NaN	2	3	0.0501030471703878	0	1	NaN	435	7	57	1	120	220	320	NaN	520	0.400960369035602	1	0	NaN	5704580.6745847	NaN	5704581.6579882	5704582.17452803
117	23	0	0	90	36.1581920903955	36.241610738255	18	0.60005440838635	2	5	2	NaN	1	4	0.0501030471703878	0	1	NaN	436	7	58	1	120	220	320	NaN	520	0.260461325757205	1	1	NaN	5704583.3915152	NaN	5704584.3749143	5704584.89146967
117	23	0	0	90	36.1581920903955	36.241610738255	12	0.400036272257566	2	1	4	NaN	1	4	0.0501030471703878	0	1	NaN	437	7	59	1	120	220	320	NaN	520	0.284824472852051	1	1	NaN	5704585.9750957	NaN	5704586.9585227	5704587.47506083
117	23	0	0	90	36.1581920903955	36.241610738255	24	0.800072544515133	2	3	3	NaN	1	3	0.0501030471703878	0	1	NaN	438	7	60	1	120	220	320	NaN	520	0.23658852558583	1	1	NaN	5704588.5753624	NaN	5704589.558764	5704590.07530617
117	23	0	0	90	36.1581920903955	36.241610738255	24	0.800072544515133	2	12	1	NaN	2	4	0.0501030471703878	0	1	NaN	439	7	61	1	120	220	320	NaN	520	0.349975673481822	2	1	NaN	5704591.1256096	NaN	5704592.1090249	5704592.62556143
117	23	0	0	90	36.1581920903955	36.241610738255	21	0.700063476450741	2	1	1	NaN	1	5	0.0501030471703878	0	1	NaN	440	7	62	1	120	220	320	NaN	520	0.0749643733724952	2	0	NaN	5704593.7925435	NaN	5704594.7759544	5704595.29248603
117	23	0	0	90	36.1581920903955	36.241610738255	20	0.666727120429277	2	1	4	NaN	1	3	0.0501030471703878	0	1	NaN	441	7	63	1	120	220	320	NaN	520	0.45951197296381	1	1	NaN	5704596.1760956	NaN	5704597.1595126	5704597.67605263
117	23	0	0	90	36.1581920903955	36.241610738255	15	0.500045340321958	2	9	6	NaN	2	3	0.0501030471703878	0	1	NaN	442	8	1	1	120	220	320	NaN	520	0.221582724712789	1	0	NaN	5704600.109814	NaN	5704601.0932174	5704601.60978387
117	23	0	0	90	36.1581920903955	36.241610738255	0	0	1	6	1	NaN	1	3	0.0501030471703878	0	1	NaN	443	8	2	1	110	210	310	NaN	510	0.280263473279774	1	1	NaN	5704602.6434151	NaN	5704603.6268159	5704604.14335673
117	23	0	0	90	36.1581920903955	36.241610738255	9	0.300027204193175	2	9	6	NaN	2	5	0.0501030471703878	0	1	NaN	444	8	3	1	120	220	320	NaN	520	0.0103967254981399	2	1	NaN	5704605.2436359	NaN	5704606.2270623	5704606.74363817
117	23	0	0	90	36.1581920903955	36.241610738255	23	0.766736188493669	2	2	3	NaN	1	5	0.0501030471703878	0	1	NaN	445	8	4	1	120	220	320	NaN	520	0.0990345738828182	1	1	NaN	5704607.5605852	NaN	5704608.5439616	5704609.06050193
117	23	0	0	90	36.1581920903955	36.241610738255	16	0.533381696343422	2	1	4	NaN	1	5	0.0501030471703878	0	1	NaN	446	8	5	1	120	220	320	NaN	520	0.458102772943676	1	1	NaN	5704609.9774691	NaN	5704610.9608797	5704611.47740973
117	23	0	0	90	36.1581920903955	36.241610738255	24	0.800072544515133	2	3	5	NaN	1	3	0.0501030471703878	0	1	NaN	447	8	6	1	120	220	320	NaN	520	1.04317042138427	1	1	NaN	5704612.7444231	NaN	5704613.7278092	5704614.24435408
117	23	0	0	90	36.1581920903955	36.241610738255	13	0.43337262827903	2	10	6	NaN	2	3	0.0501030471703878	0	1	NaN	448	8	7	1	120	220	320	NaN	520	0.26123796030879	2	1	NaN	5704616.0947196	NaN	5704617.0781346	5704617.59468104
117	23	0	0	90	36.1581920903955	36.241610738255	17	0.566718052364886	2	10	1	NaN	2	5	0.0501030471703878	0	1	NaN	449	8	8	1	120	220	320	NaN	520	0.381109573878348	2	1	NaN	5704618.6783172	NaN	5704619.6617083	5704620.17826963
117	23	0	0	90	36.1581920903955	36.241610738255	22	0.733399832472205	2	4	5	NaN	1	5	0.0501030471703878	0	1	NaN	450	8	9	1	120	220	320	NaN	520	0.0103965252637863	1	1	NaN	5704621.3785799	NaN	5704622.361989	5704622.87853527
117	23	0	0	90	36.1581920903955	36.241610738255	16	0.533381696343422	2	2	4	NaN	1	4	0.0501030471703878	0	1	NaN	451	8	10	1	120	220	320	NaN	520	0.251821273006499	1	1	NaN	5704623.7121507	NaN	5704624.6955761	5704625.21208933
117	23	0	0	90	36.1581920903955	36.241610738255	18	0.60005440838635	2	1	2	NaN	1	5	0.0501030471703878	0	1	NaN	452	8	11	1	120	220	320	NaN	520	0.0444875732064247	1	1	NaN	5704626.2790842	NaN	5704627.2624702	5704627.77900933
117	23	0	0	90	36.1581920903955	36.241610738255	7	0.233354492150247	2	12	2	NaN	2	4	0.0501030471703878	0	1	NaN	453	8	12	1	120	220	320	NaN	520	0.558393773622811	2	1	NaN	5704628.6291905	NaN	5704629.612701	5704630.12924243
117	23	0	0	90	36.1581920903955	36.241610738255	15	0.500045340321958	2	8	3	NaN	2	3	0.0501030471703878	0	1	NaN	454	8	13	1	120	220	320	NaN	520	0.203439691103995	2	1	NaN	5704631.4962447	NaN	5704632.479631	5704632.99619131
117	23	0	0	90	36.1581920903955	36.241610738255	10	0.333363560214639	2	7	1	NaN	2	3	0.0501030471703878	0	1	NaN	455	8	14	1	120	220	320	NaN	520	0.16682768240571	2	1	NaN	5704634.0131644	NaN	5704634.9965622	5704635.51310382
