subjno	age	gender	isPractice	viewdist	CmToPixX	CmToPixY	SOA_frm	SOA_time	targNum	targID	targExample	targRace	targGender	firstTargPos	contrast	familiarity	curr_staircase	iStair	TrialNum	BlockNum	blktrl	sessionNum	TC_FIXATION	TC_RSVP_START	TC_RSVP_END	TC_BLANK	TC_RESPONSE_ONSET	RT2afc	resp_2afc	acc	RSVPOnsetVBL	RSVPOnsetTime	RSVPOffsetVBL	RSVPOffsetTime	startrt_2afc
79	20	0	0	90	36.1581920903955	36.241610738255	10	0.333368240110576	2	4	4	NaN	1	3	0.0351553496624043	0	1	NaN	1	1	1	1	120	220	320	NaN	520	0.770018680021167	2	0	NaN	3288744.4951049	NaN	3288745.4783247	3288746.01146842
79	20	0	0	90	36.1581920903955	36.241610738255	14	0.466715536154807	2	1	4	NaN	1	4	0.0351553496624043	0	1	NaN	2	1	2	1	120	220	320	NaN	520	1.59626923222095	2	0	NaN	3288747.6287111	NaN	3288748.6120132	3288749.14510887
79	20	0	0	90	36.1581920903955	36.241610738255	20	0.666736480221152	2	8	6	NaN	2	4	0.0351553496624043	0	1	NaN	3	1	3	1	120	220	320	NaN	520	2.6702546318993	2	1	NaN	3288751.5622046	NaN	3288752.5455938	3288753.07883087
79	20	0	0	90	36.1581920903955	36.241610738255	24	0.800083776265383	2	11	4	NaN	2	3	0.0351553496624043	0	1	NaN	4	1	4	1	120	220	320	NaN	520	0.773777675814927	1	0	NaN	3288756.5793638	NaN	3288757.5627631	3288758.07931552
79	20	0	0	90	36.1581920903955	36.241610738255	21	0.70007330423221	2	3	6	NaN	1	3	0.0351553496624043	0	1	NaN	5	1	5	1	120	220	320	NaN	520	3.18542642798275	2	0	NaN	3288759.6796697	NaN	3288760.6630679	3288761.17962137
79	20	0	0	90	36.1581920903955	36.241610738255	9	0.300031416099519	2	9	5	NaN	2	5	0.0351553496624043	0	1	NaN	6	1	6	1	120	220	320	NaN	520	0.668517128098756	1	0	NaN	3288765.1968845	NaN	3288766.1802743	3288766.69682527
79	20	0	0	90	36.1581920903955	36.241610738255	17	0.566726008187979	2	4	2	NaN	1	5	0.0351553496624043	0	1	NaN	7	1	7	1	120	220	320	NaN	520	1.06058952817693	2	0	NaN	3288768.1805477	NaN	3288769.1639113	3288769.68045957
79	20	0	0	90	36.1581920903955	36.241610738255	23	0.766746952254325	2	2	4	NaN	1	4	0.0351553496624043	0	1	NaN	8	1	8	1	120	220	320	NaN	520	2.20536647597328	1	1	NaN	3288771.564166	NaN	3288772.5475811	3288773.06412252
79	20	0	0	90	36.1581920903955	36.241610738255	9	0.300031416099519	2	5	6	NaN	1	5	0.0351553496624043	0	1	NaN	9	1	9	1	120	220	320	NaN	520	1.07124873204157	1	1	NaN	3288776.0979234	NaN	3288777.0813544	3288777.59791287
79	20	0	0	90	36.1581920903955	36.241610738255	9	0.300031416099519	2	11	3	NaN	2	4	0.0351553496624043	0	1	NaN	10	1	10	1	120	220	320	NaN	520	1.27869652817026	2	1	NaN	3288779.4982883	NaN	3288780.4816895	3288780.99824547
79	20	0	0	90	36.1581920903955	36.241610738255	11	0.366705064121634	2	11	2	NaN	2	5	0.0351553496624043	0	1	NaN	11	1	11	1	120	220	320	NaN	520	3.58277607616037	1	0	NaN	3288783.0986475	NaN	3288784.0820789	3288784.59859892
79	20	0	0	90	36.1581920903955	36.241610738255	13	0.433378712143749	2	3	2	NaN	1	4	0.0351553496624043	0	1	NaN	12	1	12	1	120	220	320	NaN	520	1.91391217615455	1	1	NaN	3288788.9992064	NaN	3288789.9826286	3288790.49917592
79	20	0	0	90	36.1581920903955	36.241610738255	6	0.200020944066346	2	9	2	NaN	2	4	0.0351553496624043	0	1	NaN	13	1	13	1	120	220	320	NaN	520	0.905076876282692	1	0	NaN	3288793.4163017	NaN	3288794.3997673	3288794.91627062
79	20	0	0	90	36.1581920903955	36.241610738255	18	0.600062832199037	2	10	5	NaN	2	3	0.0351553496624043	0	1	NaN	14	1	14	1	120	220	320	NaN	520	2.59993947576731	2	1	NaN	3288796.6333535	NaN	3288797.6167105	3288798.13325632
79	20	0	0	90	36.1581920903955	36.241610738255	18	0.600062832199037	2	11	2	NaN	2	5	0.0351553496624043	0	1	NaN	15	1	15	1	120	220	320	NaN	520	1.16274602804333	2	1	NaN	3288801.5503119	NaN	3288802.5339129	3288803.05041517
79	20	0	0	90	36.1581920903955	36.241610738255	25	0.83342060027644	2	4	2	NaN	1	3	0.0351553496624043	0	1	NaN	16	1	16	1	120	220	320	NaN	520	0.494919675868005	1	1	NaN	3288805.0340248	NaN	3288806.0175631	3288806.53408882
79	20	0	0	90	36.1581920903955	36.241610738255	25	0.83342060027644	2	8	2	NaN	2	4	0.0351553496624043	0	1	NaN	17	1	17	1	120	220	320	NaN	520	3.6461558281444	1	0	NaN	3288807.8510931	NaN	3288808.8345013	3288809.35103317
79	20	0	0	90	36.1581920903955	36.241610738255	23	0.766746952254325	2	7	6	NaN	2	4	0.0351553496624043	0	1	NaN	18	1	18	1	120	220	320	NaN	520	0.503185575827956	2	1	NaN	3288813.8183548	NaN	3288814.8017669	3288815.31828602
79	20	0	0	90	36.1581920903955	36.241610738255	19	0.633399656210095	2	3	4	NaN	1	3	0.0351553496624043	0	1	NaN	19	1	19	1	120	220	320	NaN	520	2.46179702784866	2	0	NaN	3288816.6351408	NaN	3288817.6186813	3288818.13522937
79	20	0	0	90	36.1581920903955	36.241610738255	6	0.200020944066346	2	5	6	NaN	1	4	0.0351553496624043	0	1	NaN	20	1	20	1	120	220	320	NaN	520	0.526124976109713	1	1	NaN	3288821.418994	NaN	3288822.4025448	3288822.91903892
79	20	0	0	90	36.1581920903955	36.241610738255	6	0.200020944066346	2	4	5	NaN	1	5	0.0351553496624043	0	1	NaN	21	1	21	1	120	220	320	NaN	520	0.827798231970519	1	1	NaN	3288824.2693696	NaN	3288825.2527677	3288825.76932287
79	20	0	0	90	36.1581920903955	36.241610738255	13	0.433378712143749	2	5	4	NaN	1	3	0.0351553496624043	0	1	NaN	22	1	22	1	120	220	320	NaN	520	3.10968993231654	1	1	NaN	3288827.4196648	NaN	3288828.4030782	3288828.91963397
79	20	0	0	90	36.1581920903955	36.241610738255	13	0.433378712143749	2	4	6	NaN	1	5	0.0351553496624043	0	1	NaN	23	1	23	1	120	220	320	NaN	520	0.475713843945414	2	0	NaN	3288832.8536667	NaN	3288833.8369654	3288834.35349736
79	20	0	0	90	36.1581920903955	36.241610738255	14	0.466715536154807	2	8	6	NaN	2	5	0.0351553496624043	0	1	NaN	24	1	24	1	120	220	320	NaN	520	1.63570622820407	1	0	NaN	3288835.6536905	NaN	3288836.6372542	3288837.15377607
79	20	0	0	90	36.1581920903955	36.241610738255	17	0.566726008187979	2	9	1	NaN	2	4	0.0351553496624043	0	1	NaN	25	1	25	1	120	220	320	NaN	520	3.39727407600731	1	0	NaN	3288839.6042042	NaN	3288840.5876278	3288841.10415872
79	20	0	0	90	36.1581920903955	36.241610738255	15	0.500052360165864	2	2	6	NaN	1	4	0.0351553496624043	0	1	NaN	26	1	26	1	120	220	320	NaN	520	0.975790272001177	1	1	NaN	3288845.3214338	NaN	3288846.3048332	3288846.82139213
79	20	0	0	90	36.1581920903955	36.241610738255	16	0.533389184176922	2	1	6	NaN	1	5	0.0351553496624043	0	1	NaN	27	1	27	1	120	220	320	NaN	520	0.553478028159589	2	0	NaN	3288848.6717503	NaN	3288849.6551721	3288850.17172177
79	20	0	0	90	36.1581920903955	36.241610738255	14	0.466715536154807	2	5	2	NaN	1	3	0.0351553496624043	0	1	NaN	28	1	28	1	120	220	320	NaN	520	0.534514239989221	1	1	NaN	3288851.5387077	NaN	3288852.5221238	3288853.03867666
79	20	0	0	90	36.1581920903955	36.241610738255	18	0.600062832199037	2	1	6	NaN	1	4	0.0351553496624043	0	1	NaN	29	1	29	1	120	220	320	NaN	520	1.49257692834362	1	1	NaN	3288854.3890074	NaN	3288855.3724073	3288855.88895167
79	20	0	0	90	36.1581920903955	36.241610738255	8	0.266694592088461	2	2	3	NaN	1	3	0.0351553496624043	0	1	NaN	30	1	30	1	120	220	320	NaN	520	4.1950330757536	1	1	NaN	3288858.2060348	NaN	3288859.1893593	3288859.70599302
79	20	0	0	90	36.1581920903955	36.241610738255	15	0.500052360165864	2	1	4	NaN	1	5	0.0351553496624043	0	1	NaN	31	1	31	1	120	220	320	NaN	520	0.0103907282464206	1	1	NaN	3288864.7233569	NaN	3288865.7067958	3288866.22330587
79	20	0	0	90	36.1581920903955	36.241610738255	17	0.566726008187979	2	8	5	NaN	2	3	0.0351553496624043	0	1	NaN	32	1	32	1	120	220	320	NaN	520	2.34475977625698	2	1	NaN	3288867.0569821	NaN	3288868.040314	3288868.55686422
79	20	0	0	90	36.1581920903955	36.241610738255	22	0.733410128243267	2	9	3	NaN	2	3	0.0351553496624043	0	1	NaN	33	1	33	1	120	220	320	NaN	520	2.22116167610511	2	1	NaN	3288871.7240468	NaN	3288872.7074257	3288873.22398522
79	20	0	0	90	36.1581920903955	36.241610738255	12	0.400041888132691	2	1	2	NaN	1	3	0.0351553496624043	0	1	NaN	34	1	34	1	120	220	320	NaN	520	0.799496576189995	2	0	NaN	3288876.2578417	NaN	3288877.2411806	3288877.75776562
79	20	0	0	90	36.1581920903955	36.241610738255	19	0.633399656210095	2	9	5	NaN	2	5	0.0351553496624043	0	1	NaN	35	1	35	1	120	220	320	NaN	520	0.0104061760939658	2	1	NaN	3288879.3748485	NaN	3288880.3582464	3288880.87473992
79	20	0	0	90	36.1581920903955	36.241610738255	20	0.666736480221152	2	3	1	NaN	1	5	0.0351553496624043	0	1	NaN	36	1	36	1	120	220	320	NaN	520	0.477266428526491	2	0	NaN	3288881.7083556	NaN	3288882.6917547	3288883.20831667
79	20	0	0	90	36.1581920903955	36.241610738255	0	0	1	12	1	NaN	2	3	0.0351553496624043	0	1	NaN	37	1	37	1	110	210	310	NaN	510	1.51347662834451	1	0	NaN	3288884.5919869	NaN	3288885.5754279	3288886.09192007
79	20	0	0	90	36.1581920903955	36.241610738255	0	0	1	3	3	NaN	1	5	0.0351553496624043	0	1	NaN	38	1	38	1	110	210	310	NaN	510	1.00747702410445	1	1	NaN	3288888.4256903	NaN	3288889.4090865	3288889.92563208
79	20	0	0	90	36.1581920903955	36.241610738255	8	0.266694592088461	2	3	3	NaN	1	4	0.0351553496624043	0	1	NaN	39	1	39	1	120	220	320	NaN	520	2.84261187631637	2	0	NaN	3288891.7426749	NaN	3288892.7260979	3288893.24262392
79	20	0	0	90	36.1581920903955	36.241610738255	24	0.800083776265383	2	2	4	NaN	1	3	0.0351553496624043	0	1	NaN	40	1	40	1	120	220	320	NaN	520	0.939607576001436	2	0	NaN	3288896.9098611	NaN	3288897.8932636	3288898.40980072
79	20	0	0	90	36.1581920903955	36.241610738255	13	0.433378712143749	2	5	3	NaN	1	5	0.0351553496624043	0	1	NaN	41	1	41	1	120	220	320	NaN	520	0.489093280397356	1	1	NaN	3288900.1602001	NaN	3288901.1435843	3288901.66013282
79	20	0	0	90	36.1581920903955	36.241610738255	19	0.633399656210095	2	1	4	NaN	1	4	0.0351553496624043	0	1	NaN	42	1	42	1	120	220	320	NaN	520	0.497349875979125	1	1	NaN	3288902.9604734	NaN	3288903.943859	3288904.46040192
79	20	0	0	90	36.1581920903955	36.241610738255	0	0	1	1	3	NaN	1	3	0.0351553496624043	0	1	NaN	43	1	43	1	110	210	310	NaN	510	1.31216902844608	1	1	NaN	3288905.7773946	NaN	3288906.7607871	3288907.27734277
79	20	0	0	90	36.1581920903955	36.241610738255	15	0.500052360165864	2	4	5	NaN	1	5	0.0351553496624043	0	1	NaN	44	1	44	1	120	220	320	NaN	520	3.33443262428045	1	1	NaN	3288909.4110854	NaN	3288910.3943821	3288910.91103208
79	20	0	0	90	36.1581920903955	36.241610738255	10	0.333368240110576	2	10	4	NaN	2	4	0.0351553496624043	0	1	NaN	45	1	45	1	120	220	320	NaN	520	0.923636476043612	2	1	NaN	3288915.0616508	NaN	3288916.0450682	3288916.56158902
79	20	0	0	90	36.1581920903955	36.241610738255	14	0.466715536154807	2	2	1	NaN	1	5	0.0351553496624043	0	1	NaN	46	1	46	1	120	220	320	NaN	520	0.466089075896889	2	0	NaN	3288918.2951652	NaN	3288919.2786998	3288919.79524462
79	20	0	0	90	36.1581920903955	36.241610738255	21	0.70007330423221	2	2	3	NaN	1	3	0.0351553496624043	0	1	NaN	47	1	47	1	120	220	320	NaN	520	1.57834417605773	2	0	NaN	3288921.0789241	NaN	3288922.0622936	3288922.57885222
79	20	0	0	90	36.1581920903955	36.241610738255	15	0.500052360165864	2	12	2	NaN	2	5	0.0351553496624043	0	1	NaN	48	1	48	1	120	220	320	NaN	520	0.886043080594391	2	1	NaN	3288924.9793005	NaN	3288925.9626832	3288926.47924132
79	20	0	0	90	36.1581920903955	36.241610738255	16	0.533389184176922	2	8	3	NaN	2	5	0.0351553496624043	0	1	NaN	49	1	49	1	120	220	320	NaN	520	1.49937502807006	2	1	NaN	3288928.2462815	NaN	3288929.2296712	3288929.74622087
79	20	0	0	90	36.1581920903955	36.241610738255	12	0.400041888132691	2	6	4	NaN	1	4	0.0351553496624043	0	1	NaN	50	1	50	1	120	220	320	NaN	520	0.59485287591815	1	1	NaN	3288932.0466272	NaN	3288933.030054	3288933.54659902
79	20	0	0	90	36.1581920903955	36.241610738255	19	0.633399656210095	2	9	4	NaN	2	3	0.0351553496624043	0	1	NaN	51	1	51	1	120	220	320	NaN	520	0.790011384058744	2	1	NaN	3288934.9636032	NaN	3288935.9469967	3288936.46356232
79	20	0	0	90	36.1581920903955	36.241610738255	17	0.566726008187979	2	9	1	NaN	2	4	0.0351553496624043	0	1	NaN	52	1	52	1	120	220	320	NaN	520	2.68141912436113	2	1	NaN	3288938.0639178	NaN	3288939.047294	3288939.56385288
79	20	0	0	90	36.1581920903955	36.241610738255	11	0.366705064121634	2	8	2	NaN	2	3	0.0351553496624043	0	1	NaN	53	1	53	1	120	220	320	NaN	520	0.761098524089903	2	1	NaN	3288943.0644209	NaN	3288944.0477996	3288944.56434908
79	20	0	0	90	36.1581920903955	36.241610738255	8	0.266694592088461	2	7	4	NaN	2	3	0.0351553496624043	0	1	NaN	54	1	54	1	120	220	320	NaN	520	1.08635077578947	2	1	NaN	3288946.1313862	NaN	3288947.1147689	3288947.63132302
79	20	0	0	90	36.1581920903955	36.241610738255	6	0.200020944066346	2	11	4	NaN	2	4	0.0351553496624043	0	1	NaN	55	1	55	1	120	220	320	NaN	520	2.54976542806253	2	1	NaN	3288949.5317231	NaN	3288950.5151192	3288951.03165717
79	20	0	0	90	36.1581920903955	36.241610738255	25	0.83342060027644	2	1	6	NaN	1	4	0.0351553496624043	0	1	NaN	56	1	56	1	120	220	320	NaN	520	0.834895280189812	2	0	NaN	3288954.3988594	NaN	3288955.3822557	3288955.89880972
79	20	0	0	90	36.1581920903955	36.241610738255	20	0.666736480221152	2	9	4	NaN	2	5	0.0351553496624043	0	1	NaN	57	1	57	1	120	220	320	NaN	520	0.436128480359912	2	1	NaN	3288957.549142	NaN	3288958.5325851	3288959.04911102
79	20	0	0	90	36.1581920903955	36.241610738255	14	0.466715536154807	2	11	4	NaN	2	4	0.0351553496624043	0	1	NaN	58	1	58	1	120	220	320	NaN	520	1.06183367595077	1	0	NaN	3288960.2992932	NaN	3288961.2828039	3288961.79938532
79	20	0	0	90	36.1581920903955	36.241610738255	7	0.233357768077403	2	12	3	NaN	2	5	0.0351553496624043	0	1	NaN	59	1	59	1	120	220	320	NaN	520	1.2706303759478	2	1	NaN	3288963.683132	NaN	3288964.66653	3288965.18304722
79	20	0	0	90	36.1581920903955	36.241610738255	22	0.733410128243267	2	2	4	NaN	1	5	0.0351553496624043	0	1	NaN	60	1	60	1	120	220	320	NaN	520	0.711082272231579	2	0	NaN	3288967.2667839	NaN	3288968.2501615	3288968.76673053
79	20	0	0	90	36.1581920903955	36.241610738255	20	0.666736480221152	2	6	5	NaN	1	4	0.0351553496624043	0	1	NaN	61	1	61	1	120	220	320	NaN	520	1.8216315805912	2	0	NaN	3288970.2837567	NaN	3288971.2671378	3288971.78369672
79	20	0	0	90	36.1581920903955	36.241610738255	7	0.233357768077403	2	1	2	NaN	1	4	0.0351553496624043	0	1	NaN	62	1	62	1	120	220	320	NaN	520	0.575968428514898	2	0	NaN	3288974.4175079	NaN	3288975.4008906	3288975.91744477
79	20	0	0	90	36.1581920903955	36.241610738255	17	0.566726008187979	2	12	2	NaN	2	4	0.0351553496624043	0	1	NaN	63	1	63	1	120	220	320	NaN	520	1.38040102832019	2	1	NaN	3288977.3011073	NaN	3288978.2845086	3288978.80105977
79	20	0	0	90	36.1581920903955	36.241610738255	18	0.600062832199037	2	10	3	NaN	2	4	0.0351553496624043	0	1	NaN	64	2	1	1	120	220	320	NaN	520	0.503878675866872	2	1	NaN	3288999.1699021	NaN	3289000.1533278	3289000.66987312
79	20	0	0	90	36.1581920903955	36.241610738255	18	0.600062832199037	2	9	6	NaN	2	5	0.0351553496624043	0	1	NaN	65	2	2	1	120	220	320	NaN	520	0.9269187762402	2	1	NaN	3289001.986879	NaN	3289002.9702772	3289003.48681512
79	20	0	0	90	36.1581920903955	36.241610738255	11	0.366705064121634	2	7	6	NaN	2	3	0.0351553496624043	0	1	NaN	66	2	3	1	120	220	320	NaN	520	0.332308228127658	2	1	NaN	3289005.2371985	NaN	3289006.2205799	3289006.73714267
79	20	0	0	90	36.1581920903955	36.241610738255	22	0.733410128243267	2	10	5	NaN	2	3	0.0351553496624043	0	1	NaN	67	2	4	1	120	220	320	NaN	520	0.450036728288978	2	1	NaN	3289007.8874532	NaN	3289008.8708593	3289009.38740607
79	20	0	0	90	36.1581920903955	36.241610738255	20	0.666736480221152	2	3	2	NaN	1	3	0.0351553496624043	0	1	NaN	68	2	5	1	120	220	320	NaN	520	1.73108832817525	2	0	NaN	3289010.6543962	NaN	3289011.6378025	3289012.15434437
79	20	0	0	90	36.1581920903955	36.241610738255	14	0.466715536154807	2	4	3	NaN	1	3	0.0351553496624043	0	1	NaN	69	2	6	1	120	220	320	NaN	520	0.385058076120913	1	1	NaN	3289014.7047946	NaN	3289015.6881958	3289016.20473952
79	20	0	0	90	36.1581920903955	36.241610738255	22	0.733410128243267	2	11	6	NaN	2	3	0.0351553496624043	0	1	NaN	70	2	7	1	120	220	320	NaN	520	0.350006528198719	2	1	NaN	3289017.5717062	NaN	3289018.5551245	3289019.07169237
79	20	0	0	90	36.1581920903955	36.241610738255	15	0.500052360165864	2	12	1	NaN	2	3	0.0351553496624043	0	1	NaN	71	2	8	1	120	220	320	NaN	520	0.938794128131121	1	0	NaN	3289020.2385526	NaN	3289021.22208	3289021.73861777
79	20	0	0	90	36.1581920903955	36.241610738255	13	0.433378712143749	2	6	4	NaN	1	4	0.0351553496624043	0	1	NaN	72	2	9	1	120	220	320	NaN	520	0.336765228305012	1	1	NaN	3289023.488991	NaN	3289024.4724292	3289024.98893417
79	20	0	0	90	36.1581920903955	36.241610738255	22	0.733410128243267	2	9	2	NaN	2	5	0.0351553496624043	0	1	NaN	73	2	10	1	120	220	320	NaN	520	0.462643343955278	1	0	NaN	3289026.1392597	NaN	3289027.1226347	3289027.63920276
79	20	0	0	90	36.1581920903955	36.241610738255	0	0	1	5	1	NaN	1	3	0.0351553496624043	0	1	NaN	74	2	11	1	110	210	310	NaN	510	2.43155942810699	2	0	NaN	3289029.1061024	NaN	3289030.0896125	3289030.60616157
79	20	0	0	90	36.1581920903955	36.241610738255	15	0.500052360165864	2	5	5	NaN	1	3	0.0351553496624043	0	1	NaN	75	2	12	1	120	220	320	NaN	520	0.465538328513503	1	1	NaN	3289033.8400385	NaN	3289034.8234206	3289035.33996637
79	20	0	0	90	36.1581920903955	36.241610738255	8	0.266694592088461	2	5	5	NaN	1	4	0.0351553496624043	0	1	NaN	76	2	13	1	120	220	320	NaN	520	0.362309280782938	1	1	NaN	3289036.6069603	NaN	3289037.5903591	3289038.10689912
79	20	0	0	90	36.1581920903955	36.241610738255	7	0.233357768077403	2	5	4	NaN	1	4	0.0351553496624043	0	1	NaN	77	2	14	1	120	220	320	NaN	520	0.350994328036904	1	1	NaN	3289039.2905532	NaN	3289040.2739309	3289040.79049607
79	20	0	0	90	36.1581920903955	36.241610738255	8	0.266694592088461	2	11	3	NaN	2	5	0.0351553496624043	0	1	NaN	78	2	15	1	120	220	320	NaN	520	2.05997347598895	1	0	NaN	3289041.9574757	NaN	3289042.9408737	3289043.45743092
79	20	0	0	90	36.1581920903955	36.241610738255	23	0.766746952254325	2	4	3	NaN	1	5	0.0351553496624043	0	1	NaN	79	2	16	1	120	220	320	NaN	520	1.00422797584906	2	0	NaN	3289046.3411044	NaN	3289047.3246353	3289047.84119152
79	20	0	0	90	36.1581920903955	36.241610738255	19	0.633399656210095	2	7	3	NaN	2	3	0.0351553496624043	0	1	NaN	80	2	17	1	120	220	320	NaN	520	1.00728447595611	2	1	NaN	3289049.6582226	NaN	3289050.6415317	3289051.15817922
79	20	0	0	90	36.1581920903955	36.241610738255	23	0.766746952254325	2	12	2	NaN	2	3	0.0351553496624043	0	1	NaN	81	2	18	1	120	220	320	NaN	520	1.14630227629095	1	0	NaN	3289052.9752199	NaN	3289053.9586189	3289054.47517802
79	20	0	0	90	36.1581920903955	36.241610738255	21	0.70007330423221	2	10	6	NaN	2	5	0.0351553496624043	0	1	NaN	82	2	19	1	120	220	320	NaN	520	0.703952428419143	1	0	NaN	3289056.4422423	NaN	3289057.4256483	3289057.94218147
79	20	0	0	90	36.1581920903955	36.241610738255	22	0.733410128243267	2	6	2	NaN	1	4	0.0351553496624043	0	1	NaN	83	2	20	1	120	220	320	NaN	520	0.862419924233109	2	0	NaN	3289059.4591577	NaN	3289060.442632	3289060.95914118
79	20	0	0	90	36.1581920903955	36.241610738255	18	0.600062832199037	2	3	1	NaN	1	5	0.0351553496624043	0	1	NaN	84	2	21	1	120	220	320	NaN	520	1.08695807633922	1	1	NaN	3289062.6428433	NaN	3289063.6262476	3289064.14279652
79	20	0	0	90	36.1581920903955	36.241610738255	17	0.566726008187979	2	3	5	NaN	1	3	0.0351553496624043	0	1	NaN	85	2	22	1	120	220	320	NaN	520	0.390663928352296	1	1	NaN	3289066.0431552	NaN	3289067.0265879	3289067.54313487
79	20	0	0	90	36.1581920903955	36.241610738255	10	0.333368240110576	2	6	6	NaN	1	3	0.0351553496624043	0	1	NaN	86	2	23	1	120	220	320	NaN	520	0.650115875992924	1	1	NaN	3289068.7434446	NaN	3289069.7268661	3289070.24339212
79	20	0	0	90	36.1581920903955	36.241610738255	9	0.300031416099519	2	12	4	NaN	2	3	0.0351553496624043	0	1	NaN	87	2	24	1	120	220	320	NaN	520	0.763163080438972	2	1	NaN	3289071.7104214	NaN	3289072.6938133	3289073.21035622
79	20	0	0	90	36.1581920903955	36.241610738255	6	0.200020944066346	2	10	5	NaN	2	3	0.0351553496624043	0	1	NaN	88	2	25	1	120	220	320	NaN	520	0.432487028185278	1	0	NaN	3289074.7773759	NaN	3289075.7607832	3289076.27732677
79	20	0	0	90	36.1581920903955	36.241610738255	11	0.366705064121634	2	4	4	NaN	1	5	0.0351553496624043	0	1	NaN	89	2	26	1	120	220	320	NaN	520	0.596260875929147	1	1	NaN	3289077.677632	NaN	3289078.6610408	3289079.17760632
79	20	0	0	90	36.1581920903955	36.241610738255	11	0.366705064121634	2	6	3	NaN	1	5	0.0351553496624043	0	1	NaN	90	2	27	1	120	220	320	NaN	520	0.57483558030799	1	1	NaN	3289080.5946196	NaN	3289081.5780251	3289082.09455962
79	20	0	0	90	36.1581920903955	36.241610738255	0	0	1	4	4	NaN	1	3	0.0351553496624043	0	1	NaN	91	2	28	1	110	210	310	NaN	510	1.26768252858892	1	1	NaN	3289083.4782572	NaN	3289084.4616521	3289084.97818747
79	20	0	0	90	36.1581920903955	36.241610738255	10	0.333368240110576	2	11	2	NaN	2	5	0.0351553496624043	0	1	NaN	92	2	29	1	120	220	320	NaN	520	0.395660127978772	2	1	NaN	3289087.0619149	NaN	3289088.0453917	3289088.56186317
79	20	0	0	90	36.1581920903955	36.241610738255	12	0.400041888132691	2	2	3	NaN	1	3	0.0351553496624043	0	1	NaN	93	2	30	1	120	220	320	NaN	520	1.33531837631017	2	0	NaN	3289089.7621796	NaN	3289090.7455832	3289091.26213082
79	20	0	0	90	36.1581920903955	36.241610738255	14	0.466715536154807	2	2	3	NaN	1	5	0.0351553496624043	0	1	NaN	94	2	31	1	120	220	320	NaN	520	0.453398080542684	1	1	NaN	3289093.4125372	NaN	3289094.3959473	3289094.91249632
79	20	0	0	90	36.1581920903955	36.241610738255	24	0.800083776265383	2	5	2	NaN	1	4	0.0351553496624043	0	1	NaN	95	2	32	1	120	220	320	NaN	520	0.102207828313112	1	1	NaN	3289096.1794831	NaN	3289097.1628927	3289097.67943837
79	20	0	0	90	36.1581920903955	36.241610738255	6	0.200020944066346	2	1	3	NaN	1	4	0.0351553496624043	0	1	NaN	96	2	33	1	120	220	320	NaN	520	0.0852740281261504	1	1	NaN	3289098.5964805	NaN	3289099.5797896	3289100.09635477
79	20	0	0	90	36.1581920903955	36.241610738255	24	0.800083776265383	2	12	6	NaN	2	3	0.0351553496624043	0	1	NaN	97	2	34	1	120	220	320	NaN	520	1.90108887571841	2	1	NaN	3289100.9966143	NaN	3289101.9800202	3289102.49657072
79	20	0	0	90	36.1581920903955	36.241610738255	14	0.466715536154807	2	11	2	NaN	2	4	0.0351553496624043	0	1	NaN	98	2	35	1	120	220	320	NaN	520	1.10814892826602	2	1	NaN	3289105.2137095	NaN	3289106.1970873	3289106.71367407
79	20	0	0	90	36.1581920903955	36.241610738255	20	0.666736480221152	2	9	2	NaN	2	5	0.0351553496624043	0	1	NaN	99	2	36	1	120	220	320	NaN	520	0.379248576238751	2	1	NaN	3289108.6307097	NaN	3289109.6141028	3289110.13065632
79	20	0	0	90	36.1581920903955	36.241610738255	16	0.533389184176922	2	7	1	NaN	2	3	0.0351553496624043	0	1	NaN	100	2	37	1	120	220	320	NaN	520	0.79893392836675	1	0	NaN	3289111.330979	NaN	3289112.3144089	3289112.83092487
79	20	0	0	90	36.1581920903955	36.241610738255	20	0.666736480221152	2	4	6	NaN	1	4	0.0351553496624043	0	1	NaN	101	2	38	1	120	220	320	NaN	520	0.441830076277256	2	0	NaN	3289114.4480019	NaN	3289115.4313476	3289115.94789372
79	20	0	0	90	36.1581920903955	36.241610738255	6	0.200020944066346	2	8	6	NaN	2	5	0.0351553496624043	0	1	NaN	102	2	39	1	120	220	320	NaN	520	0.323771143797785	1	0	NaN	3289117.1981511	NaN	3289118.181596	3289118.69816926
79	20	0	0	90	36.1581920903955	36.241610738255	20	0.666736480221152	2	1	6	NaN	1	3	0.0351553496624043	0	1	NaN	103	2	40	1	120	220	320	NaN	520	2.17789937602356	1	1	NaN	3289119.8318165	NaN	3289120.8152129	3289121.33176502
79	20	0	0	90	36.1581920903955	36.241610738255	0	0	1	10	6	NaN	2	5	0.0351553496624043	0	1	NaN	104	2	41	1	110	210	310	NaN	510	0.0138799883425236	2	1	NaN	3289124.3155848	NaN	3289125.2989759	3289125.81554341
79	20	0	0	90	36.1581920903955	36.241610738255	15	0.500052360165864	2	4	1	NaN	1	3	0.0351553496624043	0	1	NaN	105	2	42	1	120	220	320	NaN	520	0.176575476303697	1	1	NaN	3289126.6490274	NaN	3289127.6325432	3289128.14909322
79	20	0	0	90	36.1581920903955	36.241610738255	16	0.533389184176922	2	4	3	NaN	1	3	0.0351553496624043	0	1	NaN	106	2	43	1	120	220	320	NaN	520	0.980809628032148	1	1	NaN	3289129.132715	NaN	3289130.1161516	3289130.63267317
79	20	0	0	90	36.1581920903955	36.241610738255	10	0.333368240110576	2	7	2	NaN	2	4	0.0351553496624043	0	1	NaN	107	2	44	1	120	220	320	NaN	520	0.569279072340578	2	1	NaN	3289132.4164102	NaN	3289133.3997853	3289133.91633393
79	20	0	0	90	36.1581920903955	36.241610738255	18	0.600062832199037	2	5	5	NaN	1	4	0.0351553496624043	0	1	NaN	108	2	45	1	120	220	320	NaN	520	0.845616480335593	1	1	NaN	3289135.2999923	NaN	3289136.2833994	3289136.79995232
79	20	0	0	90	36.1581920903955	36.241610738255	7	0.233357768077403	2	6	5	NaN	1	5	0.0351553496624043	0	1	NaN	109	2	46	1	120	220	320	NaN	520	0.286673424299806	1	1	NaN	3289138.4669982	NaN	3289139.4503829	3289139.96693268
79	20	0	0	90	36.1581920903955	36.241610738255	9	0.300031416099519	2	6	6	NaN	1	5	0.0351553496624043	0	1	NaN	110	2	47	1	120	220	320	NaN	520	0.774703832343221	1	1	NaN	3289141.0671368	NaN	3289142.0506551	3289142.56719357
79	20	0	0	90	36.1581920903955	36.241610738255	20	0.666736480221152	2	10	6	NaN	2	5	0.0351553496624043	0	1	NaN	111	2	48	1	120	220	320	NaN	520	0.506747680250555	1	0	NaN	3289144.1508627	NaN	3289145.1342801	3289145.65082452
79	20	0	0	90	36.1581920903955	36.241610738255	7	0.233357768077403	2	11	6	NaN	2	5	0.0351553496624043	0	1	NaN	112	2	49	1	120	220	320	NaN	520	0.745757980272174	2	1	NaN	3289146.9678065	NaN	3289147.951236	3289148.46777382
79	20	0	0	90	36.1581920903955	36.241610738255	16	0.533389184176922	2	8	5	NaN	2	4	0.0351553496624043	0	1	NaN	113	2	50	1	120	220	320	NaN	520	0.910678276326507	2	1	NaN	3289150.0348081	NaN	3289151.0181905	3289151.53473732
79	20	0	0	90	36.1581920903955	36.241610738255	17	0.566726008187979	2	7	2	NaN	2	3	0.0351553496624043	0	1	NaN	114	2	51	1	120	220	320	NaN	520	0.485540180467069	2	1	NaN	3289153.2684633	NaN	3289154.2518359	3289154.76839222
79	20	0	0	90	36.1581920903955	36.241610738255	23	0.766746952254325	2	9	3	NaN	2	5	0.0351553496624043	0	1	NaN	115	2	52	1	120	220	320	NaN	520	0.357290528248996	1	0	NaN	3289156.0687343	NaN	3289157.0521111	3289157.56867017
79	20	0	0	90	36.1581920903955	36.241610738255	11	0.366705064121634	2	12	2	NaN	2	5	0.0351553496624043	0	1	NaN	116	2	53	1	120	220	320	NaN	520	1.12193279201165	1	0	NaN	3289158.7356476	NaN	3289159.7190554	3289160.23560061
79	20	0	0	90	36.1581920903955	36.241610738255	15	0.500052360165864	2	7	3	NaN	2	4	0.0351553496624043	0	1	NaN	117	2	54	1	120	220	320	NaN	520	0.456589436158538	1	0	NaN	3289162.169331	NaN	3289163.1527168	3289163.66927016
79	20	0	0	90	36.1581920903955	36.241610738255	24	0.800083776265383	2	9	2	NaN	2	5	0.0351553496624043	0	1	NaN	118	2	55	1	120	220	320	NaN	520	0.77631848026067	1	0	NaN	3289164.9694672	NaN	3289165.9529901	3289166.46956042
79	20	0	0	90	36.1581920903955	36.241610738255	21	0.70007330423221	2	1	1	NaN	1	3	0.0351553496624043	0	1	NaN	119	2	56	1	120	220	320	NaN	520	0.65994357643649	2	0	NaN	3289168.0698979	NaN	3289169.0533007	3289169.56984042
79	20	0	0	90	36.1581920903955	36.241610738255	17	0.566726008187979	2	3	6	NaN	1	5	0.0351553496624043	0	1	NaN	120	2	57	1	120	220	320	NaN	520	1.58869512798265	2	0	NaN	3289171.0368612	NaN	3289172.0202606	3289172.53680557
79	20	0	0	90	36.1581920903955	36.241610738255	0	0	1	7	1	NaN	2	5	0.0351553496624043	0	1	NaN	121	2	58	1	110	210	310	NaN	510	0.368547676131129	1	0	NaN	3289174.9372608	NaN	3289175.9206262	3289176.43718632
79	20	0	0	90	36.1581920903955	36.241610738255	13	0.433378712143749	2	2	5	NaN	1	5	0.0351553496624043	0	1	NaN	122	2	59	1	120	220	320	NaN	520	0.332955644000322	1	1	NaN	3289177.620899	NaN	3289178.604245	3289179.12078406
79	20	0	0	90	36.1581920903955	36.241610738255	21	0.70007330423221	2	11	3	NaN	2	4	0.0351553496624043	0	1	NaN	123	2	60	1	120	220	320	NaN	520	0.0103900278918445	2	1	NaN	3289180.2711031	NaN	3289181.2545032	3289181.77104667
79	20	0	0	90	36.1581920903955	36.241610738255	9	0.300031416099519	2	8	3	NaN	2	3	0.0351553496624043	0	1	NaN	124	2	61	1	120	220	320	NaN	520	0.611695580650121	2	1	NaN	3289183.0380203	NaN	3289184.0214935	3289184.53799112
79	20	0	0	90	36.1581920903955	36.241610738255	23	0.766746952254325	2	12	3	NaN	2	5	0.0351553496624043	0	1	NaN	125	2	62	1	120	220	320	NaN	520	0.445994676090777	2	1	NaN	3289185.9716367	NaN	3289186.9550566	3289187.47160502
79	20	0	0	90	36.1581920903955	36.241610738255	11	0.366705064121634	2	6	6	NaN	1	5	0.0351553496624043	0	1	NaN	126	2	63	1	120	220	320	NaN	520	2.39110367605463	1	1	NaN	3289188.7386147	NaN	3289189.7220267	3289190.23854562
79	20	0	0	90	36.1581920903955	36.241610738255	10	0.333368240110576	2	1	3	NaN	1	5	0.0351553496624043	0	1	NaN	127	3	1	1	120	220	320	NaN	520	2.56228143209592	1	1	NaN	3289200.439751	NaN	3289201.4231649	3289201.93970477
79	20	0	0	90	36.1581920903955	36.241610738255	14	0.466715536154807	2	3	4	NaN	1	3	0.0351553496624043	0	1	NaN	128	3	2	1	120	220	320	NaN	520	0.0104069761000574	2	0	NaN	3289205.3068862	NaN	3289206.2902893	3289206.80684822
79	20	0	0	90	36.1581920903955	36.241610738255	16	0.533389184176922	2	6	3	NaN	1	4	0.0351553496624043	0	1	NaN	129	3	3	1	120	220	320	NaN	520	0.289912828244269	1	1	NaN	3289207.6238136	NaN	3289208.6072122	3289209.12374067
79	20	0	0	90	36.1581920903955	36.241610738255	25	0.83342060027644	2	2	6	NaN	1	4	0.0351553496624043	0	1	NaN	130	3	4	1	120	220	320	NaN	520	0.676932571921498	1	1	NaN	3289210.340731	NaN	3289211.3241591	3289211.84066823
79	20	0	0	90	36.1581920903955	36.241610738255	9	0.300031416099519	2	7	1	NaN	2	5	0.0351553496624043	0	1	NaN	131	3	5	1	120	220	320	NaN	520	10.5013254280202	1	0	NaN	3289213.3243396	NaN	3289214.3077468	3289214.82430257
79	20	0	0	90	36.1581920903955	36.241610738255	7	0.233357768077403	2	6	3	NaN	1	5	0.0351553496624043	0	1	NaN	132	3	6	1	120	220	320	NaN	520	0.010439976118505	1	1	NaN	3289226.1422761	NaN	3289227.1256797	3289227.64222882
79	20	0	0	90	36.1581920903955	36.241610738255	19	0.633399656210095	2	10	6	NaN	2	5	0.0351553496624043	0	1	NaN	133	3	7	1	120	220	320	NaN	520	0.662724828347564	2	1	NaN	3289228.4591766	NaN	3289229.4425923	3289229.95912787
79	20	0	0	90	36.1581920903955	36.241610738255	24	0.800083776265383	2	10	1	NaN	2	4	0.0351553496624043	0	1	NaN	134	3	8	1	120	220	320	NaN	520	0.391028776299208	2	1	NaN	3289231.4427945	NaN	3289232.4262117	3289232.94275262
79	20	0	0	90	36.1581920903955	36.241610738255	9	0.300031416099519	2	2	6	NaN	1	4	0.0351553496624043	0	1	NaN	135	3	9	1	120	220	320	NaN	520	1.29852137994021	2	0	NaN	3289234.1430123	NaN	3289235.1264918	3289235.64302282
79	20	0	0	90	36.1581920903955	36.241610738255	20	0.666736480221152	2	7	2	NaN	2	3	0.0351553496624043	0	1	NaN	136	3	10	1	120	220	320	NaN	520	0.63359337579459	2	1	NaN	3289237.7600863	NaN	3289238.7433932	3289239.26003472
79	20	0	0	90	36.1581920903955	36.241610738255	21	0.70007330423221	2	9	2	NaN	2	4	0.0351553496624043	0	1	NaN	137	3	11	1	120	220	320	NaN	520	1.6353066759184	2	1	NaN	3289240.7102452	NaN	3289241.6937818	3289242.21033422
79	20	0	0	90	36.1581920903955	36.241610738255	21	0.70007330423221	2	9	3	NaN	2	4	0.0351553496624043	0	1	NaN	138	3	12	1	120	220	320	NaN	520	0.445220176130533	2	1	NaN	3289244.6607745	NaN	3289245.6441651	3289246.16071862
79	20	0	0	90	36.1581920903955	36.241610738255	13	0.433378712143749	2	2	2	NaN	1	3	0.0351553496624043	0	1	NaN	139	3	13	1	120	220	320	NaN	520	1.0467516281642	1	1	NaN	3289247.4110427	NaN	3289248.3944926	3289248.91099147
79	20	0	0	90	36.1581920903955	36.241610738255	0	0	1	9	6	NaN	2	3	0.0351553496624043	0	1	NaN	140	3	14	1	110	210	310	NaN	510	0.367904876358807	2	1	NaN	3289250.7780351	NaN	3289251.7614306	3289252.27798902
79	20	0	0	90	36.1581920903955	36.241610738255	12	0.400041888132691	2	10	2	NaN	2	5	0.0351553496624043	0	1	NaN	141	3	15	1	120	220	320	NaN	520	0.844217528123409	1	0	NaN	3289253.4616331	NaN	3289254.4450505	3289254.96158077
79	20	0	0	90	36.1581920903955	36.241610738255	10	0.333368240110576	2	7	2	NaN	2	5	0.0351553496624043	0	1	NaN	142	3	16	1	120	220	320	NaN	520	1.14949348801747	2	1	NaN	3289256.6286478	NaN	3289257.6120619	3289258.12857231
79	20	0	0	90	36.1581920903955	36.241610738255	7	0.233357768077403	2	3	6	NaN	1	3	0.0351553496624043	0	1	NaN	143	3	17	1	120	220	320	NaN	520	1.4823561757803	2	0	NaN	3289260.0956266	NaN	3289261.0790153	3289261.59557282
79	20	0	0	90	36.1581920903955	36.241610738255	11	0.366705064121634	2	2	1	NaN	1	3	0.0351553496624043	0	1	NaN	144	3	18	1	120	220	320	NaN	520	0.377780476119369	1	1	NaN	3289263.8960153	NaN	3289264.87941	3289265.39594122
79	20	0	0	90	36.1581920903955	36.241610738255	17	0.566726008187979	2	2	6	NaN	1	3	0.0351553496624043	0	1	NaN	145	3	19	1	120	220	320	NaN	520	0.81351582845673	2	0	NaN	3289266.596187	NaN	3289267.5796601	3289268.09621397
79	20	0	0	90	36.1581920903955	36.241610738255	22	0.733410128243267	2	12	1	NaN	2	5	0.0351553496624043	0	1	NaN	146	3	20	1	120	220	320	NaN	520	0.455913584213704	2	1	NaN	3289269.7299333	NaN	3289270.7133075	3289271.22985722
79	20	0	0	90	36.1581920903955	36.241610738255	25	0.83342060027644	2	8	6	NaN	2	5	0.0351553496624043	0	1	NaN	147	3	21	1	120	220	320	NaN	520	0.585176380351186	2	1	NaN	3289272.4968487	NaN	3289273.4802432	3289273.99680112
79	20	0	0	90	36.1581920903955	36.241610738255	10	0.333368240110576	2	1	4	NaN	1	5	0.0351553496624043	0	1	NaN	148	3	22	1	120	220	320	NaN	520	0.861056128051132	1	1	NaN	3289275.397022	NaN	3289276.3805258	3289276.89707907
79	20	0	0	90	36.1581920903955	36.241610738255	22	0.733410128243267	2	7	3	NaN	2	4	0.0351553496624043	0	1	NaN	149	3	23	1	120	220	320	NaN	520	0.38173332856968	2	1	NaN	3289278.5641124	NaN	3289279.5475259	3289280.06405267
79	20	0	0	90	36.1581920903955	36.241610738255	23	0.766746952254325	2	4	2	NaN	1	3	0.0351553496624043	0	1	NaN	150	3	24	1	120	220	320	NaN	520	0.898018775973469	1	1	NaN	3289281.2477197	NaN	3289282.2311125	3289282.74765462
79	20	0	0	90	36.1581920903955	36.241610738255	25	0.83342060027644	2	11	2	NaN	2	3	0.0351553496624043	0	1	NaN	151	3	25	1	120	220	320	NaN	520	0.601070228032768	2	1	NaN	3289284.4646922	NaN	3289285.448101	3289285.96464057
79	20	0	0	90	36.1581920903955	36.241610738255	24	0.800083776265383	2	2	1	NaN	1	3	0.0351553496624043	0	1	NaN	152	3	26	1	120	220	320	NaN	520	0.476156228221953	1	1	NaN	3289287.3816434	NaN	3289288.3651205	3289288.88159847
79	20	0	0	90	36.1581920903955	36.241610738255	24	0.800083776265383	2	4	6	NaN	1	5	0.0351553496624043	0	1	NaN	153	3	27	1	120	220	320	NaN	520	0.276432828046381	1	1	NaN	3289290.1652543	NaN	3289291.1486623	3289291.66520137
79	20	0	0	90	36.1581920903955	36.241610738255	18	0.600062832199037	2	2	6	NaN	1	4	0.0351553496624043	0	1	NaN	154	3	28	1	120	220	320	NaN	520	1.37290067598224	2	0	NaN	3289292.7486797	NaN	3289293.7323093	3289294.24878262
79	20	0	0	90	36.1581920903955	36.241610738255	20	0.666736480221152	2	12	1	NaN	2	5	0.0351553496624043	0	1	NaN	155	3	29	1	120	220	320	NaN	520	0.0103912283666432	1	0	NaN	3289296.4325376	NaN	3289297.415955	3289297.93248757
79	20	0	0	90	36.1581920903955	36.241610738255	16	0.533389184176922	2	5	3	NaN	1	5	0.0351553496624043	0	1	NaN	156	3	30	1	120	220	320	NaN	520	1.22839042823762	2	0	NaN	3289298.7494211	NaN	3289299.7328404	3289300.24938467
79	20	0	0	90	36.1581920903955	36.241610738255	8	0.266694592088461	2	9	5	NaN	2	5	0.0351553496624043	0	1	NaN	157	3	31	1	120	220	320	NaN	520	0.638036475982517	2	1	NaN	3289302.2997902	NaN	3289303.2831905	3289303.79973092
79	20	0	0	90	36.1581920903955	36.241610738255	10	0.333368240110576	2	2	4	NaN	1	3	0.0351553496624043	0	1	NaN	158	3	32	1	120	220	320	NaN	520	0.655642928089947	2	0	NaN	3289305.2500591	NaN	3289306.2334758	3289306.75001877
79	20	0	0	90	36.1581920903955	36.241610738255	7	0.233357768077403	2	3	1	NaN	1	4	0.0351553496624043	0	1	NaN	159	3	33	1	120	220	320	NaN	520	0.745173780247569	2	0	NaN	3289308.2170255	NaN	3289309.2004763	3289309.71698402
79	20	0	0	90	36.1581920903955	36.241610738255	9	0.300031416099519	2	5	6	NaN	1	4	0.0351553496624043	0	1	NaN	160	3	34	1	120	220	320	NaN	520	0.387688675895333	1	1	NaN	3289311.3340182	NaN	3289312.3174014	3289312.83395042
79	20	0	0	90	36.1581920903955	36.241610738255	6	0.200020944066346	2	6	4	NaN	1	4	0.0351553496624043	0	1	NaN	161	3	35	1	120	220	320	NaN	520	0.43994588823989	1	1	NaN	3289314.0342682	NaN	3289315.0176826	3289315.53421481
79	20	0	0	90	36.1581920903955	36.241610738255	7	0.233357768077403	2	12	3	NaN	2	3	0.0351553496624043	0	1	NaN	162	3	36	1	120	220	320	NaN	520	0.905336775816977	2	1	NaN	3289316.7845361	NaN	3289317.7679444	3289318.28449142
79	20	0	0	90	36.1581920903955	36.241610738255	11	0.366705064121634	2	1	4	NaN	1	3	0.0351553496624043	0	1	NaN	163	3	37	1	120	220	320	NaN	520	1.85673942836002	1	1	NaN	3289320.0015262	NaN	3289320.9849174	3289321.50147257
79	20	0	0	90	36.1581920903955	36.241610738255	17	0.566726008187979	2	5	2	NaN	1	3	0.0351553496624043	0	1	NaN	164	3	38	1	120	220	320	NaN	520	0.337195428553969	1	1	NaN	3289324.1685946	NaN	3289325.1520009	3289325.66855237
79	20	0	0	90	36.1581920903955	36.241610738255	14	0.466715536154807	2	7	6	NaN	2	3	0.0351553496624043	0	1	NaN	165	3	39	1	120	220	320	NaN	520	2.11093092430383	1	0	NaN	3289326.8187357	NaN	3289327.8022448	3289328.31882858
79	20	0	0	90	36.1581920903955	36.241610738255	15	0.500052360165864	2	9	1	NaN	2	3	0.0351553496624043	0	1	NaN	166	3	40	1	120	220	320	NaN	520	0.981949536129832	1	0	NaN	3289331.236063	NaN	3289332.219366	3289332.73591706
79	20	0	0	90	36.1581920903955	36.241610738255	25	0.83342060027644	2	3	6	NaN	1	4	0.0351553496624043	0	1	NaN	167	3	41	1	120	220	320	NaN	520	2.62548912828788	2	0	NaN	3289334.5362313	NaN	3289335.5197064	3289336.03625507
79	20	0	0	90	36.1581920903955	36.241610738255	22	0.733410128243267	2	2	2	NaN	1	5	0.0351553496624043	0	1	NaN	168	3	42	1	120	220	320	NaN	520	0.580110276117921	1	1	NaN	3289339.4701228	NaN	3289340.4534958	3289340.97005132
79	20	0	0	90	36.1581920903955	36.241610738255	16	0.533389184176922	2	7	2	NaN	2	5	0.0351553496624043	0	1	NaN	169	3	43	1	120	220	320	NaN	520	0.351844428107142	2	1	NaN	3289342.3703922	NaN	3289343.3537775	3289343.87034597
79	20	0	0	90	36.1581920903955	36.241610738255	24	0.800083776265383	2	6	1	NaN	1	3	0.0351553496624043	0	1	NaN	170	3	44	1	120	220	320	NaN	520	0.396771376021206	1	1	NaN	3289345.0373278	NaN	3289346.0207536	3289346.53727052
79	20	0	0	90	36.1581920903955	36.241610738255	0	0	1	4	6	NaN	1	3	0.0351553496624043	0	1	NaN	171	3	45	1	110	210	310	NaN	510	0.383619228377938	1	1	NaN	3289347.7542771	NaN	3289348.7376244	3289349.25420417
79	20	0	0	90	36.1581920903955	36.241610738255	19	0.633399656210095	2	11	4	NaN	2	3	0.0351553496624043	0	1	NaN	172	3	46	1	120	220	320	NaN	520	0.468061775900424	1	0	NaN	3289350.4378442	NaN	3289351.4212523	3289351.93780342
79	20	0	0	90	36.1581920903955	36.241610738255	19	0.633399656210095	2	3	4	NaN	1	5	0.0351553496624043	0	1	NaN	173	3	47	1	120	220	320	NaN	520	1.53258267603815	2	0	NaN	3289353.2214675	NaN	3289354.20486	3289354.72140412
79	20	0	0	90	36.1581920903955	36.241610738255	9	0.300031416099519	2	3	6	NaN	1	3	0.0351553496624043	0	1	NaN	174	3	48	1	120	220	320	NaN	520	0.298292475752532	1	1	NaN	3289357.0718468	NaN	3289358.0552511	3289358.57178962
79	20	0	0	90	36.1581920903955	36.241610738255	12	0.400041888132691	2	1	5	NaN	1	5	0.0351553496624043	0	1	NaN	175	3	49	1	120	220	320	NaN	520	0.625135475769639	2	0	NaN	3289359.6887654	NaN	3289360.67216	3289361.18871922
79	20	0	0	90	36.1581920903955	36.241610738255	20	0.666736480221152	2	10	4	NaN	2	5	0.0351553496624043	0	1	NaN	176	3	50	1	120	220	320	NaN	520	1.45164477592334	2	1	NaN	3289362.622321	NaN	3289363.6058369	3289364.12232922
79	20	0	0	90	36.1581920903955	36.241610738255	12	0.400041888132691	2	2	1	NaN	1	4	0.0351553496624043	0	1	NaN	177	3	51	1	120	220	320	NaN	520	0.388338776305318	2	0	NaN	3289366.3894271	NaN	3289367.3728346	3289367.88937442
79	20	0	0	90	36.1581920903955	36.241610738255	13	0.433378712143749	2	12	4	NaN	2	3	0.0351553496624043	0	1	NaN	178	3	52	1	120	220	320	NaN	520	1.24835048802197	2	1	NaN	3289369.08954	NaN	3289370.0731057	3289370.58964451
79	20	0	0	90	36.1581920903955	36.241610738255	22	0.733410128243267	2	1	2	NaN	1	3	0.0351553496624043	0	1	NaN	179	3	53	1	120	220	320	NaN	520	0.289435327984393	2	0	NaN	3289372.6567043	NaN	3289373.6400964	3289374.15667507
79	20	0	0	90	36.1581920903955	36.241610738255	9	0.300031416099519	2	8	2	NaN	2	5	0.0351553496624043	0	1	NaN	180	3	54	1	120	220	320	NaN	520	0.552980628330261	2	1	NaN	3289375.2569486	NaN	3289376.2403567	3289376.75691727
79	20	0	0	90	36.1581920903955	36.241610738255	14	0.466715536154807	2	8	5	NaN	2	5	0.0351553496624043	0	1	NaN	181	3	55	1	120	220	320	NaN	520	0.950198828242719	2	1	NaN	3289378.1238699	NaN	3289379.1073066	3289379.62386327
79	20	0	0	90	36.1581920903955	36.241610738255	11	0.366705064121634	2	7	5	NaN	2	4	0.0351553496624043	0	1	NaN	182	3	56	1	120	220	320	NaN	520	0.987204575911164	2	1	NaN	3289381.3909048	NaN	3289382.3743264	3289382.89084452
79	20	0	0	90	36.1581920903955	36.241610738255	15	0.500052360165864	2	9	5	NaN	2	5	0.0351553496624043	0	1	NaN	183	3	57	1	120	220	320	NaN	520	1.1027936283499	2	1	NaN	3289384.691231	NaN	3289385.674639	3289386.19117767
79	20	0	0	90	36.1581920903955	36.241610738255	13	0.433378712143749	2	11	1	NaN	2	3	0.0351553496624043	0	1	NaN	184	3	58	1	120	220	320	NaN	520	0.558030575979501	2	1	NaN	3289388.1080887	NaN	3289389.0916347	3289389.60817392
79	20	0	0	90	36.1581920903955	36.241610738255	19	0.633399656210095	2	5	1	NaN	1	4	0.0351553496624043	0	1	NaN	185	3	59	1	120	220	320	NaN	520	0.387095980346203	1	1	NaN	3289390.9752752	NaN	3289391.9586428	3289392.47512912
79	20	0	0	90	36.1581920903955	36.241610738255	23	0.766746952254325	2	8	6	NaN	2	5	0.0351553496624043	0	1	NaN	186	3	60	1	120	220	320	NaN	520	0.49490082450211	2	1	NaN	3289393.6754276	NaN	3289394.6588557	3289395.17538458
79	20	0	0	90	36.1581920903955	36.241610738255	21	0.70007330423221	2	6	5	NaN	1	5	0.0351553496624043	0	1	NaN	187	3	61	1	120	220	320	NaN	520	0.36600472824648	1	1	NaN	3289396.4923801	NaN	3289397.475788	3289397.99233697
79	20	0	0	90	36.1581920903955	36.241610738255	13	0.433378712143749	2	9	1	NaN	2	5	0.0351553496624043	0	1	NaN	188	3	62	1	120	220	320	NaN	520	2.2983934758231	2	1	NaN	3289399.1759921	NaN	3289400.1594135	3289400.67593602
79	20	0	0	90	36.1581920903955	36.241610738255	10	0.333368240110576	2	8	4	NaN	2	5	0.0351553496624043	0	1	NaN	189	3	63	1	120	220	320	NaN	520	0.649088728241622	2	1	NaN	3289403.7931067	NaN	3289404.7764996	3289405.29305017
79	20	0	0	90	36.1581920903955	36.241610738255	17	0.566726008187979	2	1	1	NaN	1	3	0.0351553496624043	0	1	NaN	190	4	1	1	120	220	320	NaN	520	0.454361327923834	1	1	NaN	3289438.3798458	NaN	3289439.3632319	3289439.87979127
79	20	0	0	90	36.1581920903955	36.241610738255	19	0.633399656210095	2	5	3	NaN	1	5	0.0351553496624043	0	1	NaN	191	4	2	1	120	220	320	NaN	520	0.943221976049244	1	1	NaN	3289441.1467724	NaN	3289442.1301735	3289442.64672992
79	20	0	0	90	36.1581920903955	36.241610738255	14	0.466715536154807	2	6	1	NaN	1	4	0.0351553496624043	0	1	NaN	192	4	3	1	120	220	320	NaN	520	0.437235828489065	1	1	NaN	3289444.3971157	NaN	3289445.3805044	3289445.89705577
79	20	0	0	90	36.1581920903955	36.241610738255	22	0.733410128243267	2	12	3	NaN	2	5	0.0351553496624043	0	1	NaN	193	4	4	1	120	220	320	NaN	520	1.19110579183325	1	0	NaN	3289447.1473859	NaN	3289448.1307776	3289448.64732101
79	20	0	0	90	36.1581920903955	36.241610738255	21	0.70007330423221	2	4	5	NaN	1	4	0.0351553496624043	0	1	NaN	194	4	5	1	120	220	320	NaN	520	3.28227478032932	2	0	NaN	3289450.6475833	NaN	3289451.6311413	3289452.14766822
79	20	0	0	90	36.1581920903955	36.241610738255	25	0.83342060027644	2	7	6	NaN	2	4	0.0351553496624043	0	1	NaN	195	4	6	1	120	220	320	NaN	520	0.506106775719672	2	1	NaN	3289456.2482727	NaN	3289457.2316732	3289457.74821842
79	20	0	0	90	36.1581920903955	36.241610738255	17	0.566726008187979	2	7	1	NaN	2	3	0.0351553496624043	0	1	NaN	196	4	7	1	120	220	320	NaN	520	1.28069382812828	2	1	NaN	3289459.0820067	NaN	3289460.0652657	3289460.58183467
79	20	0	0	90	36.1581920903955	36.241610738255	19	0.633399656210095	2	8	1	NaN	2	5	0.0351553496624043	0	1	NaN	197	4	8	1	120	220	320	NaN	520	0.791958744172007	2	1	NaN	3289462.6822269	NaN	3289463.6656479	3289464.18219036
79	20	0	0	90	36.1581920903955	36.241610738255	17	0.566726008187979	2	11	3	NaN	2	5	0.0351553496624043	0	1	NaN	198	4	9	1	120	220	320	NaN	520	0.0189109845086932	1	0	NaN	3289465.7992177	NaN	3289466.7826236	3289467.29916312
79	20	0	0	90	36.1581920903955	36.241610738255	14	0.466715536154807	2	7	4	NaN	2	4	0.0351553496624043	0	1	NaN	199	4	10	1	120	220	320	NaN	520	0.31757682794705	2	1	NaN	3289468.1328034	NaN	3289469.1161802	3289469.63272727
79	20	0	0	90	36.1581920903955	36.241610738255	0	0	1	8	5	NaN	2	4	0.0351553496624043	0	1	NaN	200	4	11	1	110	210	310	NaN	510	1.9316200283356	2	1	NaN	3289470.7663704	NaN	3289471.749793	3289472.26631947
79	20	0	0	90	36.1581920903955	36.241610738255	0	0	1	12	6	NaN	2	5	0.0351553496624043	0	1	NaN	201	4	12	1	110	210	310	NaN	510	0.585214775986969	2	1	NaN	3289475.0167926	NaN	3289476.0001823	3289476.51672772
79	20	0	0	90	36.1581920903955	36.241610738255	16	0.533389184176922	2	2	4	NaN	1	4	0.0351553496624043	0	1	NaN	202	4	13	1	120	220	320	NaN	520	0.861135476268828	2	0	NaN	3289477.9170728	NaN	3289478.9004503	3289479.41701762
79	20	0	0	90	36.1581920903955	36.241610738255	16	0.533389184176922	2	1	1	NaN	1	4	0.0351553496624043	0	1	NaN	203	4	14	1	120	220	320	NaN	520	0.326253376435488	2	0	NaN	3289481.0840547	NaN	3289482.0674458	3289482.58399702
79	20	0	0	90	36.1581920903955	36.241610738255	7	0.233357768077403	2	8	2	NaN	2	4	0.0351553496624043	0	1	NaN	204	4	15	1	120	220	320	NaN	520	1.36436102818698	2	1	NaN	3289483.7176435	NaN	3289484.7010195	3289485.21759367
79	20	0	0	90	36.1581920903955	36.241610738255	6	0.200020944066346	2	3	2	NaN	1	5	0.0351553496624043	0	1	NaN	205	4	16	1	120	220	320	NaN	520	0.640606943983585	2	0	NaN	3289487.401343	NaN	3289488.3847645	3289488.90129726
79	20	0	0	90	36.1581920903955	36.241610738255	13	0.433378712143749	2	10	2	NaN	2	5	0.0351553496624043	0	1	NaN	206	4	17	1	120	220	320	NaN	520	0.0103882281109691	1	0	NaN	3289490.3516174	NaN	3289491.3350381	3289491.85157847
79	20	0	0	90	36.1581920903955	36.241610738255	24	0.800083776265383	2	1	6	NaN	1	4	0.0351553496624043	0	1	NaN	207	4	18	1	120	220	320	NaN	520	1.25355947576463	2	0	NaN	3289492.6684123	NaN	3289493.6519483	3289494.16846762
79	20	0	0	90	36.1581920903955	36.241610738255	21	0.70007330423221	2	6	5	NaN	1	4	0.0351553496624043	0	1	NaN	208	4	19	1	120	220	320	NaN	520	0.318529875949025	1	1	NaN	3289496.2353922	NaN	3289497.2189298	3289497.73549072
79	20	0	0	90	36.1581920903955	36.241610738255	19	0.633399656210095	2	4	4	NaN	1	4	0.0351553496624043	0	1	NaN	209	4	20	1	120	220	320	NaN	520	0.621020128019154	2	0	NaN	3289498.8691603	NaN	3289499.8525338	3289500.36908447
79	20	0	0	90	36.1581920903955	36.241610738255	9	0.300031416099519	2	1	3	NaN	1	5	0.0351553496624043	0	1	NaN	210	4	21	1	120	220	320	NaN	520	1.13529078057036	1	1	NaN	3289501.8027592	NaN	3289502.7861683	3289503.30270532
79	20	0	0	90	36.1581920903955	36.241610738255	21	0.70007330423221	2	1	6	NaN	1	5	0.0351553496624043	0	1	NaN	211	4	22	1	120	220	320	NaN	520	0.285392476245761	2	0	NaN	3289505.2530869	NaN	3289506.2365088	3289506.75303742
79	20	0	0	90	36.1581920903955	36.241610738255	14	0.466715536154807	2	12	6	NaN	2	5	0.0351553496624043	0	1	NaN	212	4	23	1	120	220	320	NaN	520	0.780630028340966	2	1	NaN	3289507.8533579	NaN	3289508.8367452	3289509.35329527
79	20	0	0	90	36.1581920903955	36.241610738255	0	0	1	2	2	NaN	1	3	0.0351553496624043	0	1	NaN	213	4	24	1	110	210	310	NaN	510	1.20055689616129	1	1	NaN	3289510.9536621	NaN	3289511.9370595	3289512.4536131
79	20	0	0	90	36.1581920903955	36.241610738255	23	0.766746952254325	2	9	6	NaN	2	3	0.0351553496624043	0	1	NaN	214	4	25	1	120	220	320	NaN	520	0.643882828298956	1	0	NaN	3289514.4706927	NaN	3289515.4541017	3289515.97061857
79	20	0	0	90	36.1581920903955	36.241610738255	8	0.266694592088461	2	3	3	NaN	1	5	0.0351553496624043	0	1	NaN	215	4	26	1	120	220	320	NaN	520	1.26904017617926	1	1	NaN	3289517.4209677	NaN	3289518.4043579	3289518.92091012
79	20	0	0	90	36.1581920903955	36.241610738255	15	0.500052360165864	2	11	1	NaN	2	3	0.0351553496624043	0	1	NaN	216	4	27	1	120	220	320	NaN	520	0.701586128212512	2	1	NaN	3289521.0045354	NaN	3289521.9880601	3289522.50459797
79	20	0	0	90	36.1581920903955	36.241610738255	11	0.366705064121634	2	12	1	NaN	2	5	0.0351553496624043	0	1	NaN	217	4	28	1	120	220	320	NaN	520	2.51690422464162	2	1	NaN	3289524.021473	NaN	3289525.0049199	3289525.52155958
79	20	0	0	90	36.1581920903955	36.241610738255	15	0.500052360165864	2	1	5	NaN	1	3	0.0351553496624043	0	1	NaN	218	4	29	1	120	220	320	NaN	520	0.42656992841512	1	1	NaN	3289528.8554296	NaN	3289529.8388171	3289530.35537047
79	20	0	0	90	36.1581920903955	36.241610738255	14	0.466715536154807	2	10	2	NaN	2	4	0.0351553496624043	0	1	NaN	219	4	30	1	120	220	320	NaN	520	2.42062932811677	1	0	NaN	3289531.6057193	NaN	3289532.5890944	3289533.10563867
79	20	0	0	90	36.1581920903955	36.241610738255	25	0.83342060027644	2	10	3	NaN	2	3	0.0351553496624043	0	1	NaN	220	4	31	1	120	220	320	NaN	520	1.20653852820396	1	0	NaN	3289536.3393645	NaN	3289537.3228872	3289537.83944527
79	20	0	0	90	36.1581920903955	36.241610738255	23	0.766746952254325	2	7	1	NaN	2	3	0.0351553496624043	0	1	NaN	221	4	32	1	120	220	320	NaN	520	2.11354177584872	2	1	NaN	3289539.8565483	NaN	3289540.8398998	3289541.35645322
79	20	0	0	90	36.1581920903955	36.241610738255	12	0.400041888132691	2	12	5	NaN	2	4	0.0351553496624043	0	1	NaN	222	4	33	1	120	220	320	NaN	520	1.7519534281455	2	1	NaN	3289544.2902732	NaN	3289545.273689	3289545.79022337
79	20	0	0	90	36.1581920903955	36.241610738255	17	0.566726008187979	2	2	6	NaN	1	5	0.0351553496624043	0	1	NaN	223	4	34	1	120	220	320	NaN	520	0.324940880294889	2	0	NaN	3289548.3573062	NaN	3289549.3407424	3289549.85728202
79	20	0	0	90	36.1581920903955	36.241610738255	8	0.266694592088461	2	1	2	NaN	1	4	0.0351553496624043	0	1	NaN	224	4	35	1	120	220	320	NaN	520	0.419697680044919	1	1	NaN	3289550.9909699	NaN	3289551.9743266	3289552.49088582
79	20	0	0	90	36.1581920903955	36.241610738255	18	0.600062832199037	2	8	3	NaN	2	3	0.0351553496624043	0	1	NaN	225	4	36	1	120	220	320	NaN	520	1.90968127595261	2	1	NaN	3289553.7245418	NaN	3289554.707987	3289555.22448192
79	20	0	0	90	36.1581920903955	36.241610738255	10	0.333368240110576	2	10	4	NaN	2	4	0.0351553496624043	0	1	NaN	226	4	37	1	120	220	320	NaN	520	0.364975380245596	2	1	NaN	3289557.9416106	NaN	3289558.9250126	3289559.44156402
79	20	0	0	90	36.1581920903955	36.241610738255	6	0.200020944066346	2	5	3	NaN	1	3	0.0351553496624043	0	1	NaN	227	4	38	1	120	220	320	NaN	520	1.00104297604412	2	0	NaN	3289560.62509	NaN	3289561.6086026	3289562.12515882
79	20	0	0	90	36.1581920903955	36.241610738255	10	0.333368240110576	2	5	4	NaN	1	4	0.0351553496624043	0	1	NaN	228	4	39	1	120	220	320	NaN	520	0.348142927978188	1	1	NaN	3289563.9422289	NaN	3289564.9255837	3289565.44215807
79	20	0	0	90	36.1581920903955	36.241610738255	9	0.300031416099519	2	3	5	NaN	1	5	0.0351553496624043	0	1	NaN	229	4	40	1	120	220	320	NaN	520	0.528838944155723	1	1	NaN	3289566.6091289	NaN	3289567.5925452	3289568.10909186
79	20	0	0	90	36.1581920903955	36.241610738255	19	0.633399656210095	2	10	6	NaN	2	3	0.0351553496624043	0	1	NaN	230	4	41	1	120	220	320	NaN	520	1.19137809611857	2	1	NaN	3289569.4427492	NaN	3289570.4261412	3289570.9427026
79	20	0	0	90	36.1581920903955	36.241610738255	14	0.466715536154807	2	5	1	NaN	1	5	0.0351553496624043	0	1	NaN	231	4	42	1	120	220	320	NaN	520	0.283111436292529	1	1	NaN	3289572.9430939	NaN	3289573.9264917	3289574.44304406
79	20	0	0	90	36.1581920903955	36.241610738255	8	0.266694592088461	2	4	3	NaN	1	3	0.0351553496624043	0	1	NaN	232	4	43	1	120	220	320	NaN	520	0.498950276058167	1	1	NaN	3289575.5433414	NaN	3289576.5267505	3289577.04329432
79	20	0	0	90	36.1581920903955	36.241610738255	15	0.500052360165864	2	2	3	NaN	1	3	0.0351553496624043	0	1	NaN	233	4	44	1	120	220	320	NaN	520	1.59393817605451	2	0	NaN	3289578.3602972	NaN	3289579.3436949	3289579.86024052
79	20	0	0	90	36.1581920903955	36.241610738255	17	0.566726008187979	2	10	3	NaN	2	3	0.0351553496624043	0	1	NaN	234	4	45	1	120	220	320	NaN	520	1.54883852833882	2	1	NaN	3289582.2773403	NaN	3289583.2607875	3289583.77729437
79	20	0	0	90	36.1581920903955	36.241610738255	7	0.233357768077403	2	10	3	NaN	2	5	0.0351553496624043	0	1	NaN	235	4	46	1	120	220	320	NaN	520	0.0104053760878742	2	1	NaN	3289586.1442675	NaN	3289587.1277968	3289587.64433952
79	20	0	0	90	36.1581920903955	36.241610738255	0	0	1	6	1	NaN	1	4	0.0351553496624043	0	1	NaN	236	4	47	1	110	210	310	NaN	510	1.03614762797952	1	1	NaN	3289588.4779725	NaN	3289589.4613614	3289589.97790587
79	20	0	0	90	36.1581920903955	36.241610738255	6	0.200020944066346	2	6	2	NaN	1	4	0.0351553496624043	0	1	NaN	237	4	48	1	120	220	320	NaN	520	0.293835276272148	1	1	NaN	3289591.8282848	NaN	3289592.8116878	3289593.32823632
79	20	0	0	90	36.1581920903955	36.241610738255	12	0.400041888132691	2	5	5	NaN	1	3	0.0351553496624043	0	1	NaN	238	4	49	1	120	220	320	NaN	520	1.10100892838091	1	1	NaN	3289594.4452579	NaN	3289595.4286495	3289595.94515947
79	20	0	0	90	36.1581920903955	36.241610738255	9	0.300031416099519	2	10	5	NaN	2	4	0.0351553496624043	0	1	NaN	239	4	50	1	120	220	320	NaN	520	0.276507792063057	2	1	NaN	3289597.8622284	NaN	3289598.8456447	3289599.36216001
79	20	0	0	90	36.1581920903955	36.241610738255	25	0.83342060027644	2	6	2	NaN	1	5	0.0351553496624043	0	1	NaN	240	4	51	1	120	220	320	NaN	520	1.08429763233289	1	1	NaN	3289600.4458134	NaN	3289601.4291993	3289601.94575757
79	20	0	0	90	36.1581920903955	36.241610738255	12	0.400041888132691	2	8	2	NaN	2	4	0.0351553496624043	0	1	NaN	241	4	52	1	120	220	320	NaN	520	0.275835175998509	2	1	NaN	3289603.8461271	NaN	3289604.8295376	3289605.34607752
79	20	0	0	90	36.1581920903955	36.241610738255	25	0.83342060027644	2	9	5	NaN	2	5	0.0351553496624043	0	1	NaN	242	4	53	1	120	220	320	NaN	520	0.308639128226787	2	1	NaN	3289606.4295959	NaN	3289607.4131168	3289607.92967057
79	20	0	0	90	36.1581920903955	36.241610738255	22	0.733410128243267	2	6	2	NaN	1	5	0.0351553496624043	0	1	NaN	243	4	54	1	120	220	320	NaN	520	0.179614716209471	1	1	NaN	3289609.0466235	NaN	3289610.0300415	3289610.54659118
79	20	0	0	90	36.1581920903955	36.241610738255	15	0.500052360165864	2	5	5	NaN	1	3	0.0351553496624043	0	1	NaN	244	4	55	1	120	220	320	NaN	520	0.984488028101623	1	1	NaN	3289611.5302267	NaN	3289612.513711	3289613.03017547
79	20	0	0	90	36.1581920903955	36.241610738255	8	0.266694592088461	2	1	4	NaN	1	3	0.0351553496624043	0	1	NaN	245	4	56	1	120	220	320	NaN	520	0.460050280205905	2	0	NaN	3289614.8305276	NaN	3289615.8139488	3289616.33050132
79	20	0	0	90	36.1581920903955	36.241610738255	25	0.83342060027644	2	7	1	NaN	2	3	0.0351553496624043	0	1	NaN	246	4	57	1	120	220	320	NaN	520	0.11691427603364	2	1	NaN	3289617.5973703	NaN	3289618.5809028	3289619.09743642
79	20	0	0	90	36.1581920903955	36.241610738255	0	0	1	6	4	NaN	1	5	0.0351553496624043	0	1	NaN	247	4	58	1	110	210	310	NaN	510	0.659657292068005	2	0	NaN	3289620.0310784	NaN	3289621.0144586	3289621.53101121
79	20	0	0	90	36.1581920903955	36.241610738255	18	0.600062832199037	2	4	2	NaN	1	3	0.0351553496624043	0	1	NaN	248	4	59	1	120	220	320	NaN	520	0.396176775917411	1	1	NaN	3289622.9980244	NaN	3289623.9814236	3289624.49796592
79	20	0	0	90	36.1581920903955	36.241610738255	11	0.366705064121634	2	11	5	NaN	2	3	0.0351553496624043	0	1	NaN	249	4	60	1	120	220	320	NaN	520	0.33634888054803	1	0	NaN	3289625.6981668	NaN	3289626.6816847	3289627.19823612
79	20	0	0	90	36.1581920903955	36.241610738255	21	0.70007330423221	2	8	1	NaN	2	5	0.0351553496624043	0	1	NaN	250	4	61	1	120	220	320	NaN	520	1.04563312837854	2	1	NaN	3289628.3485501	NaN	3289629.331853	3289629.84848987
79	20	0	0	90	36.1581920903955	36.241610738255	16	0.533389184176922	2	11	1	NaN	2	3	0.0351553496624043	0	1	NaN	251	4	62	1	120	220	320	NaN	520	0.479366624262184	1	0	NaN	3289631.6987696	NaN	3289632.6822692	3289633.19881868
79	20	0	0	90	36.1581920903955	36.241610738255	14	0.466715536154807	2	10	1	NaN	2	3	0.0351553496624043	0	1	NaN	252	4	63	1	120	220	320	NaN	520	1.58345727622509	2	1	NaN	3289634.4991615	NaN	3289635.4825552	3289635.99909912
79	20	0	0	90	36.1581920903955	36.241610738255	9	0.300031416099519	2	10	2	NaN	2	4	0.0351553496624043	0	1	NaN	253	5	1	1	120	220	320	NaN	520	0.251295580528677	1	0	NaN	3289645.7836006	NaN	3289646.7670051	3289647.28355022
79	20	0	0	90	36.1581920903955	36.241610738255	21	0.70007330423221	2	11	5	NaN	2	4	0.0351553496624043	0	1	NaN	254	5	2	1	120	220	320	NaN	520	0.420079076196998	2	1	NaN	3289648.3505139	NaN	3289649.3339491	3289649.85046292
79	20	0	0	90	36.1581920903955	36.241610738255	12	0.400041888132691	2	3	1	NaN	1	3	0.0351553496624043	0	1	NaN	255	5	3	1	120	220	320	NaN	520	1.07831258000806	1	1	NaN	3289651.0842334	NaN	3289652.067512	3289652.58406642
79	20	0	0	90	36.1581920903955	36.241610738255	8	0.266694592088461	2	11	5	NaN	2	5	0.0351553496624043	0	1	NaN	256	5	4	1	120	220	320	NaN	520	1.04462567577139	2	1	NaN	3289654.5177863	NaN	3289655.5012117	3289656.01774382
79	20	0	0	90	36.1581920903955	36.241610738255	17	0.566726008187979	2	6	2	NaN	1	4	0.0351553496624043	0	1	NaN	257	5	5	1	120	220	320	NaN	520	0.317490028217435	1	1	NaN	3289657.8847299	NaN	3289658.8681837	3289659.38473687
79	20	0	0	90	36.1581920903955	36.241610738255	23	0.766746952254325	2	3	4	NaN	1	4	0.0351553496624043	0	1	NaN	258	5	6	1	120	220	320	NaN	520	0.010406075976789	2	0	NaN	3289660.5183651	NaN	3289661.5018109	3289662.01832512
79	20	0	0	90	36.1581920903955	36.241610738255	12	0.400041888132691	2	9	4	NaN	2	4	0.0351553496624043	0	1	NaN	259	5	7	1	120	220	320	NaN	520	0.010454575996846	1	0	NaN	3289662.8518453	NaN	3289663.8353425	3289664.35188812
79	20	0	0	90	36.1581920903955	36.241610738255	21	0.70007330423221	2	5	4	NaN	1	4	0.0351553496624043	0	1	NaN	260	5	8	1	120	220	320	NaN	520	0.0104065760970116	2	0	NaN	3289665.1688261	NaN	3289666.1522428	3289666.66878272
79	20	0	0	90	36.1581920903955	36.241610738255	23	0.766746952254325	2	2	4	NaN	1	4	0.0351553496624043	0	1	NaN	261	5	9	1	120	220	320	NaN	520	1.6761284279637	2	0	NaN	3289667.5024034	NaN	3289668.4857933	3289669.00235177
79	20	0	0	90	36.1581920903955	36.241610738255	17	0.566726008187979	2	6	1	NaN	1	5	0.0351553496624043	0	1	NaN	262	5	10	1	120	220	320	NaN	520	0.324603975750506	1	1	NaN	3289671.486128	NaN	3289672.4695278	3289672.98607342
79	20	0	0	90	36.1581920903955	36.241610738255	22	0.733410128243267	2	5	2	NaN	1	4	0.0351553496624043	0	1	NaN	263	5	11	1	120	220	320	NaN	520	0.554473496507853	2	0	NaN	3289674.1197314	NaN	3289675.1031169	3289675.6196768
79	20	0	0	90	36.1581920903955	36.241610738255	23	0.766746952254325	2	6	6	NaN	1	3	0.0351553496624043	0	1	NaN	264	5	12	1	120	220	320	NaN	520	0.503694876097143	1	1	NaN	3289676.9866742	NaN	3289677.9700667	3289678.48661032
79	20	0	0	90	36.1581920903955	36.241610738255	0	0	1	2	5	NaN	1	5	0.0351553496624043	0	1	NaN	265	5	13	1	110	210	310	NaN	510	2.60703687602654	2	0	NaN	3289679.8036089	NaN	3289680.7869857	3289681.30356312
79	20	0	0	90	36.1581920903955	36.241610738255	22	0.733410128243267	2	5	6	NaN	1	5	0.0351553496624043	0	1	NaN	266	5	14	1	120	220	320	NaN	520	1.28170167608187	1	1	NaN	3289684.7206348	NaN	3289685.7042016	3289686.22071252
79	20	0	0	90	36.1581920903955	36.241610738255	22	0.733410128243267	2	4	1	NaN	1	5	0.0351553496624043	0	1	NaN	267	5	15	1	120	220	320	NaN	520	0.353437776211649	2	0	NaN	3289688.3211261	NaN	3289689.3045462	3289689.82106542
79	20	0	0	90	36.1581920903955	36.241610738255	13	0.433378712143749	2	6	6	NaN	1	5	0.0351553496624043	0	1	NaN	268	5	16	1	120	220	320	NaN	520	0.318427775986493	2	0	NaN	3289690.9880373	NaN	3289691.9714464	3289692.48799022
79	20	0	0	90	36.1581920903955	36.241610738255	24	0.800083776265383	2	8	5	NaN	2	4	0.0351553496624043	0	1	NaN	269	5	17	1	120	220	320	NaN	520	1.06088538048789	1	0	NaN	3289693.6216682	NaN	3289694.6050598	3289695.12159082
79	20	0	0	90	36.1581920903955	36.241610738255	0	0	1	1	1	NaN	1	3	0.0351553496624043	0	1	NaN	270	5	18	1	110	210	310	NaN	510	0.301080176141113	2	0	NaN	3289697.005308	NaN	3289697.9886043	3289698.50524952
79	20	0	0	90	36.1581920903955	36.241610738255	12	0.400041888132691	2	8	2	NaN	2	5	0.0351553496624043	0	1	NaN	271	5	19	1	120	220	320	NaN	520	0.508530180435628	2	1	NaN	3289699.6222247	NaN	3289700.6056379	3289701.12217922
79	20	0	0	90	36.1581920903955	36.241610738255	9	0.300031416099519	2	4	5	NaN	1	3	0.0351553496624043	0	1	NaN	272	5	20	1	120	220	320	NaN	520	0.891328675672412	1	1	NaN	3289702.439175	NaN	3289703.4225563	3289703.93911782
79	20	0	0	90	36.1581920903955	36.241610738255	11	0.366705064121634	2	8	6	NaN	2	5	0.0351553496624043	0	1	NaN	273	5	21	1	120	220	320	NaN	520	0.410959380678833	1	0	NaN	3289705.6395047	NaN	3289706.6229255	3289707.13943872
79	20	0	0	90	36.1581920903955	36.241610738255	14	0.466715536154807	2	6	3	NaN	1	3	0.0351553496624043	0	1	NaN	274	5	22	1	120	220	320	NaN	520	0.917919180355966	1	1	NaN	3289708.3564206	NaN	3289709.3398181	3289709.85637002
79	20	0	0	90	36.1581920903955	36.241610738255	13	0.433378712143749	2	11	4	NaN	2	4	0.0351553496624043	0	1	NaN	275	5	23	1	120	220	320	NaN	520	1.00472062826157	2	1	NaN	3289711.5900807	NaN	3289712.5734702	3289713.09002407
79	20	0	0	90	36.1581920903955	36.241610738255	18	0.600062832199037	2	7	5	NaN	2	3	0.0351553496624043	0	1	NaN	276	5	24	1	120	220	320	NaN	520	0.42338842805475	2	1	NaN	3289714.9070707	NaN	3289715.8904651	3289716.40701787
79	20	0	0	90	36.1581920903955	36.241610738255	7	0.233357768077403	2	5	3	NaN	1	4	0.0351553496624043	0	1	NaN	277	5	25	1	120	220	320	NaN	520	1.25760272843763	2	0	NaN	3289717.6406616	NaN	3289718.6240776	3289719.14061947
79	20	0	0	90	36.1581920903955	36.241610738255	6	0.200020944066346	2	4	4	NaN	1	3	0.0351553496624043	0	1	NaN	278	5	26	1	120	220	320	NaN	520	0.922715676017106	2	0	NaN	3289721.2076794	NaN	3289722.1910853	3289722.70763462
79	20	0	0	90	36.1581920903955	36.241610738255	8	0.266694592088461	2	9	2	NaN	2	4	0.0351553496624043	0	1	NaN	279	5	27	1	120	220	320	NaN	520	0.449217828456312	2	1	NaN	3289724.4412189	NaN	3289725.4247723	3289725.94128967
79	20	0	0	90	36.1581920903955	36.241610738255	6	0.200020944066346	2	12	6	NaN	2	4	0.0351553496624043	0	1	NaN	280	5	28	1	120	220	320	NaN	520	0.634274323936552	2	1	NaN	3289727.2083018	NaN	3289728.1916877	3289728.70822368
79	20	0	0	90	36.1581920903955	36.241610738255	10	0.333368240110576	2	6	4	NaN	1	5	0.0351553496624043	0	1	NaN	281	5	29	1	120	220	320	NaN	520	1.86009522806853	2	0	NaN	3289730.158596	NaN	3289731.141964	3289731.65851287
79	20	0	0	90	36.1581920903955	36.241610738255	0	0	1	9	6	NaN	2	5	0.0351553496624043	0	1	NaN	282	5	30	1	110	210	310	NaN	510	0.0104129761457443	2	1	NaN	3289734.325649	NaN	3289735.309048	3289735.82559702
79	20	0	0	90	36.1581920903955	36.241610738255	6	0.200020944066346	2	7	5	NaN	2	5	0.0351553496624043	0	1	NaN	283	5	31	1	120	220	320	NaN	520	0.01039132848382	2	1	NaN	3289736.6592336	NaN	3289737.6426264	3289738.15915897
79	20	0	0	90	36.1581920903955	36.241610738255	19	0.633399656210095	2	11	6	NaN	2	5	0.0351553496624043	0	1	NaN	284	5	32	1	120	220	320	NaN	520	1.28172847628593	2	1	NaN	3289738.9927661	NaN	3289739.9761776	3289740.49271972
79	20	0	0	90	36.1581920903955	36.241610738255	18	0.600062832199037	2	7	1	NaN	2	5	0.0351553496624043	0	1	NaN	285	5	33	1	120	220	320	NaN	520	0.0734581281431019	2	1	NaN	3289742.5931315	NaN	3289743.5765175	3289744.09307567
79	20	0	0	90	36.1581920903955	36.241610738255	12	0.400041888132691	2	12	1	NaN	2	3	0.0351553496624043	0	1	NaN	286	5	34	1	120	220	320	NaN	520	0.217887272592634	1	0	NaN	3289744.9765741	NaN	3289745.9601042	3289746.47663933
79	20	0	0	90	36.1581920903955	36.241610738255	24	0.800083776265383	2	7	3	NaN	2	3	0.0351553496624043	0	1	NaN	287	5	35	1	120	220	320	NaN	520	0.0103926286101341	2	1	NaN	3289747.5102886	NaN	3289748.4936939	3289749.01022707
79	20	0	0	90	36.1581920903955	36.241610738255	24	0.800083776265383	2	11	5	NaN	2	3	0.0351553496624043	0	1	NaN	288	5	36	1	120	220	320	NaN	520	1.96741312835366	2	1	NaN	3289749.8271833	NaN	3289750.8105725	3289751.32712767
79	20	0	0	90	36.1581920903955	36.241610738255	19	0.633399656210095	2	6	3	NaN	1	5	0.0351553496624043	0	1	NaN	289	5	37	1	120	220	320	NaN	520	0.0357491280883551	1	1	NaN	3289754.1109305	NaN	3289755.0943289	3289755.61087537
79	20	0	0	90	36.1581920903955	36.241610738255	9	0.300031416099519	2	9	1	NaN	2	5	0.0351553496624043	0	1	NaN	290	5	38	1	120	220	320	NaN	520	0.0103912279009819	1	0	NaN	3289756.4611335	NaN	3289757.4445608	3289757.96111337
79	20	0	0	90	36.1581920903955	36.241610738255	6	0.200020944066346	2	11	1	NaN	2	4	0.0351553496624043	0	1	NaN	291	5	39	1	120	220	320	NaN	520	0.503660028334707	2	1	NaN	3289758.7947266	NaN	3289759.7781363	3289760.29467177
79	20	0	0	90	36.1581920903955	36.241610738255	13	0.433378712143749	2	7	6	NaN	2	3	0.0351553496624043	0	1	NaN	292	5	40	1	120	220	320	NaN	520	1.6148496279493	2	1	NaN	3289761.6115532	NaN	3289762.5950984	3289763.11161457
79	20	0	0	90	36.1581920903955	36.241610738255	16	0.533389184176922	2	10	4	NaN	2	4	0.0351553496624043	0	1	NaN	293	5	41	1	120	220	320	NaN	520	0.121141628362238	2	1	NaN	3289765.5452813	NaN	3289766.5288189	3289767.04533437
79	20	0	0	90	36.1581920903955	36.241610738255	11	0.366705064121634	2	5	3	NaN	1	5	0.0351553496624043	0	1	NaN	294	5	42	1	120	220	320	NaN	520	1.00759107619524	2	0	NaN	3289767.9789555	NaN	3289768.9623735	3289769.47890582
79	20	0	0	90	36.1581920903955	36.241610738255	25	0.83342060027644	2	2	2	NaN	1	5	0.0351553496624043	0	1	NaN	295	5	43	1	120	220	320	NaN	520	0.978669980540872	2	0	NaN	3289771.2959552	NaN	3289772.2792452	3289772.79590342
79	20	0	0	90	36.1581920903955	36.241610738255	23	0.766746952254325	2	5	4	NaN	1	5	0.0351553496624043	0	1	NaN	296	5	44	1	120	220	320	NaN	520	0.391256575938314	2	0	NaN	3289774.5796049	NaN	3289775.5630095	3289776.07955352
79	20	0	0	90	36.1581920903955	36.241610738255	13	0.433378712143749	2	8	1	NaN	2	5	0.0351553496624043	0	1	NaN	297	5	45	1	120	220	320	NaN	520	0.322985491715372	2	1	NaN	3289777.2798761	NaN	3289778.2632516	3289778.77982321
79	20	0	0	90	36.1581920903955	36.241610738255	11	0.366705064121634	2	1	2	NaN	1	4	0.0351553496624043	0	1	NaN	298	5	46	1	120	220	320	NaN	520	0.49741787603125	1	1	NaN	3289779.9134778	NaN	3289780.8968572	3289781.41340862
79	20	0	0	90	36.1581920903955	36.241610738255	12	0.400041888132691	2	10	3	NaN	2	4	0.0351553496624043	0	1	NaN	299	5	47	1	120	220	320	NaN	520	0.256301528308541	2	1	NaN	3289782.7304154	NaN	3289783.7138126	3289784.23036027
79	20	0	0	90	36.1581920903955	36.241610738255	13	0.433378712143749	2	1	1	NaN	1	4	0.0351553496624043	0	1	NaN	300	5	48	1	120	220	320	NaN	520	1.29726177593693	2	0	NaN	3289785.297334	NaN	3289786.280738	3289786.79727982
79	20	0	0	90	36.1581920903955	36.241610738255	15	0.500052360165864	2	6	6	NaN	1	5	0.0351553496624043	0	1	NaN	301	5	49	1	120	220	320	NaN	520	0.256521676201373	1	1	NaN	3289788.9143532	NaN	3289789.8977612	3289790.41429992
79	20	0	0	90	36.1581920903955	36.241610738255	11	0.366705064121634	2	4	6	NaN	1	5	0.0351553496624043	0	1	NaN	302	5	50	1	120	220	320	NaN	520	0.273424728307873	2	0	NaN	3289791.4812835	NaN	3289792.4646687	3289792.98121777
79	20	0	0	90	36.1581920903955	36.241610738255	22	0.733410128243267	2	11	6	NaN	2	5	0.0351553496624043	0	1	NaN	303	5	51	1	120	220	320	NaN	520	1.68193833203986	1	0	NaN	3289794.0648715	NaN	3289795.0482535	3289795.56481977
79	20	0	0	90	36.1581920903955	36.241610738255	0	0	1	5	4	NaN	1	3	0.0351553496624043	0	1	NaN	304	5	52	1	110	210	310	NaN	510	0.393675028346479	2	0	NaN	3289798.0652668	NaN	3289799.0486383	3289799.56519647
79	20	0	0	90	36.1581920903955	36.241610738255	17	0.566726008187979	2	12	4	NaN	2	3	0.0351553496624043	0	1	NaN	305	5	53	1	120	220	320	NaN	520	0.148945928085595	1	0	NaN	3289800.7655261	NaN	3289801.7489338	3289802.26546877
79	20	0	0	90	36.1581920903955	36.241610738255	23	0.766746952254325	2	6	2	NaN	1	4	0.0351553496624043	0	1	NaN	306	5	54	1	120	220	320	NaN	520	1.31420387607068	1	1	NaN	3289803.2324193	NaN	3289804.2158331	3289804.73237382
79	20	0	0	90	36.1581920903955	36.241610738255	20	0.666736480221152	2	4	1	NaN	1	4	0.0351553496624043	0	1	NaN	307	5	55	1	120	220	320	NaN	520	0.424510428216308	1	1	NaN	3289806.8660275	NaN	3289807.8495136	3289808.36606907
79	20	0	0	90	36.1581920903955	36.241610738255	24	0.800083776265383	2	3	4	NaN	1	4	0.0351553496624043	0	1	NaN	308	5	56	1	120	220	320	NaN	520	1.06697462452576	2	0	NaN	3289809.5996739	NaN	3289810.5831561	3289811.09966388
79	20	0	0	90	36.1581920903955	36.241610738255	20	0.666736480221152	2	1	5	NaN	1	3	0.0351553496624043	0	1	NaN	309	5	57	1	120	220	320	NaN	520	0.803412576206028	1	1	NaN	3289812.9833951	NaN	3289813.966782	3289814.48333322
79	20	0	0	90	36.1581920903955	36.241610738255	13	0.433378712143749	2	12	5	NaN	2	4	0.0351553496624043	0	1	NaN	310	5	58	1	120	220	320	NaN	520	0.998056576121598	2	1	NaN	3289816.1003633	NaN	3289817.0837669	3289817.60030572
79	20	0	0	90	36.1581920903955	36.241610738255	16	0.533389184176922	2	3	1	NaN	1	5	0.0351553496624043	0	1	NaN	311	5	59	1	120	220	320	NaN	520	0.257541728205979	2	0	NaN	3289819.4173676	NaN	3289820.4007781	3289820.91730517
79	20	0	0	90	36.1581920903955	36.241610738255	23	0.766746952254325	2	8	5	NaN	2	3	0.0351553496624043	0	1	NaN	312	5	60	1	120	220	320	NaN	520	0.0104091763496399	1	0	NaN	3289821.9842631	NaN	3289822.9676809	3289823.48422562
79	20	0	0	90	36.1581920903955	36.241610738255	8	0.266694592088461	2	2	4	NaN	1	3	0.0351553496624043	0	1	NaN	313	5	61	1	120	220	320	NaN	520	0.629713139962405	2	0	NaN	3289824.3011743	NaN	3289825.2845818	3289825.80111846
79	20	0	0	90	36.1581920903955	36.241610738255	18	0.600062832199037	2	12	2	NaN	2	5	0.0351553496624043	0	1	NaN	314	5	62	1	120	220	320	NaN	520	1.87176087591797	1	0	NaN	3289827.2346655	NaN	3289828.2182373	3289828.73473882
79	20	0	0	90	36.1581920903955	36.241610738255	18	0.600062832199037	2	5	1	NaN	1	5	0.0351553496624043	0	1	NaN	315	5	63	1	120	220	320	NaN	520	0.0104040279984474	2	0	NaN	3289831.4184316	NaN	3289832.4019341	3289832.91848707
79	20	0	0	90	36.1581920903955	36.241610738255	7	0.233357768077403	2	2	3	NaN	1	4	0.0351553496624043	0	1	NaN	316	6	1	1	120	220	320	NaN	520	2.43174728052691	2	0	NaN	3289849.1870373	NaN	3289850.1703556	3289850.68689842
79	20	0	0	90	36.1581920903955	36.241610738255	19	0.633399656210095	2	1	2	NaN	1	5	0.0351553496624043	0	1	NaN	317	6	2	1	120	220	320	NaN	520	0.537199180107564	2	0	NaN	3289853.9374136	NaN	3289854.9207098	3289855.43737032
79	20	0	0	90	36.1581920903955	36.241610738255	25	0.83342060027644	2	12	6	NaN	2	4	0.0351553496624043	0	1	NaN	318	6	3	1	120	220	320	NaN	520	0.361257575917989	2	1	NaN	3289856.93772	NaN	3289857.9211512	3289858.43766492
79	20	0	0	90	36.1581920903955	36.241610738255	25	0.83342060027644	2	5	1	NaN	1	5	0.0351553496624043	0	1	NaN	319	6	4	1	120	220	320	NaN	520	0.0104105756618083	1	1	NaN	3289859.6046443	NaN	3289860.5880439	3289861.10458752
79	20	0	0	90	36.1581920903955	36.241610738255	15	0.500052360165864	2	6	6	NaN	1	5	0.0351553496624043	0	1	NaN	320	6	5	1	120	220	320	NaN	520	0.977025728207082	2	0	NaN	3289861.9215508	NaN	3289862.9049194	3289863.42148967
79	20	0	0	90	36.1581920903955	36.241610738255	8	0.266694592088461	2	12	6	NaN	2	3	0.0351553496624043	0	1	NaN	321	6	6	1	120	220	320	NaN	520	0.437663140241057	2	1	NaN	3289865.2050699	NaN	3289866.1886416	3289866.70515066
79	20	0	0	90	36.1581920903955	36.241610738255	23	0.766746952254325	2	11	2	NaN	2	4	0.0351553496624043	0	1	NaN	322	6	7	1	120	220	320	NaN	520	0.295620528049767	2	1	NaN	3289867.9554761	NaN	3289868.9389273	3289869.45541557
79	20	0	0	90	36.1581920903955	36.241610738255	9	0.300031416099519	2	7	5	NaN	2	5	0.0351553496624043	0	1	NaN	323	6	8	1	120	220	320	NaN	520	0.094389324542135	2	1	NaN	3289870.5724115	NaN	3289871.5557951	3289872.07233218
79	20	0	0	90	36.1581920903955	36.241610738255	7	0.233357768077403	2	2	2	NaN	1	5	0.0351553496624043	0	1	NaN	324	6	9	1	120	220	320	NaN	520	0.821705528069288	1	1	NaN	3289872.9726398	NaN	3289873.9560593	3289874.47257607
79	20	0	0	90	36.1581920903955	36.241610738255	7	0.233357768077403	2	4	1	NaN	1	5	0.0351553496624043	0	1	NaN	325	6	10	1	120	220	320	NaN	520	0.456312176305801	2	0	NaN	3289876.1062797	NaN	3289877.0896606	3289877.60621172
79	20	0	0	90	36.1581920903955	36.241610738255	7	0.233357768077403	2	4	5	NaN	1	3	0.0351553496624043	0	1	NaN	326	6	11	1	120	220	320	NaN	520	0.265657132025808	1	1	NaN	3289878.8732049	NaN	3289879.8566056	3289880.37315957
79	20	0	0	90	36.1581920903955	36.241610738255	22	0.733410128243267	2	1	3	NaN	1	5	0.0351553496624043	0	1	NaN	327	6	12	1	120	220	320	NaN	520	0.921928928233683	1	1	NaN	3289881.4567804	NaN	3289882.4401995	3289882.95676357
79	20	0	0	90	36.1581920903955	36.241610738255	24	0.800083776265383	2	6	1	NaN	1	4	0.0351553496624043	0	1	NaN	328	6	13	1	120	220	320	NaN	520	0.33656788058579	2	0	NaN	3289884.6905259	NaN	3289885.6739376	3289886.19041182
79	20	0	0	90	36.1581920903955	36.241610738255	6	0.200020944066346	2	7	2	NaN	2	3	0.0351553496624043	0	1	NaN	329	6	14	1	120	220	320	NaN	520	0.398183876182884	2	1	NaN	3289887.3406888	NaN	3289888.3241128	3289888.84065482
79	20	0	0	90	36.1581920903955	36.241610738255	21	0.70007330423221	2	12	6	NaN	2	4	0.0351553496624043	0	1	NaN	330	6	15	1	120	220	320	NaN	520	0.78509652800858	2	1	NaN	3289890.0576447	NaN	3289891.0410682	3289891.55759277
79	20	0	0	90	36.1581920903955	36.241610738255	6	0.200020944066346	2	2	5	NaN	1	5	0.0351553496624043	0	1	NaN	331	6	16	1	120	220	320	NaN	520	0.284846127964556	1	1	NaN	3289893.157954	NaN	3289894.1413519	3289894.65789517
79	20	0	0	90	36.1581920903955	36.241610738255	24	0.800083776265383	2	7	3	NaN	2	5	0.0351553496624043	0	1	NaN	332	6	17	1	120	220	320	NaN	520	0.508807280566543	1	0	NaN	3289895.7582074	NaN	3289896.7416208	3289897.25814742
79	20	0	0	90	36.1581920903955	36.241610738255	16	0.533389184176922	2	9	4	NaN	2	4	0.0351553496624043	0	1	NaN	333	6	18	1	120	220	320	NaN	520	0.915900475811213	1	0	NaN	3289898.5751237	NaN	3289899.5585458	3289900.07509362
79	20	0	0	90	36.1581920903955	36.241610738255	14	0.466715536154807	2	12	5	NaN	2	5	0.0351553496624043	0	1	NaN	334	6	19	1	120	220	320	NaN	520	1.77865162817761	2	1	NaN	3289901.7921341	NaN	3289902.7755237	3289903.29208087
79	20	0	0	90	36.1581920903955	36.241610738255	22	0.733410128243267	2	7	4	NaN	2	4	0.0351553496624043	0	1	NaN	335	6	20	1	120	220	320	NaN	520	2.83817897597328	2	1	NaN	3289905.8925355	NaN	3289906.8759373	3289907.39247592
79	20	0	0	90	36.1581920903955	36.241610738255	7	0.233357768077403	2	9	3	NaN	2	5	0.0351553496624043	0	1	NaN	336	6	21	1	120	220	320	NaN	520	1.00770017597824	2	1	NaN	3289911.0429247	NaN	3289912.0264551	3289912.54299192
79	20	0	0	90	36.1581920903955	36.241610738255	16	0.533389184176922	2	10	1	NaN	2	3	0.0351553496624043	0	1	NaN	337	6	22	1	120	220	320	NaN	520	0.29876068001613	2	1	NaN	3289914.3599181	NaN	3289915.3434365	3289915.85998332
79	20	0	0	90	36.1581920903955	36.241610738255	19	0.633399656210095	2	7	5	NaN	2	4	0.0351553496624043	0	1	NaN	338	6	23	1	120	220	320	NaN	520	0.0104063763283193	1	0	NaN	3289916.9769519	NaN	3289917.9603523	3289918.47690402
79	20	0	0	90	36.1581920903955	36.241610738255	17	0.566726008187979	2	5	6	NaN	1	3	0.0351553496624043	0	1	NaN	339	6	24	1	120	220	320	NaN	520	0.0103739802725613	1	1	NaN	3289919.2938403	NaN	3289920.2772338	3289920.79380602
79	20	0	0	90	36.1581920903955	36.241610738255	20	0.666736480221152	2	2	1	NaN	1	3	0.0351553496624043	0	1	NaN	340	6	25	1	120	220	320	NaN	520	1.14385360013694	1	1	NaN	3289921.6106837	NaN	3289922.59416	3289923.1106936
79	20	0	0	90	36.1581920903955	36.241610738255	15	0.500052360165864	2	10	6	NaN	2	3	0.0351553496624043	0	1	NaN	341	6	26	1	120	220	320	NaN	520	0.582039676140994	1	0	NaN	3289925.0610782	NaN	3289926.0444834	3289926.56103682
79	20	0	0	90	36.1581920903955	36.241610738255	7	0.233357768077403	2	9	3	NaN	2	5	0.0351553496624043	0	1	NaN	342	6	27	1	120	220	320	NaN	520	0.737706075888127	2	1	NaN	3289927.9613762	NaN	3289928.9447868	3289929.46132002
79	20	0	0	90	36.1581920903955	36.241610738255	12	0.400041888132691	2	3	1	NaN	1	4	0.0351553496624043	0	1	NaN	343	6	28	1	120	220	320	NaN	520	0.799164875876158	2	0	NaN	3289931.0116634	NaN	3289931.9950756	3289932.51162232
79	20	0	0	90	36.1581920903955	36.241610738255	20	0.666736480221152	2	2	1	NaN	1	3	0.0351553496624043	0	1	NaN	344	6	29	1	120	220	320	NaN	520	1.0740356282331	1	1	NaN	3289934.1286486	NaN	3289935.112032	3289935.62859497
79	20	0	0	90	36.1581920903955	36.241610738255	12	0.400041888132691	2	6	5	NaN	1	4	0.0351553496624043	0	1	NaN	345	6	30	1	120	220	320	NaN	520	0.386808827985078	1	1	NaN	3289937.5123408	NaN	3289938.4957076	3289939.01226607
79	20	0	0	90	36.1581920903955	36.241610738255	12	0.400041888132691	2	11	3	NaN	2	4	0.0351553496624043	0	1	NaN	346	6	31	1	120	220	320	NaN	520	0.766499096527696	2	1	NaN	3289940.2125812	NaN	3289941.1959697	3289941.7125346
79	20	0	0	90	36.1581920903955	36.241610738255	15	0.500052360165864	2	10	2	NaN	2	5	0.0351553496624043	0	1	NaN	347	6	32	1	120	220	320	NaN	520	1.03483627643436	1	0	NaN	3289943.2962269	NaN	3289944.2795292	3289944.79616012
79	20	0	0	90	36.1581920903955	36.241610738255	19	0.633399656210095	2	12	5	NaN	2	3	0.0351553496624043	0	1	NaN	348	6	33	1	120	220	320	NaN	520	1.18050167616457	2	1	NaN	3289946.6465637	NaN	3289947.6299284	3289948.14649552
79	20	0	0	90	36.1581920903955	36.241610738255	8	0.266694592088461	2	12	1	NaN	2	3	0.0351553496624043	0	1	NaN	349	6	34	1	120	220	320	NaN	520	1.01595927216113	2	1	NaN	3289950.1468946	NaN	3289951.1302836	3289951.64683153
79	20	0	0	90	36.1581920903955	36.241610738255	14	0.466715536154807	2	9	5	NaN	2	5	0.0351553496624043	0	1	NaN	350	6	35	1	120	220	320	NaN	520	1.53849238809198	2	1	NaN	3289953.4805587	NaN	3289954.4639559	3289954.98050101
79	20	0	0	90	36.1581920903955	36.241610738255	19	0.633399656210095	2	2	5	NaN	1	5	0.0351553496624043	0	1	NaN	351	6	36	1	120	220	320	NaN	520	0.535850428510457	2	0	NaN	3289957.3310292	NaN	3289958.3143269	3289958.83088377
79	20	0	0	90	36.1581920903955	36.241610738255	19	0.633399656210095	2	8	6	NaN	2	5	0.0351553496624043	0	1	NaN	352	6	37	1	120	220	320	NaN	520	1.30989227583632	2	1	NaN	3289960.1810731	NaN	3289961.1645835	3289961.68115252
79	20	0	0	90	36.1581920903955	36.241610738255	7	0.233357768077403	2	8	3	NaN	2	4	0.0351553496624043	0	1	NaN	353	6	38	1	120	220	320	NaN	520	2.42889502830803	2	1	NaN	3289963.7982574	NaN	3289964.7816348	3289965.29818957
79	20	0	0	90	36.1581920903955	36.241610738255	25	0.83342060027644	2	3	2	NaN	1	5	0.0351553496624043	0	1	NaN	354	6	39	1	120	220	320	NaN	520	0.814820028375834	2	0	NaN	3289968.5320311	NaN	3289969.5154207	3289970.03198177
79	20	0	0	90	36.1581920903955	36.241610738255	8	0.266694592088461	2	10	6	NaN	2	4	0.0351553496624043	0	1	NaN	355	6	40	1	120	220	320	NaN	520	0.273407376371324	1	0	NaN	3289971.6657097	NaN	3289972.6490755	3289973.16562552
79	20	0	0	90	36.1581920903955	36.241610738255	6	0.200020944066346	2	3	3	NaN	1	4	0.0351553496624043	0	1	NaN	356	6	41	1	120	220	320	NaN	520	0.353607428260148	1	1	NaN	3289974.2492774	NaN	3289975.2326451	3289975.74920477
79	20	0	0	90	36.1581920903955	36.241610738255	25	0.83342060027644	2	1	6	NaN	1	3	0.0351553496624043	0	1	NaN	357	6	42	1	120	220	320	NaN	520	6.91074987594038	1	1	NaN	3289976.9160698	NaN	3289977.8995882	3289978.41613912
79	20	0	0	90	36.1581920903955	36.241610738255	16	0.533389184176922	2	12	5	NaN	2	4	0.0351553496624043	0	1	NaN	358	6	43	1	120	220	320	NaN	520	1.06923092855141	1	0	NaN	3289986.133648	NaN	3289987.1171818	3289987.63370907
79	20	0	0	90	36.1581920903955	36.241610738255	22	0.733410128243267	2	10	5	NaN	2	5	0.0351553496624043	0	1	NaN	359	6	44	1	120	220	320	NaN	520	0.0104346722364426	1	0	NaN	3289989.5174115	NaN	3289990.5008315	3289991.01738103
79	20	0	0	90	36.1581920903955	36.241610738255	11	0.366705064121634	2	5	5	NaN	1	3	0.0351553496624043	0	1	NaN	360	6	45	1	120	220	320	NaN	520	0.296558176167309	2	0	NaN	3289991.8343269	NaN	3289992.8177375	3289993.33427622
79	20	0	0	90	36.1581920903955	36.241610738255	9	0.300031416099519	2	12	3	NaN	2	3	0.0351553496624043	0	1	NaN	361	6	46	1	120	220	320	NaN	520	0.303714675828815	2	1	NaN	3289994.4512775	NaN	3289995.4346606	3289995.95120112
79	20	0	0	90	36.1581920903955	36.241610738255	10	0.333368240110576	2	11	2	NaN	2	5	0.0351553496624043	0	1	NaN	362	6	47	1	120	220	320	NaN	520	0.766755076125264	2	1	NaN	3289997.0681786	NaN	3289998.0514692	3289998.56811652
79	20	0	0	90	36.1581920903955	36.241610738255	20	0.666736480221152	2	7	3	NaN	2	3	0.0351553496624043	0	1	NaN	363	6	48	1	120	220	320	NaN	520	0.243075076024979	2	1	NaN	3290000.1518179	NaN	3290001.1352138	3290001.65176012
79	20	0	0	90	36.1581920903955	36.241610738255	24	0.800083776265383	2	1	5	NaN	1	3	0.0351553496624043	0	1	NaN	364	6	49	1	120	220	320	NaN	520	0.580429527908564	2	0	NaN	3290002.7187401	NaN	3290003.702149	3290004.21867997
79	20	0	0	90	36.1581920903955	36.241610738255	12	0.400041888132691	2	4	2	NaN	1	3	0.0351553496624043	0	1	NaN	365	6	50	1	120	220	320	NaN	520	0.327911675907671	1	1	NaN	3290005.6190343	NaN	3290006.6024245	3290007.11896132
79	20	0	0	90	36.1581920903955	36.241610738255	23	0.766746952254325	2	1	5	NaN	1	5	0.0351553496624043	0	1	NaN	366	6	51	1	120	220	320	NaN	520	1.1863398719579	1	1	NaN	3290008.3526191	NaN	3290009.3360186	3290009.85255993
79	20	0	0	90	36.1581920903955	36.241610738255	21	0.70007330423221	2	2	5	NaN	1	4	0.0351553496624043	0	1	NaN	367	6	52	1	120	220	320	NaN	520	0.349857128225267	1	1	NaN	3290011.8529702	NaN	3290012.8363677	3290013.35290827
79	20	0	0	90	36.1581920903955	36.241610738255	23	0.766746952254325	2	1	3	NaN	1	4	0.0351553496624043	0	1	NaN	368	6	53	1	120	220	320	NaN	520	0.379101428203285	2	0	NaN	3290014.5198938	NaN	3290015.5032893	3290016.01984267
79	20	0	0	90	36.1581920903955	36.241610738255	23	0.766746952254325	2	10	5	NaN	2	5	0.0351553496624043	0	1	NaN	369	6	54	1	120	220	320	NaN	520	1.47950262809172	2	1	NaN	3290017.2034775	NaN	3290018.1869159	3290018.70344587
79	20	0	0	90	36.1581920903955	36.241610738255	16	0.533389184176922	2	11	5	NaN	2	3	0.0351553496624043	0	1	NaN	370	6	55	1	120	220	320	NaN	520	1.28726032841951	2	1	NaN	3290021.0038612	NaN	3290021.98725	3290022.50381267
79	20	0	0	90	36.1581920903955	36.241610738255	25	0.83342060027644	2	4	6	NaN	1	5	0.0351553496624043	0	1	NaN	371	6	56	1	120	220	320	NaN	520	0.350624076090753	1	1	NaN	3290024.604135	NaN	3290025.5876218	3290026.10415902
79	20	0	0	90	36.1581920903955	36.241610738255	16	0.533389184176922	2	5	1	NaN	1	5	0.0351553496624043	0	1	NaN	372	6	57	1	120	220	320	NaN	520	0.411633128300309	1	1	NaN	3290027.2711482	NaN	3290028.2545591	3290028.77109577
79	20	0	0	90	36.1581920903955	36.241610738255	12	0.400041888132691	2	9	5	NaN	2	3	0.0351553496624043	0	1	NaN	373	6	58	1	120	220	320	NaN	520	1.75039737625048	2	1	NaN	3290030.0047425	NaN	3290030.9881627	3290031.50469502
79	20	0	0	90	36.1581920903955	36.241610738255	12	0.400041888132691	2	7	5	NaN	2	5	0.0351553496624043	0	1	NaN	374	6	59	1	120	220	320	NaN	520	0.81948242848739	2	1	NaN	3290034.0718182	NaN	3290035.055193	3290035.57176587
79	20	0	0	90	36.1581920903955	36.241610738255	8	0.266694592088461	2	10	1	NaN	2	5	0.0351553496624043	0	1	NaN	375	6	60	1	120	220	320	NaN	520	1.1492787762545	2	1	NaN	3290037.2054561	NaN	3290038.1888737	3290038.70540332
79	20	0	0	90	36.1581920903955	36.241610738255	6	0.200020944066346	2	2	2	NaN	1	5	0.0351553496624043	0	1	NaN	376	6	61	1	120	220	320	NaN	520	1.15433688042685	2	0	NaN	3290040.6724619	NaN	3290041.6558628	3290042.17241832
79	20	0	0	90	36.1581920903955	36.241610738255	21	0.70007330423221	2	12	4	NaN	2	5	0.0351553496624043	0	1	NaN	377	6	62	1	120	220	320	NaN	520	1.16735672391951	2	1	NaN	3290044.1394658	NaN	3290045.1228708	3290045.63942728
79	20	0	0	90	36.1581920903955	36.241610738255	18	0.600062832199037	2	4	2	NaN	1	3	0.0351553496624043	0	1	NaN	378	6	63	1	120	220	320	NaN	520	0.268182028084993	1	1	NaN	3290047.6231488	NaN	3290048.6065455	3290049.12309337
79	20	0	0	90	36.1581920903955	36.241610738255	15	0.500052360165864	2	3	6	NaN	1	5	0.0351553496624043	0	1	NaN	379	7	1	1	120	220	320	NaN	520	0.550630680285394	2	0	NaN	3290058.1241549	NaN	3290059.1075506	3290059.62413842
79	20	0	0	90	36.1581920903955	36.241610738255	19	0.633399656210095	2	2	5	NaN	1	5	0.0351553496624043	0	1	NaN	380	7	2	1	120	220	320	NaN	520	0.251764575950801	1	1	NaN	3290060.9911215	NaN	3290061.974541	3290062.49108562
79	20	0	0	90	36.1581920903955	36.241610738255	17	0.566726008187979	2	10	4	NaN	2	5	0.0351553496624043	0	1	NaN	381	7	3	1	120	220	320	NaN	520	0.332531988155097	2	1	NaN	3290063.5580595	NaN	3290064.5414665	3290065.05800721
79	20	0	0	90	36.1581920903955	36.241610738255	14	0.466715536154807	2	4	5	NaN	1	3	0.0351553496624043	0	1	NaN	382	7	4	1	120	220	320	NaN	520	0.682787375990301	2	0	NaN	3290066.2083093	NaN	3290067.1916988	3290067.70826642
79	20	0	0	90	36.1581920903955	36.241610738255	7	0.233357768077403	2	1	1	NaN	1	3	0.0351553496624043	0	1	NaN	383	7	5	1	120	220	320	NaN	520	0.794634328223765	2	0	NaN	3290069.2086436	NaN	3290070.1919917	3290070.70855777
79	20	0	0	90	36.1581920903955	36.241610738255	25	0.83342060027644	2	12	4	NaN	2	4	0.0351553496624043	0	1	NaN	384	7	6	1	120	220	320	NaN	520	3.72541517578065	1	0	NaN	3290072.3255936	NaN	3290073.3089792	3290073.82553182
79	20	0	0	90	36.1581920903955	36.241610738255	11	0.366705064121634	2	9	6	NaN	2	4	0.0351553496624043	0	1	NaN	385	7	7	1	120	220	320	NaN	520	0.323555476032197	2	1	NaN	3290078.3594854	NaN	3290079.3428057	3290079.85946152
79	20	0	0	90	36.1581920903955	36.241610738255	9	0.300031416099519	2	11	1	NaN	2	5	0.0351553496624043	0	1	NaN	386	7	8	1	120	220	320	NaN	520	1.50552837597206	2	1	NaN	3290081.0097533	NaN	3290081.9931951	3290082.50971762
79	20	0	0	90	36.1581920903955	36.241610738255	24	0.800083776265383	2	10	4	NaN	2	5	0.0351553496624043	0	1	NaN	387	7	9	1	120	220	320	NaN	520	0.0104058757424355	2	1	NaN	3290084.8266931	NaN	3290085.8102036	3290086.32676222
79	20	0	0	90	36.1581920903955	36.241610738255	6	0.200020944066346	2	12	5	NaN	2	3	0.0351553496624043	0	1	NaN	388	7	10	1	120	220	320	NaN	520	2.57127227587625	1	0	NaN	3290087.1437239	NaN	3290088.1271752	3290088.64365712
79	20	0	0	90	36.1581920903955	36.241610738255	21	0.70007330423221	2	8	2	NaN	2	4	0.0351553496624043	0	1	NaN	389	7	11	1	120	220	320	NaN	520	0.455422128085047	1	0	NaN	3290092.0274536	NaN	3290093.0109134	3290093.52746987
79	20	0	0	90	36.1581920903955	36.241610738255	23	0.766746952254325	2	3	2	NaN	1	4	0.0351553496624043	0	1	NaN	390	7	12	1	120	220	320	NaN	520	0.279907776042819	1	1	NaN	3290094.811132	NaN	3290095.7945223	3290096.31107072
79	20	0	0	90	36.1581920903955	36.241610738255	13	0.433378712143749	2	9	4	NaN	2	5	0.0351553496624043	0	1	NaN	391	7	13	1	120	220	320	NaN	520	1.42361147608608	1	0	NaN	3290097.4113914	NaN	3290098.394768	3290098.91133682
79	20	0	0	90	36.1581920903955	36.241610738255	0	0	1	3	3	NaN	1	3	0.0351553496624043	0	1	NaN	392	7	14	1	110	210	310	NaN	510	1.02616432402283	1	1	NaN	3290101.1451459	NaN	3290102.1285147	3290102.64503018
79	20	0	0	90	36.1581920903955	36.241610738255	11	0.366705064121634	2	10	3	NaN	2	5	0.0351553496624043	0	1	NaN	393	7	15	1	120	220	320	NaN	520	0.500440828036517	2	1	NaN	3290104.4786339	NaN	3290105.4621468	3290105.97869387
79	20	0	0	90	36.1581920903955	36.241610738255	8	0.266694592088461	2	4	1	NaN	1	3	0.0351553496624043	0	1	NaN	394	7	16	1	120	220	320	NaN	520	1.17928857589141	2	0	NaN	3290107.2956934	NaN	3290108.2790635	3290108.79563212
79	20	0	0	90	36.1581920903955	36.241610738255	10	0.333368240110576	2	3	2	NaN	1	5	0.0351553496624043	0	1	NaN	395	7	17	1	120	220	320	NaN	520	0.255280628334731	1	1	NaN	3290110.7960312	NaN	3290111.7794299	3290112.29598407
79	20	0	0	90	36.1581920903955	36.241610738255	21	0.70007330423221	2	10	1	NaN	2	4	0.0351553496624043	0	1	NaN	396	7	18	1	120	220	320	NaN	520	0.415968344081193	2	1	NaN	3290113.362962	NaN	3290114.3463929	3290114.86291426
79	20	0	0	90	36.1581920903955	36.241610738255	8	0.266694592088461	2	8	3	NaN	2	3	0.0351553496624043	0	1	NaN	397	7	19	1	120	220	320	NaN	520	1.59445247612894	1	0	NaN	3290116.0965521	NaN	3290117.0799506	3290117.59650702
79	20	0	0	90	36.1581920903955	36.241610738255	8	0.266694592088461	2	8	1	NaN	2	3	0.0351553496624043	0	1	NaN	398	7	20	1	120	220	320	NaN	520	2.93417387222871	2	1	NaN	3290119.9969607	NaN	3290120.9803325	3290121.49688513
79	20	0	0	90	36.1581920903955	36.241610738255	7	0.233357768077403	2	10	2	NaN	2	3	0.0351553496624043	0	1	NaN	399	7	21	1	120	220	320	NaN	520	3.70769018027931	1	0	NaN	3290125.2474504	NaN	3290126.2308485	3290126.74740672
79	20	0	0	90	36.1581920903955	36.241610738255	16	0.533389184176922	2	2	2	NaN	1	3	0.0351553496624043	0	1	NaN	400	7	22	1	120	220	320	NaN	520	0.506648280657828	2	0	NaN	3290131.2647408	NaN	3290132.2481189	3290132.76466162
79	20	0	0	90	36.1581920903955	36.241610738255	24	0.800083776265383	2	3	3	NaN	1	4	0.0351553496624043	0	1	NaN	401	7	23	1	120	220	320	NaN	520	0.42534942785278	2	0	NaN	3290134.081647	NaN	3290135.0650632	3290135.58160697
79	20	0	0	90	36.1581920903955	36.241610738255	12	0.400041888132691	2	11	6	NaN	2	3	0.0351553496624043	0	1	NaN	402	7	24	1	120	220	320	NaN	520	1.2457657805644	2	1	NaN	3290137.1653859	NaN	3290138.1486913	3290138.66524472
79	20	0	0	90	36.1581920903955	36.241610738255	0	0	1	10	3	NaN	2	3	0.0351553496624043	0	1	NaN	403	7	25	1	110	210	310	NaN	510	0.974623328074813	2	1	NaN	3290140.7323177	NaN	3290141.7157505	3290142.23226287
79	20	0	0	90	36.1581920903955	36.241610738255	10	0.333368240110576	2	12	2	NaN	2	4	0.0351553496624043	0	1	NaN	404	7	26	1	120	220	320	NaN	520	0.971052328124642	2	1	NaN	3290144.0159602	NaN	3290144.9993787	3290145.51592667
79	20	0	0	90	36.1581920903955	36.241610738255	15	0.500052360165864	2	8	4	NaN	2	4	0.0351553496624043	0	1	NaN	405	7	27	1	120	220	320	NaN	520	0.879436428193003	2	1	NaN	3290147.2994706	NaN	3290148.2830171	3290148.79957527
79	20	0	0	90	36.1581920903955	36.241610738255	22	0.733410128243267	2	3	2	NaN	1	5	0.0351553496624043	0	1	NaN	406	7	28	1	120	220	320	NaN	520	0.255512176081538	1	1	NaN	3290150.4999502	NaN	3290151.4833444	3290151.99989012
79	20	0	0	90	36.1581920903955	36.241610738255	6	0.200020944066346	2	9	3	NaN	2	5	0.0351553496624043	0	1	NaN	407	7	29	1	120	220	320	NaN	520	0.880506827961653	2	1	NaN	3290153.066872	NaN	3290154.050259	3290154.56681077
79	20	0	0	90	36.1581920903955	36.241610738255	0	0	1	11	6	NaN	2	3	0.0351553496624043	0	1	NaN	408	7	30	1	110	210	310	NaN	510	0.672158175613731	1	0	NaN	3290156.2671777	NaN	3290157.2505788	3290157.76712042
79	20	0	0	90	36.1581920903955	36.241610738255	9	0.300031416099519	2	1	4	NaN	1	3	0.0351553496624043	0	1	NaN	409	7	31	1	120	220	320	NaN	520	0.0104076759889722	2	0	NaN	3290159.2508008	NaN	3290160.2342027	3290160.75075322
79	20	0	0	90	36.1581920903955	36.241610738255	11	0.366705064121634	2	10	1	NaN	2	3	0.0351553496624043	0	1	NaN	410	7	32	1	120	220	320	NaN	520	0.010408675763756	2	1	NaN	3290161.567693	NaN	3290162.5510975	3290163.06764782
79	20	0	0	90	36.1581920903955	36.241610738255	20	0.666736480221152	2	8	3	NaN	2	3	0.0351553496624043	0	1	NaN	411	7	33	1	120	220	320	NaN	520	0.542579240165651	2	1	NaN	3290163.8845915	NaN	3290164.8679929	3290165.38453856
79	20	0	0	90	36.1581920903955	36.241610738255	21	0.70007330423221	2	5	4	NaN	1	3	0.0351553496624043	0	1	NaN	412	7	34	1	120	220	320	NaN	520	1.50017287628725	2	0	NaN	3290166.7348592	NaN	3290167.7182734	3290168.23482622
79	20	0	0	90	36.1581920903955	36.241610738255	15	0.500052360165864	2	7	6	NaN	2	3	0.0351553496624043	0	1	NaN	413	7	35	1	120	220	320	NaN	520	0.139566028025001	2	1	NaN	3290170.5519143	NaN	3290171.5353118	3290172.05187227
79	20	0	0	90	36.1581920903955	36.241610738255	24	0.800083776265383	2	9	6	NaN	2	5	0.0351553496624043	0	1	NaN	414	7	36	1	120	220	320	NaN	520	0.545302271842957	2	1	NaN	3290173.0021309	NaN	3290173.9855404	3290174.50209753
79	20	0	0	90	36.1581920903955	36.241610738255	16	0.533389184176922	2	3	5	NaN	1	3	0.0351553496624043	0	1	NaN	415	7	37	1	120	220	320	NaN	520	0.36585273174569	2	0	NaN	3290175.869105	NaN	3290176.8524982	3290177.36906307
79	20	0	0	90	36.1581920903955	36.241610738255	13	0.433378712143749	2	7	4	NaN	2	5	0.0351553496624043	0	1	NaN	416	7	38	1	120	220	320	NaN	520	1.21114427596331	1	0	NaN	3290178.5360335	NaN	3290179.5194381	3290180.03598492
79	20	0	0	90	36.1581920903955	36.241610738255	24	0.800083776265383	2	8	4	NaN	2	4	0.0351553496624043	0	1	NaN	417	7	39	1	120	220	320	NaN	520	0.814374428242445	2	1	NaN	3290182.0530533	NaN	3290183.0364433	3290183.55299737
79	20	0	0	90	36.1581920903955	36.241610738255	10	0.333368240110576	2	3	5	NaN	1	4	0.0351553496624043	0	1	NaN	418	7	40	1	120	220	320	NaN	520	1.78479287587106	2	0	NaN	3290185.1866925	NaN	3290186.1700814	3290186.68663202
79	20	0	0	90	36.1581920903955	36.241610738255	18	0.600062832199037	2	11	4	NaN	2	4	0.0351553496624043	0	1	NaN	419	7	41	1	120	220	320	NaN	520	4.08392822835594	2	1	NaN	3290189.2869876	NaN	3290190.2705021	3290190.78704387
79	20	0	0	90	36.1581920903955	36.241610738255	18	0.600062832199037	2	9	1	NaN	2	5	0.0351553496624043	0	1	NaN	420	7	42	1	120	220	320	NaN	520	0.923758924473077	2	1	NaN	3290195.687724	NaN	3290196.6711535	3290197.18766838
79	20	0	0	90	36.1581920903955	36.241610738255	19	0.633399656210095	2	12	2	NaN	2	3	0.0351553496624043	0	1	NaN	421	7	43	1	120	220	320	NaN	520	0.417743228375912	2	1	NaN	3290198.9213766	NaN	3290199.9048262	3290200.42131837
79	20	0	0	90	36.1581920903955	36.241610738255	11	0.366705064121634	2	3	3	NaN	1	5	0.0351553496624043	0	1	NaN	422	7	44	1	120	220	320	NaN	520	0.756751824170351	1	1	NaN	3290201.6382994	NaN	3290202.6217122	3290203.13826128
79	20	0	0	90	36.1581920903955	36.241610738255	9	0.300031416099519	2	6	4	NaN	1	5	0.0351553496624043	0	1	NaN	423	7	45	1	120	220	320	NaN	520	0.329939576331526	1	1	NaN	3290204.7052877	NaN	3290205.6886786	3290206.20521852
79	20	0	0	90	36.1581920903955	36.241610738255	8	0.266694592088461	2	7	4	NaN	2	3	0.0351553496624043	0	1	NaN	424	7	46	1	120	220	320	NaN	520	0.928240176290274	1	0	NaN	3290207.3388883	NaN	3290208.3222675	3290208.83881842
79	20	0	0	90	36.1581920903955	36.241610738255	23	0.766746952254325	2	10	1	NaN	2	5	0.0351553496624043	0	1	NaN	425	7	47	1	120	220	320	NaN	520	0.382292076013982	2	1	NaN	3290210.589233	NaN	3290211.5725581	3290212.08913712
79	20	0	0	90	36.1581920903955	36.241610738255	23	0.766746952254325	2	5	2	NaN	1	4	0.0351553496624043	0	1	NaN	426	7	48	1	120	220	320	NaN	520	0.777847572229803	1	1	NaN	3290213.2894447	NaN	3290214.2728271	3290214.78940593
79	20	0	0	90	36.1581920903955	36.241610738255	21	0.70007330423221	2	4	4	NaN	1	4	0.0351553496624043	0	1	NaN	427	7	49	1	120	220	320	NaN	520	0.374427327886224	2	0	NaN	3290216.3730985	NaN	3290217.356513	3290217.87304387
79	20	0	0	90	36.1581920903955	36.241610738255	16	0.533389184176922	2	12	3	NaN	2	3	0.0351553496624043	0	1	NaN	428	7	50	1	120	220	320	NaN	520	0.298556124325842	2	1	NaN	3290219.0565533	NaN	3290220.0401292	3290220.55663378
79	20	0	0	90	36.1581920903955	36.241610738255	22	0.733410128243267	2	4	3	NaN	1	5	0.0351553496624043	0	1	NaN	429	7	51	1	120	220	320	NaN	520	0.825449380092323	2	0	NaN	3290221.6736136	NaN	3290222.6570102	3290223.17357052
79	20	0	0	90	36.1581920903955	36.241610738255	17	0.566726008187979	2	11	3	NaN	2	5	0.0351553496624043	0	1	NaN	430	7	52	1	120	220	320	NaN	520	0.980013624299318	2	1	NaN	3290224.8072499	NaN	3290225.7906558	3290226.30720208
79	20	0	0	90	36.1581920903955	36.241610738255	7	0.233357768077403	2	7	3	NaN	2	5	0.0351553496624043	0	1	NaN	431	7	53	1	120	220	320	NaN	520	0.496050080284476	2	1	NaN	3290228.1076421	NaN	3290229.0909697	3290229.60753632
79	20	0	0	90	36.1581920903955	36.241610738255	20	0.666736480221152	2	12	4	NaN	2	5	0.0351553496624043	0	1	NaN	432	7	54	1	120	220	320	NaN	520	0.790574780199677	2	1	NaN	3290230.9245252	NaN	3290231.9079362	3290232.42447022
79	20	0	0	90	36.1581920903955	36.241610738255	10	0.333368240110576	2	12	5	NaN	2	3	0.0351553496624043	0	1	NaN	433	7	55	1	120	220	320	NaN	520	0.602451676037163	1	0	NaN	3290234.0248289	NaN	3290235.0082872	3290235.52477092
79	20	0	0	90	36.1581920903955	36.241610738255	17	0.566726008187979	2	8	1	NaN	2	5	0.0351553496624043	0	1	NaN	434	7	56	1	120	220	320	NaN	520	0.757281876169145	2	1	NaN	3290236.9417852	NaN	3290237.9252371	3290238.44172902
79	20	0	0	90	36.1581920903955	36.241610738255	0	0	1	7	2	NaN	2	5	0.0351553496624043	0	1	NaN	435	7	57	1	110	210	310	NaN	510	0.626531428191811	2	1	NaN	3290240.0087316	NaN	3290240.9921468	3290241.50870227
79	20	0	0	90	36.1581920903955	36.241610738255	23	0.766746952254325	2	11	4	NaN	2	5	0.0351553496624043	0	1	NaN	436	7	58	1	120	220	320	NaN	520	1.10889278026298	1	0	NaN	3290242.9423986	NaN	3290243.9257766	3290244.44232152
79	20	0	0	90	36.1581920903955	36.241610738255	24	0.800083776265383	2	12	4	NaN	2	5	0.0351553496624043	0	1	NaN	437	7	59	1	120	220	320	NaN	520	0.939203128218651	1	0	NaN	3290246.3759089	NaN	3290247.3594516	3290247.87599607
79	20	0	0	90	36.1581920903955	36.241610738255	22	0.733410128243267	2	8	1	NaN	2	3	0.0351553496624043	0	1	NaN	438	7	60	1	120	220	320	NaN	520	0.473212276119739	2	1	NaN	3290249.6263606	NaN	3290250.6097512	3290251.12631452
79	20	0	0	90	36.1581920903955	36.241610738255	14	0.466715536154807	2	3	5	NaN	1	3	0.0351553496624043	0	1	NaN	439	7	61	1	120	220	320	NaN	520	0.825553180649877	1	1	NaN	3290252.4099509	NaN	3290253.3933675	3290253.90992202
79	20	0	0	90	36.1581920903955	36.241610738255	13	0.433378712143749	2	4	3	NaN	1	4	0.0351553496624043	0	1	NaN	440	7	62	1	120	220	320	NaN	520	0.659973976202309	1	1	NaN	3290255.5437053	NaN	3290256.5270102	3290257.04355592
79	20	0	0	90	36.1581920903955	36.241610738255	7	0.233357768077403	2	7	5	NaN	2	4	0.0351553496624043	0	1	NaN	441	7	63	1	120	220	320	NaN	520	0.443983328063041	2	1	NaN	3290258.5272586	NaN	3290259.510624	3290260.02719087
79	20	0	0	90	36.1581920903955	36.241610738255	15	0.500052360165864	2	3	1	NaN	1	3	0.0351553496624043	0	1	NaN	442	8	1	1	120	220	320	NaN	520	0.181263028178364	2	0	NaN	3290269.8782499	NaN	3290270.8617661	3290271.37830477
79	20	0	0	90	36.1581920903955	36.241610738255	18	0.600062832199037	2	3	5	NaN	1	5	0.0351553496624043	0	1	NaN	443	8	2	1	120	220	320	NaN	520	0.71259529190138	1	1	NaN	3290272.3785993	NaN	3290273.3619997	3290273.87855861
79	20	0	0	90	36.1581920903955	36.241610738255	11	0.366705064121634	2	2	3	NaN	1	5	0.0351553496624043	0	1	NaN	444	8	3	1	120	220	320	NaN	520	1.25496537610888	2	0	NaN	3290275.4122314	NaN	3290276.3956415	3290276.91218412
79	20	0	0	90	36.1581920903955	36.241610738255	12	0.400041888132691	2	4	1	NaN	1	3	0.0351553496624043	0	1	NaN	445	8	4	1	120	220	320	NaN	520	0.424314275849611	2	0	NaN	3290278.979238	NaN	3290279.9626512	3290280.47920402
79	20	0	0	90	36.1581920903955	36.241610738255	20	0.666736480221152	2	11	5	NaN	2	4	0.0351553496624043	0	1	NaN	446	8	5	1	120	220	320	NaN	520	0.594345275778323	2	1	NaN	3290281.7128627	NaN	3290282.6962494	3290283.21281042
79	20	0	0	90	36.1581920903955	36.241610738255	8	0.266694592088461	2	5	2	NaN	1	5	0.0351553496624043	0	1	NaN	447	8	6	1	120	220	320	NaN	520	0.949761223979294	1	1	NaN	3290284.6298222	NaN	3290285.613243	3290286.12975258
79	20	0	0	90	36.1581920903955	36.241610738255	16	0.533389184176922	2	9	2	NaN	2	3	0.0351553496624043	0	1	NaN	448	8	7	1	120	220	320	NaN	520	0.690540075767785	2	1	NaN	3290287.8968105	NaN	3290288.8801699	3290289.39674492
79	20	0	0	90	36.1581920903955	36.241610738255	13	0.433378712143749	2	8	4	NaN	2	3	0.0351553496624043	0	1	NaN	449	8	8	1	120	220	320	NaN	520	2.73052242817357	2	1	NaN	3290290.8969645	NaN	3290291.8805161	3290292.39704527
79	20	0	0	90	36.1581920903955	36.241610738255	10	0.333368240110576	2	9	1	NaN	2	5	0.0351553496624043	0	1	NaN	450	8	9	1	120	220	320	NaN	520	0.559818276204169	2	1	NaN	3290295.9475878	NaN	3290296.930983	3290297.44753212
79	20	0	0	90	36.1581920903955	36.241610738255	19	0.633399656210095	2	4	3	NaN	1	3	0.0351553496624043	0	1	NaN	451	8	10	1	120	220	320	NaN	520	1.46069724019617	2	0	NaN	3290298.8145713	NaN	3290299.7979293	3290300.31448766
79	20	0	0	90	36.1581920903955	36.241610738255	25	0.83342060027644	2	10	4	NaN	2	3	0.0351553496624043	0	1	NaN	452	8	11	1	120	220	320	NaN	520	0.35712432814762	2	1	NaN	3290302.5982428	NaN	3290303.5815381	3290304.09819587
79	20	0	0	90	36.1581920903955	36.241610738255	10	0.333368240110576	2	4	5	NaN	1	5	0.0351553496624043	0	1	NaN	453	8	12	1	120	220	320	NaN	520	0.866148836445063	1	1	NaN	3290305.2651628	NaN	3290306.2485836	3290306.76512496
79	20	0	0	90	36.1581920903955	36.241610738255	18	0.600062832199037	2	6	5	NaN	1	5	0.0351553496624043	0	1	NaN	454	8	13	1	120	220	320	NaN	520	0.650372875854373	1	1	NaN	3290308.448824	NaN	3290309.4322509	3290309.94876192
79	20	0	0	90	36.1581920903955	36.241610738255	14	0.466715536154807	2	9	3	NaN	2	5	0.0351553496624043	0	1	NaN	455	8	14	1	120	220	320	NaN	520	0.819357975851744	1	0	NaN	3290311.4157878	NaN	3290312.3992795	3290312.91573142
79	20	0	0	90	36.1581920903955	36.241610738255	10	0.333368240110576	2	5	1	NaN	1	5	0.0351553496624043	0	1	NaN	456	8	15	1	120	220	320	NaN	520	0.821727927774191	1	1	NaN	3290314.5493907	NaN	3290315.5328206	3290316.04936387
79	20	0	0	90	36.1581920903955	36.241610738255	12	0.400041888132691	2	7	4	NaN	2	4	0.0351553496624043	0	1	NaN	457	8	16	1	120	220	320	NaN	520	0.520221628248692	1	0	NaN	3290317.6829436	NaN	3290318.6664643	3290319.18300917
79	20	0	0	90	36.1581920903955	36.241610738255	6	0.200020944066346	2	8	4	NaN	2	4	0.0351553496624043	0	1	NaN	458	8	17	1	120	220	320	NaN	520	0.334611676167697	2	1	NaN	3290320.5166755	NaN	3290321.5000734	3290322.01661752
