subjno	age	gender	isPractice	viewdist	CmToPixX	CmToPixY	SOA_frm	SOA_time	targNum	targID	targExample	targRace	targGender	firstTargPos	contrast	familiarity	curr_staircase	iStair	TrialNum	BlockNum	blktrl	sessionNum	TC_FIXATION	TC_RSVP_START	TC_RSVP_END	TC_BLANK	TC_RESPONSE_ONSET	RT2afc	resp_2afc	acc	RSVPOnsetVBL	RSVPOnsetTime	RSVPOffsetVBL	RSVPOffsetTime	startrt_2afc
25	19	0	0	90	36.1581920903955	36.241610738255	16	0.533387263864279	2	10	4	NaN	2	4	0.244781946575837	0	1	NaN	1	1	1	1	120	220	320	NaN	520	0.0112706273794174	2	1	NaN	1560935.2729552	NaN	1560936.256433	1560936.78956087
25	19	0	0	90	36.1581920903955	36.241610738255	10	0.333367039915174	2	5	6	NaN	1	5	0.244781946575837	0	1	NaN	2	1	2	1	120	220	320	NaN	520	0.391216127434745	1	1	NaN	1560937.6565213	NaN	1560938.6399641	1560939.17314047
25	19	0	0	90	36.1581920903955	36.241610738255	20	0.666734079830348	2	10	5	NaN	2	4	0.244781946575837	0	1	NaN	3	1	3	1	120	220	320	NaN	520	0.442466163309291	2	1	NaN	1560940.3901334	NaN	1560941.3735482	1560941.89005494
25	19	0	0	90	36.1581920903955	36.241610738255	12	0.400040447898209	2	8	1	NaN	2	3	0.244781946575837	0	1	NaN	4	1	4	1	120	220	320	NaN	520	0.426748423371464	2	1	NaN	1560943.1737673	NaN	1560944.15716	1560944.67366698
25	19	0	0	90	36.1581920903955	36.241610738255	6	0.200020223949105	2	8	6	NaN	2	3	0.244781946575837	0	1	NaN	5	1	5	1	120	220	320	NaN	520	0.387907471507788	2	1	NaN	1560945.9240591	NaN	1560946.9075138	1560947.42393273
25	19	0	0	90	36.1581920903955	36.241610738255	15	0.500050559872761	2	7	4	NaN	2	4	0.244781946575837	0	1	NaN	6	1	6	1	120	220	320	NaN	520	0.293770427349955	2	1	NaN	1560948.6743727	NaN	1560949.6577972	1560950.17423357
25	19	0	0	90	36.1581920903955	36.241610738255	25	0.833417599787936	2	1	4	NaN	1	4	0.244781946575837	0	1	NaN	7	1	7	1	120	220	320	NaN	520	0.330957679776475	1	1	NaN	1560952.7413154	NaN	1560953.7247503	1560954.24128462
25	19	0	0	90	36.1581920903955	36.241610738255	23	0.766744191804901	2	5	4	NaN	1	4	0.244781946575837	0	1	NaN	8	1	8	1	120	220	320	NaN	520	0.359961975598708	2	0	NaN	1560955.4082678	NaN	1560956.3916695	1560956.90819752
25	19	0	0	90	36.1581920903955	36.241610738255	0	0	1	11	4	NaN	2	5	0.244781946575837	0	1	NaN	9	1	9	1	110	210	310	NaN	510	0.388075627619401	2	1	NaN	1560958.0918658	NaN	1560959.0752523	1560959.59180407
25	19	0	0	90	36.1581920903955	36.241610738255	22	0.733407487813383	2	9	6	NaN	2	3	0.244781946575837	0	1	NaN	10	1	10	1	120	220	320	NaN	520	0.431253475602716	2	1	NaN	1560960.8086809	NaN	1560961.7920644	1560962.30874092
25	19	0	0	90	36.1581920903955	36.241610738255	16	0.533387263864279	2	11	6	NaN	2	4	0.244781946575837	0	1	NaN	11	1	11	1	120	220	320	NaN	520	0.361018927535042	2	1	NaN	1560963.5590607	NaN	1560964.5424748	1560965.05899927
25	19	0	0	90	36.1581920903955	36.241610738255	8	0.266693631932139	2	2	1	NaN	1	3	0.244781946575837	0	1	NaN	12	1	12	1	120	220	320	NaN	520	0.317654375452548	2	0	NaN	1560966.2426541	NaN	1560967.2260754	1560967.74260002
25	19	0	0	90	36.1581920903955	36.241610738255	23	0.766744191804901	2	9	4	NaN	2	3	0.244781946575837	0	1	NaN	13	1	13	1	120	220	320	NaN	520	0.323148643830791	2	1	NaN	1560968.892934	NaN	1560969.8763306	1560970.39287296
25	19	0	0	90	36.1581920903955	36.241610738255	6	0.200020223949105	2	4	3	NaN	1	4	0.244781946575837	0	1	NaN	14	1	14	1	120	220	320	NaN	520	0.408960975706577	1	1	NaN	1560971.5432101	NaN	1560972.5265919	1560973.04311632
25	19	0	0	90	36.1581920903955	36.241610738255	14	0.466713855881244	2	12	2	NaN	2	4	0.244781946575837	0	1	NaN	15	1	15	1	120	220	320	NaN	520	0.37954932753928	2	1	NaN	1560974.2767828	NaN	1560975.2601907	1560975.77672767
25	19	0	0	90	36.1581920903955	36.241610738255	13	0.433377151889727	2	1	6	NaN	1	5	0.244781946575837	0	1	NaN	16	1	16	1	120	220	320	NaN	520	0.335251827491447	2	0	NaN	1560977.3597576	NaN	1560978.3438199	1560978.86035877
25	19	0	0	90	36.1581920903955	36.241610738255	24	0.800080895796418	2	6	4	NaN	1	4	0.244781946575837	0	1	NaN	17	1	17	1	120	220	320	NaN	520	0.44464812730439	1	1	NaN	1560980.0273509	NaN	1560981.0107527	1560981.52729807
25	19	0	0	90	36.1581920903955	36.241610738255	16	0.533387263864279	2	4	2	NaN	1	3	0.244781946575837	0	1	NaN	18	1	18	1	120	220	320	NaN	520	0.444818623363972	1	1	NaN	1560982.810953	NaN	1560983.7943136	1560984.31090178
25	19	0	0	90	36.1581920903955	36.241610738255	8	0.266693631932139	2	11	3	NaN	2	5	0.244781946575837	0	1	NaN	19	1	19	1	120	220	320	NaN	520	0.229154779575765	2	1	NaN	1560985.5945649	NaN	1560986.5778238	1560987.09450812
25	19	0	0	90	36.1581920903955	36.241610738255	8	0.266693631932139	2	3	6	NaN	1	5	0.244781946575837	0	1	NaN	20	1	20	1	120	220	320	NaN	520	0.458901327336207	1	1	NaN	1560988.2615268	NaN	1560989.2448928	1560989.76143187
25	19	0	0	90	36.1581920903955	36.241610738255	21	0.700070783821866	2	7	3	NaN	2	3	0.244781946575837	0	1	NaN	21	1	21	1	120	220	320	NaN	520	0.379091627430171	2	1	NaN	1560991.044976	NaN	1560992.0284851	1560992.54504627
25	19	0	0	90	36.1581920903955	36.241610738255	24	0.800080895796418	2	5	4	NaN	1	4	0.244781946575837	0	1	NaN	22	1	22	1	120	220	320	NaN	520	0.334981175605208	1	1	NaN	1560993.7452418	NaN	1560994.7287623	1560995.24530632
25	19	0	0	90	36.1581920903955	36.241610738255	15	0.500050559872761	2	12	5	NaN	2	5	0.244781946575837	0	1	NaN	23	1	23	1	120	220	320	NaN	520	0.348118127323687	2	1	NaN	1560996.4123049	NaN	1560997.3955834	1560997.91223327
25	19	0	0	90	36.1581920903955	36.241610738255	10	0.333367039915174	2	4	5	NaN	1	4	0.244781946575837	0	1	NaN	24	1	24	1	120	220	320	NaN	520	0.328362187836319	1	1	NaN	1560999.0958891	NaN	1561000.0793118	1561000.59582881
25	19	0	0	90	36.1581920903955	36.241610738255	24	0.800080895796418	2	7	5	NaN	2	4	0.244781946575837	0	1	NaN	25	1	25	1	120	220	320	NaN	520	0.261848227586597	2	1	NaN	1561001.7461668	NaN	1561002.7295506	1561003.24608887
25	19	0	0	90	36.1581920903955	36.241610738255	24	0.800080895796418	2	3	2	NaN	1	5	0.244781946575837	0	1	NaN	26	1	26	1	120	220	320	NaN	520	0.404257999965921	2	0	NaN	1561004.7797575	NaN	1561005.7631844	1561006.2797456
25	19	0	0	90	36.1581920903955	36.241610738255	7	0.233356927940622	2	3	4	NaN	1	5	0.244781946575837	0	1	NaN	27	1	27	1	120	220	320	NaN	520	0.33503881120123	1	1	NaN	1561007.5133825	NaN	1561008.4967975	1561009.01332259
25	19	0	0	90	36.1581920903955	36.241610738255	13	0.433377151889727	2	12	5	NaN	2	3	0.244781946575837	0	1	NaN	28	1	28	1	120	220	320	NaN	520	0.475860271370038	2	1	NaN	1561010.1803373	NaN	1561011.1637471	1561011.68024543
25	19	0	0	90	36.1581920903955	36.241610738255	18	0.600060671847314	2	8	3	NaN	2	4	0.244781946575837	0	1	NaN	29	1	29	1	120	220	320	NaN	520	0.48325137142092	2	1	NaN	1561012.9806367	NaN	1561013.9640268	1561014.48051623
25	19	0	0	90	36.1581920903955	36.241610738255	22	0.733407487813383	2	11	4	NaN	2	3	0.244781946575837	0	1	NaN	30	1	30	1	120	220	320	NaN	520	0.474577739601955	2	1	NaN	1561015.7973969	NaN	1561016.7809168	1561017.29746966
25	19	0	0	90	36.1581920903955	36.241610738255	15	0.500050559872761	2	4	1	NaN	1	5	0.244781946575837	0	1	NaN	31	1	31	1	120	220	320	NaN	520	0.458357291761786	1	1	NaN	1561018.5976702	NaN	1561019.5812224	1561020.09775361
25	19	0	0	90	36.1581920903955	36.241610738255	0	0	1	12	4	NaN	2	3	0.244781946575837	0	1	NaN	32	1	32	1	110	210	310	NaN	510	0.370825675548986	2	1	NaN	1561021.3814083	NaN	1561022.3648184	1561022.88134202
25	19	0	0	90	36.1581920903955	36.241610738255	16	0.533387263864279	2	7	5	NaN	2	4	0.244781946575837	0	1	NaN	33	1	33	1	120	220	320	NaN	520	0.408638475695625	2	1	NaN	1561025.4317786	NaN	1561026.4151735	1561026.93174622
25	19	0	0	90	36.1581920903955	36.241610738255	19	0.633397375838831	2	12	3	NaN	2	3	0.244781946575837	0	1	NaN	34	1	34	1	120	220	320	NaN	520	0.36258377158083	2	1	NaN	1561028.165485	NaN	1561029.14881	1561029.66535053
25	19	0	0	90	36.1581920903955	36.241610738255	12	0.400040447898209	2	9	4	NaN	2	4	0.244781946575837	0	1	NaN	35	1	35	1	120	220	320	NaN	520	0.295118571724743	2	1	NaN	1561030.8489909	NaN	1561031.8324135	1561032.34894623
25	19	0	0	90	36.1581920903955	36.241610738255	6	0.200020223949105	2	2	1	NaN	1	3	0.244781946575837	0	1	NaN	36	1	36	1	120	220	320	NaN	520	0.358583075460047	2	0	NaN	1561033.4659443	NaN	1561034.4493697	1561034.96587332
25	19	0	0	90	36.1581920903955	36.241610738255	18	0.600060671847314	2	2	2	NaN	1	4	0.244781946575837	0	1	NaN	37	1	37	1	120	220	320	NaN	520	0.381087923422456	1	1	NaN	1561036.682895	NaN	1561037.6664009	1561038.18284808
25	19	0	0	90	36.1581920903955	36.241610738255	16	0.533387263864279	2	8	2	NaN	2	5	0.244781946575837	0	1	NaN	38	1	38	1	120	220	320	NaN	520	0.368896875530481	1	0	NaN	1561039.3831983	NaN	1561040.3665796	1561040.88310952
25	19	0	0	90	36.1581920903955	36.241610738255	13	0.433377151889727	2	8	5	NaN	2	4	0.244781946575837	0	1	NaN	39	1	39	1	120	220	320	NaN	520	0.32516027148813	2	1	NaN	1561042.0666403	NaN	1561043.0501721	1561043.56671643
25	19	0	0	90	36.1581920903955	36.241610738255	7	0.233356927940622	2	2	6	NaN	1	4	0.244781946575837	0	1	NaN	40	1	40	1	120	220	320	NaN	520	0.6509493754711	2	0	NaN	1561044.7170493	NaN	1561045.7004814	1561046.21696512
25	19	0	0	90	36.1581920903955	36.241610738255	13	0.433377151889727	2	4	6	NaN	1	5	0.244781946575837	0	1	NaN	41	1	41	1	120	220	320	NaN	520	0.436589500168338	1	1	NaN	1561047.6839946	NaN	1561048.6675027	1561049.1839279
25	19	0	0	90	36.1581920903955	36.241610738255	0	0	1	11	6	NaN	2	3	0.244781946575837	0	1	NaN	42	1	42	1	110	210	310	NaN	510	0.701588475611061	1	0	NaN	1561050.4509477	NaN	1561051.4343088	1561051.95086682
25	19	0	0	90	36.1581920903955	36.241610738255	22	0.733407487813383	2	5	6	NaN	1	4	0.244781946575837	0	1	NaN	43	1	43	1	120	220	320	NaN	520	0.56366322748363	1	1	NaN	1561053.4845704	NaN	1561054.4679411	1561054.98449487
25	19	0	0	90	36.1581920903955	36.241610738255	11	0.366703743906692	2	11	3	NaN	2	3	0.244781946575837	0	1	NaN	44	1	44	1	120	220	320	NaN	520	0.32803807570599	2	1	NaN	1561056.3682262	NaN	1561057.3515651	1561057.86810882
25	19	0	0	90	36.1581920903955	36.241610738255	9	0.300030335923657	2	9	1	NaN	2	4	0.244781946575837	0	1	NaN	45	1	45	1	120	220	320	NaN	520	0.533665727358311	2	1	NaN	1561059.0184192	NaN	1561060.0018481	1561060.51837307
25	19	0	0	90	36.1581920903955	36.241610738255	10	0.333367039915174	2	7	4	NaN	2	5	0.244781946575837	0	1	NaN	46	1	46	1	120	220	320	NaN	520	0.355847691884264	2	1	NaN	1561061.868706	NaN	1561062.8521097	1561063.36866091
25	19	0	0	90	36.1581920903955	36.241610738255	17	0.566723967855796	2	3	1	NaN	1	4	0.244781946575837	0	1	NaN	47	1	47	1	120	220	320	NaN	520	0.472916123457253	2	0	NaN	1561064.5355263	NaN	1561065.5190411	1561066.03557818
25	19	0	0	90	36.1581920903955	36.241610738255	13	0.433377151889727	2	11	4	NaN	2	5	0.244781946575837	0	1	NaN	48	1	48	1	120	220	320	NaN	520	0.328941475600004	2	1	NaN	1561067.3192463	NaN	1561068.3026965	1561068.81919382
25	19	0	0	90	36.1581920903955	36.241610738255	20	0.666734079830348	2	6	4	NaN	1	3	0.244781946575837	0	1	NaN	49	1	49	1	120	220	320	NaN	520	0.374736827565357	1	1	NaN	1561069.969516	NaN	1561070.9529141	1561071.46945297
25	19	0	0	90	36.1581920903955	36.241610738255	14	0.466713855881244	2	10	5	NaN	2	3	0.244781946575837	0	1	NaN	50	1	50	1	120	220	320	NaN	520	0.538441075477749	2	1	NaN	1561072.669764	NaN	1561073.6531742	1561074.16972152
25	19	0	0	90	36.1581920903955	36.241610738255	23	0.766744191804901	2	3	1	NaN	1	3	0.244781946575837	0	1	NaN	51	1	51	1	120	220	320	NaN	520	0.456207979703322	2	0	NaN	1561075.5201115	NaN	1561076.503454	1561077.02000542
25	19	0	0	90	36.1581920903955	36.241610738255	0	0	1	5	4	NaN	1	3	0.244781946575837	0	1	NaN	52	1	52	1	110	210	310	NaN	510	0.489538575522602	1	1	NaN	1561078.2869993	NaN	1561079.2704733	1561079.78693322
25	19	0	0	90	36.1581920903955	36.241610738255	23	0.766744191804901	2	4	2	NaN	1	3	0.244781946575837	0	1	NaN	53	1	53	1	120	220	320	NaN	520	0.483827983727679	2	0	NaN	1561081.220628	NaN	1561082.2040064	1561082.72056472
25	19	0	0	90	36.1581920903955	36.241610738255	11	0.366703743906692	2	11	6	NaN	2	3	0.244781946575837	0	1	NaN	54	1	54	1	120	220	320	NaN	520	0.387792323250324	2	1	NaN	1561084.0207682	NaN	1561085.0043508	1561085.52083348
25	19	0	0	90	36.1581920903955	36.241610738255	24	0.800080895796418	2	1	1	NaN	1	3	0.244781946575837	0	1	NaN	55	1	55	1	120	220	320	NaN	520	0.248679223237559	1	1	NaN	1561087.2878523	NaN	1561088.2712802	1561088.78782078
25	19	0	0	90	36.1581920903955	36.241610738255	15	0.500050559872761	2	12	5	NaN	2	3	0.244781946575837	0	1	NaN	56	1	56	1	120	220	320	NaN	520	0.350454775616527	2	1	NaN	1561090.3381708	NaN	1561091.3215845	1561091.83811232
25	19	0	0	90	36.1581920903955	36.241610738255	15	0.500050559872761	2	9	5	NaN	2	3	0.244781946575837	0	1	NaN	57	1	57	1	120	220	320	NaN	520	0.306412671459839	1	0	NaN	1561093.0217711	NaN	1561094.0051813	1561094.52171843
25	19	0	0	90	36.1581920903955	36.241610738255	17	0.566723967855796	2	10	3	NaN	2	4	0.244781946575837	0	1	NaN	58	1	58	1	120	220	320	NaN	520	0.305011275457218	2	1	NaN	1561095.655385	NaN	1561096.6387771	1561097.15530402
25	19	0	0	90	36.1581920903955	36.241610738255	10	0.333367039915174	2	2	4	NaN	1	3	0.244781946575837	0	1	NaN	59	1	59	1	120	220	320	NaN	520	0.319319427479059	1	1	NaN	1561098.2890026	NaN	1561099.2723668	1561099.78890407
25	19	0	0	90	36.1581920903955	36.241610738255	6	0.200020223949105	2	7	6	NaN	2	4	0.244781946575837	0	1	NaN	60	1	60	1	120	220	320	NaN	520	0.518039275659248	2	1	NaN	1561100.9224119	NaN	1561101.9059684	1561102.42248182
25	19	0	0	90	36.1581920903955	36.241610738255	22	0.733407487813383	2	7	5	NaN	2	4	0.244781946575837	0	1	NaN	61	1	61	1	120	220	320	NaN	520	0.348108223406598	2	1	NaN	1561103.7560493	NaN	1561104.739669	1561105.25610478
25	19	0	0	90	36.1581920903955	36.241610738255	23	0.766744191804901	2	6	5	NaN	1	4	0.244781946575837	0	1	NaN	62	1	62	1	120	220	320	NaN	520	0.449323027394712	1	1	NaN	1561106.4230967	NaN	1561107.4064902	1561107.92303297
25	19	0	0	90	36.1581920903955	36.241610738255	12	0.400040447898209	2	7	3	NaN	2	5	0.244781946575837	0	1	NaN	63	1	63	1	120	220	320	NaN	520	0.330496523529291	2	1	NaN	1561109.1900149	NaN	1561110.1734235	1561110.68997478
25	19	0	0	90	36.1581920903955	36.241610738255	9	0.300030335923657	2	3	6	NaN	1	5	0.244781946575837	0	1	NaN	64	2	1	1	120	220	320	NaN	520	0.468902475433424	1	1	NaN	1561171.9793939	NaN	1561172.9629118	1561173.47945782
25	19	0	0	90	36.1581920903955	36.241610738255	16	0.533387263864279	2	6	3	NaN	1	4	0.244781946575837	0	1	NaN	65	2	2	1	120	220	320	NaN	520	0.829235475510359	1	1	NaN	1561174.7630993	NaN	1561175.7465708	1561176.26307252
25	19	0	0	90	36.1581920903955	36.241610738255	8	0.266693631932139	2	2	4	NaN	1	4	0.244781946575837	0	1	NaN	66	2	3	1	120	220	320	NaN	520	0.559156627394259	2	0	NaN	1561177.9132984	NaN	1561178.8968244	1561179.41337817
25	19	0	0	90	36.1581920903955	36.241610738255	16	0.533387263864279	2	7	6	NaN	2	4	0.244781946575837	0	1	NaN	67	2	4	1	120	220	320	NaN	520	0.737697775708511	2	1	NaN	1561181.0303681	NaN	1561182.013814	1561182.53034822
25	19	0	0	90	36.1581920903955	36.241610738255	10	0.333367039915174	2	11	2	NaN	2	3	0.244781946575837	0	1	NaN	68	2	5	1	120	220	320	NaN	520	0.623885227600113	2	1	NaN	1561184.0806999	NaN	1561185.0641227	1561185.58064427
25	19	0	0	90	36.1581920903955	36.241610738255	16	0.533387263864279	2	11	6	NaN	2	4	0.244781946575837	0	1	NaN	69	2	6	1	120	220	320	NaN	520	0.760942375520244	2	1	NaN	1561187.0310039	NaN	1561188.0144081	1561188.53094152
25	19	0	0	90	36.1581920903955	36.241610738255	24	0.800080895796418	2	2	5	NaN	1	3	0.244781946575837	0	1	NaN	70	2	7	1	120	220	320	NaN	520	0.541780575644225	1	1	NaN	1561190.1146481	NaN	1561191.0980821	1561191.61457152
25	19	0	0	90	36.1581920903955	36.241610738255	23	0.766744191804901	2	1	1	NaN	1	3	0.244781946575837	0	1	NaN	71	2	8	1	120	220	320	NaN	520	1.01912467577495	1	1	NaN	1561192.9815974	NaN	1561193.9649585	1561194.48151642
25	19	0	0	90	36.1581920903955	36.241610738255	13	0.433377151889727	2	7	1	NaN	2	5	0.244781946575837	0	1	NaN	72	2	9	1	120	220	320	NaN	520	0.453013327438384	2	1	NaN	1561196.3153126	NaN	1561197.2986406	1561197.81519757
25	19	0	0	90	36.1581920903955	36.241610738255	15	0.500050559872761	2	9	5	NaN	2	4	0.244781946575837	0	1	NaN	73	2	10	1	120	220	320	NaN	520	0.685886175604537	2	1	NaN	1561199.0988759	NaN	1561200.0822657	1561200.59880912
25	19	0	0	90	36.1581920903955	36.241610738255	17	0.566723967855796	2	6	4	NaN	1	4	0.244781946575837	0	1	NaN	74	2	11	1	120	220	320	NaN	520	0.956768823554739	1	1	NaN	1561202.1158921	NaN	1561203.0992244	1561203.61577258
25	19	0	0	90	36.1581920903955	36.241610738255	11	0.366703743906692	2	5	3	NaN	1	3	0.244781946575837	0	1	NaN	75	2	12	1	120	220	320	NaN	520	0.528738535474986	1	1	NaN	1561205.3994591	NaN	1561206.3828632	1561206.89940776
25	19	0	0	90	36.1581920903955	36.241610738255	8	0.266693631932139	2	3	3	NaN	1	3	0.244781946575837	0	1	NaN	76	2	13	1	120	220	320	NaN	520	1.1515953396447	1	1	NaN	1561208.2331562	NaN	1561209.2165107	1561209.73302616
25	19	0	0	90	36.1581920903955	36.241610738255	22	0.733407487813383	2	9	5	NaN	2	4	0.244781946575837	0	1	NaN	77	2	14	1	120	220	320	NaN	520	1.25171008775942	2	1	NaN	1561211.7167617	NaN	1561212.7001643	1561213.21669991
25	19	0	0	90	36.1581920903955	36.241610738255	19	0.633397375838831	2	9	4	NaN	2	4	0.244781946575837	0	1	NaN	78	2	15	1	120	220	320	NaN	520	0.588830871507525	1	0	NaN	1561215.2837667	NaN	1561216.2671725	1561216.78371663
25	19	0	0	90	36.1581920903955	36.241610738255	9	0.300030335923657	2	10	3	NaN	2	5	0.244781946575837	0	1	NaN	79	2	16	1	120	220	320	NaN	520	0.440431035589427	1	0	NaN	1561218.1840724	NaN	1561219.167463	1561219.68401186
25	19	0	0	90	36.1581920903955	36.241610738255	7	0.233356927940622	2	12	1	NaN	2	5	0.244781946575837	0	1	NaN	80	2	17	1	120	220	320	NaN	520	0.633448579581454	2	1	NaN	1561220.9509846	NaN	1561221.9343909	1561222.45094422
25	19	0	0	90	36.1581920903955	36.241610738255	23	0.766744191804901	2	6	2	NaN	1	4	0.244781946575837	0	1	NaN	81	2	18	1	120	220	320	NaN	520	0.546766135841608	1	1	NaN	1561223.9012956	NaN	1561224.8846914	1561225.40123606
25	19	0	0	90	36.1581920903955	36.241610738255	11	0.366703743906692	2	2	2	NaN	1	4	0.244781946575837	0	1	NaN	82	2	19	1	120	220	320	NaN	520	0.656227727420628	1	1	NaN	1561226.7682087	NaN	1561227.7516373	1561228.26816757
25	19	0	0	90	36.1581920903955	36.241610738255	20	0.666734079830348	2	1	2	NaN	1	5	0.244781946575837	0	1	NaN	83	2	20	1	120	220	320	NaN	520	0.625630727503449	1	1	NaN	1561229.7351946	NaN	1561230.7185857	1561231.23512517
25	19	0	0	90	36.1581920903955	36.241610738255	19	0.633397375838831	2	1	2	NaN	1	5	0.244781946575837	0	1	NaN	84	2	21	1	120	220	320	NaN	520	0.794947227463126	1	1	NaN	1561232.6854651	NaN	1561233.6688956	1561234.18541607
25	19	0	0	90	36.1581920903955	36.241610738255	18	0.600060671847314	2	9	4	NaN	2	3	0.244781946575837	0	1	NaN	85	2	22	1	120	220	320	NaN	520	0.934043379500508	2	1	NaN	1561235.8024634	NaN	1561236.7858634	1561237.30239252
25	19	0	0	90	36.1581920903955	36.241610738255	24	0.800080895796418	2	9	2	NaN	2	4	0.244781946575837	0	1	NaN	86	2	23	1	120	220	320	NaN	520	0.459534575464204	2	1	NaN	1561239.0527836	NaN	1561240.0361783	1561240.55271112
25	19	0	0	90	36.1581920903955	36.241610738255	6	0.200020223949105	2	9	5	NaN	2	4	0.244781946575837	0	1	NaN	87	2	24	1	120	220	320	NaN	520	0.756031527649611	2	1	NaN	1561241.8363682	NaN	1561242.8197872	1561243.33632487
25	19	0	0	90	36.1581920903955	36.241610738255	12	0.400040447898209	2	6	2	NaN	1	5	0.244781946575837	0	1	NaN	88	2	25	1	120	220	320	NaN	520	0.856574727455154	1	1	NaN	1561244.9200082	NaN	1561245.9034545	1561246.41995077
25	19	0	0	90	36.1581920903955	36.241610738255	21	0.700070783821866	2	5	2	NaN	1	4	0.244781946575837	0	1	NaN	89	2	26	1	120	220	320	NaN	520	0.68923950009048	1	1	NaN	1561248.1036375	NaN	1561249.0870642	1561249.6035975
25	19	0	0	90	36.1581920903955	36.241610738255	12	0.400040447898209	2	4	2	NaN	1	4	0.244781946575837	0	1	NaN	90	2	27	1	120	220	320	NaN	520	0.720578971551731	1	1	NaN	1561251.1039264	NaN	1561252.0874107	1561252.60388843
25	19	0	0	90	36.1581920903955	36.241610738255	8	0.266693631932139	2	7	6	NaN	2	5	0.244781946575837	0	1	NaN	91	2	28	1	120	220	320	NaN	520	0.919094823533669	2	1	NaN	1561254.137605	NaN	1561255.1209948	1561255.63753328
25	19	0	0	90	36.1581920903955	36.241610738255	18	0.600060671847314	2	1	3	NaN	1	3	0.244781946575837	0	1	NaN	92	2	29	1	120	220	320	NaN	520	0.981459127506241	1	1	NaN	1561257.3711116	NaN	1561258.3546297	1561258.87118357
25	19	0	0	90	36.1581920903955	36.241610738255	25	0.833417599787936	2	6	6	NaN	1	3	0.244781946575837	0	1	NaN	93	2	30	1	120	220	320	NaN	520	0.856868271483108	1	1	NaN	1561260.6716	NaN	1561261.654951	1561262.17149603
25	19	0	0	90	36.1581920903955	36.241610738255	0	0	1	7	3	NaN	2	3	0.244781946575837	0	1	NaN	94	2	31	1	110	210	310	NaN	510	0.737984227482229	2	1	NaN	1561263.8385182	NaN	1561264.8219179	1561265.33847157
25	19	0	0	90	36.1581920903955	36.241610738255	25	0.833417599787936	2	4	6	NaN	1	5	0.244781946575837	0	1	NaN	95	2	32	1	120	220	320	NaN	520	0.647241975646466	1	1	NaN	1561266.9055233	NaN	1561267.8889142	1561268.40544232
25	19	0	0	90	36.1581920903955	36.241610738255	8	0.266693631932139	2	6	2	NaN	1	4	0.244781946575837	0	1	NaN	96	2	33	1	120	220	320	NaN	520	0.712428479455411	1	1	NaN	1561269.8724525	NaN	1561270.8558659	1561271.37241192
25	19	0	0	90	36.1581920903955	36.241610738255	22	0.733407487813383	2	4	4	NaN	1	5	0.244781946575837	0	1	NaN	97	2	34	1	120	220	320	NaN	520	1.24662387557328	1	1	NaN	1561272.9061264	NaN	1561273.8895341	1561274.40602692
25	19	0	0	90	36.1581920903955	36.241610738255	8	0.266693631932139	2	4	3	NaN	1	4	0.244781946575837	0	1	NaN	98	2	35	1	120	220	320	NaN	520	0.887806627433747	1	1	NaN	1561276.4729909	NaN	1561277.4565225	1561277.97304327
25	19	0	0	90	36.1581920903955	36.241610738255	11	0.366703743906692	2	1	5	NaN	1	3	0.244781946575837	0	1	NaN	99	2	36	1	120	220	320	NaN	520	0.390697735594586	2	0	NaN	1561279.6901076	NaN	1561280.6734846	1561281.19003896
25	19	0	0	90	36.1581920903955	36.241610738255	11	0.366703743906692	2	3	3	NaN	1	5	0.244781946575837	0	1	NaN	100	2	37	1	120	220	320	NaN	520	0.473690079525113	1	1	NaN	1561282.4070358	NaN	1561283.3904334	1561283.90697222
25	19	0	0	90	36.1581920903955	36.241610738255	14	0.466713855881244	2	4	2	NaN	1	4	0.244781946575837	0	1	NaN	101	2	38	1	120	220	320	NaN	520	0.51406782749109	1	1	NaN	1561285.1907287	NaN	1561286.1740288	1561286.69057837
25	19	0	0	90	36.1581920903955	36.241610738255	6	0.200020223949105	2	3	3	NaN	1	3	0.244781946575837	0	1	NaN	102	2	39	1	120	220	320	NaN	520	0.456736479653046	1	1	NaN	1561288.0242387	NaN	1561289.0076569	1561289.52419432
25	19	0	0	90	36.1581920903955	36.241610738255	7	0.233356927940622	2	6	1	NaN	1	3	0.244781946575837	0	1	NaN	103	2	40	1	120	220	320	NaN	520	0.409717775415629	1	1	NaN	1561290.7911591	NaN	1561291.7745774	1561292.29111712
25	19	0	0	90	36.1581920903955	36.241610738255	9	0.300030335923657	2	2	1	NaN	1	3	0.244781946575837	0	1	NaN	104	2	41	1	120	220	320	NaN	520	0.384323527337983	1	1	NaN	1561294.008126	NaN	1561294.9915649	1561295.50809907
25	19	0	0	90	36.1581920903955	36.241610738255	19	0.633397375838831	2	6	4	NaN	1	5	0.244781946575837	0	1	NaN	105	2	42	1	120	220	320	NaN	520	1.21149297547527	1	1	NaN	1561296.7251768	NaN	1561297.7084935	1561298.22503672
25	19	0	0	90	36.1581920903955	36.241610738255	23	0.766744191804901	2	10	1	NaN	2	3	0.244781946575837	0	1	NaN	106	2	43	1	120	220	320	NaN	520	0.614012575475499	2	1	NaN	1561300.2587881	NaN	1561301.242268	1561301.75872642
25	19	0	0	90	36.1581920903955	36.241610738255	6	0.200020223949105	2	6	2	NaN	1	5	0.244781946575837	0	1	NaN	107	2	44	1	120	220	320	NaN	520	0.872113639488816	1	1	NaN	1561303.1923945	NaN	1561304.1757934	1561304.69234406
25	19	0	0	90	36.1581920903955	36.241610738255	6	0.200020223949105	2	5	2	NaN	1	3	0.244781946575837	0	1	NaN	108	2	45	1	120	220	320	NaN	520	0.66645802767016	1	1	NaN	1561306.7260688	NaN	1561307.7094978	1561308.22601577
25	19	0	0	90	36.1581920903955	36.241610738255	25	0.833417599787936	2	12	6	NaN	2	3	0.244781946575837	0	1	NaN	109	2	46	1	120	220	320	NaN	520	0.451235575601459	2	1	NaN	1561309.7097218	NaN	1561310.693155	1561311.20964072
25	19	0	0	90	36.1581920903955	36.241610738255	10	0.333367039915174	2	7	1	NaN	2	4	0.244781946575837	0	1	NaN	110	2	47	1	120	220	320	NaN	520	0.571268975734711	2	1	NaN	1561312.4933055	NaN	1561313.4767133	1561313.99325802
25	19	0	0	90	36.1581920903955	36.241610738255	21	0.700070783821866	2	2	2	NaN	1	5	0.244781946575837	0	1	NaN	111	2	48	1	120	220	320	NaN	520	0.494769767392427	1	1	NaN	1561315.3936393	NaN	1561316.377032	1561316.89353533
25	19	0	0	90	36.1581920903955	36.241610738255	15	0.500050559872761	2	1	6	NaN	1	4	0.244781946575837	0	1	NaN	112	2	49	1	120	220	320	NaN	520	0.574359175516292	1	1	NaN	1561318.2105458	NaN	1561319.1939292	1561319.71048232
25	19	0	0	90	36.1581920903955	36.241610738255	17	0.566723967855796	2	4	3	NaN	1	5	0.244781946575837	0	1	NaN	113	2	50	1	120	220	320	NaN	520	1.25772297568619	1	1	NaN	1561321.1108463	NaN	1561322.0942332	1561322.61076372
25	19	0	0	90	36.1581920903955	36.241610738255	18	0.600060671847314	2	7	6	NaN	2	3	0.244781946575837	0	1	NaN	114	2	51	1	120	220	320	NaN	520	0.386072875699028	2	1	NaN	1561324.6945136	NaN	1561325.6778149	1561326.19444672
25	19	0	0	90	36.1581920903955	36.241610738255	18	0.600060671847314	2	10	3	NaN	2	3	0.244781946575837	0	1	NaN	115	2	52	1	120	220	320	NaN	520	0.525664135580882	1	0	NaN	1561327.3947919	NaN	1561328.3781337	1561328.89471846
25	19	0	0	90	36.1581920903955	36.241610738255	22	0.733407487813383	2	12	1	NaN	2	5	0.244781946575837	0	1	NaN	116	2	53	1	120	220	320	NaN	520	0.627583127468824	2	1	NaN	1561330.2450522	NaN	1561331.2284482	1561331.74499647
25	19	0	0	90	36.1581920903955	36.241610738255	0	0	1	5	3	NaN	1	4	0.244781946575837	0	1	NaN	117	2	54	1	110	210	310	NaN	510	0.427190235583112	2	0	NaN	1561333.6453782	NaN	1561334.6287973	1561335.14532596
25	19	0	0	90	36.1581920903955	36.241610738255	6	0.200020223949105	2	10	4	NaN	2	3	0.244781946575837	0	1	NaN	118	2	55	1	120	220	320	NaN	520	0.501211979659274	2	1	NaN	1561336.3955143	NaN	1561337.3790652	1561337.89560792
25	19	0	0	90	36.1581920903955	36.241610738255	15	0.500050559872761	2	7	4	NaN	2	4	0.244781946575837	0	1	NaN	119	2	56	1	120	220	320	NaN	520	0.323668375611305	2	1	NaN	1561339.2292793	NaN	1561340.2126802	1561340.72920782
25	19	0	0	90	36.1581920903955	36.241610738255	14	0.466713855881244	2	6	2	NaN	1	4	0.244781946575837	0	1	NaN	120	2	57	1	120	220	320	NaN	520	0.857154375407845	1	1	NaN	1561341.8795485	NaN	1561342.8629378	1561343.37947662
25	19	0	0	90	36.1581920903955	36.241610738255	23	0.766744191804901	2	3	5	NaN	1	5	0.244781946575837	0	1	NaN	121	2	58	1	120	220	320	NaN	520	0.865722143789753	1	1	NaN	1561345.0631985	NaN	1561346.0465793	1561346.56312086
25	19	0	0	90	36.1581920903955	36.241610738255	18	0.600060671847314	2	5	4	NaN	1	4	0.244781946575837	0	1	NaN	122	2	59	1	120	220	320	NaN	520	0.417904027504846	1	1	NaN	1561348.246818	NaN	1561349.2302399	1561349.74676127
25	19	0	0	90	36.1581920903955	36.241610738255	9	0.300030335923657	2	1	3	NaN	1	4	0.244781946575837	0	1	NaN	123	2	60	1	120	220	320	NaN	520	0.492250975454226	1	1	NaN	1561350.9803333	NaN	1561351.9638175	1561352.48035912
25	19	0	0	90	36.1581920903955	36.241610738255	18	0.600060671847314	2	11	5	NaN	2	3	0.244781946575837	0	1	NaN	124	2	61	1	120	220	320	NaN	520	0.363218171522021	2	1	NaN	1561353.7973639	NaN	1561354.7807708	1561355.29729673
25	19	0	0	90	36.1581920903955	36.241610738255	8	0.266693631932139	2	10	4	NaN	2	3	0.244781946575837	0	1	NaN	125	2	62	1	120	220	320	NaN	520	0.791898479685187	2	1	NaN	1561356.4809816	NaN	1561357.4643551	1561357.98090022
25	19	0	0	90	36.1581920903955	36.241610738255	19	0.633397375838831	2	8	4	NaN	2	3	0.244781946575837	0	1	NaN	126	2	63	1	120	220	320	NaN	520	0.546760727418587	2	1	NaN	1561359.5979205	NaN	1561360.5813388	1561361.09787137
25	19	0	0	90	36.1581920903955	36.241610738255	9	0.300030335923657	2	5	5	NaN	1	4	0.244781946575837	0	1	NaN	127	3	1	1	120	220	320	NaN	520	4.27526277955621	1	1	NaN	1561372.1493082	NaN	1561373.1325899	1561373.64912992
25	19	0	0	90	36.1581920903955	36.241610738255	20	0.666734079830348	2	5	1	NaN	1	3	0.244781946575837	0	1	NaN	128	3	2	1	120	220	320	NaN	520	0.435048627434298	1	1	NaN	1561378.7498381	NaN	1561379.7332148	1561380.24975677
25	19	0	0	90	36.1581920903955	36.241610738255	8	0.266693631932139	2	1	4	NaN	1	3	0.244781946575837	0	1	NaN	129	3	3	1	120	220	320	NaN	520	1.02062867954373	1	1	NaN	1561381.5000813	NaN	1561382.4834799	1561383.00003432
25	19	0	0	90	36.1581920903955	36.241610738255	14	0.466713855881244	2	7	1	NaN	2	3	0.244781946575837	0	1	NaN	130	3	4	1	120	220	320	NaN	520	0.574957175645977	2	1	NaN	1561384.833596	NaN	1561385.8171415	1561386.33368962
25	19	0	0	90	36.1581920903955	36.241610738255	11	0.366703743906692	2	1	2	NaN	1	3	0.244781946575837	0	1	NaN	131	3	5	1	120	220	320	NaN	520	0.602345327613875	1	1	NaN	1561387.7340315	NaN	1561388.717444	1561389.23396477
25	19	0	0	90	36.1581920903955	36.241610738255	11	0.366703743906692	2	6	6	NaN	1	3	0.244781946575837	0	1	NaN	132	3	6	1	120	220	320	NaN	520	1.10969507554546	1	1	NaN	1561390.6509811	NaN	1561391.6344156	1561392.15092642
25	19	0	0	90	36.1581920903955	36.241610738255	13	0.433377151889727	2	9	1	NaN	2	4	0.244781946575837	0	1	NaN	133	3	7	1	120	220	320	NaN	520	0.852362919365987	2	1	NaN	1561394.0846658	NaN	1561395.068068	1561395.58459538
25	19	0	0	90	36.1581920903955	36.241610738255	17	0.566723967855796	2	4	1	NaN	1	3	0.244781946575837	0	1	NaN	134	3	8	1	120	220	320	NaN	520	0.43697892758064	1	1	NaN	1561397.2515352	NaN	1561398.2350419	1561398.75157407
25	19	0	0	90	36.1581920903955	36.241610738255	8	0.266693631932139	2	9	3	NaN	2	5	0.244781946575837	0	1	NaN	135	3	9	1	120	220	320	NaN	520	0.821878575487062	2	1	NaN	1561400.0185717	NaN	1561401.0019839	1561401.51850852
25	19	0	0	90	36.1581920903955	36.241610738255	19	0.633397375838831	2	6	3	NaN	1	4	0.244781946575837	0	1	NaN	136	3	10	1	120	220	320	NaN	520	0.575853427639231	1	1	NaN	1561403.1688754	NaN	1561404.1523538	1561404.66882187
25	19	0	0	90	36.1581920903955	36.241610738255	18	0.600060671847314	2	8	3	NaN	2	5	0.244781946575837	0	1	NaN	137	3	11	1	120	220	320	NaN	520	0.507790479809046	2	1	NaN	1561406.0691632	NaN	1561407.0525678	1561407.56910782
25	19	0	0	90	36.1581920903955	36.241610738255	9	0.300030335923657	2	6	2	NaN	1	4	0.244781946575837	0	1	NaN	138	3	12	1	120	220	320	NaN	520	0.417667523492128	1	1	NaN	1561408.9027858	NaN	1561409.8861769	1561410.40271838
25	19	0	0	90	36.1581920903955	36.241610738255	18	0.600060671847314	2	6	5	NaN	1	4	0.244781946575837	0	1	NaN	139	3	13	1	120	220	320	NaN	520	0.484381679678336	1	1	NaN	1561411.6363733	NaN	1561412.6197915	1561413.13631892
25	19	0	0	90	36.1581920903955	36.241610738255	12	0.400040447898209	2	3	2	NaN	1	5	0.244781946575837	0	1	NaN	140	3	14	1	120	220	320	NaN	520	0.556199339684099	1	1	NaN	1561414.4366603	NaN	1561415.4200566	1561415.93659186
25	19	0	0	90	36.1581920903955	36.241610738255	7	0.233356927940622	2	8	1	NaN	2	5	0.244781946575837	0	1	NaN	141	3	15	1	120	220	320	NaN	520	0.416792227420956	2	1	NaN	1561417.3202639	NaN	1561418.3036549	1561418.82020277
25	19	0	0	90	36.1581920903955	36.241610738255	13	0.433377151889727	2	1	2	NaN	1	4	0.244781946575837	0	1	NaN	142	3	16	1	120	220	320	NaN	520	0.427165075438097	1	1	NaN	1561420.053832	NaN	1561421.0372799	1561421.55380172
25	19	0	0	90	36.1581920903955	36.241610738255	11	0.366703743906692	2	6	6	NaN	1	3	0.244781946575837	0	1	NaN	143	3	17	1	120	220	320	NaN	520	0.468948127469048	1	1	NaN	1561422.8039912	NaN	1561423.7875377	1561424.30407917
25	19	0	0	90	36.1581920903955	36.241610738255	22	0.733407487813383	2	7	6	NaN	2	5	0.244781946575837	0	1	NaN	144	3	18	1	120	220	320	NaN	520	1.22122627543285	2	1	NaN	1561425.5876105	NaN	1561426.5711526	1561427.08768572
25	19	0	0	90	36.1581920903955	36.241610738255	17	0.566723967855796	2	8	3	NaN	2	4	0.244781946575837	0	1	NaN	145	3	19	1	120	220	320	NaN	520	0.990565527463332	2	1	NaN	1561429.1380962	NaN	1561430.1215031	1561430.63802717
25	19	0	0	90	36.1581920903955	36.241610738255	18	0.600060671847314	2	5	5	NaN	1	5	0.244781946575837	0	1	NaN	146	3	20	1	120	220	320	NaN	520	0.42577514378354	2	0	NaN	1561432.4550734	NaN	1561433.4384862	1561433.95502856
25	19	0	0	90	36.1581920903955	36.241610738255	24	0.800080895796418	2	10	1	NaN	2	4	0.244781946575837	0	1	NaN	147	3	21	1	120	220	320	NaN	520	0.547401279676706	2	1	NaN	1561435.2053609	NaN	1561436.1888261	1561436.70530122
25	19	0	0	90	36.1581920903955	36.241610738255	14	0.466713855881244	2	2	2	NaN	1	5	0.244781946575837	0	1	NaN	148	3	22	1	120	220	320	NaN	520	0.496482975548133	1	1	NaN	1561438.0722957	NaN	1561439.0557345	1561439.57223502
25	19	0	0	90	36.1581920903955	36.241610738255	18	0.600060671847314	2	3	4	NaN	1	4	0.244781946575837	0	1	NaN	149	3	23	1	120	220	320	NaN	520	0.328533727442846	2	0	NaN	1561441.4559508	NaN	1561442.4393678	1561442.95590067
25	19	0	0	90	36.1581920903955	36.241610738255	0	0	1	10	3	NaN	2	5	0.244781946575837	0	1	NaN	150	3	24	1	110	210	310	NaN	510	0.374564875615761	2	1	NaN	1561444.1062647	NaN	1561445.0896371	1561445.60616242
25	19	0	0	90	36.1581920903955	36.241610738255	16	0.533387263864279	2	1	4	NaN	1	5	0.244781946575837	0	1	NaN	151	3	25	1	120	220	320	NaN	520	0.434745891718194	1	1	NaN	1561446.7897097	NaN	1561447.7732322	1561448.28977151
25	19	0	0	90	36.1581920903955	36.241610738255	19	0.633397375838831	2	7	2	NaN	2	3	0.244781946575837	0	1	NaN	152	3	26	1	120	220	320	NaN	520	0.732451427495107	2	1	NaN	1561449.540111	NaN	1561450.5235041	1561451.04003927
25	19	0	0	90	36.1581920903955	36.241610738255	21	0.700070783821866	2	6	3	NaN	1	5	0.244781946575837	0	1	NaN	153	3	27	1	120	220	320	NaN	520	0.450620079645887	1	1	NaN	1561452.5903963	NaN	1561453.5738231	1561454.09034152
25	19	0	0	90	36.1581920903955	36.241610738255	23	0.766744191804901	2	2	3	NaN	1	5	0.244781946575837	0	1	NaN	154	3	28	1	120	220	320	NaN	520	0.507807827554643	1	1	NaN	1561455.3573211	NaN	1561456.3407425	1561456.85728197
25	19	0	0	90	36.1581920903955	36.241610738255	22	0.733407487813383	2	11	2	NaN	2	4	0.244781946575837	0	1	NaN	155	3	29	1	120	220	320	NaN	520	0.370174823561683	2	1	NaN	1561458.190959	NaN	1561459.1743473	1561459.69087748
25	19	0	0	90	36.1581920903955	36.241610738255	17	0.566723967855796	2	9	4	NaN	2	3	0.244781946575837	0	1	NaN	156	3	30	1	120	220	320	NaN	520	0.44624182744883	1	0	NaN	1561460.8745567	NaN	1561461.857955	1561462.37448767
25	19	0	0	90	36.1581920903955	36.241610738255	25	0.833417599787936	2	9	5	NaN	2	4	0.244781946575837	0	1	NaN	157	3	31	1	120	220	320	NaN	520	1.49540962744504	2	1	NaN	1561463.6414589	NaN	1561464.6248847	1561465.14142607
25	19	0	0	90	36.1581920903955	36.241610738255	20	0.666734079830348	2	9	6	NaN	2	5	0.244781946575837	0	1	NaN	158	3	32	1	120	220	320	NaN	520	1.3902129274793	2	1	NaN	1561467.458638	NaN	1561468.4419376	1561468.95846007
25	19	0	0	90	36.1581920903955	36.241610738255	11	0.366703743906692	2	9	1	NaN	2	4	0.244781946575837	0	1	NaN	159	3	33	1	120	220	320	NaN	520	0.633240579627454	2	1	NaN	1561471.1755844	NaN	1561472.1589785	1561472.67549872
25	19	0	0	90	36.1581920903955	36.241610738255	0	0	1	2	5	NaN	1	4	0.244781946575837	0	1	NaN	160	3	34	1	110	210	310	NaN	510	0.370801375480369	2	0	NaN	1561474.1258594	NaN	1561475.109263	1561475.62577512
25	19	0	0	90	36.1581920903955	36.241610738255	20	0.666734079830348	2	2	1	NaN	1	5	0.244781946575837	0	1	NaN	161	3	35	1	120	220	320	NaN	520	0.327041427604854	2	0	NaN	1561476.8261067	NaN	1561477.8095128	1561478.32604807
25	19	0	0	90	36.1581920903955	36.241610738255	0	0	1	12	1	NaN	2	4	0.244781946575837	0	1	NaN	162	3	36	1	110	210	310	NaN	510	1.10846062353812	2	1	NaN	1561479.4763705	NaN	1561480.4598034	1561480.97630158
25	19	0	0	90	36.1581920903955	36.241610738255	19	0.633397375838831	2	5	5	NaN	1	3	0.244781946575837	0	1	NaN	163	3	37	1	120	220	320	NaN	520	0.698726327391341	1	1	NaN	1561482.909909	NaN	1561483.8934621	1561484.40997447
25	19	0	0	90	36.1581920903955	36.241610738255	9	0.300030335923657	2	12	3	NaN	2	5	0.244781946575837	0	1	NaN	164	3	38	1	120	220	320	NaN	520	1.26539027551189	2	1	NaN	1561486.5436718	NaN	1561487.5271326	1561488.04366922
25	19	0	0	90	36.1581920903955	36.241610738255	24	0.800080895796418	2	11	3	NaN	2	3	0.244781946575837	0	1	NaN	165	3	39	1	120	220	320	NaN	520	0.521381027530879	2	1	NaN	1561490.1273854	NaN	1561491.1108451	1561491.62735547
25	19	0	0	90	36.1581920903955	36.241610738255	21	0.700070783821866	2	10	3	NaN	2	3	0.244781946575837	0	1	NaN	166	3	40	1	120	220	320	NaN	520	0.304046575678512	2	1	NaN	1561492.9610291	NaN	1561493.9444221	1561494.46097082
25	19	0	0	90	36.1581920903955	36.241610738255	6	0.200020223949105	2	12	4	NaN	2	5	0.244781946575837	0	1	NaN	167	3	41	1	120	220	320	NaN	520	0.431045275414363	1	0	NaN	1561495.5778137	NaN	1561496.5613553	1561497.07789302
25	19	0	0	90	36.1581920903955	36.241610738255	11	0.366703743906692	2	10	6	NaN	2	4	0.244781946575837	0	1	NaN	168	3	42	1	120	220	320	NaN	520	0.360903575550765	2	1	NaN	1561498.3282032	NaN	1561499.3116071	1561499.82814822
25	19	0	0	90	36.1581920903955	36.241610738255	10	0.333367039915174	2	12	1	NaN	2	4	0.244781946575837	0	1	NaN	169	3	43	1	120	220	320	NaN	520	0.829371427418664	2	1	NaN	1561501.0118437	NaN	1561501.9952092	1561502.51174617
25	19	0	0	90	36.1581920903955	36.241610738255	6	0.200020223949105	2	5	3	NaN	1	4	0.244781946575837	0	1	NaN	170	3	44	1	120	220	320	NaN	520	0.758587475400418	2	0	NaN	1561504.1621297	NaN	1561505.1455232	1561505.66206962
25	19	0	0	90	36.1581920903955	36.241610738255	12	0.400040447898209	2	11	3	NaN	2	3	0.244781946575837	0	1	NaN	171	3	45	1	120	220	320	NaN	520	0.315049163531512	1	0	NaN	1561507.2456684	NaN	1561508.229144	1561508.74570314
25	19	0	0	90	36.1581920903955	36.241610738255	9	0.300030335923657	2	8	6	NaN	2	4	0.244781946575837	0	1	NaN	172	3	46	1	120	220	320	NaN	520	0.577535275602713	1	0	NaN	1561509.8793298	NaN	1561510.8627439	1561511.37928882
25	19	0	0	90	36.1581920903955	36.241610738255	12	0.400040447898209	2	12	6	NaN	2	5	0.244781946575837	0	1	NaN	173	3	47	1	120	220	320	NaN	520	0.38955823960714	2	1	NaN	1561512.7797346	NaN	1561513.7630407	1561514.27957426
25	19	0	0	90	36.1581920903955	36.241610738255	21	0.700070783821866	2	4	5	NaN	1	3	0.244781946575837	0	1	NaN	174	3	48	1	120	220	320	NaN	520	0.359190079616383	2	0	NaN	1561515.7298157	NaN	1561516.7133527	1561517.22986232
25	19	0	0	90	36.1581920903955	36.241610738255	22	0.733407487813383	2	1	5	NaN	1	4	0.244781946575837	0	1	NaN	175	3	49	1	120	220	320	NaN	520	0.355302371550351	2	0	NaN	1561518.4135545	NaN	1561519.3969224	1561519.91346553
25	19	0	0	90	36.1581920903955	36.241610738255	10	0.333367039915174	2	6	5	NaN	1	3	0.244781946575837	0	1	NaN	176	3	50	1	120	220	320	NaN	520	0.383681975537911	1	1	NaN	1561521.0971236	NaN	1561522.0805103	1561522.59705452
25	19	0	0	90	36.1581920903955	36.241610738255	15	0.500050559872761	2	1	5	NaN	1	5	0.244781946575837	0	1	NaN	177	3	51	1	120	220	320	NaN	520	0.363498027436435	1	1	NaN	1561523.7973711	NaN	1561524.7807869	1561525.29734027
25	19	0	0	90	36.1581920903955	36.241610738255	7	0.233356927940622	2	3	6	NaN	1	4	0.244781946575837	0	1	NaN	178	3	52	1	120	220	320	NaN	520	1.27191242342815	2	0	NaN	1561526.4808338	NaN	1561527.4644024	1561527.98092398
25	19	0	0	90	36.1581920903955	36.241610738255	17	0.566723967855796	2	2	6	NaN	1	3	0.244781946575837	0	1	NaN	179	3	53	1	120	220	320	NaN	520	0.407489275559783	2	0	NaN	1561530.0813599	NaN	1561531.0647357	1561531.58126982
25	19	0	0	90	36.1581920903955	36.241610738255	21	0.700070783821866	2	5	1	NaN	1	5	0.244781946575837	0	1	NaN	180	3	54	1	120	220	320	NaN	520	1.88170407549478	1	1	NaN	1561532.8147733	NaN	1561533.798336	1561534.31487192
25	19	0	0	90	36.1581920903955	36.241610738255	21	0.700070783821866	2	3	6	NaN	1	4	0.244781946575837	0	1	NaN	181	3	55	1	120	220	320	NaN	520	0.489732823334634	1	1	NaN	1561537.0152783	NaN	1561537.9987611	1561538.51528548
25	19	0	0	90	36.1581920903955	36.241610738255	25	0.833417599787936	2	12	6	NaN	2	3	0.244781946575837	0	1	NaN	182	3	56	1	120	220	320	NaN	520	0.984670823439956	2	1	NaN	1561539.8321857	NaN	1561540.815695	1561541.33222788
25	19	0	0	90	36.1581920903955	36.241610738255	24	0.800080895796418	2	10	2	NaN	2	4	0.244781946575837	0	1	NaN	183	3	57	1	120	220	320	NaN	520	0.660332439700142	1	0	NaN	1561543.1326191	NaN	1561544.1160146	1561544.63256156
25	19	0	0	90	36.1581920903955	36.241610738255	13	0.433377151889727	2	3	4	NaN	1	3	0.244781946575837	0	1	NaN	184	3	58	1	120	220	320	NaN	520	1.06584827555344	1	1	NaN	1561546.582836	NaN	1561547.566377	1561548.08289442
25	19	0	0	90	36.1581920903955	36.241610738255	25	0.833417599787936	2	2	5	NaN	1	3	0.244781946575837	0	1	NaN	185	3	59	1	120	220	320	NaN	520	0.786304423352703	1	1	NaN	1561549.9665947	NaN	1561550.9499509	1561551.46656068
25	19	0	0	90	36.1581920903955	36.241610738255	9	0.300030335923657	2	5	6	NaN	1	4	0.244781946575837	0	1	NaN	186	3	60	1	120	220	320	NaN	520	0.806334623368457	1	1	NaN	1561553.0669324	NaN	1561554.0503322	1561554.56685778
25	19	0	0	90	36.1581920903955	36.241610738255	0	0	1	4	1	NaN	1	4	0.244781946575837	0	1	NaN	187	3	61	1	110	210	310	NaN	510	0.704223323380575	1	1	NaN	1561556.2005909	NaN	1561557.184003	1561557.70050798
25	19	0	0	90	36.1581920903955	36.241610738255	14	0.466713855881244	2	5	2	NaN	1	3	0.244781946575837	0	1	NaN	188	3	62	1	120	220	320	NaN	520	0.759341579629108	1	1	NaN	1561559.2175229	NaN	1561560.2008922	1561560.71747232
25	19	0	0	90	36.1581920903955	36.241610738255	25	0.833417599787936	2	8	4	NaN	2	4	0.244781946575837	0	1	NaN	189	3	63	1	120	220	320	NaN	520	0.387339927488938	2	1	NaN	1561562.3010309	NaN	1561563.2845672	1561563.80109367
25	19	0	0	90	36.1581920903955	36.241610738255	10	0.333367039915174	2	12	6	NaN	2	5	0.244781946575837	0	1	NaN	190	4	1	1	120	220	320	NaN	520	0.434959179721773	2	1	NaN	1561570.1019462	NaN	1561571.0853374	1561571.60186942
25	19	0	0	90	36.1581920903955	36.241610738255	21	0.700070783821866	2	1	4	NaN	1	5	0.244781946575837	0	1	NaN	191	4	2	1	120	220	320	NaN	520	0.764730587601662	1	1	NaN	1561572.8522478	NaN	1561573.835606	1561574.35213851
25	19	0	0	90	36.1581920903955	36.241610738255	13	0.433377151889727	2	8	2	NaN	2	5	0.244781946575837	0	1	NaN	192	4	3	1	120	220	320	NaN	520	0.409353875555098	2	1	NaN	1561575.9357026	NaN	1561576.9192381	1561577.43577702
25	19	0	0	90	36.1581920903955	36.241610738255	18	0.600060671847314	2	7	3	NaN	2	5	0.244781946575837	0	1	NaN	193	4	4	1	120	220	320	NaN	520	0.587655967334285	2	1	NaN	1561578.6694242	NaN	1561579.652853	1561580.16937683
25	19	0	0	90	36.1581920903955	36.241610738255	23	0.766744191804901	2	5	5	NaN	1	3	0.244781946575837	0	1	NaN	194	4	5	1	120	220	320	NaN	520	0.574607827467844	1	1	NaN	1561581.5863842	NaN	1561582.5698073	1561583.08632187
25	19	0	0	90	36.1581920903955	36.241610738255	6	0.200020223949105	2	3	4	NaN	1	3	0.244781946575837	0	1	NaN	195	4	6	1	120	220	320	NaN	520	1.36252207565121	1	1	NaN	1561584.4866817	NaN	1561585.4700678	1561585.98661452
25	19	0	0	90	36.1581920903955	36.241610738255	24	0.800080895796418	2	1	5	NaN	1	3	0.244781946575837	0	1	NaN	196	4	7	1	120	220	320	NaN	520	0.870851719519123	2	0	NaN	1561588.1703587	NaN	1561589.1537708	1561589.67029938
25	19	0	0	90	36.1581920903955	36.241610738255	14	0.466713855881244	2	10	1	NaN	2	3	0.244781946575837	0	1	NaN	197	4	8	1	120	220	320	NaN	520	1.32620687573217	2	1	NaN	1561591.3706843	NaN	1561592.3540918	1561592.87061362
25	19	0	0	90	36.1581920903955	36.241610738255	13	0.433377151889727	2	12	5	NaN	2	3	0.244781946575837	0	1	NaN	198	4	9	1	120	220	320	NaN	520	0.332316279644147	2	1	NaN	1561595.0210483	NaN	1561596.0044454	1561596.52098322
25	19	0	0	90	36.1581920903955	36.241610738255	22	0.733407487813383	2	5	1	NaN	1	3	0.244781946575837	0	1	NaN	199	4	10	1	120	220	320	NaN	520	0.897672575432807	1	1	NaN	1561597.6712014	NaN	1561598.6546962	1561599.17123802
25	19	0	0	90	36.1581920903955	36.241610738255	14	0.466713855881244	2	3	5	NaN	1	4	0.244781946575837	0	1	NaN	200	4	11	1	120	220	320	NaN	520	0.424916727468371	1	1	NaN	1561600.8882841	NaN	1561601.8717092	1561602.38822197
25	19	0	0	90	36.1581920903955	36.241610738255	17	0.566723967855796	2	3	2	NaN	1	3	0.244781946575837	0	1	NaN	201	4	12	1	120	220	320	NaN	520	0.674616175703704	1	1	NaN	1561603.6385713	NaN	1561604.6219942	1561605.13848712
25	19	0	0	90	36.1581920903955	36.241610738255	14	0.466713855881244	2	8	2	NaN	2	4	0.244781946575837	0	1	NaN	202	4	13	1	120	220	320	NaN	520	1.35623187967576	2	1	NaN	1561607.3888529	NaN	1561608.3723117	1561608.88886752
25	19	0	0	90	36.1581920903955	36.241610738255	14	0.466713855881244	2	11	2	NaN	2	4	0.244781946575837	0	1	NaN	203	4	14	1	120	220	320	NaN	520	0.551818991778418	2	1	NaN	1561612.6894161	NaN	1561613.6728482	1561614.18937631
25	19	0	0	90	36.1581920903955	36.241610738255	8	0.266693631932139	2	1	4	NaN	1	3	0.244781946575837	0	1	NaN	204	4	15	1	120	220	320	NaN	520	0.636629875516519	1	1	NaN	1561615.5563966	NaN	1561616.5397878	1561617.05633092
25	19	0	0	90	36.1581920903955	36.241610738255	24	0.800080895796418	2	4	6	NaN	1	4	0.244781946575837	0	1	NaN	205	4	16	1	120	220	320	NaN	520	2.79066307540052	1	1	NaN	1561618.5065609	NaN	1561619.4900916	1561620.00661002
25	19	0	0	90	36.1581920903955	36.241610738255	24	0.800080895796418	2	8	1	NaN	2	5	0.244781946575837	0	1	NaN	206	4	17	1	120	220	320	NaN	520	0.46514452341944	2	1	NaN	1561623.6238528	NaN	1561624.6072176	1561625.12378558
25	19	0	0	90	36.1581920903955	36.241610738255	19	0.633397375838831	2	8	6	NaN	2	3	0.244781946575837	0	1	NaN	207	4	18	1	120	220	320	NaN	520	0.969704427523538	2	1	NaN	1561626.4073292	NaN	1561627.3908557	1561627.90739857
25	19	0	0	90	36.1581920903955	36.241610738255	0	0	1	3	6	NaN	1	4	0.244781946575837	0	1	NaN	208	4	19	1	110	210	310	NaN	510	0.837942571379244	1	1	NaN	1561629.6910282	NaN	1561630.6744962	1561631.19104123
25	19	0	0	90	36.1581920903955	36.241610738255	11	0.366703743906692	2	8	5	NaN	2	3	0.244781946575837	0	1	NaN	209	4	20	1	120	220	320	NaN	520	1.33478102763183	2	1	NaN	1561632.8580813	NaN	1561633.8414766	1561634.35804777
25	19	0	0	90	36.1581920903955	36.241610738255	10	0.333367039915174	2	2	2	NaN	1	3	0.244781946575837	0	1	NaN	210	4	21	1	120	220	320	NaN	520	1.20467132749036	2	0	NaN	1561636.5084773	NaN	1561637.4918578	1561638.00839427
25	19	0	0	90	36.1581920903955	36.241610738255	24	0.800080895796418	2	9	6	NaN	2	5	0.244781946575837	0	1	NaN	211	4	22	1	120	220	320	NaN	520	0.375840275548398	2	1	NaN	1561640.0253364	NaN	1561641.0088872	1561641.52539172
25	19	0	0	90	36.1581920903955	36.241610738255	25	0.833417599787936	2	5	3	NaN	1	4	0.244781946575837	0	1	NaN	212	4	23	1	120	220	320	NaN	520	0.339268227573484	1	1	NaN	1561642.725728	NaN	1561643.7091297	1561644.22565477
25	19	0	0	90	36.1581920903955	36.241610738255	19	0.633397375838831	2	4	4	NaN	1	3	0.244781946575837	0	1	NaN	213	4	24	1	120	220	320	NaN	520	0.936706047737971	1	1	NaN	1561645.3926691	NaN	1561646.3760581	1561646.89260095
25	19	0	0	90	36.1581920903955	36.241610738255	23	0.766744191804901	2	9	2	NaN	2	3	0.244781946575837	0	1	NaN	214	4	25	1	120	220	320	NaN	520	1.88540728366934	2	1	NaN	1561648.659641	NaN	1561649.6430586	1561650.15957662
25	19	0	0	90	36.1581920903955	36.241610738255	24	0.800080895796418	2	6	1	NaN	1	5	0.244781946575837	0	1	NaN	215	4	26	1	120	220	320	NaN	520	0.716592375421897	1	1	NaN	1561652.8600497	NaN	1561653.8434024	1561654.35998012
25	19	0	0	90	36.1581920903955	36.241610738255	6	0.200020223949105	2	12	5	NaN	2	3	0.244781946575837	0	1	NaN	216	4	27	1	120	220	320	NaN	520	1.45128586748615	2	1	NaN	1561655.8936646	NaN	1561656.8770879	1561657.39361073
25	19	0	0	90	36.1581920903955	36.241610738255	14	0.466713855881244	2	9	3	NaN	2	5	0.244781946575837	0	1	NaN	217	4	28	1	120	220	320	NaN	520	1.62857749173418	1	0	NaN	1561659.6607429	NaN	1561660.6441184	1561661.16066121
25	19	0	0	90	36.1581920903955	36.241610738255	10	0.333367039915174	2	11	4	NaN	2	5	0.244781946575837	0	1	NaN	218	4	29	1	120	220	320	NaN	520	0.478292383719236	2	1	NaN	1561663.6110925	NaN	1561664.5945064	1561665.11105002
25	19	0	0	90	36.1581920903955	36.241610738255	17	0.566723967855796	2	9	4	NaN	2	5	0.244781946575837	0	1	NaN	219	4	30	1	120	220	320	NaN	520	1.11805382347666	2	1	NaN	1561666.4113957	NaN	1561667.3947762	1561667.91131288
25	19	0	0	90	36.1581920903955	36.241610738255	11	0.366703743906692	2	12	3	NaN	2	3	0.244781946575837	0	1	NaN	220	4	31	1	120	220	320	NaN	520	0.124004523269832	2	1	NaN	1561669.8450433	NaN	1561670.828467	1561671.34498448
25	19	0	0	90	36.1581920903955	36.241610738255	11	0.366703743906692	2	3	2	NaN	1	3	0.244781946575837	0	1	NaN	221	4	32	1	120	220	320	NaN	520	0.529724675463513	1	1	NaN	1561672.2953039	NaN	1561673.2786805	1561673.79523202
25	19	0	0	90	36.1581920903955	36.241610738255	11	0.366703743906692	2	2	2	NaN	1	4	0.244781946575837	0	1	NaN	222	4	33	1	120	220	320	NaN	520	0.663462875410914	1	1	NaN	1561675.1455736	NaN	1561676.1289845	1561676.64551472
25	19	0	0	90	36.1581920903955	36.241610738255	7	0.233356927940622	2	11	2	NaN	2	4	0.244781946575837	0	1	NaN	223	4	34	1	120	220	320	NaN	520	1.52007007575594	2	1	NaN	1561678.1292003	NaN	1561679.1126038	1561679.62912952
25	19	0	0	90	36.1581920903955	36.241610738255	0	0	1	8	2	NaN	2	5	0.244781946575837	0	1	NaN	224	4	35	1	110	210	310	NaN	510	0.453360223444179	2	1	NaN	1561681.9795722	NaN	1561682.9629608	1561683.47951588
25	19	0	0	90	36.1581920903955	36.241610738255	10	0.333367039915174	2	1	5	NaN	1	5	0.244781946575837	0	1	NaN	225	4	36	1	120	220	320	NaN	520	0.373879479710013	1	1	NaN	1561684.7632136	NaN	1561685.7466699	1561686.26311862
25	19	0	0	90	36.1581920903955	36.241610738255	20	0.666734079830348	2	7	1	NaN	2	3	0.244781946575837	0	1	NaN	226	4	37	1	120	220	320	NaN	520	0.33029007143341	2	1	NaN	1561687.4467844	NaN	1561688.4301926	1561688.94670953
25	19	0	0	90	36.1581920903955	36.241610738255	13	0.433377151889727	2	6	4	NaN	1	3	0.244781946575837	0	1	NaN	227	4	38	1	120	220	320	NaN	520	2.31232027546503	1	1	NaN	1561690.0970255	NaN	1561691.0804452	1561691.59696902
25	19	0	0	90	36.1581920903955	36.241610738255	10	0.333367039915174	2	9	4	NaN	2	5	0.244781946575837	0	1	NaN	228	4	39	1	120	220	320	NaN	520	0.39831242733635	2	1	NaN	1561694.930948	NaN	1561695.9142462	1561696.43077837
25	19	0	0	90	36.1581920903955	36.241610738255	19	0.633397375838831	2	7	4	NaN	2	3	0.244781946575837	0	1	NaN	229	4	40	1	120	220	320	NaN	520	0.80966972745955	2	1	NaN	1561697.6478113	NaN	1561698.6311711	1561699.14771137
25	19	0	0	90	36.1581920903955	36.241610738255	22	0.733407487813383	2	2	4	NaN	1	3	0.244781946575837	0	1	NaN	230	4	41	1	120	220	320	NaN	520	0.459662691922858	1	1	NaN	1561700.7813075	NaN	1561701.76482	1561702.28137181
25	19	0	0	90	36.1581920903955	36.241610738255	15	0.500050559872761	2	8	6	NaN	2	4	0.244781946575837	0	1	NaN	231	4	42	1	120	220	320	NaN	520	0.460011875489727	2	1	NaN	1561703.5650462	NaN	1561704.548443	1561705.06495512
25	19	0	0	90	36.1581920903955	36.241610738255	18	0.600060671847314	2	12	4	NaN	2	3	0.244781946575837	0	1	NaN	232	4	43	1	120	220	320	NaN	520	0.348463575588539	2	1	NaN	1561706.3486365	NaN	1561707.3320313	1561707.84856622
25	19	0	0	90	36.1581920903955	36.241610738255	19	0.633397375838831	2	3	1	NaN	1	5	0.244781946575837	0	1	NaN	233	4	44	1	120	220	320	NaN	520	0.321622375631705	2	0	NaN	1561709.0155746	NaN	1561709.9989459	1561710.51549322
25	19	0	0	90	36.1581920903955	36.241610738255	17	0.566723967855796	2	11	1	NaN	2	4	0.244781946575837	0	1	NaN	234	4	45	1	120	220	320	NaN	520	0.319267775397748	2	1	NaN	1561711.6658951	NaN	1561712.6492259	1561713.16576602
25	19	0	0	90	36.1581920903955	36.241610738255	11	0.366703743906692	2	4	4	NaN	1	3	0.244781946575837	0	1	NaN	235	4	46	1	120	220	320	NaN	520	0.965332871535793	2	0	NaN	1561714.3160831	NaN	1561715.299486	1561715.81601613
25	19	0	0	90	36.1581920903955	36.241610738255	20	0.666734079830348	2	3	1	NaN	1	4	0.244781946575837	0	1	NaN	236	4	47	1	120	220	320	NaN	520	0.385413827374578	1	1	NaN	1561717.5997511	NaN	1561718.5831417	1561719.09968257
25	19	0	0	90	36.1581920903955	36.241610738255	12	0.400040447898209	2	10	4	NaN	2	5	0.244781946575837	0	1	NaN	237	4	48	1	120	220	320	NaN	520	1.26100483560003	2	1	NaN	1561720.2999944	NaN	1561721.2834048	1561721.79995106
25	19	0	0	90	36.1581920903955	36.241610738255	0	0	1	3	3	NaN	1	4	0.244781946575837	0	1	NaN	238	4	49	1	110	210	310	NaN	510	1.51752647128887	1	1	NaN	1561723.8836672	NaN	1561724.8670938	1561725.38362023
25	19	0	0	90	36.1581920903955	36.241610738255	17	0.566723967855796	2	7	2	NaN	2	3	0.244781946575837	0	1	NaN	239	4	50	1	120	220	320	NaN	520	0.444069427670911	2	1	NaN	1561727.717254	NaN	1561728.7008008	1561729.21732717
25	19	0	0	90	36.1581920903955	36.241610738255	10	0.333367039915174	2	3	6	NaN	1	3	0.244781946575837	0	1	NaN	240	4	51	1	120	220	320	NaN	520	1.36506362748332	1	1	NaN	1561730.4843357	NaN	1561731.4677358	1561731.98427707
25	19	0	0	90	36.1581920903955	36.241610738255	24	0.800080895796418	2	8	4	NaN	2	5	0.244781946575837	0	1	NaN	241	4	52	1	120	220	320	NaN	520	0.369128975551575	1	0	NaN	1561734.1680363	NaN	1561735.1514356	1561735.66796472
25	19	0	0	90	36.1581920903955	36.241610738255	19	0.633397375838831	2	4	4	NaN	1	5	0.244781946575837	0	1	NaN	242	4	53	1	120	220	320	NaN	520	0.268816627329215	1	1	NaN	1561736.8682845	NaN	1561737.8516866	1561738.36822497
25	19	0	0	90	36.1581920903955	36.241610738255	23	0.766744191804901	2	7	1	NaN	2	3	0.244781946575837	0	1	NaN	243	4	54	1	120	220	320	NaN	520	0.877428775420412	2	1	NaN	1561739.4519517	NaN	1561740.4352909	1561740.95182222
25	19	0	0	90	36.1581920903955	36.241610738255	25	0.833417599787936	2	6	2	NaN	1	5	0.244781946575837	0	1	NaN	244	4	55	1	120	220	320	NaN	520	0.437318975571543	1	1	NaN	1561742.6522003	NaN	1561743.6355799	1561744.15212992
25	19	0	0	90	36.1581920903955	36.241610738255	13	0.433377151889727	2	3	5	NaN	1	4	0.244781946575837	0	1	NaN	245	4	56	1	120	220	320	NaN	520	1.03095257538371	1	1	NaN	1561745.4024508	NaN	1561746.3857392	1561746.90239532
25	19	0	0	90	36.1581920903955	36.241610738255	12	0.400040447898209	2	5	3	NaN	1	5	0.244781946575837	0	1	NaN	246	4	57	1	120	220	320	NaN	520	0.584916927386075	2	0	NaN	1561748.7361257	NaN	1561749.7195268	1561750.23605957
25	19	0	0	90	36.1581920903955	36.241610738255	21	0.700070783821866	2	4	6	NaN	1	4	0.244781946575837	0	1	NaN	247	4	58	1	120	220	320	NaN	520	1.48464252753183	1	1	NaN	1561751.6364216	NaN	1561752.6198135	1561753.13635137
25	19	0	0	90	36.1581920903955	36.241610738255	9	0.300030335923657	2	7	1	NaN	2	4	0.244781946575837	0	1	NaN	248	4	59	1	120	220	320	NaN	520	0.372029723366722	1	0	NaN	1561755.4533539	NaN	1561756.4368532	1561756.95338658
25	19	0	0	90	36.1581920903955	36.241610738255	8	0.266693631932139	2	6	5	NaN	1	5	0.244781946575837	0	1	NaN	249	4	60	1	120	220	320	NaN	520	1.89642762346193	1	1	NaN	1561758.1370602	NaN	1561759.1204485	1561759.63698288
25	19	0	0	90	36.1581920903955	36.241610738255	12	0.400040447898209	2	9	1	NaN	2	4	0.244781946575837	0	1	NaN	250	4	61	1	120	220	320	NaN	520	0.44739948771894	1	0	NaN	1561762.3540275	NaN	1561763.3375317	1561763.85406421
25	19	0	0	90	36.1581920903955	36.241610738255	16	0.533387263864279	2	2	5	NaN	1	5	0.244781946575837	0	1	NaN	251	4	62	1	120	220	320	NaN	520	0.784408487845212	1	1	NaN	1561765.1210694	NaN	1561766.1044768	1561766.62101051
25	19	0	0	90	36.1581920903955	36.241610738255	19	0.633397375838831	2	9	3	NaN	2	5	0.244781946575837	0	1	NaN	252	4	63	1	120	220	320	NaN	520	1.33989722747356	2	1	NaN	1561768.2213722	NaN	1561769.2047752	1561769.72130437
25	19	0	0	90	36.1581920903955	36.241610738255	9	0.300030335923657	2	12	5	NaN	2	4	0.244781946575837	0	1	NaN	253	5	1	1	120	220	320	NaN	520	0.353505779523402	2	1	NaN	1561783.6395361	NaN	1561784.6229535	1561785.13949372
25	19	0	0	90	36.1581920903955	36.241610738255	24	0.800080895796418	2	5	1	NaN	1	3	0.244781946575837	0	1	NaN	254	5	2	1	120	220	320	NaN	520	0.398756675422192	2	0	NaN	1561786.3063338	NaN	1561787.2898775	1561787.80640932
25	19	0	0	90	36.1581920903955	36.241610738255	7	0.233356927940622	2	11	5	NaN	2	5	0.244781946575837	0	1	NaN	255	5	3	1	120	220	320	NaN	520	0.305729379644617	2	1	NaN	1561789.0234072	NaN	1561790.006822	1561790.52334912
25	19	0	0	90	36.1581920903955	36.241610738255	0	0	1	7	6	NaN	2	3	0.244781946575837	0	1	NaN	256	5	4	1	110	210	310	NaN	510	1.08908452745527	2	1	NaN	1561791.6403751	NaN	1561792.6236904	1561793.14027877
25	19	0	0	90	36.1581920903955	36.241610738255	16	0.533387263864279	2	5	6	NaN	1	4	0.244781946575837	0	1	NaN	257	5	5	1	120	220	320	NaN	520	0.736809891881421	1	1	NaN	1561795.0405436	NaN	1561796.0240522	1561796.54060481
25	19	0	0	90	36.1581920903955	36.241610738255	14	0.466713855881244	2	11	4	NaN	2	5	0.244781946575837	0	1	NaN	258	5	6	1	120	220	320	NaN	520	0.90227272734046	2	1	NaN	1561798.0909781	NaN	1561799.0743568	1561799.59091277
25	19	0	0	90	36.1581920903955	36.241610738255	16	0.533387263864279	2	2	3	NaN	1	4	0.244781946575837	0	1	NaN	259	5	7	1	120	220	320	NaN	520	0.533661327557638	2	0	NaN	1561801.307989	NaN	1561802.2913421	1561802.80788867
25	19	0	0	90	36.1581920903955	36.241610738255	13	0.433377151889727	2	7	3	NaN	2	3	0.244781946575837	0	1	NaN	260	5	8	1	120	220	320	NaN	520	0.811330675613135	2	1	NaN	1561804.1582523	NaN	1561805.1416368	1561805.65816312
25	19	0	0	90	36.1581920903955	36.241610738255	20	0.666734079830348	2	6	4	NaN	1	3	0.244781946575837	0	1	NaN	261	5	9	1	120	220	320	NaN	520	1.23036197945476	1	1	NaN	1561807.2752835	NaN	1561808.2585956	1561808.77514652
25	19	0	0	90	36.1581920903955	36.241610738255	11	0.366703743906692	2	10	6	NaN	2	3	0.244781946575837	0	1	NaN	262	5	10	1	120	220	320	NaN	520	1.00763712753542	2	1	NaN	1561810.8255375	NaN	1561811.8089678	1561812.32549627
25	19	0	0	90	36.1581920903955	36.241610738255	17	0.566723967855796	2	7	4	NaN	2	4	0.244781946575837	0	1	NaN	263	5	11	1	120	220	320	NaN	520	0.801920239580795	2	1	NaN	1561814.1592115	NaN	1561815.1426163	1561815.65916026
25	19	0	0	90	36.1581920903955	36.241610738255	22	0.733407487813383	2	12	4	NaN	2	4	0.244781946575837	0	1	NaN	264	5	12	1	120	220	320	NaN	520	1.02089317562059	2	1	NaN	1561817.6762144	NaN	1561818.659632	1561819.17615972
25	19	0	0	90	36.1581920903955	36.241610738255	9	0.300030335923657	2	8	3	NaN	2	5	0.244781946575837	0	1	NaN	265	5	13	1	120	220	320	NaN	520	0.303133727516979	2	1	NaN	1561821.0265489	NaN	1561822.0099294	1561822.52648667
25	19	0	0	90	36.1581920903955	36.241610738255	13	0.433377151889727	2	9	6	NaN	2	4	0.244781946575837	0	1	NaN	266	5	14	1	120	220	320	NaN	520	0.301902775652707	2	1	NaN	1561823.6434927	NaN	1561824.6268795	1561825.14340722
25	19	0	0	90	36.1581920903955	36.241610738255	8	0.266693631932139	2	7	2	NaN	2	5	0.244781946575837	0	1	NaN	267	5	15	1	120	220	320	NaN	520	0.356876023579389	2	1	NaN	1561826.2604391	NaN	1561827.2438033	1561827.76033738
25	19	0	0	90	36.1581920903955	36.241610738255	22	0.733407487813383	2	6	6	NaN	1	3	0.244781946575837	0	1	NaN	268	5	16	1	120	220	320	NaN	520	0.321569691877812	1	1	NaN	1561828.9438767	NaN	1561829.9273951	1561830.44394151
25	19	0	0	90	36.1581920903955	36.241610738255	10	0.333367039915174	2	8	5	NaN	2	3	0.244781946575837	0	1	NaN	269	5	17	1	120	220	320	NaN	520	1.54306192346849	2	1	NaN	1561831.5942503	NaN	1561832.5776608	1561833.09419188
25	19	0	0	90	36.1581920903955	36.241610738255	12	0.400040447898209	2	1	2	NaN	1	4	0.244781946575837	0	1	NaN	270	5	18	1	120	220	320	NaN	520	0.308313775574788	1	1	NaN	1561835.4611605	NaN	1561836.4447024	1561836.96123582
25	19	0	0	90	36.1581920903955	36.241610738255	10	0.333367039915174	2	4	5	NaN	1	4	0.244781946575837	0	1	NaN	271	5	19	1	120	220	320	NaN	520	0.682812527287751	1	1	NaN	1561838.0948125	NaN	1561839.0782856	1561839.59483117
25	19	0	0	90	36.1581920903955	36.241610738255	13	0.433377151889727	2	2	4	NaN	1	4	0.244781946575837	0	1	NaN	272	5	20	1	120	220	320	NaN	520	0.0737689274828881	1	1	NaN	1561841.0951912	NaN	1561842.0786207	1561842.59513167
25	19	0	0	90	36.1581920903955	36.241610738255	11	0.366703743906692	2	4	1	NaN	1	4	0.244781946575837	0	1	NaN	273	5	21	1	120	220	320	NaN	520	0.330036771483719	1	1	NaN	1561843.4954104	NaN	1561844.4788292	1561844.99535983
25	19	0	0	90	36.1581920903955	36.241610738255	14	0.466713855881244	2	3	1	NaN	1	3	0.244781946575837	0	1	NaN	274	5	22	1	120	220	320	NaN	520	0.255960979731753	2	0	NaN	1561846.1456652	NaN	1561847.1290856	1561847.64562872
25	19	0	0	90	36.1581920903955	36.241610738255	22	0.733407487813383	2	8	3	NaN	2	5	0.244781946575837	0	1	NaN	275	5	23	1	120	220	320	NaN	520	0.29661383968778	2	1	NaN	1561848.7125153	NaN	1561849.6960339	1561850.21256486
25	19	0	0	90	36.1581920903955	36.241610738255	16	0.533387263864279	2	3	6	NaN	1	5	0.244781946575837	0	1	NaN	276	5	24	1	120	220	320	NaN	520	0.280055927345529	1	1	NaN	1561851.3295672	NaN	1561852.3129186	1561852.82946827
25	19	0	0	90	36.1581920903955	36.241610738255	23	0.766744191804901	2	10	1	NaN	2	3	0.244781946575837	0	1	NaN	277	5	25	1	120	220	320	NaN	520	0.27988827554509	2	1	NaN	1561853.9297783	NaN	1561854.9131841	1561855.42972512
25	19	0	0	90	36.1581920903955	36.241610738255	19	0.633397375838831	2	10	2	NaN	2	5	0.244781946575837	0	1	NaN	278	5	26	1	120	220	320	NaN	520	0.359536875505	2	1	NaN	1561856.5300528	NaN	1561857.5134397	1561858.02996762
25	19	0	0	90	36.1581920903955	36.241610738255	20	0.666734079830348	2	8	5	NaN	2	5	0.244781946575837	0	1	NaN	279	5	27	1	120	220	320	NaN	520	1.0916870275978	1	0	NaN	1561859.2135531	NaN	1561860.1970183	1561860.71357357
25	19	0	0	90	36.1581920903955	36.241610738255	14	0.466713855881244	2	12	2	NaN	2	5	0.244781946575837	0	1	NaN	280	5	28	1	120	220	320	NaN	520	0.402505023404956	1	0	NaN	1561862.6306591	NaN	1561863.6140547	1561864.13056808
25	19	0	0	90	36.1581920903955	36.241610738255	24	0.800080895796418	2	11	2	NaN	2	4	0.244781946575837	0	1	NaN	281	5	29	1	120	220	320	NaN	520	0.405820979736745	2	1	NaN	1561865.347484	NaN	1561866.3308866	1561866.84751362
25	19	0	0	90	36.1581920903955	36.241610738255	7	0.233356927940622	2	9	3	NaN	2	3	0.244781946575837	0	1	NaN	282	5	30	1	120	220	320	NaN	520	0.280865723267198	2	1	NaN	1561868.0643088	NaN	1561869.0479212	1561869.56443728
25	19	0	0	90	36.1581920903955	36.241610738255	7	0.233356927940622	2	7	5	NaN	2	4	0.244781946575837	0	1	NaN	283	5	31	1	120	220	320	NaN	520	0.472933627665043	1	0	NaN	1561870.6647631	NaN	1561871.6481747	1561872.16468907
25	19	0	0	90	36.1581920903955	36.241610738255	10	0.333367039915174	2	8	1	NaN	2	5	0.244781946575837	0	1	NaN	284	5	32	1	120	220	320	NaN	520	0.620301579823717	2	1	NaN	1561873.5650107	NaN	1561874.548447	1561875.06497902
25	19	0	0	90	36.1581920903955	36.241610738255	6	0.200020223949105	2	8	4	NaN	2	4	0.244781946575837	0	1	NaN	285	5	33	1	120	220	320	NaN	520	0.693839391693473	2	1	NaN	1561876.5153323	NaN	1561877.4987223	1561878.01526801
25	19	0	0	90	36.1581920903955	36.241610738255	21	0.700070783821866	2	1	6	NaN	1	4	0.244781946575837	0	1	NaN	286	5	34	1	120	220	320	NaN	520	0.524841723265126	2	0	NaN	1561879.5324257	NaN	1561880.5156842	1561881.03223428
25	19	0	0	90	36.1581920903955	36.241610738255	0	0	1	6	6	NaN	1	4	0.244781946575837	0	1	NaN	287	5	35	1	110	210	310	NaN	510	0.306971779558808	1	1	NaN	1561882.3826072	NaN	1561883.3659889	1561883.88251782
25	19	0	0	90	36.1581920903955	36.241610738255	6	0.200020223949105	2	7	2	NaN	2	3	0.244781946575837	0	1	NaN	288	5	36	1	120	220	320	NaN	520	0.721392875537276	1	0	NaN	1561885.0161756	NaN	1561885.9995703	1561886.51610992
25	19	0	0	90	36.1581920903955	36.241610738255	14	0.466713855881244	2	1	4	NaN	1	3	0.244781946575837	0	1	NaN	289	5	37	1	120	220	320	NaN	520	0.271547623444349	1	1	NaN	1561888.0497868	NaN	1561889.0332173	1561889.54973788
25	19	0	0	90	36.1581920903955	36.241610738255	18	0.600060671847314	2	3	3	NaN	1	5	0.244781946575837	0	1	NaN	290	5	38	1	120	220	320	NaN	520	0.421990843722597	1	1	NaN	1561890.6834468	NaN	1561891.6668014	1561892.18332466
25	19	0	0	90	36.1581920903955	36.241610738255	24	0.800080895796418	2	2	6	NaN	1	5	0.244781946575837	0	1	NaN	291	5	39	1	120	220	320	NaN	520	0.351845095865428	2	0	NaN	1561893.4336784	NaN	1561894.4171029	1561894.9335967
25	19	0	0	90	36.1581920903955	36.241610738255	11	0.366703743906692	2	8	6	NaN	2	3	0.244781946575837	0	1	NaN	292	5	40	1	120	220	320	NaN	520	0.804855275666341	1	0	NaN	1561896.1005804	NaN	1561897.0839784	1561897.60052032
25	19	0	0	90	36.1581920903955	36.241610738255	15	0.500050559872761	2	11	3	NaN	2	4	0.244781946575837	0	1	NaN	293	5	41	1	120	220	320	NaN	520	1.27101457538083	2	1	NaN	1561899.2340381	NaN	1561900.217624	1561900.73416922
25	19	0	0	90	36.1581920903955	36.241610738255	0	0	1	2	5	NaN	1	4	0.244781946575837	0	1	NaN	294	5	42	1	110	210	310	NaN	510	0.343210275517777	1	1	NaN	1561902.8346073	NaN	1561903.8179838	1561904.33451012
25	19	0	0	90	36.1581920903955	36.241610738255	14	0.466713855881244	2	7	2	NaN	2	4	0.244781946575837	0	1	NaN	295	5	43	1	120	220	320	NaN	520	0.332066923379898	2	1	NaN	1561905.5016259	NaN	1561906.4849193	1561907.00144048
25	19	0	0	90	36.1581920903955	36.241610738255	21	0.700070783821866	2	10	2	NaN	2	3	0.244781946575837	0	1	NaN	296	5	44	1	120	220	320	NaN	520	0.281665375689045	2	1	NaN	1561908.15175	NaN	1561909.1351743	1561909.65169912
25	19	0	0	90	36.1581920903955	36.241610738255	25	0.833417599787936	2	11	3	NaN	2	4	0.244781946575837	0	1	NaN	297	5	45	1	120	220	320	NaN	520	0.289650227641687	2	1	NaN	1561910.7520286	NaN	1561911.7354281	1561912.25195927
25	19	0	0	90	36.1581920903955	36.241610738255	8	0.266693631932139	2	12	6	NaN	2	3	0.244781946575837	0	1	NaN	298	5	46	1	120	220	320	NaN	520	0.424254827434197	2	1	NaN	1561913.3689497	NaN	1561914.3523698	1561914.86889167
25	19	0	0	90	36.1581920903955	36.241610738255	6	0.200020223949105	2	1	3	NaN	1	3	0.244781946575837	0	1	NaN	299	5	47	1	120	220	320	NaN	520	1.17846852750517	1	1	NaN	1561916.1192145	NaN	1561917.1026556	1561917.61915367
25	19	0	0	90	36.1581920903955	36.241610738255	15	0.500050559872761	2	10	2	NaN	2	3	0.244781946575837	0	1	NaN	300	5	48	1	120	220	320	NaN	520	0.485878023551777	2	1	NaN	1561919.6196008	NaN	1561920.6029668	1561921.11949838
25	19	0	0	90	36.1581920903955	36.241610738255	23	0.766744191804901	2	12	1	NaN	2	4	0.244781946575837	0	1	NaN	301	5	49	1	120	220	320	NaN	520	0.332873227307573	2	1	NaN	1561922.4365162	NaN	1561923.4199451	1561923.93643717
25	19	0	0	90	36.1581920903955	36.241610738255	15	0.500050559872761	2	6	4	NaN	1	4	0.244781946575837	0	1	NaN	302	5	50	1	120	220	320	NaN	520	0.426395375514403	1	1	NaN	1561925.0866343	NaN	1561926.07019	1561926.58669992
25	19	0	0	90	36.1581920903955	36.241610738255	7	0.233356927940622	2	1	1	NaN	1	5	0.244781946575837	0	1	NaN	303	5	51	1	120	220	320	NaN	520	0.932757427450269	1	1	NaN	1561927.8368956	NaN	1561928.8204413	1561929.33696417
25	19	0	0	90	36.1581920903955	36.241610738255	24	0.800080895796418	2	12	2	NaN	2	3	0.244781946575837	0	1	NaN	304	5	52	1	120	220	320	NaN	520	0.354183275718242	2	1	NaN	1561931.0873421	NaN	1561932.0707771	1561932.58728722
25	19	0	0	90	36.1581920903955	36.241610738255	12	0.400040447898209	2	11	1	NaN	2	5	0.244781946575837	0	1	NaN	305	5	53	1	120	220	320	NaN	520	2.45970917982049	2	1	NaN	1561934.2372647	NaN	1561935.2209633	1561935.73760452
25	19	0	0	90	36.1581920903955	36.241610738255	20	0.666734079830348	2	9	2	NaN	2	3	0.244781946575837	0	1	NaN	306	5	54	1	120	220	320	NaN	520	0.28486444381997	1	0	NaN	1561939.0047737	NaN	1561939.9882023	1561940.50473966
25	19	0	0	90	36.1581920903955	36.241610738255	16	0.533387263864279	2	1	3	NaN	1	4	0.244781946575837	0	1	NaN	307	5	55	1	120	220	320	NaN	520	0.252331387950107	2	0	NaN	1561941.6050511	NaN	1561942.5884622	1561943.10499311
25	19	0	0	90	36.1581920903955	36.241610738255	13	0.433377151889727	2	10	1	NaN	2	3	0.244781946575837	0	1	NaN	308	5	56	1	120	220	320	NaN	520	1.13364162342623	2	1	NaN	1561944.1719688	NaN	1561945.1553768	1561945.67190428
25	19	0	0	90	36.1581920903955	36.241610738255	12	0.400040447898209	2	7	3	NaN	2	3	0.244781946575837	0	1	NaN	309	5	57	1	120	220	320	NaN	520	0.467038727365434	2	1	NaN	1561947.6223014	NaN	1561948.605711	1561949.12224247
25	19	0	0	90	36.1581920903955	36.241610738255	19	0.633397375838831	2	1	6	NaN	1	4	0.244781946575837	0	1	NaN	310	5	58	1	120	220	320	NaN	520	1.09988707141019	2	0	NaN	1561950.4059398	NaN	1561951.3893085	1561951.90584843
25	19	0	0	90	36.1581920903955	36.241610738255	18	0.600060671847314	2	2	1	NaN	1	5	0.244781946575837	0	1	NaN	311	5	59	1	120	220	320	NaN	520	0.730526179773733	1	1	NaN	1561953.8229191	NaN	1561954.8063283	1561955.32286032
25	19	0	0	90	36.1581920903955	36.241610738255	21	0.700070783821866	2	8	5	NaN	2	5	0.244781946575837	0	1	NaN	312	5	60	1	120	220	320	NaN	520	0.232470748014748	1	0	NaN	1561956.8732109	NaN	1561957.8566164	1561958.37316775
25	19	0	0	90	36.1581920903955	36.241610738255	16	0.533387263864279	2	5	5	NaN	1	3	0.244781946575837	0	1	NaN	313	5	61	1	120	220	320	NaN	520	1.77101708366536	1	1	NaN	1561959.4066545	NaN	1561960.3902027	1561960.90673272
25	19	0	0	90	36.1581920903955	36.241610738255	25	0.833417599787936	2	2	3	NaN	1	5	0.244781946575837	0	1	NaN	314	5	62	1	120	220	320	NaN	520	0.447050975635648	1	1	NaN	1561963.4905457	NaN	1561964.4739164	1561964.99046422
25	19	0	0	90	36.1581920903955	36.241610738255	16	0.533387263864279	2	12	3	NaN	2	3	0.244781946575837	0	1	NaN	315	5	63	1	120	220	320	NaN	520	0.528086427366361	2	1	NaN	1561966.257454	NaN	1561967.240884	1561967.75742047
25	19	0	0	90	36.1581920903955	36.241610738255	6	0.200020223949105	2	2	4	NaN	1	5	0.244781946575837	0	1	NaN	316	6	1	1	120	220	320	NaN	520	0.59488437557593	1	1	NaN	1561977.9585604	NaN	1561978.9420507	1561979.45855482
25	19	0	0	90	36.1581920903955	36.241610738255	22	0.733407487813383	2	10	4	NaN	2	3	0.244781946575837	0	1	NaN	317	6	2	1	120	220	320	NaN	520	0.397976875538006	2	1	NaN	1561980.8755827	NaN	1561981.858964	1561982.37550352
25	19	0	0	90	36.1581920903955	36.241610738255	24	0.800080895796418	2	3	3	NaN	1	4	0.244781946575837	0	1	NaN	318	6	3	1	120	220	320	NaN	520	0.83910732739605	1	1	NaN	1561984.0425265	NaN	1561985.025946	1561985.54248257
25	19	0	0	90	36.1581920903955	36.241610738255	19	0.633397375838831	2	11	2	NaN	2	5	0.244781946575837	0	1	NaN	319	6	4	1	120	220	320	NaN	520	0.320864027598873	2	1	NaN	1561987.1927153	NaN	1561988.1762693	1561988.69280307
25	19	0	0	90	36.1581920903955	36.241610738255	0	0	1	8	3	NaN	2	4	0.244781946575837	0	1	NaN	320	6	5	1	110	210	310	NaN	510	0.638759475434199	2	1	NaN	1561989.8431246	NaN	1561990.8265129	1561991.34305882
25	19	0	0	90	36.1581920903955	36.241610738255	11	0.366703743906692	2	12	4	NaN	2	3	0.244781946575837	0	1	NaN	321	6	6	1	120	220	320	NaN	520	0.783300575567409	2	1	NaN	1561992.8101231	NaN	1561993.793486	1561994.31000622
25	19	0	0	90	36.1581920903955	36.241610738255	12	0.400040447898209	2	2	4	NaN	1	5	0.244781946575837	0	1	NaN	322	6	7	1	120	220	320	NaN	520	0.339452723274007	1	1	NaN	1561995.9103577	NaN	1561996.8937735	1561997.41031058
25	19	0	0	90	36.1581920903955	36.241610738255	25	0.833417599787936	2	5	4	NaN	1	3	0.244781946575837	0	1	NaN	323	6	8	1	120	220	320	NaN	520	0.431044975528494	1	1	NaN	1561999.6107543	NaN	1562000.5941514	1562001.11067802
25	19	0	0	90	36.1581920903955	36.241610738255	25	0.833417599787936	2	8	3	NaN	2	3	0.244781946575837	0	1	NaN	324	6	9	1	120	220	320	NaN	520	1.87956987973303	2	1	NaN	1562002.3943088	NaN	1562003.3777745	1562003.89429532
25	19	0	0	90	36.1581920903955	36.241610738255	9	0.300030335923657	2	3	2	NaN	1	4	0.244781946575837	0	1	NaN	325	6	10	1	120	220	320	NaN	520	0.295008179731667	1	1	NaN	1562006.5946396	NaN	1562007.5781768	1562008.09470802
25	19	0	0	90	36.1581920903955	36.241610738255	21	0.700070783821866	2	9	2	NaN	2	5	0.244781946575837	0	1	NaN	326	6	11	1	120	220	320	NaN	520	1.32567024370655	2	1	NaN	1562009.2116711	NaN	1562010.1950737	1562010.71163466
25	19	0	0	90	36.1581920903955	36.241610738255	0	0	1	10	5	NaN	2	3	0.244781946575837	0	1	NaN	327	6	12	1	110	210	310	NaN	510	0.37180983973667	2	1	NaN	1562012.8620707	NaN	1562013.8454431	1562014.36198596
25	19	0	0	90	36.1581920903955	36.241610738255	21	0.700070783821866	2	9	2	NaN	2	4	0.244781946575837	0	1	NaN	328	6	13	1	120	220	320	NaN	520	0.367307571461424	2	1	NaN	1562015.5623096	NaN	1562016.5457086	1562017.06223823
25	19	0	0	90	36.1581920903955	36.241610738255	9	0.300030335923657	2	9	5	NaN	2	4	0.244781946575837	0	1	NaN	329	6	14	1	120	220	320	NaN	520	0.270270691951737	2	1	NaN	1562018.7793165	NaN	1562019.7626985	1562020.27923301
25	19	0	0	90	36.1581920903955	36.241610738255	14	0.466713855881244	2	2	3	NaN	1	3	0.244781946575837	0	1	NaN	330	6	15	1	120	220	320	NaN	520	2.54964904370718	2	0	NaN	1562021.5960943	NaN	1562022.5796317	1562023.09618286
25	19	0	0	90	36.1581920903955	36.241610738255	8	0.266693631932139	2	5	6	NaN	1	3	0.244781946575837	0	1	NaN	331	6	16	1	120	220	320	NaN	520	0.538243827642873	1	1	NaN	1562026.4633912	NaN	1562027.4467824	1562027.96331107
25	19	0	0	90	36.1581920903955	36.241610738255	15	0.500050559872761	2	5	3	NaN	1	5	0.244781946575837	0	1	NaN	332	6	17	1	120	220	320	NaN	520	0.383219775510952	1	1	NaN	1562029.3303448	NaN	1562030.3137541	1562030.83026682
25	19	0	0	90	36.1581920903955	36.241610738255	18	0.600060671847314	2	1	5	NaN	1	4	0.244781946575837	0	1	NaN	333	6	18	1	120	220	320	NaN	520	0.267699787626043	1	1	NaN	1562032.0139082	NaN	1562032.997313	1562033.51385851
25	19	0	0	90	36.1581920903955	36.241610738255	17	0.566723967855796	2	1	2	NaN	1	3	0.244781946575837	0	1	NaN	334	6	19	1	120	220	320	NaN	520	0.227051675552502	1	1	NaN	1562034.6142337	NaN	1562035.5975773	1562036.11411142
25	19	0	0	90	36.1581920903955	36.241610738255	9	0.300030335923657	2	11	6	NaN	2	4	0.244781946575837	0	1	NaN	335	6	20	1	120	220	320	NaN	520	1.34995402349159	2	1	NaN	1562037.7477781	NaN	1562038.7312184	1562039.24776028
25	19	0	0	90	36.1581920903955	36.241610738255	9	0.300030335923657	2	7	1	NaN	2	3	0.244781946575837	0	1	NaN	336	6	21	1	120	220	320	NaN	520	2.89070137147792	2	1	NaN	1562041.4148404	NaN	1562042.3982508	1562042.91477873
25	19	0	0	90	36.1581920903955	36.241610738255	20	0.666734079830348	2	5	6	NaN	1	3	0.244781946575837	0	1	NaN	337	6	22	1	120	220	320	NaN	520	0.298170179594308	1	1	NaN	1562046.6151813	NaN	1562047.5987361	1562048.11528802
25	19	0	0	90	36.1581920903955	36.241610738255	24	0.800080895796418	2	4	1	NaN	1	5	0.244781946575837	0	1	NaN	338	6	23	1	120	220	320	NaN	520	1.15337857557461	1	1	NaN	1562049.2322656	NaN	1562050.2156693	1562050.73223952
25	19	0	0	90	36.1581920903955	36.241610738255	15	0.500050559872761	2	11	3	NaN	2	3	0.244781946575837	0	1	NaN	339	6	24	1	120	220	320	NaN	520	0.621910031652078	2	1	NaN	1562052.7159886	NaN	1562053.6993548	1562054.21589137
25	19	0	0	90	36.1581920903955	36.241610738255	22	0.733407487813383	2	3	4	NaN	1	3	0.244781946575837	0	1	NaN	340	6	25	1	120	220	320	NaN	520	0.423717623576522	2	0	NaN	1562055.6662329	NaN	1562056.6496565	1562057.16618618
25	19	0	0	90	36.1581920903955	36.241610738255	0	0	1	1	3	NaN	1	4	0.244781946575837	0	1	NaN	341	6	26	1	110	210	310	NaN	510	0.385402971412987	2	0	NaN	1562058.4164989	NaN	1562059.3999441	1562059.91645343
25	19	0	0	90	36.1581920903955	36.241610738255	10	0.333367039915174	2	10	6	NaN	2	5	0.244781946575837	0	1	NaN	342	6	27	1	120	220	320	NaN	520	0.949173675617203	2	1	NaN	1562061.1167556	NaN	1562062.1001797	1562062.61672132
25	19	0	0	90	36.1581920903955	36.241610738255	16	0.533387263864279	2	9	1	NaN	2	5	0.244781946575837	0	1	NaN	343	6	28	1	120	220	320	NaN	520	0.356360335601494	2	1	NaN	1562064.7171326	NaN	1562065.7005215	1562066.21707836
25	19	0	0	90	36.1581920903955	36.241610738255	17	0.566723967855796	2	5	2	NaN	1	4	0.244781946575837	0	1	NaN	344	6	29	1	120	220	320	NaN	520	1.88122297544032	1	1	NaN	1562067.4008163	NaN	1562068.3841179	1562068.90067012
25	19	0	0	90	36.1581920903955	36.241610738255	12	0.400040447898209	2	4	1	NaN	1	3	0.244781946575837	0	1	NaN	345	6	30	1	120	220	320	NaN	520	1.59246067563072	1	1	NaN	1562071.6011453	NaN	1562072.5845251	1562073.10107482
25	19	0	0	90	36.1581920903955	36.241610738255	8	0.266693631932139	2	9	1	NaN	2	3	0.244781946575837	0	1	NaN	346	6	31	1	120	220	320	NaN	520	2.32033732743002	2	1	NaN	1562076.0015348	NaN	1562076.9849629	1562077.50150417
25	19	0	0	90	36.1581920903955	36.241610738255	23	0.766744191804901	2	2	2	NaN	1	4	0.244781946575837	0	1	NaN	347	6	32	1	120	220	320	NaN	520	0.998237127438188	1	1	NaN	1562080.6354436	NaN	1562081.6187432	1562082.13529497
25	19	0	0	90	36.1581920903955	36.241610738255	11	0.366703743906692	2	5	4	NaN	1	4	0.244781946575837	0	1	NaN	348	6	33	1	120	220	320	NaN	520	0.449228727491572	1	1	NaN	1562083.9523465	NaN	1562084.9357424	1562085.45228597
25	19	0	0	90	36.1581920903955	36.241610738255	12	0.400040447898209	2	2	5	NaN	1	5	0.244781946575837	0	1	NaN	349	6	34	1	120	220	320	NaN	520	1.17031940002926	2	0	NaN	1562086.7192861	NaN	1562087.7026987	1562088.2192384
25	19	0	0	90	36.1581920903955	36.241610738255	9	0.300030335923657	2	10	4	NaN	2	3	0.244781946575837	0	1	NaN	350	6	35	1	120	220	320	NaN	520	0.41455007949844	2	1	NaN	1562090.2029642	NaN	1562091.1863744	1562091.70290842
25	19	0	0	90	36.1581920903955	36.241610738255	17	0.566723967855796	2	2	6	NaN	1	3	0.244781946575837	0	1	NaN	351	6	36	1	120	220	320	NaN	520	0.449162275763229	2	0	NaN	1562092.9365498	NaN	1562093.9199678	1562094.43650802
25	19	0	0	90	36.1581920903955	36.241610738255	0	0	1	1	3	NaN	1	5	0.244781946575837	0	1	NaN	352	6	37	1	110	210	310	NaN	510	0.345592639641836	1	1	NaN	1562095.7201585	NaN	1562096.7035795	1562097.22013186
25	19	0	0	90	36.1581920903955	36.241610738255	17	0.566723967855796	2	12	1	NaN	2	3	0.244781946575837	0	1	NaN	353	6	38	1	120	220	320	NaN	520	0.502629575552419	2	1	NaN	1562098.3871004	NaN	1562099.3705351	1562099.88704032
25	19	0	0	90	36.1581920903955	36.241610738255	25	0.833417599787936	2	10	5	NaN	2	4	0.244781946575837	0	1	NaN	354	6	39	1	120	220	320	NaN	520	0.348903327481821	1	0	NaN	1562101.2207042	NaN	1562102.2041196	1562102.72065287
25	19	0	0	90	36.1581920903955	36.241610738255	20	0.666734079830348	2	11	4	NaN	2	4	0.244781946575837	0	1	NaN	355	6	40	1	120	220	320	NaN	520	0.394421323435381	2	1	NaN	1562103.8875592	NaN	1562104.8710397	1562105.38758088
25	19	0	0	90	36.1581920903955	36.241610738255	20	0.666734079830348	2	3	4	NaN	1	3	0.244781946575837	0	1	NaN	356	6	41	1	120	220	320	NaN	520	2.23687002761289	2	0	NaN	1562106.6045994	NaN	1562107.5878971	1562108.10450617
25	19	0	0	90	36.1581920903955	36.241610738255	10	0.333367039915174	2	10	1	NaN	2	4	0.244781946575837	0	1	NaN	357	6	42	1	120	220	320	NaN	520	1.1105003755074	2	1	NaN	1562111.1549074	NaN	1562112.1384306	1562112.65495192
25	19	0	0	90	36.1581920903955	36.241610738255	22	0.733407487813383	2	4	3	NaN	1	5	0.244781946575837	0	1	NaN	358	6	43	1	120	220	320	NaN	520	0.820592727512121	1	1	NaN	1562114.5886838	NaN	1562115.5720952	1562116.08862247
25	19	0	0	90	36.1581920903955	36.241610738255	6	0.200020223949105	2	9	2	NaN	2	4	0.244781946575837	0	1	NaN	359	6	44	1	120	220	320	NaN	520	0.359057223424315	2	1	NaN	1562117.7390008	NaN	1562118.7224025	1562119.23893868
25	19	0	0	90	36.1581920903955	36.241610738255	22	0.733407487813383	2	3	5	NaN	1	3	0.244781946575837	0	1	NaN	360	6	45	1	120	220	320	NaN	520	0.376178071368486	1	1	NaN	1562121.6892476	NaN	1562122.6727806	1562123.18932083
25	19	0	0	90	36.1581920903955	36.241610738255	19	0.633397375838831	2	2	3	NaN	1	3	0.244781946575837	0	1	NaN	361	6	46	1	120	220	320	NaN	520	2.08693519607186	2	0	NaN	1562125.1063539	NaN	1562126.0897863	1562126.6063425
25	19	0	0	90	36.1581920903955	36.241610738255	20	0.666734079830348	2	1	5	NaN	1	3	0.244781946575837	0	1	NaN	362	6	47	1	120	220	320	NaN	520	0.342213095864281	2	0	NaN	1562129.7228279	NaN	1562130.70691	1562131.2234569
25	19	0	0	90	36.1581920903955	36.241610738255	12	0.400040447898209	2	1	6	NaN	1	5	0.244781946575837	0	1	NaN	363	6	48	1	120	220	320	NaN	520	2.0625286756549	1	1	NaN	1562133.3071835	NaN	1562134.2906044	1562134.80713582
25	19	0	0	90	36.1581920903955	36.241610738255	6	0.200020223949105	2	4	1	NaN	1	4	0.244781946575837	0	1	NaN	364	6	49	1	120	220	320	NaN	520	0.615036227507517	1	1	NaN	1562137.6909531	NaN	1562138.6743472	1562139.19089077
25	19	0	0	90	36.1581920903955	36.241610738255	15	0.500050559872761	2	10	6	NaN	2	3	0.244781946575837	0	1	NaN	365	6	50	1	120	220	320	NaN	520	1.04124417575076	1	0	NaN	1562140.6245565	NaN	1562141.6079808	1562142.12451492
25	19	0	0	90	36.1581920903955	36.241610738255	23	0.766744191804901	2	8	5	NaN	2	4	0.244781946575837	0	1	NaN	366	6	51	1	120	220	320	NaN	520	0.801984927617013	2	1	NaN	1562143.9915826	NaN	1562144.9749728	1562145.49151617
25	19	0	0	90	36.1581920903955	36.241610738255	16	0.533387263864279	2	3	2	NaN	1	5	0.244781946575837	0	1	NaN	367	6	52	1	120	220	320	NaN	520	0.501552275614813	1	1	NaN	1562147.108449	NaN	1562148.0919465	1562148.60849362
25	19	0	0	90	36.1581920903955	36.241610738255	21	0.700070783821866	2	6	1	NaN	1	5	0.244781946575837	0	1	NaN	368	6	53	1	120	220	320	NaN	520	0.979959927499294	2	0	NaN	1562149.9254824	NaN	1562150.9088949	1562151.42542867
25	19	0	0	90	36.1581920903955	36.241610738255	7	0.233356927940622	2	1	1	NaN	1	4	0.244781946575837	0	1	NaN	369	6	54	1	120	220	320	NaN	520	0.790897379629314	1	1	NaN	1562153.4590493	NaN	1562154.4425847	1562154.95911032
25	19	0	0	90	36.1581920903955	36.241610738255	20	0.666734079830348	2	12	2	NaN	2	5	0.244781946575837	0	1	NaN	370	6	55	1	120	220	320	NaN	520	0.305335087701678	1	0	NaN	1562211.0646734	NaN	1562212.0482368	1562212.56477861
25	19	0	0	90	36.1581920903955	36.241610738255	15	0.500050559872761	2	2	4	NaN	1	4	0.244781946575837	0	1	NaN	371	6	56	1	120	220	320	NaN	520	0.271122275618836	1	1	NaN	1562213.6984311	NaN	1562214.681846	1562215.19837532
25	19	0	0	90	36.1581920903955	36.241610738255	21	0.700070783821866	2	3	1	NaN	1	5	0.244781946575837	0	1	NaN	372	6	57	1	120	220	320	NaN	520	0.326950427610427	2	0	NaN	1562216.298605	NaN	1562217.282116	1562217.79860897
25	19	0	0	90	36.1581920903955	36.241610738255	23	0.766744191804901	2	7	4	NaN	2	5	0.244781946575837	0	1	NaN	373	6	58	1	120	220	320	NaN	520	1.04448897135444	2	1	NaN	1562220.1655987	NaN	1562221.14913	1562221.66565363
25	19	0	0	90	36.1581920903955	36.241610738255	10	0.333367039915174	2	6	3	NaN	1	3	0.244781946575837	0	1	NaN	374	6	59	1	120	220	320	NaN	520	0.765442371601239	1	1	NaN	1562223.5327097	NaN	1562224.5161081	1562225.03265543
25	19	0	0	90	36.1581920903955	36.241610738255	7	0.233356927940622	2	9	3	NaN	2	3	0.244781946575837	0	1	NaN	375	6	60	1	120	220	320	NaN	520	0.409862071508542	2	1	NaN	1562226.6161765	NaN	1562227.5997467	1562228.11629213
25	19	0	0	90	36.1581920903955	36.241610738255	11	0.366703743906692	2	9	6	NaN	2	3	0.244781946575837	0	1	NaN	376	6	61	1	120	220	320	NaN	520	0.852875727461651	2	1	NaN	1562229.3332818	NaN	1562230.3166799	1562230.83322797
25	19	0	0	90	36.1581920903955	36.241610738255	17	0.566723967855796	2	12	4	NaN	2	5	0.244781946575837	0	1	NaN	377	6	62	1	120	220	320	NaN	520	0.420905227540061	2	1	NaN	1562232.5168016	NaN	1562233.5003472	1562234.01687727
25	19	0	0	90	36.1581920903955	36.241610738255	21	0.700070783821866	2	11	1	NaN	2	5	0.244781946575837	0	1	NaN	378	6	63	1	120	220	320	NaN	520	1.01464037969708	2	1	NaN	1562235.2670855	NaN	1562236.250617	1562236.76714242
25	19	0	0	90	36.1581920903955	36.241610738255	13	0.433377151889727	2	4	4	NaN	1	3	0.244781946575837	0	1	NaN	379	7	1	1	120	220	320	NaN	520	0.322740983683616	1	1	NaN	1562250.53532	NaN	1562251.5187799	1562252.03532472
25	19	0	0	90	36.1581920903955	36.241610738255	16	0.533387263864279	2	6	5	NaN	1	5	0.244781946575837	0	1	NaN	380	7	2	1	120	220	320	NaN	520	0.552537379786372	1	1	NaN	1562253.1855009	NaN	1562254.169052	1562254.68559392
25	19	0	0	90	36.1581920903955	36.241610738255	18	0.600060671847314	2	6	1	NaN	1	3	0.244781946575837	0	1	NaN	381	7	3	1	120	220	320	NaN	520	0.75658148387447	1	1	NaN	1562256.069262	NaN	1562257.0526468	1562257.56918362
25	19	0	0	90	36.1581920903955	36.241610738255	7	0.233356927940622	2	12	6	NaN	2	5	0.244781946575837	0	1	NaN	382	7	4	1	120	220	320	NaN	520	0.321390579687431	2	1	NaN	1562259.1529023	NaN	1562260.1363031	1562260.65282372
25	19	0	0	90	36.1581920903955	36.241610738255	7	0.233356927940622	2	6	3	NaN	1	5	0.244781946575837	0	1	NaN	383	7	5	1	120	220	320	NaN	520	0.655760127352551	1	1	NaN	1562261.7863297	NaN	1562262.7698838	1562263.28642157
25	19	0	0	90	36.1581920903955	36.241610738255	16	0.533387263864279	2	4	4	NaN	1	4	0.244781946575837	0	1	NaN	384	7	6	1	120	220	320	NaN	520	0.375878987601027	1	1	NaN	1562264.7701272	NaN	1562265.7535088	1562266.27004071
25	19	0	0	90	36.1581920903955	36.241610738255	16	0.533387263864279	2	9	6	NaN	2	4	0.244781946575837	0	1	NaN	385	7	7	1	120	220	320	NaN	520	0.339632131624967	2	1	NaN	1562267.470241	NaN	1562268.4537717	1562268.97030047
25	19	0	0	90	36.1581920903955	36.241610738255	25	0.833417599787936	2	9	3	NaN	2	5	0.244781946575837	0	1	NaN	386	7	8	1	120	220	320	NaN	520	0.305564075708389	2	1	NaN	1562270.1206319	NaN	1562271.1040154	1562271.62055742
25	19	0	0	90	36.1581920903955	36.241610738255	20	0.666734079830348	2	7	2	NaN	2	4	0.244781946575837	0	1	NaN	387	7	9	1	120	220	320	NaN	520	0.256571227451786	2	1	NaN	1562272.7373852	NaN	1562273.7209626	1562274.23750527
25	19	0	0	90	36.1581920903955	36.241610738255	20	0.666734079830348	2	8	6	NaN	2	3	0.244781946575837	0	1	NaN	388	7	10	1	120	220	320	NaN	520	0.249691627454013	1	0	NaN	1562275.3044857	NaN	1562276.287976	1562276.80440767
25	19	0	0	90	36.1581920903955	36.241610738255	6	0.200020223949105	2	6	1	NaN	1	3	0.244781946575837	0	1	NaN	389	7	11	1	120	220	320	NaN	520	0.378468927461654	1	1	NaN	1562277.8713966	NaN	1562278.8547723	1562279.37131767
25	19	0	0	90	36.1581920903955	36.241610738255	7	0.233356927940622	2	7	6	NaN	2	4	0.244781946575837	0	1	NaN	390	7	12	1	120	220	320	NaN	520	0.894231675425544	2	1	NaN	1562280.5716506	NaN	1562281.5550311	1562282.07159042
25	19	0	0	90	36.1581920903955	36.241610738255	20	0.666734079830348	2	2	1	NaN	1	3	0.244781946575837	0	1	NaN	391	7	13	1	120	220	320	NaN	520	0.87719312752597	1	1	NaN	1562283.7885662	NaN	1562284.7720819	1562285.28857927
25	19	0	0	90	36.1581920903955	36.241610738255	21	0.700070783821866	2	12	5	NaN	2	4	0.244781946575837	0	1	NaN	392	7	14	1	120	220	320	NaN	520	0.293082475662231	2	1	NaN	1562286.9889484	NaN	1562287.9723366	1562288.48889082
25	19	0	0	90	36.1581920903955	36.241610738255	17	0.566723967855796	2	8	1	NaN	2	5	0.244781946575837	0	1	NaN	393	7	15	1	120	220	320	NaN	520	0.289815027499571	2	1	NaN	1562289.672495	NaN	1562290.655946	1562291.17247967
25	19	0	0	90	36.1581920903955	36.241610738255	13	0.433377151889727	2	5	3	NaN	1	5	0.244781946575837	0	1	NaN	394	7	16	1	120	220	320	NaN	520	0.817263279575855	1	1	NaN	1562292.2727991	NaN	1562293.2562084	1562293.77274422
25	19	0	0	90	36.1581920903955	36.241610738255	15	0.500050559872761	2	3	2	NaN	1	4	0.244781946575837	0	1	NaN	395	7	17	1	120	220	320	NaN	520	0.442623327486217	1	1	NaN	1562295.4231185	NaN	1562296.4065339	1562296.92303807
25	19	0	0	90	36.1581920903955	36.241610738255	12	0.400040447898209	2	8	4	NaN	2	5	0.244781946575837	0	1	NaN	396	7	18	1	120	220	320	NaN	520	1.14796824776568	2	1	NaN	1562298.1898962	NaN	1562299.1734387	1562299.68999755
25	19	0	0	90	36.1581920903955	36.241610738255	9	0.300030335923657	2	4	3	NaN	1	4	0.244781946575837	0	1	NaN	397	7	19	1	120	220	320	NaN	520	0.408814927330241	1	1	NaN	1562301.6569749	NaN	1562302.6404533	1562303.15699257
25	19	0	0	90	36.1581920903955	36.241610738255	23	0.766744191804901	2	12	2	NaN	2	5	0.244781946575837	0	1	NaN	398	7	20	1	120	220	320	NaN	520	2.58658369188197	2	1	NaN	1562304.4073132	NaN	1562305.3907203	1562305.90726251
25	19	0	0	90	36.1581920903955	36.241610738255	20	0.666734079830348	2	10	2	NaN	2	3	0.244781946575837	0	1	NaN	399	7	21	1	120	220	320	NaN	520	0.278175931423903	1	0	NaN	1562309.3077987	NaN	1562310.2912375	1562310.80773787
25	19	0	0	90	36.1581920903955	36.241610738255	18	0.600060671847314	2	4	6	NaN	1	3	0.244781946575837	0	1	NaN	400	7	22	1	120	220	320	NaN	520	0.365962675772607	1	1	NaN	1562311.9080365	NaN	1562312.8914593	1562313.40799152
25	19	0	0	90	36.1581920903955	36.241610738255	8	0.266693631932139	2	5	5	NaN	1	5	0.244781946575837	0	1	NaN	401	7	23	1	120	220	320	NaN	520	0.385139631573111	1	1	NaN	1562316.2251363	NaN	1562317.2085689	1562317.72509017
25	19	0	0	90	36.1581920903955	36.241610738255	8	0.266693631932139	2	10	6	NaN	2	3	0.244781946575837	0	1	NaN	402	7	24	1	120	220	320	NaN	520	0.307942775543779	2	1	NaN	1562319.1420828	NaN	1562320.125403	1562320.64203662
25	19	0	0	90	36.1581920903955	36.241610738255	25	0.833417599787936	2	1	6	NaN	1	3	0.244781946575837	0	1	NaN	403	7	25	1	120	220	320	NaN	520	0.422991075553	2	0	NaN	1562323.6592191	NaN	1562324.6426474	1562325.15914342
25	19	0	0	90	36.1581920903955	36.241610738255	19	0.633397375838831	2	5	2	NaN	1	5	0.244781946575837	0	1	NaN	404	7	26	1	120	220	320	NaN	520	0.296519527444616	1	1	NaN	1562326.4095133	NaN	1562327.3929068	1562327.90942057
25	19	0	0	90	36.1581920903955	36.241610738255	12	0.400040447898209	2	3	1	NaN	1	5	0.244781946575837	0	1	NaN	405	7	27	1	120	220	320	NaN	520	0.288424839731306	1	1	NaN	1562329.0095993	NaN	1562329.9931392	1562330.50968486
25	19	0	0	90	36.1581920903955	36.241610738255	19	0.633397375838831	2	12	1	NaN	2	4	0.244781946575837	0	1	NaN	406	7	28	1	120	220	320	NaN	520	0.894963067490608	2	1	NaN	1562331.6265155	NaN	1562332.6101109	1562333.12658943
25	19	0	0	90	36.1581920903955	36.241610738255	21	0.700070783821866	2	2	3	NaN	1	3	0.244781946575837	0	1	NaN	407	7	29	1	120	220	320	NaN	520	0.36640492733568	2	0	NaN	1562334.843606	NaN	1562335.8270535	1562336.34357577
25	19	0	0	90	36.1581920903955	36.241610738255	15	0.500050559872761	2	6	5	NaN	1	4	0.244781946575837	0	1	NaN	408	7	30	1	120	220	320	NaN	520	0.45096137537621	1	1	NaN	1562337.5272271	NaN	1562338.5106653	1562339.02717872
25	19	0	0	90	36.1581920903955	36.241610738255	9	0.300030335923657	2	4	4	NaN	1	5	0.244781946575837	0	1	NaN	409	7	31	1	120	220	320	NaN	520	1.35651184385642	1	1	NaN	1562340.477671	NaN	1562341.460928	1562341.97748016
25	19	0	0	90	36.1581920903955	36.241610738255	17	0.566723967855796	2	10	5	NaN	2	5	0.244781946575837	0	1	NaN	410	7	32	1	120	220	320	NaN	520	0.313096575671807	1	0	NaN	1562344.1612346	NaN	1562345.144614	1562345.66115822
25	19	0	0	90	36.1581920903955	36.241610738255	12	0.400040447898209	2	5	1	NaN	1	5	0.244781946575837	0	1	NaN	411	7	33	1	120	220	320	NaN	520	0.582909271586686	1	1	NaN	1562346.7948115	NaN	1562347.7782043	1562348.29474463
25	19	0	0	90	36.1581920903955	36.241610738255	11	0.366703743906692	2	7	5	NaN	2	3	0.244781946575837	0	1	NaN	412	7	34	1	120	220	320	NaN	520	0.491137027507648	2	1	NaN	1562349.6950941	NaN	1562350.678508	1562351.19503667
25	19	0	0	90	36.1581920903955	36.241610738255	23	0.766744191804901	2	1	1	NaN	1	5	0.244781946575837	0	1	NaN	413	7	35	1	120	220	320	NaN	520	0.353734479518607	1	1	NaN	1562352.5120163	NaN	1562353.4954408	1562354.01198892
25	19	0	0	90	36.1581920903955	36.241610738255	14	0.466713855881244	2	8	4	NaN	2	4	0.244781946575837	0	1	NaN	414	7	36	1	120	220	320	NaN	520	2.12152007548138	2	1	NaN	1562356.7124242	NaN	1562357.6958516	1562358.21238942
25	19	0	0	90	36.1581920903955	36.241610738255	25	0.833417599787936	2	11	5	NaN	2	4	0.244781946575837	0	1	NaN	415	7	37	1	120	220	320	NaN	520	0.295518175465986	2	1	NaN	1562361.1628965	NaN	1562362.1462859	1562362.66283562
25	19	0	0	90	36.1581920903955	36.241610738255	0	0	1	9	3	NaN	2	4	0.244781946575837	0	1	NaN	416	7	38	1	110	210	310	NaN	510	0.906409023329616	1	0	NaN	1562365.0799619	NaN	1562366.063345	1562366.57988338
25	19	0	0	90	36.1581920903955	36.241610738255	21	0.700070783821866	2	12	2	NaN	2	5	0.244781946575837	0	1	NaN	417	7	39	1	120	220	320	NaN	520	0.424763987772167	2	1	NaN	1562368.3135826	NaN	1562369.2969971	1562369.81353841
25	19	0	0	90	36.1581920903955	36.241610738255	21	0.700070783821866	2	11	5	NaN	2	3	0.244781946575837	0	1	NaN	418	7	40	1	120	220	320	NaN	520	0.856095975730568	2	1	NaN	1562371.313864	NaN	1562372.2972987	1562372.81382942
25	19	0	0	90	36.1581920903955	36.241610738255	16	0.533387263864279	2	12	3	NaN	2	3	0.244781946575837	0	1	NaN	419	7	41	1	120	220	320	NaN	520	0.832615127554163	2	1	NaN	1562374.4975546	NaN	1562375.4809268	1562375.99746537
25	19	0	0	90	36.1581920903955	36.241610738255	23	0.766744191804901	2	11	6	NaN	2	5	0.244781946575837	0	1	NaN	420	7	42	1	120	220	320	NaN	520	1.16185098374262	1	0	NaN	1562377.6644928	NaN	1562378.6479424	1562379.16444772
25	19	0	0	90	36.1581920903955	36.241610738255	16	0.533387263864279	2	8	2	NaN	2	3	0.244781946575837	0	1	NaN	421	7	43	1	120	220	320	NaN	520	1.0221437276341	2	1	NaN	1562381.1481905	NaN	1562382.1315924	1562382.64813177
25	19	0	0	90	36.1581920903955	36.241610738255	17	0.566723967855796	2	6	5	NaN	1	4	0.244781946575837	0	1	NaN	422	7	44	1	120	220	320	NaN	520	0.847433483693749	2	0	NaN	1562384.4985214	NaN	1562385.4818752	1562385.99845452
25	19	0	0	90	36.1581920903955	36.241610738255	25	0.833417599787936	2	10	1	NaN	2	3	0.244781946575837	0	1	NaN	423	7	45	1	120	220	320	NaN	520	0.688523575430736	1	0	NaN	1562387.6655408	NaN	1562388.6489083	1562389.16543482
25	19	0	0	90	36.1581920903955	36.241610738255	21	0.700070783821866	2	8	2	NaN	2	4	0.244781946575837	0	1	NaN	424	7	46	1	120	220	320	NaN	520	1.28934458387084	2	1	NaN	1562391.0492529	NaN	1562392.0325597	1562392.54909522
25	19	0	0	90	36.1581920903955	36.241610738255	25	0.833417599787936	2	7	2	NaN	2	3	0.244781946575837	0	1	NaN	425	7	47	1	120	220	320	NaN	520	2.68629674380645	1	0	NaN	1562394.8991307	NaN	1562395.8829516	1562396.39950116
25	19	0	0	90	36.1581920903955	36.241610738255	15	0.500050559872761	2	8	1	NaN	2	3	0.244781946575837	0	1	NaN	426	7	48	1	120	220	320	NaN	520	0.783726575551555	2	1	NaN	1562400.0667089	NaN	1562401.0500768	1562401.56664092
25	19	0	0	90	36.1581920903955	36.241610738255	9	0.300030335923657	2	2	6	NaN	1	5	0.244781946575837	0	1	NaN	427	7	49	1	120	220	320	NaN	520	0.307342483662069	2	0	NaN	1562404.1669652	NaN	1562405.1505191	1562405.66705832
25	19	0	0	90	36.1581920903955	36.241610738255	10	0.333367039915174	2	1	6	NaN	1	4	0.244781946575837	0	1	NaN	428	7	50	1	120	220	320	NaN	520	0.97588367969729	2	0	NaN	1562408.6341893	NaN	1562409.6176419	1562410.13415932
25	19	0	0	90	36.1581920903955	36.241610738255	10	0.333367039915174	2	3	3	NaN	1	3	0.244781946575837	0	1	NaN	429	7	51	1	120	220	320	NaN	520	0.475895139621571	1	1	NaN	1562411.9344094	NaN	1562412.9179648	1562413.43448676
25	19	0	0	90	36.1581920903955	36.241610738255	12	0.400040447898209	2	12	6	NaN	2	5	0.244781946575837	0	1	NaN	430	7	52	1	120	220	320	NaN	520	0.291272439528257	2	1	NaN	1562414.7348129	NaN	1562415.7182187	1562416.23475306
25	19	0	0	90	36.1581920903955	36.241610738255	14	0.466713855881244	2	5	6	NaN	1	3	0.244781946575837	0	1	NaN	431	7	53	1	120	220	320	NaN	520	0.298328827368096	1	1	NaN	1562417.3517178	NaN	1562418.3351545	1562418.85167317
25	19	0	0	90	36.1581920903955	36.241610738255	22	0.733407487813383	2	10	5	NaN	2	5	0.244781946575837	0	1	NaN	432	7	54	1	120	220	320	NaN	520	0.254712327616289	2	1	NaN	1562420.0353099	NaN	1562421.0186514	1562421.53530297
25	19	0	0	90	36.1581920903955	36.241610738255	15	0.500050559872761	2	2	6	NaN	1	5	0.244781946575837	0	1	NaN	433	7	55	1	120	220	320	NaN	520	0.737948727561161	1	1	NaN	1562424.3357232	NaN	1562425.3191939	1562425.83569117
25	19	0	0	90	36.1581920903955	36.241610738255	8	0.266693631932139	2	12	3	NaN	2	5	0.244781946575837	0	1	NaN	434	7	56	1	120	220	320	NaN	520	0.312151471618563	2	1	NaN	1562427.3860426	NaN	1562428.369447	1562428.88598703
25	19	0	0	90	36.1581920903955	36.241610738255	24	0.800080895796418	2	7	4	NaN	2	5	0.244781946575837	0	1	NaN	435	7	57	1	120	220	320	NaN	520	0.278720975620672	2	1	NaN	1562430.0196976	NaN	1562431.0030708	1562431.51958852
25	19	0	0	90	36.1581920903955	36.241610738255	7	0.233356927940622	2	5	2	NaN	1	5	0.244781946575837	0	1	NaN	436	7	58	1	120	220	320	NaN	520	2.04118737555109	1	1	NaN	1562435.5367423	NaN	1562436.5202682	1562437.03679472
25	19	0	0	90	36.1581920903955	36.241610738255	10	0.333367039915174	2	5	4	NaN	1	4	0.244781946575837	0	1	NaN	437	7	59	1	120	220	320	NaN	520	1.75448357546702	1	1	NaN	1562439.9039601	NaN	1562440.8873521	1562441.40388472
25	19	0	0	90	36.1581920903955	36.241610738255	15	0.500050559872761	2	3	4	NaN	1	3	0.244781946575837	0	1	NaN	438	7	60	1	120	220	320	NaN	520	0.319196115247905	1	1	NaN	1562443.9710323	NaN	1562444.954435	1562445.47095648
25	19	0	0	90	36.1581920903955	36.241610738255	17	0.566723967855796	2	11	5	NaN	2	5	0.244781946575837	0	1	NaN	439	7	61	1	120	220	320	NaN	520	1.5338792714756	2	1	NaN	1562446.6046103	NaN	1562447.588009	1562448.10453903
25	19	0	0	90	36.1581920903955	36.241610738255	17	0.566723967855796	2	5	5	NaN	1	4	0.244781946575837	0	1	NaN	440	7	62	1	120	220	320	NaN	520	0.347227827413008	1	1	NaN	1562450.4549946	NaN	1562451.4383892	1562451.95492367
25	19	0	0	90	36.1581920903955	36.241610738255	14	0.466713855881244	2	6	6	NaN	1	3	0.244781946575837	0	1	NaN	441	7	63	1	120	220	320	NaN	520	0.783916695974767	1	1	NaN	1562453.1385664	NaN	1562454.1219939	1562454.6385441
25	19	0	0	90	36.1581920903955	36.241610738255	8	0.266693631932139	2	4	2	NaN	1	5	0.244781946575837	0	1	NaN	442	8	1	1	120	220	320	NaN	520	0.262599679641426	1	1	NaN	1562462.5393999	NaN	1562463.5229178	1562464.03944792
25	19	0	0	90	36.1581920903955	36.241610738255	22	0.733407487813383	2	2	5	NaN	1	4	0.244781946575837	0	1	NaN	443	8	2	1	120	220	320	NaN	520	0.270524275721982	2	0	NaN	1562465.1397509	NaN	1562466.1231621	1562466.63969482
25	19	0	0	90	36.1581920903955	36.241610738255	8	0.266693631932139	2	8	1	NaN	2	3	0.244781946575837	0	1	NaN	444	8	3	1	120	220	320	NaN	520	0.863140419358388	2	1	NaN	1562467.7232411	NaN	1562468.7067384	1562469.22328888
25	19	0	0	90	36.1581920903955	36.241610738255	23	0.766744191804901	2	4	2	NaN	1	3	0.244781946575837	0	1	NaN	445	8	4	1	120	220	320	NaN	520	0.295461983652785	1	1	NaN	1562470.906998	NaN	1562471.8905105	1562472.40693042
25	19	0	0	90	36.1581920903955	36.241610738255	18	0.600060671847314	2	10	2	NaN	2	3	0.244781946575837	0	1	NaN	446	8	5	1	120	220	320	NaN	520	0.390579527476802	2	1	NaN	1562473.523922	NaN	1562474.507323	1562475.02386187
25	19	0	0	90	36.1581920903955	36.241610738255	14	0.466713855881244	2	1	3	NaN	1	3	0.244781946575837	0	1	NaN	447	8	6	1	120	220	320	NaN	520	0.329540475504473	2	0	NaN	1562476.2407914	NaN	1562477.2242724	1562477.74078512
25	19	0	0	90	36.1581920903955	36.241610738255	12	0.400040447898209	2	6	3	NaN	1	3	0.244781946575837	0	1	NaN	448	8	7	1	120	220	320	NaN	520	1.02496677963063	1	1	NaN	1562479.6411674	NaN	1562480.6245982	1562481.14113232
25	19	0	0	90	36.1581920903955	36.241610738255	7	0.233356927940622	2	2	1	NaN	1	4	0.244781946575837	0	1	NaN	449	8	8	1	120	220	320	NaN	520	0.810749631607905	1	1	NaN	1562482.991518	NaN	1562483.9749376	1562484.49145597
25	19	0	0	90	36.1581920903955	36.241610738255	18	0.600060671847314	2	4	5	NaN	1	5	0.244781946575837	0	1	NaN	450	8	9	1	120	220	320	NaN	520	0.435495227575302	1	1	NaN	1562486.558532	NaN	1562487.5419459	1562488.05847627
25	19	0	0	90	36.1581920903955	36.241610738255	10	0.333367039915174	2	9	6	NaN	2	5	0.244781946575837	0	1	NaN	451	8	10	1	120	220	320	NaN	520	0.467986647738144	2	1	NaN	1562489.9421739	NaN	1562490.9256221	1562491.44215725
25	19	0	0	90	36.1581920903955	36.241610738255	11	0.366703743906692	2	7	5	NaN	2	4	0.244781946575837	0	1	NaN	452	8	11	1	120	220	320	NaN	520	0.433341879630461	2	1	NaN	1562493.0091491	NaN	1562493.9925759	1562494.50910522
25	19	0	0	90	36.1581920903955	36.241610738255	7	0.233356927940622	2	4	3	NaN	1	3	0.244781946575837	0	1	NaN	453	8	12	1	120	220	320	NaN	520	0.292778775561601	2	0	NaN	1562495.9094638	NaN	1562496.892981	1562497.40937952
25	19	0	0	90	36.1581920903955	36.241610738255	13	0.433377151889727	2	6	1	NaN	1	3	0.244781946575837	0	1	NaN	454	8	13	1	120	220	320	NaN	520	1.44907222758047	1	1	NaN	1562498.5930409	NaN	1562499.5764479	1562500.09297957
25	19	0	0	90	36.1581920903955	36.241610738255	25	0.833417599787936	2	4	3	NaN	1	3	0.244781946575837	0	1	NaN	455	8	14	1	120	220	320	NaN	520	0.289813823299482	1	1	NaN	1562502.3600752	NaN	1562503.3434718	1562503.86002168
25	19	0	0	90	36.1581920903955	36.241610738255	20	0.666734079830348	2	12	2	NaN	2	3	0.244781946575837	0	1	NaN	456	8	15	1	120	220	320	NaN	520	0.369481871603057	2	1	NaN	1562505.9770785	NaN	1562506.960504	1562507.47704323
25	19	0	0	90	36.1581920903955	36.241610738255	22	0.733407487813383	2	8	6	NaN	2	5	0.244781946575837	0	1	NaN	457	8	16	1	120	220	320	NaN	520	0.31684257555753	2	1	NaN	1562508.6773245	NaN	1562509.6607749	1562510.17729902
25	19	0	0	90	36.1581920903955	36.241610738255	18	0.600060671847314	2	11	4	NaN	2	4	0.244781946575837	0	1	NaN	458	8	17	1	120	220	320	NaN	520	0.259394627297297	2	1	NaN	1562511.3109663	NaN	1562512.2943625	1562512.81089177
25	19	0	0	90	36.1581920903955	36.241610738255	8	0.266693631932139	2	11	6	NaN	2	3	0.244781946575837	0	1	NaN	459	8	18	1	120	220	320	NaN	520	0.844322591787204	1	0	NaN	1562514.4779303	NaN	1562515.4613544	1562515.97787461
25	19	0	0	90	36.1581920903955	36.241610738255	7	0.233356927940622	2	4	5	NaN	1	3	0.244781946575837	0	1	NaN	460	8	19	1	120	220	320	NaN	520	1.30918329185806	1	1	NaN	1562517.6449042	NaN	1562518.6283148	1562519.14486251
