subjno	age	gender	isPractice	viewdist	CmToPixX	CmToPixY	SOA_frm	SOA_time	targNum	targID	targExample	targRace	targGender	firstTargPos	contrast	familiarity	curr_staircase	iStair	TrialNum	BlockNum	blktrl	sessionNum	TC_FIXATION	TC_RSVP_START	TC_RSVP_END	TC_BLANK	TC_RESPONSE_ONSET	RT2afc	resp_2afc	acc	RSVPOnsetVBL	RSVPOnsetTime	RSVPOffsetVBL	RSVPOffsetTime	startrt_2afc
14	20	0	0	90	36.1581920903955	36.241610738255	22	0.733379944115877	2	10	3	NaN	2	5	0.0534935379151947	0	1	NaN	1	1	1	2	120	220	320	NaN	520	1.13957257382572	2	1	NaN	4473903.0404698	NaN	4473904.0237816	4473904.55688503
14	20	0	0	90	36.1581920903955	36.241610738255	16	0.533367232084274	2	3	4	NaN	1	4	0.0534935379151947	0	1	NaN	2	1	2	2	120	220	320	NaN	520	0.854329126887023	2	0	NaN	4473906.5574788	NaN	4473907.5407542	4473908.07389997
14	20	0	0	90	36.1581920903955	36.241610738255	17	0.566702684089541	2	8	2	NaN	2	3	0.0534935379151947	0	1	NaN	3	1	3	2	120	220	320	NaN	520	1.62282432708889	2	1	NaN	4473909.7576152	NaN	4473910.7409861	4473911.25754337
14	20	0	0	90	36.1581920903955	36.241610738255	20	0.666709040105343	2	11	3	NaN	2	4	0.0534935379151947	0	1	NaN	4	1	4	2	120	220	320	NaN	520	0.352702468633652	2	1	NaN	4473913.7080084	NaN	4473914.6913656	4473915.20791843
14	20	0	0	90	36.1581920903955	36.241610738255	14	0.46669632807374	2	2	5	NaN	1	3	0.0534935379151947	0	1	NaN	5	1	5	2	120	220	320	NaN	520	0.213810222223401	2	0	NaN	4473916.3749092	NaN	4473917.358303	4473917.87486068
14	20	0	0	90	36.1581920903955	36.241610738255	11	0.366689972057939	2	8	4	NaN	2	5	0.0534935379151947	0	1	NaN	6	1	6	2	120	220	320	NaN	520	1.67986364290118	1	0	NaN	4473918.9084977	NaN	4473919.8918852	4473920.40843556
14	20	0	0	90	36.1581920903955	36.241610738255	22	0.733379944115877	2	9	2	NaN	2	3	0.0534935379151947	0	1	NaN	7	1	7	2	120	220	320	NaN	520	2.64751261565834	2	1	NaN	4473922.9088873	NaN	4473923.8922852	4473924.40882418
14	20	0	0	90	36.1581920903955	36.241610738255	21	0.70004449211061	2	1	3	NaN	1	3	0.0534935379151947	0	1	NaN	8	1	8	2	120	220	320	NaN	520	0.288679921068251	1	1	NaN	4473927.8760456	NaN	4473928.8594274	4473929.37598188
14	20	0	0	90	36.1581920903955	36.241610738255	15	0.500031780079007	2	6	1	NaN	1	5	0.0534935379151947	0	1	NaN	9	1	9	2	120	220	320	NaN	520	0.472172189503908	1	1	NaN	4473930.4761668	NaN	4473931.4596926	4473931.97623801
14	20	0	0	90	36.1581920903955	36.241610738255	8	0.266683616042137	2	6	5	NaN	1	5	0.0534935379151947	0	1	NaN	10	1	10	2	120	220	320	NaN	520	0.287866321392357	1	1	NaN	4473933.2765793	NaN	4473934.2599523	4473934.77651888
14	20	0	0	90	36.1581920903955	36.241610738255	12	0.400025424063206	2	12	1	NaN	2	5	0.0534935379151947	0	1	NaN	11	1	11	2	120	220	320	NaN	520	0.495423868298531	2	1	NaN	4473935.8767053	NaN	4473936.8602208	4473937.37677273
14	20	0	0	90	36.1581920903955	36.241610738255	18	0.600038136094809	2	9	5	NaN	2	3	0.0534935379151947	0	1	NaN	12	1	12	2	120	220	320	NaN	520	0.438745122402906	1	0	NaN	4473938.6937677	NaN	4473939.6770633	4473940.19371798
14	20	0	0	90	36.1581920903955	36.241610738255	19	0.633373588100076	2	4	2	NaN	1	3	0.0534935379151947	0	1	NaN	13	1	13	2	120	220	320	NaN	520	0.344585937447846	1	1	NaN	4473941.4439144	NaN	4473942.4274185	4473942.94399706
14	20	0	0	90	36.1581920903955	36.241610738255	12	0.400025424063206	2	4	1	NaN	1	3	0.0534935379151947	0	1	NaN	14	1	14	2	120	220	320	NaN	520	0.269267168827355	1	1	NaN	4473944.110971	NaN	4473945.0943556	4473945.61091133
14	20	0	0	90	36.1581920903955	36.241610738255	8	0.266683616042137	2	8	1	NaN	2	5	0.0534935379151947	0	1	NaN	15	1	15	2	120	220	320	NaN	520	0.285819715820253	2	1	NaN	4473946.6945019	NaN	4473947.677949	4473948.19448998
14	20	0	0	90	36.1581920903955	36.241610738255	8	0.266683616042137	2	11	5	NaN	2	5	0.0534935379151947	0	1	NaN	16	1	16	2	120	220	320	NaN	520	0.261579821817577	2	1	NaN	4473949.2947942	NaN	4473950.2782224	4473950.79474638
14	20	0	0	90	36.1581920903955	36.241610738255	10	0.333354520052671	2	11	1	NaN	2	4	0.0534935379151947	0	1	NaN	17	1	17	2	120	220	320	NaN	520	0.334039863198996	2	1	NaN	4473951.8784076	NaN	4473952.8617891	4473953.37833284
14	20	0	0	90	36.1581920903955	36.241610738255	21	0.70004449211061	2	7	6	NaN	2	3	0.0534935379151947	0	1	NaN	18	1	18	2	120	220	320	NaN	520	0.0837919693440199	2	1	NaN	4473954.528641	NaN	4473955.5120446	4473956.02859293
14	20	0	0	90	36.1581920903955	36.241610738255	12	0.400025424063206	2	2	4	NaN	1	4	0.0534935379151947	0	1	NaN	19	1	19	2	120	220	320	NaN	520	0.259239468723536	2	0	NaN	4473956.9288875	NaN	4473957.9122858	4473958.42883213
14	20	0	0	90	36.1581920903955	36.241610738255	12	0.400025424063206	2	7	4	NaN	2	4	0.0534935379151947	0	1	NaN	20	1	20	2	120	220	320	NaN	520	0.276900821365416	2	1	NaN	4473959.4958035	NaN	4473960.4792075	4473960.99576228
14	20	0	0	90	36.1581920903955	36.241610738255	21	0.70004449211061	2	12	5	NaN	2	4	0.0534935379151947	0	1	NaN	21	1	21	2	120	220	320	NaN	520	0.340488668531179	2	1	NaN	4473962.0960662	NaN	4473963.0794391	4473963.59601643
14	20	0	0	90	36.1581920903955	36.241610738255	14	0.46669632807374	2	4	3	NaN	1	4	0.0534935379151947	0	1	NaN	22	1	22	2	120	220	320	NaN	520	0.265534868463874	1	1	NaN	4473964.7629982	NaN	4473965.7463874	4473966.26294253
14	20	0	0	90	36.1581920903955	36.241610738255	24	0.800050848126411	2	5	6	NaN	1	4	0.0534935379151947	0	1	NaN	23	1	23	2	120	220	320	NaN	520	0.329790168441832	1	1	NaN	4473967.3465699	NaN	4473968.3299844	4473968.84652923
14	20	0	0	90	36.1581920903955	36.241610738255	14	0.46669632807374	2	11	4	NaN	2	3	0.0534935379151947	0	1	NaN	24	1	24	2	120	220	320	NaN	520	1.15162316896021	2	1	NaN	4473969.9968532	NaN	4473970.9802315	4473971.49679103
14	20	0	0	90	36.1581920903955	36.241610738255	18	0.600038136094809	2	6	1	NaN	1	4	0.0534935379151947	0	1	NaN	25	1	25	2	120	220	320	NaN	520	0.292201278731227	1	1	NaN	4473973.4805108	NaN	4473974.463897	4473974.98046442
14	20	0	0	90	36.1581920903955	36.241610738255	18	0.600038136094809	2	6	2	NaN	1	4	0.0534935379151947	0	1	NaN	26	1	26	2	120	220	320	NaN	520	0.28292381670326	1	1	NaN	4473976.0973877	NaN	4473977.0808277	4473977.59737758
14	20	0	0	90	36.1581920903955	36.241610738255	16	0.533367232084274	2	4	3	NaN	1	5	0.0534935379151947	0	1	NaN	27	1	27	2	120	220	320	NaN	520	0.266672168858349	1	1	NaN	4473978.6976773	NaN	4473979.6811111	4473980.19763643
14	20	0	0	90	36.1581920903955	36.241610738255	11	0.366689972057939	2	9	4	NaN	2	4	0.0534935379151947	0	1	NaN	28	1	28	2	120	220	320	NaN	520	0.30694492161274	2	1	NaN	4473981.2812825	NaN	4473982.2646715	4473982.78123108
14	20	0	0	90	36.1581920903955	36.241610738255	22	0.733379944115877	2	8	4	NaN	2	4	0.0534935379151947	0	1	NaN	29	1	29	2	120	220	320	NaN	520	0.169606174342334	1	0	NaN	4473983.9149007	NaN	4473984.8982728	4473985.41482263
14	20	0	0	90	36.1581920903955	36.241610738255	6	0.200012712031603	2	6	3	NaN	1	4	0.0534935379151947	0	1	NaN	30	1	30	2	120	220	320	NaN	520	0.0779984686523676	1	1	NaN	4473986.398343	NaN	4473987.3818594	4473987.89839133
14	20	0	0	90	36.1581920903955	36.241610738255	7	0.23334816403687	2	7	5	NaN	2	3	0.0534935379151947	0	1	NaN	31	1	31	2	120	220	320	NaN	520	0.341598669067025	2	1	NaN	4473988.7986845	NaN	4473989.782089	4473990.29862593
14	20	0	0	90	36.1581920903955	36.241610738255	7	0.23334816403687	2	3	5	NaN	1	5	0.0534935379151947	0	1	NaN	32	1	32	2	120	220	320	NaN	520	0.27482792083174	1	1	NaN	4473991.4656076	NaN	4473992.449052	4473992.96556138
14	20	0	0	90	36.1581920903955	36.241610738255	8	0.266683616042137	2	2	4	NaN	1	4	0.0534935379151947	0	1	NaN	33	1	33	2	120	220	320	NaN	520	0.274499768391252	2	0	NaN	4473994.0658675	NaN	4473995.0492728	4473995.56581753
14	20	0	0	90	36.1581920903955	36.241610738255	9	0.300019068047404	2	1	2	NaN	1	3	0.0534935379151947	0	1	NaN	34	1	34	2	120	220	320	NaN	520	0.306323216296732	1	1	NaN	4473996.6661178	NaN	4473997.6495253	4473998.16607078
14	20	0	0	90	36.1581920903955	36.241610738255	13	0.433360876068473	2	12	1	NaN	2	4	0.0534935379151947	0	1	NaN	35	1	35	2	120	220	320	NaN	520	0.305184521712363	2	1	NaN	4473999.2830689	NaN	4474000.2664463	4474000.78299778
14	20	0	0	90	36.1581920903955	36.241610738255	8	0.266683616042137	2	10	5	NaN	2	3	0.0534935379151947	0	1	NaN	36	1	36	2	120	220	320	NaN	520	0.327820369042456	1	0	NaN	4474001.9166471	NaN	4474002.9000378	4474003.41658153
14	20	0	0	90	36.1581920903955	36.241610738255	23	0.766715396121144	2	12	4	NaN	2	3	0.0534935379151947	0	1	NaN	37	1	37	2	120	220	320	NaN	520	0.381915011443198	2	1	NaN	4474004.5668827	NaN	4474005.5502905	4474006.06684629
14	20	0	0	90	36.1581920903955	36.241610738255	10	0.333354520052671	2	9	3	NaN	2	4	0.0534935379151947	0	1	NaN	38	1	38	2	120	220	320	NaN	520	0.361219668760896	2	1	NaN	4474007.2670833	NaN	4474008.2505568	4474008.76713233
14	20	0	0	90	36.1581920903955	36.241610738255	20	0.666709040105343	2	1	5	NaN	1	5	0.0534935379151947	0	1	NaN	39	1	39	2	120	220	320	NaN	520	0.326005968265235	1	1	NaN	4474009.9507081	NaN	4474010.9342364	4474011.45070963
14	20	0	0	90	36.1581920903955	36.241610738255	16	0.533367232084274	2	7	2	NaN	2	4	0.0534935379151947	0	1	NaN	40	1	40	2	120	220	320	NaN	520	0.372512368485332	1	0	NaN	4474012.5843521	NaN	4474013.5677449	4474014.08430473
14	20	0	0	90	36.1581920903955	36.241610738255	6	0.200012712031603	2	5	2	NaN	1	3	0.0534935379151947	0	1	NaN	41	1	41	2	120	220	320	NaN	520	0.424476069398224	1	1	NaN	4474015.2679796	NaN	4474016.251379	4474016.76789203
14	20	0	0	90	36.1581920903955	36.241610738255	11	0.366689972057939	2	3	5	NaN	1	5	0.0534935379151947	0	1	NaN	42	1	42	2	120	220	320	NaN	520	0.835279273800552	1	1	NaN	4474018.0015621	NaN	4474018.9849515	4474019.50150433
14	20	0	0	90	36.1581920903955	36.241610738255	8	0.266683616042137	2	12	3	NaN	2	4	0.0534935379151947	0	1	NaN	43	1	43	2	120	220	320	NaN	520	0.764758422039449	1	0	NaN	4474021.151858	NaN	4474022.135258	4474022.65181238
14	20	0	0	90	36.1581920903955	36.241610738255	24	0.800050848126411	2	4	4	NaN	1	5	0.0534935379151947	0	1	NaN	44	1	44	2	120	220	320	NaN	520	0.281249668449163	1	1	NaN	4474024.2354959	NaN	4474025.2189116	4474025.73543793
14	20	0	0	90	36.1581920903955	36.241610738255	19	0.633373588100076	2	1	6	NaN	1	3	0.0534935379151947	0	1	NaN	45	1	45	2	120	220	320	NaN	520	0.288867268711329	1	1	NaN	4474026.8357488	NaN	4474027.8191989	4474028.33569553
14	20	0	0	90	36.1581920903955	36.241610738255	16	0.533367232084274	2	5	6	NaN	1	5	0.0534935379151947	0	1	NaN	46	1	46	2	120	220	320	NaN	520	0.280796568840742	1	1	NaN	4474029.4360167	NaN	4474030.4194008	4474030.93594873
14	20	0	0	90	36.1581920903955	36.241610738255	10	0.333354520052671	2	4	6	NaN	1	5	0.0534935379151947	0	1	NaN	47	1	47	2	120	220	320	NaN	520	0.0104098683223128	1	1	NaN	4474032.0362631	NaN	4474033.0196652	4474033.53621083
14	20	0	0	90	36.1581920903955	36.241610738255	6	0.200012712031603	2	12	5	NaN	2	3	0.0534935379151947	0	1	NaN	48	1	48	2	120	220	320	NaN	520	0.163824415765703	2	1	NaN	4474034.3530149	NaN	4474035.3365769	4474035.85309948
14	20	0	0	90	36.1581920903955	36.241610738255	21	0.70004449211061	2	4	6	NaN	1	5	0.0534935379151947	0	1	NaN	49	1	49	2	120	220	320	NaN	520	1.13594716787338	2	0	NaN	4474036.8367365	NaN	4474037.8201301	4474038.33668393
14	20	0	0	90	36.1581920903955	36.241610738255	15	0.500031780079007	2	11	4	NaN	2	4	0.0534935379151947	0	1	NaN	50	1	50	2	120	220	320	NaN	520	0.253502221778035	2	1	NaN	4474040.2870805	NaN	4474041.2704684	4474041.78701788
14	20	0	0	90	36.1581920903955	36.241610738255	10	0.333354520052671	2	3	4	NaN	1	4	0.0534935379151947	0	1	NaN	51	1	51	2	120	220	320	NaN	520	0.182808268815279	1	1	NaN	4474042.8540961	NaN	4474043.8374478	4474044.35393803
14	20	0	0	90	36.1581920903955	36.241610738255	12	0.400025424063206	2	9	1	NaN	2	5	0.0534935379151947	0	1	NaN	52	1	52	2	120	220	320	NaN	520	0.364289773628116	2	1	NaN	4474045.5041145	NaN	4474046.4876444	4474047.00420673
14	20	0	0	90	36.1581920903955	36.241610738255	6	0.200012712031603	2	1	1	NaN	1	4	0.0534935379151947	0	1	NaN	53	1	53	2	120	220	320	NaN	520	0.306963267736137	1	1	NaN	4474048.5377532	NaN	4474049.5213216	4474050.03782673
14	20	0	0	90	36.1581920903955	36.241610738255	21	0.70004449211061	2	9	6	NaN	2	3	0.0534935379151947	0	1	NaN	54	1	54	2	120	220	320	NaN	520	0.370086722075939	2	1	NaN	4474051.1547942	NaN	4474052.1381985	4474052.65476048
14	20	0	0	90	36.1581920903955	36.241610738255	20	0.666709040105343	2	9	1	NaN	2	5	0.0534935379151947	0	1	NaN	55	1	55	2	120	220	320	NaN	520	0.230118752457201	2	1	NaN	4474053.838418	NaN	4474054.8218021	4474055.33834545
14	20	0	0	90	36.1581920903955	36.241610738255	12	0.400025424063206	2	5	4	NaN	1	3	0.0534935379151947	0	1	NaN	56	1	56	2	120	220	320	NaN	520	0.217221069149673	1	1	NaN	4474056.7553699	NaN	4474057.7387416	4474058.25530103
14	20	0	0	90	36.1581920903955	36.241610738255	11	0.366689972057939	2	11	3	NaN	2	3	0.0534935379151947	0	1	NaN	57	1	57	2	120	220	320	NaN	520	0.2998684681952	2	1	NaN	4474059.2889335	NaN	4474060.2723387	4474060.78888383
14	20	0	0	90	36.1581920903955	36.241610738255	20	0.666709040105343	2	7	4	NaN	2	3	0.0534935379151947	0	1	NaN	58	1	58	2	120	220	320	NaN	520	0.290677468292415	2	1	NaN	4474061.9058803	NaN	4474062.8892531	4474063.40580913
14	20	0	0	90	36.1581920903955	36.241610738255	18	0.600038136094809	2	5	4	NaN	1	4	0.0534935379151947	0	1	NaN	59	1	59	2	120	220	320	NaN	520	0.210472015663981	2	0	NaN	4474064.5061183	NaN	4474065.4895137	4474066.00606288
14	20	0	0	90	36.1581920903955	36.241610738255	15	0.500031780079007	2	1	2	NaN	1	5	0.0534935379151947	0	1	NaN	60	1	60	2	120	220	320	NaN	520	0.0103910211473703	1	1	NaN	4474067.0230555	NaN	4474068.0064183	4474068.52298398
14	20	0	0	90	36.1581920903955	36.241610738255	14	0.46669632807374	2	12	6	NaN	2	4	0.0534935379151947	0	1	NaN	61	1	61	2	120	220	320	NaN	520	0.968646521680057	2	1	NaN	4474069.3399126	NaN	4474070.323315	4474070.83987458
14	20	0	0	90	36.1581920903955	36.241610738255	0	0	1	5	6	NaN	1	4	0.0534935379151947	0	1	NaN	62	1	62	2	110	210	310	NaN	510	0.204873968847096	1	1	NaN	4474072.6235916	NaN	4474073.6069831	4474074.12352593
14	20	0	0	90	36.1581920903955	36.241610738255	19	0.633373588100076	2	9	2	NaN	2	5	0.0534935379151947	0	1	NaN	63	1	63	2	120	220	320	NaN	520	1.56013656873256	1	0	NaN	4474075.1404878	NaN	4474076.1238763	4474076.64043903
14	20	0	0	90	36.1581920903955	36.241610738255	24	0.800050848126411	2	6	5	NaN	1	3	0.0534935379151947	0	1	NaN	64	2	1	2	120	220	320	NaN	520	0.0104557685554028	1	1	NaN	4474091.2419576	NaN	4474092.2254793	4474092.74202243
14	20	0	0	90	36.1581920903955	36.241610738255	14	0.46669632807374	2	7	6	NaN	2	5	0.0534935379151947	0	1	NaN	65	2	2	2	120	220	320	NaN	520	0.0104316165670753	2	1	NaN	4474093.5588777	NaN	4474094.5423985	4474095.05891528
14	20	0	0	90	36.1581920903955	36.241610738255	25	0.833386300131679	2	10	2	NaN	2	5	0.0534935379151947	0	1	NaN	66	2	3	2	120	220	320	NaN	520	0.396009622141719	1	0	NaN	4474096.3925654	NaN	4474097.3759846	4474097.89253188
14	20	0	0	90	36.1581920903955	36.241610738255	15	0.500031780079007	2	12	4	NaN	2	3	0.0534935379151947	0	1	NaN	67	2	4	2	120	220	320	NaN	520	0.992172168567777	2	1	NaN	4474099.0929826	NaN	4474100.0762393	4474100.59279503
14	20	0	0	90	36.1581920903955	36.241610738255	10	0.333354520052671	2	2	2	NaN	1	5	0.0534935379151947	0	1	NaN	68	2	5	2	120	220	320	NaN	520	0.30783234257251	1	1	NaN	4474102.3931793	NaN	4474103.3765551	4474103.89311776
14	20	0	0	90	36.1581920903955	36.241610738255	23	0.766715396121144	2	1	4	NaN	1	3	0.0534935379151947	0	1	NaN	69	2	6	2	120	220	320	NaN	520	0.234763974323869	1	1	NaN	4474105.0101008	NaN	4474105.9934882	4474106.51003633
14	20	0	0	90	36.1581920903955	36.241610738255	8	0.266683616042137	2	5	1	NaN	1	4	0.0534935379151947	0	1	NaN	70	2	7	2	120	220	320	NaN	520	2.27657911647111	1	1	NaN	4474107.5603605	NaN	4474108.5437404	4474109.06028408
14	20	0	0	90	36.1581920903955	36.241610738255	17	0.566702684089541	2	4	5	NaN	1	3	0.0534935379151947	0	1	NaN	71	2	8	2	120	220	320	NaN	520	0.0102803893387318	1	1	NaN	4474112.1441263	NaN	4474113.1275164	4474113.64408521
14	20	0	0	90	36.1581920903955	36.241610738255	19	0.633373588100076	2	5	6	NaN	1	4	0.0534935379151947	0	1	NaN	72	2	9	2	120	220	320	NaN	520	0.367903421632946	1	1	NaN	4474114.4611037	NaN	4474115.4444155	4474115.96098588
14	20	0	0	90	36.1581920903955	36.241610738255	24	0.800050848126411	2	2	2	NaN	1	3	0.0534935379151947	0	1	NaN	73	2	10	2	120	220	320	NaN	520	0.348117968067527	1	1	NaN	4474117.1446244	NaN	4474118.1279929	4474118.64456583
14	20	0	0	90	36.1581920903955	36.241610738255	13	0.433360876068473	2	4	6	NaN	1	5	0.0534935379151947	0	1	NaN	74	2	11	2	120	220	320	NaN	520	0.321651988662779	1	1	NaN	4474119.7948937	NaN	4474120.7782897	4474121.29482421
14	20	0	0	90	36.1581920903955	36.241610738255	13	0.433360876068473	2	5	1	NaN	1	3	0.0534935379151947	0	1	NaN	75	2	12	2	120	220	320	NaN	520	0.232305421493948	1	1	NaN	4474122.4284825	NaN	4474123.4118668	4474123.92841518
14	20	0	0	90	36.1581920903955	36.241610738255	7	0.23334816403687	2	9	2	NaN	2	4	0.0534935379151947	0	1	NaN	76	2	13	2	120	220	320	NaN	520	0.290182247757912	1	0	NaN	4474124.978728	NaN	4474125.9620906	4474126.47869335
14	20	0	0	90	36.1581920903955	36.241610738255	8	0.266683616042137	2	9	4	NaN	2	4	0.0534935379151947	0	1	NaN	77	2	14	2	120	220	320	NaN	520	0.0104087684303522	2	1	NaN	4474127.5790814	NaN	4474128.5623535	4474129.07892593
14	20	0	0	90	36.1581920903955	36.241610738255	25	0.833386300131679	2	12	4	NaN	2	3	0.0534935379151947	0	1	NaN	78	2	15	2	120	220	320	NaN	520	0.292710715904832	2	1	NaN	4474129.8958877	NaN	4474130.8792449	4474131.39581128
14	20	0	0	90	36.1581920903955	36.241610738255	6	0.200012712031603	2	9	1	NaN	2	5	0.0534935379151947	0	1	NaN	79	2	16	2	120	220	320	NaN	520	0.252580968663096	2	1	NaN	4474132.4961211	NaN	4474133.4795127	4474133.99607433
14	20	0	0	90	36.1581920903955	36.241610738255	14	0.46669632807374	2	6	1	NaN	1	3	0.0534935379151947	0	1	NaN	80	2	17	2	120	220	320	NaN	520	0.333601469174027	1	1	NaN	4474135.0630412	NaN	4474136.0464416	4474136.56299323
14	20	0	0	90	36.1581920903955	36.241610738255	12	0.400025424063206	2	8	5	NaN	2	4	0.0534935379151947	0	1	NaN	81	2	18	2	120	220	320	NaN	520	0.843249121680856	2	1	NaN	4474137.7133173	NaN	4474138.6966974	4474139.21326318
14	20	0	0	90	36.1581920903955	36.241610738255	8	0.266683616042137	2	4	5	NaN	1	4	0.0534935379151947	0	1	NaN	82	2	19	2	120	220	320	NaN	520	0.325861621648073	1	1	NaN	4474141.0469367	NaN	4474142.0303533	4474142.54690638
14	20	0	0	90	36.1581920903955	36.241610738255	22	0.733379944115877	2	10	4	NaN	2	3	0.0534935379151947	0	1	NaN	83	2	20	2	120	220	320	NaN	520	0.34848462138325	2	1	NaN	4474143.6805688	NaN	4474144.663953	4474145.18051088
14	20	0	0	90	36.1581920903955	36.241610738255	7	0.23334816403687	2	8	4	NaN	2	4	0.0534935379151947	0	1	NaN	84	2	21	2	120	220	320	NaN	520	0.577281569130719	2	1	NaN	4474146.3474851	NaN	4474147.3308637	4474147.84742963
14	20	0	0	90	36.1581920903955	36.241610738255	9	0.300019068047404	2	4	4	NaN	1	4	0.0534935379151947	0	1	NaN	85	2	22	2	120	220	320	NaN	520	0.285216768272221	1	1	NaN	4474149.2477848	NaN	4474150.231169	4474150.74771593
14	20	0	0	90	36.1581920903955	36.241610738255	14	0.46669632807374	2	8	3	NaN	2	4	0.0534935379151947	0	1	NaN	86	2	23	2	120	220	320	NaN	520	0.485067969188094	1	0	NaN	4474151.8480159	NaN	4474152.8314197	4474153.34797063
14	20	0	0	90	36.1581920903955	36.241610738255	14	0.46669632807374	2	12	5	NaN	2	3	0.0534935379151947	0	1	NaN	87	2	24	2	120	220	320	NaN	520	0.380751021206379	2	1	NaN	4474154.6481442	NaN	4474155.6316895	4474156.14825068
14	20	0	0	90	36.1581920903955	36.241610738255	14	0.46669632807374	2	10	3	NaN	2	5	0.0534935379151947	0	1	NaN	88	2	25	2	120	220	320	NaN	520	0.0103972218930721	2	1	NaN	4474157.3486091	NaN	4474158.3319631	4474158.84852078
14	20	0	0	90	36.1581920903955	36.241610738255	8	0.266683616042137	2	7	4	NaN	2	3	0.0534935379151947	0	1	NaN	89	2	26	2	120	220	320	NaN	520	0.547055321745574	1	0	NaN	4474159.6654712	NaN	4474160.6488534	4474161.16540388
14	20	0	0	90	36.1581920903955	36.241610738255	9	0.300019068047404	2	4	5	NaN	1	4	0.0534935379151947	0	1	NaN	90	2	27	2	120	220	320	NaN	520	0.312817469239235	1	1	NaN	4474162.5157518	NaN	4474163.4991435	4474164.01568693
14	20	0	0	90	36.1581920903955	36.241610738255	13	0.433360876068473	2	3	1	NaN	1	5	0.0534935379151947	0	1	NaN	91	2	28	2	120	220	320	NaN	520	0.53633695282042	1	1	NaN	4474165.1325251	NaN	4474166.1160587	4474166.63261335
14	20	0	0	90	36.1581920903955	36.241610738255	20	0.666709040105343	2	5	4	NaN	1	4	0.0534935379151947	0	1	NaN	92	2	29	2	120	220	320	NaN	520	0.010411768220365	1	1	NaN	4474167.9829714	NaN	4474168.9663546	4474169.48289043
14	20	0	0	90	36.1581920903955	36.241610738255	25	0.833386300131679	2	10	4	NaN	2	5	0.0534935379151947	0	1	NaN	93	2	30	2	120	220	320	NaN	520	0.0104066682979465	2	1	NaN	4474170.299846	NaN	4474171.2832283	4474171.79978843
14	20	0	0	90	36.1581920903955	36.241610738255	0	0	1	8	4	NaN	2	5	0.0534935379151947	0	1	NaN	94	2	31	2	110	210	310	NaN	510	0.380263168364763	2	1	NaN	4474172.616653	NaN	4474173.6001114	4474174.11668083
14	20	0	0	90	36.1581920903955	36.241610738255	24	0.800050848126411	2	3	1	NaN	1	5	0.0534935379151947	0	1	NaN	95	2	32	2	120	220	320	NaN	520	0.143639468587935	2	0	NaN	4474175.3169957	NaN	4474176.3003933	4474176.81693763
14	20	0	0	90	36.1581920903955	36.241610738255	12	0.400025424063206	2	6	6	NaN	1	3	0.0534935379151947	0	1	NaN	96	2	33	2	120	220	320	NaN	520	0.245418968610466	1	1	NaN	4474177.7671675	NaN	4474178.7506366	4474179.26718263
14	20	0	0	90	36.1581920903955	36.241610738255	9	0.300019068047404	2	12	3	NaN	2	4	0.0534935379151947	0	1	NaN	97	2	34	2	120	220	320	NaN	520	0.313519368879497	2	1	NaN	4474180.6674989	NaN	4474181.6508973	4474182.16746743
14	20	0	0	90	36.1581920903955	36.241610738255	18	0.600038136094809	2	8	6	NaN	2	3	0.0534935379151947	0	1	NaN	98	2	35	2	120	220	320	NaN	520	1.7358732689172	2	1	NaN	4474183.3011285	NaN	4474184.2845074	4474184.80105873
14	20	0	0	90	36.1581920903955	36.241610738255	18	0.600038136094809	2	7	6	NaN	2	3	0.0534935379151947	0	1	NaN	99	2	36	2	120	220	320	NaN	520	0.285148722119629	2	1	NaN	4474187.3515121	NaN	4474188.3348974	4474188.85146398
14	20	0	0	90	36.1581920903955	36.241610738255	0	0	1	2	3	NaN	1	4	0.0534935379151947	0	1	NaN	100	2	37	2	110	210	310	NaN	510	0.149101422168314	2	0	NaN	4474189.9518303	NaN	4474190.935171	4474191.45172068
14	20	0	0	90	36.1581920903955	36.241610738255	25	0.833386300131679	2	2	3	NaN	1	3	0.0534935379151947	0	1	NaN	101	2	38	2	120	220	320	NaN	520	0.0104087684303522	1	1	NaN	4474192.418691	NaN	4474193.4020781	4474193.91861813
14	20	0	0	90	36.1581920903955	36.241610738255	17	0.566702684089541	2	2	1	NaN	1	5	0.0534935379151947	0	1	NaN	102	2	39	2	120	220	320	NaN	520	0.25284331664443	2	0	NaN	4474194.7521962	NaN	4474195.7356247	4474196.25217808
14	20	0	0	90	36.1581920903955	36.241610738255	16	0.533367232084274	2	1	3	NaN	1	5	0.0534935379151947	0	1	NaN	103	2	40	2	120	220	320	NaN	520	0.133693921379745	2	0	NaN	4474197.3191288	NaN	4474198.302555	4474198.81911198
14	20	0	0	90	36.1581920903955	36.241610738255	17	0.566702684089541	2	4	4	NaN	1	4	0.0534935379151947	0	1	NaN	104	2	41	2	120	220	320	NaN	520	0.0914871683344245	2	0	NaN	4474199.7694099	NaN	4474200.7527952	4474201.26934443
14	20	0	0	90	36.1581920903955	36.241610738255	10	0.333354520052671	2	1	5	NaN	1	4	0.0534935379151947	0	1	NaN	105	2	42	2	120	220	320	NaN	520	0.0350931687280536	2	0	NaN	4474202.1696445	NaN	4474203.1530243	4474203.66957593
14	20	0	0	90	36.1581920903955	36.241610738255	7	0.23334816403687	2	1	1	NaN	1	5	0.0534935379151947	0	1	NaN	106	2	43	2	120	220	320	NaN	520	0.172880368307233	1	1	NaN	4474204.5197367	NaN	4474205.503265	4474206.01981393
14	20	0	0	90	36.1581920903955	36.241610738255	20	0.666709040105343	2	10	1	NaN	2	3	0.0534935379151947	0	1	NaN	107	2	44	2	120	220	320	NaN	520	0.0103918220847845	2	1	NaN	4474207.4701127	NaN	4474208.4535508	4474208.97010618
14	20	0	0	90	36.1581920903955	36.241610738255	10	0.333354520052671	2	9	3	NaN	2	5	0.0534935379151947	0	1	NaN	108	2	45	2	120	220	320	NaN	520	0.249127968214452	2	1	NaN	4474209.8037013	NaN	4474210.787116	4474211.30366243
14	20	0	0	90	36.1581920903955	36.241610738255	13	0.433360876068473	2	2	4	NaN	1	4	0.0534935379151947	0	1	NaN	109	2	46	2	120	220	320	NaN	520	0.258504968136549	2	0	NaN	4474212.3705054	NaN	4474213.3540276	4474213.87057603
14	20	0	0	90	36.1581920903955	36.241610738255	22	0.733379944115877	2	5	1	NaN	1	3	0.0534935379151947	0	1	NaN	110	2	47	2	120	220	320	NaN	520	0.451541668735445	1	1	NaN	4474214.9375513	NaN	4474215.9209731	4474216.43749593
14	20	0	0	90	36.1581920903955	36.241610738255	18	0.600038136094809	2	2	1	NaN	1	4	0.0534935379151947	0	1	NaN	111	2	48	2	120	220	320	NaN	520	0.0102936942130327	1	1	NaN	4474217.7044269	NaN	4474218.6878761	4474219.20444601
14	20	0	0	90	36.1581920903955	36.241610738255	19	0.633373588100076	2	6	3	NaN	1	5	0.0534935379151947	0	1	NaN	112	2	49	2	120	220	320	NaN	520	1.78334096912295	1	1	NaN	4474220.0213877	NaN	4474221.0047851	4474221.52133573
14	20	0	0	90	36.1581920903955	36.241610738255	0	0	1	11	4	NaN	2	3	0.0534935379151947	0	1	NaN	113	2	50	2	110	210	310	NaN	510	0.643456768244505	2	1	NaN	4474224.1218011	NaN	4474225.1051794	4474225.62174093
14	20	0	0	90	36.1581920903955	36.241610738255	10	0.333354520052671	2	6	1	NaN	1	4	0.0534935379151947	0	1	NaN	114	2	51	2	120	220	320	NaN	520	0.19708311650902	1	1	NaN	4474227.0720784	NaN	4474228.0554861	4474228.57202058
14	20	0	0	90	36.1581920903955	36.241610738255	14	0.46669632807374	2	9	3	NaN	2	3	0.0534935379151947	0	1	NaN	115	2	52	2	120	220	320	NaN	520	0.233192969113588	2	1	NaN	4474229.9556765	NaN	4474230.9390856	4474231.45563763
14	20	0	0	90	36.1581920903955	36.241610738255	10	0.333354520052671	2	5	5	NaN	1	4	0.0534935379151947	0	1	NaN	116	2	53	2	120	220	320	NaN	520	0.251063816249371	1	1	NaN	4474232.5059339	NaN	4474233.4893329	4474234.00588848
14	20	0	0	90	36.1581920903955	36.241610738255	12	0.400025424063206	2	4	6	NaN	1	3	0.0534935379151947	0	1	NaN	117	2	54	2	120	220	320	NaN	520	0.35577502194792	1	1	NaN	4474235.0728808	NaN	4474236.0562473	4474236.57280758
14	20	0	0	90	36.1581920903955	36.241610738255	17	0.566702684089541	2	6	6	NaN	1	5	0.0534935379151947	0	1	NaN	118	2	55	2	120	220	320	NaN	520	0.2537472685799	1	1	NaN	4474237.8231116	NaN	4474238.806519	4474239.32308093
14	20	0	0	90	36.1581920903955	36.241610738255	19	0.633373588100076	2	6	2	NaN	1	5	0.0534935379151947	0	1	NaN	119	2	56	2	120	220	320	NaN	520	0.0104094687849283	1	1	NaN	4474240.3901036	NaN	4474241.3734677	4474241.88999933
14	20	0	0	90	36.1581920903955	36.241610738255	13	0.433360876068473	2	9	4	NaN	2	5	0.0534935379151947	0	1	NaN	120	2	57	2	120	220	320	NaN	520	0.302199568599463	2	1	NaN	4474243.2069501	NaN	4474244.190287	4474244.70694003
14	20	0	0	90	36.1581920903955	36.241610738255	11	0.366689972057939	2	9	3	NaN	2	5	0.0534935379151947	0	1	NaN	121	2	58	2	120	220	320	NaN	520	0.010423768311739	2	1	NaN	4474245.8239182	NaN	4474246.8073223	4474247.32386353
14	20	0	0	90	36.1581920903955	36.241610738255	12	0.400025424063206	2	7	5	NaN	2	5	0.0534935379151947	0	1	NaN	122	2	59	2	120	220	320	NaN	520	0.0104122692719102	2	1	NaN	4474248.1408137	NaN	4474249.1241903	4474249.64076123
14	20	0	0	90	36.1581920903955	36.241610738255	15	0.500031780079007	2	8	3	NaN	2	3	0.0534935379151947	0	1	NaN	123	2	60	2	120	220	320	NaN	520	0.0104104690253735	2	1	NaN	4474250.4576802	NaN	4474251.4410889	4474251.95764963
14	20	0	0	90	36.1581920903955	36.241610738255	10	0.333354520052671	2	1	4	NaN	1	4	0.0534935379151947	0	1	NaN	124	2	61	2	120	220	320	NaN	520	1.71008251607418	1	1	NaN	4474252.7745977	NaN	4474253.7580002	4474254.27455958
14	20	0	0	90	36.1581920903955	36.241610738255	6	0.200012712031603	2	3	5	NaN	1	4	0.0534935379151947	0	1	NaN	125	2	62	2	120	220	320	NaN	520	0.375506168231368	1	1	NaN	4474257.1417147	NaN	4474258.1250816	4474258.64164133
14	20	0	0	90	36.1581920903955	36.241610738255	14	0.46669632807374	2	2	2	NaN	1	3	0.0534935379151947	0	1	NaN	126	2	63	2	120	220	320	NaN	520	0.275493668392301	1	1	NaN	4474259.825295	NaN	4474260.8086845	4474261.32523523
14	20	0	0	90	36.1581920903955	36.241610738255	20	0.666709040105343	2	4	1	NaN	1	3	0.0534935379151947	0	1	NaN	127	3	1	2	120	220	320	NaN	520	0.375306968577206	2	0	NaN	4474301.4293445	NaN	4474302.4127793	4474302.92932653
14	20	0	0	90	36.1581920903955	36.241610738255	11	0.366689972057939	2	6	1	NaN	1	5	0.0534935379151947	0	1	NaN	128	3	2	2	120	220	320	NaN	520	0.323801316320896	1	1	NaN	4474304.1128274	NaN	4474305.0963687	4474305.61291528
14	20	0	0	90	36.1581920903955	36.241610738255	16	0.533367232084274	2	9	4	NaN	2	3	0.0534935379151947	0	1	NaN	129	3	3	2	120	220	320	NaN	520	0.26621306873858	1	0	NaN	4474306.7465582	NaN	4474307.7299665	4474308.24651883
14	20	0	0	90	36.1581920903955	36.241610738255	0	0	1	4	3	NaN	1	4	0.0534935379151947	0	1	NaN	130	3	4	2	110	210	310	NaN	510	0.410861768759787	1	1	NaN	4474309.3301629	NaN	4474310.313551	4474310.83011133
14	20	0	0	90	36.1581920903955	36.241610738255	24	0.800050848126411	2	5	5	NaN	1	5	0.0534935379151947	0	1	NaN	131	3	5	2	120	220	320	NaN	520	0.269192616455257	1	1	NaN	4474312.0637455	NaN	4474313.0472121	4474313.56370018
14	20	0	0	90	36.1581920903955	36.241610738255	11	0.366689972057939	2	4	3	NaN	1	4	0.0534935379151947	0	1	NaN	132	3	6	2	120	220	320	NaN	520	0.20597923733294	1	1	NaN	4474314.6473524	NaN	4474315.6307355	4474316.14729266
14	20	0	0	90	36.1581920903955	36.241610738255	24	0.800050848126411	2	7	6	NaN	2	3	0.0534935379151947	0	1	NaN	133	3	7	2	120	220	320	NaN	520	1.09634116850793	2	1	NaN	4474317.1642472	NaN	4474318.1476821	4474318.66420123
14	20	0	0	90	36.1581920903955	36.241610738255	6	0.200012712031603	2	8	5	NaN	2	5	0.0534935379151947	0	1	NaN	134	3	8	2	120	220	320	NaN	520	0.751682168804109	2	1	NaN	4474320.5812698	NaN	4474321.5646512	4474322.08121073
14	20	0	0	90	36.1581920903955	36.241610738255	6	0.200012712031603	2	11	5	NaN	2	4	0.0534935379151947	0	1	NaN	135	3	9	2	120	220	320	NaN	520	0.148698016069829	2	1	NaN	4474323.6482249	NaN	4474324.6316229	4474325.14817268
14	20	0	0	90	36.1581920903955	36.241610738255	11	0.366689972057939	2	12	5	NaN	2	3	0.0534935379151947	0	1	NaN	136	3	10	2	120	220	320	NaN	520	0.130087521858513	2	1	NaN	4474326.1151434	NaN	4474327.0985273	4474327.61508118
14	20	0	0	90	36.1581920903955	36.241610738255	7	0.23334816403687	2	2	2	NaN	1	4	0.0534935379151947	0	1	NaN	137	3	11	2	120	220	320	NaN	520	0.0241471687331796	1	1	NaN	4474328.5485742	NaN	4474329.5321032	4474330.04865313
14	20	0	0	90	36.1581920903955	36.241610738255	16	0.533367232084274	2	8	3	NaN	2	5	0.0534935379151947	0	1	NaN	138	3	12	2	120	220	320	NaN	520	0.698639868758619	1	0	NaN	4474330.8822783	NaN	4474331.8656669	4474332.38221533
14	20	0	0	90	36.1581920903955	36.241610738255	25	0.833386300131679	2	3	3	NaN	1	5	0.0534935379151947	0	1	NaN	139	3	13	2	120	220	320	NaN	520	0.282060268335044	1	1	NaN	4474333.8992904	NaN	4474334.8826299	4474335.39917913
14	20	0	0	90	36.1581920903955	36.241610738255	23	0.766715396121144	2	1	5	NaN	1	5	0.0534935379151947	0	1	NaN	140	3	14	2	120	220	320	NaN	520	0.385557200759649	1	1	NaN	4474336.4993582	NaN	4474337.4828773	4474337.9994326
14	20	0	0	90	36.1581920903955	36.241610738255	10	0.333354520052671	2	6	3	NaN	1	4	0.0534935379151947	0	1	NaN	141	3	15	2	120	220	320	NaN	520	0.0103920223191381	1	1	NaN	4474339.1997511	NaN	4474340.1831534	4474340.69970438
14	20	0	0	90	36.1581920903955	36.241610738255	8	0.266683616042137	2	3	5	NaN	1	3	0.0534935379151947	0	1	NaN	142	3	16	2	120	220	320	NaN	520	0.0104087693616748	1	1	NaN	4474341.5333312	NaN	4474342.5167161	4474343.03325993
14	20	0	0	90	36.1581920903955	36.241610738255	11	0.366689972057939	2	7	2	NaN	2	5	0.0534935379151947	0	1	NaN	143	3	17	2	120	220	320	NaN	520	0.923813569359481	2	1	NaN	4474344.2335492	NaN	4474345.2169825	4474345.73352883
14	20	0	0	90	36.1581920903955	36.241610738255	20	0.666709040105343	2	1	3	NaN	1	4	0.0534935379151947	0	1	NaN	144	3	18	2	120	220	320	NaN	520	2.20994552131742	1	1	NaN	4474347.4672307	NaN	4474348.4506678	4474348.96718318
14	20	0	0	90	36.1581920903955	36.241610738255	13	0.433360876068473	2	7	1	NaN	2	3	0.0534935379151947	0	1	NaN	145	3	19	2	120	220	320	NaN	520	0.364595368504524	2	1	NaN	4474351.9843479	NaN	4474352.967748	4474353.48429633
14	20	0	0	90	36.1581920903955	36.241610738255	15	0.500031780079007	2	4	4	NaN	1	4	0.0534935379151947	0	1	NaN	146	3	20	2	120	220	320	NaN	520	0.51341996807605	2	0	NaN	4474354.6679564	NaN	4474355.6513268	4474356.16789243
14	20	0	0	90	36.1581920903955	36.241610738255	0	0	1	3	6	NaN	1	4	0.0534935379151947	0	1	NaN	147	3	21	2	110	210	310	NaN	510	0.264065868221223	1	1	NaN	4474357.4848783	NaN	4474358.4682793	4474358.98482743
14	20	0	0	90	36.1581920903955	36.241610738255	12	0.400025424063206	2	10	2	NaN	2	5	0.0534935379151947	0	1	NaN	148	3	22	2	120	220	320	NaN	520	1.34480662178248	1	0	NaN	4474360.0684913	NaN	4474361.0518641	4474361.56841288
14	20	0	0	90	36.1581920903955	36.241610738255	21	0.70004449211061	2	6	2	NaN	1	5	0.0534935379151947	0	1	NaN	149	3	23	2	120	220	320	NaN	520	0.0935951853170991	1	1	NaN	4474363.7355014	NaN	4474364.7189085	4474365.23543171
14	20	0	0	90	36.1581920903955	36.241610738255	14	0.46669632807374	2	9	6	NaN	2	4	0.0534935379151947	0	1	NaN	150	3	24	2	120	220	320	NaN	520	0.332655421458185	2	1	NaN	4474366.1524042	NaN	4474367.1356933	4474367.65234528
14	20	0	0	90	36.1581920903955	36.241610738255	11	0.366689972057939	2	11	4	NaN	2	4	0.0534935379151947	0	1	NaN	151	3	25	2	120	220	320	NaN	520	3.59427296835929	2	1	NaN	4474368.802661	NaN	4474369.7860628	4474370.30261163
14	20	0	0	90	36.1581920903955	36.241610738255	21	0.70004449211061	2	3	3	NaN	1	5	0.0534935379151947	0	1	NaN	152	3	26	2	120	220	320	NaN	520	0.381446868181229	1	1	NaN	4474374.7198981	NaN	4474375.7032933	4474376.21985803
14	20	0	0	90	36.1581920903955	36.241610738255	21	0.70004449211061	2	11	5	NaN	2	4	0.0534935379151947	0	1	NaN	153	3	27	2	120	220	320	NaN	520	0.425047468394041	2	1	NaN	4474377.4201856	NaN	4474378.4035761	4474378.92011863
14	20	0	0	90	36.1581920903955	36.241610738255	14	0.46669632807374	2	4	2	NaN	1	4	0.0534935379151947	0	1	NaN	154	3	28	2	120	220	320	NaN	520	0.4913051687181	1	1	NaN	4474380.1536424	NaN	4474381.1371579	4474381.65372323
14	20	0	0	90	36.1581920903955	36.241610738255	21	0.70004449211061	2	9	2	NaN	2	3	0.0534935379151947	0	1	NaN	155	3	29	2	120	220	320	NaN	520	0.539306769147515	1	0	NaN	4474382.9540407	NaN	4474383.9374741	4474384.45399833
14	20	0	0	90	36.1581920903955	36.241610738255	11	0.366689972057939	2	7	5	NaN	2	3	0.0534935379151947	0	1	NaN	156	3	30	2	120	220	320	NaN	520	0.57678722217679	2	1	NaN	4474385.8043443	NaN	4474386.787722	4474387.30428248
14	20	0	0	90	36.1581920903955	36.241610738255	9	0.300019068047404	2	8	1	NaN	2	3	0.0534935379151947	0	1	NaN	157	3	31	2	120	220	320	NaN	520	0.365373721346259	2	1	NaN	4474388.6879608	NaN	4474389.6713463	4474390.18789558
14	20	0	0	90	36.1581920903955	36.241610738255	0	0	1	10	6	NaN	2	3	0.0534935379151947	0	1	NaN	158	3	32	2	110	210	310	NaN	510	0.033526542596519	2	1	NaN	4474391.3715451	NaN	4474392.3549319	4474392.87148936
14	20	0	0	90	36.1581920903955	36.241610738255	0	0	1	5	5	NaN	1	3	0.0534935379151947	0	1	NaN	159	3	33	2	110	210	310	NaN	510	0.299332853406668	1	1	NaN	4474393.7217619	NaN	4474394.7051896	4474395.22171615
14	20	0	0	90	36.1581920903955	36.241610738255	25	0.833386300131679	2	5	6	NaN	1	3	0.0534935379151947	0	1	NaN	160	3	34	2	120	220	320	NaN	520	0.114608221687376	1	1	NaN	4474396.3386937	NaN	4474397.3220952	4474397.83865018
14	20	0	0	90	36.1581920903955	36.241610738255	22	0.733379944115877	2	4	4	NaN	1	3	0.0534935379151947	0	1	NaN	161	3	35	2	120	220	320	NaN	520	0.200757715851068	1	1	NaN	4474398.7722781	NaN	4474399.7556734	4474400.27221218
14	20	0	0	90	36.1581920903955	36.241610738255	7	0.23334816403687	2	1	1	NaN	1	3	0.0534935379151947	0	1	NaN	162	3	36	2	120	220	320	NaN	520	0.26767869014293	1	1	NaN	4474401.2890444	NaN	4474402.2725773	4474402.78913951
14	20	0	0	90	36.1581920903955	36.241610738255	14	0.46669632807374	2	10	5	NaN	2	3	0.0534935379151947	0	1	NaN	163	3	37	2	120	220	320	NaN	520	0.260404968634248	1	0	NaN	4474403.8727548	NaN	4474404.8561776	4474405.37271093
14	20	0	0	90	36.1581920903955	36.241610738255	15	0.500031780079007	2	7	3	NaN	2	4	0.0534935379151947	0	1	NaN	164	3	38	2	120	220	320	NaN	520	0.301460868678987	2	1	NaN	4474406.4396894	NaN	4474407.4230823	4474407.93963673
14	20	0	0	90	36.1581920903955	36.241610738255	19	0.633373588100076	2	2	1	NaN	1	5	0.0534935379151947	0	1	NaN	165	3	39	2	120	220	320	NaN	520	0.188446016050875	1	1	NaN	4474409.0566097	NaN	4474410.0400594	4474410.55656528
14	20	0	0	90	36.1581920903955	36.241610738255	25	0.833386300131679	2	9	2	NaN	2	5	0.0534935379151947	0	1	NaN	166	3	40	2	120	220	320	NaN	520	0.216176268644631	2	1	NaN	4474411.5569031	NaN	4474412.5402504	4474413.05680413
14	20	0	0	90	36.1581920903955	36.241610738255	13	0.433360876068473	2	6	2	NaN	1	3	0.0534935379151947	0	1	NaN	167	3	41	2	120	220	320	NaN	520	0.169403968378901	1	1	NaN	4474414.5237931	NaN	4474415.5072188	4474416.02376283
14	20	0	0	90	36.1581920903955	36.241610738255	6	0.200012712031603	2	11	3	NaN	2	5	0.0534935379151947	0	1	NaN	168	3	42	2	120	220	320	NaN	520	0.293920068070292	2	1	NaN	4474417.0074121	NaN	4474417.9907913	4474418.50733543
14	20	0	0	90	36.1581920903955	36.241610738255	22	0.733379944115877	2	2	3	NaN	1	4	0.0534935379151947	0	1	NaN	169	3	43	2	120	220	320	NaN	520	0.37339333165437	1	1	NaN	4474419.607654	NaN	4474420.5910518	4474421.10759277
14	20	0	0	90	36.1581920903955	36.241610738255	18	0.600038136094809	2	12	5	NaN	2	5	0.0534935379151947	0	1	NaN	170	3	44	2	120	220	320	NaN	520	0.266130521893501	2	1	NaN	4474422.2912437	NaN	4474423.274633	4474423.79119888
14	20	0	0	90	36.1581920903955	36.241610738255	18	0.600038136094809	2	3	6	NaN	1	3	0.0534935379151947	0	1	NaN	171	3	45	2	120	220	320	NaN	520	0.124506517313421	1	1	NaN	4474425.2248604	NaN	4474426.2083106	4474426.72480668
14	20	0	0	90	36.1581920903955	36.241610738255	8	0.266683616042137	2	4	1	NaN	1	4	0.0534935379151947	0	1	NaN	172	3	46	2	120	220	320	NaN	520	0.170718721114099	1	1	NaN	4474427.6583117	NaN	4474428.6418359	4474429.15839388
14	20	0	0	90	36.1581920903955	36.241610738255	15	0.500031780079007	2	10	3	NaN	2	4	0.0534935379151947	0	1	NaN	173	3	47	2	120	220	320	NaN	520	0.183355421759188	1	0	NaN	4474430.1420533	NaN	4474431.1254124	4474431.64195858
14	20	0	0	90	36.1581920903955	36.241610738255	8	0.266683616042137	2	11	3	NaN	2	4	0.0534935379151947	0	1	NaN	174	3	48	2	120	220	320	NaN	520	0.322710516862571	2	1	NaN	4474432.6422684	NaN	4474433.6256484	4474434.14220228
14	20	0	0	90	36.1581920903955	36.241610738255	16	0.533367232084274	2	7	5	NaN	2	3	0.0534935379151947	0	1	NaN	175	3	49	2	120	220	320	NaN	520	0.305228422395885	2	1	NaN	4474435.2758505	NaN	4474436.2592562	4474436.77579558
14	20	0	0	90	36.1581920903955	36.241610738255	16	0.533367232084274	2	9	4	NaN	2	5	0.0534935379151947	0	1	NaN	176	3	50	2	120	220	320	NaN	520	0.248333221301436	2	1	NaN	4474437.8927863	NaN	4474438.8761674	4474439.39273138
14	20	0	0	90	36.1581920903955	36.241610738255	21	0.70004449211061	2	7	2	NaN	2	4	0.0534935379151947	0	1	NaN	177	3	51	2	120	220	320	NaN	520	0.177722568623722	2	1	NaN	4474440.4597317	NaN	4474441.4430975	4474441.95964953
14	20	0	0	90	36.1581920903955	36.241610738255	19	0.633373588100076	2	11	6	NaN	2	4	0.0534935379151947	0	1	NaN	178	3	52	2	120	220	320	NaN	520	0.829583722166717	2	1	NaN	4474442.9599575	NaN	4474443.9433329	4474444.45989238
14	20	0	0	90	36.1581920903955	36.241610738255	13	0.433360876068473	2	11	5	NaN	2	5	0.0534935379151947	0	1	NaN	179	3	53	2	120	220	320	NaN	520	0.038867668248713	1	0	NaN	4474446.1102538	NaN	4474447.0936524	4474447.61019473
14	20	0	0	90	36.1581920903955	36.241610738255	0	0	1	7	4	NaN	2	5	0.0534935379151947	0	1	NaN	180	3	54	2	110	210	310	NaN	510	1.02499486878514	2	1	NaN	4474448.4604857	NaN	4474449.4438771	4474449.96043423
14	20	0	0	90	36.1581920903955	36.241610738255	9	0.300019068047404	2	9	3	NaN	2	5	0.0534935379151947	0	1	NaN	181	3	55	2	120	220	320	NaN	520	0.36322476901114	2	1	NaN	4474451.7942006	NaN	4474452.7775462	4474453.29409303
14	20	0	0	90	36.1581920903955	36.241610738255	19	0.633373588100076	2	5	3	NaN	1	4	0.0534935379151947	0	1	NaN	182	3	56	2	120	220	320	NaN	520	0.40782874263823	1	1	NaN	4474454.4776048	NaN	4474455.4611809	4474455.97768836
14	20	0	0	90	36.1581920903955	36.241610738255	15	0.500031780079007	2	4	6	NaN	1	4	0.0534935379151947	0	1	NaN	183	3	57	2	120	220	320	NaN	520	0.282481416128576	1	1	NaN	4474457.1945921	NaN	4474458.17807	4474458.69462078
14	20	0	0	90	36.1581920903955	36.241610738255	19	0.633373588100076	2	4	2	NaN	1	4	0.0534935379151947	0	1	NaN	184	3	58	2	120	220	320	NaN	520	0.306236421689391	1	1	NaN	4474459.7949592	NaN	4474460.7783505	4474461.29487518
14	20	0	0	90	36.1581920903955	36.241610738255	25	0.833386300131679	2	9	1	NaN	2	4	0.0534935379151947	0	1	NaN	185	3	59	2	120	220	320	NaN	520	0.705440368503332	2	1	NaN	4474462.4117063	NaN	4474463.395253	4474463.91180353
14	20	0	0	90	36.1581920903955	36.241610738255	25	0.833386300131679	2	11	2	NaN	2	5	0.0534935379151947	0	1	NaN	186	3	60	2	120	220	320	NaN	520	0.0104037215933204	2	1	NaN	4474465.4288179	NaN	4474466.4121955	4474466.92875798
14	20	0	0	90	36.1581920903955	36.241610738255	19	0.633373588100076	2	9	3	NaN	2	5	0.0534935379151947	0	1	NaN	187	3	61	2	120	220	320	NaN	520	0.0103958211839199	2	1	NaN	4474467.7455782	NaN	4474468.7291085	4474469.24565098
14	20	0	0	90	36.1581920903955	36.241610738255	14	0.46669632807374	2	11	2	NaN	2	5	0.0534935379151947	0	1	NaN	188	3	62	2	120	220	320	NaN	520	0.502558168955147	1	0	NaN	4474470.0626147	NaN	4474471.0460188	4474471.56254853
14	20	0	0	90	36.1581920903955	36.241610738255	13	0.433360876068473	2	1	2	NaN	1	3	0.0534935379151947	0	1	NaN	189	3	63	2	120	220	320	NaN	520	0.317504468373954	1	1	NaN	4474472.8795377	NaN	4474473.8629469	4474474.37951253
14	20	0	0	90	36.1581920903955	36.241610738255	8	0.266683616042137	2	9	6	NaN	2	5	0.0534935379151947	0	1	NaN	190	4	1	2	120	220	320	NaN	520	1.11283601634204	2	1	NaN	4474514.500267	NaN	4474515.4836971	4474516.00023908
14	20	0	0	90	36.1581920903955	36.241610738255	9	0.300019068047404	2	2	6	NaN	1	5	0.0534935379151947	0	1	NaN	191	4	2	2	120	220	320	NaN	520	0.47908784262836	2	0	NaN	4474517.9339774	NaN	4474518.9173744	4474519.43392806
14	20	0	0	90	36.1581920903955	36.241610738255	23	0.766715396121144	2	7	1	NaN	2	4	0.0534935379151947	0	1	NaN	192	4	3	2	120	220	320	NaN	520	0.326887274160981	2	1	NaN	4474520.7341181	NaN	4474521.7176385	4474522.23419303
14	20	0	0	90	36.1581920903955	36.241610738255	0	0	1	9	5	NaN	2	4	0.0534935379151947	0	1	NaN	193	4	4	2	110	210	310	NaN	510	0.109337568283081	2	1	NaN	4474523.3678493	NaN	4474524.3512251	4474524.86778513
14	20	0	0	90	36.1581920903955	36.241610738255	9	0.300019068047404	2	8	4	NaN	2	4	0.0534935379151947	0	1	NaN	194	4	5	2	120	220	320	NaN	520	0.0104027688503265	1	0	NaN	4474526.1847775	NaN	4474527.1681622	4474527.68472473
14	20	0	0	90	36.1581920903955	36.241610738255	10	0.333354520052671	2	2	6	NaN	1	3	0.0534935379151947	0	1	NaN	195	4	6	2	120	220	320	NaN	520	0.233276321552694	1	1	NaN	4474528.6683396	NaN	4474529.6517467	4474530.16830768
14	20	0	0	90	36.1581920903955	36.241610738255	12	0.400025424063206	2	3	4	NaN	1	3	0.0534935379151947	0	1	NaN	196	4	7	2	120	220	320	NaN	520	0.330503368750215	2	0	NaN	4474531.2186079	NaN	4474532.2020124	4474532.71855293
14	20	0	0	90	36.1581920903955	36.241610738255	10	0.333354520052671	2	10	6	NaN	2	3	0.0534935379151947	0	1	NaN	197	4	8	2	120	220	320	NaN	520	0.408285922370851	2	1	NaN	4474533.868886	NaN	4474534.8522503	4474535.36881548
14	20	0	0	90	36.1581920903955	36.241610738255	17	0.566702684089541	2	2	5	NaN	1	4	0.0534935379151947	0	1	NaN	198	4	9	2	120	220	320	NaN	520	0.491240369156003	2	0	NaN	4474536.5858127	NaN	4474537.569131	4474538.08574523
14	20	0	0	90	36.1581920903955	36.241610738255	18	0.600038136094809	2	4	3	NaN	1	5	0.0534935379151947	0	1	NaN	199	4	10	2	120	220	320	NaN	520	0.347205768339336	1	1	NaN	4474539.3859356	NaN	4474540.3694677	4474540.88602013
14	20	0	0	90	36.1581920903955	36.241610738255	13	0.433360876068473	2	8	1	NaN	2	3	0.0534935379151947	0	1	NaN	200	4	11	2	120	220	320	NaN	520	0.280535820871592	2	1	NaN	4474542.0530057	NaN	4474543.0364087	4474543.55295058
14	20	0	0	90	36.1581920903955	36.241610738255	23	0.766715396121144	2	10	2	NaN	2	4	0.0534935379151947	0	1	NaN	201	4	12	2	120	220	320	NaN	520	0.216316131874919	1	0	NaN	4474544.6532688	NaN	4474545.6366792	4474546.15321337
14	20	0	0	90	36.1581920903955	36.241610738255	23	0.766715396121144	2	11	4	NaN	2	3	0.0534935379151947	0	1	NaN	202	4	13	2	120	220	320	NaN	520	0.210736367851496	2	1	NaN	4474547.1868569	NaN	4474548.1702394	4474548.68679153
14	20	0	0	90	36.1581920903955	36.241610738255	22	0.733379944115877	2	11	2	NaN	2	5	0.0534935379151947	0	1	NaN	203	4	14	2	120	220	320	NaN	520	0.0102734426036477	2	1	NaN	4474549.7202959	NaN	4474550.7038141	4474551.22037366
14	20	0	0	90	36.1581920903955	36.241610738255	24	0.800050848126411	2	1	6	NaN	1	3	0.0534935379151947	0	1	NaN	204	4	15	2	120	220	320	NaN	520	0.344305116683245	2	0	NaN	4474552.0371721	NaN	4474553.0207137	4474553.53725938
14	20	0	0	90	36.1581920903955	36.241610738255	11	0.366689972057939	2	1	6	NaN	1	3	0.0534935379151947	0	1	NaN	205	4	16	2	120	220	320	NaN	520	1.27802252210677	2	0	NaN	4474554.6874726	NaN	4474555.6709703	4474556.18751908
14	20	0	0	90	36.1581920903955	36.241610738255	23	0.766715396121144	2	5	1	NaN	1	3	0.0534935379151947	0	1	NaN	206	4	17	2	120	220	320	NaN	520	0.365213368088007	1	1	NaN	4474558.287931	NaN	4474559.2713333	4474559.78788203
14	20	0	0	90	36.1581920903955	36.241610738255	16	0.533367232084274	2	2	5	NaN	1	4	0.0534935379151947	0	1	NaN	207	4	18	2	120	220	320	NaN	520	0.609637968242168	1	1	NaN	4474560.971537	NaN	4474561.954921	4474562.47147923
14	20	0	0	90	36.1581920903955	36.241610738255	22	0.733379944115877	2	8	1	NaN	2	4	0.0534935379151947	0	1	NaN	208	4	19	2	120	220	320	NaN	520	0.204673468135297	2	1	NaN	4474563.8884766	NaN	4474564.8719005	4474565.38842773
14	20	0	0	90	36.1581920903955	36.241610738255	19	0.633373588100076	2	10	6	NaN	2	5	0.0534935379151947	0	1	NaN	209	4	20	2	120	220	320	NaN	520	0.864286568947136	2	1	NaN	4474566.4055063	NaN	4474567.3887901	4474567.90534023
14	20	0	0	90	36.1581920903955	36.241610738255	7	0.23334816403687	2	9	5	NaN	2	4	0.0534935379151947	0	1	NaN	210	4	21	2	120	220	320	NaN	520	0.840287516824901	2	1	NaN	4474569.5890425	NaN	4474570.5724332	4474571.08898628
14	20	0	0	90	36.1581920903955	36.241610738255	22	0.733379944115877	2	12	3	NaN	2	4	0.0534935379151947	0	1	NaN	211	4	22	2	120	220	320	NaN	520	0.481986869126558	2	1	NaN	4474572.7393529	NaN	4474573.7227493	4474574.23929253
14	20	0	0	90	36.1581920903955	36.241610738255	23	0.766715396121144	2	4	1	NaN	1	5	0.0534935379151947	0	1	NaN	212	4	23	2	120	220	320	NaN	520	0.225783668458462	1	1	NaN	4474575.5396274	NaN	4474576.5229414	4474577.03957173
14	20	0	0	90	36.1581920903955	36.241610738255	24	0.800050848126411	2	2	2	NaN	1	5	0.0534935379151947	0	1	NaN	213	4	24	2	120	220	320	NaN	520	0.0103917215019464	1	1	NaN	4474578.4059063	NaN	4474579.3899602	4474579.90652578
14	20	0	0	90	36.1581920903955	36.241610738255	6	0.200012712031603	2	7	3	NaN	2	3	0.0534935379151947	0	1	NaN	214	4	25	2	120	220	320	NaN	520	0.529864015989006	2	1	NaN	4474580.7234726	NaN	4474581.7068733	4474582.22340818
14	20	0	0	90	36.1581920903955	36.241610738255	22	0.733379944115877	2	4	3	NaN	1	5	0.0534935379151947	0	1	NaN	215	4	26	2	120	220	320	NaN	520	0.919443321414292	1	1	NaN	4474583.5737571	NaN	4474584.5571752	4474585.07369518
14	20	0	0	90	36.1581920903955	36.241610738255	18	0.600038136094809	2	8	2	NaN	2	4	0.0534935379151947	0	1	NaN	216	4	27	2	120	220	320	NaN	520	0.0104362163692713	2	1	NaN	4474586.8073876	NaN	4474587.7907961	4474588.30734138
14	20	0	0	90	36.1581920903955	36.241610738255	12	0.400025424063206	2	3	2	NaN	1	5	0.0534935379151947	0	1	NaN	217	4	28	2	120	220	320	NaN	520	0.264368494972587	1	1	NaN	4474589.1409747	NaN	4474590.1244469	4474590.64091801
14	20	0	0	90	36.1581920903955	36.241610738255	16	0.533367232084274	2	11	3	NaN	2	3	0.0534935379151947	0	1	NaN	218	4	29	2	120	220	320	NaN	520	0.392766916193068	2	1	NaN	4474591.7245531	NaN	4474592.7079464	4474593.22448878
14	20	0	0	90	36.1581920903955	36.241610738255	12	0.400025424063206	2	8	2	NaN	2	5	0.0534935379151947	0	1	NaN	219	4	30	2	120	220	320	NaN	520	0.0838224682956934	2	1	NaN	4474594.4414917	NaN	4474595.4249118	4474595.94142483
14	20	0	0	90	36.1581920903955	36.241610738255	9	0.300019068047404	2	5	5	NaN	1	3	0.0534935379151947	0	1	NaN	220	4	31	2	120	220	320	NaN	520	0.195554468780756	2	0	NaN	4474596.8417126	NaN	4474597.8251144	4474598.34166473
14	20	0	0	90	36.1581920903955	36.241610738255	18	0.600038136094809	2	11	4	NaN	2	3	0.0534935379151947	0	1	NaN	221	4	32	2	120	220	320	NaN	520	0.134701694361866	2	1	NaN	4474599.358638	NaN	4474600.3420231	4474600.85859101
14	20	0	0	90	36.1581920903955	36.241610738255	6	0.200012712031603	2	6	5	NaN	1	5	0.0534935379151947	0	1	NaN	222	4	33	2	120	220	320	NaN	520	0.604529269039631	1	1	NaN	4474601.8089231	NaN	4474602.7923385	4474603.30882143
14	20	0	0	90	36.1581920903955	36.241610738255	20	0.666709040105343	2	7	1	NaN	2	3	0.0534935379151947	0	1	NaN	223	4	34	2	120	220	320	NaN	520	1.19160226918757	2	1	NaN	4474604.7258376	NaN	4474605.7092233	4474606.22576973
14	20	0	0	90	36.1581920903955	36.241610738255	9	0.300019068047404	2	11	2	NaN	2	5	0.0534935379151947	0	1	NaN	224	4	35	2	120	220	320	NaN	520	0.283228969201446	2	1	NaN	4474608.2261648	NaN	4474609.2095662	4474609.72611803
14	20	0	0	90	36.1581920903955	36.241610738255	17	0.566702684089541	2	5	2	NaN	1	4	0.0534935379151947	0	1	NaN	225	4	36	2	120	220	320	NaN	520	0.242624421603978	1	1	NaN	4474610.826437	NaN	4474611.8098169	4474612.32637638
14	20	0	0	90	36.1581920903955	36.241610738255	15	0.500031780079007	2	12	1	NaN	2	3	0.0534935379151947	0	1	NaN	226	4	37	2	120	220	320	NaN	520	0.25264401640743	2	1	NaN	4474613.3766432	NaN	4474614.3601137	4474614.87661718
14	20	0	0	90	36.1581920903955	36.241610738255	14	0.46669632807374	2	8	4	NaN	2	5	0.0534935379151947	0	1	NaN	227	4	38	2	120	220	320	NaN	520	0.317768268287182	2	1	NaN	4474615.9436203	NaN	4474616.9269771	4474617.44353753
14	20	0	0	90	36.1581920903955	36.241610738255	0	0	1	10	6	NaN	2	3	0.0534935379151947	0	1	NaN	228	4	39	2	110	210	310	NaN	510	0.010410369373858	1	0	NaN	4474618.5771481	NaN	4474619.5605868	4474620.07713693
14	20	0	0	90	36.1581920903955	36.241610738255	0	0	1	9	6	NaN	2	5	0.0534935379151947	0	1	NaN	229	4	40	2	110	210	310	NaN	510	0.600575268268585	2	1	NaN	4474621.2606563	NaN	4474622.2441741	4474622.76072393
14	20	0	0	90	36.1581920903955	36.241610738255	22	0.733379944115877	2	3	6	NaN	1	4	0.0534935379151947	0	1	NaN	230	4	41	2	120	220	320	NaN	520	0.27541096881032	1	1	NaN	4474624.1777489	NaN	4474625.1611337	4474625.67767903
14	20	0	0	90	36.1581920903955	36.241610738255	25	0.833386300131679	2	12	6	NaN	2	5	0.0534935379151947	0	1	NaN	231	4	42	2	120	220	320	NaN	520	0.387187742628157	2	1	NaN	4474626.777997	NaN	4474627.7613897	4474628.27794466
14	20	0	0	90	36.1581920903955	36.241610738255	19	0.633373588100076	2	8	3	NaN	2	5	0.0534935379151947	0	1	NaN	232	4	43	2	120	220	320	NaN	520	1.89510814193636	2	1	NaN	4474629.4782575	NaN	4474630.4616561	4474630.97820456
14	20	0	0	90	36.1581920903955	36.241610738255	17	0.566702684089541	2	12	5	NaN	2	4	0.0534935379151947	0	1	NaN	233	4	44	2	120	220	320	NaN	520	0.286998067982495	1	0	NaN	4474633.6785419	NaN	4474634.6620632	4474635.17860973
14	20	0	0	90	36.1581920903955	36.241610738255	23	0.766715396121144	2	4	5	NaN	1	4	0.0534935379151947	0	1	NaN	234	4	45	2	120	220	320	NaN	520	0.222909116186202	2	0	NaN	4474636.2789239	NaN	4474637.2623198	4474637.77886848
14	20	0	0	90	36.1581920903955	36.241610738255	16	0.533367232084274	2	12	1	NaN	2	4	0.0534935379151947	0	1	NaN	235	4	46	2	120	220	320	NaN	520	0.456774368882179	1	0	NaN	4474638.8125021	NaN	4474639.7959053	4474640.31245253
14	20	0	0	90	36.1581920903955	36.241610738255	19	0.633373588100076	2	2	1	NaN	1	5	0.0534935379151947	0	1	NaN	236	4	47	2	120	220	320	NaN	520	0.202069168910384	1	1	NaN	4474641.5794343	NaN	4474642.5628486	4474643.07939113
14	20	0	0	90	36.1581920903955	36.241610738255	22	0.733379944115877	2	1	3	NaN	1	4	0.0534935379151947	0	1	NaN	237	4	48	2	120	220	320	NaN	520	0.181232721544802	2	0	NaN	4474644.0963664	NaN	4474645.0797512	4474645.59631078
14	20	0	0	90	36.1581920903955	36.241610738255	19	0.633373588100076	2	1	6	NaN	1	5	0.0534935379151947	0	1	NaN	238	4	49	2	120	220	320	NaN	520	0.297266279347241	2	0	NaN	4474646.5965904	NaN	4474647.579999	4474648.09655182
14	20	0	0	90	36.1581920903955	36.241610738255	18	0.600038136094809	2	12	2	NaN	2	5	0.0534935379151947	0	1	NaN	239	4	50	2	120	220	320	NaN	520	0.248107968829572	2	1	NaN	4474649.2135426	NaN	4474650.1969237	4474650.71347333
14	20	0	0	90	36.1581920903955	36.241610738255	0	0	1	11	3	NaN	2	3	0.0534935379151947	0	1	NaN	240	4	51	2	110	210	310	NaN	510	0.0104204686358571	2	1	NaN	4474651.7804502	NaN	4474652.7638431	4474653.28038823
14	20	0	0	90	36.1581920903955	36.241610738255	15	0.500031780079007	2	10	3	NaN	2	5	0.0534935379151947	0	1	NaN	241	4	52	2	120	220	320	NaN	520	0.395977521315217	1	0	NaN	4474654.0973416	NaN	4474655.0807499	4474655.59728728
14	20	0	0	90	36.1581920903955	36.241610738255	8	0.266683616042137	2	3	6	NaN	1	5	0.0534935379151947	0	1	NaN	242	4	53	2	120	220	320	NaN	520	0.207113794982433	2	0	NaN	4474656.8142739	NaN	4474657.7976782	4474658.31422741
14	20	0	0	90	36.1581920903955	36.241610738255	12	0.400025424063206	2	9	1	NaN	2	3	0.0534935379151947	0	1	NaN	243	4	54	2	120	220	320	NaN	520	0.322793221101165	2	1	NaN	4474659.3311956	NaN	4474660.3145762	4474660.83113848
14	20	0	0	90	36.1581920903955	36.241610738255	24	0.800050848126411	2	12	1	NaN	2	3	0.0534935379151947	0	1	NaN	244	4	55	2	120	220	320	NaN	520	0.0104223163798451	2	1	NaN	4474661.9647758	NaN	4474662.9481764	4474663.46472228
14	20	0	0	90	36.1581920903955	36.241610738255	11	0.366689972057939	2	2	2	NaN	1	3	0.0534935379151947	0	1	NaN	245	4	56	2	120	220	320	NaN	520	0.291677394881845	1	1	NaN	4474664.2816726	NaN	4474665.2650666	4474665.78162671
14	20	0	0	90	36.1581920903955	36.241610738255	11	0.366689972057939	2	4	2	NaN	1	3	0.0534935379151947	0	1	NaN	246	4	57	2	120	220	320	NaN	520	0.352793016470969	1	1	NaN	4474666.9485659	NaN	4474667.9319966	4474668.44855538
14	20	0	0	90	36.1581920903955	36.241610738255	22	0.733379944115877	2	12	5	NaN	2	3	0.0534935379151947	0	1	NaN	247	4	58	2	120	220	320	NaN	520	0.16560416854918	2	1	NaN	4474669.6155381	NaN	4474670.5989188	4474671.11547283
14	20	0	0	90	36.1581920903955	36.241610738255	19	0.633373588100076	2	11	5	NaN	2	5	0.0534935379151947	0	1	NaN	248	4	59	2	120	220	320	NaN	520	0.394892917014658	2	1	NaN	4474672.0824413	NaN	4474673.0658413	4474673.58237828
14	20	0	0	90	36.1581920903955	36.241610738255	22	0.733379944115877	2	6	3	NaN	1	5	0.0534935379151947	0	1	NaN	249	4	60	2	120	220	320	NaN	520	0.0861260164529085	1	1	NaN	4474674.7993764	NaN	4474675.7827664	4474676.29931118
14	20	0	0	90	36.1581920903955	36.241610738255	21	0.70004449211061	2	12	2	NaN	2	4	0.0534935379151947	0	1	NaN	250	4	61	2	120	220	320	NaN	520	0.295253968797624	2	1	NaN	4474677.5663195	NaN	4474678.5497116	4474679.06625943
14	20	0	0	90	36.1581920903955	36.241610738255	23	0.766715396121144	2	8	1	NaN	2	4	0.0534935379151947	0	1	NaN	251	4	62	2	120	220	320	NaN	520	12.2381480429322	1	0	NaN	4474680.1832404	NaN	4474681.1666177	4474681.68319266
14	20	0	0	90	36.1581920903955	36.241610738255	22	0.733379944115877	2	2	3	NaN	1	3	0.0534935379151947	0	1	NaN	252	4	63	2	120	220	320	NaN	520	0.359054569154978	2	0	NaN	4474694.7345338	NaN	4474695.7180856	4474696.23460743
14	20	0	0	90	36.1581920903955	36.241610738255	24	0.800050848126411	2	10	4	NaN	2	5	0.0534935379151947	0	1	NaN	253	5	1	2	120	220	320	NaN	520	0.814731968566775	2	1	NaN	4474778.942914	NaN	4474779.9263256	4474780.44287463
14	20	0	0	90	36.1581920903955	36.241610738255	11	0.366689972057939	2	8	2	NaN	2	3	0.0534935379151947	0	1	NaN	254	5	2	2	120	220	320	NaN	520	0.0103948218747973	2	1	NaN	4474782.0765749	NaN	4474783.0599751	4474783.57651148
14	20	0	0	90	36.1581920903955	36.241610738255	7	0.23334816403687	2	4	5	NaN	1	5	0.0534935379151947	0	1	NaN	255	5	3	2	120	220	320	NaN	520	0.219462322071195	1	1	NaN	4474784.4101189	NaN	4474785.3934851	4474785.91008748
14	20	0	0	90	36.1581920903955	36.241610738255	24	0.800050848126411	2	4	3	NaN	1	3	0.0534935379151947	0	1	NaN	256	5	4	2	120	220	320	NaN	520	0.270139021798968	1	1	NaN	4474786.9437236	NaN	4474787.9271226	4474788.44366868
14	20	0	0	90	36.1581920903955	36.241610738255	9	0.300019068047404	2	6	6	NaN	1	5	0.0534935379151947	0	1	NaN	257	5	5	2	120	220	320	NaN	520	0.294138268567622	1	1	NaN	4474789.5273029	NaN	4474790.5107005	4474791.02724763
14	20	0	0	90	36.1581920903955	36.241610738255	9	0.300019068047404	2	7	3	NaN	2	4	0.0534935379151947	0	1	NaN	258	5	6	2	120	220	320	NaN	520	0.238094716332853	2	1	NaN	4474792.1275571	NaN	4474793.1109484	4474793.62750798
14	20	0	0	90	36.1581920903955	36.241610738255	10	0.333354520052671	2	8	5	NaN	2	5	0.0534935379151947	0	1	NaN	259	5	7	2	120	220	320	NaN	520	0.287471131421626	2	1	NaN	4474794.677791	NaN	4474795.6612084	4474796.17775637
14	20	0	0	90	36.1581920903955	36.241610738255	17	0.566702684089541	2	8	4	NaN	2	3	0.0534935379151947	0	1	NaN	260	5	8	2	120	220	320	NaN	520	0.247576368972659	2	1	NaN	4474797.2780772	NaN	4474798.2614535	4474798.77800783
14	20	0	0	90	36.1581920903955	36.241610738255	19	0.633373588100076	2	12	6	NaN	2	3	0.0534935379151947	0	1	NaN	261	5	9	2	120	220	320	NaN	520	0.168970168568194	1	0	NaN	4474799.8449806	NaN	4474800.8283838	4474801.34492513
14	20	0	0	90	36.1581920903955	36.241610738255	21	0.70004449211061	2	5	4	NaN	1	3	0.0534935379151947	0	1	NaN	262	5	10	2	120	220	320	NaN	520	0.144184468314052	2	0	NaN	4474802.645119	NaN	4474803.6286508	4474804.14520873
14	20	0	0	90	36.1581920903955	36.241610738255	7	0.23334816403687	2	8	5	NaN	2	5	0.0534935379151947	0	1	NaN	263	5	11	2	120	220	320	NaN	520	0.0104083688929677	1	0	NaN	4474805.2954859	NaN	4474806.278918	4474806.79546593
14	20	0	0	90	36.1581920903955	36.241610738255	22	0.733379944115877	2	7	5	NaN	2	4	0.0534935379151947	0	1	NaN	264	5	12	2	120	220	320	NaN	520	0.171158721670508	2	1	NaN	4474808.1624746	NaN	4474809.1459017	4474809.66241048
14	20	0	0	90	36.1581920903955	36.241610738255	12	0.400025424063206	2	1	3	NaN	1	5	0.0534935379151947	0	1	NaN	265	5	13	2	120	220	320	NaN	520	0.23157496843487	1	1	NaN	4474810.6460354	NaN	4474811.6294833	4474812.14598633
14	20	0	0	90	36.1581920903955	36.241610738255	9	0.300019068047404	2	1	2	NaN	1	5	0.0534935379151947	0	1	NaN	266	5	14	2	120	220	320	NaN	520	0.265678921714425	1	1	NaN	4474813.1964218	NaN	4474814.1796869	4474814.69624528
14	20	0	0	90	36.1581920903955	36.241610738255	7	0.23334816403687	2	7	5	NaN	2	4	0.0534935379151947	0	1	NaN	267	5	15	2	120	220	320	NaN	520	0.222763978876173	2	1	NaN	4474816.6466032	NaN	4474817.6300127	4474818.14658422
14	20	0	0	90	36.1581920903955	36.241610738255	23	0.766715396121144	2	12	6	NaN	2	4	0.0534935379151947	0	1	NaN	268	5	16	2	120	220	320	NaN	520	0.345581168308854	1	0	NaN	4474819.1802362	NaN	4474820.1636109	4474820.68015903
14	20	0	0	90	36.1581920903955	36.241610738255	17	0.566702684089541	2	3	4	NaN	1	3	0.0534935379151947	0	1	NaN	269	5	17	2	120	220	320	NaN	520	0.166564268991351	2	0	NaN	4474821.8471439	NaN	4474822.8305343	4474823.34708403
14	20	0	0	90	36.1581920903955	36.241610738255	0	0	1	4	1	NaN	1	3	0.0534935379151947	0	1	NaN	270	5	18	2	110	210	310	NaN	510	0.43470502179116	2	0	NaN	4474824.3306527	NaN	4474825.314149	4474825.83066828
14	20	0	0	90	36.1581920903955	36.241610738255	20	0.666709040105343	2	8	2	NaN	2	3	0.0534935379151947	0	1	NaN	271	5	19	2	120	220	320	NaN	520	0.284488315694034	2	1	NaN	4474827.0808545	NaN	4474828.0643765	4474828.58093328
14	20	0	0	90	36.1581920903955	36.241610738255	12	0.400025424063206	2	12	3	NaN	2	4	0.0534935379151947	0	1	NaN	272	5	20	2	120	220	320	NaN	520	0.244469321332872	2	1	NaN	4474829.6811185	NaN	4474830.664637	4474831.18119768
14	20	0	0	90	36.1581920903955	36.241610738255	18	0.600038136094809	2	2	2	NaN	1	4	0.0534935379151947	0	1	NaN	273	5	21	2	120	220	320	NaN	520	0.178643174469471	1	1	NaN	4474832.9147555	NaN	4474833.8982899	4474834.41485043
14	20	0	0	90	36.1581920903955	36.241610738255	17	0.566702684089541	2	9	5	NaN	2	3	0.0534935379151947	0	1	NaN	274	5	22	2	120	220	320	NaN	520	0.334829589352012	2	1	NaN	4474835.4151551	NaN	4474836.3985209	4474836.91509291
14	20	0	0	90	36.1581920903955	36.241610738255	7	0.23334816403687	2	5	3	NaN	1	4	0.0534935379151947	0	1	NaN	275	5	23	2	120	220	320	NaN	520	0.0523082166910172	1	1	NaN	4474838.0654046	NaN	4474839.0488058	4474839.56534368
14	20	0	0	90	36.1581920903955	36.241610738255	25	0.833386300131679	2	8	6	NaN	2	4	0.0534935379151947	0	1	NaN	276	5	24	2	120	220	320	NaN	520	0.693371689878404	2	1	NaN	4474840.4322701	NaN	4474841.4156961	4474841.93225021
14	20	0	0	90	36.1581920903955	36.241610738255	15	0.500031780079007	2	3	1	NaN	1	4	0.0534935379151947	0	1	NaN	277	5	25	2	120	220	320	NaN	520	0.0764686688780785	2	0	NaN	4474843.4492608	NaN	4474844.4326647	4474844.94920853
14	20	0	0	90	36.1581920903955	36.241610738255	20	0.666709040105343	2	11	2	NaN	2	3	0.0534935379151947	0	1	NaN	278	5	26	2	120	220	320	NaN	520	0.292107068002224	2	1	NaN	4474845.8495123	NaN	4474846.8328863	4474847.34944373
14	20	0	0	90	36.1581920903955	36.241610738255	24	0.800050848126411	2	10	2	NaN	2	5	0.0534935379151947	0	1	NaN	279	5	27	2	120	220	320	NaN	520	0.0104125682264566	1	0	NaN	4474848.4664254	NaN	4474849.4498194	4474849.96637013
14	20	0	0	90	36.1581920903955	36.241610738255	20	0.666709040105343	2	9	5	NaN	2	5	0.0534935379151947	0	1	NaN	280	5	28	2	120	220	320	NaN	520	0.0103975208476186	2	1	NaN	4474850.8659946	NaN	4474851.8501006	4474852.36660618
14	20	0	0	90	36.1581920903955	36.241610738255	8	0.266683616042137	2	6	1	NaN	1	4	0.0534935379151947	0	1	NaN	281	5	29	2	120	220	320	NaN	520	0.173281468451023	1	1	NaN	4474853.200221	NaN	4474854.1836005	4474854.70017003
14	20	0	0	90	36.1581920903955	36.241610738255	14	0.46669632807374	2	3	2	NaN	1	4	0.0534935379151947	0	1	NaN	282	5	30	2	120	220	320	NaN	520	0.135805316269398	1	1	NaN	4474856.1338159	NaN	4474857.117232	4474857.63378748
14	20	0	0	90	36.1581920903955	36.241610738255	7	0.23334816403687	2	11	6	NaN	2	4	0.0534935379151947	0	1	NaN	283	5	31	2	120	220	320	NaN	520	1.99221576377749	1	0	NaN	4474858.9174484	NaN	4474859.900856	4474860.41739104
14	20	0	0	90	36.1581920903955	36.241610738255	20	0.666709040105343	2	2	1	NaN	1	5	0.0534935379151947	0	1	NaN	284	5	32	2	120	220	320	NaN	520	0.0104149682447314	1	1	NaN	4474863.234543	NaN	4474864.2179362	4474864.73448763
14	20	0	0	90	36.1581920903955	36.241610738255	17	0.566702684089541	2	1	4	NaN	1	4	0.0534935379151947	0	1	NaN	285	5	33	2	120	220	320	NaN	520	0.0136356689035892	1	1	NaN	4474865.5681051	NaN	4474866.5514795	4474867.06805993
14	20	0	0	90	36.1581920903955	36.241610738255	7	0.23334816403687	2	4	4	NaN	1	4	0.0534935379151947	0	1	NaN	286	5	34	2	120	220	320	NaN	520	0.422696769237518	1	1	NaN	4474868.3350124	NaN	4474869.3184397	4474869.83499193
14	20	0	0	90	36.1581920903955	36.241610738255	22	0.733379944115877	2	5	4	NaN	1	5	0.0534935379151947	0	1	NaN	287	5	35	2	120	220	320	NaN	520	0.352924068458378	2	0	NaN	4474871.068548	NaN	4474872.0520295	4474872.56858723
14	20	0	0	90	36.1581920903955	36.241610738255	6	0.200012712031603	2	4	1	NaN	1	3	0.0534935379151947	0	1	NaN	288	5	36	2	120	220	320	NaN	520	0.278502021916211	1	1	NaN	4474873.7355808	NaN	4474874.7189656	4474875.23552298
14	20	0	0	90	36.1581920903955	36.241610738255	18	0.600038136094809	2	11	4	NaN	2	3	0.0534935379151947	0	1	NaN	289	5	37	2	120	220	320	NaN	520	0.245461973361671	2	1	NaN	4474877.1525403	NaN	4474878.1359655	4474878.65252373
14	20	0	0	90	36.1581920903955	36.241610738255	0	0	1	6	4	NaN	1	3	0.0534935379151947	0	1	NaN	290	5	38	2	110	210	310	NaN	510	2.18224622122943	1	1	NaN	4474879.7195031	NaN	4474880.7028836	4474881.21943448
14	20	0	0	90	36.1581920903955	36.241610738255	6	0.200012712031603	2	5	4	NaN	1	4	0.0534935379151947	0	1	NaN	291	5	39	2	120	220	320	NaN	520	0.449683289043605	1	1	NaN	4474884.2199189	NaN	4474885.203331	4474885.71988651
14	20	0	0	90	36.1581920903955	36.241610738255	25	0.833386300131679	2	5	2	NaN	1	3	0.0534935379151947	0	1	NaN	292	5	40	2	120	220	320	NaN	520	0.289803468622267	1	1	NaN	4474887.2202498	NaN	4474888.2036267	4474888.72017573
14	20	0	0	90	36.1581920903955	36.241610738255	16	0.533367232084274	2	8	5	NaN	2	4	0.0534935379151947	0	1	NaN	293	5	41	2	120	220	320	NaN	520	0.0104378163814545	2	1	NaN	4474889.8204338	NaN	4474890.8038866	4474891.32042458
14	20	0	0	90	36.1581920903955	36.241610738255	18	0.600038136094809	2	7	3	NaN	2	4	0.0534935379151947	0	1	NaN	294	5	42	2	120	220	320	NaN	520	0.420366127043962	1	0	NaN	4474892.1373807	NaN	4474893.1206704	4474893.63732267
14	20	0	0	90	36.1581920903955	36.241610738255	8	0.266683616042137	2	7	6	NaN	2	5	0.0534935379151947	0	1	NaN	295	5	43	2	120	220	320	NaN	520	0.270909768529236	2	1	NaN	4474894.8710532	NaN	4474895.8543813	4474896.37092943
14	20	0	0	90	36.1581920903955	36.241610738255	14	0.46669632807374	2	6	5	NaN	1	3	0.0534935379151947	0	1	NaN	296	5	44	2	120	220	320	NaN	520	0.317454173229635	2	0	NaN	4474897.5045701	NaN	4474898.4879727	4474899.00452043
14	20	0	0	90	36.1581920903955	36.241610738255	24	0.800050848126411	2	11	5	NaN	2	3	0.0534935379151947	0	1	NaN	297	5	45	2	120	220	320	NaN	520	0.259905121289194	2	1	NaN	4474900.138157	NaN	4474901.1215628	4474901.63810988
14	20	0	0	90	36.1581920903955	36.241610738255	17	0.566702684089541	2	10	5	NaN	2	4	0.0534935379151947	0	1	NaN	298	5	46	2	120	220	320	NaN	520	0.332509867846966	1	0	NaN	4474902.7050946	NaN	4474903.6884749	4474904.20502753
14	20	0	0	90	36.1581920903955	36.241610738255	15	0.500031780079007	2	2	3	NaN	1	3	0.0534935379151947	0	1	NaN	299	5	47	2	120	220	320	NaN	520	0.0103924209252	1	1	NaN	4474905.3553448	NaN	4474906.3387605	4474906.85528868
14	20	0	0	90	36.1581920903955	36.241610738255	13	0.433360876068473	2	6	2	NaN	1	5	0.0534935379151947	0	1	NaN	300	5	48	2	120	220	320	NaN	520	0.568470421247184	1	1	NaN	4474907.8055792	NaN	4474908.7889631	4474909.30553598
14	20	0	0	90	36.1581920903955	36.241610738255	24	0.800050848126411	2	6	4	NaN	1	3	0.0534935379151947	0	1	NaN	301	5	49	2	120	220	320	NaN	520	0.236542768776417	1	1	NaN	4474910.6891915	NaN	4474911.672594	4474912.18914683
14	20	0	0	90	36.1581920903955	36.241610738255	25	0.833386300131679	2	1	5	NaN	1	5	0.0534935379151947	0	1	NaN	302	5	50	2	120	220	320	NaN	520	0.22700332198292	1	1	NaN	4474913.522785	NaN	4474914.5062021	4474915.02276358
14	20	0	0	90	36.1581920903955	36.241610738255	21	0.70004449211061	2	1	5	NaN	1	5	0.0534935379151947	0	1	NaN	303	5	51	2	120	220	320	NaN	520	0.309504968114197	1	1	NaN	4474916.0564284	NaN	4474917.039794	4474917.55633813
14	20	0	0	90	36.1581920903955	36.241610738255	11	0.366689972057939	2	3	3	NaN	1	5	0.0534935379151947	0	1	NaN	304	5	52	2	120	220	320	NaN	520	0.204751721583307	1	1	NaN	4474918.6732156	NaN	4474919.6567104	4474920.17326558
14	20	0	0	90	36.1581920903955	36.241610738255	17	0.566702684089541	2	11	1	NaN	2	5	0.0534935379151947	0	1	NaN	305	5	53	2	120	220	320	NaN	520	0.0104070687666535	1	0	NaN	4474921.1902296	NaN	4474922.1736248	4474922.69018123
14	20	0	0	90	36.1581920903955	36.241610738255	6	0.200012712031603	2	4	2	NaN	1	4	0.0534935379151947	0	1	NaN	306	5	54	2	120	220	320	NaN	520	0.242951768450439	1	1	NaN	4474923.5070691	NaN	4474924.4905268	4474925.00707013
14	20	0	0	90	36.1581920903955	36.241610738255	20	0.666709040105343	2	8	3	NaN	2	4	0.0534935379151947	0	1	NaN	307	5	55	2	120	220	320	NaN	520	0.0444323429837823	2	1	NaN	4474926.0573807	NaN	4474927.040829	4474927.55733026
14	20	0	0	90	36.1581920903955	36.241610738255	23	0.766715396121144	2	9	4	NaN	2	4	0.0534935379151947	0	1	NaN	308	5	56	2	120	220	320	NaN	520	0.388717668130994	2	1	NaN	4474928.6409684	NaN	4474929.6243581	4474930.14090453
14	20	0	0	90	36.1581920903955	36.241610738255	13	0.433360876068473	2	5	1	NaN	1	4	0.0534935379151947	0	1	NaN	309	5	57	2	120	220	320	NaN	520	0.336882768198848	2	0	NaN	4474931.3412325	NaN	4474932.3246291	4474932.84117743
14	20	0	0	90	36.1581920903955	36.241610738255	15	0.500031780079007	2	7	1	NaN	2	3	0.0534935379151947	0	1	NaN	310	5	58	2	120	220	320	NaN	520	0.158696669153869	2	1	NaN	4474933.9914221	NaN	4474934.9749366	4474935.49144073
14	20	0	0	90	36.1581920903955	36.241610738255	19	0.633373588100076	2	7	4	NaN	2	3	0.0534935379151947	0	1	NaN	311	5	59	2	120	220	320	NaN	520	0.251358242705464	2	1	NaN	4474936.4583997	NaN	4474937.4417966	4474937.95834536
14	20	0	0	90	36.1581920903955	36.241610738255	19	0.633373588100076	2	3	4	NaN	1	5	0.0534935379151947	0	1	NaN	312	5	60	2	120	220	320	NaN	520	0.010337932035327	1	1	NaN	4474939.3586526	NaN	4474940.3420757	4474940.85863487
14	20	0	0	90	36.1581920903955	36.241610738255	0	0	1	6	5	NaN	1	5	0.0534935379151947	0	1	NaN	313	5	61	2	110	210	310	NaN	510	0.226216258481145	1	1	NaN	4474941.6755778	NaN	4474942.6589619	4474943.17552594
14	20	0	0	90	36.1581920903955	36.241610738255	23	0.766715396121144	2	3	6	NaN	1	4	0.0534935379151947	0	1	NaN	314	5	62	2	120	220	320	NaN	520	0.397050468251109	2	0	NaN	4474944.209173	NaN	4474945.192549	4474945.70912313
14	20	0	0	90	36.1581920903955	36.241610738255	12	0.400025424063206	2	6	4	NaN	1	4	0.0534935379151947	0	1	NaN	315	5	63	2	120	220	320	NaN	520	0.25595286861062	2	0	NaN	4474946.9261317	NaN	4474947.9094845	4474948.42603873
14	20	0	0	90	36.1581920903955	36.241610738255	6	0.200012712031603	2	10	4	NaN	2	5	0.0534935379151947	0	1	NaN	316	6	1	2	120	220	320	NaN	520	0.311504221521318	2	1	NaN	4474990.8303872	NaN	4474991.8138414	4474992.33035518
14	20	0	0	90	36.1581920903955	36.241610738255	23	0.766715396121144	2	6	6	NaN	1	3	0.0534935379151947	0	1	NaN	317	6	2	2	120	220	320	NaN	520	0.310304968617857	1	1	NaN	4474993.4640113	NaN	4474994.4474561	4474994.96394173
14	20	0	0	90	36.1581920903955	36.241610738255	16	0.533367232084274	2	3	2	NaN	1	5	0.0534935379151947	0	1	NaN	318	6	3	2	120	220	320	NaN	520	0.717005368322134	1	1	NaN	4474996.0809251	NaN	4474997.064317	4474997.58086243
14	20	0	0	90	36.1581920903955	36.241610738255	23	0.766715396121144	2	2	4	NaN	1	5	0.0534935379151947	0	1	NaN	319	6	4	2	120	220	320	NaN	520	0.244246021844447	2	0	NaN	4474999.0978708	NaN	4475000.0812585	4475000.59782458
14	20	0	0	90	36.1581920903955	36.241610738255	9	0.300019068047404	2	12	4	NaN	2	3	0.0534935379151947	0	1	NaN	320	6	5	2	120	220	320	NaN	520	0.301593668758869	2	1	NaN	4475001.6481239	NaN	4475002.6315298	4475003.14807433
14	20	0	0	90	36.1581920903955	36.241610738255	6	0.200012712031603	2	3	2	NaN	1	4	0.0534935379151947	0	1	NaN	321	6	6	2	120	220	320	NaN	520	0.284903442487121	2	0	NaN	4475004.2649257	NaN	4475005.2484465	4475005.76500506
14	20	0	0	90	36.1581920903955	36.241610738255	14	0.46669632807374	2	5	6	NaN	1	4	0.0534935379151947	0	1	NaN	322	6	7	2	120	220	320	NaN	520	0.220632216893137	1	1	NaN	4475006.865267	NaN	4475007.8486019	4475008.36524968
14	20	0	0	90	36.1581920903955	36.241610738255	15	0.500031780079007	2	8	1	NaN	2	3	0.0534935379151947	0	1	NaN	323	6	8	2	120	220	320	NaN	520	0.24698156863451	1	0	NaN	4475009.398912	NaN	4475010.3822899	4475010.89883703
14	20	0	0	90	36.1581920903955	36.241610738255	6	0.200012712031603	2	10	3	NaN	2	5	0.0534935379151947	0	1	NaN	324	6	9	2	120	220	320	NaN	520	0.0400004163384438	2	1	NaN	4475011.9656903	NaN	4475012.9492148	4475013.46574948
14	20	0	0	90	36.1581920903955	36.241610738255	19	0.633373588100076	2	8	3	NaN	2	4	0.0534935379151947	0	1	NaN	325	6	10	2	120	220	320	NaN	520	0.241771242581308	2	1	NaN	4475014.3159786	NaN	4475015.2994419	4475015.81598756
14	20	0	0	90	36.1581920903955	36.241610738255	21	0.70004449211061	2	8	5	NaN	2	5	0.0534935379151947	0	1	NaN	326	6	11	2	120	220	320	NaN	520	1.05960756819695	1	0	NaN	4475016.8663104	NaN	4475017.8496955	4475018.36624123
14	20	0	0	90	36.1581920903955	36.241610738255	10	0.333354520052671	2	8	6	NaN	2	5	0.0534935379151947	0	1	NaN	327	6	12	2	120	220	320	NaN	520	0.391095168888569	2	1	NaN	4475020.5666007	NaN	4475021.5500833	4475022.06662013
14	20	0	0	90	36.1581920903955	36.241610738255	20	0.666709040105343	2	12	4	NaN	2	5	0.0534935379151947	0	1	NaN	328	6	13	2	120	220	320	NaN	520	1.25588631629944	1	0	NaN	4475023.7502701	NaN	4475024.733702	4475025.25025728
14	20	0	0	90	36.1581920903955	36.241610738255	21	0.70004449211061	2	3	4	NaN	1	4	0.0534935379151947	0	1	NaN	329	6	14	2	120	220	320	NaN	520	0.010414969176054	2	0	NaN	4475027.7839078	NaN	4475028.7674131	4475029.28397053
14	20	0	0	90	36.1581920903955	36.241610738255	0	0	1	7	6	NaN	2	3	0.0534935379151947	0	1	NaN	330	6	15	2	110	210	310	NaN	510	0.176038268022239	2	1	NaN	4475030.1175971	NaN	4475031.1009941	4475031.61753553
14	20	0	0	90	36.1581920903955	36.241610738255	10	0.333354520052671	2	4	5	NaN	1	3	0.0534935379151947	0	1	NaN	331	6	16	2	120	220	320	NaN	520	1.69310156814754	1	1	NaN	4475032.6011702	NaN	4475033.5845626	4475034.10111403
14	20	0	0	90	36.1581920903955	36.241610738255	20	0.666709040105343	2	10	1	NaN	2	5	0.0534935379151947	0	1	NaN	332	6	17	2	120	220	320	NaN	520	0.24443172197789	2	1	NaN	4475036.6015577	NaN	4475037.5849565	4475038.10151658
14	20	0	0	90	36.1581920903955	36.241610738255	23	0.766715396121144	2	10	6	NaN	2	5	0.0534935379151947	0	1	NaN	333	6	18	2	120	220	320	NaN	520	0.149482468143106	2	1	NaN	4475039.168349	NaN	4475040.1518816	4475040.66842133
14	20	0	0	90	36.1581920903955	36.241610738255	6	0.200012712031603	2	12	2	NaN	2	5	0.0534935379151947	0	1	NaN	334	6	19	2	120	220	320	NaN	520	0.2984977690503	2	1	NaN	4475041.6353793	NaN	4475042.6187857	4475043.13533363
14	20	0	0	90	36.1581920903955	36.241610738255	23	0.766715396121144	2	11	1	NaN	2	4	0.0534935379151947	0	1	NaN	335	6	20	2	120	220	320	NaN	520	0.297503668814898	2	1	NaN	4475044.2521935	NaN	4475045.2357216	4475045.75225403
14	20	0	0	90	36.1581920903955	36.241610738255	0	0	1	3	5	NaN	1	4	0.0534935379151947	0	1	NaN	336	6	21	2	110	210	310	NaN	510	0.0104245161637664	2	0	NaN	4475047.119233	NaN	4475048.1026728	4475048.61920028
14	20	0	0	90	36.1581920903955	36.241610738255	15	0.500031780079007	2	11	6	NaN	2	4	0.0534935379151947	0	1	NaN	337	6	22	2	120	220	320	NaN	520	0.282204369083047	2	1	NaN	4475049.436152	NaN	4475050.4195478	4475050.93609503
14	20	0	0	90	36.1581920903955	36.241610738255	21	0.70004449211061	2	10	6	NaN	2	5	0.0534935379151947	0	1	NaN	338	6	23	2	120	220	320	NaN	520	0.0256614163517952	2	1	NaN	4475052.0364155	NaN	4475053.0198301	4475053.53635078
14	20	0	0	90	36.1581920903955	36.241610738255	25	0.833386300131679	2	6	6	NaN	1	5	0.0534935379151947	0	1	NaN	339	6	24	2	120	220	320	NaN	520	1.53197026904672	1	1	NaN	4475054.3699759	NaN	4475055.3533679	4475055.86991543
14	20	0	0	90	36.1581920903955	36.241610738255	22	0.733379944115877	2	6	4	NaN	1	3	0.0534935379151947	0	1	NaN	340	6	25	2	120	220	320	NaN	520	0.513925869017839	1	1	NaN	4475058.2203399	NaN	4475059.2037516	4475059.72030393
14	20	0	0	90	36.1581920903955	36.241610738255	0	0	1	8	6	NaN	2	3	0.0534935379151947	0	1	NaN	341	6	26	2	110	210	310	NaN	510	0.280907422304153	2	1	NaN	4475061.0371533	NaN	4475062.0206753	4475062.53724508
14	20	0	0	90	36.1581920903955	36.241610738255	14	0.46669632807374	2	1	2	NaN	1	3	0.0534935379151947	0	1	NaN	342	6	27	2	120	220	320	NaN	520	0.0964045217260718	1	1	NaN	4475063.6375619	NaN	4475064.6209458	4475065.13749128
14	20	0	0	90	36.1581920903955	36.241610738255	17	0.566702684089541	2	5	2	NaN	1	3	0.0534935379151947	0	1	NaN	343	6	28	2	120	220	320	NaN	520	0.255637468770146	2	0	NaN	4475066.0544676	NaN	4475067.0378559	4475067.55439533
14	20	0	0	90	36.1581920903955	36.241610738255	0	0	1	1	4	NaN	1	4	0.0534935379151947	0	1	NaN	344	6	29	2	110	210	310	NaN	510	0.47271116822958	2	0	NaN	4475068.6213772	NaN	4475069.6048335	4475070.12131813
14	20	0	0	90	36.1581920903955	36.241610738255	12	0.400025424063206	2	11	2	NaN	2	4	0.0534935379151947	0	1	NaN	345	6	30	2	120	220	320	NaN	520	0.192874662578106	2	1	NaN	4475071.4049958	NaN	4475072.38837	4475072.90491894
14	20	0	0	90	36.1581920903955	36.241610738255	24	0.800050848126411	2	11	6	NaN	2	5	0.0534935379151947	0	1	NaN	346	6	31	2	120	220	320	NaN	520	0.30918007902801	2	1	NaN	4475073.9050866	NaN	4475074.8886242	4475075.40517642
14	20	0	0	90	36.1581920903955	36.241610738255	7	0.23334816403687	2	11	2	NaN	2	5	0.0534935379151947	0	1	NaN	347	6	32	2	120	220	320	NaN	520	0.283889967948198	2	1	NaN	4475076.5221606	NaN	4475077.5055478	4475078.02209163
14	20	0	0	90	36.1581920903955	36.241610738255	9	0.300019068047404	2	10	5	NaN	2	5	0.0534935379151947	0	1	NaN	348	6	33	2	120	220	320	NaN	520	0.963904068805277	1	0	NaN	4475079.1225092	NaN	4475080.1058068	4475080.62235003
14	20	0	0	90	36.1581920903955	36.241610738255	7	0.23334816403687	2	6	3	NaN	1	3	0.0534935379151947	0	1	NaN	349	6	34	2	120	220	320	NaN	520	0.775293221697211	1	1	NaN	4475082.6227139	NaN	4475083.6061346	4475084.12269938
14	20	0	0	90	36.1581920903955	36.241610738255	6	0.200012712031603	2	7	3	NaN	2	3	0.0534935379151947	0	1	NaN	350	6	35	2	120	220	320	NaN	520	0.323705022223294	1	0	NaN	4475085.7065436	NaN	4475086.6897843	4475087.20632708
14	20	0	0	90	36.1581920903955	36.241610738255	23	0.766715396121144	2	7	4	NaN	2	5	0.0534935379151947	0	1	NaN	351	6	36	2	120	220	320	NaN	520	0.298034221865237	2	1	NaN	4475088.3399686	NaN	4475089.3233456	4475089.83992408
14	20	0	0	90	36.1581920903955	36.241610738255	22	0.733379944115877	2	11	1	NaN	2	4	0.0534935379151947	0	1	NaN	352	6	37	2	120	220	320	NaN	520	0.329060168936849	2	1	NaN	4475090.9568996	NaN	4475091.9401979	4475092.45684473
14	20	0	0	90	36.1581920903955	36.241610738255	7	0.23334816403687	2	2	4	NaN	1	4	0.0534935379151947	0	1	NaN	353	6	38	2	120	220	320	NaN	520	1.74322096910328	1	1	NaN	4475093.6071775	NaN	4475094.5905521	4475095.10710863
14	20	0	0	90	36.1581920903955	36.241610738255	9	0.300019068047404	2	11	3	NaN	2	3	0.0534935379151947	0	1	NaN	354	6	39	2	120	220	320	NaN	520	1.38015482202172	2	1	NaN	4475097.6743266	NaN	4475098.6576649	4475099.17417848
14	20	0	0	90	36.1581920903955	36.241610738255	9	0.300019068047404	2	2	6	NaN	1	3	0.0534935379151947	0	1	NaN	355	6	40	2	120	220	320	NaN	520	0.832138469442725	2	0	NaN	4475101.357799	NaN	4475102.3413113	4475102.85786473
14	20	0	0	90	36.1581920903955	36.241610738255	21	0.70004449211061	2	2	5	NaN	1	5	0.0534935379151947	0	1	NaN	356	6	41	2	120	220	320	NaN	520	0.506528657861054	1	1	NaN	4475104.4915986	NaN	4475105.4749622	4475105.99150474
14	20	0	0	90	36.1581920903955	36.241610738255	22	0.733379944115877	2	7	5	NaN	2	4	0.0534935379151947	0	1	NaN	357	6	42	2	120	220	320	NaN	520	0.30549093708396	2	1	NaN	4475107.3085093	NaN	4475108.2918864	4475108.80844986
14	20	0	0	90	36.1581920903955	36.241610738255	13	0.433360876068473	2	3	3	NaN	1	5	0.0534935379151947	0	1	NaN	358	6	43	2	120	220	320	NaN	520	0.184560067951679	1	1	NaN	4475109.9254644	NaN	4475110.9088294	4475111.42537303
14	20	0	0	90	36.1581920903955	36.241610738255	17	0.566702684089541	2	10	6	NaN	2	3	0.0534935379151947	0	1	NaN	359	6	44	2	120	220	320	NaN	520	0.245081122033298	1	0	NaN	4475112.8090454	NaN	4475113.792448	4475114.30900498
14	20	0	0	90	36.1581920903955	36.241610738255	9	0.300019068047404	2	3	2	NaN	1	5	0.0534935379151947	0	1	NaN	360	6	45	2	120	220	320	NaN	520	0.614900467917323	1	1	NaN	4475115.3593388	NaN	4475116.3427103	4475116.85924193
14	20	0	0	90	36.1581920903955	36.241610738255	7	0.23334816403687	2	3	6	NaN	1	5	0.0534935379151947	0	1	NaN	361	6	46	2	120	220	320	NaN	520	0.28187617380172	1	1	NaN	4475118.2761426	NaN	4475119.2596421	4475119.77620183
14	20	0	0	90	36.1581920903955	36.241610738255	25	0.833386300131679	2	1	6	NaN	1	3	0.0534935379151947	0	1	NaN	362	6	47	2	120	220	320	NaN	520	0.433726768940687	2	0	NaN	4475120.8765312	NaN	4475121.8598991	4475122.37644333
14	20	0	0	90	36.1581920903955	36.241610738255	12	0.400025424063206	2	5	2	NaN	1	4	0.0534935379151947	0	1	NaN	363	6	48	2	120	220	320	NaN	520	0.171304021961987	1	1	NaN	4475123.6267653	NaN	4475124.6101795	4475125.12672488
14	20	0	0	90	36.1581920903955	36.241610738255	22	0.733379944115877	2	9	5	NaN	2	4	0.0534935379151947	0	1	NaN	364	6	49	2	120	220	320	NaN	520	1.08829406928271	2	1	NaN	4475126.1103635	NaN	4475127.0937474	4475127.61029773
14	20	0	0	90	36.1581920903955	36.241610738255	8	0.266683616042137	2	10	2	NaN	2	3	0.0534935379151947	0	1	NaN	365	6	50	2	120	220	320	NaN	520	0.268667516298592	1	0	NaN	4475129.9773696	NaN	4475130.9607714	4475131.47734078
14	20	0	0	90	36.1581920903955	36.241610738255	18	0.600038136094809	2	9	3	NaN	2	3	0.0534935379151947	0	1	NaN	366	6	51	2	120	220	320	NaN	520	0.117829568684101	1	0	NaN	4475132.5441888	NaN	4475133.5277507	4475134.04426473
14	20	0	0	90	36.1581920903955	36.241610738255	11	0.366689972057939	2	10	3	NaN	2	5	0.0534935379151947	0	1	NaN	367	6	52	2	120	220	320	NaN	520	0.15626492165029	2	1	NaN	4475135.1779388	NaN	4475136.1613079	4475136.67786218
14	20	0	0	90	36.1581920903955	36.241610738255	6	0.200012712031603	2	8	3	NaN	2	3	0.0534935379151947	0	1	NaN	368	6	53	2	120	220	320	NaN	520	0.49751147441566	2	1	NaN	4475137.6448262	NaN	4475138.6282127	4475139.14476983
14	20	0	0	90	36.1581920903955	36.241610738255	21	0.70004449211061	2	6	1	NaN	1	5	0.0534935379151947	0	1	NaN	369	6	54	2	120	220	320	NaN	520	0.456650663167238	2	0	NaN	4475140.4617658	NaN	4475141.445187	4475141.96170154
14	20	0	0	90	36.1581920903955	36.241610738255	8	0.266683616042137	2	2	1	NaN	1	4	0.0534935379151947	0	1	NaN	370	6	55	2	120	220	320	NaN	520	0.113434916362166	2	0	NaN	4475143.2286886	NaN	4475144.2120986	4475144.72864418
14	20	0	0	90	36.1581920903955	36.241610738255	23	0.766715396121144	2	6	4	NaN	1	4	0.0534935379151947	0	1	NaN	371	6	56	2	120	220	320	NaN	520	0.215832721441984	1	1	NaN	4475145.6622728	NaN	4475146.6456725	4475147.16221718
14	20	0	0	90	36.1581920903955	36.241610738255	13	0.433360876068473	2	11	1	NaN	2	5	0.0534935379151947	0	1	NaN	372	6	57	2	120	220	320	NaN	520	0.0104085681959987	2	1	NaN	4475148.1791223	NaN	4475149.1625817	4475149.67912683
14	20	0	0	90	36.1581920903955	36.241610738255	10	0.333354520052671	2	5	6	NaN	1	4	0.0534935379151947	0	1	NaN	373	6	58	2	120	220	320	NaN	520	0.0620519686490297	1	1	NaN	4475150.4960731	NaN	4475151.4794756	4475151.99603253
14	20	0	0	90	36.1581920903955	36.241610738255	13	0.433360876068473	2	10	1	NaN	2	3	0.0534935379151947	0	1	NaN	374	6	59	2	120	220	320	NaN	520	0.295118316076696	2	1	NaN	4475152.8629918	NaN	4475153.8463731	4475154.36292048
14	20	0	0	90	36.1581920903955	36.241610738255	20	0.666709040105343	2	2	6	NaN	1	5	0.0534935379151947	0	1	NaN	375	6	60	2	120	220	320	NaN	520	0.109570968896151	1	1	NaN	4475155.8966014	NaN	4475156.8800026	4475157.39656073
14	20	0	0	90	36.1581920903955	36.241610738255	21	0.70004449211061	2	4	4	NaN	1	4	0.0534935379151947	0	1	NaN	376	6	61	2	120	220	320	NaN	520	0.315846068784595	2	0	NaN	4475158.9302298	NaN	4475159.9136295	4475160.43019213
14	20	0	0	90	36.1581920903955	36.241610738255	21	0.70004449211061	2	11	5	NaN	2	5	0.0534935379151947	0	1	NaN	377	6	62	2	120	220	320	NaN	520	0.514931816607714	2	1	NaN	4475161.547031	NaN	4475162.530578	4475163.04710498
14	20	0	0	90	36.1581920903955	36.241610738255	16	0.533367232084274	2	1	3	NaN	1	4	0.0534935379151947	0	1	NaN	378	6	63	2	120	220	320	NaN	520	0.337346469052136	1	1	NaN	4475164.3807703	NaN	4475165.3641721	4475165.88072223
14	20	0	0	90	36.1581920903955	36.241610738255	10	0.333354520052671	2	7	1	NaN	2	4	0.0534935379151947	0	1	NaN	379	7	1	2	120	220	320	NaN	520	0.292284668423235	2	1	NaN	4475219.9862221	NaN	4475220.9696361	4475221.48617503
14	20	0	0	90	36.1581920903955	36.241610738255	9	0.300019068047404	2	3	5	NaN	1	4	0.0534935379151947	0	1	NaN	380	7	2	2	120	220	320	NaN	520	0.107890215702355	1	1	NaN	4475222.5864207	NaN	4475223.5698885	4475224.08642848
14	20	0	0	90	36.1581920903955	36.241610738255	19	0.633373588100076	2	3	5	NaN	1	3	0.0534935379151947	0	1	NaN	381	7	3	2	120	220	320	NaN	520	1.02472036890686	1	1	NaN	4475225.4534047	NaN	4475226.4368366	4475226.95338323
14	20	0	0	90	36.1581920903955	36.241610738255	13	0.433360876068473	2	2	6	NaN	1	3	0.0534935379151947	0	1	NaN	382	7	4	2	120	220	320	NaN	520	0.0971520161256194	2	0	NaN	4475229.2371179	NaN	4475230.2205426	4475230.73708288
14	20	0	0	90	36.1581920903955	36.241610738255	9	0.300019068047404	2	7	2	NaN	2	3	0.0534935379151947	0	1	NaN	383	7	5	2	120	220	320	NaN	520	0.200141516514122	2	1	NaN	4475231.654031	NaN	4475232.6374549	4475233.15399118
14	20	0	0	90	36.1581920903955	36.241610738255	15	0.500031780079007	2	5	3	NaN	1	3	0.0534935379151947	0	1	NaN	384	7	6	2	120	220	320	NaN	520	0.173308468423784	2	0	NaN	4475234.520863	NaN	4475235.504395	4475236.02093503
14	20	0	0	90	36.1581920903955	36.241610738255	25	0.833386300131679	2	7	2	NaN	2	3	0.0534935379151947	0	1	NaN	385	7	7	2	120	220	320	NaN	520	0.392208120785654	2	1	NaN	4475237.2378044	NaN	4475238.2212814	4475238.73786868
14	20	0	0	90	36.1581920903955	36.241610738255	24	0.800050848126411	2	12	3	NaN	2	3	0.0534935379151947	0	1	NaN	386	7	8	2	120	220	320	NaN	520	0.771178921684623	1	0	NaN	4475240.3549119	NaN	4475241.3382952	4475241.85484448
14	20	0	0	90	36.1581920903955	36.241610738255	24	0.800050848126411	2	9	6	NaN	2	3	0.0534935379151947	0	1	NaN	387	7	9	2	120	220	320	NaN	520	0.0102868899703026	2	1	NaN	4475243.4385713	NaN	4475244.4219387	4475244.93848771
14	20	0	0	90	36.1581920903955	36.241610738255	16	0.533367232084274	2	11	6	NaN	2	4	0.0534935379151947	0	1	NaN	388	7	10	2	120	220	320	NaN	520	0.0104075688868761	2	1	NaN	4475245.7554436	NaN	4475246.7388231	4475247.25537933
14	20	0	0	90	36.1581920903955	36.241610738255	24	0.800050848126411	2	1	2	NaN	1	4	0.0534935379151947	0	1	NaN	389	7	11	2	120	220	320	NaN	520	0.26196956820786	2	0	NaN	4475248.0723313	NaN	4475249.055724	4475249.57227663
14	20	0	0	90	36.1581920903955	36.241610738255	21	0.70004449211061	2	5	5	NaN	1	3	0.0534935379151947	0	1	NaN	390	7	12	2	120	220	320	NaN	520	0.262891021557152	1	1	NaN	4475250.639264	NaN	4475251.6227278	4475252.13919568
14	20	0	0	90	36.1581920903955	36.241610738255	25	0.833386300131679	2	8	6	NaN	2	4	0.0534935379151947	0	1	NaN	391	7	13	2	120	220	320	NaN	520	1.59138356801122	2	1	NaN	4475253.2228247	NaN	4475254.2062267	4475254.72278143
14	20	0	0	90	36.1581920903955	36.241610738255	14	0.46669632807374	2	5	3	NaN	1	3	0.0534935379151947	0	1	NaN	392	7	14	2	120	220	320	NaN	520	0.203711221925914	1	1	NaN	4475257.1232236	NaN	4475258.1066074	4475258.62316498
14	20	0	0	90	36.1581920903955	36.241610738255	14	0.46669632807374	2	7	2	NaN	2	5	0.0534935379151947	0	1	NaN	393	7	15	2	120	220	320	NaN	520	0.0104558113962412	1	0	NaN	4475260.0234695	NaN	4475261.0068981	4475261.52344239
14	20	0	0	90	36.1581920903955	36.241610738255	0	0	1	12	3	NaN	2	5	0.0534935379151947	0	1	NaN	394	7	16	2	110	210	310	NaN	510	0.0104055209085345	2	1	NaN	4475262.3570773	NaN	4475263.3404439	4475263.85701248
14	20	0	0	90	36.1581920903955	36.241610738255	23	0.766715396121144	2	8	6	NaN	2	3	0.0534935379151947	0	1	NaN	395	7	17	2	120	220	320	NaN	520	0.388457716442645	2	1	NaN	4475264.6739192	NaN	4475265.6573302	4475266.17389618
14	20	0	0	90	36.1581920903955	36.241610738255	9	0.300019068047404	2	9	6	NaN	2	4	0.0534935379151947	0	1	NaN	396	7	18	2	120	220	320	NaN	520	0.0400414681062102	2	1	NaN	4475267.374228	NaN	4475268.3576016	4475268.87417183
14	20	0	0	90	36.1581920903955	36.241610738255	11	0.366689972057939	2	5	3	NaN	1	5	0.0534935379151947	0	1	NaN	397	7	19	2	120	220	320	NaN	520	0.0104368161410093	2	0	NaN	4475269.7244353	NaN	4475270.7078443	4475271.22439008
14	20	0	0	90	36.1581920903955	36.241610738255	7	0.23334816403687	2	12	4	NaN	2	4	0.0534935379151947	0	1	NaN	398	7	20	2	120	220	320	NaN	520	1.30130536854267	2	1	NaN	4475272.0413649	NaN	4475273.0247406	4475273.54128913
14	20	0	0	90	36.1581920903955	36.241610738255	0	0	1	12	2	NaN	2	3	0.0534935379151947	0	1	NaN	399	7	21	2	110	210	310	NaN	510	0.140305768698454	2	1	NaN	4475275.6583703	NaN	4475276.6417616	4475277.15831713
14	20	0	0	90	36.1581920903955	36.241610738255	7	0.23334816403687	2	5	1	NaN	1	3	0.0534935379151947	0	1	NaN	400	7	22	2	120	220	320	NaN	520	0.0656839273869991	2	0	NaN	4475278.1086061	NaN	4475279.0920097	4475279.60856207
14	20	0	0	90	36.1581920903955	36.241610738255	6	0.200012712031603	2	9	2	NaN	2	4	0.0534935379151947	0	1	NaN	401	7	23	2	120	220	320	NaN	520	0.289995868690312	2	1	NaN	4475280.4921861	NaN	4475281.4755691	4475281.99212373
14	20	0	0	90	36.1581920903955	36.241610738255	17	0.566702684089541	2	9	5	NaN	2	4	0.0534935379151947	0	1	NaN	402	7	24	2	120	220	320	NaN	520	0.0898456685245037	2	1	NaN	4475283.0924267	NaN	4475284.07583	4475284.59238293
14	20	0	0	90	36.1581920903955	36.241610738255	14	0.46669632807374	2	1	1	NaN	1	5	0.0534935379151947	0	1	NaN	403	7	25	2	120	220	320	NaN	520	0.0735131157562137	2	0	NaN	4475285.4925224	NaN	4475286.4760629	4475286.99260688
14	20	0	0	90	36.1581920903955	36.241610738255	20	0.666709040105343	2	6	3	NaN	1	3	0.0534935379151947	0	1	NaN	404	7	26	2	120	220	320	NaN	520	0.594651968218386	1	1	NaN	4475288.2595752	NaN	4475289.2430038	4475289.75954643
14	20	0	0	90	36.1581920903955	36.241610738255	25	0.833386300131679	2	7	6	NaN	2	5	0.0534935379151947	0	1	NaN	405	7	27	2	120	220	320	NaN	520	1.42225016839802	2	1	NaN	4475291.159907	NaN	4475292.1432858	4475292.65983703
14	20	0	0	90	36.1581920903955	36.241610738255	7	0.23334816403687	2	6	2	NaN	1	4	0.0534935379151947	0	1	NaN	406	7	28	2	120	220	320	NaN	520	0.12902816850692	1	1	NaN	4475295.2936372	NaN	4475296.2770151	4475296.79357273
14	20	0	0	90	36.1581920903955	36.241610738255	17	0.566702684089541	2	1	4	NaN	1	4	0.0534935379151947	0	1	NaN	407	7	29	2	120	220	320	NaN	520	0.276129868812859	1	1	NaN	4475298.2104507	NaN	4475299.1939546	4475299.71053083
14	20	0	0	90	36.1581920903955	36.241610738255	25	0.833386300131679	2	3	1	NaN	1	3	0.0534935379151947	0	1	NaN	408	7	30	2	120	220	320	NaN	520	0.302424668334424	2	0	NaN	4475301.1441717	NaN	4475302.1275933	4475302.64415063
14	20	0	0	90	36.1581920903955	36.241610738255	10	0.333354520052671	2	3	3	NaN	1	3	0.0534935379151947	0	1	NaN	409	7	31	2	120	220	320	NaN	520	1.34133736882359	1	1	NaN	4475303.7611315	NaN	4475304.7445088	4475305.26107333
14	20	0	0	90	36.1581920903955	36.241610738255	25	0.833386300131679	2	4	2	NaN	1	5	0.0534935379151947	0	1	NaN	410	7	32	2	120	220	320	NaN	520	0.0103885224089026	1	1	NaN	4475307.4114725	NaN	4475308.3948794	4475308.91143798
14	20	0	0	90	36.1581920903955	36.241610738255	25	0.833386300131679	2	4	6	NaN	1	3	0.0534935379151947	0	1	NaN	411	7	33	2	120	220	320	NaN	520	0.917207068763673	1	1	NaN	4475309.7449208	NaN	4475310.7284483	4475311.24499833
14	20	0	0	90	36.1581920903955	36.241610738255	7	0.23334816403687	2	10	4	NaN	2	3	0.0534935379151947	0	1	NaN	412	7	34	2	120	220	320	NaN	520	0.0103898216038942	2	1	NaN	4475313.4119403	NaN	4475314.3954822	4475314.91202108
14	20	0	0	90	36.1581920903955	36.241610738255	15	0.500031780079007	2	1	1	NaN	1	5	0.0534935379151947	0	1	NaN	413	7	35	2	120	220	320	NaN	520	1.56492487434298	1	1	NaN	4475315.7456326	NaN	4475316.7290369	4475317.24558753
14	20	0	0	90	36.1581920903955	36.241610738255	17	0.566702684089541	2	7	3	NaN	2	5	0.0534935379151947	0	1	NaN	414	7	36	2	120	220	320	NaN	520	0.0910154161974788	2	1	NaN	4475319.9793753	NaN	4475320.9627784	4475321.47932428
14	20	0	0	90	36.1581920903955	36.241610738255	8	0.266683616042137	2	5	2	NaN	1	3	0.0534935379151947	0	1	NaN	415	7	37	2	120	220	320	NaN	520	0.0104097686707973	1	1	NaN	4475322.3796108	NaN	4475323.3630204	4475323.87956543
14	20	0	0	90	36.1581920903955	36.241610738255	18	0.600038136094809	2	10	3	NaN	2	3	0.0534935379151947	0	1	NaN	416	7	38	2	120	220	320	NaN	520	0.218827121891081	1	0	NaN	4475325.1632043	NaN	4475326.1466021	4475326.66317188
14	20	0	0	90	36.1581920903955	36.241610738255	13	0.433360876068473	2	12	6	NaN	2	4	0.0534935379151947	0	1	NaN	417	7	39	2	120	220	320	NaN	520	0.286044369451702	2	1	NaN	4475328.080148	NaN	4475329.0635816	4475329.58013093
14	20	0	0	90	36.1581920903955	36.241610738255	8	0.266683616042137	2	1	6	NaN	1	3	0.0534935379151947	0	1	NaN	418	7	40	2	120	220	320	NaN	520	0.010403168387711	2	0	NaN	4475331.1305664	NaN	4475332.1138828	4475332.63042123
14	20	0	0	90	36.1581920903955	36.241610738255	8	0.266683616042137	2	8	2	NaN	2	5	0.0534935379151947	0	1	NaN	419	7	41	2	120	220	320	NaN	520	0.167056668549776	1	0	NaN	4475333.4474035	NaN	4475334.4307721	4475334.94732473
14	20	0	0	90	36.1581920903955	36.241610738255	11	0.366689972057939	2	2	3	NaN	1	3	0.0534935379151947	0	1	NaN	420	7	42	2	120	220	320	NaN	520	0.603191521950066	1	1	NaN	4475335.9308494	NaN	4475336.9143493	4475337.43090598
14	20	0	0	90	36.1581920903955	36.241610738255	18	0.600038136094809	2	1	5	NaN	1	4	0.0534935379151947	0	1	NaN	421	7	43	2	120	220	320	NaN	520	0.0104339681565762	1	1	NaN	4475338.8479155	NaN	4475339.8313034	4475340.34785713
14	20	0	0	90	36.1581920903955	36.241610738255	13	0.433360876068473	2	1	4	NaN	1	3	0.0534935379151947	0	1	NaN	422	7	44	2	120	220	320	NaN	520	0.198689068667591	2	0	NaN	4475341.6313738	NaN	4475342.614901	4475343.13145553
14	20	0	0	90	36.1581920903955	36.241610738255	17	0.566702684089541	2	12	2	NaN	2	3	0.0534935379151947	0	1	NaN	423	7	45	2	120	220	320	NaN	520	0.0104099679738283	2	1	NaN	4475344.1484247	NaN	4475345.1317999	4475345.64837843
14	20	0	0	90	36.1581920903955	36.241610738255	19	0.633373588100076	2	10	1	NaN	2	3	0.0534935379151947	0	1	NaN	424	7	46	2	120	220	320	NaN	520	0.188321768306196	2	1	NaN	4475346.8819538	NaN	4475347.8654181	4475348.38197023
14	20	0	0	90	36.1581920903955	36.241610738255	11	0.366689972057939	2	10	5	NaN	2	3	0.0534935379151947	0	1	NaN	425	7	47	2	120	220	320	NaN	520	1.67242366913706	1	0	NaN	4475349.3822562	NaN	4475350.3656666	4475350.88221673
14	20	0	0	90	36.1581920903955	36.241610738255	11	0.366689972057939	2	6	3	NaN	1	4	0.0534935379151947	0	1	NaN	426	7	48	2	120	220	320	NaN	520	0.0104105686768889	1	1	NaN	4475353.7160061	NaN	4475354.6994102	4475355.21598383
14	20	0	0	90	36.1581920903955	36.241610738255	6	0.200012712031603	2	2	5	NaN	1	5	0.0534935379151947	0	1	NaN	427	7	49	2	120	220	320	NaN	520	0.0447636945173144	1	1	NaN	4475356.0496121	NaN	4475357.0329881	4475357.54957141
14	20	0	0	90	36.1581920903955	36.241610738255	17	0.566702684089541	2	3	1	NaN	1	4	0.0534935379151947	0	1	NaN	428	7	50	2	120	220	320	NaN	520	0.470199717208743	2	0	NaN	4475358.4163673	NaN	4475359.3998994	4475359.91644288
14	20	0	0	90	36.1581920903955	36.241610738255	13	0.433360876068473	2	4	5	NaN	1	3	0.0534935379151947	0	1	NaN	429	7	51	2	120	220	320	NaN	520	0.198147568851709	1	1	NaN	4475361.2000931	NaN	4475362.1834949	4475362.70003983
14	20	0	0	90	36.1581920903955	36.241610738255	10	0.333354520052671	2	11	1	NaN	2	4	0.0534935379151947	0	1	NaN	430	7	52	2	120	220	320	NaN	520	1.41757052205503	2	1	NaN	4475363.7170143	NaN	4475364.7004092	4475365.21695878
14	20	0	0	90	36.1581920903955	36.241610738255	21	0.70004449211061	2	8	6	NaN	2	4	0.0534935379151947	0	1	NaN	431	7	53	2	120	220	320	NaN	520	0.0169868171215057	2	1	NaN	4475367.7172884	NaN	4475368.7008049	4475369.21735148
14	20	0	0	90	36.1581920903955	36.241610738255	16	0.533367232084274	2	5	2	NaN	1	4	0.0534935379151947	0	1	NaN	432	7	54	2	120	220	320	NaN	520	0.243313568644226	1	1	NaN	4475370.0509899	NaN	4475371.0343656	4475371.55091533
14	20	0	0	90	36.1581920903955	36.241610738255	9	0.300019068047404	2	6	6	NaN	1	5	0.0534935379151947	0	1	NaN	433	7	55	2	120	220	320	NaN	520	0.16565396822989	1	1	NaN	4475373.3845622	NaN	4475374.3680277	4475374.88457183
14	20	0	0	90	36.1581920903955	36.241610738255	17	0.566702684089541	2	6	4	NaN	1	5	0.0534935379151947	0	1	NaN	434	7	56	2	120	220	320	NaN	520	0.176858521066606	1	1	NaN	4475375.9014048	NaN	4475376.8849423	4475377.40149618
14	20	0	0	90	36.1581920903955	36.241610738255	16	0.533367232084274	2	12	4	NaN	2	3	0.0534935379151947	0	1	NaN	435	7	57	2	120	220	320	NaN	520	0.301267721690238	2	1	NaN	4475378.3851252	NaN	4475379.3685262	4475379.88506598
14	20	0	0	90	36.1581920903955	36.241610738255	16	0.533367232084274	2	10	1	NaN	2	4	0.0534935379151947	0	1	NaN	436	7	58	2	120	220	320	NaN	520	0.244429221376777	2	1	NaN	4475381.0020569	NaN	4475381.9854307	4475382.50198828
14	20	0	0	90	36.1581920903955	36.241610738255	16	0.533367232084274	2	6	2	NaN	1	3	0.0534935379151947	0	1	NaN	437	7	59	2	120	220	320	NaN	520	0.0104078687727451	1	1	NaN	4475383.5521802	NaN	4475384.535693	4475385.05223693
14	20	0	0	90	36.1581920903955	36.241610738255	13	0.433360876068473	2	10	5	NaN	2	5	0.0534935379151947	0	1	NaN	438	7	60	2	120	220	320	NaN	520	0.193310021422803	1	0	NaN	4475385.8690885	NaN	4475386.8525833	4475387.36913498
14	20	0	0	90	36.1581920903955	36.241610738255	11	0.366689972057939	2	1	1	NaN	1	4	0.0534935379151947	0	1	NaN	439	7	61	2	120	220	320	NaN	520	0.0104115679860115	1	1	NaN	4475388.369444	NaN	4475389.3528581	4475389.86937573
14	20	0	0	90	36.1581920903955	36.241610738255	9	0.300019068047404	2	10	4	NaN	2	5	0.0534935379151947	0	1	NaN	440	7	62	2	120	220	320	NaN	520	0.0961558679118752	1	0	NaN	4475390.6862351	NaN	4475391.6697139	4475392.18627143
14	20	0	0	90	36.1581920903955	36.241610738255	21	0.70004449211061	2	10	4	NaN	2	3	0.0534935379151947	0	1	NaN	441	7	63	2	120	220	320	NaN	520	0.175389116629958	1	0	NaN	4475393.1032237	NaN	4475394.086628	4475394.60317238
14	20	0	0	90	36.1581920903955	36.241610738255	20	0.666709040105343	2	6	5	NaN	1	3	0.0534935379151947	0	1	NaN	442	8	1	2	120	220	320	NaN	520	0.203505168668926	1	1	NaN	4475443.8748524	NaN	4475444.8582816	4475445.37482383
14	20	0	0	90	36.1581920903955	36.241610738255	17	0.566702684089541	2	11	6	NaN	2	5	0.0534935379151947	0	1	NaN	443	8	2	2	120	220	320	NaN	520	0.0102545944973826	2	1	NaN	4475446.3918222	NaN	4475447.3750928	4475447.89174571
14	20	0	0	90	36.1581920903955	36.241610738255	23	0.766715396121144	2	3	3	NaN	1	3	0.0534935379151947	0	1	NaN	444	8	3	2	120	220	320	NaN	520	0.305983868427575	1	1	NaN	4475448.7087321	NaN	4475449.6920863	4475450.20864293
14	20	0	0	90	36.1581920903955	36.241610738255	15	0.500031780079007	2	2	5	NaN	1	4	0.0534935379151947	0	1	NaN	445	8	4	2	120	220	320	NaN	520	0.609238421544433	1	1	NaN	4475451.3256088	NaN	4475452.309008	4475452.82555918
14	20	0	0	90	36.1581920903955	36.241610738255	16	0.533367232084274	2	4	1	NaN	1	5	0.0534935379151947	0	1	NaN	446	8	5	2	120	220	320	NaN	520	0.0104019222781062	2	0	NaN	4475454.2424424	NaN	4475455.2259784	4475455.74251718
14	20	0	0	90	36.1581920903955	36.241610738255	20	0.666709040105343	2	5	5	NaN	1	4	0.0534935379151947	0	1	NaN	447	8	6	2	120	220	320	NaN	520	0.258242769166827	1	1	NaN	4475457.0761435	NaN	4475458.0595722	4475458.57611863
14	20	0	0	90	36.1581920903955	36.241610738255	10	0.333354520052671	2	7	1	NaN	2	5	0.0534935379151947	0	1	NaN	448	8	7	2	120	220	320	NaN	520	0.259369968436658	2	1	NaN	4475459.6430845	NaN	4475460.6265002	4475461.14303593
14	20	0	0	90	36.1581920903955	36.241610738255	23	0.766715396121144	2	2	3	NaN	1	5	0.0534935379151947	0	1	NaN	449	8	8	2	120	220	320	NaN	520	0.124458821490407	2	0	NaN	4475462.2099641	NaN	4475463.1934119	4475463.70996358
14	20	0	0	90	36.1581920903955	36.241610738255	0	0	1	2	1	NaN	1	5	0.0534935379151947	0	1	NaN	450	8	9	2	110	210	310	NaN	510	0.0270522423088551	2	0	NaN	4475464.6436946	NaN	4475465.6269756	4475466.14354156
14	20	0	0	90	36.1581920903955	36.241610738255	21	0.70004449211061	2	2	4	NaN	1	4	0.0534935379151947	0	1	NaN	451	8	10	2	120	220	320	NaN	520	0.508668168447912	2	0	NaN	4475466.993847	NaN	4475467.9772257	4475468.49375853
14	20	0	0	90	36.1581920903955	36.241610738255	6	0.200012712031603	2	1	5	NaN	1	3	0.0534935379151947	0	1	NaN	452	8	11	2	120	220	320	NaN	520	0.220967621542513	2	0	NaN	4475470.177432	NaN	4475471.1608622	4475471.67740928
14	20	0	0	90	36.1581920903955	36.241610738255	17	0.566702684089541	2	7	3	NaN	2	3	0.0534935379151947	0	1	NaN	453	8	12	2	120	220	320	NaN	520	0.159921068698168	2	1	NaN	4475472.7111673	NaN	4475473.6944525	4475474.21099083
14	20	0	0	90	36.1581920903955	36.241610738255	14	0.46669632807374	2	3	3	NaN	1	4	0.0534935379151947	0	1	NaN	454	8	13	2	120	220	320	NaN	520	1.89270516857505	1	1	NaN	4475475.1779714	NaN	4475476.1613616	4475476.67790243
14	20	0	0	90	36.1581920903955	36.241610738255	20	0.666709040105343	2	3	4	NaN	1	4	0.0534935379151947	0	1	NaN	455	8	14	2	120	220	320	NaN	520	0.244501885026693	2	0	NaN	4475479.3783754	NaN	4475480.3617591	4475480.87832232
14	20	0	0	90	36.1581920903955	36.241610738255	22	0.733379944115877	2	3	2	NaN	1	5	0.0534935379151947	0	1	NaN	456	8	15	2	120	220	320	NaN	520	0.229369616135955	1	1	NaN	4475481.9451497	NaN	4475482.9286871	4475483.44522578
14	20	0	0	90	36.1581920903955	36.241610738255	15	0.500031780079007	2	5	3	NaN	1	3	0.0534935379151947	0	1	NaN	457	8	16	2	120	220	320	NaN	520	0.0104105686768889	2	0	NaN	4475484.4955539	NaN	4475485.4789165	4475485.99548223
14	20	0	0	90	36.1581920903955	36.241610738255	15	0.500031780079007	2	9	2	NaN	2	5	0.0534935379151947	0	1	NaN	458	8	17	2	120	220	320	NaN	520	0.298239015974104	2	1	NaN	4475486.8124011	NaN	4475487.7958313	4475488.31237388
