subjno	age	gender	isPractice	viewdist	CmToPixX	CmToPixY	SOA_frm	SOA_time	targNum	targID	targExample	targRace	targGender	firstTargPos	contrast	familiarity	curr_staircase	iStair	TrialNum	BlockNum	blktrl	sessionNum	TC_FIXATION	TC_RSVP_START	TC_RSVP_END	TC_BLANK	TC_RESPONSE_ONSET	RT2afc	resp_2afc	acc	RSVPOnsetVBL	RSVPOnsetTime	RSVPOffsetVBL	RSVPOffsetTime	startrt_2afc
1	19	0	0	90	36.1581920903955	36.241610738255	12	0.400028543996159	2	7	2	NaN	2	4	0.0350874958816868	0	1	NaN	1	1	1	1	120	220	320	NaN	520	0.956245422537904	1	0	NaN	90225.9436721	NaN	90226.9269926	90227.4601197775
1	19	0	0	90	36.1581920903955	36.241610738255	11	0.366692831996479	2	3	1	NaN	1	4	0.0350874958816868	0	1	NaN	2	1	2	1	120	220	320	NaN	520	0.510279375026585	2	0	NaN	90229.2773187	NaN	90230.2607181	90230.793772125
1	19	0	0	90	36.1581920903955	36.241610738255	17	0.566707103994558	2	6	1	NaN	1	4	0.0350874958816868	0	1	NaN	3	1	3	1	120	220	320	NaN	520	0.756958880039747	1	1	NaN	90232.1274382	NaN	90233.1108415	90233.62738862
1	19	0	0	90	36.1581920903955	36.241610738255	23	0.766721375992638	2	9	5	NaN	2	5	0.0350874958816868	0	1	NaN	4	1	4	1	120	220	320	NaN	520	0.576906222544494	1	0	NaN	90235.2110946	NaN	90236.1944763	90236.7110210775
1	19	0	0	90	36.1581920903955	36.241610738255	22	0.733385663992958	2	9	6	NaN	2	5	0.0350874958816868	0	1	NaN	5	1	5	1	120	220	320	NaN	520	0.580977970035747	2	1	NaN	90238.1113738	NaN	90239.0947609	90239.61130553
1	19	0	0	90	36.1581920903955	36.241610738255	22	0.733385663992958	2	6	6	NaN	1	4	0.0350874958816868	0	1	NaN	6	1	6	1	120	220	320	NaN	520	0.528210170043167	1	1	NaN	90241.0116554	NaN	90241.995055	90242.51159973
1	19	0	0	90	36.1581920903955	36.241610738255	23	0.766721375992638	2	10	6	NaN	2	4	0.0350874958816868	0	1	NaN	7	1	7	1	120	220	320	NaN	520	0.462213970036828	2	1	NaN	90243.8619513	NaN	90244.8453235	90245.36187263
1	19	0	0	90	36.1581920903955	36.241610738255	11	0.366692831996479	2	2	3	NaN	1	3	0.0350874958816868	0	1	NaN	8	1	8	1	120	220	320	NaN	520	0.350516470032744	1	1	NaN	90246.6454389	NaN	90247.6289173	90248.14547973
1	19	0	0	90	36.1581920903955	36.241610738255	21	0.700049951993278	2	10	4	NaN	2	3	0.0350874958816868	0	1	NaN	9	1	9	1	120	220	320	NaN	520	0.331600812540273	2	1	NaN	90249.3124688	NaN	90250.2958596	90250.8124116875
1	19	0	0	90	36.1581920903955	36.241610738255	7	0.233349983997759	2	3	3	NaN	1	5	0.0350874958816868	0	1	NaN	10	1	10	1	120	220	320	NaN	520	0.353261085023405	1	1	NaN	90252.1627527	NaN	90253.1461298	90253.662690815
1	19	0	0	90	36.1581920903955	36.241610738255	7	0.233349983997759	2	8	6	NaN	2	3	0.0350874958816868	0	1	NaN	11	1	11	1	120	220	320	NaN	520	0.31629817004432	1	0	NaN	90254.8796819	NaN	90255.8630641	90256.37962853
1	19	0	0	90	36.1581920903955	36.241610738255	16	0.533371391994879	2	1	4	NaN	1	5	0.0350874958816868	0	1	NaN	12	1	12	1	120	220	320	NaN	520	0.442865522549255	1	1	NaN	90257.5132879	NaN	90258.4966655	90259.0132258775
1	19	0	0	90	36.1581920903955	36.241610738255	19	0.633378527993918	2	2	1	NaN	1	5	0.0350874958816868	0	1	NaN	13	1	13	1	120	220	320	NaN	520	0.548095470046974	2	0	NaN	90260.280309	NaN	90261.2636083	90261.78015993
1	19	0	0	90	36.1581920903955	36.241610738255	19	0.633378527993918	2	3	6	NaN	1	5	0.0350874958816868	0	1	NaN	14	1	14	1	120	220	320	NaN	520	0.448684422546648	1	1	NaN	90263.1471399	NaN	90264.1305652	90264.6471104775
1	19	0	0	90	36.1581920903955	36.241610738255	22	0.733385663992958	2	2	4	NaN	1	4	0.0350874958816868	0	1	NaN	15	1	15	1	120	220	320	NaN	520	0.418319070027792	1	1	NaN	90265.9141267	NaN	90266.8974994	90267.41403813
1	19	0	0	90	36.1581920903955	36.241610738255	14	0.466699967995519	2	11	5	NaN	2	5	0.0350874958816868	0	1	NaN	16	1	16	1	120	220	320	NaN	520	0.508239922535722	1	0	NaN	90268.6476885	NaN	90269.6311229	90270.1476503775
1	19	0	0	90	36.1581920903955	36.241610738255	10	0.333357119996799	2	3	5	NaN	1	4	0.0350874958816868	0	1	NaN	17	1	17	1	120	220	320	NaN	520	0.402707570043276	1	1	NaN	90271.4812215	NaN	90272.4646126	90272.98125543
1	19	0	0	90	36.1581920903955	36.241610738255	9	0.300021407997119	2	7	3	NaN	2	3	0.0350874958816868	0	1	NaN	18	1	18	1	120	220	320	NaN	520	0.309718870033976	1	0	NaN	90274.1982359	NaN	90275.1816431	90275.69819783
1	19	0	0	90	36.1581920903955	36.241610738255	24	0.800057087992318	2	6	5	NaN	1	4	0.0350874958816868	0	1	NaN	19	1	19	1	120	220	320	NaN	520	0.267653370028711	1	1	NaN	90277.0486149	NaN	90278.0319333	90278.54846733
1	19	0	0	90	36.1581920903955	36.241610738255	12	0.400028543996159	2	11	3	NaN	2	4	0.0350874958816868	0	1	NaN	20	1	20	1	120	220	320	NaN	520	0.300033922540024	1	0	NaN	90279.6321378	NaN	90280.6155518	90281.1320617775
1	19	0	0	90	36.1581920903955	36.241610738255	22	0.733385663992958	2	12	4	NaN	2	5	0.0350874958816868	0	1	NaN	21	1	21	1	120	220	320	NaN	520	0.210945975020877	2	1	NaN	90282.2490205	NaN	90283.2324475	90283.748982425
1	19	0	0	90	36.1581920903955	36.241610738255	19	0.633378527993918	2	3	2	NaN	1	5	0.0350874958816868	0	1	NaN	22	1	22	1	120	220	320	NaN	520	0.381312422541669	1	1	NaN	90284.7826293	NaN	90285.7660469	90286.2825736775
1	19	0	0	90	36.1581920903955	36.241610738255	18	0.600042815994238	2	4	1	NaN	1	4	0.0350874958816868	0	1	NaN	23	1	23	1	120	220	320	NaN	520	0.377515417538234	1	1	NaN	90287.4828816	NaN	90288.4662645	90288.9828298825
1	19	0	0	90	36.1581920903955	36.241610738255	21	0.700049951993278	2	7	3	NaN	2	3	0.0350874958816868	0	1	NaN	24	1	24	1	120	220	320	NaN	520	0.349218689996633	1	0	NaN	90290.1831746	NaN	90291.1665516	90291.68310451
1	19	0	0	90	36.1581920903955	36.241610738255	12	0.400028543996159	2	3	1	NaN	1	4	0.0350874958816868	0	1	NaN	25	1	25	1	120	220	320	NaN	520	0.297290022543166	2	0	NaN	90293.0667407	NaN	90294.0501702	90294.5667240775
1	19	0	0	90	36.1581920903955	36.241610738255	20	0.666714239993598	2	12	5	NaN	2	3	0.0350874958816868	0	1	NaN	26	1	26	1	120	220	320	NaN	520	0.55237379000755	2	1	NaN	90295.6836807	NaN	90296.6670853	90297.18364551
1	19	0	0	90	36.1581920903955	36.241610738255	0	0	1	2	1	NaN	1	3	0.0350874958816868	0	1	NaN	27	1	27	1	110	210	310	NaN	510	0.341839170039748	2	0	NaN	90298.5506405	NaN	90299.5340509	90300.05058663
1	19	0	0	90	36.1581920903955	36.241610738255	22	0.733385663992958	2	4	5	NaN	1	3	0.0350874958816868	0	1	NaN	28	1	28	1	120	220	320	NaN	520	0.442830927524483	2	0	NaN	90301.2175748	NaN	90302.2009682	90302.7175142725
1	19	0	0	90	36.1581920903955	36.241610738255	16	0.533371391994879	2	11	5	NaN	2	3	0.0350874958816868	0	1	NaN	29	1	29	1	120	220	320	NaN	520	1.45194677004474	2	1	NaN	90303.9845027	NaN	90304.9679162	90305.48445273
1	19	0	0	90	36.1581920903955	36.241610738255	6	0.200014271998079	2	6	5	NaN	1	5	0.0350874958816868	0	1	NaN	30	1	30	1	120	220	320	NaN	520	0.486116170039168	1	1	NaN	90309.5183723	NaN	90310.5017843	90311.01832793
1	19	0	0	90	36.1581920903955	36.241610738255	0	0	1	11	5	NaN	2	4	0.0350874958816868	0	1	NaN	31	1	31	1	110	210	310	NaN	510	0.427046070035431	1	0	NaN	90313.385313	NaN	90314.3688433	90314.88537563
1	19	0	0	90	36.1581920903955	36.241610738255	21	0.700049951993278	2	1	3	NaN	1	4	0.0350874958816868	0	1	NaN	32	1	32	1	120	220	320	NaN	520	0.482735922530992	1	1	NaN	90316.1857206	NaN	90317.169127	90317.6856582775
1	19	0	0	90	36.1581920903955	36.241610738255	18	0.600042815994238	2	5	1	NaN	1	5	0.0350874958816868	0	1	NaN	33	1	33	1	120	220	320	NaN	520	0.322338570040301	1	1	NaN	90318.9861008	NaN	90319.9693888	90320.48593073
1	19	0	0	90	36.1581920903955	36.241610738255	0	0	1	7	3	NaN	2	5	0.0350874958816868	0	1	NaN	34	1	34	1	110	210	310	NaN	510	0.400123470026301	2	1	NaN	90321.6362397	NaN	90322.6196435	90323.13619583
1	19	0	0	90	36.1581920903955	36.241610738255	24	0.800057087992318	2	5	5	NaN	1	5	0.0350874958816868	0	1	NaN	35	1	35	1	120	220	320	NaN	520	0.283057470034692	1	1	NaN	90324.3531762	NaN	90325.3365823	90325.85312233
1	19	0	0	90	36.1581920903955	36.241610738255	11	0.366692831996479	2	7	4	NaN	2	5	0.0350874958816868	0	1	NaN	36	1	36	1	120	220	320	NaN	520	0.462286637513898	1	0	NaN	90327.2701089	NaN	90328.2535346	90328.7700866625
1	19	0	0	90	36.1581920903955	36.241610738255	21	0.700049951993278	2	9	4	NaN	2	5	0.0350874958816868	0	1	NaN	37	1	37	1	120	220	320	NaN	520	0.342549070031964	1	0	NaN	90330.0538387	NaN	90331.0371364	90331.55369773
1	19	0	0	90	36.1581920903955	36.241610738255	23	0.766721375992638	2	4	4	NaN	1	3	0.0350874958816868	0	1	NaN	38	1	38	1	120	220	320	NaN	520	0.508179375028703	1	1	NaN	90332.7039929	NaN	90333.6873886	90334.203946825
1	19	0	0	90	36.1581920903955	36.241610738255	0	0	1	1	3	NaN	1	3	0.0350874958816868	0	1	NaN	39	1	39	1	110	210	310	NaN	510	0.579054990012082	2	0	NaN	90335.520934	NaN	90336.5043435	90337.02089721
1	19	0	0	90	36.1581920903955	36.241610738255	25	0.833392799991998	2	7	6	NaN	2	4	0.0350874958816868	0	1	NaN	40	1	40	1	120	220	320	NaN	520	0.383295922540128	2	1	NaN	90338.4212186	NaN	90339.4046294	90339.9211776775
1	19	0	0	90	36.1581920903955	36.241610738255	18	0.600042815994238	2	4	4	NaN	1	5	0.0350874958816868	0	1	NaN	41	1	41	1	120	220	320	NaN	520	0.314980370050762	2	0	NaN	90341.1214816	NaN	90342.1048931	90342.62143883
1	19	0	0	90	36.1581920903955	36.241610738255	18	0.600042815994238	2	6	1	NaN	1	3	0.0350874958816868	0	1	NaN	42	1	42	1	120	220	320	NaN	520	0.24144571753277	1	1	NaN	90343.7550998	NaN	90344.7384803	90345.2550304825
1	19	0	0	90	36.1581920903955	36.241610738255	16	0.533371391994879	2	3	3	NaN	1	4	0.0350874958816868	0	1	NaN	43	1	43	1	120	220	320	NaN	520	0.459446570035652	1	1	NaN	90346.6886646	NaN	90347.6720864	90348.18865253
1	19	0	0	90	36.1581920903955	36.241610738255	14	0.466699967995519	2	9	5	NaN	2	5	0.0350874958816868	0	1	NaN	44	1	44	1	120	220	320	NaN	520	0.396409170047264	1	0	NaN	90349.4556523	NaN	90350.4390575	90350.95559363
1	19	0	0	90	36.1581920903955	36.241610738255	6	0.200014271998079	2	3	2	NaN	1	3	0.0350874958816868	0	1	NaN	45	1	45	1	120	220	320	NaN	520	0.351914870043402	2	0	NaN	90352.1726038	NaN	90353.1559683	90353.67252483
1	19	0	0	90	36.1581920903955	36.241610738255	23	0.766721375992638	2	10	3	NaN	2	3	0.0350874958816868	0	1	NaN	46	1	46	1	120	220	320	NaN	520	0.228743822532124	1	0	NaN	90354.8394077	NaN	90355.8229061	90356.3394561775
1	19	0	0	90	36.1581920903955	36.241610738255	11	0.366692831996479	2	12	5	NaN	2	5	0.0350874958816868	0	1	NaN	47	1	47	1	120	220	320	NaN	520	0.764762670049095	2	1	NaN	90357.4396667	NaN	90358.4231575	90358.93971593
1	19	0	0	90	36.1581920903955	36.241610738255	9	0.300021407997119	2	5	1	NaN	1	5	0.0350874958816868	0	1	NaN	48	1	48	1	120	220	320	NaN	520	0.216073890012922	1	1	NaN	90360.5399654	NaN	90361.5234773	90362.04002471
1	19	0	0	90	36.1581920903955	36.241610738255	21	0.700049951993278	2	2	2	NaN	1	5	0.0350874958816868	0	1	NaN	49	1	49	1	120	220	320	NaN	520	0.267223470043973	2	0	NaN	90363.0569351	NaN	90364.040389	90364.55693853
1	19	0	0	90	36.1581920903955	36.241610738255	24	0.800057087992318	2	8	4	NaN	2	4	0.0350874958816868	0	1	NaN	50	1	50	1	120	220	320	NaN	520	0.419978537509451	2	1	NaN	90365.6405727	NaN	90366.6238926	90367.1405219625
1	19	0	0	90	36.1581920903955	36.241610738255	14	0.466699967995519	2	3	5	NaN	1	4	0.0350874958816868	0	1	NaN	51	1	51	1	120	220	320	NaN	520	0.437986270029796	2	0	NaN	90368.5742035	NaN	90369.5576007	90370.07414663
1	19	0	0	90	36.1581920903955	36.241610738255	16	0.533371391994879	2	11	4	NaN	2	3	0.0350874958816868	0	1	NaN	52	1	52	1	120	220	320	NaN	520	0.487997455056757	2	1	NaN	90371.3244591	NaN	90372.3078498	90372.8244170449
1	19	0	0	90	36.1581920903955	36.241610738255	0	0	1	5	4	NaN	1	4	0.0350874958816868	0	1	NaN	53	1	53	1	110	210	310	NaN	510	0.599765370032401	2	0	NaN	90374.1247471	NaN	90375.1081506	90375.62469283
1	19	0	0	90	36.1581920903955	36.241610738255	15	0.500035679995199	2	6	2	NaN	1	3	0.0350874958816868	0	1	NaN	54	1	54	1	120	220	320	NaN	520	0.202727675030474	1	1	NaN	90377.0416878	NaN	90378.0250989	90378.541652425
1	19	0	0	90	36.1581920903955	36.241610738255	13	0.433364255995839	2	11	1	NaN	2	3	0.0350874958816868	0	1	NaN	55	1	55	1	120	220	320	NaN	520	0.500253070043982	2	1	NaN	90379.7919999	NaN	90380.7753569	90381.29190923
1	19	0	0	90	36.1581920903955	36.241610738255	12	0.400028543996159	2	1	5	NaN	1	3	0.0350874958816868	0	1	NaN	56	1	56	1	120	220	320	NaN	520	0.89123152254615	1	1	NaN	90382.6089063	NaN	90383.5923092	90384.1088582775
1	19	0	0	90	36.1581920903955	36.241610738255	16	0.533371391994879	2	7	2	NaN	2	3	0.0350874958816868	0	1	NaN	57	1	57	1	120	220	320	NaN	520	0.323012222535908	2	1	NaN	90385.8092326	NaN	90386.7926084	90387.3091673775
1	19	0	0	90	36.1581920903955	36.241610738255	19	0.633378527993918	2	5	1	NaN	1	5	0.0350874958816868	0	1	NaN	58	1	58	1	120	220	320	NaN	520	0.244016122538596	1	1	NaN	90388.5761541	NaN	90389.5595688	90390.0761170775
1	19	0	0	90	36.1581920903955	36.241610738255	19	0.633378527993918	2	9	4	NaN	2	3	0.0350874958816868	0	1	NaN	59	1	59	1	120	220	320	NaN	520	0.326080722545157	2	1	NaN	90391.1264298	NaN	90392.1098009	90392.6263685775
1	19	0	0	90	36.1581920903955	36.241610738255	25	0.833392799991998	2	11	6	NaN	2	5	0.0350874958816868	0	1	NaN	60	1	60	1	120	220	320	NaN	520	0.338333970037638	1	0	NaN	90393.8093502	NaN	90394.7934156	90395.30995403
1	19	0	0	90	36.1581920903955	36.241610738255	13	0.433364255995839	2	12	5	NaN	2	5	0.0350874958816868	0	1	NaN	61	1	61	1	120	220	320	NaN	520	0.334251870037406	2	1	NaN	90396.7101842	NaN	90397.6937134	90398.21024733
1	19	0	0	90	36.1581920903955	36.241610738255	25	0.833392799991998	2	9	1	NaN	2	3	0.0350874958816868	0	1	NaN	62	1	62	1	120	220	320	NaN	520	0.37958451754821	1	0	NaN	90399.5605553	NaN	90400.5439747	90401.0605229825
1	19	0	0	90	36.1581920903955	36.241610738255	25	0.833392799991998	2	3	4	NaN	1	5	0.0350874958816868	0	1	NaN	63	1	63	1	120	220	320	NaN	520	1.67838897004549	2	0	NaN	90402.2941457	NaN	90403.2775821	90403.79413213
1	19	0	0	90	36.1581920903955	36.241610738255	9	0.300021407997119	2	1	2	NaN	1	4	0.0350874958816868	0	1	NaN	64	2	1	1	120	220	320	NaN	520	0.30166292253125	2	0	NaN	90429.6470071	NaN	90430.6302547	90431.1468275775
1	19	0	0	90	36.1581920903955	36.241610738255	24	0.800057087992318	2	2	4	NaN	1	3	0.0350874958816868	0	1	NaN	65	2	2	1	120	220	320	NaN	520	0.364881122543011	2	0	NaN	90432.263775	NaN	90433.2471776	90433.7637499775
1	19	0	0	90	36.1581920903955	36.241610738255	12	0.400028543996159	2	8	2	NaN	2	5	0.0350874958816868	0	1	NaN	66	2	3	1	120	220	320	NaN	520	0.512871522543719	2	1	NaN	90434.9473987	NaN	90435.9307981	90436.4473398775
1	19	0	0	90	36.1581920903955	36.241610738255	15	0.500035679995199	2	9	2	NaN	2	3	0.0350874958816868	0	1	NaN	67	2	4	1	120	220	320	NaN	520	0.527173370035598	2	1	NaN	90437.7809913	NaN	90438.7643934	90439.28094653
1	19	0	0	90	36.1581920903955	36.241610738255	13	0.433364255995839	2	5	4	NaN	1	5	0.0350874958816868	0	1	NaN	68	2	5	1	120	220	320	NaN	520	0.333276722551091	2	0	NaN	90440.6313053	NaN	90441.6146968	90442.1312408775
1	19	0	0	90	36.1581920903955	36.241610738255	24	0.800057087992318	2	7	6	NaN	2	3	0.0350874958816868	0	1	NaN	69	2	6	1	120	220	320	NaN	520	0.628762922526221	2	1	NaN	90443.4315297	NaN	90444.4149606	90444.9315078775
1	19	0	0	90	36.1581920903955	36.241610738255	16	0.533371391994879	2	10	2	NaN	2	5	0.0350874958816868	0	1	NaN	70	2	7	1	120	220	320	NaN	520	0.35138857003767	1	0	NaN	90446.3652014	NaN	90447.3485655	90447.86512783
1	19	0	0	90	36.1581920903955	36.241610738255	13	0.433364255995839	2	7	2	NaN	2	3	0.0350874958816868	0	1	NaN	71	2	8	1	120	220	320	NaN	520	0.268495422540582	2	1	NaN	90450.0321961	NaN	90451.0156105	90451.5321558775
1	19	0	0	90	36.1581920903955	36.241610738255	19	0.633378527993918	2	10	5	NaN	2	4	0.0350874958816868	0	1	NaN	72	2	9	1	120	220	320	NaN	520	0.340403922542464	1	0	NaN	90452.6157686	NaN	90453.5992016	90454.1157481775
1	19	0	0	90	36.1581920903955	36.241610738255	23	0.766721375992638	2	3	4	NaN	1	5	0.0350874958816868	0	1	NaN	73	2	10	1	120	220	320	NaN	520	0.314146122531383	1	1	NaN	90455.2659343	NaN	90456.249458	90456.7660082775
1	19	0	0	90	36.1581920903955	36.241610738255	10	0.333357119996799	2	9	4	NaN	2	4	0.0350874958816868	0	1	NaN	74	2	11	1	120	220	320	NaN	520	0.480572370041045	1	0	NaN	90457.8996571	NaN	90458.8830641	90459.39959383
1	19	0	0	90	36.1581920903955	36.241610738255	11	0.366692831996479	2	4	2	NaN	1	3	0.0350874958816868	0	1	NaN	75	2	12	1	120	220	320	NaN	520	0.327608722538571	1	1	NaN	90460.7162111	NaN	90461.6999949	90462.2165415775
1	19	0	0	90	36.1581920903955	36.241610738255	21	0.700049951993278	2	5	5	NaN	1	3	0.0350874958816868	0	1	NaN	76	2	13	1	120	220	320	NaN	520	0.317799570038915	2	0	NaN	90463.3668672	NaN	90464.3502649	90464.86679783
1	19	0	0	90	36.1581920903955	36.241610738255	10	0.333357119996799	2	11	4	NaN	2	4	0.0350874958816868	0	1	NaN	77	2	14	1	120	220	320	NaN	520	0.396220322538284	1	0	NaN	90466.0004494	NaN	90466.9838455	90467.5004013775
1	19	0	0	90	36.1581920903955	36.241610738255	15	0.500035679995199	2	12	2	NaN	2	3	0.0350874958816868	0	1	NaN	78	2	15	1	120	220	320	NaN	520	0.759192485013045	2	1	NaN	90468.7172584	NaN	90469.7007885	90470.217337615
1	19	0	0	90	36.1581920903955	36.241610738255	25	0.833392799991998	2	10	1	NaN	2	3	0.0350874958816868	0	1	NaN	79	2	16	1	120	220	320	NaN	520	0.22025792254135	2	1	NaN	90471.7843376	NaN	90472.7677559	90473.2843023775
1	19	0	0	90	36.1581920903955	36.241610738255	25	0.833392799991998	2	8	5	NaN	2	5	0.0350874958816868	0	1	NaN	80	2	17	1	120	220	320	NaN	520	0.327752222539857	2	1	NaN	90474.4844976	NaN	90475.4680272	90475.9845710775
1	19	0	0	90	36.1581920903955	36.241610738255	24	0.800057087992318	2	5	5	NaN	1	5	0.0350874958816868	0	1	NaN	81	2	18	1	120	220	320	NaN	520	0.234087522534537	1	1	NaN	90477.418167	NaN	90478.4016532	90478.9181905775
1	19	0	0	90	36.1581920903955	36.241610738255	22	0.733385663992958	2	3	4	NaN	1	4	0.0350874958816868	0	1	NaN	82	2	19	1	120	220	320	NaN	520	0.483782622541185	1	1	NaN	90479.9685051	NaN	90480.9518877	90481.4684426775
1	19	0	0	90	36.1581920903955	36.241610738255	20	0.666714239993598	2	4	2	NaN	1	5	0.0350874958816868	0	1	NaN	83	2	20	1	120	220	320	NaN	520	0.240217422542628	1	1	NaN	90482.8519807	NaN	90483.835517	90484.3520557775
1	19	0	0	90	36.1581920903955	36.241610738255	14	0.466699967995519	2	9	6	NaN	2	3	0.0350874958816868	0	1	NaN	84	2	21	1	120	220	320	NaN	520	0.186003470036667	2	1	NaN	90485.4023649	NaN	90486.3857411	90486.90230473
1	19	0	0	90	36.1581920903955	36.241610738255	12	0.400028543996159	2	6	3	NaN	1	3	0.0350874958816868	0	1	NaN	85	2	22	1	120	220	320	NaN	520	0.565793822534033	2	0	NaN	90487.9025932	NaN	90488.886001	90489.4025546775
1	19	0	0	90	36.1581920903955	36.241610738255	17	0.566707103994558	2	7	5	NaN	2	4	0.0350874958816868	0	1	NaN	86	2	23	1	120	220	320	NaN	520	0.309102970044478	2	1	NaN	90490.919541	NaN	90491.902953	90492.41950703
1	19	0	0	90	36.1581920903955	36.241610738255	13	0.433364255995839	2	7	4	NaN	2	4	0.0350874958816868	0	1	NaN	87	2	24	1	120	220	320	NaN	520	0.396213922533207	2	1	NaN	90493.5365306	NaN	90494.519922	90495.0364424775
1	19	0	0	90	36.1581920903955	36.241610738255	6	0.200014271998079	2	5	2	NaN	1	5	0.0350874958816868	0	1	NaN	88	2	25	1	120	220	320	NaN	520	0.39882102253614	1	1	NaN	90496.2534652	NaN	90497.2368306	90497.7533676775
1	19	0	0	90	36.1581920903955	36.241610738255	23	0.766721375992638	2	6	2	NaN	1	3	0.0350874958816868	0	1	NaN	89	2	26	1	120	220	320	NaN	520	0.242393290012842	1	1	NaN	90498.970355	NaN	90499.9537589	90500.47031091
1	19	0	0	90	36.1581920903955	36.241610738255	14	0.466699967995519	2	6	2	NaN	1	4	0.0350874958816868	0	1	NaN	90	2	27	1	120	220	320	NaN	520	0.182696070041857	1	1	NaN	90502.0539699	NaN	90503.0374211	90503.55393783
1	19	0	0	90	36.1581920903955	36.241610738255	7	0.233349983997759	2	8	6	NaN	2	5	0.0350874958816868	0	1	NaN	91	2	28	1	120	220	320	NaN	520	0.290469070037943	2	1	NaN	90504.5542385	NaN	90505.5376371	90506.05418383
1	19	0	0	90	36.1581920903955	36.241610738255	6	0.200014271998079	2	2	6	NaN	1	5	0.0350874958816868	0	1	NaN	92	2	29	1	120	220	320	NaN	520	0.292682170038461	1	1	NaN	90507.2877249	NaN	90508.2712491	90508.78778393
1	19	0	0	90	36.1581920903955	36.241610738255	24	0.800057087992318	2	9	2	NaN	2	3	0.0350874958816868	0	1	NaN	93	2	30	1	120	220	320	NaN	520	0.303602870029863	2	1	NaN	90510.0047498	NaN	90510.9881623	90511.50472883
1	19	0	0	90	36.1581920903955	36.241610738255	22	0.733385663992958	2	1	6	NaN	1	4	0.0350874958816868	0	1	NaN	94	2	31	1	120	220	320	NaN	520	0.343049722534488	1	1	NaN	90512.6215862	NaN	90513.6051074	90514.1216539775
1	19	0	0	90	36.1581920903955	36.241610738255	13	0.433364255995839	2	4	5	NaN	1	3	0.0350874958816868	0	1	NaN	95	2	32	1	120	220	320	NaN	520	0.196358922534273	2	0	NaN	90515.2719577	NaN	90516.2553674	90516.7719104775
1	19	0	0	90	36.1581920903955	36.241610738255	6	0.200014271998079	2	3	1	NaN	1	3	0.0350874958816868	0	1	NaN	96	2	33	1	120	220	320	NaN	520	1.23952553251002	2	0	NaN	90517.7888774	NaN	90518.7722843	90519.2888253675
1	19	0	0	90	36.1581920903955	36.241610738255	0	0	1	2	2	NaN	1	3	0.0350874958816868	0	1	NaN	97	2	34	1	110	210	310	NaN	510	0.457453170034569	2	0	NaN	90521.3390915	NaN	90522.3226323	90522.83917163
1	19	0	0	90	36.1581920903955	36.241610738255	7	0.233349983997759	2	10	2	NaN	2	5	0.0350874958816868	0	1	NaN	98	2	35	1	120	220	320	NaN	520	0.322313242504606	1	0	NaN	90524.1061729	NaN	90525.089563	90525.6061246575
1	19	0	0	90	36.1581920903955	36.241610738255	14	0.466699967995519	2	5	5	NaN	1	5	0.0350874958816868	0	1	NaN	99	2	36	1	120	220	320	NaN	520	0.376503242514445	2	0	NaN	90526.7397436	NaN	90527.7231492	90528.2397134575
1	19	0	0	90	36.1581920903955	36.241610738255	13	0.433364255995839	2	1	5	NaN	1	5	0.0350874958816868	0	1	NaN	100	2	37	1	120	220	320	NaN	520	0.721634075031034	2	0	NaN	90529.7066833	NaN	90530.6901506	90531.206659025
1	19	0	0	90	36.1581920903955	36.241610738255	7	0.233349983997759	2	12	6	NaN	2	4	0.0350874958816868	0	1	NaN	101	2	38	1	120	220	320	NaN	520	0.581689222541172	1	0	NaN	90532.8069983	NaN	90533.7904123	90534.3069713775
1	19	0	0	90	36.1581920903955	36.241610738255	0	0	1	10	6	NaN	2	4	0.0350874958816868	0	1	NaN	102	2	39	1	110	210	310	NaN	510	0.281496890005656	2	1	NaN	90535.7073099	NaN	90536.6907059	90537.20726501
1	19	0	0	90	36.1581920903955	36.241610738255	20	0.666714239993598	2	10	3	NaN	2	4	0.0350874958816868	0	1	NaN	103	2	40	1	120	220	320	NaN	520	0.425890622544102	2	1	NaN	90538.2908926	NaN	90539.2742834	90539.7908359775
1	19	0	0	90	36.1581920903955	36.241610738255	13	0.433364255995839	2	1	1	NaN	1	3	0.0350874958816868	0	1	NaN	104	2	41	1	120	220	320	NaN	520	0.107964170034393	1	1	NaN	90541.0246222	NaN	90542.0079607	90542.52443663
1	19	0	0	90	36.1581920903955	36.241610738255	14	0.466699967995519	2	7	2	NaN	2	5	0.0350874958816868	0	1	NaN	105	2	42	1	120	220	320	NaN	520	0.27502647502115	2	1	NaN	90543.441389	NaN	90544.4248034	90544.941349525
1	19	0	0	90	36.1581920903955	36.241610738255	7	0.233349983997759	2	2	2	NaN	1	4	0.0350874958816868	0	1	NaN	106	2	43	1	120	220	320	NaN	520	0.258737227530219	2	0	NaN	90546.0416511	NaN	90547.0250444	90547.5416077725
1	19	0	0	90	36.1581920903955	36.241610738255	7	0.233349983997759	2	7	1	NaN	2	4	0.0350874958816868	0	1	NaN	107	2	44	1	120	220	320	NaN	520	0.73193002253538	1	0	NaN	90548.6086073	NaN	90549.5919771	90550.1085211775
1	19	0	0	90	36.1581920903955	36.241610738255	15	0.500035679995199	2	1	5	NaN	1	5	0.0350874958816868	0	1	NaN	108	2	45	1	120	220	320	NaN	520	0.369787770032417	2	0	NaN	90551.6588668	NaN	90552.6422784	90553.15882793
1	19	0	0	90	36.1581920903955	36.241610738255	20	0.666714239993598	2	1	1	NaN	1	3	0.0350874958816868	0	1	NaN	109	2	46	1	120	220	320	NaN	520	0.245954317535507	1	1	NaN	90554.3424694	NaN	90555.3258541	90555.8424153825
1	19	0	0	90	36.1581920903955	36.241610738255	15	0.500035679995199	2	4	2	NaN	1	3	0.0350874958816868	0	1	NaN	110	2	47	1	120	220	320	NaN	520	0.207188370040967	1	1	NaN	90556.909396	NaN	90557.8928095	90558.40933393
1	19	0	0	90	36.1581920903955	36.241610738255	18	0.600042815994238	2	1	6	NaN	1	4	0.0350874958816868	0	1	NaN	111	2	48	1	120	220	320	NaN	520	0.21058561753307	2	0	NaN	90559.426302	NaN	90560.4096803	90560.9262470825
1	19	0	0	90	36.1581920903955	36.241610738255	12	0.400028543996159	2	8	6	NaN	2	3	0.0350874958816868	0	1	NaN	112	2	49	1	120	220	320	NaN	520	0.309181437522057	1	0	NaN	90561.9432224	NaN	90562.9266174	90563.4431764625
1	19	0	0	90	36.1581920903955	36.241610738255	17	0.566707103994558	2	3	2	NaN	1	3	0.0350874958816868	0	1	NaN	113	2	50	1	120	220	320	NaN	520	0.284683222533204	2	0	NaN	90564.5601359	NaN	90565.5435469	90566.0600978775
1	19	0	0	90	36.1581920903955	36.241610738255	19	0.633378527993918	2	7	4	NaN	2	4	0.0350874958816868	0	1	NaN	114	2	51	1	120	220	320	NaN	520	0.260078370032716	2	1	NaN	90567.1603982	NaN	90568.143809	90568.66034903
1	19	0	0	90	36.1581920903955	36.241610738255	16	0.533371391994879	2	9	2	NaN	2	3	0.0350874958816868	0	1	NaN	115	2	52	1	120	220	320	NaN	520	0.351472522539552	2	1	NaN	90569.8773105	NaN	90570.8607372	90571.3773050775
1	19	0	0	90	36.1581920903955	36.241610738255	10	0.333357119996799	2	8	5	NaN	2	3	0.0350874958816868	0	1	NaN	116	2	53	1	120	220	320	NaN	520	0.123517222542432	2	1	NaN	90572.5609018	NaN	90573.5443222	90574.0608868775
1	19	0	0	90	36.1581920903955	36.241610738255	16	0.533371391994879	2	2	2	NaN	1	4	0.0350874958816868	0	1	NaN	117	2	54	1	120	220	320	NaN	520	0.257933370026876	2	0	NaN	90574.9945038	NaN	90575.9778974	90576.49444893
1	19	0	0	90	36.1581920903955	36.241610738255	23	0.766721375992638	2	3	3	NaN	1	4	0.0350874958816868	0	1	NaN	118	2	55	1	120	220	320	NaN	520	0.490781870044884	2	0	NaN	90577.9614412	NaN	90578.9448563	90579.46140913
1	19	0	0	90	36.1581920903955	36.241610738255	20	0.666714239993598	2	5	2	NaN	1	3	0.0350874958816868	0	1	NaN	119	2	56	1	120	220	320	NaN	520	0.706705770033295	1	1	NaN	90580.7616154	NaN	90581.7451355	90582.26171703
1	19	0	0	90	36.1581920903955	36.241610738255	25	0.833392799991998	2	1	5	NaN	1	3	0.0350874958816868	0	1	NaN	120	2	57	1	120	220	320	NaN	520	0.234156575024826	2	0	NaN	90583.7786997	NaN	90584.762106	90585.278657425
1	19	0	0	90	36.1581920903955	36.241610738255	14	0.466699967995519	2	6	1	NaN	1	3	0.0350874958816868	0	1	NaN	121	2	58	1	120	220	320	NaN	520	0.700920222545392	1	1	NaN	90586.4956159	NaN	90587.4790427	90587.9955913775
1	19	0	0	90	36.1581920903955	36.241610738255	6	0.200014271998079	2	9	6	NaN	2	5	0.0350874958816868	0	1	NaN	122	2	59	1	120	220	320	NaN	520	0.307887370043318	2	1	NaN	90589.5125987	NaN	90590.4960378	90591.01254553
1	19	0	0	90	36.1581920903955	36.241610738255	24	0.800057087992318	2	12	3	NaN	2	3	0.0350874958816868	0	1	NaN	123	2	60	1	120	220	320	NaN	520	0.180440475029172	2	1	NaN	90592.2960993	NaN	90593.2796035	90593.796158225
1	19	0	0	90	36.1581920903955	36.241610738255	8	0.266685695997439	2	5	4	NaN	1	3	0.0350874958816868	0	1	NaN	124	2	61	1	120	220	320	NaN	520	0.104016380020767	1	1	NaN	90594.7964529	NaN	90595.7798657	90596.29640022
1	19	0	0	90	36.1581920903955	36.241610738255	16	0.533371391994879	2	8	5	NaN	2	4	0.0350874958816868	0	1	NaN	125	2	62	1	120	220	320	NaN	520	0.367043422535062	2	1	NaN	90597.2133521	NaN	90598.1967559	90598.7133070775
1	19	0	0	90	36.1581920903955	36.241610738255	0	0	1	10	1	NaN	2	5	0.0350874958816868	0	1	NaN	126	2	63	1	110	210	310	NaN	510	0.315916422550799	2	1	NaN	90599.8969551	NaN	90600.8803671	90601.3969078775
1	19	0	0	90	36.1581920903955	36.241610738255	8	0.266685695997439	2	2	1	NaN	1	4	0.0350874958816868	0	1	NaN	127	3	1	1	120	220	320	NaN	520	0.733675322539057	2	0	NaN	90606.2308797	NaN	90607.2143094	90607.7308663775
1	19	0	0	90	36.1581920903955	36.241610738255	22	0.733385663992958	2	4	1	NaN	1	4	0.0350874958816868	0	1	NaN	128	3	2	1	120	220	320	NaN	520	0.467391622543801	2	0	NaN	90609.2812155	NaN	90610.2646061	90610.7811538775
1	19	0	0	90	36.1581920903955	36.241610738255	8	0.266685695997439	2	1	2	NaN	1	5	0.0350874958816868	0	1	NaN	129	3	3	1	120	220	320	NaN	520	1.38014752253366	2	0	NaN	90612.0648197	NaN	90613.0482142	90613.5647649775
1	19	0	0	90	36.1581920903955	36.241610738255	10	0.333357119996799	2	5	5	NaN	1	4	0.0350874958816868	0	1	NaN	130	3	4	1	120	220	320	NaN	520	0.303162822528975	2	0	NaN	90615.7650435	NaN	90616.7485617	90617.2651326775
1	19	0	0	90	36.1581920903955	36.241610738255	0	0	1	3	2	NaN	1	3	0.0350874958816868	0	1	NaN	131	3	5	1	110	210	310	NaN	510	0.368358422536403	1	1	NaN	90618.7321633	NaN	90619.7155442	90620.2320961775
1	19	0	0	90	36.1581920903955	36.241610738255	6	0.200014271998079	2	10	5	NaN	2	4	0.0350874958816868	0	1	NaN	132	3	6	1	120	220	320	NaN	520	0.277176637522643	1	0	NaN	90621.4157448	NaN	90622.3991267	90622.9156879625
1	19	0	0	90	36.1581920903955	36.241610738255	16	0.533371391994879	2	6	3	NaN	1	3	0.0350874958816868	0	1	NaN	133	3	7	1	120	220	320	NaN	520	0.331846270040842	1	1	NaN	90624.2325567	NaN	90625.216098	90625.73262873
1	19	0	0	90	36.1581920903955	36.241610738255	17	0.566707103994558	2	9	4	NaN	2	4	0.0350874958816868	0	1	NaN	134	3	8	1	120	220	320	NaN	520	0.24221222253982	2	1	NaN	90626.8662819	NaN	90627.8497197	90628.3662269775
1	19	0	0	90	36.1581920903955	36.241610738255	11	0.366692831996479	2	11	4	NaN	2	5	0.0350874958816868	0	1	NaN	135	3	9	1	120	220	320	NaN	520	0.3402042700327	2	1	NaN	90629.4165383	NaN	90630.3999133	90630.91647593
1	19	0	0	90	36.1581920903955	36.241610738255	21	0.700049951993278	2	8	3	NaN	2	3	0.0350874958816868	0	1	NaN	136	3	10	1	120	220	320	NaN	520	0.473728122538887	2	1	NaN	90632.0668763	NaN	90633.0501875	90633.5667337775
1	19	0	0	90	36.1581920903955	36.241610738255	13	0.433364255995839	2	12	2	NaN	2	5	0.0350874958816868	0	1	NaN	137	3	11	1	120	220	320	NaN	520	0.506056470025214	2	1	NaN	90634.850387	NaN	90635.8337874	90636.35034603
1	19	0	0	90	36.1581920903955	36.241610738255	11	0.366692831996479	2	7	4	NaN	2	3	0.0350874958816868	0	1	NaN	138	3	12	1	120	220	320	NaN	520	0.217262270045467	2	1	NaN	90637.6673271	NaN	90638.6507383	90639.16728973
1	19	0	0	90	36.1581920903955	36.241610738255	12	0.400028543996159	2	9	5	NaN	2	4	0.0350874958816868	0	1	NaN	139	3	13	1	120	220	320	NaN	520	0.323766222543782	2	1	NaN	90640.2009109	NaN	90641.1843037	90641.7008733775
1	19	0	0	90	36.1581920903955	36.241610738255	19	0.633378527993918	2	4	2	NaN	1	3	0.0350874958816868	0	1	NaN	140	3	14	1	120	220	320	NaN	520	0.235213407548144	1	1	NaN	90643.6011327	NaN	90644.584639	90645.1012050924
1	19	0	0	90	36.1581920903955	36.241610738255	18	0.600042815994238	2	10	1	NaN	2	5	0.0350874958816868	0	1	NaN	141	3	15	1	120	220	320	NaN	520	0.299544670036994	2	1	NaN	90646.5848701	NaN	90647.5682764	90648.08483373
1	19	0	0	90	36.1581920903955	36.241610738255	13	0.433364255995839	2	9	6	NaN	2	5	0.0350874958816868	0	1	NaN	142	3	16	1	120	220	320	NaN	520	0.227010222544777	2	1	NaN	90649.2018066	NaN	90650.1851964	90650.7017606775
1	19	0	0	90	36.1581920903955	36.241610738255	10	0.333357119996799	2	10	2	NaN	2	5	0.0350874958816868	0	1	NaN	143	3	17	1	120	220	320	NaN	520	0.197226722535561	2	1	NaN	90651.7353973	NaN	90652.7188379	90653.2353439775
1	19	0	0	90	36.1581920903955	36.241610738255	12	0.400028543996159	2	11	4	NaN	2	3	0.0350874958816868	0	1	NaN	144	3	18	1	120	220	320	NaN	520	0.197827922544093	2	1	NaN	90654.5189892	NaN	90655.5024354	90656.0189486775
1	19	0	0	90	36.1581920903955	36.241610738255	19	0.633378527993918	2	8	1	NaN	2	4	0.0350874958816868	0	1	NaN	145	3	19	1	120	220	320	NaN	520	0.27306492254138	2	1	NaN	90657.0359155	NaN	90658.0192993	90658.5358622775
1	19	0	0	90	36.1581920903955	36.241610738255	25	0.833392799991998	2	12	5	NaN	2	5	0.0350874958816868	0	1	NaN	146	3	20	1	120	220	320	NaN	520	0.809018622545409	2	1	NaN	90659.6194963	NaN	90660.6028954	90661.1194494775
1	19	0	0	90	36.1581920903955	36.241610738255	22	0.733385663992958	2	11	2	NaN	2	4	0.0350874958816868	0	1	NaN	147	3	21	1	120	220	320	NaN	520	0.363981670030626	2	1	NaN	90662.7364782	NaN	90663.7198724	90664.23641423
1	19	0	0	90	36.1581920903955	36.241610738255	13	0.433364255995839	2	10	2	NaN	2	3	0.0350874958816868	0	1	NaN	148	3	22	1	120	220	320	NaN	520	0.0812188750278438	1	0	NaN	90665.4033912	NaN	90666.3867875	90666.903346725
1	19	0	0	90	36.1581920903955	36.241610738255	18	0.600042815994238	2	11	4	NaN	2	4	0.0350874958816868	0	1	NaN	149	3	23	1	120	220	320	NaN	520	0.257565222549601	2	1	NaN	90667.7868448	NaN	90668.770378	90669.2869217775
1	19	0	0	90	36.1581920903955	36.241610738255	14	0.466699967995519	2	7	6	NaN	2	5	0.0350874958816868	0	1	NaN	150	3	24	1	120	220	320	NaN	520	0.636647590014036	1	0	NaN	90670.7039117	NaN	90671.6873474	90672.20388041
1	19	0	0	90	36.1581920903955	36.241610738255	10	0.333357119996799	2	12	6	NaN	2	4	0.0350874958816868	0	1	NaN	151	3	25	1	120	220	320	NaN	520	0.404016770029557	2	1	NaN	90673.7202521	NaN	90674.7042953	90675.22082633
1	19	0	0	90	36.1581920903955	36.241610738255	23	0.766721375992638	2	2	5	NaN	1	4	0.0350874958816868	0	1	NaN	152	3	26	1	120	220	320	NaN	520	0.247124922549119	2	0	NaN	90676.4378197	NaN	90677.4212156	90677.9377670775
1	19	0	0	90	36.1581920903955	36.241610738255	7	0.233349983997759	2	4	1	NaN	1	4	0.0350874958816868	0	1	NaN	153	3	27	1	120	220	320	NaN	520	0.343203522541444	2	0	NaN	90679.2214314	NaN	90680.2048268	90680.7213796775
1	19	0	0	90	36.1581920903955	36.241610738255	25	0.833392799991998	2	4	3	NaN	1	4	0.0350874958816868	0	1	NaN	154	3	28	1	120	220	320	NaN	520	0.156933270031004	1	1	NaN	90681.8716831	NaN	90682.8551357	90683.37163143
1	19	0	0	90	36.1581920903955	36.241610738255	6	0.200014271998079	2	7	5	NaN	2	5	0.0350874958816868	0	1	NaN	155	3	29	1	120	220	320	NaN	520	0.578075112556689	2	1	NaN	90684.3386052	NaN	90685.3219778	90685.8385491875
1	19	0	0	90	36.1581920903955	36.241610738255	13	0.433364255995839	2	4	5	NaN	1	5	0.0350874958816868	0	1	NaN	156	3	30	1	120	220	320	NaN	520	0.214352022536332	1	1	NaN	90687.222233	NaN	90688.2056149	90688.7221558775
1	19	0	0	90	36.1581920903955	36.241610738255	19	0.633378527993918	2	11	1	NaN	2	5	0.0350874958816868	0	1	NaN	157	3	31	1	120	220	320	NaN	520	0.225409770035185	1	0	NaN	90689.7392176	NaN	90690.7225314	90691.23907283
1	19	0	0	90	36.1581920903955	36.241610738255	21	0.700049951993278	2	4	1	NaN	1	5	0.0350874958816868	0	1	NaN	158	3	32	1	120	220	320	NaN	520	0.260189722539508	1	1	NaN	90692.2726997	NaN	90693.2561023	90693.7726638775
1	19	0	0	90	36.1581920903955	36.241610738255	13	0.433364255995839	2	6	1	NaN	1	5	0.0350874958816868	0	1	NaN	159	3	33	1	120	220	320	NaN	520	0.188964522531023	2	0	NaN	90694.8396261	NaN	90695.8230261	90696.3395847775
1	19	0	0	90	36.1581920903955	36.241610738255	21	0.700049951993278	2	6	4	NaN	1	4	0.0350874958816868	0	1	NaN	160	3	34	1	120	220	320	NaN	520	0.256615522535867	1	1	NaN	90697.3398302	NaN	90698.3232625	90698.8398286775
1	19	0	0	90	36.1581920903955	36.241610738255	13	0.433364255995839	2	9	4	NaN	2	4	0.0350874958816868	0	1	NaN	161	3	35	1	120	220	320	NaN	520	0.1859006700397	1	0	NaN	90699.9067911	NaN	90700.8901929	90701.40674733
1	19	0	0	90	36.1581920903955	36.241610738255	11	0.366692831996479	2	9	3	NaN	2	5	0.0350874958816868	0	1	NaN	162	3	36	1	120	220	320	NaN	520	0.28551972254354	2	1	NaN	90702.4070299	NaN	90703.3904283	90703.9069857775
1	19	0	0	90	36.1581920903955	36.241610738255	15	0.500035679995199	2	8	3	NaN	2	5	0.0350874958816868	0	1	NaN	163	3	37	1	120	220	320	NaN	520	0.0774422325048363	2	1	NaN	90705.0073086	NaN	90705.9907091	90706.5072445675
1	19	0	0	90	36.1581920903955	36.241610738255	0	0	1	4	5	NaN	1	4	0.0350874958816868	0	1	NaN	164	3	38	1	110	210	310	NaN	510	0.140744942502351	1	1	NaN	90707.6240999	NaN	90708.6076135	90709.1241778575
1	19	0	0	90	36.1581920903955	36.241610738255	9	0.300021407997119	2	11	1	NaN	2	5	0.0350874958816868	0	1	NaN	165	3	39	1	120	220	320	NaN	520	0.337901670034626	2	1	NaN	90710.091009	NaN	90711.0745431	90711.59109883
1	19	0	0	90	36.1581920903955	36.241610738255	12	0.400028543996159	2	10	6	NaN	2	4	0.0350874958816868	0	1	NaN	166	3	40	1	120	220	320	NaN	520	0.263660522541613	2	1	NaN	90712.7413946	NaN	90713.724787	90714.2413430775
1	19	0	0	90	36.1581920903955	36.241610738255	20	0.666714239993598	2	7	4	NaN	2	5	0.0350874958816868	0	1	NaN	167	3	41	1	120	220	320	NaN	520	0.200170770040131	2	1	NaN	90717.1084935	NaN	90718.0918906	90718.60842863
1	19	0	0	90	36.1581920903955	36.241610738255	21	0.700049951993278	2	11	2	NaN	2	4	0.0350874958816868	0	1	NaN	168	3	42	1	120	220	320	NaN	520	0.211421507556224	2	1	NaN	90719.6253993	NaN	90720.6087975	90721.1253493924
1	19	0	0	90	36.1581920903955	36.241610738255	25	0.833392799991998	2	8	1	NaN	2	5	0.0350874958816868	0	1	NaN	169	3	43	1	120	220	320	NaN	520	0.27827192255063	1	0	NaN	90722.1423192	NaN	90723.1257198	90723.6422700775
1	19	0	0	90	36.1581920903955	36.241610738255	14	0.466699967995519	2	12	1	NaN	2	5	0.0350874958816868	0	1	NaN	170	3	44	1	120	220	320	NaN	520	0.430679822544334	2	1	NaN	90724.7258959	NaN	90725.7093015	90726.2258571775
1	19	0	0	90	36.1581920903955	36.241610738255	23	0.766721375992638	2	6	4	NaN	1	3	0.0350874958816868	0	1	NaN	171	3	45	1	120	220	320	NaN	520	0.0965694700425956	1	1	NaN	90727.4761911	NaN	90728.4595994	90728.97611833
1	19	0	0	90	36.1581920903955	36.241610738255	18	0.600042815994238	2	7	2	NaN	2	5	0.0350874958816868	0	1	NaN	172	3	46	1	120	220	320	NaN	520	0.19205907502328	2	1	NaN	90729.8764032	NaN	90730.8598068	90731.376365025
1	19	0	0	90	36.1581920903955	36.241610738255	20	0.666714239993598	2	11	2	NaN	2	5	0.0350874958816868	0	1	NaN	173	3	47	1	120	220	320	NaN	520	0.220392470044317	2	1	NaN	90732.3765953	NaN	90733.3600741	90733.87660923
1	19	0	0	90	36.1581920903955	36.241610738255	9	0.300021407997119	2	4	4	NaN	1	5	0.0350874958816868	0	1	NaN	174	3	48	1	120	220	320	NaN	520	0.734764922541217	1	1	NaN	90734.9102534	NaN	90735.8936384	90736.4101905775
1	19	0	0	90	36.1581920903955	36.241610738255	22	0.733385663992958	2	10	1	NaN	2	3	0.0350874958816868	0	1	NaN	175	3	49	1	120	220	320	NaN	520	0.18824402752216	2	1	NaN	90737.9606231	NaN	90738.9439387	90739.4604964725
1	19	0	0	90	36.1581920903955	36.241610738255	21	0.700049951993278	2	1	6	NaN	1	3	0.0350874958816868	0	1	NaN	176	3	50	1	120	220	320	NaN	520	0.263945770042483	2	0	NaN	90740.4607943	NaN	90741.4441925	90741.96072873
1	19	0	0	90	36.1581920903955	36.241610738255	8	0.266685695997439	2	10	5	NaN	2	4	0.0350874958816868	0	1	NaN	177	3	51	1	120	220	320	NaN	520	0.184218622540357	2	1	NaN	90743.0443591	NaN	90744.0277782	90744.5443240775
1	19	0	0	90	36.1581920903955	36.241610738255	20	0.666714239993598	2	1	2	NaN	1	4	0.0350874958816868	0	1	NaN	178	3	52	1	120	220	320	NaN	520	0.564211422533845	2	0	NaN	90745.544609	NaN	90746.5280145	90747.0445684775
1	19	0	0	90	36.1581920903955	36.241610738255	0	0	1	7	5	NaN	2	3	0.0350874958816868	0	1	NaN	179	3	53	1	110	210	310	NaN	510	0.264600522539695	1	0	NaN	90748.428236	NaN	90749.4116238	90749.9281914775
1	19	0	0	90	36.1581920903955	36.241610738255	20	0.666714239993598	2	6	5	NaN	1	3	0.0350874958816868	0	1	NaN	180	3	54	1	120	220	320	NaN	520	0.262571490005939	1	1	NaN	90751.2785005	NaN	90752.2619049	90752.77847441
1	19	0	0	90	36.1581920903955	36.241610738255	17	0.566707103994558	2	5	2	NaN	1	3	0.0350874958816868	0	1	NaN	181	3	55	1	120	220	320	NaN	520	0.223392070038244	2	0	NaN	90753.8453047	NaN	90754.8288388	90755.34537823
1	19	0	0	90	36.1581920903955	36.241610738255	23	0.766721375992638	2	5	6	NaN	1	3	0.0350874958816868	0	1	NaN	182	3	56	1	120	220	320	NaN	520	0.258073822536971	1	1	NaN	90756.3788884	NaN	90757.3624012	90757.8789650775
1	19	0	0	90	36.1581920903955	36.241610738255	9	0.300021407997119	2	3	6	NaN	1	4	0.0350874958816868	0	1	NaN	183	3	57	1	120	220	320	NaN	520	0.195090622539283	1	1	NaN	90758.9459486	NaN	90759.9293357	90760.4458915775
1	19	0	0	90	36.1581920903955	36.241610738255	13	0.433364255995839	2	8	4	NaN	2	3	0.0350874958816868	0	1	NaN	184	3	58	1	120	220	320	NaN	520	0.214867822549422	1	0	NaN	90761.4461816	NaN	90762.4295774	90762.9461320775
1	19	0	0	90	36.1581920903955	36.241610738255	10	0.333357119996799	2	1	1	NaN	1	3	0.0350874958816868	0	1	NaN	185	3	59	1	120	220	320	NaN	520	0.410583222546848	2	0	NaN	90764.1464696	NaN	90765.1298492	90765.6464036775
1	19	0	0	90	36.1581920903955	36.241610738255	22	0.733385663992958	2	8	3	NaN	2	4	0.0350874958816868	0	1	NaN	186	3	60	1	120	220	320	NaN	520	0.179001522541512	2	1	NaN	90766.9299253	NaN	90767.9134555	90768.4300099775
1	19	0	0	90	36.1581920903955	36.241610738255	12	0.400028543996159	2	7	5	NaN	2	3	0.0350874958816868	0	1	NaN	187	3	61	1	120	220	320	NaN	520	0.183388522549649	2	1	NaN	90769.4136525	NaN	90770.3970411	90770.9135878775
1	19	0	0	90	36.1581920903955	36.241610738255	10	0.333357119996799	2	6	1	NaN	1	4	0.0350874958816868	0	1	NaN	188	3	62	1	120	220	320	NaN	520	0.346727122538141	2	0	NaN	90771.9139044	NaN	90772.8973045	90773.4138327775
1	19	0	0	90	36.1581920903955	36.241610738255	8	0.266685695997439	2	6	4	NaN	1	4	0.0350874958816868	0	1	NaN	189	3	63	1	120	220	320	NaN	520	0.432607722526882	1	1	NaN	90774.5640247	NaN	90775.5474411	90776.0640948775
1	19	0	0	90	36.1581920903955	36.241610738255	20	0.666714239993598	2	2	2	NaN	1	3	0.0350874958816868	0	1	NaN	190	4	1	1	120	220	320	NaN	520	0.247456622542813	2	0	NaN	90780.5814192	NaN	90781.5648308	90782.0813552775
1	19	0	0	90	36.1581920903955	36.241610738255	18	0.600042815994238	2	3	4	NaN	1	4	0.0350874958816868	0	1	NaN	191	4	2	1	120	220	320	NaN	520	0.137184770035674	1	1	NaN	90783.1315202	NaN	90784.1150489	90784.63159473
1	19	0	0	90	36.1581920903955	36.241610738255	10	0.333357119996799	2	8	2	NaN	2	4	0.0350874958816868	0	1	NaN	192	4	3	1	120	220	320	NaN	520	0.239237170040724	2	1	NaN	90785.5818965	NaN	90786.5652902	90787.08183543
1	19	0	0	90	36.1581920903955	36.241610738255	8	0.266685695997439	2	10	5	NaN	2	5	0.0350874958816868	0	1	NaN	193	4	4	1	120	220	320	NaN	520	0.208743522540317	1	0	NaN	90788.1321415	NaN	90789.1157041	90789.6320950775
1	19	0	0	90	36.1581920903955	36.241610738255	16	0.533371391994879	2	10	2	NaN	2	4	0.0350874958816868	0	1	NaN	194	4	5	1	120	220	320	NaN	520	0.179592722546658	2	1	NaN	90790.6490631	NaN	90791.6324378	90792.1490025775
1	19	0	0	90	36.1581920903955	36.241610738255	22	0.733385663992958	2	11	1	NaN	2	5	0.0350874958816868	0	1	NaN	195	4	6	1	120	220	320	NaN	520	0.778047322528437	2	1	NaN	90793.4826504	NaN	90794.4660626	90794.9826232775
1	19	0	0	90	36.1581920903955	36.241610738255	25	0.833392799991998	2	4	6	NaN	1	5	0.0350874958816868	0	1	NaN	196	4	7	1	120	220	320	NaN	520	0.0385550700302701	2	0	NaN	90796.5663092	NaN	90797.5497095	90798.06624813
1	19	0	0	90	36.1581920903955	36.241610738255	14	0.466699967995519	2	11	6	NaN	2	4	0.0350874958816868	0	1	NaN	197	4	8	1	120	220	320	NaN	520	0.208465622534277	1	0	NaN	90798.9165922	NaN	90799.8999316	90800.4164883775
1	19	0	0	90	36.1581920903955	36.241610738255	12	0.400028543996159	2	12	1	NaN	2	3	0.0350874958816868	0	1	NaN	198	4	9	1	120	220	320	NaN	520	0.200017870040028	2	1	NaN	90801.5167681	NaN	90802.500179	90803.01674533
1	19	0	0	90	36.1581920903955	36.241610738255	7	0.233349983997759	2	1	6	NaN	1	5	0.0350874958816868	0	1	NaN	199	4	10	1	120	220	320	NaN	520	0.331392022533691	1	1	NaN	90804.0337025	NaN	90805.0170913	90805.5336604775
1	19	0	0	90	36.1581920903955	36.241610738255	20	0.666714239993598	2	12	2	NaN	2	5	0.0350874958816868	0	1	NaN	200	4	11	1	120	220	320	NaN	520	0.271238770044874	2	1	NaN	90806.7339893	NaN	90807.7173634	90808.23391433
1	19	0	0	90	36.1581920903955	36.241610738255	8	0.266685695997439	2	12	4	NaN	2	4	0.0350874958816868	0	1	NaN	201	4	12	1	120	220	320	NaN	520	0.0952687225362752	2	1	NaN	90809.3175677	NaN	90810.3009612	90810.8175152775
1	19	0	0	90	36.1581920903955	36.241610738255	18	0.600042815994238	2	9	1	NaN	2	5	0.0350874958816868	0	1	NaN	202	4	13	1	120	220	320	NaN	520	0.174423570031649	2	1	NaN	90812.1345241	NaN	90813.1179152	90813.63444683
1	19	0	0	90	36.1581920903955	36.241610738255	19	0.633378527993918	2	1	4	NaN	1	3	0.0350874958816868	0	1	NaN	203	4	14	1	120	220	320	NaN	520	0.0500732700311346	2	0	NaN	90815.2347793	NaN	90816.2182067	90816.73475363
1	19	0	0	90	36.1581920903955	36.241610738255	24	0.800057087992318	2	12	3	NaN	2	5	0.0350874958816868	0	1	NaN	204	4	15	1	120	220	320	NaN	520	0.921482522535371	2	1	NaN	90817.8516279	NaN	90818.8351331	90819.3517113775
1	19	0	0	90	36.1581920903955	36.241610738255	13	0.433364255995839	2	11	2	NaN	2	4	0.0350874958816868	0	1	NaN	205	4	16	1	120	220	320	NaN	520	0.0633343700319529	1	0	NaN	90821.0853863	NaN	90822.0687778	90822.58532483
1	19	0	0	90	36.1581920903955	36.241610738255	15	0.500035679995199	2	7	4	NaN	2	4	0.0350874958816868	0	1	NaN	206	4	17	1	120	220	320	NaN	520	0.285283070043079	1	0	NaN	90823.5356332	NaN	90824.5190433	90825.03557283
1	19	0	0	90	36.1581920903955	36.241610738255	7	0.233349983997759	2	10	3	NaN	2	5	0.0350874958816868	0	1	NaN	207	4	18	1	120	220	320	NaN	520	0.212962422534474	2	1	NaN	90826.1358752	NaN	90827.1192781	90827.6358340775
1	19	0	0	90	36.1581920903955	36.241610738255	9	0.300021407997119	2	12	1	NaN	2	5	0.0350874958816868	0	1	NaN	208	4	19	1	120	220	320	NaN	520	0.311417170029017	1	0	NaN	90828.6694505	NaN	90829.6528603	90830.16940993
1	19	0	0	90	36.1581920903955	36.241610738255	23	0.766721375992638	2	7	3	NaN	2	5	0.0350874958816868	0	1	NaN	209	4	20	1	120	220	320	NaN	520	0.309784822544316	2	1	NaN	90831.303056	NaN	90832.2864658	90832.8030088775
1	19	0	0	90	36.1581920903955	36.241610738255	18	0.600042815994238	2	3	3	NaN	1	5	0.0350874958816868	0	1	NaN	210	4	21	1	120	220	320	NaN	520	0.432253317543655	2	0	NaN	90834.0366732	NaN	90835.0200607	90835.5366059825
1	19	0	0	90	36.1581920903955	36.241610738255	6	0.200014271998079	2	12	4	NaN	2	3	0.0350874958816868	0	1	NaN	211	4	22	1	120	220	320	NaN	520	0.353763022547355	1	0	NaN	90836.7869228	NaN	90837.770317	90838.2868773775
1	19	0	0	90	36.1581920903955	36.241610738255	23	0.766721375992638	2	8	2	NaN	2	4	0.0350874958816868	0	1	NaN	212	4	23	1	120	220	320	NaN	520	0.263278070036904	2	1	NaN	90839.453848	NaN	90840.4372729	90840.95380903
1	19	0	0	90	36.1581920903955	36.241610738255	19	0.633378527993918	2	4	5	NaN	1	3	0.0350874958816868	0	1	NaN	213	4	24	1	120	220	320	NaN	520	0.196111870041932	2	0	NaN	90842.1206647	NaN	90843.1041753	90843.62072793
1	19	0	0	90	36.1581920903955	36.241610738255	8	0.266685695997439	2	8	2	NaN	2	4	0.0350874958816868	0	1	NaN	214	4	25	1	120	220	320	NaN	520	0.135501470038434	2	1	NaN	90844.6378299	NaN	90845.6211013	90846.13764243
1	19	0	0	90	36.1581920903955	36.241610738255	6	0.200014271998079	2	6	5	NaN	1	3	0.0350874958816868	0	1	NaN	215	4	26	1	120	220	320	NaN	520	0.236819522542646	1	1	NaN	90847.0879437	NaN	90848.071332	90848.5878959775
1	19	0	0	90	36.1581920903955	36.241610738255	11	0.366692831996479	2	8	3	NaN	2	5	0.0350874958816868	0	1	NaN	216	4	27	1	120	220	320	NaN	520	0.335003675034386	1	0	NaN	90849.6382113	NaN	90850.6215927	90851.138146025
1	19	0	0	90	36.1581920903955	36.241610738255	10	0.333357119996799	2	12	2	NaN	2	3	0.0350874958816868	0	1	NaN	217	4	28	1	120	220	320	NaN	520	0.204493990007904	2	1	NaN	90852.2884424	NaN	90853.27185	90853.78840471
1	19	0	0	90	36.1581920903955	36.241610738255	18	0.600042815994238	2	9	6	NaN	2	4	0.0350874958816868	0	1	NaN	218	4	29	1	120	220	320	NaN	520	0.0636656225397019	1	0	NaN	90854.8053782	NaN	90855.7887702	90856.3053219775
1	19	0	0	90	36.1581920903955	36.241610738255	21	0.700049951993278	2	4	6	NaN	1	3	0.0350874958816868	0	1	NaN	219	4	30	1	120	220	320	NaN	520	0.0959306225413457	2	0	NaN	90857.188809	NaN	90858.1723311	90858.6888849775
1	19	0	0	90	36.1581920903955	36.241610738255	12	0.400028543996159	2	6	2	NaN	1	3	0.0350874958816868	0	1	NaN	220	4	31	1	120	220	320	NaN	520	0.351223470031982	2	0	NaN	90859.6058359	NaN	90860.5892919	90861.10578113
1	19	0	0	90	36.1581920903955	36.241610738255	9	0.300021407997119	2	6	3	NaN	1	3	0.0350874958816868	0	1	NaN	221	4	32	1	120	220	320	NaN	520	0.180237022534129	1	1	NaN	90862.2727796	NaN	90863.2561559	90863.7727475775
1	19	0	0	90	36.1581920903955	36.241610738255	9	0.300021407997119	2	9	3	NaN	2	4	0.0350874958816868	0	1	NaN	222	4	33	1	120	220	320	NaN	520	0.208490275021177	2	1	NaN	90865.1564072	NaN	90866.1397832	90866.656336125
1	19	0	0	90	36.1581920903955	36.241610738255	16	0.533371391994879	2	6	6	NaN	1	5	0.0350874958816868	0	1	NaN	223	4	34	1	120	220	320	NaN	520	0.379657070036046	2	0	NaN	90867.6732984	NaN	90868.6566949	90869.17324603
1	19	0	0	90	36.1581920903955	36.241610738255	19	0.633378527993918	2	6	6	NaN	1	5	0.0350874958816868	0	1	NaN	224	4	35	1	120	220	320	NaN	520	0.0800519175245427	1	1	NaN	90870.3569126	NaN	90871.3403041	90871.8568471825
1	19	0	0	90	36.1581920903955	36.241610738255	6	0.200014271998079	2	5	6	NaN	1	5	0.0350874958816868	0	1	NaN	225	4	36	1	120	220	320	NaN	520	0.0958486650488339	1	1	NaN	90872.7570609	NaN	90873.7405292	90874.2570762349
1	19	0	0	90	36.1581920903955	36.241610738255	21	0.700049951993278	2	5	4	NaN	1	4	0.0350874958816868	0	1	NaN	226	4	37	1	120	220	320	NaN	520	0.218293832513154	1	1	NaN	90875.4907288	NaN	90876.4741627	90876.9906849675
1	19	0	0	90	36.1581920903955	36.241610738255	0	0	1	9	3	NaN	2	5	0.0350874958816868	0	1	NaN	227	4	38	1	110	210	310	NaN	510	0.23666857003991	1	0	NaN	90878.0243164	NaN	90879.0077264	90879.52426523
1	19	0	0	90	36.1581920903955	36.241610738255	24	0.800057087992318	2	10	3	NaN	2	4	0.0350874958816868	0	1	NaN	228	4	39	1	120	220	320	NaN	520	0.198659865054651	1	0	NaN	90880.5745946	NaN	90881.5579725	90882.0745177349
1	19	0	0	90	36.1581920903955	36.241610738255	20	0.666714239993598	2	3	5	NaN	1	3	0.0350874958816868	0	1	NaN	229	4	40	1	120	220	320	NaN	520	0.0734738550527254	2	0	NaN	90883.0914805	NaN	90884.0748833	90884.5914233449
1	19	0	0	90	36.1581920903955	36.241610738255	6	0.200014271998079	2	1	1	NaN	1	4	0.0350874958816868	0	1	NaN	230	4	41	1	120	220	320	NaN	520	0.0104070700472221	1	1	NaN	90885.4750648	NaN	90886.4584636	90886.97499313
1	19	0	0	90	36.1581920903955	36.241610738255	9	0.300021407997119	2	8	6	NaN	2	3	0.0350874958816868	0	1	NaN	231	4	42	1	120	220	320	NaN	520	0.372614722538856	1	0	NaN	90887.8086207	NaN	90888.7920275	90889.3085608775
1	19	0	0	90	36.1581920903955	36.241610738255	0	0	1	11	6	NaN	2	5	0.0350874958816868	0	1	NaN	232	4	43	1	110	210	310	NaN	510	0.160523222541087	2	1	NaN	90890.4922185	NaN	90891.4756109	90891.9921671775
1	19	0	0	90	36.1581920903955	36.241610738255	11	0.366692831996479	2	5	6	NaN	1	3	0.0350874958816868	0	1	NaN	233	4	44	1	120	220	320	NaN	520	0.270160922547802	1	1	NaN	90892.9590136	NaN	90893.9425868	90894.4590773775
1	19	0	0	90	36.1581920903955	36.241610738255	16	0.533371391994879	2	5	6	NaN	1	5	0.0350874958816868	0	1	NaN	234	4	45	1	120	220	320	NaN	520	0.206227570030023	1	1	NaN	90895.5427173	NaN	90896.5260993	90897.04265183
1	19	0	0	90	36.1581920903955	36.241610738255	16	0.533371391994879	2	12	1	NaN	2	4	0.0350874958816868	0	1	NaN	235	4	46	1	120	220	320	NaN	520	0.10534822253976	1	0	NaN	90898.0596304	NaN	90899.0430409	90899.5595754775
1	19	0	0	90	36.1581920903955	36.241610738255	21	0.700049951993278	2	12	5	NaN	2	4	0.0350874958816868	0	1	NaN	236	4	47	1	120	220	320	NaN	520	0.096608770036255	2	1	NaN	90900.4765284	NaN	90901.4599059	90901.97647013
1	19	0	0	90	36.1581920903955	36.241610738255	21	0.700049951993278	2	8	5	NaN	2	3	0.0350874958816868	0	1	NaN	237	4	48	1	120	220	320	NaN	520	0.143591032523545	2	1	NaN	90902.8934381	NaN	90903.8768296	90904.3933851675
1	19	0	0	90	36.1581920903955	36.241610738255	17	0.566707103994558	2	4	4	NaN	1	4	0.0350874958816868	0	1	NaN	238	4	49	1	120	220	320	NaN	520	0.381506817546324	2	0	NaN	90905.3436612	NaN	90906.3270842	90906.8436208825
1	19	0	0	90	36.1581920903955	36.241610738255	14	0.466699967995519	2	4	1	NaN	1	4	0.0350874958816868	0	1	NaN	239	4	50	1	120	220	320	NaN	520	0.466022122534923	2	0	NaN	90908.0272776	NaN	90909.0106413	90909.5272233775
1	19	0	0	90	36.1581920903955	36.241610738255	16	0.533371391994879	2	8	4	NaN	2	4	0.0350874958816868	0	1	NaN	240	4	51	1	120	220	320	NaN	520	1.10639807004191	2	1	NaN	90910.8108767	NaN	90911.7942655	90912.31082243
1	19	0	0	90	36.1581920903955	36.241610738255	18	0.600042815994238	2	7	1	NaN	2	3	0.0350874958816868	0	1	NaN	241	4	52	1	120	220	320	NaN	520	0.536961970035918	2	1	NaN	90914.2278717	NaN	90915.2112762	90915.72782363
1	19	0	0	90	36.1581920903955	36.241610738255	19	0.633378527993918	2	8	2	NaN	2	3	0.0350874958816868	0	1	NaN	242	4	53	1	120	220	320	NaN	520	0.190435327531304	2	1	NaN	90917.2948629	NaN	90918.2782239	90918.7947975725
1	19	0	0	90	36.1581920903955	36.241610738255	17	0.566707103994558	2	12	6	NaN	2	5	0.0350874958816868	0	1	NaN	243	4	54	1	120	220	320	NaN	520	0.273285522533115	2	1	NaN	90920.0117945	NaN	90920.9951654	90921.5117331775
1	19	0	0	90	36.1581920903955	36.241610738255	24	0.800057087992318	2	2	3	NaN	1	5	0.0350874958816868	0	1	NaN	244	4	55	1	120	220	320	NaN	520	0.201349170034518	1	1	NaN	90922.5953636	NaN	90923.5787584	90924.09531153
1	19	0	0	90	36.1581920903955	36.241610738255	25	0.833392799991998	2	11	1	NaN	2	3	0.0350874958816868	0	1	NaN	245	4	56	1	120	220	320	NaN	520	0.250881170039065	2	1	NaN	90925.3622827	NaN	90926.3457046	90926.86225253
1	19	0	0	90	36.1581920903955	36.241610738255	25	0.833392799991998	2	5	2	NaN	1	4	0.0350874958816868	0	1	NaN	246	4	57	1	120	220	320	NaN	520	0.275790070038056	1	1	NaN	90927.9292142	NaN	90928.9126151	90929.42917133
1	19	0	0	90	36.1581920903955	36.241610738255	6	0.200014271998079	2	4	2	NaN	1	3	0.0350874958816868	0	1	NaN	247	4	58	1	120	220	320	NaN	520	0.132422370035783	2	0	NaN	90930.5128264	NaN	90931.4962061	90932.01276193
1	19	0	0	90	36.1581920903955	36.241610738255	24	0.800057087992318	2	11	2	NaN	2	4	0.0350874958816868	0	1	NaN	248	4	59	1	120	220	320	NaN	520	0.329213422548492	2	1	NaN	90933.1796569	NaN	90934.1631274	90934.6797003775
1	19	0	0	90	36.1581920903955	36.241610738255	20	0.666714239993598	2	5	4	NaN	1	5	0.0350874958816868	0	1	NaN	249	4	60	1	120	220	320	NaN	520	0.287742112544947	1	1	NaN	90935.8133513	NaN	90936.7967576	90937.3132871875
1	19	0	0	90	36.1581920903955	36.241610738255	24	0.800057087992318	2	6	3	NaN	1	4	0.0350874958816868	0	1	NaN	250	4	61	1	120	220	320	NaN	520	0.255616189999273	1	1	NaN	90938.4135726	NaN	90939.3969795	90939.91354811
1	19	0	0	90	36.1581920903955	36.241610738255	13	0.433364255995839	2	6	5	NaN	1	4	0.0350874958816868	0	1	NaN	251	4	62	1	120	220	320	NaN	520	0.215785022533964	1	1	NaN	90940.997175	NaN	90941.9806105	90942.4971377775
1	19	0	0	90	36.1581920903955	36.241610738255	20	0.666714239993598	2	6	1	NaN	1	3	0.0350874958816868	0	1	NaN	252	4	63	1	120	220	320	NaN	520	0.210045922533027	2	0	NaN	90943.5307493	NaN	90944.5141672	90945.0307178775
1	19	0	0	90	36.1581920903955	36.241610738255	0	0	1	6	6	NaN	1	3	0.0350874958816868	0	1	NaN	253	5	1	1	110	210	310	NaN	510	0.253752470045583	1	1	NaN	90949.0311726	NaN	90950.0147081	90950.53124983
1	19	0	0	90	36.1581920903955	36.241610738255	22	0.733385663992958	2	6	6	NaN	1	5	0.0350874958816868	0	1	NaN	254	5	2	1	120	220	320	NaN	520	0.247134922537953	1	1	NaN	90951.5982906	NaN	90952.5816396	90953.0981745775
1	19	0	0	90	36.1581920903955	36.241610738255	20	0.666714239993598	2	10	3	NaN	2	5	0.0350874958816868	0	1	NaN	255	5	3	1	120	220	320	NaN	520	0.18848757003434	2	1	NaN	90954.2484655	NaN	90955.2318658	90955.74842953
1	19	0	0	90	36.1581920903955	36.241610738255	11	0.366692831996479	2	4	3	NaN	1	4	0.0350874958816868	0	1	NaN	256	5	4	1	120	220	320	NaN	520	0.304238370037638	2	0	NaN	90956.7487696	NaN	90957.7321356	90958.24867473
1	19	0	0	90	36.1581920903955	36.241610738255	21	0.700049951993278	2	10	2	NaN	2	3	0.0350874958816868	0	1	NaN	257	5	5	1	120	220	320	NaN	520	0.247635322535643	1	0	NaN	90959.3656598	NaN	90960.3490545	90960.8656072775
1	19	0	0	90	36.1581920903955	36.241610738255	6	0.200014271998079	2	2	5	NaN	1	3	0.0350874958816868	0	1	NaN	258	5	6	1	120	220	320	NaN	520	0.214732722539338	2	0	NaN	90962.1825948	NaN	90963.1660003	90963.6825447775
1	19	0	0	90	36.1581920903955	36.241610738255	15	0.500035679995199	2	10	1	NaN	2	5	0.0350874958816868	0	1	NaN	259	5	7	1	120	220	320	NaN	520	0.248643022539909	2	1	NaN	90964.7161917	NaN	90965.699634	90966.2161338775
1	19	0	0	90	36.1581920903955	36.241610738255	0	0	1	8	5	NaN	2	3	0.0350874958816868	0	1	NaN	260	5	8	1	110	210	310	NaN	510	0.233826422540005	1	0	NaN	90967.2831121	NaN	90968.2664994	90968.7830481775
1	19	0	0	90	36.1581920903955	36.241610738255	16	0.533371391994879	2	2	1	NaN	1	5	0.0350874958816868	0	1	NaN	261	5	9	1	120	220	320	NaN	520	0.111110470024869	2	0	NaN	90969.9500626	NaN	90970.9334196	90971.44997073
1	19	0	0	90	36.1581920903955	36.241610738255	17	0.566707103994558	2	1	4	NaN	1	5	0.0350874958816868	0	1	NaN	262	5	10	1	120	220	320	NaN	520	1.02218017003906	2	0	NaN	90972.5668362	NaN	90973.5503442	90974.06689573
1	19	0	0	90	36.1581920903955	36.241610738255	6	0.200014271998079	2	7	1	NaN	2	3	0.0350874958816868	0	1	NaN	263	5	11	1	120	220	320	NaN	520	0.54634747003729	2	1	NaN	90976.0505136	NaN	90977.0340338	90977.55058043
1	19	0	0	90	36.1581920903955	36.241610738255	15	0.500035679995199	2	3	5	NaN	1	4	0.0350874958816868	0	1	NaN	264	5	12	1	120	220	320	NaN	520	0.279505722544855	1	1	NaN	90978.9175884	NaN	90979.9009629	90980.4175284775
1	19	0	0	90	36.1581920903955	36.241610738255	11	0.366692831996479	2	6	3	NaN	1	5	0.0350874958816868	0	1	NaN	265	5	13	1	120	220	320	NaN	520	0.215529070046614	1	1	NaN	90981.71783	NaN	90982.7012516	90983.21779393
1	19	0	0	90	36.1581920903955	36.241610738255	10	0.333357119996799	2	9	6	NaN	2	5	0.0350874958816868	0	1	NaN	266	5	14	1	120	220	320	NaN	520	0.265548742507235	2	1	NaN	90984.2514484	NaN	90985.234831	90985.7513909575
1	19	0	0	90	36.1581920903955	36.241610738255	20	0.666714239993598	2	8	3	NaN	2	4	0.0350874958816868	0	1	NaN	267	5	15	1	120	220	320	NaN	520	0.386419322545407	1	0	NaN	90986.8350229	NaN	90987.8184183	90988.3349777775
1	19	0	0	90	36.1581920903955	36.241610738255	23	0.766721375992638	2	5	1	NaN	1	4	0.0350874958816868	0	1	NaN	268	5	16	1	120	220	320	NaN	520	0.0418095225322759	1	1	NaN	90989.8353041	NaN	90990.8187059	90991.3352730775
1	19	0	0	90	36.1581920903955	36.241610738255	7	0.233349983997759	2	7	3	NaN	2	3	0.0350874958816868	0	1	NaN	269	5	17	1	120	220	320	NaN	520	0.179474322532769	2	1	NaN	90992.1855673	NaN	90993.1689516	90993.6855049775
1	19	0	0	90	36.1581920903955	36.241610738255	21	0.700049951993278	2	6	4	NaN	1	4	0.0350874958816868	0	1	NaN	270	5	18	1	120	220	320	NaN	520	0.191340122531983	1	1	NaN	90994.6857916	NaN	90995.6691955	90996.1857481775
1	19	0	0	90	36.1581920903955	36.241610738255	14	0.466699967995519	2	1	4	NaN	1	5	0.0350874958816868	0	1	NaN	271	5	19	1	120	220	320	NaN	520	0.250973322545178	1	1	NaN	90997.186054	NaN	90998.169445	90998.6859952775
1	19	0	0	90	36.1581920903955	36.241610738255	22	0.733385663992958	2	9	5	NaN	2	4	0.0350874958816868	0	1	NaN	272	5	20	1	120	220	320	NaN	520	0.211491580019356	2	1	NaN	90999.7696039	NaN	91000.7530125	91001.26957462
1	19	0	0	90	36.1581920903955	36.241610738255	13	0.433364255995839	2	3	5	NaN	1	5	0.0350874958816868	0	1	NaN	273	5	21	1	120	220	320	NaN	520	0.294591422541998	2	0	NaN	91002.2865381	NaN	91003.2699403	91003.7864984775
1	19	0	0	90	36.1581920903955	36.241610738255	15	0.500035679995199	2	8	2	NaN	2	5	0.0350874958816868	0	1	NaN	274	5	22	1	120	220	320	NaN	520	0.373239875028958	2	1	NaN	91004.9200665	NaN	91005.9035341	91006.420077225
1	19	0	0	90	36.1581920903955	36.241610738255	11	0.366692831996479	2	5	1	NaN	1	3	0.0350874958816868	0	1	NaN	275	5	23	1	120	220	320	NaN	520	0.0104089700325858	1	1	NaN	91007.6870669	NaN	91008.6704908	91009.18701493
1	19	0	0	90	36.1581920903955	36.241610738255	8	0.266685695997439	2	4	3	NaN	1	3	0.0350874958816868	0	1	NaN	276	5	24	1	120	220	320	NaN	520	0.17717512253148	1	1	NaN	91010.0040562	NaN	91010.9873748	91011.5039220775
1	19	0	0	90	36.1581920903955	36.241610738255	15	0.500035679995199	2	11	3	NaN	2	5	0.0350874958816868	0	1	NaN	277	5	25	1	120	220	320	NaN	520	0.197256207567989	2	1	NaN	91012.4875558	NaN	91013.4709548	91013.9874981924
1	19	0	0	90	36.1581920903955	36.241610738255	11	0.366692831996479	2	1	3	NaN	1	4	0.0350874958816868	0	1	NaN	278	5	26	1	120	220	320	NaN	520	0.448624975018902	1	1	NaN	91015.004491	NaN	91015.9878683	91016.504415225
1	19	0	0	90	36.1581920903955	36.241610738255	23	0.766721375992638	2	11	5	NaN	2	4	0.0350874958816868	0	1	NaN	279	5	27	1	120	220	320	NaN	520	0.265793770042364	2	1	NaN	91017.7713647	NaN	91018.7547942	91019.27135023
1	19	0	0	90	36.1581920903955	36.241610738255	12	0.400028543996159	2	1	1	NaN	1	5	0.0350874958816868	0	1	NaN	280	5	28	1	120	220	320	NaN	520	0.106206422540708	1	1	NaN	91020.3549771	NaN	91021.3383927	91021.8549416775
1	19	0	0	90	36.1581920903955	36.241610738255	17	0.566707103994558	2	9	2	NaN	2	4	0.0350874958816868	0	1	NaN	281	5	29	1	120	220	320	NaN	520	0.273357070036582	2	1	NaN	91022.7718606	NaN	91023.7553225	91024.27184053
1	19	0	0	90	36.1581920903955	36.241610738255	14	0.466699967995519	2	3	6	NaN	1	3	0.0350874958816868	0	1	NaN	282	5	30	1	120	220	320	NaN	520	0.513684665056644	1	1	NaN	91025.3554664	NaN	91026.3388765	91026.8554238349
1	19	0	0	90	36.1581920903955	36.241610738255	0	0	1	3	6	NaN	1	4	0.0350874958816868	0	1	NaN	283	5	31	1	110	210	310	NaN	510	0.160055870044744	2	0	NaN	91028.1891077	NaN	91029.1724801	91029.68903563
1	19	0	0	90	36.1581920903955	36.241610738255	21	0.700049951993278	2	3	6	NaN	1	5	0.0350874958816868	0	1	NaN	284	5	32	1	120	220	320	NaN	520	0.38945492253697	2	0	NaN	91030.6559895	NaN	91031.639403	91032.1559557775
1	19	0	0	90	36.1581920903955	36.241610738255	18	0.600042815994238	2	11	3	NaN	2	3	0.0350874958816868	0	1	NaN	285	5	33	1	120	220	320	NaN	520	0.24115984250966	2	1	NaN	91033.3562574	NaN	91034.3396672	91034.8562177575
1	19	0	0	90	36.1581920903955	36.241610738255	25	0.833392799991998	2	2	4	NaN	1	4	0.0350874958816868	0	1	NaN	286	5	34	1	120	220	320	NaN	520	0.170875322539359	1	1	NaN	91035.9065078	NaN	91036.889922	91037.4064707775
1	19	0	0	90	36.1581920903955	36.241610738255	17	0.566707103994558	2	2	1	NaN	1	3	0.0350874958816868	0	1	NaN	287	5	35	1	120	220	320	NaN	520	0.294948270049645	2	0	NaN	91038.3901045	NaN	91039.3735327	91039.89004333
1	19	0	0	90	36.1581920903955	36.241610738255	7	0.233349983997759	2	5	3	NaN	1	3	0.0350874958816868	0	1	NaN	288	5	36	1	120	220	320	NaN	520	0.286199322537868	2	0	NaN	91041.0069542	NaN	91041.9904189	91042.5069731775
1	19	0	0	90	36.1581920903955	36.241610738255	14	0.466699967995519	2	8	5	NaN	2	5	0.0350874958816868	0	1	NaN	289	5	37	1	120	220	320	NaN	520	0.766186917535379	2	1	NaN	91043.6072812	NaN	91044.5906782	91045.1072215825
1	19	0	0	90	36.1581920903955	36.241610738255	18	0.600042815994238	2	8	4	NaN	2	5	0.0350874958816868	0	1	NaN	290	5	38	1	120	220	320	NaN	520	0.3702779225423	2	1	NaN	91046.6909027	NaN	91047.6743298	91048.1908636775
1	19	0	0	90	36.1581920903955	36.241610738255	14	0.466699967995519	2	8	2	NaN	2	3	0.0350874958816868	0	1	NaN	291	5	39	1	120	220	320	NaN	520	2.96702587004984	1	0	NaN	91049.3745028	NaN	91050.3579773	91050.87445653
1	19	0	0	90	36.1581920903955	36.241610738255	15	0.500035679995199	2	4	4	NaN	1	4	0.0350874958816868	0	1	NaN	292	5	40	1	120	220	320	NaN	520	0.49906712253869	2	0	NaN	91054.6582814	NaN	91055.6417668	91056.1583143775
1	19	0	0	90	36.1581920903955	36.241610738255	25	0.833392799991998	2	2	4	NaN	1	3	0.0350874958816868	0	1	NaN	293	5	41	1	120	220	320	NaN	520	0.227335570045398	1	1	NaN	91058.6419775	NaN	91059.6255286	91060.14203453
1	19	0	0	90	36.1581920903955	36.241610738255	0	0	1	8	1	NaN	2	3	0.0350874958816868	0	1	NaN	294	5	42	1	110	210	310	NaN	510	0.517380822551786	1	0	NaN	91061.1756781	NaN	91062.159061	91062.6756181775
1	19	0	0	90	36.1581920903955	36.241610738255	7	0.233349983997759	2	9	3	NaN	2	5	0.0350874958816868	0	1	NaN	295	5	43	1	120	220	320	NaN	520	0.716508022538619	2	1	NaN	91063.9926075	NaN	91064.976013	91065.4925664775
1	19	0	0	90	36.1581920903955	36.241610738255	10	0.333357119996799	2	11	6	NaN	2	3	0.0350874958816868	0	1	NaN	296	5	44	1	120	220	320	NaN	520	0.435107822544524	2	1	NaN	91067.0262495	NaN	91068.0096426	91068.5262212775
1	19	0	0	90	36.1581920903955	36.241610738255	7	0.233349983997759	2	2	5	NaN	1	3	0.0350874958816868	0	1	NaN	297	5	45	1	120	220	320	NaN	520	0.22088512252958	2	0	NaN	91069.7766223	NaN	91070.7599046	91071.2764713775
1	19	0	0	90	36.1581920903955	36.241610738255	22	0.733385663992958	2	10	4	NaN	2	3	0.0350874958816868	0	1	NaN	298	5	46	1	120	220	320	NaN	520	0.263286470042658	1	0	NaN	91072.3099976	NaN	91073.2934834	91073.81004183
1	19	0	0	90	36.1581920903955	36.241610738255	17	0.566707103994558	2	8	6	NaN	2	3	0.0350874958816868	0	1	NaN	299	5	47	1	120	220	320	NaN	520	0.247631237522	2	1	NaN	91074.8936658	NaN	91075.8770679	91076.3936373625
1	19	0	0	90	36.1581920903955	36.241610738255	23	0.766721375992638	2	7	1	NaN	2	3	0.0350874958816868	0	1	NaN	300	5	48	1	120	220	320	NaN	520	0.656824117540964	2	1	NaN	91077.4606179	NaN	91078.4440007	91078.9605452825
1	19	0	0	90	36.1581920903955	36.241610738255	20	0.666714239993598	2	11	5	NaN	2	4	0.0350874958816868	0	1	NaN	301	5	49	1	120	220	320	NaN	520	1.11393657003646	1	0	NaN	91080.4274327	NaN	91081.4109955	91081.92750963
1	19	0	0	90	36.1581920903955	36.241610738255	14	0.466699967995519	2	12	3	NaN	2	4	0.0350874958816868	0	1	NaN	302	5	50	1	120	220	320	NaN	520	0.144716522539966	2	1	NaN	91083.8445759	NaN	91084.8279619	91085.3445187775
1	19	0	0	90	36.1581920903955	36.241610738255	25	0.833392799991998	2	7	4	NaN	2	5	0.0350874958816868	0	1	NaN	303	5	51	1	120	220	320	NaN	520	0.507402222545352	2	1	NaN	91086.5780989	NaN	91087.561564	91088.0781208775
1	19	0	0	90	36.1581920903955	36.241610738255	6	0.200014271998079	2	8	3	NaN	2	3	0.0350874958816868	0	1	NaN	304	5	52	1	120	220	320	NaN	520	1.1780506700452	2	1	NaN	91089.3951236	NaN	91090.3785104	91090.89505263
1	19	0	0	90	36.1581920903955	36.241610738255	21	0.700049951993278	2	11	3	NaN	2	4	0.0350874958816868	0	1	NaN	305	5	53	1	120	220	320	NaN	520	0.214062870029011	2	1	NaN	91093.8955344	NaN	91094.8789581	91095.39550273
1	19	0	0	90	36.1581920903955	36.241610738255	23	0.766721375992638	2	12	6	NaN	2	5	0.0350874958816868	0	1	NaN	306	5	54	1	120	220	320	NaN	520	0.480359822540777	1	0	NaN	91096.4291293	NaN	91097.4125398	91097.9290866775
1	19	0	0	90	36.1581920903955	36.241610738255	17	0.566707103994558	2	4	6	NaN	1	4	0.0350874958816868	0	1	NaN	307	5	55	1	120	220	320	NaN	520	0.164232922543306	1	1	NaN	91099.3293162	NaN	91100.3128256	91100.8293744775
1	19	0	0	90	36.1581920903955	36.241610738255	20	0.666714239993598	2	8	6	NaN	2	5	0.0350874958816868	0	1	NaN	308	5	56	1	120	220	320	NaN	520	0.224472990012146	2	1	NaN	91101.8130091	NaN	91102.7964009	91103.31295231
1	19	0	0	90	36.1581920903955	36.241610738255	13	0.433364255995839	2	2	2	NaN	1	5	0.0350874958816868	0	1	NaN	309	5	57	1	120	220	320	NaN	520	0.242944270037697	1	1	NaN	91104.346604	NaN	91105.3299825	91105.84653033
1	19	0	0	90	36.1581920903955	36.241610738255	9	0.300021407997119	2	1	6	NaN	1	5	0.0350874958816868	0	1	NaN	310	5	58	1	120	220	320	NaN	520	0.492705027529155	1	1	NaN	91106.8968722	NaN	91107.880223	91108.3967872725
1	19	0	0	90	36.1581920903955	36.241610738255	24	0.800057087992318	2	7	6	NaN	2	3	0.0350874958816868	0	1	NaN	311	5	59	1	120	220	320	NaN	520	0.228152865049196	2	1	NaN	91109.6971087	NaN	91110.6805094	91111.1970605349
1	19	0	0	90	36.1581920903955	36.241610738255	6	0.200014271998079	2	4	6	NaN	1	4	0.0350874958816868	0	1	NaN	312	5	60	1	120	220	320	NaN	520	3.68656032254512	2	0	NaN	91112.2306766	NaN	91113.2140813	91113.7306353775
1	19	0	0	90	36.1581920903955	36.241610738255	21	0.700049951993278	2	2	3	NaN	1	3	0.0350874958816868	0	1	NaN	313	5	61	1	120	220	320	NaN	520	0.197938270037412	1	1	NaN	91118.2312926	NaN	91119.214697	91119.73122983
1	19	0	0	90	36.1581920903955	36.241610738255	22	0.733385663992958	2	2	5	NaN	1	4	0.0350874958816868	0	1	NaN	314	5	62	1	120	220	320	NaN	520	0.355615722539369	1	1	NaN	91121.4815652	NaN	91122.4649092	91122.9815497775
1	19	0	0	90	36.1581920903955	36.241610738255	24	0.800057087992318	2	1	3	NaN	1	4	0.0350874958816868	0	1	NaN	315	5	63	1	120	220	320	NaN	520	0.320854022545973	1	1	NaN	91124.1485426	NaN	91125.1319152	91125.6484829775
1	19	0	0	90	36.1581920903955	36.241610738255	16	0.533371391994879	2	7	5	NaN	2	3	0.0350874958816868	0	1	NaN	316	6	1	1	120	220	320	NaN	520	3.64751909000915	2	1	NaN	91135.9496701	NaN	91136.9331018	91137.44963791
1	19	0	0	90	36.1581920903955	36.241610738255	15	0.500035679995199	2	9	2	NaN	2	4	0.0350874958816868	0	1	NaN	317	6	2	1	120	220	320	NaN	520	1.54484422254609	2	1	NaN	91141.9002746	NaN	91142.8836966	91143.4002301775
1	19	0	0	90	36.1581920903955	36.241610738255	17	0.566707103994558	2	6	3	NaN	1	5	0.0350874958816868	0	1	NaN	318	6	3	1	120	220	320	NaN	520	0.277575222542509	1	1	NaN	91145.9840498	NaN	91146.9674002	91147.4839646775
1	19	0	0	90	36.1581920903955	36.241610738255	7	0.233349983997759	2	9	3	NaN	2	4	0.0350874958816868	0	1	NaN	319	6	4	1	120	220	320	NaN	520	0.334089870026219	2	1	NaN	91148.5675978	NaN	91149.5510091	91150.06754393
1	19	0	0	90	36.1581920903955	36.241610738255	8	0.266685695997439	2	11	3	NaN	2	4	0.0350874958816868	0	1	NaN	320	6	5	1	120	220	320	NaN	520	0.0920990700396942	2	1	NaN	91151.2011897	NaN	91152.1846032	91152.70114183
1	19	0	0	90	36.1581920903955	36.241610738255	15	0.500035679995199	2	11	6	NaN	2	3	0.0350874958816868	0	1	NaN	321	6	6	1	120	220	320	NaN	520	0.427523822538205	1	0	NaN	91153.6180732	NaN	91154.6014843	91155.1180449775
1	19	0	0	90	36.1581920903955	36.241610738255	9	0.300021407997119	2	2	6	NaN	1	4	0.0350874958816868	0	1	NaN	322	6	7	1	120	220	320	NaN	520	0.229628870030865	2	0	NaN	91156.3516779	NaN	91157.3350813	91157.85165133
1	19	0	0	90	36.1581920903955	36.241610738255	9	0.300021407997119	2	11	4	NaN	2	4	0.0350874958816868	0	1	NaN	323	6	8	1	120	220	320	NaN	520	0.281997722529923	2	1	NaN	91159.2353108	NaN	91160.2187313	91160.7352605775
1	19	0	0	90	36.1581920903955	36.241610738255	22	0.733385663992958	2	1	4	NaN	1	4	0.0350874958816868	0	1	NaN	324	6	9	1	120	220	320	NaN	520	0.224988770045456	2	0	NaN	91162.0523029	NaN	91163.0356436	91163.55221043
1	19	0	0	90	36.1581920903955	36.241610738255	11	0.366692831996479	2	10	4	NaN	2	4	0.0350874958816868	0	1	NaN	325	6	10	1	120	220	320	NaN	520	0.0822297225531656	2	1	NaN	91164.6193328	NaN	91165.6025765	91166.1191283775
1	19	0	0	90	36.1581920903955	36.241610738255	19	0.633378527993918	2	9	1	NaN	2	5	0.0350874958816868	0	1	NaN	326	6	11	1	120	220	320	NaN	520	0.164773670039722	2	1	NaN	91167.3527662	NaN	91168.3361778	91168.85273263
1	19	0	0	90	36.1581920903955	36.241610738255	9	0.300021407997119	2	2	6	NaN	1	4	0.0350874958816868	0	1	NaN	327	6	12	1	120	220	320	NaN	520	0.185602665049373	1	1	NaN	91170.0196729	NaN	91171.0031038	91171.519664935
1	19	0	0	90	36.1581920903955	36.241610738255	16	0.533371391994879	2	12	4	NaN	2	3	0.0350874958816868	0	1	NaN	328	6	13	1	120	220	320	NaN	520	0.131337065045955	2	1	NaN	91172.769961	NaN	91173.7533846	91174.2699338349
1	19	0	0	90	36.1581920903955	36.241610738255	14	0.466699967995519	2	2	4	NaN	1	4	0.0350874958816868	0	1	NaN	329	6	14	1	120	220	320	NaN	520	0.21240467003372	1	1	NaN	91175.5368941	NaN	91176.5203005	91177.03686083
1	19	0	0	90	36.1581920903955	36.241610738255	18	0.600042815994238	2	8	4	NaN	2	4	0.0350874958816868	0	1	NaN	330	6	15	1	120	220	320	NaN	520	0.212470522543299	2	1	NaN	91178.1371539	NaN	91179.1205668	91179.6371292775
1	19	0	0	90	36.1581920903955	36.241610738255	15	0.500035679995199	2	12	5	NaN	2	4	0.0350874958816868	0	1	NaN	331	6	16	1	120	220	320	NaN	520	0.255139722532476	2	1	NaN	91180.6540824	NaN	91181.637475	91182.1540435775
1	19	0	0	90	36.1581920903955	36.241610738255	18	0.600042815994238	2	10	6	NaN	2	3	0.0350874958816868	0	1	NaN	332	6	17	1	120	220	320	NaN	520	0.452906870035804	1	0	NaN	91183.3043203	NaN	91184.2877538	91184.80430013
1	19	0	0	90	36.1581920903955	36.241610738255	6	0.200014271998079	2	1	3	NaN	1	3	0.0350874958816868	0	1	NaN	333	6	18	1	120	220	320	NaN	520	0.15032271752716	2	0	NaN	91186.0712997	NaN	91187.0546746	91187.5712362825
1	19	0	0	90	36.1581920903955	36.241610738255	25	0.833392799991998	2	10	5	NaN	2	3	0.0350874958816868	0	1	NaN	334	6	19	1	120	220	320	NaN	520	0.780964270044933	2	1	NaN	91188.88823	NaN	91189.8716386	91190.38818243
1	19	0	0	90	36.1581920903955	36.241610738255	14	0.466699967995519	2	10	6	NaN	2	3	0.0350874958816868	0	1	NaN	335	6	20	1	120	220	320	NaN	520	1.02177082253911	2	1	NaN	91192.271909	NaN	91193.2553022	91193.7718495775
1	19	0	0	90	36.1581920903955	36.241610738255	24	0.800057087992318	2	3	6	NaN	1	3	0.0350874958816868	0	1	NaN	336	6	21	1	120	220	320	NaN	520	0.181265932507813	2	0	NaN	91195.6722013	NaN	91196.6556225	91197.1721781675
1	19	0	0	90	36.1581920903955	36.241610738255	15	0.500035679995199	2	2	6	NaN	1	5	0.0350874958816868	0	1	NaN	337	6	22	1	120	220	320	NaN	520	0.208860822531278	1	1	NaN	91198.1724668	NaN	91199.1558718	91199.6724339775
1	19	0	0	90	36.1581920903955	36.241610738255	12	0.400028543996159	2	2	1	NaN	1	4	0.0350874958816868	0	1	NaN	338	6	23	1	120	220	320	NaN	520	0.329926622536732	2	0	NaN	91200.7394012	NaN	91201.7227006	91202.2393530775
1	19	0	0	90	36.1581920903955	36.241610738255	10	0.333357119996799	2	7	6	NaN	2	3	0.0350874958816868	0	1	NaN	339	6	24	1	120	220	320	NaN	520	0.207031770041795	1	0	NaN	91203.406292	NaN	91204.3897281	91204.90627253
1	19	0	0	90	36.1581920903955	36.241610738255	10	0.333357119996799	2	4	3	NaN	1	3	0.0350874958816868	0	1	NaN	340	6	25	1	120	220	320	NaN	520	0.129748222549097	2	0	NaN	91205.9399355	NaN	91206.9232927	91207.4398651775
1	19	0	0	90	36.1581920903955	36.241610738255	18	0.600042815994238	2	5	2	NaN	1	3	0.0350874958816868	0	1	NaN	341	6	26	1	120	220	320	NaN	520	1.79086052253842	2	0	NaN	91208.4068043	NaN	91209.3902314	91209.9067719775
1	19	0	0	90	36.1581920903955	36.241610738255	20	0.666714239993598	2	4	4	NaN	1	5	0.0350874958816868	0	1	NaN	342	6	27	1	120	220	320	NaN	520	0.754576427527354	1	1	NaN	91212.5072316	NaN	91213.4906244	91214.0071717725
1	19	0	0	90	36.1581920903955	36.241610738255	11	0.366692831996479	2	12	4	NaN	2	4	0.0350874958816868	0	1	NaN	343	6	28	1	120	220	320	NaN	520	0.439091522552189	1	0	NaN	91215.5741815	NaN	91216.5575876	91217.0741416775
1	19	0	0	90	36.1581920903955	36.241610738255	18	0.600042815994238	2	2	3	NaN	1	3	0.0350874958816868	0	1	NaN	344	6	29	1	120	220	320	NaN	520	0.273004370043054	1	1	NaN	91218.3244524	NaN	91219.3078637	91219.82440403
1	19	0	0	90	36.1581920903955	36.241610738255	7	0.233349983997759	2	5	4	NaN	1	5	0.0350874958816868	0	1	NaN	345	6	30	1	120	220	320	NaN	520	0.433332070038887	1	1	NaN	91220.908055	NaN	91221.8914413	91222.40802553
1	19	0	0	90	36.1581920903955	36.241610738255	12	0.400028543996159	2	10	4	NaN	2	4	0.0350874958816868	0	1	NaN	346	6	31	1	120	220	320	NaN	520	0.675411232514307	2	1	NaN	91223.6583319	NaN	91224.6417248	91225.1582770675
1	19	0	0	90	36.1581920903955	36.241610738255	24	0.800057087992318	2	3	4	NaN	1	5	0.0350874958816868	0	1	NaN	347	6	32	1	120	220	320	NaN	520	0.323139132524375	2	0	NaN	91226.6584889	NaN	91227.64204	91228.1585720675
1	19	0	0	90	36.1581920903955	36.241610738255	9	0.300021407997119	2	9	3	NaN	2	4	0.0350874958816868	0	1	NaN	348	6	33	1	120	220	320	NaN	520	0.689504922542255	1	0	NaN	91229.2922003	NaN	91230.2755896	91230.7921628775
1	19	0	0	90	36.1581920903955	36.241610738255	7	0.233349983997759	2	4	2	NaN	1	4	0.0350874958816868	0	1	NaN	349	6	34	1	120	220	320	NaN	520	0.248881075036479	1	1	NaN	91232.2925151	NaN	91233.2758885	91233.792444625
1	19	0	0	90	36.1581920903955	36.241610738255	16	0.533371391994879	2	3	2	NaN	1	4	0.0350874958816868	0	1	NaN	350	6	35	1	120	220	320	NaN	520	0.266072370039183	2	0	NaN	91234.8594311	NaN	91235.8428143	91236.35936363
1	19	0	0	90	36.1581920903955	36.241610738255	8	0.266685695997439	2	9	4	NaN	2	4	0.0350874958816868	0	1	NaN	351	6	36	1	120	220	320	NaN	520	0.386748222546885	1	0	NaN	91237.4430334	NaN	91238.4264268	91238.9429618775
1	19	0	0	90	36.1581920903955	36.241610738255	8	0.266685695997439	2	5	5	NaN	1	5	0.0350874958816868	0	1	NaN	352	6	37	1	120	220	320	NaN	520	0.566407370046363	2	0	NaN	91240.1432812	NaN	91241.1266759	91241.64321603
1	19	0	0	90	36.1581920903955	36.241610738255	22	0.733385663992958	2	8	6	NaN	2	4	0.0350874958816868	0	1	NaN	353	6	38	1	120	220	320	NaN	520	2.8749267700332	2	1	NaN	91243.0268894	NaN	91244.0102804	91244.52684313
1	19	0	0	90	36.1581920903955	36.241610738255	20	0.666714239993598	2	9	1	NaN	2	3	0.0350874958816868	0	1	NaN	354	6	39	1	120	220	320	NaN	520	0.114640822546789	1	0	NaN	91248.2107428	NaN	91249.1941393	91249.7106872775
1	19	0	0	90	36.1581920903955	36.241610738255	20	0.666714239993598	2	2	5	NaN	1	5	0.0350874958816868	0	1	NaN	355	6	40	1	120	220	320	NaN	520	0.249368670047261	1	1	NaN	91250.6443165	NaN	91251.6277016	91252.14425953
1	19	0	0	90	36.1581920903955	36.241610738255	22	0.733385663992958	2	7	1	NaN	2	4	0.0350874958816868	0	1	NaN	356	6	41	1	120	220	320	NaN	520	0.322909222537419	2	1	NaN	91253.1946751	NaN	91254.1779555	91254.6945133775
1	19	0	0	90	36.1581920903955	36.241610738255	7	0.233349983997759	2	3	1	NaN	1	4	0.0350874958816868	0	1	NaN	357	6	42	1	120	220	320	NaN	520	0.257649822538951	1	1	NaN	91255.8281602	NaN	91256.8115461	91257.3281046775
1	19	0	0	90	36.1581920903955	36.241610738255	9	0.300021407997119	2	10	4	NaN	2	5	0.0350874958816868	0	1	NaN	358	6	43	1	120	220	320	NaN	520	0.438228670042008	2	1	NaN	91258.4950531	NaN	91259.4784811	91259.99502093
1	19	0	0	90	36.1581920903955	36.241610738255	10	0.333357119996799	2	7	2	NaN	2	3	0.0350874958816868	0	1	NaN	359	6	44	1	120	220	320	NaN	520	0.399739570028032	2	1	NaN	91261.462015	NaN	91262.4454503	91262.96198343
1	19	0	0	90	36.1581920903955	36.241610738255	13	0.433364255995839	2	3	3	NaN	1	5	0.0350874958816868	0	1	NaN	360	6	45	1	120	220	320	NaN	520	0.338452622541809	2	0	NaN	91264.1789552	NaN	91265.1624062	91265.6789270775
1	19	0	0	90	36.1581920903955	36.241610738255	14	0.466699967995519	2	2	3	NaN	1	3	0.0350874958816868	0	1	NaN	361	6	46	1	120	220	320	NaN	520	0.175337222550297	1	1	NaN	91267.2459183	NaN	91268.2293101	91268.7458963775
1	19	0	0	90	36.1581920903955	36.241610738255	14	0.466699967995519	2	4	6	NaN	1	4	0.0350874958816868	0	1	NaN	362	6	47	1	120	220	320	NaN	520	0.220035770049435	1	1	NaN	91269.7295098	NaN	91270.7129208	91271.22946083
1	19	0	0	90	36.1581920903955	36.241610738255	11	0.366692831996479	2	2	3	NaN	1	5	0.0350874958816868	0	1	NaN	363	6	48	1	120	220	320	NaN	520	0.222828022539034	1	1	NaN	91273.6465477	NaN	91274.6299783	91275.1465249775
1	19	0	0	90	36.1581920903955	36.241610738255	12	0.400028543996159	2	5	6	NaN	1	5	0.0350874958816868	0	1	NaN	364	6	49	1	120	220	320	NaN	520	0.273649270035094	2	0	NaN	91276.1801405	NaN	91277.1635518	91277.68009733
1	19	0	0	90	36.1581920903955	36.241610738255	11	0.366692831996479	2	11	4	NaN	2	3	0.0350874958816868	0	1	NaN	365	6	50	1	120	220	320	NaN	520	0.385430070033181	2	1	NaN	91278.763732	NaN	91279.7471287	91280.26368503
1	19	0	0	90	36.1581920903955	36.241610738255	8	0.266685695997439	2	9	6	NaN	2	4	0.0350874958816868	0	1	NaN	366	6	51	1	120	220	320	NaN	520	2.78146737003408	2	1	NaN	91281.4639995	NaN	91282.447407	91282.96395783
1	19	0	0	90	36.1581920903955	36.241610738255	17	0.566707103994558	2	1	2	NaN	1	5	0.0350874958816868	0	1	NaN	367	6	52	1	120	220	320	NaN	520	0.598894622540683	2	0	NaN	91286.8144066	NaN	91287.7979334	91288.3144882775
1	19	0	0	90	36.1581920903955	36.241610738255	25	0.833392799991998	2	12	3	NaN	2	3	0.0350874958816868	0	1	NaN	368	6	53	1	120	220	320	NaN	520	0.202406617536326	2	1	NaN	91289.7148838	NaN	91290.6982168	91291.2147685825
1	19	0	0	90	36.1581920903955	36.241610738255	8	0.266685695997439	2	2	5	NaN	1	5	0.0350874958816868	0	1	NaN	369	6	54	1	120	220	320	NaN	520	1.22963592753513	1	1	NaN	91292.2316069	NaN	91293.2151446	91293.7316898725
1	19	0	0	90	36.1581920903955	36.241610738255	6	0.200014271998079	2	12	6	NaN	2	3	0.0350874958816868	0	1	NaN	370	6	55	1	120	220	320	NaN	520	0.367778022540733	2	1	NaN	91295.7820876	NaN	91296.7654885	91297.2820358775
1	19	0	0	90	36.1581920903955	36.241610738255	6	0.200014271998079	2	11	6	NaN	2	5	0.0350874958816868	0	1	NaN	371	6	56	1	120	220	320	NaN	520	1.86781742254971	1	0	NaN	91298.4656927	NaN	91299.4490605	91299.9656308775
1	19	0	0	90	36.1581920903955	36.241610738255	21	0.700049951993278	2	3	3	NaN	1	5	0.0350874958816868	0	1	NaN	372	6	57	1	120	220	320	NaN	520	0.300397227532812	2	0	NaN	91302.6492919	NaN	91303.6328609	91304.1493758725
1	19	0	0	90	36.1581920903955	36.241610738255	0	0	1	5	2	NaN	1	3	0.0350874958816868	0	1	NaN	373	6	58	1	110	210	310	NaN	510	0.259156922547845	1	1	NaN	91305.2663548	NaN	91306.2497494	91306.7663008775
1	19	0	0	90	36.1581920903955	36.241610738255	21	0.700049951993278	2	7	5	NaN	2	5	0.0350874958816868	0	1	NaN	374	6	59	1	120	220	320	NaN	520	0.284198017528979	1	0	NaN	91307.8332853	NaN	91308.8166894	91309.3332088825
1	19	0	0	90	36.1581920903955	36.241610738255	17	0.566707103994558	2	2	6	NaN	1	4	0.0350874958816868	0	1	NaN	375	6	60	1	120	220	320	NaN	520	0.753604622543207	1	1	NaN	91310.9002772	NaN	91311.8836303	91312.4001781775
1	19	0	0	90	36.1581920903955	36.241610738255	19	0.633378527993918	2	11	1	NaN	2	4	0.0350874958816868	0	1	NaN	376	6	61	1	120	220	320	NaN	520	0.40486372752639	1	0	NaN	91314.2005985	NaN	91315.1839594	91315.7005104725
1	19	0	0	90	36.1581920903955	36.241610738255	11	0.366692831996479	2	1	3	NaN	1	4	0.0350874958816868	0	1	NaN	377	6	62	1	120	220	320	NaN	520	0.750530422534212	2	0	NaN	91317.1508262	NaN	91318.1342575	91318.6508061775
1	19	0	0	90	36.1581920903955	36.241610738255	12	0.400028543996159	2	4	1	NaN	1	3	0.0350874958816868	0	1	NaN	378	6	63	1	120	220	320	NaN	520	0.644031270043342	1	1	NaN	91320.2178476	NaN	91321.2012053	91321.71775913
1	19	0	0	90	36.1581920903955	36.241610738255	8	0.266685695997439	2	4	1	NaN	1	4	0.0350874958816868	0	1	NaN	379	7	1	1	120	220	320	NaN	520	1.02708752253966	2	0	NaN	91414.6104484	NaN	91415.5938451	91416.1103876775
1	19	0	0	90	36.1581920903955	36.241610738255	17	0.566707103994558	2	5	3	NaN	1	3	0.0350874958816868	0	1	NaN	380	7	2	1	120	220	320	NaN	520	0.381459622542025	1	1	NaN	91417.9439948	NaN	91418.9274909	91419.4440397775
1	19	0	0	90	36.1581920903955	36.241610738255	15	0.500035679995199	2	3	1	NaN	1	3	0.0350874958816868	0	1	NaN	381	7	3	1	120	220	320	NaN	520	0.808970722544473	2	0	NaN	91420.8609327	NaN	91421.8444565	91422.3610027775
1	19	0	0	90	36.1581920903955	36.241610738255	10	0.333357119996799	2	2	2	NaN	1	5	0.0350874958816868	0	1	NaN	382	7	4	1	120	220	320	NaN	520	0.347978270045132	1	1	NaN	91423.9779594	NaN	91424.9614467	91425.47797813
1	19	0	0	90	36.1581920903955	36.241610738255	25	0.833392799991998	2	6	4	NaN	1	4	0.0350874958816868	0	1	NaN	383	7	5	1	120	220	320	NaN	520	0.296706070046639	1	1	NaN	91426.6448223	NaN	91427.628352	91428.14492783
1	19	0	0	90	36.1581920903955	36.241610738255	25	0.833392799991998	2	3	2	NaN	1	5	0.0350874958816868	0	1	NaN	384	7	6	1	120	220	320	NaN	520	0.327551070033223	2	0	NaN	91430.8620157	NaN	91431.845441	91432.36197773
1	19	0	0	90	36.1581920903955	36.241610738255	25	0.833392799991998	2	1	5	NaN	1	5	0.0350874958816868	0	1	NaN	385	7	7	1	120	220	320	NaN	520	0.33353392254503	2	0	NaN	91433.5122951	NaN	91434.4957	91435.0122476775
1	19	0	0	90	36.1581920903955	36.241610738255	23	0.766721375992638	2	1	5	NaN	1	5	0.0350874958816868	0	1	NaN	386	7	8	1	120	220	320	NaN	520	0.491202322547906	2	0	NaN	91436.1626312	NaN	91437.1459488	91437.6625082775
1	19	0	0	90	36.1581920903955	36.241610738255	17	0.566707103994558	2	7	5	NaN	2	3	0.0350874958816868	0	1	NaN	387	7	9	1	120	220	320	NaN	520	0.568747217548662	2	1	NaN	91439.2127462	NaN	91440.1962573	91440.7127978825
1	19	0	0	90	36.1581920903955	36.241610738255	19	0.633378527993918	2	7	2	NaN	2	3	0.0350874958816868	0	1	NaN	388	7	10	1	120	220	320	NaN	520	1.02425922254042	2	1	NaN	91442.4297124	NaN	91443.4132337	91443.9297965775
1	19	0	0	90	36.1581920903955	36.241610738255	12	0.400028543996159	2	3	3	NaN	1	5	0.0350874958816868	0	1	NaN	389	7	11	1	120	220	320	NaN	520	0.313961670035496	1	1	NaN	91445.7801566	NaN	91446.7635706	91447.28012263
1	19	0	0	90	36.1581920903955	36.241610738255	23	0.766721375992638	2	2	6	NaN	1	4	0.0350874958816868	0	1	NaN	390	7	12	1	120	220	320	NaN	520	0.401774422542076	2	0	NaN	91448.7637986	NaN	91449.7472118	91450.2637475775
1	19	0	0	90	36.1581920903955	36.241610738255	12	0.400028543996159	2	5	3	NaN	1	5	0.0350874958816868	0	1	NaN	391	7	13	1	120	220	320	NaN	520	0.572932370036142	1	1	NaN	91451.480674	NaN	91452.4641319	91452.98067343
1	19	0	0	90	36.1581920903955	36.241610738255	7	0.233349983997759	2	11	6	NaN	2	3	0.0350874958816868	0	1	NaN	392	7	14	1	120	220	320	NaN	520	0.673347070027376	2	1	NaN	91454.364343	NaN	91455.3477801	91455.86428713
1	19	0	0	90	36.1581920903955	36.241610738255	12	0.400028543996159	2	9	1	NaN	2	5	0.0350874958816868	0	1	NaN	393	7	15	1	120	220	320	NaN	520	0.61812017003831	2	1	NaN	91457.3480335	NaN	91458.3313843	91458.84791893
1	19	0	0	90	36.1581920903955	36.241610738255	18	0.600042815994238	2	1	2	NaN	1	4	0.0350874958816868	0	1	NaN	394	7	16	1	120	220	320	NaN	520	0.563979222541093	1	1	NaN	91460.2815924	NaN	91461.264977	91461.7815406775
1	19	0	0	90	36.1581920903955	36.241610738255	10	0.333357119996799	2	1	6	NaN	1	3	0.0350874958816868	0	1	NaN	395	7	17	1	120	220	320	NaN	520	0.532167422541534	2	0	NaN	91463.4818774	NaN	91464.4653153	91464.9818650775
1	19	0	0	90	36.1581920903955	36.241610738255	7	0.233349983997759	2	12	3	NaN	2	3	0.0350874958816868	0	1	NaN	396	7	18	1	120	220	320	NaN	520	0.631672070041532	1	0	NaN	91468.1823696	NaN	91469.1657694	91469.68232093
1	19	0	0	90	36.1581920903955	36.241610738255	19	0.633378527993918	2	1	1	NaN	1	4	0.0350874958816868	0	1	NaN	397	7	19	1	120	220	320	NaN	520	2.62198627003818	2	0	NaN	91471.8160284	NaN	91472.7994787	91473.31600853
1	19	0	0	90	36.1581920903955	36.241610738255	6	0.200014271998079	2	11	3	NaN	2	4	0.0350874958816868	0	1	NaN	398	7	20	1	120	220	320	NaN	520	0.399923022530857	2	1	NaN	91476.7497726	NaN	91477.7332778	91478.2498285775
1	19	0	0	90	36.1581920903955	36.241610738255	23	0.766721375992638	2	12	6	NaN	2	3	0.0350874958816868	0	1	NaN	399	7	21	1	120	220	320	NaN	520	0.45394411754387	2	1	NaN	91479.6000323	NaN	91480.5835631	91481.1001155825
1	19	0	0	90	36.1581920903955	36.241610738255	15	0.500035679995199	2	5	1	NaN	1	4	0.0350874958816868	0	1	NaN	400	7	22	1	120	220	320	NaN	520	0.278989922546316	1	1	NaN	91482.3670983	NaN	91483.3504847	91483.8670497775
1	19	0	0	90	36.1581920903955	36.241610738255	16	0.533371391994879	2	9	2	NaN	2	4	0.0350874958816868	0	1	NaN	401	7	23	1	120	220	320	NaN	520	0.230738870042842	2	1	NaN	91484.9673625	NaN	91485.9507535	91486.46730663
1	19	0	0	90	36.1581920903955	36.241610738255	14	0.466699967995519	2	5	3	NaN	1	4	0.0350874958816868	0	1	NaN	402	7	24	1	120	220	320	NaN	520	0.217795175020001	1	1	NaN	91487.884331	NaN	91488.8676972	91489.384260125
1	19	0	0	90	36.1581920903955	36.241610738255	12	0.400028543996159	2	12	2	NaN	2	4	0.0350874958816868	0	1	NaN	403	7	25	1	120	220	320	NaN	520	0.348304670042126	2	1	NaN	91490.4179115	NaN	91491.4012949	91491.91783423
1	19	0	0	90	36.1581920903955	36.241610738255	9	0.300021407997119	2	8	4	NaN	2	4	0.0350874958816868	0	1	NaN	404	7	26	1	120	220	320	NaN	520	0.23784732252534	2	1	NaN	91493.1681493	NaN	91494.1515548	91494.6681169775
1	19	0	0	90	36.1581920903955	36.241610738255	14	0.466699967995519	2	1	6	NaN	1	3	0.0350874958816868	0	1	NaN	405	7	27	1	120	220	320	NaN	520	0.311421422549756	2	0	NaN	91495.7182902	NaN	91496.7017948	91497.2183690775
1	19	0	0	90	36.1581920903955	36.241610738255	0	0	1	4	4	NaN	1	5	0.0350874958816868	0	1	NaN	406	7	28	1	110	210	310	NaN	510	0.662385280025774	1	1	NaN	91498.335328	NaN	91499.318722	91499.83529462
1	19	0	0	90	36.1581920903955	36.241610738255	11	0.366692831996479	2	10	5	NaN	2	3	0.0350874958816868	0	1	NaN	407	7	29	1	120	220	320	NaN	520	0.175003927535727	1	0	NaN	91501.3189724	NaN	91502.3023693	91502.8189095725
1	19	0	0	90	36.1581920903955	36.241610738255	18	0.600042815994238	2	6	4	NaN	1	3	0.0350874958816868	0	1	NaN	408	7	30	1	120	220	320	NaN	520	0.203288170043379	1	1	NaN	91503.8025528	NaN	91504.7859404	91505.30249323
1	19	0	0	90	36.1581920903955	36.241610738255	17	0.566707103994558	2	12	2	NaN	2	5	0.0350874958816868	0	1	NaN	409	7	31	1	120	220	320	NaN	520	0.286297470040154	2	1	NaN	91506.31946	NaN	91507.3028625	91507.81939833
1	19	0	0	90	36.1581920903955	36.241610738255	7	0.233349983997759	2	1	4	NaN	1	4	0.0350874958816868	0	1	NaN	410	7	32	1	120	220	320	NaN	520	1.17379157003597	2	0	NaN	91508.9196946	NaN	91509.9031331	91510.41965553
1	19	0	0	90	36.1581920903955	36.241610738255	11	0.366692831996479	2	3	1	NaN	1	3	0.0350874958816868	0	1	NaN	411	7	33	1	120	220	320	NaN	520	0.890508570038946	2	0	NaN	91512.4033836	NaN	91513.3867873	91513.90333573
1	19	0	0	90	36.1581920903955	36.241610738255	16	0.533371391994879	2	1	5	NaN	1	4	0.0350874958816868	0	1	NaN	412	7	34	1	120	220	320	NaN	520	0.610134622547776	2	0	NaN	91515.6035929	NaN	91516.5870975	91517.1036506775
1	19	0	0	90	36.1581920903955	36.241610738255	15	0.500035679995199	2	2	4	NaN	1	3	0.0350874958816868	0	1	NaN	413	7	35	1	120	220	320	NaN	520	0.219801570041454	2	0	NaN	91518.5539645	NaN	91519.5373856	91520.05393473
1	19	0	0	90	36.1581920903955	36.241610738255	22	0.733385663992958	2	5	3	NaN	1	5	0.0350874958816868	0	1	NaN	414	7	36	1	120	220	320	NaN	520	0.477184522533207	2	0	NaN	91521.1209021	NaN	91522.1042983	91522.6208625775
1	19	0	0	90	36.1581920903955	36.241610738255	23	0.766721375992638	2	1	1	NaN	1	3	0.0350874958816868	0	1	NaN	415	7	37	1	120	220	320	NaN	520	0.245249917541514	1	1	NaN	91523.9045254	NaN	91524.887913	91525.4044696825
1	19	0	0	90	36.1581920903955	36.241610738255	13	0.433364255995839	2	2	1	NaN	1	3	0.0350874958816868	0	1	NaN	416	7	38	1	120	220	320	NaN	520	0.308486022549914	1	1	NaN	91526.5214382	NaN	91527.5048184	91528.0213901775
1	19	0	0	90	36.1581920903955	36.241610738255	11	0.366692831996479	2	9	1	NaN	2	5	0.0350874958816868	0	1	NaN	417	7	39	1	120	220	320	NaN	520	0.338948480028193	2	1	NaN	91529.3550717	NaN	91530.3384476	91530.85500062
1	19	0	0	90	36.1581920903955	36.241610738255	14	0.466699967995519	2	10	3	NaN	2	3	0.0350874958816868	0	1	NaN	418	7	40	1	120	220	320	NaN	520	1.64048672253557	2	1	NaN	91532.005314	NaN	91532.9887127	91533.5052677775
1	19	0	0	90	36.1581920903955	36.241610738255	11	0.366692831996479	2	8	1	NaN	2	3	0.0350874958816868	0	1	NaN	419	7	41	1	120	220	320	NaN	520	0.298451622540597	2	1	NaN	91535.9557106	NaN	91536.9390768	91537.4556596775
1	19	0	0	90	36.1581920903955	36.241610738255	10	0.333357119996799	2	10	4	NaN	2	4	0.0350874958816868	0	1	NaN	420	7	42	1	120	220	320	NaN	520	0.281112022537855	2	1	NaN	91538.572621	NaN	91539.5560386	91540.0725848775
1	19	0	0	90	36.1581920903955	36.241610738255	9	0.300021407997119	2	5	2	NaN	1	5	0.0350874958816868	0	1	NaN	421	7	43	1	120	220	320	NaN	520	0.377755470035481	1	1	NaN	91541.1560994	NaN	91542.1396212	91542.65618183
1	19	0	0	90	36.1581920903955	36.241610738255	15	0.500035679995199	2	10	1	NaN	2	5	0.0350874958816868	0	1	NaN	422	7	44	1	120	220	320	NaN	520	0.0935288700420642	2	1	NaN	91543.8564833	NaN	91544.8398818	91545.35642773
1	19	0	0	90	36.1581920903955	36.241610738255	12	0.400028543996159	2	4	6	NaN	1	3	0.0350874958816868	0	1	NaN	423	7	45	1	120	220	320	NaN	520	0.245486017534859	1	1	NaN	91546.2567209	NaN	91547.2401209	91547.7566715825
1	19	0	0	90	36.1581920903955	36.241610738255	11	0.366692831996479	2	6	2	NaN	1	5	0.0350874958816868	0	1	NaN	424	7	46	1	120	220	320	NaN	520	0.766867570040631	1	1	NaN	91548.8068514	NaN	91549.7903753	91550.30691423
1	19	0	0	90	36.1581920903955	36.241610738255	0	0	1	1	4	NaN	1	4	0.0350874958816868	0	1	NaN	425	7	47	1	110	210	310	NaN	510	0.725851927520125	2	0	NaN	91552.2238416	NaN	91553.2073625	91553.7239260725
1	19	0	0	90	36.1581920903955	36.241610738255	10	0.333357119996799	2	4	5	NaN	1	3	0.0350874958816868	0	1	NaN	426	7	48	1	120	220	320	NaN	520	0.172557822545059	2	0	NaN	91555.2575972	NaN	91556.2410073	91556.7575581775
1	19	0	0	90	36.1581920903955	36.241610738255	22	0.733385663992958	2	7	6	NaN	2	4	0.0350874958816868	0	1	NaN	427	7	49	1	120	220	320	NaN	520	0.544707270033541	2	1	NaN	91557.7411043	NaN	91558.7245684	91559.24114653
1	19	0	0	90	36.1581920903955	36.241610738255	0	0	1	12	3	NaN	2	3	0.0350874958816868	0	1	NaN	428	7	50	1	110	210	310	NaN	510	0.694701322528999	1	0	NaN	91560.5914688	NaN	91561.5748639	91562.0914152775
1	19	0	0	90	36.1581920903955	36.241610738255	17	0.566707103994558	2	11	5	NaN	2	4	0.0350874958816868	0	1	NaN	429	7	51	1	120	220	320	NaN	520	0.733297807557392	1	0	NaN	91563.6084067	NaN	91564.5918096	91565.1083752924
1	19	0	0	90	36.1581920903955	36.241610738255	24	0.800057087992318	2	4	6	NaN	1	4	0.0350874958816868	0	1	NaN	430	7	52	1	120	220	320	NaN	520	0.195082070044009	1	1	NaN	91566.6587256	NaN	91567.6421493	91568.15867663
1	19	0	0	90	36.1581920903955	36.241610738255	13	0.433364255995839	2	8	1	NaN	2	3	0.0350874958816868	0	1	NaN	431	7	53	1	120	220	320	NaN	520	0.711184022540692	2	1	NaN	91569.1590281	NaN	91570.1423732	91570.6589257775
1	19	0	0	90	36.1581920903955	36.241610738255	19	0.633378527993918	2	2	3	NaN	1	3	0.0350874958816868	0	1	NaN	432	7	54	1	120	220	320	NaN	520	0.93391187004454	1	1	NaN	91572.1759403	NaN	91573.1593327	91573.67588003
1	19	0	0	90	36.1581920903955	36.241610738255	17	0.566707103994558	2	11	2	NaN	2	3	0.0350874958816868	0	1	NaN	433	7	55	1	120	220	320	NaN	520	1.81945469000493	2	1	NaN	91575.4262657	NaN	91576.4096544	91576.92621221
1	19	0	0	90	36.1581920903955	36.241610738255	6	0.200014271998079	2	10	3	NaN	2	4	0.0350874958816868	0	1	NaN	434	7	56	1	120	220	320	NaN	520	0.321205122541869	2	1	NaN	91579.6766369	NaN	91580.6600734	91581.1766256775
1	19	0	0	90	36.1581920903955	36.241610738255	18	0.600042815994238	2	12	4	NaN	2	5	0.0350874958816868	0	1	NaN	435	7	57	1	120	220	320	NaN	520	0.871660770048038	1	0	NaN	91582.310274	NaN	91583.2936619	91583.81020973
1	19	0	0	90	36.1581920903955	36.241610738255	25	0.833392799991998	2	9	3	NaN	2	4	0.0350874958816868	0	1	NaN	436	7	58	1	120	220	320	NaN	520	0.210267922535422	1	0	NaN	91585.8439301	NaN	91586.8273375	91587.3438901775
1	19	0	0	90	36.1581920903955	36.241610738255	7	0.233349983997759	2	6	5	NaN	1	4	0.0350874958816868	0	1	NaN	437	7	59	1	120	220	320	NaN	520	0.285428870032774	1	1	NaN	91588.3608967	NaN	91589.344261	91589.86081023
1	19	0	0	90	36.1581920903955	36.241610738255	20	0.666714239993598	2	3	2	NaN	1	4	0.0350874958816868	0	1	NaN	438	7	60	1	120	220	320	NaN	520	0.373482370036072	2	0	NaN	91590.9443668	NaN	91591.9278398	91592.44440173
1	19	0	0	90	36.1581920903955	36.241610738255	7	0.233349983997759	2	6	2	NaN	1	3	0.0350874958816868	0	1	NaN	439	7	61	1	120	220	320	NaN	520	0.218220622540684	1	1	NaN	91593.628063	NaN	91594.6114748	91595.1279999775
1	19	0	0	90	36.1581920903955	36.241610738255	7	0.233349983997759	2	11	1	NaN	2	5	0.0350874958816868	0	1	NaN	440	7	62	1	120	220	320	NaN	520	0.260880022542551	2	1	NaN	91596.3449542	NaN	91597.3283116	91597.8449227775
1	19	0	0	90	36.1581920903955	36.241610738255	17	0.566707103994558	2	8	5	NaN	2	4	0.0350874958816868	0	1	NaN	441	7	63	1	120	220	320	NaN	520	0.430178822542075	1	0	NaN	91598.9117771	NaN	91599.8953043	91600.4118782775
1	19	0	0	90	36.1581920903955	36.241610738255	10	0.333357119996799	2	3	6	NaN	1	4	0.0350874958816868	0	1	NaN	442	8	1	1	120	220	320	NaN	520	0.393314122542506	1	1	NaN	91608.612852	NaN	91609.5962547	91610.1128266775
1	19	0	0	90	36.1581920903955	36.241610738255	24	0.800057087992318	2	8	4	NaN	2	5	0.0350874958816868	0	1	NaN	443	8	2	1	120	220	320	NaN	520	0.581141275019036	2	1	NaN	91611.3131003	NaN	91612.2965102	91612.813068425
1	19	0	0	90	36.1581920903955	36.241610738255	18	0.600042815994238	2	12	2	NaN	2	3	0.0350874958816868	0	1	NaN	444	8	3	1	120	220	320	NaN	520	0.414855470036855	2	1	NaN	91614.2634034	NaN	91615.2468333	91615.76335263
1	19	0	0	90	36.1581920903955	36.241610738255	9	0.300021407997119	2	12	6	NaN	2	4	0.0350874958816868	0	1	NaN	445	8	4	1	120	220	320	NaN	520	1.06007302254147	1	0	NaN	91618.3136953	NaN	91619.2971979	91619.8137599775
1	19	0	0	90	36.1581920903955	36.241610738255	22	0.733385663992958	2	3	4	NaN	1	5	0.0350874958816868	0	1	NaN	446	8	5	1	120	220	320	NaN	520	0.157524022535654	1	1	NaN	91621.6808201	NaN	91622.6642173	91623.1807583775
1	19	0	0	90	36.1581920903955	36.241610738255	9	0.300021407997119	2	6	2	NaN	1	3	0.0350874958816868	0	1	NaN	447	8	6	1	120	220	320	NaN	520	0.298058022541227	1	1	NaN	91624.1478298	NaN	91625.1311149	91625.6476698775
1	19	0	0	90	36.1581920903955	36.241610738255	22	0.733385663992958	2	5	4	NaN	1	4	0.0350874958816868	0	1	NaN	448	8	7	1	120	220	320	NaN	520	0.289482170031988	1	1	NaN	91626.7646425	NaN	91627.7480349	91628.26458793
1	19	0	0	90	36.1581920903955	36.241610738255	15	0.500035679995199	2	5	6	NaN	1	4	0.0350874958816868	0	1	NaN	449	8	8	1	120	220	320	NaN	520	0.289366122538922	1	1	NaN	91629.3648684	NaN	91630.3482658	91630.8648460775
1	19	0	0	90	36.1581920903955	36.241610738255	23	0.766721375992638	2	9	5	NaN	2	3	0.0350874958816868	0	1	NaN	450	8	9	1	120	220	320	NaN	520	0.22460002254229	2	1	NaN	91631.9650268	NaN	91632.9485624	91633.4651034775
1	19	0	0	90	36.1581920903955	36.241610738255	16	0.533371391994879	2	5	3	NaN	1	5	0.0350874958816868	0	1	NaN	451	8	10	1	120	220	320	NaN	520	0.555787722551031	2	0	NaN	91634.6821018	NaN	91635.6654798	91636.1820317775
1	19	0	0	90	36.1581920903955	36.241610738255	8	0.266685695997439	2	3	1	NaN	1	3	0.0350874958816868	0	1	NaN	452	8	11	1	120	220	320	NaN	520	0.329061022537644	2	0	NaN	91637.5490231	NaN	91638.5324234	91639.0489858775
1	19	0	0	90	36.1581920903955	36.241610738255	0	0	1	9	5	NaN	2	5	0.0350874958816868	0	1	NaN	453	8	12	1	110	210	310	NaN	510	0.647195722529432	1	0	NaN	91640.182503	NaN	91641.1660346	91641.6825779775
1	19	0	0	90	36.1581920903955	36.241610738255	8	0.266685695997439	2	7	1	NaN	2	4	0.0350874958816868	0	1	NaN	454	8	13	1	120	220	320	NaN	520	0.408445370048867	2	1	NaN	91643.1495758	NaN	91644.1329848	91644.64952793
1	19	0	0	90	36.1581920903955	36.241610738255	19	0.633378527993918	2	10	6	NaN	2	3	0.0350874958816868	0	1	NaN	455	8	14	1	120	220	320	NaN	520	0.19552322254458	2	1	NaN	91645.8664469	NaN	91646.8499575	91647.3664669775
1	19	0	0	90	36.1581920903955	36.241610738255	20	0.666714239993598	2	7	3	NaN	2	3	0.0350874958816868	0	1	NaN	456	8	15	1	120	220	320	NaN	520	0.51073184251436	2	1	NaN	91648.3834475	NaN	91649.3668395	91649.8833827575
1	19	0	0	90	36.1581920903955	36.241610738255	15	0.500035679995199	2	6	6	NaN	1	4	0.0350874958816868	0	1	NaN	457	8	16	1	120	220	320	NaN	520	0.245620522546233	1	1	NaN	91651.2003766	NaN	91652.1837472	91652.7003251775
1	19	0	0	90	36.1581920903955	36.241610738255	17	0.566707103994558	2	10	4	NaN	2	5	0.0350874958816868	0	1	NaN	458	8	17	1	120	220	320	NaN	520	0.502715322538279	2	1	NaN	91653.7673217	NaN	91654.7507047	91655.2672471775
1	19	0	0	90	36.1581920903955	36.241610738255	8	0.266685695997439	2	12	4	NaN	2	4	0.0350874958816868	0	1	NaN	459	8	18	1	120	220	320	NaN	520	0.861849822525983	2	1	NaN	91656.5841085	NaN	91657.5676366	91658.0841936775
1	19	0	0	90	36.1581920903955	36.241610738255	24	0.800057087992318	2	11	2	NaN	2	3	0.0350874958816868	0	1	NaN	460	8	19	1	120	220	320	NaN	520	0.319103570029256	1	0	NaN	91659.7512049	NaN	91660.7346356	91661.25115863
1	19	0	0	90	36.1581920903955	36.241610738255	24	0.800057087992318	2	1	2	NaN	1	3	0.0350874958816868	0	1	NaN	461	8	20	1	120	220	320	NaN	520	1.58950477004691	1	1	NaN	91662.3848224	NaN	91663.3682084	91663.88476113
1	19	0	0	90	36.1581920903955	36.241610738255	24	0.800057087992318	2	10	6	NaN	2	5	0.0350874958816868	0	1	NaN	462	8	21	1	120	220	320	NaN	520	0.256935822544619	2	1	NaN	91666.2851851	NaN	91667.2685757	91667.7851371775
1	19	0	0	90	36.1581920903955	36.241610738255	8	0.266685695997439	2	7	6	NaN	2	5	0.0350874958816868	0	1	NaN	463	8	22	1	120	220	320	NaN	520	0.521005422546295	1	0	NaN	91670.0688619	NaN	91671.0522982	91671.5688480775
1	19	0	0	90	36.1581920903955	36.241610738255	9	0.300021407997119	2	3	5	NaN	1	5	0.0350874958816868	0	1	NaN	464	8	23	1	120	220	320	NaN	520	2.53579251753399	2	0	NaN	91672.9025194	NaN	91673.885911	91674.4024626825
1	19	0	0	90	36.1581920903955	36.241610738255	8	0.266685695997439	2	1	2	NaN	1	5	0.0350874958816868	0	1	NaN	465	8	24	1	120	220	320	NaN	520	0.309013770034653	2	0	NaN	91677.7529944	NaN	91678.7363684	91679.25292993
1	19	0	0	90	36.1581920903955	36.241610738255	8	0.266685695997439	2	8	3	NaN	2	4	0.0350874958816868	0	1	NaN	466	8	25	1	120	220	320	NaN	520	0.572071970032994	2	1	NaN	91680.3698112	NaN	91681.3533012	91681.86986153
1	19	0	0	90	36.1581920903955	36.241610738255	20	0.666714239993598	2	9	2	NaN	2	5	0.0350874958816868	0	1	NaN	467	8	26	1	120	220	320	NaN	520	0.181819670033292	1	0	NaN	91683.3201864	NaN	91684.3036008	91684.82014903
1	19	0	0	90	36.1581920903955	36.241610738255	0	0	1	12	1	NaN	2	5	0.0350874958816868	0	1	NaN	468	8	27	1	110	210	310	NaN	510	0.313734770039446	2	1	NaN	91686.0203664	NaN	91687.0038512	91687.52040893
1	19	0	0	90	36.1581920903955	36.241610738255	18	0.600042815994238	2	2	5	NaN	1	5	0.0350874958816868	0	1	NaN	469	8	28	1	120	220	320	NaN	520	0.0967425700364402	1	1	NaN	91688.637425	NaN	91689.6207901	91690.13733453
1	19	0	0	90	36.1581920903955	36.241610738255	10	0.333357119996799	2	5	3	NaN	1	3	0.0350874958816868	0	1	NaN	470	8	29	1	120	220	320	NaN	520	0.304040770031861	1	1	NaN	91691.0543053	NaN	91692.0376779	91692.55423693
