subjno	age	gender	isPractice	viewdist	CmToPixX	CmToPixY	SOA_frm	SOA_time	targNum	targID	targExample	targRace	targGender	firstTargPos	contrast	familiarity	curr_staircase	iStair	TrialNum	BlockNum	blktrl	sessionNum	TC_FIXATION	TC_RSVP_START	TC_RSVP_END	TC_BLANK	TC_RESPONSE_ONSET	RT2afc	resp_2afc	acc	RSVPOnsetVBL	RSVPOnsetTime	RSVPOffsetVBL	RSVPOffsetTime	startrt_2afc
48	27	1	0	90	36.1581920903955	36.241610738255	23	0.766721835955977	2	3	4	NaN	1	4	0.0345078701775815	0	1	NaN	1	1	1	2	120	220	320	NaN	520	0.397518275305629	1	1	NaN	1477163.1421735	NaN	1477164.1254403	1477164.65859072
48	27	1	0	90	36.1581920903955	36.241610738255	9	0.300021587982774	2	1	6	NaN	1	4	0.0345078701775815	0	1	NaN	2	1	2	2	120	220	320	NaN	520	0.238984075142071	2	0	NaN	1477165.6923923	NaN	1477166.6756649	1477167.20885392
48	27	1	0	90	36.1581920903955	36.241610738255	9	0.300021587982774	2	2	2	NaN	1	5	0.0345078701775815	0	1	NaN	3	1	3	2	120	220	320	NaN	520	0.0103996377438307	2	0	NaN	1477168.0424533	NaN	1477169.025871	1477169.54241636
48	27	1	0	90	36.1581920903955	36.241610738255	10	0.33335731998086	2	9	4	NaN	2	5	0.0345078701775815	0	1	NaN	4	1	4	2	120	220	320	NaN	520	0.010252894833684	2	1	NaN	1477170.1593332	NaN	1477171.1427377	1477171.65928971
48	27	1	0	90	36.1581920903955	36.241610738255	10	0.33335731998086	2	8	4	NaN	2	5	0.0345078701775815	0	1	NaN	5	1	5	2	120	220	320	NaN	520	0.0962944226339459	2	1	NaN	1477172.2595342	NaN	1477173.2429343	1477173.75949328
48	27	1	0	90	36.1581920903955	36.241610738255	17	0.566707443967462	2	3	1	NaN	1	5	0.0345078701775815	0	1	NaN	6	1	6	2	120	220	320	NaN	520	0.448311242507771	2	0	NaN	1477174.4597567	NaN	1477175.4431622	1477175.95971546
48	27	1	0	90	36.1581920903955	36.241610738255	25	0.833393299952149	2	10	4	NaN	2	4	0.0345078701775815	0	1	NaN	7	1	7	2	120	220	320	NaN	520	0.161743779899552	2	1	NaN	1477177.0100102	NaN	1477177.9934046	1477178.50995152
48	27	1	0	90	36.1581920903955	36.241610738255	9	0.300021587982774	2	10	5	NaN	2	3	0.0345078701775815	0	1	NaN	8	1	8	2	120	220	320	NaN	520	0.23933084262535	2	1	NaN	1477179.2602188	NaN	1477180.2436256	1477180.76017486
48	27	1	0	90	36.1581920903955	36.241610738255	18	0.600043175965548	2	4	6	NaN	1	3	0.0345078701775815	0	1	NaN	9	1	9	2	120	220	320	NaN	520	0.282250522635877	1	1	NaN	1477181.5937949	NaN	1477182.5771789	1477183.09373758
48	27	1	0	90	36.1581920903955	36.241610738255	20	0.66671463996172	2	5	3	NaN	1	3	0.0345078701775815	0	1	NaN	10	1	10	2	120	220	320	NaN	520	0.186652917414904	2	0	NaN	1477183.9773618	NaN	1477184.9607418	1477185.47730338
48	27	1	0	90	36.1581920903955	36.241610738255	24	0.800057567954063	2	9	1	NaN	2	5	0.0345078701775815	0	1	NaN	11	1	11	2	120	220	320	NaN	520	0.190476522780955	2	1	NaN	1477186.2609113	NaN	1477187.2443119	1477187.76087018
48	27	1	0	90	36.1581920903955	36.241610738255	20	0.66671463996172	2	9	2	NaN	2	3	0.0345078701775815	0	1	NaN	12	1	12	2	120	220	320	NaN	520	0.139295770321041	2	1	NaN	1477188.5445005	NaN	1477189.527872	1477190.04441363
48	27	1	0	90	36.1581920903955	36.241610738255	10	0.33335731998086	2	2	6	NaN	1	4	0.0345078701775815	0	1	NaN	13	1	13	2	120	220	320	NaN	520	0.129759722622111	2	0	NaN	1477190.7780316	NaN	1477191.761422	1477192.27797918
48	27	1	0	90	36.1581920903955	36.241610738255	15	0.50003597997129	2	5	5	NaN	1	4	0.0345078701775815	0	1	NaN	14	1	14	2	120	220	320	NaN	520	0.200476370286196	2	0	NaN	1477193.0115799	NaN	1477193.9949764	1477194.51152363
48	27	1	0	90	36.1581920903955	36.241610738255	22	0.733386103957891	2	12	5	NaN	2	5	0.0345078701775815	0	1	NaN	15	1	15	2	120	220	320	NaN	520	0.116005822550505	2	1	NaN	1477195.3117964	NaN	1477196.2952126	1477196.81175878
48	27	1	0	90	36.1581920903955	36.241610738255	9	0.300021587982774	2	1	1	NaN	1	4	0.0345078701775815	0	1	NaN	16	1	16	2	120	220	320	NaN	520	0.210908317705616	2	0	NaN	1477197.5286984	NaN	1477198.5120874	1477199.02863138
48	27	1	0	90	36.1581920903955	36.241610738255	25	0.833393299952149	2	7	4	NaN	2	5	0.0345078701775815	0	1	NaN	17	1	17	2	120	220	320	NaN	520	0.190064470050856	2	1	NaN	1477199.8456088	NaN	1477200.8289827	1477201.34552763
48	27	1	0	90	36.1581920903955	36.241610738255	25	0.833393299952149	2	10	1	NaN	2	4	0.0345078701775815	0	1	NaN	18	1	18	2	120	220	320	NaN	520	0.210670870263129	2	1	NaN	1477202.1291383	NaN	1477203.1125462	1477203.62908203
48	27	1	0	90	36.1581920903955	36.241610738255	10	0.33335731998086	2	11	1	NaN	2	3	0.0345078701775815	0	1	NaN	19	1	19	2	120	220	320	NaN	520	0.309721880126745	2	1	NaN	1477204.4460332	NaN	1477205.429453	1477205.94598012
48	27	1	0	90	36.1581920903955	36.241610738255	23	0.766721835955977	2	1	6	NaN	1	4	0.0345078701775815	0	1	NaN	20	1	20	2	120	220	320	NaN	520	0.13381728483364	2	0	NaN	1477206.8462611	NaN	1477207.8296664	1477208.34621762
48	27	1	0	90	36.1581920903955	36.241610738255	17	0.566707443967462	2	8	3	NaN	2	5	0.0345078701775815	0	1	NaN	21	1	21	2	120	220	320	NaN	520	0.236232570139691	2	1	NaN	1477209.0798295	NaN	1477210.063218	1477210.57977073
48	27	1	0	90	36.1581920903955	36.241610738255	19	0.633378907963633	2	1	5	NaN	1	4	0.0345078701775815	0	1	NaN	22	1	22	2	120	220	320	NaN	520	0.206279990030453	2	0	NaN	1477211.4133798	NaN	1477212.3967738	1477212.91333461
48	27	1	0	90	36.1581920903955	36.241610738255	9	0.300021587982774	2	4	3	NaN	1	3	0.0345078701775815	0	1	NaN	23	1	23	2	120	220	320	NaN	520	0.114124870160595	2	0	NaN	1477213.7136103	NaN	1477214.6970056	1477215.21355483
48	27	1	0	90	36.1581920903955	36.241610738255	12	0.400028783977032	2	2	3	NaN	1	3	0.0345078701775815	0	1	NaN	24	1	24	2	120	220	320	NaN	520	0.193527885014191	2	0	NaN	1477215.930501	NaN	1477216.9139325	1477217.43044632
48	27	1	0	90	36.1581920903955	36.241610738255	25	0.833393299952149	2	9	5	NaN	2	3	0.0345078701775815	0	1	NaN	25	1	25	2	120	220	320	NaN	520	0.229752970393747	2	1	NaN	1477218.2140557	NaN	1477219.1974481	1477219.71399383
48	27	1	0	90	36.1581920903955	36.241610738255	20	0.66671463996172	2	4	5	NaN	1	5	0.0345078701775815	0	1	NaN	26	1	26	2	120	220	320	NaN	520	0.208137170178816	2	0	NaN	1477220.547623	NaN	1477221.531023	1477222.04756433
48	27	1	0	90	36.1581920903955	36.241610738255	23	0.766721835955977	2	9	5	NaN	2	4	0.0345078701775815	0	1	NaN	27	1	27	2	120	220	320	NaN	520	0.228269717656076	2	1	NaN	1477222.8478401	NaN	1477223.8313016	1477224.34779458
48	27	1	0	90	36.1581920903955	36.241610738255	17	0.566707443967462	2	12	3	NaN	2	5	0.0345078701775815	0	1	NaN	28	1	28	2	120	220	320	NaN	520	0.191003417596221	2	1	NaN	1477225.1647454	NaN	1477226.1481407	1477226.66467518
48	27	1	0	90	36.1581920903955	36.241610738255	0	0	1	2	4	NaN	1	4	0.0345078701775815	0	1	NaN	29	1	29	2	110	210	310	NaN	510	0.139767217682675	2	0	NaN	1477227.4483207	NaN	1477228.4317008	1477228.94823298
48	27	1	0	90	36.1581920903955	36.241610738255	20	0.66671463996172	2	9	1	NaN	2	3	0.0345078701775815	0	1	NaN	30	1	30	2	120	220	320	NaN	520	0.225925270235166	2	1	NaN	1477229.6818369	NaN	1477230.6652443	1477231.18179053
48	27	1	0	90	36.1581920903955	36.241610738255	20	0.66671463996172	2	2	6	NaN	1	3	0.0345078701775815	0	1	NaN	31	1	31	2	120	220	320	NaN	520	0.213027722435072	2	0	NaN	1477231.9987341	NaN	1477232.9821215	1477233.49869198
48	27	1	0	90	36.1581920903955	36.241610738255	22	0.733386103957891	2	2	6	NaN	1	5	0.0345078701775815	0	1	NaN	32	1	32	2	120	220	320	NaN	520	0.0728340703062713	2	0	NaN	1477234.2989587	NaN	1477235.2823478	1477235.79890843
48	27	1	0	90	36.1581920903955	36.241610738255	21	0.700050371959805	2	5	2	NaN	1	5	0.0345078701775815	0	1	NaN	33	1	33	2	120	220	320	NaN	520	0.0741020799614489	1	1	NaN	1477236.4658766	NaN	1477237.4492372	1477237.96578822
48	27	1	0	90	36.1581920903955	36.241610738255	10	0.33335731998086	2	12	2	NaN	2	5	0.0345078701775815	0	1	NaN	34	1	34	2	120	220	320	NaN	520	0.107088970253244	2	1	NaN	1477238.6327193	NaN	1477239.6161267	1477240.13267143
48	27	1	0	90	36.1581920903955	36.241610738255	14	0.466700247973204	2	7	3	NaN	2	5	0.0345078701775815	0	1	NaN	35	1	35	2	120	220	320	NaN	520	0.146907470189035	1	0	NaN	1477240.8329403	NaN	1477241.8163469	1477242.33288243
48	27	1	0	90	36.1581920903955	36.241610738255	11	0.366693051978946	2	5	4	NaN	1	5	0.0345078701775815	0	1	NaN	36	1	36	2	120	220	320	NaN	520	0.0328910227399319	2	0	NaN	1477243.0831609	NaN	1477244.0665671	1477244.58311588
48	27	1	0	90	36.1581920903955	36.241610738255	21	0.700050371959805	2	1	1	NaN	1	4	0.0345078701775815	0	1	NaN	37	1	37	2	120	220	320	NaN	520	0.427121817599982	2	0	NaN	1477245.2167008	NaN	1477246.2000971	1477246.71665168
48	27	1	0	90	36.1581920903955	36.241610738255	14	0.466700247973204	2	2	6	NaN	1	3	0.0345078701775815	0	1	NaN	38	1	38	2	120	220	320	NaN	520	0.222263370174915	1	1	NaN	1477247.7336402	NaN	1477248.7170206	1477249.23356573
48	27	1	0	90	36.1581920903955	36.241610738255	21	0.700050371959805	2	4	6	NaN	1	5	0.0345078701775815	0	1	NaN	39	1	39	2	120	220	320	NaN	520	0.0103594225365669	2	0	NaN	1477250.0505238	NaN	1477251.033909	1477251.55046258
48	27	1	0	90	36.1581920903955	36.241610738255	0	0	1	11	4	NaN	2	5	0.0345078701775815	0	1	NaN	40	1	40	2	110	210	310	NaN	510	0.109171370277181	2	1	NaN	1477252.1507117	NaN	1477253.1341142	1477253.65066193
48	27	1	0	90	36.1581920903955	36.241610738255	8	0.266685855984688	2	3	6	NaN	1	3	0.0345078701775815	0	1	NaN	41	1	41	2	120	220	320	NaN	520	0.13304097042419	1	1	NaN	1477254.3509401	NaN	1477255.3343351	1477255.85087393
48	27	1	0	90	36.1581920903955	36.241610738255	6	0.200014391988516	2	10	4	NaN	2	5	0.0345078701775815	0	1	NaN	42	1	42	2	120	220	320	NaN	520	0.0103581226430833	2	1	NaN	1477256.5678219	NaN	1477257.551215	1477258.06776768
48	27	1	0	90	36.1581920903955	36.241610738255	6	0.200014391988516	2	1	5	NaN	1	3	0.0345078701775815	0	1	NaN	43	1	43	2	120	220	320	NaN	520	0.11179292248562	1	1	NaN	1477258.6680226	NaN	1477259.6514129	1477260.16797398
48	27	1	0	90	36.1581920903955	36.241610738255	15	0.50003597997129	2	7	1	NaN	2	5	0.0345078701775815	0	1	NaN	44	1	44	2	120	220	320	NaN	520	0.0103745702654123	2	1	NaN	1477260.8682358	NaN	1477261.8516345	1477262.36818293
48	27	1	0	90	36.1581920903955	36.241610738255	23	0.766721835955977	2	4	6	NaN	1	4	0.0345078701775815	0	1	NaN	45	1	45	2	120	220	320	NaN	520	0.0103747702669352	2	0	NaN	1477262.9684466	NaN	1477263.9518478	1477264.46839373
48	27	1	0	90	36.1581920903955	36.241610738255	19	0.633378907963633	2	3	2	NaN	1	5	0.0345078701775815	0	1	NaN	46	1	46	2	120	220	320	NaN	520	0.151550255250186	2	0	NaN	1477265.0686466	NaN	1477266.0520495	1477266.56859924
48	27	1	0	90	36.1581920903955	36.241610738255	21	0.700050371959805	2	3	1	NaN	1	3	0.0345078701775815	0	1	NaN	47	1	47	2	120	220	320	NaN	520	0.0537113700993359	1	1	NaN	1477267.3022087	NaN	1477268.285583	1477268.80214773
48	27	1	0	90	36.1581920903955	36.241610738255	22	0.733386103957891	2	10	4	NaN	2	4	0.0345078701775815	0	1	NaN	48	1	48	2	120	220	320	NaN	520	1.27138144243509	2	1	NaN	1477269.4524101	NaN	1477270.4358214	1477270.95237496
48	27	1	0	90	36.1581920903955	36.241610738255	22	0.733386103957891	2	3	6	NaN	1	5	0.0345078701775815	0	1	NaN	49	1	49	2	120	220	320	NaN	520	0.432454979978502	2	0	NaN	1477272.8194262	NaN	1477273.8028284	1477274.31935872
48	27	1	0	90	36.1581920903955	36.241610738255	25	0.833393299952149	2	5	5	NaN	1	5	0.0345078701775815	0	1	NaN	50	1	50	2	120	220	320	NaN	520	0.21108967019245	2	0	NaN	1477275.3529931	NaN	1477276.3363886	1477276.85294403
48	27	1	0	90	36.1581920903955	36.241610738255	0	0	1	9	6	NaN	2	4	0.0345078701775815	0	1	NaN	51	1	51	2	110	210	310	NaN	510	0.0103732703719288	1	0	NaN	1477277.653216	NaN	1477278.6366172	1477279.15316413
48	27	1	0	90	36.1581920903955	36.241610738255	8	0.266685855984688	2	1	5	NaN	1	5	0.0345078701775815	0	1	NaN	52	1	52	2	120	220	320	NaN	520	0.218490770319477	2	0	NaN	1477279.7534265	NaN	1477280.736825	1477281.25337353
48	27	1	0	90	36.1581920903955	36.241610738255	12	0.400028783977032	2	3	4	NaN	1	5	0.0345078701775815	0	1	NaN	53	1	53	2	120	220	320	NaN	520	0.238275222713128	2	0	NaN	1477282.053653	NaN	1477283.037061	1477283.55360728
48	27	1	0	90	36.1581920903955	36.241610738255	25	0.833393299952149	2	11	4	NaN	2	3	0.0345078701775815	0	1	NaN	54	1	54	2	120	220	320	NaN	520	0.384651537518948	2	1	NaN	1477284.3872073	NaN	1477285.3706768	1477285.88716236
48	27	1	0	90	36.1581920903955	36.241610738255	25	0.833393299952149	2	11	3	NaN	2	5	0.0345078701775815	0	1	NaN	55	1	55	2	120	220	320	NaN	520	0.293426422635093	1	0	NaN	1477286.8541365	NaN	1477287.8375334	1477288.35407718
48	27	1	0	90	36.1581920903955	36.241610738255	24	0.800057567954063	2	3	5	NaN	1	5	0.0345078701775815	0	1	NaN	56	1	56	2	120	220	320	NaN	520	0.790237665176392	1	1	NaN	1477289.2376762	NaN	1477290.2210804	1477290.73764313
48	27	1	0	90	36.1581920903955	36.241610738255	18	0.600043175965548	2	9	3	NaN	2	3	0.0345078701775815	0	1	NaN	57	1	57	2	120	220	320	NaN	520	0.25893097021617	2	1	NaN	1477292.1213109	NaN	1477293.1046977	1477293.62125213
48	27	1	0	90	36.1581920903955	36.241610738255	22	0.733386103957891	2	4	5	NaN	1	3	0.0345078701775815	0	1	NaN	58	1	58	2	120	220	320	NaN	520	0.364657370373607	1	1	NaN	1477294.4715315	NaN	1477295.454944	1477295.97148483
48	27	1	0	90	36.1581920903955	36.241610738255	24	0.800057567954063	2	8	2	NaN	2	4	0.0345078701775815	0	1	NaN	59	1	59	2	120	220	320	NaN	520	0.401985670207068	2	1	NaN	1477296.9217798	NaN	1477297.9051593	1477298.42172293
48	27	1	0	90	36.1581920903955	36.241610738255	16	0.533371711969376	2	2	1	NaN	1	4	0.0345078701775815	0	1	NaN	60	1	60	2	120	220	320	NaN	520	0.238546770298854	2	0	NaN	1477299.4053547	NaN	1477300.3887579	1477300.90530333
48	27	1	0	90	36.1581920903955	36.241610738255	13	0.433364515975118	2	8	3	NaN	2	5	0.0345078701775815	0	1	NaN	61	1	61	2	120	220	320	NaN	520	0.361276775365695	2	1	NaN	1477301.7389128	NaN	1477302.722324	1477303.23886292
48	27	1	0	90	36.1581920903955	36.241610738255	8	0.266685855984688	2	8	4	NaN	2	4	0.0345078701775815	0	1	NaN	62	1	62	2	120	220	320	NaN	520	0.30303319497034	1	0	NaN	1477304.1891515	NaN	1477305.1725368	1477305.6891119
48	27	1	0	90	36.1581920903955	36.241610738255	0	0	1	8	1	NaN	2	4	0.0345078701775815	0	1	NaN	63	1	63	2	110	210	310	NaN	510	0.110560670262203	2	1	NaN	1477306.5893902	NaN	1477307.5727783	1477308.08934243
48	27	1	0	90	36.1581920903955	36.241610738255	0	0	1	10	3	NaN	2	5	0.0345078701775815	0	1	NaN	64	2	1	2	110	210	310	NaN	510	0.302488870220259	2	1	NaN	1477309.5896928	NaN	1477310.5730885	1477311.08963513
48	27	1	0	90	36.1581920903955	36.241610738255	24	0.800057567954063	2	6	4	NaN	1	4	0.0345078701775815	0	1	NaN	65	2	2	2	120	220	320	NaN	520	0.0103962703142315	2	0	NaN	1477311.9899156	NaN	1477312.9733049	1477313.48987483
48	27	1	0	90	36.1581920903955	36.241610738255	13	0.433364515975118	2	9	6	NaN	2	3	0.0345078701775815	0	1	NaN	66	2	3	2	120	220	320	NaN	520	0.113676370121539	1	0	NaN	1477314.0901299	NaN	1477315.0735315	1477315.59007453
48	27	1	0	90	36.1581920903955	36.241610738255	21	0.700050371959805	2	8	6	NaN	2	5	0.0345078701775815	0	1	NaN	67	2	4	2	120	220	320	NaN	520	0.26585201267153	2	1	NaN	1477316.2903495	NaN	1477317.2737332	1477317.79029579
48	27	1	0	90	36.1581920903955	36.241610738255	0	0	1	10	6	NaN	2	3	0.0345078701775815	0	1	NaN	68	2	5	2	110	210	310	NaN	510	0.147283722413704	2	1	NaN	1477318.6405737	NaN	1477319.6239773	1477320.14052828
48	27	1	0	90	36.1581920903955	36.241610738255	16	0.533371711969376	2	10	1	NaN	2	3	0.0345078701775815	0	1	NaN	69	2	6	2	120	220	320	NaN	520	0.225801275111735	2	1	NaN	1477320.8741232	NaN	1477321.8575246	1477322.37408372
48	27	1	0	90	36.1581920903955	36.241610738255	0	0	1	8	5	NaN	2	4	0.0345078701775815	0	1	NaN	70	2	7	2	110	210	310	NaN	510	0.2368672224693	2	1	NaN	1477323.1910243	NaN	1477324.1744255	1477324.69096758
48	27	1	0	90	36.1581920903955	36.241610738255	21	0.700050371959805	2	2	2	NaN	1	5	0.0345078701775815	0	1	NaN	71	2	8	2	120	220	320	NaN	520	0.135510370368138	2	0	NaN	1477325.5245751	NaN	1477326.5079896	1477327.02452673
48	27	1	0	90	36.1581920903955	36.241610738255	12	0.400028783977032	2	9	3	NaN	2	4	0.0345078701775815	0	1	NaN	72	2	9	2	120	220	320	NaN	520	0.254380522528663	2	1	NaN	1477327.7414775	NaN	1477328.7248762	1477329.24142208
48	27	1	0	90	36.1581920903955	36.241610738255	11	0.366693051978946	2	12	5	NaN	2	4	0.0345078701775815	0	1	NaN	73	2	10	2	120	220	320	NaN	520	0.272584970109165	2	1	NaN	1477330.0916996	NaN	1477331.0751064	1477331.59164803
48	27	1	0	90	36.1581920903955	36.241610738255	0	0	1	4	4	NaN	1	5	0.0345078701775815	0	1	NaN	74	2	11	2	110	210	310	NaN	510	0.241739132674411	2	0	NaN	1477332.458597	NaN	1477333.4420012	1477333.95854867
48	27	1	0	90	36.1581920903955	36.241610738255	7	0.233350123986602	2	7	2	NaN	2	4	0.0345078701775815	0	1	NaN	75	2	12	2	120	220	320	NaN	520	0.323634970234707	2	1	NaN	1477334.7921585	NaN	1477335.7755659	1477336.29211123
48	27	1	0	90	36.1581920903955	36.241610738255	16	0.533371711969376	2	11	5	NaN	2	5	0.0345078701775815	0	1	NaN	76	2	13	2	120	220	320	NaN	520	0.0103741700295359	2	1	NaN	1477337.2090632	NaN	1477338.1923608	1477338.70900623
48	27	1	0	90	36.1581920903955	36.241610738255	23	0.766721835955977	2	2	4	NaN	1	4	0.0345078701775815	0	1	NaN	77	2	14	2	120	220	320	NaN	520	0.183062270283699	2	0	NaN	1477339.3092668	NaN	1477340.2926501	1477340.80922163
48	27	1	0	90	36.1581920903955	36.241610738255	14	0.466700247973204	2	1	4	NaN	1	4	0.0345078701775815	0	1	NaN	78	2	15	2	120	220	320	NaN	520	0.155825022608042	2	0	NaN	1477341.5761963	NaN	1477342.5595662	1477343.07611128
48	27	1	0	90	36.1581920903955	36.241610738255	11	0.366693051978946	2	12	3	NaN	2	3	0.0345078701775815	0	1	NaN	79	2	16	2	120	220	320	NaN	520	0.233662070240825	2	1	NaN	1477343.8263721	NaN	1477344.8097831	1477345.32632213
48	27	1	0	90	36.1581920903955	36.241610738255	7	0.233350123986602	2	12	2	NaN	2	3	0.0345078701775815	0	1	NaN	80	2	17	2	120	220	320	NaN	520	0.148673322517425	2	1	NaN	1477346.1432817	NaN	1477347.1266758	1477347.64322158
48	27	1	0	90	36.1581920903955	36.241610738255	22	0.733386103957891	2	6	3	NaN	1	3	0.0345078701775815	0	1	NaN	81	2	18	2	120	220	320	NaN	520	0.227351465029642	2	0	NaN	1477348.3768249	NaN	1477349.3602524	1477349.87677103
48	27	1	0	90	36.1581920903955	36.241610738255	19	0.633378907963633	2	7	1	NaN	2	4	0.0345078701775815	0	1	NaN	82	2	19	2	120	220	320	NaN	520	0.166234822478145	2	1	NaN	1477350.6937291	NaN	1477351.6771203	1477352.19367468
48	27	1	0	90	36.1581920903955	36.241610738255	11	0.366693051978946	2	7	6	NaN	2	3	0.0345078701775815	0	1	NaN	83	2	20	2	120	220	320	NaN	520	0.18016668013297	2	1	NaN	1477352.9439409	NaN	1477353.92734	1477354.44389852
48	27	1	0	90	36.1581920903955	36.241610738255	24	0.800057567954063	2	5	4	NaN	1	3	0.0345078701775815	0	1	NaN	84	2	21	2	120	220	320	NaN	520	0.200969617580995	2	0	NaN	1477355.2108266	NaN	1477356.1942211	1477356.71078118
48	27	1	0	90	36.1581920903955	36.241610738255	14	0.466700247973204	2	11	4	NaN	2	3	0.0345078701775815	0	1	NaN	85	2	22	2	120	220	320	NaN	520	0.0453553225379437	2	1	NaN	1477357.4944033	NaN	1477358.4777877	1477358.99434498
48	27	1	0	90	36.1581920903955	36.241610738255	12	0.400028783977032	2	4	2	NaN	1	4	0.0345078701775815	0	1	NaN	86	2	23	2	120	220	320	NaN	520	0.183972370345145	2	0	NaN	1477359.6279344	NaN	1477360.6113215	1477361.12787353
48	27	1	0	90	36.1581920903955	36.241610738255	18	0.600043175965548	2	6	4	NaN	1	5	0.0345078701775815	0	1	NaN	87	2	24	2	120	220	320	NaN	520	0.101030870340765	2	0	NaN	1477361.8948405	NaN	1477362.8782309	1477363.39477163
48	27	1	0	90	36.1581920903955	36.241610738255	25	0.833393299952149	2	1	2	NaN	1	3	0.0345078701775815	0	1	NaN	88	2	25	2	120	220	320	NaN	520	0.269820622634143	2	0	NaN	1477364.0783665	NaN	1477365.0617568	1477365.57832438
48	27	1	0	90	36.1581920903955	36.241610738255	16	0.533371711969376	2	7	5	NaN	2	4	0.0345078701775815	0	1	NaN	89	2	26	2	120	220	320	NaN	520	0.167123470222577	2	1	NaN	1477366.4452651	NaN	1477367.4286645	1477367.94521543
48	27	1	0	90	36.1581920903955	36.241610738255	12	0.400028783977032	2	7	1	NaN	2	4	0.0345078701775815	0	1	NaN	90	2	27	2	120	220	320	NaN	520	0.228938870131969	2	1	NaN	1477368.6954927	NaN	1477369.6788837	1477370.19543153
48	27	1	0	90	36.1581920903955	36.241610738255	12	0.400028783977032	2	5	6	NaN	1	3	0.0345078701775815	0	1	NaN	91	2	28	2	120	220	320	NaN	520	0.143666670192033	2	0	NaN	1477371.0123714	NaN	1477371.9957603	1477372.51233153
48	27	1	0	90	36.1581920903955	36.241610738255	18	0.600043175965548	2	11	5	NaN	2	4	0.0345078701775815	0	1	NaN	92	2	29	2	120	220	320	NaN	520	0.246391122695059	2	1	NaN	1477373.2459267	NaN	1477374.2293358	1477374.74588208
48	27	1	0	90	36.1581920903955	36.241610738255	7	0.233350123986602	2	3	6	NaN	1	3	0.0345078701775815	0	1	NaN	93	2	30	2	120	220	320	NaN	520	0.192363470327109	2	0	NaN	1477375.5794916	NaN	1477376.5628955	1477377.07944093
48	27	1	0	90	36.1581920903955	36.241610738255	11	0.366693051978946	2	7	5	NaN	2	4	0.0345078701775815	0	1	NaN	94	2	31	2	120	220	320	NaN	520	0.309000970097259	2	1	NaN	1477377.8630518	NaN	1477378.8464546	1477379.36299653
48	27	1	0	90	36.1581920903955	36.241610738255	10	0.33335731998086	2	10	4	NaN	2	4	0.0345078701775815	0	1	NaN	95	2	32	2	120	220	320	NaN	520	0.277099470142275	2	1	NaN	1477380.2632837	NaN	1477381.2466854	1477381.76323613
48	27	1	0	90	36.1581920903955	36.241610738255	22	0.733386103957891	2	1	1	NaN	1	3	0.0345078701775815	0	1	NaN	96	2	33	2	120	220	320	NaN	520	0.0103876176290214	2	0	NaN	1477382.6301879	NaN	1477383.6135878	1477384.13013578
48	27	1	0	90	36.1581920903955	36.241610738255	19	0.633378907963633	2	5	2	NaN	1	5	0.0345078701775815	0	1	NaN	97	2	34	2	120	220	320	NaN	520	0.185945170233026	2	0	NaN	1477384.7303957	NaN	1477385.7137803	1477386.23034333
48	27	1	0	90	36.1581920903955	36.241610738255	0	0	1	12	4	NaN	2	3	0.0345078701775815	0	1	NaN	98	2	35	2	110	210	310	NaN	510	0.229945922736079	2	1	NaN	1477387.0139499	NaN	1477387.9973364	1477388.51390338
48	27	1	0	90	36.1581920903955	36.241610738255	21	0.700050371959805	2	10	4	NaN	2	5	0.0345078701775815	0	1	NaN	99	2	36	2	120	220	320	NaN	520	0.017190570011735	2	1	NaN	1477389.3308557	NaN	1477390.3142336	1477390.83079643
48	27	1	0	90	36.1581920903955	36.241610738255	14	0.466700247973204	2	3	2	NaN	1	5	0.0345078701775815	0	1	NaN	100	2	37	2	120	220	320	NaN	520	0.292544270167127	2	0	NaN	1477391.4477261	NaN	1477392.4311235	1477392.94766353
48	27	1	0	90	36.1581920903955	36.241610738255	19	0.633378907963633	2	11	1	NaN	2	4	0.0345078701775815	0	1	NaN	101	2	38	2	120	220	320	NaN	520	0.236636470304802	2	1	NaN	1477393.8312951	NaN	1477394.8146732	1477395.33123843
48	27	1	0	90	36.1581920903955	36.241610738255	19	0.633378907963633	2	12	5	NaN	2	4	0.0345078701775815	0	1	NaN	102	2	39	2	120	220	320	NaN	520	0.287454522680491	2	1	NaN	1477396.1648409	NaN	1477397.148243	1477397.66480158
48	27	1	0	90	36.1581920903955	36.241610738255	6	0.200014391988516	2	11	6	NaN	2	5	0.0345078701775815	0	1	NaN	103	2	40	2	120	220	320	NaN	520	0.27946642274037	2	1	NaN	1477398.548422	NaN	1477399.5318231	1477400.04837308
48	27	1	0	90	36.1581920903955	36.241610738255	15	0.50003597997129	2	6	4	NaN	1	3	0.0345078701775815	0	1	NaN	104	2	41	2	120	220	320	NaN	520	0.248857622500509	2	0	NaN	1477400.9153166	NaN	1477401.8987106	1477402.41527098
48	27	1	0	90	36.1581920903955	36.241610738255	17	0.566707443967462	2	5	4	NaN	1	4	0.0345078701775815	0	1	NaN	105	2	42	2	120	220	320	NaN	520	0.115124070085585	2	0	NaN	1477403.2488794	NaN	1477404.2322787	1477404.74882553
48	27	1	0	90	36.1581920903955	36.241610738255	8	0.266685855984688	2	4	4	NaN	1	5	0.0345078701775815	0	1	NaN	106	2	43	2	120	220	320	NaN	520	6.02694702264853	2	0	NaN	1477405.4490949	NaN	1477406.4324917	1477406.94904558
48	27	1	0	90	36.1581920903955	36.241610738255	7	0.233350123986602	2	3	6	NaN	1	4	0.0345078701775815	0	1	NaN	107	2	44	2	120	220	320	NaN	520	0.277523190015927	1	1	NaN	1477413.5665744	NaN	1477414.5499642	1477415.06651691
48	27	1	0	90	36.1581920903955	36.241610738255	23	0.766721835955977	2	1	1	NaN	1	4	0.0345078701775815	0	1	NaN	108	2	45	2	120	220	320	NaN	520	0.0103879175148904	1	1	NaN	1477415.9334529	NaN	1477416.9168523	1477417.43340648
48	27	1	0	90	36.1581920903955	36.241610738255	16	0.533371711969376	2	10	5	NaN	2	3	0.0345078701775815	0	1	NaN	109	2	46	2	120	220	320	NaN	520	0.154620670247823	2	1	NaN	1477418.0336711	NaN	1477419.0170651	1477419.53361253
48	27	1	0	90	36.1581920903955	36.241610738255	25	0.833393299952149	2	9	4	NaN	2	3	0.0345078701775815	0	1	NaN	110	2	47	2	120	220	320	NaN	520	0.0103758701588959	2	1	NaN	1477420.2838985	NaN	1477421.2672823	1477421.78382853
48	27	1	0	90	36.1581920903955	36.241610738255	25	0.833393299952149	2	5	1	NaN	1	3	0.0345078701775815	0	1	NaN	111	2	48	2	120	220	320	NaN	520	0.0103745702654123	2	0	NaN	1477422.3840889	NaN	1477423.3674896	1477423.88403543
48	27	1	0	90	36.1581920903955	36.241610738255	23	0.766721835955977	2	12	4	NaN	2	3	0.0345078701775815	0	1	NaN	112	2	49	2	120	220	320	NaN	520	0.0477339702192694	2	1	NaN	1477424.4842957	NaN	1477425.4676934	1477425.98423793
48	27	1	0	90	36.1581920903955	36.241610738255	18	0.600043175965548	2	11	5	NaN	2	3	0.0345078701775815	0	1	NaN	113	2	50	2	120	220	320	NaN	520	0.23409177036956	2	1	NaN	1477426.617838	NaN	1477427.6012395	1477428.11778933
48	27	1	0	90	36.1581920903955	36.241610738255	10	0.33335731998086	2	3	5	NaN	1	4	0.0345078701775815	0	1	NaN	114	2	51	2	120	220	320	NaN	520	0.268557770177722	1	1	NaN	1477428.9514055	NaN	1477429.9348266	1477430.45134433
48	27	1	0	90	36.1581920903955	36.241610738255	20	0.66671463996172	2	1	3	NaN	1	5	0.0345078701775815	0	1	NaN	115	2	52	2	120	220	320	NaN	520	0.238794522592798	1	1	NaN	1477431.3016471	NaN	1477432.2850257	1477432.80157788
48	27	1	0	90	36.1581920903955	36.241610738255	14	0.466700247973204	2	10	5	NaN	2	4	0.0345078701775815	0	1	NaN	116	2	53	2	120	220	320	NaN	520	0.192749090027064	2	1	NaN	1477433.6351906	NaN	1477434.6186002	1477435.13515401
48	27	1	0	90	36.1581920903955	36.241610738255	13	0.433364515975118	2	6	3	NaN	1	4	0.0345078701775815	0	1	NaN	117	2	54	2	120	220	320	NaN	520	0.245692175114527	2	0	NaN	1477435.9187473	NaN	1477436.9021532	1477437.41870922
48	27	1	0	90	36.1581920903955	36.241610738255	9	0.300021587982774	2	11	4	NaN	2	5	0.0345078701775815	0	1	NaN	118	2	55	2	120	220	320	NaN	520	0.22382922261022	2	1	NaN	1477438.252316	NaN	1477439.2357142	1477439.75225778
48	27	1	0	90	36.1581920903955	36.241610738255	14	0.466700247973204	2	6	1	NaN	1	5	0.0345078701775815	0	1	NaN	119	2	56	2	120	220	320	NaN	520	0.218897770391777	2	0	NaN	1477440.5692312	NaN	1477441.5526137	1477442.06915323
48	27	1	0	90	36.1581920903955	36.241610738255	21	0.700050371959805	2	12	6	NaN	2	4	0.0345078701775815	0	1	NaN	120	2	57	2	120	220	320	NaN	520	0.222854722756892	1	0	NaN	1477442.8694362	NaN	1477443.8528376	1477444.36937908
48	27	1	0	90	36.1581920903955	36.241610738255	11	0.366693051978946	2	4	4	NaN	1	3	0.0345078701775815	0	1	NaN	121	2	58	2	120	220	320	NaN	520	0.225761270383373	2	0	NaN	1477445.1863266	NaN	1477446.1697322	1477446.68627793
48	27	1	0	90	36.1581920903955	36.241610738255	13	0.433364515975118	2	11	1	NaN	2	4	0.0345078701775815	0	1	NaN	122	2	59	2	120	220	320	NaN	520	0.204737417632714	2	1	NaN	1477447.503208	NaN	1477448.4866277	1477449.00316488
48	27	1	0	90	36.1581920903955	36.241610738255	19	0.633378907963633	2	3	2	NaN	1	5	0.0345078701775815	0	1	NaN	123	2	60	2	120	220	320	NaN	520	0.256701942533255	2	0	NaN	1477449.8034489	NaN	1477450.7868347	1477451.30340146
48	27	1	0	90	36.1581920903955	36.241610738255	8	0.266685855984688	2	9	1	NaN	2	3	0.0345078701775815	0	1	NaN	124	2	61	2	120	220	320	NaN	520	0.322436822578311	2	1	NaN	1477452.1536761	NaN	1477453.1370714	1477453.65363488
48	27	1	0	90	36.1581920903955	36.241610738255	20	0.66671463996172	2	1	6	NaN	1	5	0.0345078701775815	0	1	NaN	125	2	62	2	120	220	320	NaN	520	0.169524570228532	2	0	NaN	1477454.5705798	NaN	1477455.553988	1477456.07053073
48	27	1	0	90	36.1581920903955	36.241610738255	15	0.50003597997129	2	10	2	NaN	2	3	0.0345078701775815	0	1	NaN	126	2	63	2	120	220	320	NaN	520	0.246864570071921	2	1	NaN	1477456.8374718	NaN	1477457.8208713	1477458.33741733
48	27	1	0	90	36.1581920903955	36.241610738255	8	0.266685855984688	2	7	2	NaN	2	4	0.0345078701775815	0	1	NaN	127	3	1	2	120	220	320	NaN	520	0.2715686224401	2	1	NaN	1477460.6045017	NaN	1477461.5879119	1477462.10446318
48	27	1	0	90	36.1581920903955	36.241610738255	18	0.600043175965548	2	1	2	NaN	1	5	0.0345078701775815	0	1	NaN	128	3	2	2	120	220	320	NaN	520	0.0246442325878888	2	0	NaN	1477462.9713992	NaN	1477463.9547974	1477464.47135527
48	27	1	0	90	36.1581920903955	36.241610738255	22	0.733386103957891	2	5	1	NaN	1	4	0.0345078701775815	0	1	NaN	129	3	3	2	120	220	320	NaN	520	0.0838162703439593	2	0	NaN	1477465.0882823	NaN	1477466.0716804	1477466.58823183
48	27	1	0	90	36.1581920903955	36.241610738255	11	0.366693051978946	2	9	6	NaN	2	4	0.0345078701775815	0	1	NaN	130	3	4	2	120	220	320	NaN	520	0.0370482702273875	2	1	NaN	1477467.2551676	NaN	1477468.2385653	1477468.75511573
48	27	1	0	90	36.1581920903955	36.241610738255	0	0	1	5	3	NaN	1	5	0.0345078701775815	0	1	NaN	131	3	5	2	110	210	310	NaN	510	0.111359722679481	2	0	NaN	1477469.3886984	NaN	1477470.3721242	1477470.88865148
48	27	1	0	90	36.1581920903955	36.241610738255	6	0.200014391988516	2	2	1	NaN	1	4	0.0345078701775815	0	1	NaN	132	3	6	2	120	220	320	NaN	520	0.119378317613155	2	0	NaN	1477471.5889369	NaN	1477472.5723012	1477473.08886618
48	27	1	0	90	36.1581920903955	36.241610738255	24	0.800057567954063	2	2	2	NaN	1	5	0.0345078701775815	0	1	NaN	133	3	7	2	120	220	320	NaN	520	0.190602422459051	2	0	NaN	1477473.805806	NaN	1477474.7892104	1477475.30575948
48	27	1	0	90	36.1581920903955	36.241610738255	11	0.366693051978946	2	5	3	NaN	1	3	0.0345078701775815	0	1	NaN	134	3	8	2	120	220	320	NaN	520	0.267154370201752	2	0	NaN	1477476.0892179	NaN	1477477.0727646	1477477.58930373
48	27	1	0	90	36.1581920903955	36.241610738255	12	0.400028783977032	2	5	4	NaN	1	5	0.0345078701775815	0	1	NaN	135	3	9	2	120	220	320	NaN	520	0.20463387016207	2	0	NaN	1477478.439597	NaN	1477479.4229891	1477479.93954273
48	27	1	0	90	36.1581920903955	36.241610738255	13	0.433364515975118	2	5	6	NaN	1	4	0.0345078701775815	0	1	NaN	136	3	10	2	120	220	320	NaN	520	0.192691670265049	2	0	NaN	1477480.7398243	NaN	1477481.7232143	1477482.23976313
48	27	1	0	90	36.1581920903955	36.241610738255	7	0.233350123986602	2	1	1	NaN	1	5	0.0345078701775815	0	1	NaN	137	3	11	2	120	220	320	NaN	520	0.285125922644511	1	1	NaN	1477483.0233689	NaN	1477484.0067722	1477484.52332738
48	27	1	0	90	36.1581920903955	36.241610738255	11	0.366693051978946	2	8	5	NaN	2	5	0.0345078701775815	0	1	NaN	138	3	12	2	120	220	320	NaN	520	0.221954270033166	2	1	NaN	1477485.3902953	NaN	1477486.3736603	1477486.89021873
48	27	1	0	90	36.1581920903955	36.241610738255	11	0.366693051978946	2	2	4	NaN	1	4	0.0345078701775815	0	1	NaN	139	3	13	2	120	220	320	NaN	520	0.313334637554362	2	0	NaN	1477487.7071629	NaN	1477488.6905714	1477489.20712326
48	27	1	0	90	36.1581920903955	36.241610738255	21	0.700050371959805	2	12	3	NaN	2	5	0.0345078701775815	0	1	NaN	140	3	14	2	120	220	320	NaN	520	0.232795470161363	2	1	NaN	1477490.1074017	NaN	1477491.0908045	1477491.60734693
48	27	1	0	90	36.1581920903955	36.241610738255	23	0.766721835955977	2	10	6	NaN	2	5	0.0345078701775815	0	1	NaN	141	3	15	2	120	220	320	NaN	520	0.15623527020216	2	1	NaN	1477492.4244045	NaN	1477493.4077042	1477493.92424103
48	27	1	0	90	36.1581920903955	36.241610738255	22	0.733386103957891	2	8	6	NaN	2	4	0.0345078701775815	0	1	NaN	142	3	16	2	120	220	320	NaN	520	0.153991570230573	2	1	NaN	1477494.6745256	NaN	1477495.6579199	1477496.17446793
48	27	1	0	90	36.1581920903955	36.241610738255	0	0	1	1	1	NaN	1	5	0.0345078701775815	0	1	NaN	143	3	17	2	110	210	310	NaN	510	0.279740284895524	2	0	NaN	1477496.9247466	NaN	1477497.9081334	1477498.42468582
48	27	1	0	90	36.1581920903955	36.241610738255	6	0.200014391988516	2	5	3	NaN	1	4	0.0345078701775815	0	1	NaN	144	3	18	2	120	220	320	NaN	520	0.288741970201954	2	0	NaN	1477499.2916348	NaN	1477500.2750339	1477500.79158593
48	27	1	0	90	36.1581920903955	36.241610738255	14	0.466700247973204	2	1	2	NaN	1	4	0.0345078701775815	0	1	NaN	145	3	19	2	120	220	320	NaN	520	0.184965532738715	2	0	NaN	1477501.6751933	NaN	1477502.6586194	1477503.17515487
48	27	1	0	90	36.1581920903955	36.241610738255	11	0.366693051978946	2	2	5	NaN	1	4	0.0345078701775815	0	1	NaN	146	3	20	2	120	220	320	NaN	520	0.23037662752904	2	0	NaN	1477503.9420941	NaN	1477504.9254848	1477505.44204967
48	27	1	0	90	36.1581920903955	36.241610738255	8	0.266685855984688	2	10	1	NaN	2	3	0.0345078701775815	0	1	NaN	147	3	21	2	120	220	320	NaN	520	0.0492902603000402	2	1	NaN	1477506.2589899	NaN	1477507.2423834	1477507.75893214
48	27	1	0	90	36.1581920903955	36.241610738255	22	0.733386103957891	2	1	3	NaN	1	3	0.0345078701775815	0	1	NaN	148	3	22	2	120	220	320	NaN	520	0.219973770203069	2	0	NaN	1477508.3925224	NaN	1477509.3759329	1477509.89247693
48	27	1	0	90	36.1581920903955	36.241610738255	24	0.800057567954063	2	1	5	NaN	1	4	0.0345078701775815	0	1	NaN	149	3	23	2	120	220	320	NaN	520	0.135037222644314	2	0	NaN	1477510.7094347	NaN	1477511.6928789	1477512.20938168
48	27	1	0	90	36.1581920903955	36.241610738255	22	0.733386103957891	2	11	3	NaN	2	5	0.0345078701775815	0	1	NaN	150	3	24	2	120	220	320	NaN	520	0.116920122643933	2	1	NaN	1477512.9429744	NaN	1477513.9263677	1477514.44293278
48	27	1	0	90	36.1581920903955	36.241610738255	17	0.566707443967462	2	7	1	NaN	2	5	0.0345078701775815	0	1	NaN	151	3	25	2	120	220	320	NaN	520	0.173310870071873	2	1	NaN	1477515.1431862	NaN	1477516.1265875	1477516.64314503
48	27	1	0	90	36.1581920903955	36.241610738255	11	0.366693051978946	2	6	6	NaN	1	4	0.0345078701775815	0	1	NaN	152	3	26	2	120	220	320	NaN	520	0.01037887041457	2	0	NaN	1477517.4100985	NaN	1477518.3934799	1477518.91002463
48	27	1	0	90	36.1581920903955	36.241610738255	22	0.733386103957891	2	7	3	NaN	2	3	0.0345078701775815	0	1	NaN	153	3	27	2	120	220	320	NaN	520	0.133875670144334	2	1	NaN	1477519.5102807	NaN	1477520.4936821	1477521.01024003
48	27	1	0	90	36.1581920903955	36.241610738255	16	0.533371711969376	2	4	1	NaN	1	3	0.0345078701775815	0	1	NaN	154	3	28	2	120	220	320	NaN	520	0.172502970090136	2	0	NaN	1477521.7438378	NaN	1477522.7272541	1477523.24378413
48	27	1	0	90	36.1581920903955	36.241610738255	22	0.733386103957891	2	2	1	NaN	1	4	0.0345078701775815	0	1	NaN	155	3	29	2	120	220	320	NaN	520	0.169495122507215	2	0	NaN	1477524.0107256	NaN	1477524.9941272	1477525.51067698
48	27	1	0	90	36.1581920903955	36.241610738255	11	0.366693051978946	2	8	3	NaN	2	3	0.0345078701775815	0	1	NaN	156	3	30	2	120	220	320	NaN	520	0.238949422724545	2	1	NaN	1477526.2776342	NaN	1477527.2610249	1477527.77757618
48	27	1	0	90	36.1581920903955	36.241610738255	20	0.66671463996172	2	8	1	NaN	2	3	0.0345078701775815	0	1	NaN	157	3	31	2	120	220	320	NaN	520	0.288903922541067	2	1	NaN	1477528.6112008	NaN	1477529.59459	1477530.11112948
48	27	1	0	90	36.1581920903955	36.241610738255	24	0.800057567954063	2	9	3	NaN	2	4	0.0345078701775815	0	1	NaN	158	3	32	2	120	220	320	NaN	520	0.249780570389703	2	1	NaN	1477530.9947437	NaN	1477531.9781519	1477532.49469563
48	27	1	0	90	36.1581920903955	36.241610738255	13	0.433364515975118	2	10	2	NaN	2	3	0.0345078701775815	0	1	NaN	159	3	33	2	120	220	320	NaN	520	0.195842170156538	2	1	NaN	1477533.3283096	NaN	1477534.3117144	1477534.82825453
48	27	1	0	90	36.1581920903955	36.241610738255	8	0.266685855984688	2	10	1	NaN	2	4	0.0345078701775815	0	1	NaN	160	3	34	2	120	220	320	NaN	520	0.144244670169428	2	1	NaN	1477535.6118661	NaN	1477536.5952756	1477537.11181693
48	27	1	0	90	36.1581920903955	36.241610738255	14	0.466700247973204	2	7	4	NaN	2	4	0.0345078701775815	0	1	NaN	161	3	35	2	120	220	320	NaN	520	0.0708384702447802	2	1	NaN	1477537.845412	NaN	1477538.8288191	1477539.34537043
48	27	1	0	90	36.1581920903955	36.241610738255	23	0.766721835955977	2	8	5	NaN	2	5	0.0345078701775815	0	1	NaN	162	3	36	2	120	220	320	NaN	520	0.10379242268391	2	1	NaN	1477540.0123021	NaN	1477540.9957022	1477541.51224648
48	27	1	0	90	36.1581920903955	36.241610738255	9	0.300021587982774	2	6	3	NaN	1	5	0.0345078701775815	0	1	NaN	163	3	37	2	120	220	320	NaN	520	0.216040722560138	2	0	NaN	1477542.2125283	NaN	1477543.1959211	1477543.71246438
48	27	1	0	90	36.1581920903955	36.241610738255	6	0.200014391988516	2	3	5	NaN	1	5	0.0345078701775815	0	1	NaN	164	3	38	2	120	220	320	NaN	520	0.315856370376423	2	0	NaN	1477544.5127613	NaN	1477545.4961481	1477546.01268993
48	27	1	0	90	36.1581920903955	36.241610738255	6	0.200014391988516	2	10	2	NaN	2	3	0.0345078701775815	0	1	NaN	165	3	39	2	120	220	320	NaN	520	0.179288070183247	2	1	NaN	1477546.9129797	NaN	1477547.8963764	1477548.41292483
48	27	1	0	90	36.1581920903955	36.241610738255	15	0.50003597997129	2	4	2	NaN	1	3	0.0345078701775815	0	1	NaN	166	3	40	2	120	220	320	NaN	520	0.33630977012217	2	0	NaN	1477549.17986	NaN	1477550.1632675	1477550.67981053
48	27	1	0	90	36.1581920903955	36.241610738255	9	0.300021587982774	2	2	5	NaN	1	4	0.0345078701775815	0	1	NaN	167	3	41	2	120	220	320	NaN	520	0.126872327644378	2	0	NaN	1477551.6134343	NaN	1477552.5968394	1477553.11338897
48	27	1	0	90	36.1581920903955	36.241610738255	9	0.300021587982774	2	9	5	NaN	2	4	0.0345078701775815	0	1	NaN	168	3	42	2	120	220	320	NaN	520	0.997784322593361	1	0	NaN	1477553.8303276	NaN	1477554.8137203	1477555.33028028
48	27	1	0	90	36.1581920903955	36.241610738255	10	0.33335731998086	2	9	2	NaN	2	4	0.0345078701775815	0	1	NaN	169	3	43	2	120	220	320	NaN	520	0.434626122470945	2	1	NaN	1477556.9139673	NaN	1477557.8973724	1477558.41391008
48	27	1	0	90	36.1581920903955	36.241610738255	16	0.533371711969376	2	9	1	NaN	2	4	0.0345078701775815	0	1	NaN	170	3	44	2	120	220	320	NaN	520	0.140548622701317	2	1	NaN	1477559.4475345	NaN	1477560.430837	1477560.94749438
48	27	1	0	90	36.1581920903955	36.241610738255	13	0.433364515975118	2	10	2	NaN	2	5	0.0345078701775815	0	1	NaN	171	3	45	2	120	220	320	NaN	520	0.243568322621286	1	0	NaN	1477561.6810993	NaN	1477562.6645035	1477563.18103978
48	27	1	0	90	36.1581920903955	36.241610738255	25	0.833393299952149	2	6	2	NaN	1	4	0.0345078701775815	0	1	NaN	172	3	46	2	120	220	320	NaN	520	0.221709070261568	1	1	NaN	1477564.0146627	NaN	1477564.998057	1477565.51459963
48	27	1	0	90	36.1581920903955	36.241610738255	7	0.233350123986602	2	10	3	NaN	2	5	0.0345078701775815	0	1	NaN	173	3	47	2	120	220	320	NaN	520	0.13696777028963	2	1	NaN	1477566.3315545	NaN	1477567.3149634	1477567.83150243
48	27	1	0	90	36.1581920903955	36.241610738255	6	0.200014391988516	2	5	6	NaN	1	5	0.0345078701775815	0	1	NaN	174	3	48	2	120	220	320	NaN	520	1.00746977003291	2	0	NaN	1477568.5651235	NaN	1477569.5484998	1477570.06504663
48	27	1	0	90	36.1581920903955	36.241610738255	21	0.700050371959805	2	6	6	NaN	1	4	0.0345078701775815	0	1	NaN	175	3	49	2	120	220	320	NaN	520	0.251170222647488	1	1	NaN	1477571.6652254	NaN	1477572.6488105	1477573.16536038
48	27	1	0	90	36.1581920903955	36.241610738255	16	0.533371711969376	2	9	4	NaN	2	4	0.0345078701775815	0	1	NaN	176	3	50	2	120	220	320	NaN	520	0.157357717631385	2	1	NaN	1477573.9989716	NaN	1477574.9823513	1477575.49891628
48	27	1	0	90	36.1581920903955	36.241610738255	23	0.766721835955977	2	5	2	NaN	1	3	0.0345078701775815	0	1	NaN	177	3	51	2	120	220	320	NaN	520	0.0107927226927131	2	0	NaN	1477576.2491993	NaN	1477577.2325996	1477577.74914118
48	27	1	0	90	36.1581920903955	36.241610738255	22	0.733386103957891	2	8	1	NaN	2	3	0.0345078701775815	0	1	NaN	178	3	52	2	120	220	320	NaN	520	0.102793622529134	2	1	NaN	1477578.349403	NaN	1477579.3327853	1477579.84935278
48	27	1	0	90	36.1581920903955	36.241610738255	16	0.533371711969376	2	2	4	NaN	1	5	0.0345078701775815	0	1	NaN	179	3	53	2	120	220	320	NaN	520	0.310891442466527	2	0	NaN	1477580.5496047	NaN	1477581.533006	1477582.04956366
48	27	1	0	90	36.1581920903955	36.241610738255	24	0.800057567954063	2	12	1	NaN	2	5	0.0345078701775815	0	1	NaN	180	3	54	2	120	220	320	NaN	520	0.038323970278725	2	1	NaN	1477582.9498605	NaN	1477583.9332533	1477584.44979373
48	27	1	0	90	36.1581920903955	36.241610738255	12	0.400028783977032	2	4	1	NaN	1	5	0.0345078701775815	0	1	NaN	181	3	55	2	120	220	320	NaN	520	0.241235722554848	1	1	NaN	1477585.083379	NaN	1477586.0667978	1477586.58334678
48	27	1	0	90	36.1581920903955	36.241610738255	23	0.766721835955977	2	11	3	NaN	2	4	0.0345078701775815	0	1	NaN	182	3	56	2	120	220	320	NaN	520	0.211691270349547	2	1	NaN	1477587.4169617	NaN	1477588.4003531	1477588.91690013
48	27	1	0	90	36.1581920903955	36.241610738255	19	0.633378907963633	2	2	2	NaN	1	3	0.0345078701775815	0	1	NaN	183	3	57	2	120	220	320	NaN	520	0.159403037745506	2	0	NaN	1477589.717174	NaN	1477590.7005734	1477591.21713396
48	27	1	0	90	36.1581920903955	36.241610738255	18	0.600043175965548	2	3	1	NaN	1	5	0.0345078701775815	0	1	NaN	184	3	58	2	120	220	320	NaN	520	0.10885447030887	2	0	NaN	1477591.9674019	NaN	1477592.950828	1477593.46734343
48	27	1	0	90	36.1581920903955	36.241610738255	7	0.233350123986602	2	8	6	NaN	2	5	0.0345078701775815	0	1	NaN	185	3	59	2	120	220	320	NaN	520	0.404655322665349	2	1	NaN	1477594.1676196	NaN	1477595.1510193	1477595.66756728
48	27	1	0	90	36.1581920903955	36.241610738255	12	0.400028783977032	2	12	1	NaN	2	3	0.0345078701775815	0	1	NaN	186	3	60	2	120	220	320	NaN	520	0.168189775198698	2	1	NaN	1477596.6678688	NaN	1477597.6512687	1477598.16781362
48	27	1	0	90	36.1581920903955	36.241610738255	21	0.700050371959805	2	7	3	NaN	2	3	0.0345078701775815	0	1	NaN	187	3	61	2	120	220	320	NaN	520	0.214191022561863	1	0	NaN	1477598.91808	NaN	1477599.9014807	1477600.41803648
48	27	1	0	90	36.1581920903955	36.241610738255	8	0.266685855984688	2	3	1	NaN	1	3	0.0345078701775815	0	1	NaN	188	3	62	2	120	220	320	NaN	520	0.0820072703063488	2	0	NaN	1477601.2183045	NaN	1477602.2017099	1477602.71825183
48	27	1	0	90	36.1581920903955	36.241610738255	17	0.566707443967462	2	6	4	NaN	1	3	0.0345078701775815	0	1	NaN	189	3	63	2	120	220	320	NaN	520	0.179262922611088	2	0	NaN	1477603.3851849	NaN	1477604.3685925	1477604.88513688
48	27	1	0	90	36.1581920903955	36.241610738255	25	0.833393299952149	2	4	3	NaN	1	3	0.0345078701775815	0	1	NaN	190	4	1	2	120	220	320	NaN	520	0.244697622489184	2	0	NaN	1477608.9357633	NaN	1477609.9191417	1477610.43567808
48	27	1	0	90	36.1581920903955	36.241610738255	10	0.33335731998086	2	4	6	NaN	1	4	0.0345078701775815	0	1	NaN	191	4	2	2	120	220	320	NaN	520	0.0710162702016532	2	0	NaN	1477611.2693043	NaN	1477612.2527015	1477612.76923703
48	27	1	0	90	36.1581920903955	36.241610738255	24	0.800057567954063	2	4	2	NaN	1	5	0.0345078701775815	0	1	NaN	192	4	3	2	120	220	320	NaN	520	0.0880500227212906	2	0	NaN	1477613.436169	NaN	1477614.4195871	1477614.93611998
48	27	1	0	90	36.1581920903955	36.241610738255	15	0.50003597997129	2	7	3	NaN	2	4	0.0345078701775815	0	1	NaN	193	4	4	2	120	220	320	NaN	520	0.0885635702870786	2	1	NaN	1477615.6197255	NaN	1477616.6031167	1477617.11967003
48	27	1	0	90	36.1581920903955	36.241610738255	6	0.200014391988516	2	6	3	NaN	1	3	0.0345078701775815	0	1	NaN	194	4	5	2	120	220	320	NaN	520	0.12898841756396	2	0	NaN	1477617.8032648	NaN	1477618.786663	1477619.30321048
48	27	1	0	90	36.1581920903955	36.241610738255	17	0.566707443967462	2	10	3	NaN	2	5	0.0345078701775815	0	1	NaN	195	4	6	2	120	220	320	NaN	520	0.136593370232731	2	1	NaN	1477620.0201472	NaN	1477621.0035538	1477621.52009423
48	27	1	0	90	36.1581920903955	36.241610738255	16	0.533371711969376	2	3	6	NaN	1	5	0.0345078701775815	0	1	NaN	196	4	7	2	120	220	320	NaN	520	0.142867822665721	2	0	NaN	1477622.2537002	NaN	1477623.2370989	1477623.75365708
48	27	1	0	90	36.1581920903955	36.241610738255	18	0.600043175965548	2	2	5	NaN	1	4	0.0345078701775815	0	1	NaN	197	4	8	2	120	220	320	NaN	520	0.0530330701731145	2	0	NaN	1477624.4872531	NaN	1477625.4706187	1477625.98720233
48	27	1	0	90	36.1581920903955	36.241610738255	12	0.400028783977032	2	1	5	NaN	1	3	0.0345078701775815	0	1	NaN	198	4	9	2	120	220	320	NaN	520	0.0148977702483535	2	0	NaN	1477626.6374719	NaN	1477627.620875	1477628.13741363
48	27	1	0	90	36.1581920903955	36.241610738255	0	0	1	6	5	NaN	1	4	0.0345078701775815	0	1	NaN	199	4	10	2	110	210	310	NaN	510	0.0667523224838078	2	0	NaN	1477628.7375477	NaN	1477629.7210806	1477630.23762758
48	27	1	0	90	36.1581920903955	36.241610738255	24	0.800057567954063	2	11	4	NaN	2	5	0.0345078701775815	0	1	NaN	200	4	11	2	120	220	320	NaN	520	0.228622170165181	2	1	NaN	1477630.8878868	NaN	1477631.8712812	1477632.38783633
48	27	1	0	90	36.1581920903955	36.241610738255	13	0.433364515975118	2	9	2	NaN	2	4	0.0345078701775815	0	1	NaN	201	4	12	2	120	220	320	NaN	520	0.0795655224937946	2	1	NaN	1477633.2047762	NaN	1477634.1881603	1477634.70473668
48	27	1	0	90	36.1581920903955	36.241610738255	23	0.766721835955977	2	7	3	NaN	2	3	0.0345078701775815	0	1	NaN	202	4	13	2	120	220	320	NaN	520	0.0407581175677478	2	1	NaN	1477635.3716608	NaN	1477636.355148	1477636.87160818
48	27	1	0	90	36.1581920903955	36.241610738255	0	0	1	2	5	NaN	1	3	0.0345078701775815	0	1	NaN	203	4	14	2	110	210	310	NaN	510	0.259142370196059	2	0	NaN	1477637.5052021	NaN	1477638.488586	1477639.00514583
48	27	1	0	90	36.1581920903955	36.241610738255	21	0.700050371959805	2	10	6	NaN	2	3	0.0345078701775815	0	1	NaN	204	4	15	2	120	220	320	NaN	520	0.0768449702300131	2	1	NaN	1477639.8554341	NaN	1477640.8388283	1477641.35537833
48	27	1	0	90	36.1581920903955	36.241610738255	19	0.633378907963633	2	8	4	NaN	2	5	0.0345078701775815	0	1	NaN	205	4	16	2	120	220	320	NaN	520	0.0103741702623665	2	1	NaN	1477642.0223106	NaN	1477643.0057097	1477643.52225463
48	27	1	0	90	36.1581920903955	36.241610738255	24	0.800057567954063	2	2	2	NaN	1	4	0.0345078701775815	0	1	NaN	206	4	17	2	120	220	320	NaN	520	0.177949470235035	2	0	NaN	1477644.1225168	NaN	1477645.1059232	1477645.62246753
48	27	1	0	90	36.1581920903955	36.241610738255	8	0.266685855984688	2	2	3	NaN	1	3	0.0345078701775815	0	1	NaN	207	4	18	2	120	220	320	NaN	520	0.167349775088951	2	0	NaN	1477646.3894033	NaN	1477647.3728094	1477647.88935942
48	27	1	0	90	36.1581920903955	36.241610738255	20	0.66671463996172	2	2	5	NaN	1	4	0.0345078701775815	0	1	NaN	208	4	19	2	120	220	320	NaN	520	0.100731622660533	2	0	NaN	1477648.6396277	NaN	1477649.6230284	1477650.13957798
48	27	1	0	90	36.1581920903955	36.241610738255	13	0.433364515975118	2	8	6	NaN	2	5	0.0345078701775815	0	1	NaN	209	4	20	2	120	220	320	NaN	520	0.2453094702214	2	1	NaN	1477650.8231763	NaN	1477651.8065827	1477652.32311953
48	27	1	0	90	36.1581920903955	36.241610738255	0	0	1	11	4	NaN	2	5	0.0345078701775815	0	1	NaN	210	4	21	2	110	210	310	NaN	510	0.247995817568153	2	1	NaN	1477653.1567366	NaN	1477654.1401587	1477654.65668858
48	27	1	0	90	36.1581920903955	36.241610738255	25	0.833393299952149	2	6	3	NaN	1	5	0.0345078701775815	0	1	NaN	211	4	22	2	120	220	320	NaN	520	0.226346770301461	2	0	NaN	1477655.4903	NaN	1477656.4737108	1477656.99025253
48	27	1	0	90	36.1581920903955	36.241610738255	15	0.50003597997129	2	3	2	NaN	1	3	0.0345078701775815	0	1	NaN	212	4	23	2	120	220	320	NaN	520	0.0932111225556582	1	1	NaN	1477657.8071864	NaN	1477658.7905665	1477659.30715568
48	27	1	0	90	36.1581920903955	36.241610738255	15	0.50003597997129	2	11	6	NaN	2	5	0.0345078701775815	0	1	NaN	213	4	24	2	120	220	320	NaN	520	0.301566470181569	2	1	NaN	1477659.9907529	NaN	1477660.9741501	1477661.49069453
48	27	1	0	90	36.1581920903955	36.241610738255	22	0.733386103957891	2	6	5	NaN	1	3	0.0345078701775815	0	1	NaN	214	4	25	2	120	220	320	NaN	520	0.334438270423561	2	0	NaN	1477662.3743154	NaN	1477663.357716	1477663.87425163
48	27	1	0	90	36.1581920903955	36.241610738255	21	0.700050371959805	2	5	2	NaN	1	3	0.0345078701775815	0	1	NaN	215	4	26	2	120	220	320	NaN	520	0.405238470295444	2	0	NaN	1477664.7912262	NaN	1477665.7746209	1477666.29115903
48	27	1	0	90	36.1581920903955	36.241610738255	17	0.566707443967462	2	12	6	NaN	2	3	0.0345078701775815	0	1	NaN	216	4	27	2	120	220	320	NaN	520	0.128847270039842	2	1	NaN	1477667.2914512	NaN	1477668.2748556	1477668.79139933
48	27	1	0	90	36.1581920903955	36.241610738255	6	0.200014391988516	2	9	1	NaN	2	3	0.0345078701775815	0	1	NaN	217	4	28	2	120	220	320	NaN	520	0.0103583226446062	2	1	NaN	1477669.5083388	NaN	1477670.4917243	1477671.00829298
48	27	1	0	90	36.1581920903955	36.241610738255	18	0.600043175965548	2	6	1	NaN	1	5	0.0345078701775815	0	1	NaN	218	4	29	2	120	220	320	NaN	520	0.156021122587845	2	0	NaN	1477671.6085436	NaN	1477672.5919339	1477673.10849948
48	27	1	0	90	36.1581920903955	36.241610738255	6	0.200014391988516	2	1	3	NaN	1	3	0.0345078701775815	0	1	NaN	219	4	30	2	120	220	320	NaN	520	0.401761622633785	2	0	NaN	1477673.8587752	NaN	1477674.8421724	1477675.35872428
48	27	1	0	90	36.1581920903955	36.241610738255	16	0.533371711969376	2	3	5	NaN	1	3	0.0345078701775815	0	1	NaN	220	4	31	2	120	220	320	NaN	520	0.198536722688004	2	0	NaN	1477676.3423637	NaN	1477677.3257293	1477677.84230198
48	27	1	0	90	36.1581920903955	36.241610738255	10	0.33335731998086	2	8	1	NaN	2	3	0.0345078701775815	0	1	NaN	221	4	32	2	120	220	320	NaN	520	0.090430170064792	2	1	NaN	1477678.6259074	NaN	1477679.6092884	1477680.12585053
48	27	1	0	90	36.1581920903955	36.241610738255	8	0.266685855984688	2	11	6	NaN	2	4	0.0345078701775815	0	1	NaN	222	4	33	2	120	220	320	NaN	520	0.0103594225365669	1	0	NaN	1477680.8094383	NaN	1477681.7927501	1477682.30939988
48	27	1	0	90	36.1581920903955	36.241610738255	19	0.633378907963633	2	1	2	NaN	1	5	0.0345078701775815	0	1	NaN	223	4	34	2	120	220	320	NaN	520	0.127166822552681	2	0	NaN	1477682.9096636	NaN	1477683.8930568	1477684.40960918
48	27	1	0	90	36.1581920903955	36.241610738255	15	0.50003597997129	2	6	3	NaN	1	3	0.0345078701775815	0	1	NaN	224	4	35	2	120	220	320	NaN	520	0.0102656376548111	2	0	NaN	1477685.1265343	NaN	1477686.1099345	1477686.62649876
48	27	1	0	90	36.1581920903955	36.241610738255	13	0.433364515975118	2	11	3	NaN	2	4	0.0345078701775815	0	1	NaN	225	4	36	2	120	220	320	NaN	520	0.0257146949879825	2	1	NaN	1477687.2267425	NaN	1477688.2101445	1477688.72670411
48	27	1	0	90	36.1581920903955	36.241610738255	19	0.633378907963633	2	11	6	NaN	2	3	0.0345078701775815	0	1	NaN	226	4	37	2	120	220	320	NaN	520	0.253176470287144	2	1	NaN	1477689.3436234	NaN	1477690.3270351	1477690.84357193
48	27	1	0	90	36.1581920903955	36.241610738255	0	0	1	1	4	NaN	1	3	0.0345078701775815	0	1	NaN	227	4	38	2	110	210	310	NaN	510	0.174755637533963	2	0	NaN	1477691.6938533	NaN	1477692.6772535	1477693.19382736
48	27	1	0	90	36.1581920903955	36.241610738255	16	0.533371711969376	2	4	4	NaN	1	4	0.0345078701775815	0	1	NaN	228	4	39	2	120	220	320	NaN	520	0.195588922593743	2	0	NaN	1477693.9607354	NaN	1477694.9441361	1477695.46068618
48	27	1	0	90	36.1581920903955	36.241610738255	12	0.400028783977032	2	8	2	NaN	2	5	0.0345078701775815	0	1	NaN	229	4	40	2	120	220	320	NaN	520	0.20816441741772	1	0	NaN	1477696.2443006	NaN	1477697.22768	1477697.74424618
48	27	1	0	90	36.1581920903955	36.241610738255	19	0.633378907963633	2	4	2	NaN	1	3	0.0345078701775815	0	1	NaN	230	4	41	2	120	220	320	NaN	520	0.156182270264253	1	1	NaN	1477698.5445215	NaN	1477699.5279034	1477700.04446693
48	27	1	0	90	36.1581920903955	36.241610738255	8	0.266685855984688	2	9	2	NaN	2	3	0.0345078701775815	0	1	NaN	231	4	42	2	120	220	320	NaN	520	0.24953377014026	2	1	NaN	1477700.7947524	NaN	1477701.7781398	1477702.29469293
48	27	1	0	90	36.1581920903955	36.241610738255	10	0.33335731998086	2	6	1	NaN	1	5	0.0345078701775815	0	1	NaN	232	4	43	2	120	220	320	NaN	520	0.0200743225868791	2	0	NaN	1477703.1282984	NaN	1477704.1116982	1477704.62826048
48	27	1	0	90	36.1581920903955	36.241610738255	11	0.366693051978946	2	11	5	NaN	2	4	0.0345078701775815	0	1	NaN	233	4	44	2	120	220	320	NaN	520	0.0872660654131323	2	1	NaN	1477705.2451839	NaN	1477706.228569	1477706.74512293
48	27	1	0	90	36.1581920903955	36.241610738255	24	0.800057567954063	2	3	3	NaN	1	3	0.0345078701775815	0	1	NaN	234	4	45	2	120	220	320	NaN	520	0.135823770193383	2	0	NaN	1477707.4287349	NaN	1477708.4122653	1477708.92867283
48	27	1	0	90	36.1581920903955	36.241610738255	11	0.366693051978946	2	9	3	NaN	2	3	0.0345078701775815	0	1	NaN	235	4	46	2	120	220	320	NaN	520	0.174982970347628	2	1	NaN	1477709.6456142	NaN	1477710.6290107	1477711.14556383
48	27	1	0	90	36.1581920903955	36.241610738255	9	0.300021587982774	2	5	1	NaN	1	5	0.0345078701775815	0	1	NaN	236	4	47	2	120	220	320	NaN	520	0.100316170370206	2	0	NaN	1477711.9125136	NaN	1477712.8958975	1477713.41244543
48	27	1	0	90	36.1581920903955	36.241610738255	16	0.533371711969376	2	8	2	NaN	2	3	0.0345078701775815	0	1	NaN	237	4	48	2	120	220	320	NaN	520	0.0444755426142365	2	1	NaN	1477714.0960467	NaN	1477715.0795247	1477715.59600716
48	27	1	0	90	36.1581920903955	36.241610738255	15	0.50003597997129	2	8	1	NaN	2	3	0.0345078701775815	0	1	NaN	238	4	49	2	120	220	320	NaN	520	0.11080231750384	2	1	NaN	1477716.2295826	NaN	1477717.2129974	1477717.72954808
48	27	1	0	90	36.1581920903955	36.241610738255	12	0.400028783977032	2	9	2	NaN	2	4	0.0345078701775815	0	1	NaN	239	4	50	2	120	220	320	NaN	520	0.102692270185798	2	1	NaN	1477718.4298078	NaN	1477719.4132063	1477719.92975103
48	27	1	0	90	36.1581920903955	36.241610738255	21	0.700050371959805	2	9	6	NaN	2	4	0.0345078701775815	0	1	NaN	240	4	51	2	120	220	320	NaN	520	0.247257570037618	2	1	NaN	1477720.6133571	NaN	1477721.5967603	1477722.11330123
48	27	1	0	90	36.1581920903955	36.241610738255	25	0.833393299952149	2	3	2	NaN	1	3	0.0345078701775815	0	1	NaN	241	4	52	2	120	220	320	NaN	520	1.13782037026249	2	0	NaN	1477722.9469158	NaN	1477723.9303305	1477724.44686553
48	27	1	0	90	36.1581920903955	36.241610738255	12	0.400028783977032	2	10	1	NaN	2	5	0.0345078701775815	0	1	NaN	242	4	53	2	120	220	320	NaN	520	0.143844922538847	2	1	NaN	1477726.1805802	NaN	1477727.1639656	1477727.68052458
48	27	1	0	90	36.1581920903955	36.241610738255	6	0.200014391988516	2	4	6	NaN	1	5	0.0345078701775815	0	1	NaN	243	4	54	2	120	220	320	NaN	520	0.0104356703814119	2	0	NaN	1477728.4141218	NaN	1477729.3975232	1477729.91406863
48	27	1	0	90	36.1581920903955	36.241610738255	20	0.66671463996172	2	11	2	NaN	2	3	0.0345078701775815	0	1	NaN	244	4	55	2	120	220	320	NaN	520	0.162325370125473	1	0	NaN	1477730.5144216	NaN	1477731.4977223	1477732.01427353
48	27	1	0	90	36.1581920903955	36.241610738255	16	0.533371711969376	2	7	6	NaN	2	4	0.0345078701775815	0	1	NaN	245	4	56	2	120	220	320	NaN	520	0.0104111703112721	2	1	NaN	1477732.7645453	NaN	1477733.747952	1477734.26449193
48	27	1	0	90	36.1581920903955	36.241610738255	10	0.33335731998086	2	5	5	NaN	1	3	0.0345078701775815	0	1	NaN	246	4	57	2	120	220	320	NaN	520	0.0678963176906109	2	0	NaN	1477734.8647513	NaN	1477735.8481568	1477736.36470878
48	27	1	0	90	36.1581920903955	36.241610738255	14	0.466700247973204	2	9	3	NaN	2	4	0.0345078701775815	0	1	NaN	247	4	58	2	120	220	320	NaN	520	0.253587370272726	2	1	NaN	1477737.0149594	NaN	1477737.9983686	1477738.51491263
48	27	1	0	90	36.1581920903955	36.241610738255	9	0.300021587982774	2	12	6	NaN	2	5	0.0345078701775815	0	1	NaN	248	4	59	2	120	220	320	NaN	520	0.1831080224365	2	1	NaN	1477739.365194	NaN	1477740.3485663	1477740.86515148
48	27	1	0	90	36.1581920903955	36.241610738255	16	0.533371711969376	2	8	5	NaN	2	4	0.0345078701775815	0	1	NaN	249	4	60	2	120	220	320	NaN	520	0.22813391755335	2	1	NaN	1477741.6487556	NaN	1477742.6321506	1477743.14869688
48	27	1	0	90	36.1581920903955	36.241610738255	13	0.433364515975118	2	12	1	NaN	2	5	0.0345078701775815	0	1	NaN	250	4	61	2	120	220	320	NaN	520	0.238588670035824	2	1	NaN	1477743.9656744	NaN	1477744.9490526	1477745.46559133
48	27	1	0	90	36.1581920903955	36.241610738255	6	0.200014391988516	2	9	4	NaN	2	4	0.0345078701775815	0	1	NaN	251	4	62	2	120	220	320	NaN	520	0.569260932737961	1	0	NaN	1477746.2992052	NaN	1477747.2826126	1477747.79915697
48	27	1	0	90	36.1581920903955	36.241610738255	22	0.733386103957891	2	7	1	NaN	2	4	0.0345078701775815	0	1	NaN	252	4	63	2	120	220	320	NaN	520	0.278882522601634	2	1	NaN	1477748.9495025	NaN	1477749.9328645	1477750.44942578
48	27	1	0	90	36.1581920903955	36.241610738255	7	0.233350123986602	2	11	2	NaN	2	3	0.0345078701775815	0	1	NaN	253	5	1	2	120	220	320	NaN	520	0.402034322498366	2	1	NaN	1477752.8665484	NaN	1477753.8499911	1477754.36647418
48	27	1	0	90	36.1581920903955	36.241610738255	19	0.633378907963633	2	6	4	NaN	1	4	0.0345078701775815	0	1	NaN	254	5	2	2	120	220	320	NaN	520	0.0303373751230538	2	0	NaN	1477755.3501108	NaN	1477756.3335072	1477756.85004642
48	27	1	0	90	36.1581920903955	36.241610738255	14	0.466700247973204	2	12	6	NaN	2	4	0.0345078701775815	0	1	NaN	255	5	3	2	120	220	320	NaN	520	0.169947170186788	2	1	NaN	1477757.4669826	NaN	1477758.4503667	1477758.96691543
48	27	1	0	90	36.1581920903955	36.241610738255	20	0.66671463996172	2	4	3	NaN	1	3	0.0345078701775815	0	1	NaN	256	5	4	2	120	220	320	NaN	520	0.102645670296624	2	0	NaN	1477759.7338629	NaN	1477760.7172641	1477761.23381083
48	27	1	0	90	36.1581920903955	36.241610738255	19	0.633378907963633	2	7	6	NaN	2	4	0.0345078701775815	0	1	NaN	257	5	5	2	120	220	320	NaN	520	0.10244987020269	2	1	NaN	1477761.9340726	NaN	1477762.9174621	1477763.43402853
48	27	1	0	90	36.1581920903955	36.241610738255	12	0.400028783977032	2	12	2	NaN	2	5	0.0345078701775815	0	1	NaN	258	5	6	2	120	220	320	NaN	520	0.126762670231983	2	1	NaN	1477764.1176307	NaN	1477765.1010295	1477765.61757493
48	27	1	0	90	36.1581920903955	36.241610738255	20	0.66671463996172	2	11	2	NaN	2	4	0.0345078701775815	0	1	NaN	259	5	7	2	120	220	320	NaN	520	0.261901970254257	2	1	NaN	1477766.3345332	NaN	1477767.3178974	1477767.83446063
48	27	1	0	90	36.1581920903955	36.241610738255	21	0.700050371959805	2	1	3	NaN	1	5	0.0345078701775815	0	1	NaN	260	5	8	2	120	220	320	NaN	520	0.159710317617282	2	0	NaN	1477768.6847406	NaN	1477769.6681375	1477770.18469378
48	27	1	0	90	36.1581920903955	36.241610738255	16	0.533371711969376	2	12	4	NaN	2	5	0.0345078701775815	0	1	NaN	261	5	9	2	120	220	320	NaN	520	0.045562670333311	2	1	NaN	1477770.9349455	NaN	1477771.9183552	1477772.43490433
48	27	1	0	90	36.1581920903955	36.241610738255	19	0.633378907963633	2	5	6	NaN	1	3	0.0345078701775815	0	1	NaN	262	5	10	2	120	220	320	NaN	520	0.320417270064354	1	1	NaN	1477773.0685048	NaN	1477774.0519016	1477774.56845293
48	27	1	0	90	36.1581920903955	36.241610738255	24	0.800057567954063	2	1	3	NaN	1	5	0.0345078701775815	0	1	NaN	263	5	11	2	120	220	320	NaN	520	0.214879165170714	2	0	NaN	1477775.4854134	NaN	1477776.4688191	1477776.98535493
48	27	1	0	90	36.1581920903955	36.241610738255	15	0.50003597997129	2	5	3	NaN	1	4	0.0345078701775815	0	1	NaN	264	5	12	2	120	220	320	NaN	520	0.227010270347819	1	1	NaN	1477777.7856281	NaN	1477778.7690351	1477779.28558103
48	27	1	0	90	36.1581920903955	36.241610738255	13	0.433364515975118	2	4	2	NaN	1	4	0.0345078701775815	0	1	NaN	265	5	13	2	120	220	320	NaN	520	0.182460270356387	1	1	NaN	1477780.1025993	NaN	1477781.0859446	1477781.60247013
48	27	1	0	90	36.1581920903955	36.241610738255	8	0.266685855984688	2	1	4	NaN	1	4	0.0345078701775815	0	1	NaN	266	5	14	2	120	220	320	NaN	520	0.211030670208856	2	0	NaN	1477782.3694125	NaN	1477783.3528143	1477783.86936513
48	27	1	0	90	36.1581920903955	36.241610738255	12	0.400028783977032	2	11	1	NaN	2	5	0.0345078701775815	0	1	NaN	267	5	15	2	120	220	320	NaN	520	0.215081275207922	2	1	NaN	1477784.6696429	NaN	1477785.6530423	1477786.16959822
48	27	1	0	90	36.1581920903955	36.241610738255	6	0.200014391988516	2	12	5	NaN	2	4	0.0345078701775815	0	1	NaN	268	5	16	2	120	220	320	NaN	520	0.259079870069399	2	1	NaN	1477786.9698641	NaN	1477787.9532707	1477788.46982383
48	27	1	0	90	36.1581920903955	36.241610738255	24	0.800057567954063	2	4	5	NaN	1	4	0.0345078701775815	0	1	NaN	269	5	17	2	120	220	320	NaN	520	0.300553470151499	2	0	NaN	1477789.3201018	NaN	1477790.3035054	1477790.82004053
48	27	1	0	90	36.1581920903955	36.241610738255	7	0.233350123986602	2	2	2	NaN	1	3	0.0345078701775815	0	1	NaN	270	5	18	2	120	220	320	NaN	520	0.252760970266536	2	0	NaN	1477791.7036698	NaN	1477792.6870501	1477793.20361163
48	27	1	0	90	36.1581920903955	36.241610738255	14	0.466700247973204	2	2	1	NaN	1	5	0.0345078701775815	0	1	NaN	271	5	19	2	120	220	320	NaN	520	0.310768670169637	2	0	NaN	1477794.0538892	NaN	1477795.0372857	1477795.55383823
48	27	1	0	90	36.1581920903955	36.241610738255	23	0.766721835955977	2	6	2	NaN	1	3	0.0345078701775815	0	1	NaN	272	5	20	2	120	220	320	NaN	520	0.0104042652528733	2	0	NaN	1477796.4541227	NaN	1477797.4375198	1477797.95407623
48	27	1	0	90	36.1581920903955	36.241610738255	15	0.50003597997129	2	8	2	NaN	2	3	0.0345078701775815	0	1	NaN	273	5	21	2	120	220	320	NaN	520	0.282600822625682	2	1	NaN	1477798.5543486	NaN	1477799.5377492	1477800.05429398
48	27	1	0	90	36.1581920903955	36.241610738255	21	0.700050371959805	2	3	3	NaN	1	4	0.0345078701775815	0	1	NaN	274	5	22	2	120	220	320	NaN	520	0.171697522746399	2	0	NaN	1477800.9212488	NaN	1477801.9046371	1477802.42118898
48	27	1	0	90	36.1581920903955	36.241610738255	8	0.266685855984688	2	7	2	NaN	2	5	0.0345078701775815	0	1	NaN	275	5	23	2	120	220	320	NaN	520	0.224873170256615	2	1	NaN	1477803.1881223	NaN	1477804.1715489	1477804.68807703
48	27	1	0	90	36.1581920903955	36.241610738255	10	0.33335731998086	2	5	5	NaN	1	3	0.0345078701775815	0	1	NaN	276	5	24	2	120	220	320	NaN	520	0.0197504702955484	2	0	NaN	1477805.5050616	NaN	1477806.4884231	1477807.00497073
48	27	1	0	90	36.1581920903955	36.241610738255	25	0.833393299952149	2	8	4	NaN	2	5	0.0345078701775815	0	1	NaN	277	5	25	2	120	220	320	NaN	520	0.206613217713311	2	1	NaN	1477807.6218942	NaN	1477808.6052781	1477809.12184488
48	27	1	0	90	36.1581920903955	36.241610738255	7	0.233350123986602	2	10	5	NaN	2	5	0.0345078701775815	0	1	NaN	278	5	26	2	120	220	320	NaN	520	0.0664238701574504	2	1	NaN	1477809.9221132	NaN	1477810.9055322	1477811.42206643
48	27	1	0	90	36.1581920903955	36.241610738255	18	0.600043175965548	2	8	2	NaN	2	3	0.0345078701775815	0	1	NaN	279	5	27	2	120	220	320	NaN	520	0.100138517795131	2	1	NaN	1477812.0723469	NaN	1477813.0557641	1477813.57228398
48	27	1	0	90	36.1581920903955	36.241610738255	18	0.600043175965548	2	10	3	NaN	2	4	0.0345078701775815	0	1	NaN	280	5	28	2	120	220	320	NaN	520	0.0688182702288032	2	1	NaN	1477814.2558786	NaN	1477815.2392776	1477815.75582643
48	27	1	0	90	36.1581920903955	36.241610738255	15	0.50003597997129	2	1	2	NaN	1	5	0.0345078701775815	0	1	NaN	281	5	29	2	120	220	320	NaN	520	0.0938294176012278	2	0	NaN	1477816.4227755	NaN	1477817.4061521	1477817.92270898
48	27	1	0	90	36.1581920903955	36.241610738255	18	0.600043175965548	2	3	4	NaN	1	5	0.0345078701775815	0	1	NaN	282	5	30	2	120	220	320	NaN	520	0.19027706515044	2	0	NaN	1477818.6063032	NaN	1477819.589709	1477820.10624643
48	27	1	0	90	36.1581920903955	36.241610738255	13	0.433364515975118	2	2	1	NaN	1	5	0.0345078701775815	0	1	NaN	283	5	31	2	120	220	320	NaN	520	0.211060722591355	2	0	NaN	1477820.8898776	NaN	1477821.87325	1477822.38981708
48	27	1	0	90	36.1581920903955	36.241610738255	16	0.533371711969376	2	6	1	NaN	1	3	0.0345078701775815	0	1	NaN	284	5	32	2	120	220	320	NaN	520	0.17445797030814	2	0	NaN	1477823.1900949	NaN	1477824.1734945	1477824.69003613
48	27	1	0	90	36.1581920903955	36.241610738255	18	0.600043175965548	2	10	3	NaN	2	5	0.0345078701775815	0	1	NaN	285	5	33	2	120	220	320	NaN	520	0.180024670204148	2	1	NaN	1477825.4569907	NaN	1477826.4403708	1477826.95692073
48	27	1	0	90	36.1581920903955	36.241610738255	10	0.33335731998086	2	2	5	NaN	1	3	0.0345078701775815	0	1	NaN	286	5	34	2	120	220	320	NaN	520	0.273074217606336	2	0	NaN	1477827.7238664	NaN	1477828.707273	1477829.22381558
48	27	1	0	90	36.1581920903955	36.241610738255	25	0.833393299952149	2	1	6	NaN	1	3	0.0345078701775815	0	1	NaN	287	5	35	2	120	220	320	NaN	520	0.474399727769196	2	0	NaN	1477830.0907862	NaN	1477831.0741554	1477831.59072377
48	27	1	0	90	36.1581920903955	36.241610738255	7	0.233350123986602	2	4	1	NaN	1	5	0.0345078701775815	0	1	NaN	288	5	36	2	120	220	320	NaN	520	0.219303685007617	1	1	NaN	1477832.6576896	NaN	1477833.6410772	1477834.15763621
48	27	1	0	90	36.1581920903955	36.241610738255	10	0.33335731998086	2	11	3	NaN	2	3	0.0345078701775815	0	1	NaN	289	5	37	2	120	220	320	NaN	520	0.206436522770673	2	1	NaN	1477834.9579148	NaN	1477835.9413043	1477836.45786528
48	27	1	0	90	36.1581920903955	36.241610738255	13	0.433364515975118	2	3	2	NaN	1	4	0.0345078701775815	0	1	NaN	290	5	38	2	120	220	320	NaN	520	0.31474857032299	2	0	NaN	1477837.258134	NaN	1477838.2415442	1477838.75808253
48	27	1	0	90	36.1581920903955	36.241610738255	22	0.733386103957891	2	9	4	NaN	2	3	0.0345078701775815	0	1	NaN	291	5	39	2	120	220	320	NaN	520	0.218391070142388	2	1	NaN	1477839.6583654	NaN	1477840.641791	1477841.15831353
48	27	1	0	90	36.1581920903955	36.241610738255	24	0.800057567954063	2	6	1	NaN	1	4	0.0345078701775815	0	1	NaN	292	5	40	2	120	220	320	NaN	520	0.206016370328143	2	0	NaN	1477841.9586009	NaN	1477842.9419875	1477843.45854233
48	27	1	0	90	36.1581920903955	36.241610738255	18	0.600043175965548	2	8	6	NaN	2	5	0.0345078701775815	0	1	NaN	293	5	41	2	120	220	320	NaN	520	0.40997252240777	2	1	NaN	1477844.258837	NaN	1477845.2422193	1477845.75877168
48	27	1	0	90	36.1581920903955	36.241610738255	7	0.233350123986602	2	7	1	NaN	2	4	0.0345078701775815	0	1	NaN	294	5	42	2	120	220	320	NaN	520	0.181820070138201	2	1	NaN	1477846.7590736	NaN	1477847.7424773	1477848.25901713
48	27	1	0	90	36.1581920903955	36.241610738255	25	0.833393299952149	2	3	5	NaN	1	3	0.0345078701775815	0	1	NaN	295	5	43	2	120	220	320	NaN	520	0.155088522471488	1	1	NaN	1477849.0259505	NaN	1477850.0093666	1477850.52590778
48	27	1	0	90	36.1581920903955	36.241610738255	17	0.566707443967462	2	10	2	NaN	2	5	0.0345078701775815	0	1	NaN	296	5	44	2	120	220	320	NaN	520	0.384842770174146	1	0	NaN	1477851.2761751	NaN	1477852.2595606	1477852.77612653
48	27	1	0	90	36.1581920903955	36.241610738255	11	0.366693051978946	2	11	5	NaN	2	4	0.0345078701775815	0	1	NaN	297	5	45	2	120	220	320	NaN	520	0.43789158994332	2	1	NaN	1477853.7430799	NaN	1477854.7264825	1477855.24303721
48	27	1	0	90	36.1581920903955	36.241610738255	16	0.533371711969376	2	6	6	NaN	1	5	0.0345078701775815	0	1	NaN	298	5	46	2	120	220	320	NaN	520	0.287891270127147	2	0	NaN	1477856.2766699	NaN	1477857.2600529	1477857.77661163
48	27	1	0	90	36.1581920903955	36.241610738255	14	0.466700247973204	2	4	4	NaN	1	3	0.0345078701775815	0	1	NaN	299	5	47	2	120	220	320	NaN	520	0.232446222566068	2	0	NaN	1477858.6602515	NaN	1477859.6436313	1477860.16018718
48	27	1	0	90	36.1581920903955	36.241610738255	15	0.50003597997129	2	2	3	NaN	1	3	0.0345078701775815	0	1	NaN	300	5	48	2	120	220	320	NaN	520	0.259247717447579	2	0	NaN	1477860.9771208	NaN	1477861.9605377	1477862.47708008
48	27	1	0	90	36.1581920903955	36.241610738255	7	0.233350123986602	2	11	1	NaN	2	5	0.0345078701775815	0	1	NaN	301	5	49	2	120	220	320	NaN	520	0.317274117609486	2	1	NaN	1477863.3273615	NaN	1477864.3107563	1477864.82730918
48	27	1	0	90	36.1581920903955	36.241610738255	24	0.800057567954063	2	7	6	NaN	2	4	0.0345078701775815	0	1	NaN	302	5	50	2	120	220	320	NaN	520	0.212383370380849	2	1	NaN	1477865.7442549	NaN	1477866.727666	1477867.24420623
48	27	1	0	90	36.1581920903955	36.241610738255	18	0.600043175965548	2	5	6	NaN	1	5	0.0345078701775815	0	1	NaN	303	5	51	2	120	220	320	NaN	520	0.288535522762686	1	1	NaN	1477868.0444867	NaN	1477869.0278962	1477869.54444238
48	27	1	0	90	36.1581920903955	36.241610738255	7	0.233350123986602	2	4	1	NaN	1	3	0.0345078701775815	0	1	NaN	304	5	52	2	120	220	320	NaN	520	0.416830122470856	2	0	NaN	1477870.4280515	NaN	1477871.411448	1477871.92800668
48	27	1	0	90	36.1581920903955	36.241610738255	24	0.800057567954063	2	8	3	NaN	2	5	0.0345078701775815	0	1	NaN	305	5	53	2	120	220	320	NaN	520	0.140733300009742	2	1	NaN	1477872.9283102	NaN	1477873.9116939	1477874.4282598
48	27	1	0	90	36.1581920903955	36.241610738255	18	0.600043175965548	2	4	5	NaN	1	5	0.0345078701775815	0	1	NaN	306	5	54	2	120	220	320	NaN	520	0.266714570112526	2	0	NaN	1477875.1618708	NaN	1477876.1452512	1477876.66180393
48	27	1	0	90	36.1581920903955	36.241610738255	6	0.200014391988516	2	7	2	NaN	2	4	0.0345078701775815	0	1	NaN	307	5	55	2	120	220	320	NaN	520	0.212595870252699	2	1	NaN	1477877.5120867	NaN	1477878.4954147	1477879.01202753
48	27	1	0	90	36.1581920903955	36.241610738255	25	0.833393299952149	2	8	3	NaN	2	4	0.0345078701775815	0	1	NaN	308	5	56	2	120	220	320	NaN	520	0.352325570303947	2	1	NaN	1477879.8123137	NaN	1477880.7957159	1477881.31226013
48	27	1	0	90	36.1581920903955	36.241610738255	10	0.33335731998086	2	6	5	NaN	1	5	0.0345078701775815	0	1	NaN	309	5	57	2	120	220	320	NaN	520	0.158693022793159	2	0	NaN	1477882.245892	NaN	1477883.2292805	1477883.74582718
48	27	1	0	90	36.1581920903955	36.241610738255	20	0.66671463996172	2	12	3	NaN	2	3	0.0345078701775815	0	1	NaN	310	5	58	2	120	220	320	NaN	520	0.148656622506678	2	1	NaN	1477884.496136	NaN	1477885.4795041	1477885.99605858
48	27	1	0	90	36.1581920903955	36.241610738255	13	0.433364515975118	2	12	3	NaN	2	5	0.0345078701775815	0	1	NaN	311	5	59	2	120	220	320	NaN	520	0.147380370181054	2	1	NaN	1477886.7296509	NaN	1477887.7130734	1477888.22959873
48	27	1	0	90	36.1581920903955	36.241610738255	0	0	1	7	6	NaN	2	5	0.0345078701775815	0	1	NaN	312	5	60	2	110	210	310	NaN	510	0.289403370115906	2	1	NaN	1477888.9632069	NaN	1477889.9466174	1477890.46315663
48	27	1	0	90	36.1581920903955	36.241610738255	19	0.633378907963633	2	4	3	NaN	1	5	0.0345078701775815	0	1	NaN	313	5	61	2	120	220	320	NaN	520	0.361860670149326	2	0	NaN	1477891.3467752	NaN	1477892.3301738	1477892.84672833
48	27	1	0	90	36.1581920903955	36.241610738255	6	0.200014391988516	2	2	1	NaN	1	4	0.0345078701775815	0	1	NaN	314	5	62	2	120	220	320	NaN	520	0.208075065165758	2	0	NaN	1477893.7970013	NaN	1477894.7803984	1477895.29695933
48	27	1	0	90	36.1581920903955	36.241610738255	24	0.800057567954063	2	10	5	NaN	2	5	0.0345078701775815	0	1	NaN	315	5	63	2	120	220	320	NaN	520	0.010358722647652	2	1	NaN	1477896.0972407	NaN	1477897.080627	1477897.59719578
48	27	1	0	90	36.1581920903955	36.241610738255	9	0.300021587982774	2	12	5	NaN	2	4	0.0345078701775815	0	1	NaN	316	6	1	2	120	220	320	NaN	520	0.299528017640114	2	1	NaN	1477918.8494692	NaN	1477919.8328716	1477920.34941598
48	27	1	0	90	36.1581920903955	36.241610738255	16	0.533371711969376	2	12	2	NaN	2	5	0.0345078701775815	0	1	NaN	317	6	2	2	120	220	320	NaN	520	0.0103740701451898	1	0	NaN	1477921.2497164	NaN	1477922.2331153	1477922.74966063
48	27	1	0	90	36.1581920903955	36.241610738255	9	0.300021587982774	2	5	5	NaN	1	3	0.0345078701775815	0	1	NaN	318	6	3	2	120	220	320	NaN	520	0.0788747225888073	2	0	NaN	1477923.3499123	NaN	1477924.3333184	1477924.84986658
48	27	1	0	90	36.1581920903955	36.241610738255	15	0.50003597997129	2	11	5	NaN	2	5	0.0345078701775815	0	1	NaN	319	6	4	2	120	220	320	NaN	520	0.0103756703902036	2	1	NaN	1477925.5167937	NaN	1477926.5001721	1477927.01674243
48	27	1	0	90	36.1581920903955	36.241610738255	0	0	1	9	5	NaN	2	5	0.0345078701775815	0	1	NaN	320	6	5	2	110	210	310	NaN	510	0.300111470278352	2	1	NaN	1477927.6170174	NaN	1477928.6003855	1477929.11694643
48	27	1	0	90	36.1581920903955	36.241610738255	17	0.566707443967462	2	3	1	NaN	1	5	0.0345078701775815	0	1	NaN	321	6	6	2	120	220	320	NaN	520	0.25212492258288	2	0	NaN	1477930.0005625	NaN	1477930.9839566	1477931.50051918
48	27	1	0	90	36.1581920903955	36.241610738255	20	0.66671463996172	2	10	1	NaN	2	5	0.0345078701775815	0	1	NaN	322	6	7	2	120	220	320	NaN	520	0.262722770217806	2	1	NaN	1477932.3341303	NaN	1477933.3175215	1477933.83407403
48	27	1	0	90	36.1581920903955	36.241610738255	14	0.466700247973204	2	4	5	NaN	1	5	0.0345078701775815	0	1	NaN	323	6	8	2	120	220	320	NaN	520	0.280382570344955	2	0	NaN	1477934.6843524	NaN	1477935.6677619	1477936.18431123
48	27	1	0	90	36.1581920903955	36.241610738255	7	0.233350123986602	2	2	3	NaN	1	5	0.0345078701775815	0	1	NaN	324	6	9	2	120	220	320	NaN	520	0.153903117636219	2	0	NaN	1477937.0512636	NaN	1477938.0346649	1477938.55120318
48	27	1	0	90	36.1581920903955	36.241610738255	13	0.433364515975118	2	3	5	NaN	1	3	0.0345078701775815	0	1	NaN	325	6	10	2	120	220	320	NaN	520	0.295600922545418	1	1	NaN	1477939.3014781	NaN	1477940.2848804	1477940.80143018
48	27	1	0	90	36.1581920903955	36.241610738255	13	0.433364515975118	2	4	1	NaN	1	4	0.0345078701775815	0	1	NaN	326	6	11	2	120	220	320	NaN	520	0.319628817494959	2	0	NaN	1477941.6850526	NaN	1477942.668439	1477943.18499688
48	27	1	0	90	36.1581920903955	36.241610738255	16	0.533371711969376	2	1	6	NaN	1	4	0.0345078701775815	0	1	NaN	327	6	12	2	120	220	320	NaN	520	0.278710670303553	2	0	NaN	1477944.1019362	NaN	1477945.0853546	1477945.60192193
48	27	1	0	90	36.1581920903955	36.241610738255	25	0.833393299952149	2	12	2	NaN	2	3	0.0345078701775815	0	1	NaN	328	6	13	2	120	220	320	NaN	520	0.296288717538118	2	1	NaN	1477946.4688433	NaN	1477947.4522591	1477947.96880628
48	27	1	0	90	36.1581920903955	36.241610738255	17	0.566707443967462	2	11	1	NaN	2	3	0.0345078701775815	0	1	NaN	329	6	14	2	120	220	320	NaN	520	0.256280970294029	2	1	NaN	1477948.8524501	NaN	1477949.8358175	1477950.35238883
48	27	1	0	90	36.1581920903955	36.241610738255	7	0.233350123986602	2	9	2	NaN	2	4	0.0345078701775815	0	1	NaN	330	6	15	2	120	220	320	NaN	520	0.274076922563836	1	0	NaN	1477951.2026523	NaN	1477952.1860431	1477952.70260498
48	27	1	0	90	36.1581920903955	36.241610738255	25	0.833393299952149	2	2	6	NaN	1	5	0.0345078701775815	0	1	NaN	331	6	16	2	120	220	320	NaN	520	0.227384470170364	2	0	NaN	1477953.5695469	NaN	1477954.5529337	1477955.06949203
48	27	1	0	90	36.1581920903955	36.241610738255	13	0.433364515975118	2	1	6	NaN	1	4	0.0345078701775815	0	1	NaN	332	6	17	2	120	220	320	NaN	520	0.25442762253806	2	0	NaN	1477955.8864366	NaN	1477956.8697452	1477957.38639528
48	27	1	0	90	36.1581920903955	36.241610738255	15	0.50003597997129	2	12	6	NaN	2	4	0.0345078701775815	0	1	NaN	333	6	18	2	120	220	320	NaN	520	0.20815787022002	2	1	NaN	1477958.2366755	NaN	1477959.2200756	1477959.73662453
48	27	1	0	90	36.1581920903955	36.241610738255	24	0.800057567954063	2	5	2	NaN	1	4	0.0345078701775815	0	1	NaN	334	6	19	2	120	220	320	NaN	520	0.0600333225447685	2	0	NaN	1477960.5368991	NaN	1477961.5202757	1477962.03685078
48	27	1	0	90	36.1581920903955	36.241610738255	13	0.433364515975118	2	1	4	NaN	1	3	0.0345078701775815	0	1	NaN	335	6	20	2	120	220	320	NaN	520	0.238087742589414	2	0	NaN	1477962.6871111	NaN	1477963.6705055	1477964.18706096
48	27	1	0	90	36.1581920903955	36.241610738255	8	0.266685855984688	2	11	5	NaN	2	4	0.0345078701775815	0	1	NaN	336	6	21	2	120	220	320	NaN	520	0.0102644376456738	2	1	NaN	1477965.0206678	NaN	1477966.0040686	1477966.52062056
48	27	1	0	90	36.1581920903955	36.241610738255	18	0.600043175965548	2	2	5	NaN	1	3	0.0345078701775815	0	1	NaN	337	6	22	2	120	220	320	NaN	520	4.30829742271453	2	0	NaN	1477967.1208688	NaN	1477968.1042846	1477968.62083178
48	27	1	0	90	36.1581920903955	36.241610738255	17	0.566707443967462	2	2	2	NaN	1	3	0.0345078701775815	0	1	NaN	338	6	23	2	120	220	320	NaN	520	0.299395322566852	1	1	NaN	1477973.5215049	NaN	1477974.5049	1477975.02145838
48	27	1	0	90	36.1581920903955	36.241610738255	14	0.466700247973204	2	8	2	NaN	2	5	0.0345078701775815	0	1	NaN	339	6	24	2	120	220	320	NaN	520	0.0999377702828497	2	1	NaN	1477975.9050763	NaN	1477976.8884813	1477977.40502483
48	27	1	0	90	36.1581920903955	36.241610738255	23	0.766721835955977	2	10	4	NaN	2	3	0.0345078701775815	0	1	NaN	340	6	25	2	120	220	320	NaN	520	0.372543065343052	1	0	NaN	1477978.088618	NaN	1477979.0720274	1477979.58856633
48	27	1	0	90	36.1581920903955	36.241610738255	8	0.266685855984688	2	8	4	NaN	2	5	0.0345078701775815	0	1	NaN	341	6	26	2	120	220	320	NaN	520	0.393166270107031	1	0	NaN	1477980.555534	NaN	1477981.5389307	1477982.05548033
48	27	1	0	90	36.1581920903955	36.241610738255	19	0.633378907963633	2	8	1	NaN	2	5	0.0345078701775815	0	1	NaN	342	6	27	2	120	220	320	NaN	520	0.285628122510388	2	1	NaN	1477983.0391203	NaN	1477984.0225037	1477984.53906058
48	27	1	0	90	36.1581920903955	36.241610738255	21	0.700050371959805	2	11	2	NaN	2	4	0.0345078701775815	0	1	NaN	343	6	28	2	120	220	320	NaN	520	3.31895151757635	2	1	NaN	1477985.4060048	NaN	1477986.3893884	1477986.90594998
48	27	1	0	90	36.1581920903955	36.241610738255	23	0.766721835955977	2	8	3	NaN	2	4	0.0345078701775815	0	1	NaN	344	6	29	2	120	220	320	NaN	520	0.286282317480072	2	1	NaN	1477990.8065344	NaN	1477991.7899338	1477992.30648548
48	27	1	0	90	36.1581920903955	36.241610738255	16	0.533371711969376	2	1	4	NaN	1	4	0.0345078701775815	0	1	NaN	345	6	30	2	120	220	320	NaN	520	0.231101817684248	1	1	NaN	1477993.1901165	NaN	1477994.1734955	1477994.69004678
48	27	1	0	90	36.1581920903955	36.241610738255	25	0.833393299952149	2	12	2	NaN	2	5	0.0345078701775815	0	1	NaN	346	6	31	2	120	220	320	NaN	520	0.153837170219049	1	0	NaN	1477995.5069933	NaN	1477996.490394	1477997.00693823
48	27	1	0	90	36.1581920903955	36.241610738255	14	0.466700247973204	2	10	3	NaN	2	4	0.0345078701775815	0	1	NaN	347	6	32	2	120	220	320	NaN	520	0.159728170372546	2	1	NaN	1477997.757213	NaN	1477998.7406195	1477999.25716073
48	27	1	0	90	36.1581920903955	36.241610738255	0	0	1	3	4	NaN	1	5	0.0345078701775815	0	1	NaN	348	6	33	2	110	210	310	NaN	510	0.229237022576854	2	0	NaN	1478000.0074285	NaN	1478000.9908439	1478001.50739248
48	27	1	0	90	36.1581920903955	36.241610738255	9	0.300021587982774	2	8	4	NaN	2	3	0.0345078701775815	0	1	NaN	349	6	34	2	120	220	320	NaN	520	0.272438370157033	1	0	NaN	1478002.3243525	NaN	1478003.3077321	1478003.82427803
48	27	1	0	90	36.1581920903955	36.241610738255	9	0.300021587982774	2	11	6	NaN	2	3	0.0345078701775815	0	1	NaN	350	6	35	2	120	220	320	NaN	520	0.305626617744565	2	1	NaN	1478004.6912228	NaN	1478005.6746249	1478006.19118328
48	27	1	0	90	36.1581920903955	36.241610738255	0	0	1	7	2	NaN	2	3	0.0345078701775815	0	1	NaN	351	6	36	2	110	210	310	NaN	510	0.497790270252153	2	1	NaN	1478007.0914718	NaN	1478008.0747574	1478008.59141623
48	27	1	0	90	36.1581920903955	36.241610738255	8	0.266685855984688	2	4	2	NaN	1	5	0.0345078701775815	0	1	NaN	352	6	37	2	120	220	320	NaN	520	0.450003470294178	2	0	NaN	1478009.6750559	NaN	1478010.6584356	1478011.17499603
48	27	1	0	90	36.1581920903955	36.241610738255	6	0.200014391988516	2	3	6	NaN	1	3	0.0345078701775815	0	1	NaN	353	6	38	2	120	220	320	NaN	520	0.47663137014024	2	0	NaN	1478012.2086463	NaN	1478013.1920413	1478013.70858413
48	27	1	0	90	36.1581920903955	36.241610738255	6	0.200014391988516	2	8	5	NaN	2	4	0.0345078701775815	0	1	NaN	354	6	39	2	120	220	320	NaN	520	0.333382717566565	2	1	NaN	1478014.7755592	NaN	1478015.7589566	1478016.27550378
48	27	1	0	90	36.1581920903955	36.241610738255	14	0.466700247973204	2	9	6	NaN	2	4	0.0345078701775815	0	1	NaN	355	6	40	2	120	220	320	NaN	520	0.252385870320722	2	1	NaN	1478017.1924931	NaN	1478018.1758646	1478018.69240743
48	27	1	0	90	36.1581920903955	36.241610738255	8	0.266685855984688	2	12	1	NaN	2	4	0.0345078701775815	0	1	NaN	356	6	41	2	120	220	320	NaN	520	0.558135032653809	2	1	NaN	1478019.5426903	NaN	1478020.5260796	1478021.04264767
48	27	1	0	90	36.1581920903955	36.241610738255	11	0.366693051978946	2	4	5	NaN	1	4	0.0345078701775815	0	1	NaN	357	6	42	2	120	220	320	NaN	520	0.364305570255965	2	0	NaN	1478022.1928122	NaN	1478023.1762406	1478023.69289923
48	27	1	0	90	36.1581920903955	36.241610738255	10	0.33335731998086	2	1	4	NaN	1	3	0.0345078701775815	0	1	NaN	358	6	43	2	120	220	320	NaN	520	0.689728070283309	2	0	NaN	1478024.643184	NaN	1478025.6265798	1478026.14313163
48	27	1	0	90	36.1581920903955	36.241610738255	15	0.50003597997129	2	9	6	NaN	2	3	0.0345078701775815	0	1	NaN	359	6	44	2	120	220	320	NaN	520	1.3781617176719	2	1	NaN	1478027.4267982	NaN	1478028.4101931	1478028.92674358
48	27	1	0	90	36.1581920903955	36.241610738255	15	0.50003597997129	2	2	4	NaN	1	3	0.0345078701775815	0	1	NaN	360	6	45	2	120	220	320	NaN	520	0.50255162268877	2	0	NaN	1478030.9104655	NaN	1478031.8938949	1478032.41042658
48	27	1	0	90	36.1581920903955	36.241610738255	7	0.233350123986602	2	9	2	NaN	2	4	0.0345078701775815	0	1	NaN	361	6	46	2	120	220	320	NaN	520	0.358095270115882	2	1	NaN	1478033.5107294	NaN	1478034.4941335	1478035.01067243
48	27	1	0	90	36.1581920903955	36.241610738255	19	0.633378907963633	2	9	5	NaN	2	5	0.0345078701775815	0	1	NaN	362	6	47	2	120	220	320	NaN	520	0.523709217552096	2	1	NaN	1478035.9609593	NaN	1478036.9443487	1478037.46091488
48	27	1	0	90	36.1581920903955	36.241610738255	25	0.833393299952149	2	2	4	NaN	1	5	0.0345078701775815	0	1	NaN	363	6	48	2	120	220	320	NaN	520	0.427172122523189	2	0	NaN	1478038.577895	NaN	1478039.5612972	1478040.07784488
48	27	1	0	90	36.1581920903955	36.241610738255	17	0.566707443967462	2	8	5	NaN	2	5	0.0345078701775815	0	1	NaN	364	6	49	2	120	220	320	NaN	520	0.342516622506082	2	1	NaN	1478041.0948004	NaN	1478042.0782085	1478042.59475778
48	27	1	0	90	36.1581920903955	36.241610738255	12	0.400028783977032	2	6	6	NaN	1	5	0.0345078701775815	0	1	NaN	365	6	50	2	120	220	320	NaN	520	0.34074717015028	2	0	NaN	1478043.5283767	NaN	1478044.5117774	1478045.02832273
48	27	1	0	90	36.1581920903955	36.241610738255	21	0.700050371959805	2	11	4	NaN	2	4	0.0345078701775815	0	1	NaN	366	6	51	2	120	220	320	NaN	520	0.178962322650477	1	0	NaN	1478045.9618405	NaN	1478046.9453326	1478047.46190478
48	27	1	0	90	36.1581920903955	36.241610738255	14	0.466700247973204	2	8	6	NaN	2	3	0.0345078701775815	0	1	NaN	367	6	52	2	120	220	320	NaN	520	0.239939670311287	2	1	NaN	1478048.2288478	NaN	1478049.2122354	1478049.72878373
48	27	1	0	90	36.1581920903955	36.241610738255	21	0.700050371959805	2	6	4	NaN	1	4	0.0345078701775815	0	1	NaN	368	6	53	2	120	220	320	NaN	520	0.194592922460288	2	0	NaN	1478050.5624052	NaN	1478051.5457858	1478052.06234838
48	27	1	0	90	36.1581920903955	36.241610738255	12	0.400028783977032	2	2	3	NaN	1	4	0.0345078701775815	0	1	NaN	369	6	54	2	120	220	320	NaN	520	0.239120670128614	2	0	NaN	1478052.8459712	NaN	1478053.8293489	1478054.34589983
48	27	1	0	90	36.1581920903955	36.241610738255	20	0.66671463996172	2	3	2	NaN	1	5	0.0345078701775815	0	1	NaN	370	6	55	2	120	220	320	NaN	520	0.265758022665977	1	1	NaN	1478055.179375	NaN	1478056.1629118	1478056.67947428
48	27	1	0	90	36.1581920903955	36.241610738255	22	0.733386103957891	2	4	2	NaN	1	4	0.0345078701775815	0	1	NaN	371	6	56	2	120	220	320	NaN	520	0.203499642666429	2	0	NaN	1478057.5297472	NaN	1478058.5131569	1478059.02970966
48	27	1	0	90	36.1581920903955	36.241610738255	25	0.833393299952149	2	7	4	NaN	2	4	0.0345078701775815	0	1	NaN	372	6	57	2	120	220	320	NaN	520	0.223001722479239	2	1	NaN	1478059.8299745	NaN	1478060.8133803	1478061.32992688
48	27	1	0	90	36.1581920903955	36.241610738255	22	0.733386103957891	2	9	4	NaN	2	4	0.0345078701775815	0	1	NaN	373	6	58	2	120	220	320	NaN	520	0.186046470189467	2	1	NaN	1478062.1468761	NaN	1478063.1302659	1478063.64681943
48	27	1	0	90	36.1581920903955	36.241610738255	10	0.33335731998086	2	1	6	NaN	1	5	0.0345078701775815	0	1	NaN	374	6	59	2	120	220	320	NaN	520	0.182867270195857	2	0	NaN	1478064.4304382	NaN	1478065.4138209	1478065.93036993
48	27	1	0	90	36.1581920903955	36.241610738255	6	0.200014391988516	2	12	4	NaN	2	4	0.0345078701775815	0	1	NaN	375	6	60	2	120	220	320	NaN	520	0.187540770275518	2	1	NaN	1478066.6973073	NaN	1478067.6807206	1478068.19725833
48	27	1	0	90	36.1581920903955	36.241610738255	13	0.433364515975118	2	5	4	NaN	1	4	0.0345078701775815	0	1	NaN	376	6	61	2	120	220	320	NaN	520	0.175994365243241	2	0	NaN	1478068.98087	NaN	1478069.9642689	1478070.48081403
48	27	1	0	90	36.1581920903955	36.241610738255	13	0.433364515975118	2	7	5	NaN	2	4	0.0345078701775815	0	1	NaN	377	6	62	2	120	220	320	NaN	520	0.172952070133761	2	1	NaN	1478071.247753	NaN	1478072.2311619	1478072.74770473
48	27	1	0	90	36.1581920903955	36.241610738255	20	0.66671463996172	2	6	4	NaN	1	3	0.0345078701775815	0	1	NaN	378	6	63	2	120	220	320	NaN	520	0.226513122674078	2	0	NaN	1478073.5146489	NaN	1478074.498058	1478075.01460438
48	27	1	0	90	36.1581920903955	36.241610738255	17	0.566707443967462	2	6	2	NaN	1	4	0.0345078701775815	0	1	NaN	379	7	1	2	120	220	320	NaN	520	0.293350470252335	1	1	NaN	1478077.4317047	NaN	1478078.415109	1478078.93165033
48	27	1	0	90	36.1581920903955	36.241610738255	6	0.200014391988516	2	6	2	NaN	1	5	0.0345078701775815	0	1	NaN	380	7	2	2	120	220	320	NaN	520	0.373676365008578	1	1	NaN	1478079.8152926	NaN	1478080.7986754	1478081.31521703
48	27	1	0	90	36.1581920903955	36.241610738255	22	0.733386103957891	2	10	6	NaN	2	4	0.0345078701775815	0	1	NaN	381	7	3	2	120	220	320	NaN	520	0.106687470106408	2	1	NaN	1478082.2821846	NaN	1478083.2655809	1478083.78212113
48	27	1	0	90	36.1581920903955	36.241610738255	19	0.633378907963633	2	10	6	NaN	2	4	0.0345078701775815	0	1	NaN	382	7	4	2	120	220	320	NaN	520	0.234909970313311	1	0	NaN	1478084.4824052	NaN	1478085.4657996	1478085.98234483
48	27	1	0	90	36.1581920903955	36.241610738255	0	0	1	4	5	NaN	1	4	0.0345078701775815	0	1	NaN	383	7	5	2	110	210	310	NaN	510	0.301769270328805	1	1	NaN	1478086.79929	NaN	1478087.7826803	1478088.29923433
48	27	1	0	90	36.1581920903955	36.241610738255	20	0.66671463996172	2	7	5	NaN	2	4	0.0345078701775815	0	1	NaN	384	7	6	2	120	220	320	NaN	520	0.077872270019725	2	1	NaN	1478089.1828523	NaN	1478090.1662434	1478090.68280243
48	27	1	0	90	36.1581920903955	36.241610738255	23	0.766721835955977	2	5	6	NaN	1	4	0.0345078701775815	0	1	NaN	385	7	7	2	120	220	320	NaN	520	0.0952996227424592	2	0	NaN	1478091.3497382	NaN	1478092.3331346	1478092.84968828
48	27	1	0	90	36.1581920903955	36.241610738255	20	0.66671463996172	2	6	5	NaN	1	4	0.0345078701775815	0	1	NaN	386	7	8	2	120	220	320	NaN	520	0.216054170159623	2	0	NaN	1478093.5332869	NaN	1478094.5166749	1478095.03322823
48	27	1	0	90	36.1581920903955	36.241610738255	18	0.600043175965548	2	5	2	NaN	1	4	0.0345078701775815	0	1	NaN	387	7	9	2	120	220	320	NaN	520	0.218557370360941	2	0	NaN	1478095.8501738	NaN	1478096.8335732	1478097.35011853
48	27	1	0	90	36.1581920903955	36.241610738255	23	0.766721835955977	2	9	3	NaN	2	3	0.0345078701775815	0	1	NaN	388	7	10	2	120	220	320	NaN	520	0.262639170279726	2	1	NaN	1478098.1504052	NaN	1478099.1337992	1478099.65034863
48	27	1	0	90	36.1581920903955	36.241610738255	0	0	1	6	1	NaN	1	5	0.0345078701775815	0	1	NaN	389	7	11	2	110	210	310	NaN	510	0.104453722713515	2	0	NaN	1478100.5006273	NaN	1478101.4840447	1478102.00058548
48	27	1	0	90	36.1581920903955	36.241610738255	17	0.566707443967462	2	2	6	NaN	1	5	0.0345078701775815	0	1	NaN	390	7	12	2	120	220	320	NaN	520	0.056153770070523	2	0	NaN	1478102.700846	NaN	1478103.6842586	1478104.20079213
48	27	1	0	90	36.1581920903955	36.241610738255	7	0.233350123986602	2	6	3	NaN	1	5	0.0345078701775815	0	1	NaN	391	7	13	2	120	220	320	NaN	520	0.010358422761783	2	0	NaN	1478104.851063	NaN	1478105.8344694	1478106.35101598
48	27	1	0	90	36.1581920903955	36.241610738255	12	0.400028783977032	2	6	6	NaN	1	5	0.0345078701775815	0	1	NaN	392	7	14	2	120	220	320	NaN	520	0.0103741700295359	1	1	NaN	1478106.951294	NaN	1478107.9346664	1478108.45120983
48	27	1	0	90	36.1581920903955	36.241610738255	16	0.533371711969376	2	11	6	NaN	2	5	0.0345078701775815	0	1	NaN	393	7	15	2	120	220	320	NaN	520	0.113669322570786	2	1	NaN	1478109.0514681	NaN	1478110.0348736	1478110.55142768
48	27	1	0	90	36.1581920903955	36.241610738255	11	0.366693051978946	2	1	1	NaN	1	3	0.0345078701775815	0	1	NaN	394	7	16	2	120	220	320	NaN	520	0.241579817375168	2	0	NaN	1478111.2517177	NaN	1478112.2350932	1478112.75163368
48	27	1	0	90	36.1581920903955	36.241610738255	17	0.566707443967462	2	9	4	NaN	2	5	0.0345078701775815	0	1	NaN	395	7	17	2	120	220	320	NaN	520	0.115870432462543	2	1	NaN	1478113.5852439	NaN	1478114.568631	1478115.08519897
48	27	1	0	90	36.1581920903955	36.241610738255	21	0.700050371959805	2	4	1	NaN	1	5	0.0345078701775815	0	1	NaN	396	7	18	2	120	220	320	NaN	520	0.0517112703528255	2	0	NaN	1478115.7854624	NaN	1478116.7688696	1478117.28540793
48	27	1	0	90	36.1581920903955	36.241610738255	11	0.366693051978946	2	3	4	NaN	1	3	0.0345078701775815	0	1	NaN	397	7	19	2	120	220	320	NaN	520	0.189960689982399	2	0	NaN	1478117.9189972	NaN	1478118.9024136	1478119.41896461
48	27	1	0	90	36.1581920903955	36.241610738255	22	0.733386103957891	2	12	1	NaN	2	4	0.0345078701775815	0	1	NaN	398	7	20	2	120	220	320	NaN	520	0.0986218226607889	2	1	NaN	1478120.2025719	NaN	1478121.1859622	1478121.70252028
48	27	1	0	90	36.1581920903955	36.241610738255	14	0.466700247973204	2	12	1	NaN	2	5	0.0345078701775815	0	1	NaN	399	7	21	2	120	220	320	NaN	520	0.0103727702517062	2	1	NaN	1478122.3861036	NaN	1478123.3695062	1478123.88605673
48	27	1	0	90	36.1581920903955	36.241610738255	22	0.733386103957891	2	5	1	NaN	1	5	0.0345078701775815	0	1	NaN	400	7	22	2	120	220	320	NaN	520	0.143061822513118	2	0	NaN	1478124.4863173	NaN	1478125.4697235	1478125.98627158
48	27	1	0	90	36.1581920903955	36.241610738255	8	0.266685855984688	2	5	5	NaN	1	4	0.0345078701775815	0	1	NaN	401	7	23	2	120	220	320	NaN	520	0.0613304176367819	1	1	NaN	1478126.7198727	NaN	1478127.7032633	1478128.21982148
48	27	1	0	90	36.1581920903955	36.241610738255	10	0.33335731998086	2	3	3	NaN	1	3	0.0345078701775815	0	1	NaN	402	7	24	2	120	220	320	NaN	520	0.271010922500864	2	0	NaN	1478128.8700956	NaN	1478129.85348	1478130.37003748
48	27	1	0	90	36.1581920903955	36.241610738255	10	0.33335731998086	2	10	2	NaN	2	4	0.0345078701775815	0	1	NaN	403	7	25	2	120	220	320	NaN	520	0.280433270148933	2	1	NaN	1478131.2369701	NaN	1478132.2203788	1478132.73692543
48	27	1	0	90	36.1581920903955	36.241610738255	17	0.566707443967462	2	4	6	NaN	1	3	0.0345078701775815	0	1	NaN	404	7	26	2	120	220	320	NaN	520	0.473342270357534	1	1	NaN	1478133.6038809	NaN	1478134.587271	1478135.10382583
48	27	1	0	90	36.1581920903955	36.241610738255	19	0.633378907963633	2	2	3	NaN	1	4	0.0345078701775815	0	1	NaN	405	7	27	2	120	220	320	NaN	520	0.290178070310503	2	0	NaN	1478136.1708093	NaN	1478137.1541909	1478137.67074223
48	27	1	0	90	36.1581920903955	36.241610738255	23	0.766721835955977	2	12	3	NaN	2	4	0.0345078701775815	0	1	NaN	406	7	28	2	120	220	320	NaN	520	0.259156970307231	2	1	NaN	1478138.554367	NaN	1478139.5377671	1478140.05431113
48	27	1	0	90	36.1581920903955	36.241610738255	10	0.33335731998086	2	7	5	NaN	2	3	0.0345078701775815	0	1	NaN	407	7	29	2	120	220	320	NaN	520	0.268819517688826	2	1	NaN	1478140.9045994	NaN	1478141.8879909	1478142.40454778
48	27	1	0	90	36.1581920903955	36.241610738255	14	0.466700247973204	2	6	2	NaN	1	3	0.0345078701775815	0	1	NaN	408	7	30	2	120	220	320	NaN	520	0.222339670173824	1	1	NaN	1478143.2548288	NaN	1478144.2382325	1478144.75477513
48	27	1	0	90	36.1581920903955	36.241610738255	24	0.800057567954063	2	11	3	NaN	2	3	0.0345078701775815	0	1	NaN	409	7	31	2	120	220	320	NaN	520	0.233798222383484	2	1	NaN	1478145.5717233	NaN	1478146.5551255	1478147.07166988
48	27	1	0	90	36.1581920903955	36.241610738255	6	0.200014391988516	2	7	5	NaN	2	3	0.0345078701775815	0	1	NaN	410	7	32	2	120	220	320	NaN	520	0.268463870277628	2	1	NaN	1478147.8886263	NaN	1478148.8720152	1478149.38855873
48	27	1	0	90	36.1581920903955	36.241610738255	20	0.66671463996172	2	5	6	NaN	1	4	0.0345078701775815	0	1	NaN	411	7	33	2	120	220	320	NaN	520	0.22230347013101	2	0	NaN	1478150.2388516	NaN	1478151.2222453	1478151.73878993
48	27	1	0	90	36.1581920903955	36.241610738255	9	0.300021587982774	2	4	4	NaN	1	4	0.0345078701775815	0	1	NaN	412	7	34	2	120	220	320	NaN	520	0.241582375252619	2	0	NaN	1478152.5557392	NaN	1478153.5391506	1478154.05569682
48	27	1	0	90	36.1581920903955	36.241610738255	25	0.833393299952149	2	4	3	NaN	1	4	0.0345078701775815	0	1	NaN	413	7	35	2	120	220	320	NaN	520	0.604090170236304	1	1	NaN	1478154.889316	NaN	1478155.8726967	1478156.38925253
48	27	1	0	90	36.1581920903955	36.241610738255	11	0.366693051978946	2	6	5	NaN	1	3	0.0345078701775815	0	1	NaN	414	7	36	2	120	220	320	NaN	520	0.215846170205623	2	0	NaN	1478157.5896054	NaN	1478158.5729647	1478159.08951443
48	27	1	0	90	36.1581920903955	36.241610738255	18	0.600043175965548	2	7	4	NaN	2	4	0.0345078701775815	0	1	NaN	415	7	37	2	120	220	320	NaN	520	0.13936511753127	2	1	NaN	1478159.889787	NaN	1478160.8731929	1478161.38974508
48	27	1	0	90	36.1581920903955	36.241610738255	8	0.266685855984688	2	6	2	NaN	1	4	0.0345078701775815	0	1	NaN	416	7	38	2	120	220	320	NaN	520	0.177787670167163	1	1	NaN	1478162.1232343	NaN	1478163.1067306	1478163.62329973
48	27	1	0	90	36.1581920903955	36.241610738255	9	0.300021587982774	2	6	6	NaN	1	3	0.0345078701775815	0	1	NaN	417	7	39	2	120	220	320	NaN	520	0.0103723700158298	2	0	NaN	1478164.390268	NaN	1478165.3736276	1478165.89017663
48	27	1	0	90	36.1581920903955	36.241610738255	7	0.233350123986602	2	8	5	NaN	2	4	0.0345078701775815	0	1	NaN	418	7	40	2	120	220	320	NaN	520	0.122541170334443	2	1	NaN	1478166.4904496	NaN	1478167.4738453	1478167.99038743
48	27	1	0	90	36.1581920903955	36.241610738255	21	0.700050371959805	2	9	6	NaN	2	5	0.0345078701775815	0	1	NaN	419	7	41	2	120	220	320	NaN	520	0.185913242632523	2	1	NaN	1478168.7073311	NaN	1478169.6907194	1478170.20727496
48	27	1	0	90	36.1581920903955	36.241610738255	14	0.466700247973204	2	5	1	NaN	1	3	0.0345078701775815	0	1	NaN	420	7	42	2	120	220	320	NaN	520	0.239154370268807	2	0	NaN	1478170.9742131	NaN	1478171.9576223	1478172.47416933
48	27	1	0	90	36.1581920903955	36.241610738255	20	0.66671463996172	2	8	6	NaN	2	4	0.0345078701775815	0	1	NaN	421	7	43	2	120	220	320	NaN	520	0.281511475099251	2	1	NaN	1478173.3078131	NaN	1478174.2911792	1478174.80773372
48	27	1	0	90	36.1581920903955	36.241610738255	0	0	1	5	3	NaN	1	5	0.0345078701775815	0	1	NaN	422	7	44	2	110	210	310	NaN	510	0.23476447025314	2	0	NaN	1478175.674678	NaN	1478176.6580827	1478177.17462763
48	27	1	0	90	36.1581920903955	36.241610738255	12	0.400028783977032	2	7	1	NaN	2	4	0.0345078701775815	0	1	NaN	423	7	45	2	120	220	320	NaN	520	0.261415470158681	2	1	NaN	1478177.9915676	NaN	1478178.9749609	1478179.49151183
48	27	1	0	90	36.1581920903955	36.241610738255	9	0.300021587982774	2	3	3	NaN	1	3	0.0345078701775815	0	1	NaN	424	7	46	2	120	220	320	NaN	520	0.127225817646831	2	0	NaN	1478180.3417992	NaN	1478181.3252103	1478181.84174298
48	27	1	0	90	36.1581920903955	36.241610738255	7	0.233350123986602	2	6	2	NaN	1	3	0.0345078701775815	0	1	NaN	425	7	47	2	120	220	320	NaN	520	0.246820122702047	2	0	NaN	1478182.5586775	NaN	1478183.542081	1478184.05863998
48	27	1	0	90	36.1581920903955	36.241610738255	21	0.700050371959805	2	7	2	NaN	2	5	0.0345078701775815	0	1	NaN	426	7	48	2	120	220	320	NaN	520	1.28874901751988	1	0	NaN	1478184.8922695	NaN	1478185.8756441	1478186.39218928
48	27	1	0	90	36.1581920903955	36.241610738255	17	0.566707443967462	2	7	4	NaN	2	3	0.0345078701775815	0	1	NaN	427	7	49	2	120	220	320	NaN	520	0.233572442783043	2	1	NaN	1478188.2759017	NaN	1478189.2593056	1478189.77587266
48	27	1	0	90	36.1581920903955	36.241610738255	12	0.400028783977032	2	1	2	NaN	1	4	0.0345078701775815	0	1	NaN	428	7	50	2	120	220	320	NaN	520	0.260457917582244	2	0	NaN	1478190.5928075	NaN	1478191.5762179	1478192.09275748
48	27	1	0	90	36.1581920903955	36.241610738255	11	0.366693051978946	2	3	5	NaN	1	4	0.0345078701775815	0	1	NaN	429	7	51	2	120	220	320	NaN	520	0.230163222644478	2	0	NaN	1478192.9430351	NaN	1478193.9264452	1478194.44298818
48	27	1	0	90	36.1581920903955	36.241610738255	20	0.66671463996172	2	7	2	NaN	2	4	0.0345078701775815	0	1	NaN	430	7	52	2	120	220	320	NaN	520	0.417564122704789	2	1	NaN	1478195.259934	NaN	1478196.2433369	1478196.75988628
48	27	1	0	90	36.1581920903955	36.241610738255	7	0.233350123986602	2	12	4	NaN	2	3	0.0345078701775815	0	1	NaN	431	7	53	2	120	220	320	NaN	520	0.316987570375204	2	1	NaN	1478197.7601621	NaN	1478198.7435701	1478199.26012593
48	27	1	0	90	36.1581920903955	36.241610738255	23	0.766721835955977	2	2	3	NaN	1	4	0.0345078701775815	0	1	NaN	432	7	54	2	120	220	320	NaN	520	0.30903298011981	2	0	NaN	1478200.1604019	NaN	1478201.1438063	1478201.66036202
48	27	1	0	90	36.1581920903955	36.241610738255	23	0.766721835955977	2	3	1	NaN	1	3	0.0345078701775815	0	1	NaN	433	7	55	2	120	220	320	NaN	520	0.532625222811475	2	0	NaN	1478202.5606564	NaN	1478203.5440475	1478204.06060348
48	27	1	0	90	36.1581920903955	36.241610738255	18	0.600043175965548	2	1	2	NaN	1	3	0.0345078701775815	0	1	NaN	434	7	56	2	120	220	320	NaN	520	0.355675517581403	2	0	NaN	1478205.1775645	NaN	1478206.1609771	1478206.67751238
48	27	1	0	90	36.1581920903955	36.241610738255	20	0.66671463996172	2	3	1	NaN	1	5	0.0345078701775815	0	1	NaN	435	7	57	2	120	220	320	NaN	520	0.305345317814499	2	0	NaN	1478207.6278083	NaN	1478208.6111971	1478209.12776648
48	27	1	0	90	36.1581920903955	36.241610738255	18	0.600043175965548	2	9	1	NaN	2	3	0.0345078701775815	0	1	NaN	436	7	58	2	120	220	320	NaN	520	0.177250670036301	2	1	NaN	1478210.0280419	NaN	1478211.0114478	1478211.52798843
48	27	1	0	90	36.1581920903955	36.241610738255	12	0.400028783977032	2	11	2	NaN	2	4	0.0345078701775815	0	1	NaN	437	7	59	2	120	220	320	NaN	520	0.246607622597367	2	1	NaN	1478212.2949333	NaN	1478213.2783405	1478213.79489158
48	27	1	0	90	36.1581920903955	36.241610738255	15	0.50003597997129	2	10	1	NaN	2	3	0.0345078701775815	0	1	NaN	438	7	60	2	120	220	320	NaN	520	0.376733470242471	2	1	NaN	1478214.6284957	NaN	1478215.6118989	1478216.12844153
48	27	1	0	90	36.1581920903955	36.241610738255	9	0.300021587982774	2	10	5	NaN	2	4	0.0345078701775815	0	1	NaN	439	7	61	2	120	220	320	NaN	520	0.49372752266936	2	1	NaN	1478217.0954134	NaN	1478218.0788091	1478218.59535918
48	27	1	0	90	36.1581920903955	36.241610738255	18	0.600043175965548	2	12	4	NaN	2	4	0.0345078701775815	0	1	NaN	440	7	62	2	120	220	320	NaN	520	0.254531294805929	2	1	NaN	1478219.6789972	NaN	1478220.6624058	1478221.17895011
48	27	1	0	90	36.1581920903955	36.241610738255	11	0.366693051978946	2	10	5	NaN	2	3	0.0345078701775815	0	1	NaN	441	7	63	2	120	220	320	NaN	520	0.255977695109323	2	1	NaN	1478222.029219	NaN	1478223.0126208	1478223.5291838
48	27	1	0	90	36.1581920903955	36.241610738255	11	0.366693051978946	2	10	6	NaN	2	3	0.0345078701775815	0	1	NaN	442	8	1	2	120	220	320	NaN	520	1.18500902247615	2	1	NaN	1478260.1162985	NaN	1478261.0996994	1478261.61624208
48	27	1	0	90	36.1581920903955	36.241610738255	7	0.233350123986602	2	5	4	NaN	1	3	0.0345078701775815	0	1	NaN	443	8	2	2	120	220	320	NaN	520	0.32602147012949	2	0	NaN	1478263.3832844	NaN	1478264.3666869	1478264.88323453
48	27	1	0	90	36.1581920903955	36.241610738255	23	0.766721835955977	2	11	3	NaN	2	5	0.0345078701775815	0	1	NaN	444	8	3	2	120	220	320	NaN	520	0.237435022601858	2	1	NaN	1478265.8001964	NaN	1478266.7836141	1478267.30013888
48	27	1	0	90	36.1581920903955	36.241610738255	8	0.266685855984688	2	2	6	NaN	1	3	0.0345078701775815	0	1	NaN	445	8	4	2	120	220	320	NaN	520	0.215832670219243	2	0	NaN	1478268.1337539	NaN	1478269.1171572	1478269.63369163
48	27	1	0	90	36.1581920903955	36.241610738255	8	0.266685855984688	2	6	1	NaN	1	3	0.0345078701775815	0	1	NaN	446	8	5	2	120	220	320	NaN	520	0.14691822277382	2	0	NaN	1478270.4506392	NaN	1478271.4340421	1478271.95059268
48	27	1	0	90	36.1581920903955	36.241610738255	14	0.466700247973204	2	11	2	NaN	2	5	0.0345078701775815	0	1	NaN	447	8	6	2	120	220	320	NaN	520	0.681416837498546	2	1	NaN	1478272.6841966	NaN	1478273.6676146	1478274.18414586
48	27	1	0	90	36.1581920903955	36.241610738255	17	0.566707443967462	2	11	6	NaN	2	5	0.0345078701775815	0	1	NaN	448	8	7	2	120	220	320	NaN	520	0.29813692253083	2	1	NaN	1478275.4511342	NaN	1478276.4345283	1478276.95108238
48	27	1	0	90	36.1581920903955	36.241610738255	12	0.400028783977032	2	3	3	NaN	1	3	0.0345078701775815	0	1	NaN	449	8	8	2	120	220	320	NaN	520	0.266533870249987	2	0	NaN	1478277.834696	NaN	1478278.8181027	1478279.33464433
48	27	1	0	90	36.1581920903955	36.241610738255	9	0.300021587982774	2	7	6	NaN	2	4	0.0345078701775815	0	1	NaN	450	8	9	2	120	220	320	NaN	520	0.284439222654328	1	0	NaN	1478280.1849258	NaN	1478281.1683263	1478281.68487438
48	27	1	0	90	36.1581920903955	36.241610738255	11	0.366693051978946	2	1	5	NaN	1	5	0.0345078701775815	0	1	NaN	451	8	10	2	120	220	320	NaN	520	0.0934600702021271	2	0	NaN	1478282.5518256	NaN	1478283.5352334	1478284.05177693
48	27	1	0	90	36.1581920903955	36.241610738255	23	0.766721835955977	2	7	5	NaN	2	5	0.0345078701775815	0	1	NaN	452	8	11	2	120	220	320	NaN	520	0.125824722694233	2	1	NaN	1478284.7354071	NaN	1478285.7187717	1478286.23532768
48	27	1	0	90	36.1581920903955	36.241610738255	19	0.633378907963633	2	6	5	NaN	1	3	0.0345078701775815	0	1	NaN	453	8	12	2	120	220	320	NaN	520	0.0608762702904642	2	0	NaN	1478286.9522557	NaN	1478287.9355894	1478288.45220463
48	27	1	0	90	36.1581920903955	36.241610738255	21	0.700050371959805	2	8	2	NaN	2	5	0.0345078701775815	0	1	NaN	454	8	13	2	120	220	320	NaN	520	0.0548583227209747	2	1	NaN	1478289.1024717	NaN	1478290.0858686	1478290.60242458
48	27	1	0	90	36.1581920903955	36.241610738255	23	0.766721835955977	2	4	3	NaN	1	4	0.0345078701775815	0	1	NaN	455	8	14	2	120	220	320	NaN	520	0.104596017627046	2	0	NaN	1478291.2526776	NaN	1478292.2360694	1478292.75262348
48	27	1	0	90	36.1581920903955	36.241610738255	15	0.50003597997129	2	12	1	NaN	2	4	0.0345078701775815	0	1	NaN	456	8	15	2	120	220	320	NaN	520	0.0103591226506978	2	1	NaN	1478293.4528979	NaN	1478294.4363033	1478294.95284598
48	27	1	0	90	36.1581920903955	36.241610738255	15	0.50003597997129	2	1	5	NaN	1	3	0.0345078701775815	0	1	NaN	457	8	16	2	120	220	320	NaN	520	0.0103572227526456	2	0	NaN	1478295.5531316	NaN	1478296.5365149	1478297.05305608
48	27	1	0	90	36.1581920903955	36.241610738255	7	0.233350123986602	2	5	3	NaN	1	5	0.0345078701775815	0	1	NaN	458	8	17	2	120	220	320	NaN	520	0.0103571224026382	2	0	NaN	1478297.653304	NaN	1478298.6367198	1478299.15326378
