subjno	age	gender	isPractice	viewdist	CmToPixX	CmToPixY	SOA_frm	SOA_time	targNum	targID	targExample	targRace	targGender	firstTargPos	contrast	familiarity	curr_staircase	iStair	TrialNum	BlockNum	blktrl	sessionNum	TC_FIXATION	TC_RSVP_START	TC_RSVP_END	TC_BLANK	TC_RESPONSE_ONSET	RT2afc	resp_2afc	acc	RSVPOnsetVBL	RSVPOnsetTime	RSVPOffsetVBL	RSVPOffsetTime	startrt_2afc
1	19	0	0	90	36.1581920903955	36.241610738255	7	0.233358328000177	2	1	3	NaN	1	5	0.0350874958816868	1	1	NaN	1	1	1	2	121	221	321	NaN	521	0.828093380550854	1	1	NaN	264267.3607147	NaN	264268.3441676	264268.877323619
1	19	0	0	90	36.1581920903955	36.241610738255	23	0.766748792000581	2	11	2	NaN	2	4	0.0350874958816868	1	1	NaN	2	1	2	2	121	221	321	NaN	521	1.18092561693629	2	1	NaN	264270.5610279	NaN	264271.544455	264272.060961783
1	19	0	0	90	36.1581920903955	36.241610738255	25	0.833422600000631	2	3	2	NaN	1	4	0.0350874958816868	1	1	NaN	3	1	3	2	121	221	321	NaN	521	0.352225261100102	1	1	NaN	264274.0613852	NaN	264275.0448007	264275.561296339
1	19	0	0	90	36.1581920903955	36.241610738255	11	0.366705944000278	2	2	6	NaN	1	5	0.0350874958816868	1	1	NaN	4	1	4	2	121	221	321	NaN	521	0.373098248091992	1	1	NaN	264276.744994	NaN	264277.7283917	264278.244914152
1	19	0	0	90	36.1581920903955	36.241610738255	21	0.70007498400053	2	2	3	NaN	1	4	0.0350874958816868	1	1	NaN	5	1	5	2	121	221	321	NaN	521	0.751608444144949	1	1	NaN	264279.4619613	NaN	264280.4454066	264280.961848856
1	19	0	0	90	36.1581920903955	36.241610738255	13	0.433379752000328	2	3	6	NaN	1	5	0.0350874958816868	1	1	NaN	6	1	6	2	121	221	321	NaN	521	0.2442894805572	1	1	NaN	264282.5456329	NaN	264283.5290303	264284.045490419
1	19	0	0	90	36.1581920903955	36.241610738255	16	0.533390464000404	2	3	5	NaN	1	5	0.0350874958816868	1	1	NaN	7	1	7	2	121	221	321	NaN	521	0.60542752861511	2	0	NaN	264285.1124732	NaN	264286.0958527	264286.612397871
1	19	0	0	90	36.1581920903955	36.241610738255	8	0.266695232000202	2	3	5	NaN	1	3	0.0350874958816868	1	1	NaN	8	1	8	2	121	221	321	NaN	521	1.19183532858733	1	1	NaN	264288.0460638	NaN	264289.0295162	264289.546022871
1	19	0	0	90	36.1581920903955	36.241610738255	24	0.800085696000606	2	1	6	NaN	1	3	0.0350874958816868	1	1	NaN	9	1	9	2	121	221	321	NaN	521	0.633540528593585	2	0	NaN	264291.579755	NaN	264292.5631717	264293.079711871
1	19	0	0	90	36.1581920903955	36.241610738255	22	0.733411888000555	2	11	5	NaN	2	5	0.0350874958816868	1	1	NaN	10	1	10	2	121	221	321	NaN	521	0.645465224748477	1	0	NaN	264294.8799637	NaN	264295.8634917	264296.380032175
1	19	0	0	90	36.1581920903955	36.241610738255	8	0.266695232000202	2	2	2	NaN	1	5	0.0350874958816868	1	1	NaN	11	1	11	2	121	221	321	NaN	521	0.397614028595854	1	1	NaN	264297.8636931	NaN	264298.8471191	264299.363660571
1	19	0	0	90	36.1581920903955	36.241610738255	15	0.500053560000379	2	12	3	NaN	2	5	0.0350874958816868	1	1	NaN	12	1	12	2	121	221	321	NaN	521	0.88920672860695	1	0	NaN	264300.5806532	NaN	264301.5640681	264302.080596771
1	19	0	0	90	36.1581920903955	36.241610738255	15	0.500053560000379	2	5	6	NaN	1	3	0.0350874958816868	1	1	NaN	13	1	13	2	121	221	321	NaN	521	0.256166376697365	1	1	NaN	264303.7976308	NaN	264304.7810351	264305.297582023
1	19	0	0	90	36.1581920903955	36.241610738255	10	0.333369040000252	2	10	6	NaN	2	3	0.0350874958816868	1	1	NaN	14	1	14	2	121	221	321	NaN	521	0.328304928611033	2	1	NaN	264306.3812274	NaN	264307.3646237	264307.881165071
1	19	0	0	90	36.1581920903955	36.241610738255	16	0.533390464000404	2	9	4	NaN	2	3	0.0350874958816868	1	1	NaN	15	1	15	2	121	221	321	NaN	521	0.253446276648901	1	0	NaN	264309.0480176	NaN	264310.0315588	264310.548098623
1	19	0	0	90	36.1581920903955	36.241610738255	19	0.63340117600048	2	1	5	NaN	1	5	0.0350874958816868	1	1	NaN	16	1	16	2	121	221	321	NaN	521	0.39770982862683	2	0	NaN	264311.6317427	NaN	264312.615138	264313.131700671
1	19	0	0	90	36.1581920903955	36.241610738255	11	0.366705944000278	2	10	6	NaN	2	4	0.0350874958816868	1	1	NaN	17	1	17	2	121	221	321	NaN	521	0.616500376665499	2	1	NaN	264314.3654334	NaN	264315.348764	264315.865287623
1	19	0	0	90	36.1581920903955	36.241610738255	19	0.63340117600048	2	5	3	NaN	1	4	0.0350874958816868	1	1	NaN	18	1	18	2	121	221	321	NaN	521	0.27417662856169	1	1	NaN	264317.3156185	NaN	264318.299058	264318.815580171
1	19	0	0	90	36.1581920903955	36.241610738255	10	0.333369040000252	2	3	4	NaN	1	3	0.0350874958816868	1	1	NaN	19	1	19	2	121	221	321	NaN	521	0.425646828545723	1	1	NaN	264319.9158796	NaN	264320.8993089	264321.415845171
1	19	0	0	90	36.1581920903955	36.241610738255	15	0.500053560000379	2	11	1	NaN	2	4	0.0350874958816868	1	1	NaN	20	1	20	2	121	221	321	NaN	521	0.387390928633977	2	1	NaN	264322.6660451	NaN	264323.6495665	264324.166115371
1	19	0	0	90	36.1581920903955	36.241610738255	25	0.833422600000631	2	12	1	NaN	2	4	0.0350874958816868	1	1	NaN	21	1	21	2	121	221	321	NaN	521	0.206373928580433	2	1	NaN	264325.3831098	NaN	264326.3664909	264326.883049171
1	19	0	0	90	36.1581920903955	36.241610738255	19	0.63340117600048	2	1	6	NaN	1	3	0.0350874958816868	1	1	NaN	22	1	22	2	121	221	321	NaN	521	0.240973092208151	1	1	NaN	264327.9166917	NaN	264328.9000885	264329.416642708
1	19	0	0	90	36.1581920903955	36.241610738255	9	0.300032136000227	2	1	1	NaN	1	4	0.0350874958816868	1	1	NaN	23	1	23	2	121	221	321	NaN	521	1.1382780285785	1	1	NaN	264330.4836005	NaN	264331.4669981	264331.983553871
1	19	0	0	90	36.1581920903955	36.241610738255	13	0.433379752000328	2	7	6	NaN	2	3	0.0350874958816868	1	1	NaN	24	1	24	2	121	221	321	NaN	521	0.279000980604906	2	1	NaN	264333.9506184	NaN	264334.9340141	264335.450554119
1	19	0	0	90	36.1581920903955	36.241610738255	19	0.63340117600048	2	10	4	NaN	2	3	0.0350874958816868	1	1	NaN	25	1	25	2	121	221	321	NaN	521	0.382656828616746	2	1	NaN	264336.550879	NaN	264337.5342657	264338.050838771
1	19	0	0	90	36.1581920903955	36.241610738255	12	0.400042848000303	2	10	1	NaN	2	3	0.0350874958816868	1	1	NaN	26	1	26	2	121	221	321	NaN	521	0.202868676686194	2	1	NaN	264339.2511365	NaN	264340.234529	264340.751074923
1	19	0	0	90	36.1581920903955	36.241610738255	0	0	1	3	1	NaN	1	4	0.0350874958816868	1	1	NaN	27	1	27	2	111	211	311	NaN	511	0.25329659221461	1	1	NaN	264341.7848003	NaN	264342.7681133	264343.284676208
1	19	0	0	90	36.1581920903955	36.241610738255	24	0.800085696000606	2	3	4	NaN	1	3	0.0350874958816868	1	1	NaN	28	1	28	2	121	221	321	NaN	521	0.141607732453849	1	1	NaN	264344.3683018	NaN	264345.3517157	264345.868259368
1	19	0	0	90	36.1581920903955	36.241610738255	22	0.733411888000555	2	8	6	NaN	2	4	0.0350874958816868	1	1	NaN	29	1	29	2	121	221	321	NaN	521	0.250953828566708	2	1	NaN	264347.0185607	NaN	264348.0019781	264348.518523771
1	19	0	0	90	36.1581920903955	36.241610738255	23	0.766748792000581	2	11	2	NaN	2	4	0.0350874958816868	1	1	NaN	30	1	30	2	121	221	321	NaN	521	0.435755876649637	2	1	NaN	264349.6021573	NaN	264350.5855171	264351.102097023
1	19	0	0	90	36.1581920903955	36.241610738255	6	0.200021424000151	2	8	5	NaN	2	3	0.0350874958816868	1	1	NaN	31	1	31	2	121	221	321	NaN	521	0.300840844167396	2	1	NaN	264352.3691143	NaN	264353.3525137	264353.869044856
1	19	0	0	90	36.1581920903955	36.241610738255	9	0.300032136000227	2	9	1	NaN	2	5	0.0350874958816868	1	1	NaN	32	1	32	2	121	221	321	NaN	521	0.259145228599664	2	1	NaN	264355.0026972	NaN	264355.986085	264356.502642871
1	19	0	0	90	36.1581920903955	36.241610738255	8	0.266695232000202	2	5	5	NaN	1	4	0.0350874958816868	1	1	NaN	33	1	33	2	121	221	321	NaN	521	0.315716228622478	1	1	NaN	264357.5862855	NaN	264358.5696717	264359.086232871
1	19	0	0	90	36.1581920903955	36.241610738255	24	0.800085696000606	2	12	3	NaN	2	4	0.0350874958816868	1	1	NaN	34	1	34	2	121	221	321	NaN	521	0.249685516988393	1	0	NaN	264360.2197491	NaN	264361.2033059	264361.719821483
1	19	0	0	90	36.1581920903955	36.241610738255	21	0.70007498400053	2	3	5	NaN	1	5	0.0350874958816868	1	1	NaN	35	1	35	2	121	221	321	NaN	521	0.314071132452227	2	0	NaN	264362.8034561	NaN	264363.7868762	264364.303412168
1	19	0	0	90	36.1581920903955	36.241610738255	22	0.733411888000555	2	7	3	NaN	2	4	0.0350874958816868	1	1	NaN	36	1	36	2	121	221	321	NaN	521	0.311790028586984	1	0	NaN	264365.4537407	NaN	264366.4371544	264366.953683971
1	19	0	0	90	36.1581920903955	36.241610738255	10	0.333369040000252	2	9	4	NaN	2	5	0.0350874958816868	1	1	NaN	37	1	37	2	121	221	321	NaN	521	0.20664707274409	2	1	NaN	264368.0871777	NaN	264369.0707156	264369.587260027
1	19	0	0	90	36.1581920903955	36.241610738255	24	0.800085696000606	2	7	2	NaN	2	5	0.0350874958816868	1	1	NaN	38	1	38	2	121	221	321	NaN	521	0.249135572754312	2	1	NaN	264370.621014	NaN	264371.6043183	264372.120848827
1	19	0	0	90	36.1581920903955	36.241610738255	25	0.833422600000631	2	7	6	NaN	2	4	0.0350874958816868	1	1	NaN	39	1	39	2	121	221	321	NaN	521	0.778113384440076	1	0	NaN	264373.1878277	NaN	264374.17124	264374.687774616
1	19	0	0	90	36.1581920903955	36.241610738255	6	0.200021424000151	2	7	4	NaN	2	3	0.0350874958816868	1	1	NaN	40	1	40	2	121	221	321	NaN	521	0.253509172762278	2	1	NaN	264376.2881096	NaN	264377.2715753	264377.788072327
1	19	0	0	90	36.1581920903955	36.241610738255	14	0.466716656000353	2	6	5	NaN	1	3	0.0350874958816868	1	1	NaN	41	1	41	2	121	221	321	NaN	521	0.294648528622929	1	1	NaN	264378.8550339	NaN	264379.8384514	264380.354998571
1	19	0	0	90	36.1581920903955	36.241610738255	21	0.70007498400053	2	1	5	NaN	1	5	0.0350874958816868	1	1	NaN	42	1	42	2	121	221	321	NaN	521	0.221786828595214	1	1	NaN	264381.4720607	NaN	264382.4553724	264382.971921171
1	19	0	0	90	36.1581920903955	36.241610738255	23	0.766748792000581	2	8	1	NaN	2	5	0.0350874958816868	1	1	NaN	43	1	43	2	121	221	321	NaN	521	0.226684176712297	2	1	NaN	264384.138932	NaN	264385.1223257	264385.638847723
1	19	0	0	90	36.1581920903955	36.241610738255	13	0.433379752000328	2	5	1	NaN	1	4	0.0350874958816868	1	1	NaN	44	1	44	2	121	221	321	NaN	521	0.260797576687764	1	1	NaN	264386.6891519	NaN	264387.6725894	264388.189095623
1	19	0	0	90	36.1581920903955	36.241610738255	18	0.600064272000454	2	3	6	NaN	1	5	0.0350874958816868	1	1	NaN	45	1	45	2	121	221	321	NaN	521	0.237989476649091	1	1	NaN	264389.2560802	NaN	264390.2395106	264390.756016123
1	19	0	0	90	36.1581920903955	36.241610738255	13	0.433379752000328	2	4	2	NaN	1	4	0.0350874958816868	1	1	NaN	46	1	46	2	121	221	321	NaN	521	0.358710080559831	1	1	NaN	264391.8229874	NaN	264392.8063929	264393.322948419
1	19	0	0	90	36.1581920903955	36.241610738255	0	0	1	4	1	NaN	1	4	0.0350874958816868	1	1	NaN	47	1	47	2	111	211	311	NaN	511	0.156146128603723	1	1	NaN	264394.4899345	NaN	264395.4733415	264395.989871071
1	19	0	0	90	36.1581920903955	36.241610738255	22	0.733411888000555	2	3	4	NaN	1	4	0.0350874958816868	1	1	NaN	48	1	48	2	121	221	321	NaN	521	0.416140976711176	1	1	NaN	264396.9734863	NaN	264397.95688	264398.473446623
1	19	0	0	90	36.1581920903955	36.241610738255	9	0.300032136000227	2	5	5	NaN	1	3	0.0350874958816868	1	1	NaN	49	1	49	2	121	221	321	NaN	521	0.257926880556624	2	0	NaN	264399.7237647	NaN	264400.7071708	264401.223728519
1	19	0	0	90	36.1581920903955	36.241610738255	24	0.800085696000606	2	5	6	NaN	1	3	0.0350874958816868	1	1	NaN	50	1	50	2	121	221	321	NaN	521	0.435056024696678	2	0	NaN	264402.290711	NaN	264403.2741016	264403.790643375
1	19	0	0	90	36.1581920903955	36.241610738255	21	0.70007498400053	2	7	5	NaN	2	4	0.0350874958816868	1	1	NaN	51	1	51	2	121	221	321	NaN	521	0.244456872751471	2	1	NaN	264405.0576578	NaN	264406.0410722	264406.557574827
1	19	0	0	90	36.1581920903955	36.241610738255	23	0.766748792000581	2	4	2	NaN	1	5	0.0350874958816868	1	1	NaN	52	1	52	2	121	221	321	NaN	521	0.23743197665317	2	0	NaN	264407.6245585	NaN	264408.6079478	264409.124500123
1	19	0	0	90	36.1581920903955	36.241610738255	6	0.200021424000151	2	3	4	NaN	1	5	0.0350874958816868	1	1	NaN	53	1	53	2	121	221	321	NaN	521	0.0941888285451569	1	1	NaN	264410.1914781	NaN	264411.1748824	264411.691422871
1	19	0	0	90	36.1581920903955	36.241610738255	24	0.800085696000606	2	6	3	NaN	1	4	0.0350874958816868	1	1	NaN	54	1	54	2	121	221	321	NaN	521	0.453510628605727	2	0	NaN	264412.608407	NaN	264413.5917728	264414.108326571
1	19	0	0	90	36.1581920903955	36.241610738255	24	0.800085696000606	2	4	6	NaN	1	5	0.0350874958816868	1	1	NaN	55	1	55	2	121	221	321	NaN	521	0.734920336399227	1	1	NaN	264415.3753217	NaN	264416.3587321	264416.875271864
1	19	0	0	90	36.1581920903955	36.241610738255	13	0.433379752000328	2	1	5	NaN	1	3	0.0350874958816868	1	1	NaN	56	1	56	2	121	221	321	NaN	521	0.252056928584352	1	1	NaN	264418.4256067	NaN	264419.4090279	264419.925568071
1	19	0	0	90	36.1581920903955	36.241610738255	9	0.300032136000227	2	10	2	NaN	2	5	0.0350874958816868	1	1	NaN	57	1	57	2	121	221	321	NaN	521	0.141095528553706	2	1	NaN	264420.9925438	NaN	264421.9759397	264422.492493971
1	19	0	0	90	36.1581920903955	36.241610738255	23	0.766748792000581	2	6	2	NaN	1	5	0.0350874958816868	1	1	NaN	58	1	58	2	121	221	321	NaN	521	0.210184776689857	1	1	NaN	264423.4594869	NaN	264424.4428579	264424.959391923
1	19	0	0	90	36.1581920903955	36.241610738255	16	0.533390464000404	2	12	4	NaN	2	5	0.0350874958816868	1	1	NaN	59	1	59	2	121	221	321	NaN	521	0.197286928596441	2	1	NaN	264425.976363	NaN	264426.9597356	264427.476308771
1	19	0	0	90	36.1581920903955	36.241610738255	6	0.200021424000151	2	3	2	NaN	1	4	0.0350874958816868	1	1	NaN	60	1	60	2	121	221	321	NaN	521	0.240208228584379	1	1	NaN	264428.4932996	NaN	264429.4767124	264429.993225171
1	19	0	0	90	36.1581920903955	36.241610738255	23	0.766748792000581	2	1	6	NaN	1	5	0.0350874958816868	1	1	NaN	61	1	61	2	121	221	321	NaN	521	0.332614428538363	1	1	NaN	264431.3767578	NaN	264432.3602979	264432.876843971
1	19	0	0	90	36.1581920903955	36.241610738255	6	0.200021424000151	2	5	5	NaN	1	4	0.0350874958816868	1	1	NaN	62	1	62	2	121	221	321	NaN	521	0.210531524731778	2	0	NaN	264434.0270463	NaN	264435.0105629	264435.527101975
1	19	0	0	90	36.1581920903955	36.241610738255	8	0.266695232000202	2	11	6	NaN	2	4	0.0350874958816868	1	1	NaN	63	1	63	2	121	221	321	NaN	521	0.279948728624731	2	1	NaN	264436.6939654	NaN	264437.677508	264438.194041271
1	19	0	0	90	36.1581920903955	36.241610738255	17	0.566727368000429	2	8	3	NaN	2	4	0.0350874958816868	1	1	NaN	64	2	1	2	121	221	321	NaN	521	0.307835780608002	2	1	NaN	264442.1778492	NaN	264443.1614952	264443.677916519
1	19	0	0	90	36.1581920903955	36.241610738255	7	0.233358328000177	2	3	6	NaN	1	3	0.0350874958816868	1	1	NaN	65	2	2	2	121	221	321	NaN	521	0.24212592857657	1	1	NaN	264444.8115604	NaN	264445.7949643	264446.311503771
1	19	0	0	90	36.1581920903955	36.241610738255	17	0.566727368000429	2	6	1	NaN	1	3	0.0350874958816868	1	1	NaN	66	2	3	2	121	221	321	NaN	521	0.24410484416876	1	1	NaN	264447.361691	NaN	264448.3452194	264448.861765256
1	19	0	0	90	36.1581920903955	36.241610738255	15	0.500053560000379	2	3	3	NaN	1	3	0.0350874958816868	1	1	NaN	67	2	4	2	121	221	321	NaN	521	0.108997880539391	1	1	NaN	264449.9287462	NaN	264450.9122318	264451.428671119
1	19	0	0	90	36.1581920903955	36.241610738255	13	0.433379752000328	2	6	6	NaN	1	4	0.0350874958816868	1	1	NaN	68	2	5	2	121	221	321	NaN	521	0.155798276653513	1	1	NaN	264452.3622961	NaN	264453.345712	264453.862247923
1	19	0	0	90	36.1581920903955	36.241610738255	19	0.63340117600048	2	11	5	NaN	2	4	0.0350874958816868	1	1	NaN	69	2	6	2	121	221	321	NaN	521	0.328406228625681	1	0	NaN	264454.8290819	NaN	264455.812619	264456.329159271
1	19	0	0	90	36.1581920903955	36.241610738255	7	0.233358328000177	2	10	1	NaN	2	4	0.0350874958816868	1	1	NaN	70	2	7	2	121	221	321	NaN	521	0.414508928544819	2	1	NaN	264457.4794697	NaN	264458.46288	264458.979422671
1	19	0	0	90	36.1581920903955	36.241610738255	21	0.70007498400053	2	12	1	NaN	2	3	0.0350874958816868	1	1	NaN	71	2	8	2	121	221	321	NaN	521	0.232589528604876	2	1	NaN	264460.2129562	NaN	264461.1964859	264461.713027471
1	19	0	0	90	36.1581920903955	36.241610738255	21	0.70007498400053	2	1	4	NaN	1	3	0.0350874958816868	1	1	NaN	72	2	9	2	121	221	321	NaN	521	0.410767028632108	1	1	NaN	264462.7633313	NaN	264463.7467608	264464.263282071
1	19	0	0	90	36.1581920903955	36.241610738255	11	0.366705944000278	2	3	3	NaN	1	3	0.0350874958816868	1	1	NaN	73	2	10	2	121	221	321	NaN	521	0.228883928619325	1	1	NaN	264465.4969302	NaN	264466.4803447	264466.996878271
1	19	0	0	90	36.1581920903955	36.241610738255	14	0.466716656000353	2	2	4	NaN	1	4	0.0350874958816868	1	1	NaN	74	2	11	2	121	221	321	NaN	521	0.446958184475079	2	0	NaN	264468.0472101	NaN	264469.0306129	264469.547135116
1	19	0	0	90	36.1581920903955	36.241610738255	0	0	1	6	4	NaN	1	3	0.0350874958816868	1	1	NaN	75	2	12	2	111	211	311	NaN	511	0.22403588052839	1	1	NaN	264470.8141147	NaN	264471.7975278	264472.314076519
1	19	0	0	90	36.1581920903955	36.241610738255	21	0.70007498400053	2	4	3	NaN	1	4	0.0350874958816868	1	1	NaN	76	2	13	2	121	221	321	NaN	521	0.178460728609934	1	1	NaN	264473.3477413	NaN	264474.3311164	264474.847653971
1	19	0	0	90	36.1581920903955	36.241610738255	22	0.733411888000555	2	11	5	NaN	2	4	0.0350874958816868	1	1	NaN	77	2	14	2	121	221	321	NaN	521	0.22966872859979	2	1	NaN	264475.8478285	NaN	264476.8313586	264477.347901771
1	19	0	0	90	36.1581920903955	36.241610738255	19	0.63340117600048	2	7	4	NaN	2	4	0.0350874958816868	1	1	NaN	78	2	15	2	121	221	321	NaN	521	0.784048424684443	2	1	NaN	264478.3815472	NaN	264479.3649478	264479.881487475
1	19	0	0	90	36.1581920903955	36.241610738255	14	0.466716656000353	2	7	6	NaN	2	4	0.0350874958816868	1	1	NaN	79	2	16	2	121	221	321	NaN	521	0.196342332463246	2	1	NaN	264481.4818219	NaN	264482.4653479	264482.981798668
1	19	0	0	90	36.1581920903955	36.241610738255	6	0.200021424000151	2	5	2	NaN	1	3	0.0350874958816868	1	1	NaN	80	2	17	2	121	221	321	NaN	521	0.392627476656344	1	1	NaN	264484.1653112	NaN	264485.1488633	264485.665381523
1	19	0	0	90	36.1581920903955	36.241610738255	25	0.833422600000631	2	8	3	NaN	2	3	0.0350874958816868	1	1	NaN	81	2	18	2	121	221	321	NaN	521	0.299966392223723	2	1	NaN	264487.0657077	NaN	264488.049119	264488.565672508
1	19	0	0	90	36.1581920903955	36.241610738255	21	0.70007498400053	2	2	2	NaN	1	4	0.0350874958816868	1	1	NaN	82	2	19	2	121	221	321	NaN	521	0.2268890767009	1	1	NaN	264489.6825404	NaN	264490.666059	264491.182594523
1	19	0	0	90	36.1581920903955	36.241610738255	11	0.366705944000278	2	11	5	NaN	2	3	0.0350874958816868	1	1	NaN	83	2	20	2	121	221	321	NaN	521	0.245391428587027	2	1	NaN	264492.233018	NaN	264493.2163377	264493.732851571
1	19	0	0	90	36.1581920903955	36.241610738255	15	0.500053560000379	2	2	3	NaN	1	5	0.0350874958816868	1	1	NaN	84	2	21	2	121	221	321	NaN	521	0.238303528574761	1	1	NaN	264494.7998608	NaN	264495.7832312	264496.299770671
1	19	0	0	90	36.1581920903955	36.241610738255	15	0.500053560000379	2	3	4	NaN	1	3	0.0350874958816868	1	1	NaN	85	2	22	2	121	221	321	NaN	521	0.240059928619303	1	1	NaN	264497.3499592	NaN	264498.3334681	264498.850036171
1	19	0	0	90	36.1581920903955	36.241610738255	15	0.500053560000379	2	2	5	NaN	1	4	0.0350874958816868	1	1	NaN	86	2	23	2	121	221	321	NaN	521	0.193162376643158	1	1	NaN	264499.9169769	NaN	264500.9003911	264501.416937123
1	19	0	0	90	36.1581920903955	36.241610738255	11	0.366705944000278	2	3	1	NaN	1	5	0.0350874958816868	1	1	NaN	87	2	24	2	121	221	321	NaN	521	0.340290040301625	2	0	NaN	264502.4339121	NaN	264503.4173387	264503.93385826
1	19	0	0	90	36.1581920903955	36.241610738255	10	0.333369040000252	2	7	1	NaN	2	3	0.0350874958816868	1	1	NaN	88	2	25	2	121	221	321	NaN	521	0.216891576652415	2	1	NaN	264505.1008619	NaN	264506.0842316	264506.600780223
1	19	0	0	90	36.1581920903955	36.241610738255	12	0.400042848000303	2	6	2	NaN	1	5	0.0350874958816868	1	1	NaN	89	2	26	2	121	221	321	NaN	521	0.22738952859072	1	1	NaN	264507.6344063	NaN	264508.6178183	264509.134367871
1	19	0	0	90	36.1581920903955	36.241610738255	19	0.63340117600048	2	2	3	NaN	1	3	0.0350874958816868	1	1	NaN	90	2	27	2	121	221	321	NaN	521	0.133120999962557	1	1	NaN	264510.1846683	NaN	264511.1679705	264511.6846212
1	19	0	0	90	36.1581920903955	36.241610738255	19	0.63340117600048	2	3	6	NaN	1	4	0.0350874958816868	1	1	NaN	91	2	28	2	121	221	321	NaN	521	0.242762128589675	1	1	NaN	264512.8349259	NaN	264513.818341	264514.334875871
1	19	0	0	90	36.1581920903955	36.241610738255	18	0.600064272000454	2	7	3	NaN	2	3	0.0350874958816868	1	1	NaN	92	2	29	2	121	221	321	NaN	521	0.200574876682367	2	1	NaN	264515.4852256	NaN	264516.4685991	264516.985141523
1	19	0	0	90	36.1581920903955	36.241610738255	22	0.733411888000555	2	10	5	NaN	2	3	0.0350874958816868	1	1	NaN	93	2	30	2	121	221	321	NaN	521	0.228110876691062	2	1	NaN	264518.0021242	NaN	264518.9854951	264519.502052923
1	19	0	0	90	36.1581920903955	36.241610738255	18	0.600064272000454	2	2	3	NaN	1	4	0.0350874958816868	1	1	NaN	94	2	31	2	121	221	321	NaN	521	0.133304376679007	1	1	NaN	264520.5523774	NaN	264521.5357866	264522.052320623
1	19	0	0	90	36.1581920903955	36.241610738255	10	0.333369040000252	2	7	4	NaN	2	5	0.0350874958816868	1	1	NaN	95	2	32	2	121	221	321	NaN	521	0.147503328567836	2	1	NaN	264523.0026804	NaN	264523.9860104	264524.502554071
1	19	0	0	90	36.1581920903955	36.241610738255	20	0.666738080000505	2	1	1	NaN	1	5	0.0350874958816868	1	1	NaN	96	2	33	2	121	221	321	NaN	521	0.640518236381467	2	0	NaN	264525.4695241	NaN	264526.452921	264526.969470464
1	19	0	0	90	36.1581920903955	36.241610738255	17	0.566727368000429	2	7	5	NaN	2	4	0.0350874958816868	1	1	NaN	97	2	34	2	121	221	321	NaN	521	0.113272428628989	2	1	NaN	264528.4364713	NaN	264529.4198946	264529.936426171
1	19	0	0	90	36.1581920903955	36.241610738255	9	0.300032136000227	2	12	1	NaN	2	4	0.0350874958816868	1	1	NaN	98	2	35	2	121	221	321	NaN	521	0.570856328587979	2	1	NaN	264531.0032677	NaN	264531.9868022	264532.503346371
1	19	0	0	90	36.1581920903955	36.241610738255	12	0.400042848000303	2	12	6	NaN	2	3	0.0350874958816868	1	1	NaN	99	2	36	2	121	221	321	NaN	521	0.166931532497983	2	1	NaN	264533.8870311	NaN	264534.8704327	264535.386956868
1	19	0	0	90	36.1581920903955	36.241610738255	14	0.466716656000353	2	12	6	NaN	2	3	0.0350874958816868	1	1	NaN	100	2	37	2	121	221	321	NaN	521	0.275284176692367	2	1	NaN	264536.3706428	NaN	264537.3539934	264537.870534123
1	19	0	0	90	36.1581920903955	36.241610738255	15	0.500053560000379	2	5	3	NaN	1	3	0.0350874958816868	1	1	NaN	101	2	38	2	121	221	321	NaN	521	0.243062264984474	1	1	NaN	264538.9708571	NaN	264539.9542657	264540.470782235
1	19	0	0	90	36.1581920903955	36.241610738255	22	0.733411888000555	2	12	3	NaN	2	4	0.0350874958816868	1	1	NaN	102	2	39	2	121	221	321	NaN	521	0.644533176673576	1	0	NaN	264541.5209687	NaN	264542.5044779	264543.021037623
1	19	0	0	90	36.1581920903955	36.241610738255	21	0.70007498400053	2	5	2	NaN	1	3	0.0350874958816868	1	1	NaN	103	2	40	2	121	221	321	NaN	521	0.129876832535956	1	1	NaN	264544.5880701	NaN	264545.5714637	264546.088012767
1	19	0	0	90	36.1581920903955	36.241610738255	6	0.200021424000151	2	1	2	NaN	1	5	0.0350874958816868	1	1	NaN	104	2	41	2	121	221	321	NaN	521	0.199722776655108	1	1	NaN	264547.0382588	NaN	264548.0216887	264548.538250123
1	19	0	0	90	36.1581920903955	36.241610738255	13	0.433379752000328	2	2	2	NaN	1	3	0.0350874958816868	1	1	NaN	105	2	42	2	121	221	321	NaN	521	0.171008128614631	1	1	NaN	264549.5552287	NaN	264550.5386046	264551.055166271
1	19	0	0	90	36.1581920903955	36.241610738255	22	0.733411888000555	2	1	3	NaN	1	4	0.0350874958816868	1	1	NaN	106	2	43	2	121	221	321	NaN	521	0.0791119285859168	1	1	NaN	264552.0386843	NaN	264553.0221862	264553.538764771
1	19	0	0	90	36.1581920903955	36.241610738255	9	0.300032136000227	2	1	1	NaN	1	5	0.0350874958816868	1	1	NaN	107	2	44	2	121	221	321	NaN	521	0.134892028640024	1	1	NaN	264554.4390658	NaN	264555.4223277	264555.938986371
1	19	0	0	90	36.1581920903955	36.241610738255	21	0.70007498400053	2	4	3	NaN	1	4	0.0350874958816868	1	1	NaN	108	2	45	2	121	221	321	NaN	521	0.284733076638076	1	1	NaN	264556.8892797	NaN	264557.8726846	264558.389218723
1	19	0	0	90	36.1581920903955	36.241610738255	0	0	1	3	1	NaN	1	3	0.0350874958816868	1	1	NaN	109	2	46	2	111	211	311	NaN	511	0.156269124650862	1	1	NaN	264559.4895251	NaN	264560.4729453	264560.989474175
1	19	0	0	90	36.1581920903955	36.241610738255	14	0.466716656000353	2	7	3	NaN	2	3	0.0350874958816868	1	1	NaN	110	2	47	2	121	221	321	NaN	521	0.193497628613841	2	1	NaN	264561.9564544	NaN	264562.9398825	264563.456401871
1	19	0	0	90	36.1581920903955	36.241610738255	6	0.200021424000151	2	8	3	NaN	2	4	0.0350874958816868	1	1	NaN	111	2	48	2	121	221	321	NaN	521	0.0524625246762298	2	1	NaN	264564.47344	NaN	264565.456796	264565.973303175
1	19	0	0	90	36.1581920903955	36.241610738255	10	0.333369040000252	2	1	3	NaN	1	5	0.0350874958816868	1	1	NaN	112	2	49	2	121	221	321	NaN	521	0.182211716950405	1	1	NaN	264567.0235331	NaN	264568.0070217	264568.523552083
1	19	0	0	90	36.1581920903955	36.241610738255	12	0.400042848000303	2	2	4	NaN	1	4	0.0350874958816868	1	1	NaN	113	2	50	2	121	221	321	NaN	521	0.225832628610078	2	0	NaN	264569.5238739	NaN	264570.5072556	264571.023808971
1	19	0	0	90	36.1581920903955	36.241610738255	0	0	1	1	4	NaN	1	3	0.0350874958816868	1	1	NaN	114	2	51	2	111	211	311	NaN	511	0.147672328632325	1	1	NaN	264572.0740961	NaN	264573.057539	264573.574054571
1	19	0	0	90	36.1581920903955	36.241610738255	20	0.666738080000505	2	2	1	NaN	1	4	0.0350874958816868	1	1	NaN	115	2	52	2	121	221	321	NaN	521	0.209290628612507	1	1	NaN	264574.5410157	NaN	264575.5244186	264576.040970771
1	19	0	0	90	36.1581920903955	36.241610738255	20	0.666738080000505	2	7	4	NaN	2	3	0.0350874958816868	1	1	NaN	116	2	53	2	121	221	321	NaN	521	0.219336628564633	2	1	NaN	264577.0746302	NaN	264578.0580154	264578.574571271
1	19	0	0	90	36.1581920903955	36.241610738255	24	0.800085696000606	2	11	6	NaN	2	4	0.0350874958816868	1	1	NaN	117	2	54	2	121	221	321	NaN	521	0.325538540317211	1	0	NaN	264579.6081884	NaN	264580.5915805	264581.10814296
1	19	0	0	90	36.1581920903955	36.241610738255	0	0	1	9	5	NaN	2	5	0.0350874958816868	1	1	NaN	118	2	55	2	111	211	311	NaN	511	0.515780328598339	2	1	NaN	264582.258415	NaN	264583.2418402	264583.758390671
1	19	0	0	90	36.1581920903955	36.241610738255	9	0.300032136000227	2	9	2	NaN	2	3	0.0350874958816868	1	1	NaN	119	2	56	2	121	221	321	NaN	521	0.192968468880281	1	0	NaN	264585.1253804	NaN	264586.1088084	264586.625338231
1	19	0	0	90	36.1581920903955	36.241610738255	14	0.466716656000353	2	9	1	NaN	2	5	0.0350874958816868	1	1	NaN	120	2	57	2	121	221	321	NaN	521	0.203955728560686	2	1	NaN	264587.642328	NaN	264588.6257415	264589.142260971
1	19	0	0	90	36.1581920903955	36.241610738255	15	0.500053560000379	2	6	1	NaN	1	4	0.0350874958816868	1	1	NaN	121	2	58	2	121	221	321	NaN	521	0.25741232855944	1	1	NaN	264590.2924477	NaN	264591.2759991	264591.792519071
1	19	0	0	90	36.1581920903955	36.241610738255	0	0	1	5	4	NaN	1	5	0.0350874958816868	1	1	NaN	122	2	59	2	111	211	311	NaN	511	0.170389328617603	1	1	NaN	264592.8593817	NaN	264593.8429285	264594.359441671
1	19	0	0	90	36.1581920903955	36.241610738255	16	0.533390464000404	2	4	1	NaN	1	4	0.0350874958816868	1	1	NaN	123	2	60	2	121	221	321	NaN	521	0.150838628585916	2	0	NaN	264595.3430979	NaN	264596.3264584	264596.843020071
1	19	0	0	90	36.1581920903955	36.241610738255	24	0.800085696000606	2	6	4	NaN	1	5	0.0350874958816868	1	1	NaN	124	2	61	2	121	221	321	NaN	521	0.182585892209318	1	1	NaN	264597.9433032	NaN	264598.9267348	264599.443275508
1	19	0	0	90	36.1581920903955	36.241610738255	14	0.466716656000353	2	9	2	NaN	2	4	0.0350874958816868	1	1	NaN	125	2	62	2	121	221	321	NaN	521	0.191636784467846	2	1	NaN	264600.7101427	NaN	264601.6936622	264602.210219416
1	19	0	0	90	36.1581920903955	36.241610738255	15	0.500053560000379	2	9	2	NaN	2	4	0.0350874958816868	1	1	NaN	126	2	63	2	121	221	321	NaN	521	0.226574728556443	2	1	NaN	264603.2272211	NaN	264604.2105972	264604.727120571
1	19	0	0	90	36.1581920903955	36.241610738255	7	0.233358328000177	2	12	3	NaN	2	4	0.0350874958816868	1	1	NaN	127	3	1	2	121	221	321	NaN	521	0.44362957670819	2	1	NaN	264609.5944719	NaN	264610.5779243	264611.094417623
1	19	0	0	90	36.1581920903955	36.241610738255	11	0.366705944000278	2	9	6	NaN	2	4	0.0350874958816868	1	1	NaN	128	3	2	2	121	221	321	NaN	521	0.31682202470256	2	1	NaN	264612.3614053	NaN	264613.3448388	264613.861353875
1	19	0	0	90	36.1581920903955	36.241610738255	12	0.400042848000303	2	1	4	NaN	1	3	0.0350874958816868	1	1	NaN	129	3	3	2	121	221	321	NaN	521	0.291448728647083	1	1	NaN	264614.99488	NaN	264615.9784209	264616.494949571
1	19	0	0	90	36.1581920903955	36.241610738255	7	0.233358328000177	2	9	4	NaN	2	3	0.0350874958816868	1	1	NaN	130	3	4	2	121	221	321	NaN	521	0.106534928549081	2	1	NaN	264617.5952736	NaN	264618.5787095	264619.095248871
1	19	0	0	90	36.1581920903955	36.241610738255	14	0.466716656000353	2	12	1	NaN	2	5	0.0350874958816868	1	1	NaN	131	3	5	2	121	221	321	NaN	521	0.513157276669517	2	1	NaN	264620.0288291	NaN	264621.0122676	264621.528781623
1	19	0	0	90	36.1581920903955	36.241610738255	19	0.63340117600048	2	8	2	NaN	2	4	0.0350874958816868	1	1	NaN	132	3	6	2	121	221	321	NaN	521	0.239723928563762	2	1	NaN	264622.8624514	NaN	264623.8459197	264624.362400671
1	19	0	0	90	36.1581920903955	36.241610738255	13	0.433379752000328	2	2	1	NaN	1	4	0.0350874958816868	1	1	NaN	133	3	7	2	121	221	321	NaN	521	0.144858384504914	1	1	NaN	264625.42933	NaN	264626.4127774	264626.929323616
1	19	0	0	90	36.1581920903955	36.241610738255	17	0.566727368000429	2	10	4	NaN	2	3	0.0350874958816868	1	1	NaN	134	3	8	2	121	221	321	NaN	521	0.421562272764277	2	1	NaN	264627.8962601	NaN	264628.8796934	264629.396225227
1	19	0	0	90	36.1581920903955	36.241610738255	0	0	1	10	3	NaN	2	3	0.0350874958816868	1	1	NaN	135	3	9	2	111	211	311	NaN	511	0.247788228560239	2	1	NaN	264630.6465531	NaN	264631.6299678	264632.146505071
1	19	0	0	90	36.1581920903955	36.241610738255	17	0.566727368000429	2	4	1	NaN	1	4	0.0350874958816868	1	1	NaN	136	3	10	2	121	221	321	NaN	521	0.26476169610396	1	1	NaN	264633.2134729	NaN	264634.1968985	264634.713416304
1	19	0	0	90	36.1581920903955	36.241610738255	6	0.200021424000151	2	6	3	NaN	1	3	0.0350874958816868	1	1	NaN	137	3	11	2	121	221	321	NaN	521	0.0808743844390847	1	1	NaN	264635.796952	NaN	264636.780502	264637.297006116
1	19	0	0	90	36.1581920903955	36.241610738255	17	0.566727368000429	2	3	1	NaN	1	4	0.0350874958816868	1	1	NaN	138	3	12	2	121	221	321	NaN	521	0.273065728601068	1	1	NaN	264638.1972952	NaN	264639.1806799	264639.697239271
1	19	0	0	90	36.1581920903955	36.241610738255	16	0.533390464000404	2	7	1	NaN	2	5	0.0350874958816868	1	1	NaN	139	3	13	2	121	221	321	NaN	521	0.216499524714891	1	0	NaN	264640.7975539	NaN	264641.7809531	264642.297497875
1	19	0	0	90	36.1581920903955	36.241610738255	12	0.400042848000303	2	5	5	NaN	1	4	0.0350874958816868	1	1	NaN	140	3	14	2	121	221	321	NaN	521	0.360331932490226	2	0	NaN	264643.3977604	NaN	264644.3811997	264644.897759767
1	19	0	0	90	36.1581920903955	36.241610738255	6	0.200021424000151	2	2	3	NaN	1	5	0.0350874958816868	1	1	NaN	141	3	15	2	121	221	321	NaN	521	0.22964832856087	1	1	NaN	264646.0647321	NaN	264647.0481564	264647.564687571
1	19	0	0	90	36.1581920903955	36.241610738255	18	0.600064272000454	2	1	2	NaN	1	5	0.0350874958816868	1	1	NaN	142	3	16	2	121	221	321	NaN	521	0.231580228544772	1	1	NaN	264648.598356	NaN	264649.5818125	264650.098261871
1	19	0	0	90	36.1581920903955	36.241610738255	17	0.566727368000429	2	2	5	NaN	1	3	0.0350874958816868	1	1	NaN	143	3	17	2	121	221	321	NaN	521	0.168135128566064	1	1	NaN	264651.3818825	NaN	264652.3653502	264652.881878071
1	19	0	0	90	36.1581920903955	36.241610738255	18	0.600064272000454	2	9	1	NaN	2	3	0.0350874958816868	1	1	NaN	144	3	18	2	121	221	321	NaN	521	0.595692676666658	2	1	NaN	264653.8822017	NaN	264654.8655936	264655.382119823
1	19	0	0	90	36.1581920903955	36.241610738255	21	0.70007498400053	2	11	1	NaN	2	5	0.0350874958816868	1	1	NaN	145	3	19	2	121	221	321	NaN	521	0.0955528960912488	2	1	NaN	264656.7824665	NaN	264657.7658614	264658.282419804
1	19	0	0	90	36.1581920903955	36.241610738255	11	0.366705944000278	2	8	2	NaN	2	5	0.0350874958816868	1	1	NaN	146	3	20	2	121	221	321	NaN	521	0.182713244168554	2	1	NaN	264659.1992415	NaN	264660.1827749	264660.699318356
1	19	0	0	90	36.1581920903955	36.241610738255	13	0.433379752000328	2	8	1	NaN	2	4	0.0350874958816868	1	1	NaN	147	3	21	2	121	221	321	NaN	521	0.145443828543648	2	1	NaN	264661.7329057	NaN	264662.7163605	264663.232893571
1	19	0	0	90	36.1581920903955	36.241610738255	11	0.366705944000278	2	5	3	NaN	1	3	0.0350874958816868	1	1	NaN	148	3	22	2	121	221	321	NaN	521	0.190625924733467	1	1	NaN	264664.1998578	NaN	264665.1832682	264665.699795375
1	19	0	0	90	36.1581920903955	36.241610738255	12	0.400042848000303	2	10	2	NaN	2	3	0.0350874958816868	1	1	NaN	149	3	23	2	121	221	321	NaN	521	0.15309597668238	2	1	NaN	264666.7167659	NaN	264667.7001541	264668.216716323
1	19	0	0	90	36.1581920903955	36.241610738255	9	0.300032136000227	2	12	5	NaN	2	4	0.0350874958816868	1	1	NaN	150	3	24	2	121	221	321	NaN	521	0.238801368861459	2	1	NaN	264669.1836886	NaN	264670.1670862	264670.683617431
1	19	0	0	90	36.1581920903955	36.241610738255	19	0.63340117600048	2	2	4	NaN	1	5	0.0350874958816868	1	1	NaN	151	3	25	2	121	221	321	NaN	521	0.37531834031688	2	0	NaN	264671.7506044	NaN	264672.7340196	264673.25054906
1	19	0	0	90	36.1581920903955	36.241610738255	10	0.333369040000252	2	6	6	NaN	1	3	0.0350874958816868	1	1	NaN	152	3	26	2	121	221	321	NaN	521	0.171039028617088	1	1	NaN	264674.4508842	NaN	264675.4342601	264675.950810871
1	19	0	0	90	36.1581920903955	36.241610738255	18	0.600064272000454	2	5	1	NaN	1	5	0.0350874958816868	1	1	NaN	153	3	27	2	121	221	321	NaN	521	0.230695028614718	1	1	NaN	264676.951118	NaN	264677.9345308	264678.451059471
1	19	0	0	90	36.1581920903955	36.241610738255	12	0.400042848000303	2	12	5	NaN	2	3	0.0350874958816868	1	1	NaN	154	3	28	2	121	221	321	NaN	521	0.232603324693628	2	1	NaN	264679.5013559	NaN	264680.484778	264681.001317375
1	19	0	0	90	36.1581920903955	36.241610738255	17	0.566727368000429	2	4	4	NaN	1	3	0.0350874958816868	1	1	NaN	155	3	29	2	121	221	321	NaN	521	0.202515028591733	2	0	NaN	264682.0515986	NaN	264683.0350392	264683.551561671
1	19	0	0	90	36.1581920903955	36.241610738255	14	0.466716656000353	2	3	3	NaN	1	4	0.0350874958816868	1	1	NaN	156	3	30	2	121	221	321	NaN	521	0.172863528539892	1	1	NaN	264684.5851925	NaN	264685.5685941	264686.085144471
1	19	0	0	90	36.1581920903955	36.241610738255	20	0.666738080000505	2	12	2	NaN	2	5	0.0350874958816868	1	1	NaN	157	3	31	2	121	221	321	NaN	521	0.127424928592518	2	1	NaN	264687.1187672	NaN	264688.1022045	264688.618731971
1	19	0	0	90	36.1581920903955	36.241610738255	8	0.266695232000202	2	11	6	NaN	2	3	0.0350874958816868	1	1	NaN	158	3	32	2	121	221	321	NaN	521	0.205063028552104	1	0	NaN	264689.5689622	NaN	264690.5524279	264691.068967871
1	19	0	0	90	36.1581920903955	36.241610738255	0	0	1	8	4	NaN	2	4	0.0350874958816868	1	1	NaN	159	3	33	2	111	211	311	NaN	511	0.288151376647875	2	1	NaN	264692.0859284	NaN	264693.0693743	264693.585882423
1	19	0	0	90	36.1581920903955	36.241610738255	14	0.466716656000353	2	8	4	NaN	2	3	0.0350874958816868	1	1	NaN	160	3	34	2	121	221	321	NaN	521	0.223800628620666	2	1	NaN	264694.6861837	NaN	264695.6696201	264696.186135471
1	19	0	0	90	36.1581920903955	36.241610738255	14	0.466716656000353	2	1	6	NaN	1	5	0.0350874958816868	1	1	NaN	161	3	35	2	121	221	321	NaN	521	0.0976381441578269	1	1	NaN	264697.2364339	NaN	264698.2198388	264698.736402756
1	19	0	0	90	36.1581920903955	36.241610738255	9	0.300032136000227	2	8	5	NaN	2	4	0.0350874958816868	1	1	NaN	162	3	36	2	121	221	321	NaN	521	0.148677676683292	1	0	NaN	264699.953385	NaN	264700.9368917	264701.453323623
1	19	0	0	90	36.1581920903955	36.241610738255	20	0.666738080000505	2	7	2	NaN	2	4	0.0350874958816868	1	1	NaN	163	3	37	2	121	221	321	NaN	521	0.249684628564864	2	1	NaN	264702.4201561	NaN	264703.4036973	264703.920246771
1	19	0	0	90	36.1581920903955	36.241610738255	10	0.333369040000252	2	10	3	NaN	2	4	0.0350874958816868	1	1	NaN	164	3	38	2	121	221	321	NaN	521	0.179314876673743	2	1	NaN	264704.9871906	NaN	264705.970616	264706.487151623
1	19	0	0	90	36.1581920903955	36.241610738255	7	0.233358328000177	2	11	5	NaN	2	3	0.0350874958816868	1	1	NaN	165	3	39	2	121	221	321	NaN	521	0.230642628623173	2	1	NaN	264707.4874601	NaN	264708.4708644	264708.987405371
1	19	0	0	90	36.1581920903955	36.241610738255	8	0.266695232000202	2	5	6	NaN	1	3	0.0350874958816868	1	1	NaN	166	3	40	2	121	221	321	NaN	521	0.200752828561235	1	1	NaN	264710.0375873	NaN	264711.0211094	264711.537647871
1	19	0	0	90	36.1581920903955	36.241610738255	23	0.766748792000581	2	3	4	NaN	1	4	0.0350874958816868	1	1	NaN	167	3	41	2	121	221	321	NaN	521	0.18741822859738	2	0	NaN	264712.5546221	NaN	264713.5380994	264714.054562571
1	19	0	0	90	36.1581920903955	36.241610738255	11	0.366705944000278	2	4	1	NaN	1	3	0.0350874958816868	1	1	NaN	168	3	42	2	121	221	321	NaN	521	0.0632360285962932	1	1	NaN	264715.0547679	NaN	264716.0383128	264716.554825671
1	19	0	0	90	36.1581920903955	36.241610738255	23	0.766748792000581	2	1	3	NaN	1	3	0.0350874958816868	1	1	NaN	169	3	43	2	121	221	321	NaN	521	0.198961128597148	1	1	NaN	264717.4550985	NaN	264718.4385014	264718.955056971
1	19	0	0	90	36.1581920903955	36.241610738255	16	0.533390464000404	2	1	3	NaN	1	4	0.0350874958816868	1	1	NaN	170	3	44	2	121	221	321	NaN	521	0.434175280563068	1	1	NaN	264719.9719914	NaN	264720.9554213	264721.471966719
1	19	0	0	90	36.1581920903955	36.241610738255	19	0.63340117600048	2	8	6	NaN	2	3	0.0350874958816868	1	1	NaN	171	3	45	2	121	221	321	NaN	521	0.147815876698587	2	1	NaN	264722.7222991	NaN	264723.7057047	264724.222238723
1	19	0	0	90	36.1581920903955	36.241610738255	12	0.400042848000303	2	1	4	NaN	1	3	0.0350874958816868	1	1	NaN	172	3	46	2	121	221	321	NaN	521	0.193023628613446	1	1	NaN	264725.1892119	NaN	264726.1725999	264726.689147171
1	19	0	0	90	36.1581920903955	36.241610738255	11	0.366705944000278	2	2	6	NaN	1	5	0.0350874958816868	1	1	NaN	173	3	47	2	121	221	321	NaN	521	0.0119390767067671	1	1	NaN	264727.7059642	NaN	264728.6895328	264729.206055623
1	19	0	0	90	36.1581920903955	36.241610738255	22	0.733411888000555	2	2	1	NaN	1	4	0.0350874958816868	1	1	NaN	174	3	48	2	121	221	321	NaN	521	0.296765276696533	2	0	NaN	264730.3897072	NaN	264731.3731426	264731.889659123
1	19	0	0	90	36.1581920903955	36.241610738255	8	0.266695232000202	2	4	6	NaN	1	4	0.0350874958816868	1	1	NaN	175	3	49	2	121	221	321	NaN	521	0.207948428578675	2	0	NaN	264733.0066363	NaN	264733.9900558	264734.506586371
1	19	0	0	90	36.1581920903955	36.241610738255	24	0.800085696000606	2	11	5	NaN	2	3	0.0350874958816868	1	1	NaN	176	3	50	2	121	221	321	NaN	521	0.210231588280294	1	0	NaN	264735.5402373	NaN	264736.5236569	264737.040187112
1	19	0	0	90	36.1581920903955	36.241610738255	21	0.70007498400053	2	8	2	NaN	2	5	0.0350874958816868	1	1	NaN	177	3	51	2	121	221	321	NaN	521	0.388142576673999	2	1	NaN	264738.0738244	NaN	264739.0572149	264739.573751123
1	19	0	0	90	36.1581920903955	36.241610738255	15	0.500053560000379	2	10	1	NaN	2	3	0.0350874958816868	1	1	NaN	178	3	52	2	121	221	321	NaN	521	0.191890384478029	2	1	NaN	264740.7907739	NaN	264741.7741344	264742.290680316
1	19	0	0	90	36.1581920903955	36.241610738255	11	0.366705944000278	2	6	6	NaN	1	3	0.0350874958816868	1	1	NaN	179	3	53	2	121	221	321	NaN	521	0.0104778766399249	1	1	NaN	264743.3076789	NaN	264744.2910982	264744.807592123
1	19	0	0	90	36.1581920903955	36.241610738255	0	0	1	7	1	NaN	2	3	0.0350874958816868	1	1	NaN	180	3	54	2	111	211	311	NaN	511	0.118409572809469	2	1	NaN	264746.0078164	NaN	264746.9913107	264747.507854727
1	19	0	0	90	36.1581920903955	36.241610738255	20	0.666738080000505	2	2	1	NaN	1	5	0.0350874958816868	1	1	NaN	181	3	55	2	121	221	321	NaN	521	0.0846147363772616	1	1	NaN	264748.4414719	NaN	264749.4249072	264749.941444764
1	19	0	0	90	36.1581920903955	36.241610738255	16	0.533390464000404	2	4	2	NaN	1	5	0.0350874958816868	1	1	NaN	182	3	56	2	121	221	321	NaN	521	0.176138080598321	1	1	NaN	264750.958397	NaN	264751.9417211	264752.458350519
1	19	0	0	90	36.1581920903955	36.241610738255	13	0.433379752000328	2	1	5	NaN	1	4	0.0350874958816868	1	1	NaN	183	3	57	2	121	221	321	NaN	521	0.731830665026791	1	1	NaN	264753.4586756	NaN	264754.4420907	264754.958593235
1	19	0	0	90	36.1581920903955	36.241610738255	25	0.833422600000631	2	5	2	NaN	1	5	0.0350874958816868	1	1	NaN	184	3	58	2	121	221	321	NaN	521	0.297268376685679	2	0	NaN	264756.508858	NaN	264757.4923638	264758.008893623
1	19	0	0	90	36.1581920903955	36.241610738255	14	0.466716656000353	2	3	5	NaN	1	4	0.0350874958816868	1	1	NaN	185	3	59	2	121	221	321	NaN	521	0.281434328586329	1	1	NaN	264759.2924606	NaN	264760.2759845	264760.792509571
1	19	0	0	90	36.1581920903955	36.241610738255	18	0.600064272000454	2	11	4	NaN	2	5	0.0350874958816868	1	1	NaN	186	3	60	2	121	221	321	NaN	521	0.241374976700172	2	1	NaN	264761.8927326	NaN	264762.876231	264763.392794223
1	19	0	0	90	36.1581920903955	36.241610738255	17	0.566727368000429	2	7	1	NaN	2	4	0.0350874958816868	1	1	NaN	187	3	61	2	121	221	321	NaN	521	0.258251988270786	2	1	NaN	264764.459727	NaN	264765.4431777	264765.959684012
1	19	0	0	90	36.1581920903955	36.241610738255	20	0.666738080000505	2	4	4	NaN	1	5	0.0350874958816868	1	1	NaN	188	3	62	2	121	221	321	NaN	521	0.354952076682821	1	1	NaN	264767.043233	NaN	264768.0267373	264768.543264723
1	19	0	0	90	36.1581920903955	36.241610738255	25	0.833422600000631	2	8	2	NaN	2	3	0.0350874958816868	1	1	NaN	189	3	63	2	121	221	321	NaN	521	0.181416340288706	2	1	NaN	264769.9769333	NaN	264770.9603578	264771.47689726
1	19	0	0	90	36.1581920903955	36.241610738255	23	0.766748792000581	2	7	4	NaN	2	5	0.0350874958816868	1	1	NaN	190	4	1	2	121	221	321	NaN	521	0.400281328591518	2	1	NaN	264776.0942303	NaN	264777.0776395	264777.594165371
1	19	0	0	90	36.1581920903955	36.241610738255	21	0.70007498400053	2	9	5	NaN	2	3	0.0350874958816868	1	1	NaN	191	4	2	2	121	221	321	NaN	521	0.555391276662704	2	1	NaN	264778.811142	NaN	264779.7945482	264780.311093723
1	19	0	0	90	36.1581920903955	36.241610738255	11	0.366705944000278	2	12	3	NaN	2	4	0.0350874958816868	1	1	NaN	192	4	3	2	121	221	321	NaN	521	0.671482128556818	2	1	NaN	264781.6947495	NaN	264782.6781965	264783.194723571
1	19	0	0	90	36.1581920903955	36.241610738255	24	0.800085696000606	2	9	3	NaN	2	3	0.0350874958816868	1	1	NaN	193	4	4	2	121	221	321	NaN	521	0.103118624712806	2	1	NaN	264784.6950673	NaN	264785.6784687	264786.195004975
1	19	0	0	90	36.1581920903955	36.241610738255	8	0.266695232000202	2	12	5	NaN	2	3	0.0350874958816868	1	1	NaN	194	4	5	2	121	221	321	NaN	521	0.182696976640727	2	1	NaN	264787.1119777	NaN	264788.095378	264788.611905923
1	19	0	0	90	36.1581920903955	36.241610738255	7	0.233358328000177	2	11	1	NaN	2	4	0.0350874958816868	1	1	NaN	195	4	6	2	121	221	321	NaN	521	0.0104381286073476	1	0	NaN	264789.6122281	NaN	264790.5956047	264791.112156671
1	19	0	0	90	36.1581920903955	36.241610738255	15	0.500053560000379	2	11	6	NaN	2	3	0.0350874958816868	1	1	NaN	196	4	7	2	121	221	321	NaN	521	0.325468276627362	2	1	NaN	264791.9291634	NaN	264792.9125171	264793.429046723
1	19	0	0	90	36.1581920903955	36.241610738255	11	0.366705944000278	2	7	5	NaN	2	5	0.0350874958816868	1	1	NaN	197	4	8	2	121	221	321	NaN	521	0.21945402858546	2	1	NaN	264794.5627438	NaN	264795.5461071	264796.062651071
1	19	0	0	90	36.1581920903955	36.241610738255	23	0.766748792000581	2	10	2	NaN	2	4	0.0350874958816868	1	1	NaN	198	4	9	2	121	221	321	NaN	521	0.222190476662945	2	1	NaN	264797.0962884	NaN	264798.0797019	264798.596224923
1	19	0	0	90	36.1581920903955	36.241610738255	11	0.366705944000278	2	7	3	NaN	2	5	0.0350874958816868	1	1	NaN	199	4	10	2	121	221	321	NaN	521	1.92836192855611	2	1	NaN	264799.6298563	NaN	264800.6133142	264801.129816371
1	19	0	0	90	36.1581920903955	36.241610738255	11	0.366705944000278	2	9	3	NaN	2	3	0.0350874958816868	1	1	NaN	200	4	11	2	121	221	321	NaN	521	0.26171522855293	1	0	NaN	264803.8803019	NaN	264804.863706	264805.380228671
1	19	0	0	90	36.1581920903955	36.241610738255	13	0.433379752000328	2	8	6	NaN	2	3	0.0350874958816868	1	1	NaN	201	4	12	2	121	221	321	NaN	521	0.230294440290891	2	1	NaN	264806.4638644	NaN	264807.4472459	264807.96381366
1	19	0	0	90	36.1581920903955	36.241610738255	17	0.566727368000429	2	10	4	NaN	2	4	0.0350874958816868	1	1	NaN	202	4	13	2	121	221	321	NaN	521	0.184025828551967	2	1	NaN	264809.0139955	NaN	264809.9975398	264810.514073371
1	19	0	0	90	36.1581920903955	36.241610738255	13	0.433379752000328	2	7	5	NaN	2	5	0.0350874958816868	1	1	NaN	203	4	14	2	121	221	321	NaN	521	0.235874328645878	2	1	NaN	264811.5142535	NaN	264812.4977537	264813.014320071
1	19	0	0	90	36.1581920903955	36.241610738255	8	0.266695232000202	2	10	6	NaN	2	5	0.0350874958816868	1	1	NaN	204	4	15	2	121	221	321	NaN	521	0.383625176677015	2	1	NaN	264814.4146718	NaN	264815.3980553	264815.914596023
1	19	0	0	90	36.1581920903955	36.241610738255	18	0.600064272000454	2	8	1	NaN	2	5	0.0350874958816868	1	1	NaN	205	4	16	2	121	221	321	NaN	521	0.227454236417543	2	1	NaN	264817.1149883	NaN	264818.0983111	264818.614860764
1	19	0	0	90	36.1581920903955	36.241610738255	17	0.566727368000429	2	8	1	NaN	2	5	0.0350874958816868	1	1	NaN	206	4	17	2	121	221	321	NaN	521	0.437012576672714	1	0	NaN	264819.6651766	NaN	264820.6485626	264821.165114423
1	19	0	0	90	36.1581920903955	36.241610738255	25	0.833422600000631	2	10	6	NaN	2	4	0.0350874958816868	1	1	NaN	207	4	18	2	121	221	321	NaN	521	0.190514928603079	1	0	NaN	264822.4321335	NaN	264823.4155176	264823.932056171
1	19	0	0	90	36.1581920903955	36.241610738255	23	0.766748792000581	2	8	4	NaN	2	5	0.0350874958816868	1	1	NaN	208	4	19	2	121	221	321	NaN	521	0.354298428574111	1	0	NaN	264825.3157877	NaN	264826.2991539	264826.815693771
1	19	0	0	90	36.1581920903955	36.241610738255	12	0.400042848000303	2	11	4	NaN	2	5	0.0350874958816868	1	1	NaN	209	4	20	2	121	221	321	NaN	521	0.246737484470941	2	1	NaN	264827.9992105	NaN	264828.9828308	264829.499279016
1	19	0	0	90	36.1581920903955	36.241610738255	16	0.533390464000404	2	12	6	NaN	2	3	0.0350874958816868	1	1	NaN	210	4	21	2	121	221	321	NaN	521	0.188027876720298	2	1	NaN	264830.6662595	NaN	264831.6497164	264832.166204823
1	19	0	0	90	36.1581920903955	36.241610738255	16	0.533390464000404	2	1	1	NaN	1	3	0.0350874958816868	1	1	NaN	211	4	22	2	121	221	321	NaN	521	0.222975924727507	1	1	NaN	264833.1831858	NaN	264834.1665003	264834.683108575
1	19	0	0	90	36.1581920903955	36.241610738255	17	0.566727368000429	2	1	6	NaN	1	5	0.0350874958816868	1	1	NaN	212	4	23	2	121	221	321	NaN	521	0.232721588283312	1	1	NaN	264835.7334286	NaN	264836.716814	264837.233374512
1	19	0	0	90	36.1581920903955	36.241610738255	16	0.533390464000404	2	5	1	NaN	1	5	0.0350874958816868	1	1	NaN	213	4	24	2	121	221	321	NaN	521	0.178581932501402	1	1	NaN	264838.2835683	NaN	264839.2670856	264839.783612968
1	19	0	0	90	36.1581920903955	36.241610738255	7	0.233358328000177	2	10	6	NaN	2	3	0.0350874958816868	1	1	NaN	214	4	25	2	121	221	321	NaN	521	0.214716376678552	2	1	NaN	264840.7838164	NaN	264841.7673485	264842.283868323
1	19	0	0	90	36.1581920903955	36.241610738255	17	0.566727368000429	2	1	1	NaN	1	5	0.0350874958816868	1	1	NaN	215	4	26	2	121	221	321	NaN	521	0.280712499981746	1	1	NaN	264843.3173778	NaN	264844.3008929	264844.8174631
1	19	0	0	90	36.1581920903955	36.241610738255	16	0.533390464000404	2	5	1	NaN	1	3	0.0350874958816868	1	1	NaN	216	4	27	2	121	221	321	NaN	521	0.167020580614917	2	0	NaN	264846.1510866	NaN	264847.1345492	264847.651078519
1	19	0	0	90	36.1581920903955	36.241610738255	10	0.333369040000252	2	3	3	NaN	1	4	0.0350874958816868	1	1	NaN	217	4	28	2	121	221	321	NaN	521	0.227546592243016	1	1	NaN	264848.6345984	NaN	264849.6180858	264850.134659608
1	19	0	0	90	36.1581920903955	36.241610738255	0	0	1	7	3	NaN	2	4	0.0350874958816868	1	1	NaN	218	4	29	2	111	211	311	NaN	511	0.165284024667926	1	0	NaN	264851.1848492	NaN	264852.1683663	264852.684893375
1	19	0	0	90	36.1581920903955	36.241610738255	18	0.600064272000454	2	9	1	NaN	2	4	0.0350874958816868	1	1	NaN	219	4	30	2	121	221	321	NaN	521	0.193401276657823	2	1	NaN	264853.8852004	NaN	264854.8686326	264855.385149123
1	19	0	0	90	36.1581920903955	36.241610738255	12	0.400042848000303	2	2	5	NaN	1	5	0.0350874958816868	1	1	NaN	220	4	31	2	121	221	321	NaN	521	0.12255174422171	1	1	NaN	264856.4521044	NaN	264857.4355723	264857.952081856
1	19	0	0	90	36.1581920903955	36.241610738255	12	0.400042848000303	2	8	3	NaN	2	4	0.0350874958816868	1	1	NaN	221	4	32	2	121	221	321	NaN	521	0.369154776679352	2	1	NaN	264859.0691142	NaN	264860.0524717	264860.569003023
1	19	0	0	90	36.1581920903955	36.241610738255	25	0.833422600000631	2	3	2	NaN	1	4	0.0350874958816868	1	1	NaN	222	4	33	2	121	221	321	NaN	521	0.164876044145785	1	1	NaN	264861.7691535	NaN	264862.7527511	264863.269265656
1	19	0	0	90	36.1581920903955	36.241610738255	12	0.400042848000303	2	4	3	NaN	1	5	0.0350874958816868	1	1	NaN	223	4	34	2	121	221	321	NaN	521	0.217348676698748	1	1	NaN	264864.25292	NaN	264865.236282	264865.752838223
1	19	0	0	90	36.1581920903955	36.241610738255	20	0.666738080000505	2	1	6	NaN	1	5	0.0350874958816868	1	1	NaN	224	4	35	2	121	221	321	NaN	521	0.0838269286323339	1	1	NaN	264866.7864997	NaN	264867.7698873	264868.286427371
1	19	0	0	90	36.1581920903955	36.241610738255	22	0.733411888000555	2	3	6	NaN	1	5	0.0350874958816868	1	1	NaN	225	4	36	2	121	221	321	NaN	521	0.107749028597027	1	1	NaN	264869.1867277	NaN	264870.1701179	264870.686662771
1	19	0	0	90	36.1581920903955	36.241610738255	13	0.433379752000328	2	10	2	NaN	2	3	0.0350874958816868	1	1	NaN	226	4	37	2	121	221	321	NaN	521	0.0104064766783267	2	1	NaN	264871.6035025	NaN	264872.5870305	264873.103554923
1	19	0	0	90	36.1581920903955	36.241610738255	13	0.433379752000328	2	9	3	NaN	2	4	0.0350874958816868	1	1	NaN	227	4	38	2	121	221	321	NaN	521	0.170287044194993	2	1	NaN	264874.0038723	NaN	264874.9872706	264875.503796756
1	19	0	0	90	36.1581920903955	36.241610738255	19	0.63340117600048	2	3	2	NaN	1	3	0.0350874958816868	1	1	NaN	228	4	39	2	121	221	321	NaN	521	0.118943576700985	1	1	NaN	264876.487458	NaN	264877.470851	264877.987368723
1	19	0	0	90	36.1581920903955	36.241610738255	7	0.233358328000177	2	2	2	NaN	1	4	0.0350874958816868	1	1	NaN	229	4	40	2	121	221	321	NaN	521	0.229641180543695	1	1	NaN	264878.9210072	NaN	264879.9044091	264880.420958819
1	19	0	0	90	36.1581920903955	36.241610738255	13	0.433379752000328	2	9	3	NaN	2	5	0.0350874958816868	1	1	NaN	230	4	41	2	121	221	321	NaN	521	0.199779376678634	2	1	NaN	264881.4545049	NaN	264882.438	264882.954527923
1	19	0	0	90	36.1581920903955	36.241610738255	12	0.400042848000303	2	5	4	NaN	1	3	0.0350874958816868	1	1	NaN	231	4	42	2	121	221	321	NaN	521	0.234390276717022	1	1	NaN	264883.9881993	NaN	264884.9715836	264885.488109123
1	19	0	0	90	36.1581920903955	36.241610738255	11	0.366705944000278	2	12	2	NaN	2	4	0.0350874958816868	1	1	NaN	232	4	43	2	121	221	321	NaN	521	0.195763524679933	2	1	NaN	264886.5384256	NaN	264887.521834	264888.038357275
1	19	0	0	90	36.1581920903955	36.241610738255	19	0.63340117600048	2	6	4	NaN	1	4	0.0350874958816868	1	1	NaN	233	4	44	2	121	221	321	NaN	521	0.278887228574604	2	0	NaN	264889.0552389	NaN	264890.0387367	264890.555277271
1	19	0	0	90	36.1581920903955	36.241610738255	19	0.63340117600048	2	6	4	NaN	1	4	0.0350874958816868	1	1	NaN	234	4	45	2	121	221	321	NaN	521	0.0708172766608186	1	1	NaN	264891.6556078	NaN	264892.639003	264893.155536623
1	19	0	0	90	36.1581920903955	36.241610738255	10	0.333369040000252	2	12	4	NaN	2	3	0.0350874958816868	1	1	NaN	235	4	46	2	121	221	321	NaN	521	0.110377328586765	2	1	NaN	264894.25584	NaN	264895.239301	264895.755800471
1	19	0	0	90	36.1581920903955	36.241610738255	25	0.833422600000631	2	6	6	NaN	1	3	0.0350874958816868	1	1	NaN	236	4	47	2	121	221	321	NaN	521	0.205356028571259	1	1	NaN	264896.6894338	NaN	264897.6728337	264898.189395671
1	19	0	0	90	36.1581920903955	36.241610738255	12	0.400042848000303	2	9	5	NaN	2	3	0.0350874958816868	1	1	NaN	237	4	48	2	121	221	321	NaN	521	0.256259128567763	2	1	NaN	264899.2063216	NaN	264900.1897388	264900.706276071
1	19	0	0	90	36.1581920903955	36.241610738255	23	0.766748792000581	2	7	5	NaN	2	3	0.0350874958816868	1	1	NaN	238	4	49	2	121	221	321	NaN	521	0.248458976682741	2	1	NaN	264901.7899431	NaN	264902.7733345	264903.289872023
1	19	0	0	90	36.1581920903955	36.241610738255	19	0.63340117600048	2	5	2	NaN	1	5	0.0350874958816868	1	1	NaN	239	4	50	2	121	221	321	NaN	521	0.601631828583777	1	1	NaN	264904.3568359	NaN	264905.3402384	264905.856783971
1	19	0	0	90	36.1581920903955	36.241610738255	14	0.466716656000353	2	2	4	NaN	1	5	0.0350874958816868	1	1	NaN	240	4	51	2	121	221	321	NaN	521	0.21261922857957	2	0	NaN	264907.2738126	NaN	264908.2572262	264908.773748771
1	19	0	0	90	36.1581920903955	36.241610738255	22	0.733411888000555	2	1	3	NaN	1	5	0.0350874958816868	1	1	NaN	241	4	52	2	121	221	321	NaN	521	0.743424528627656	1	1	NaN	264909.8073903	NaN	264910.7907662	264911.307327571
1	19	0	0	90	36.1581920903955	36.241610738255	16	0.533390464000404	2	10	5	NaN	2	4	0.0350874958816868	1	1	NaN	242	4	53	2	121	221	321	NaN	521	0.404026576667093	2	1	NaN	264912.8743384	NaN	264913.8576358	264914.374294823
1	19	0	0	90	36.1581920903955	36.241610738255	15	0.500053560000379	2	7	6	NaN	2	4	0.0350874958816868	1	1	NaN	243	4	54	2	121	221	321	NaN	521	0.223469628603198	2	1	NaN	264915.5912963	NaN	264916.5746632	264917.091227471
1	19	0	0	90	36.1581920903955	36.241610738255	6	0.200021424000151	2	12	2	NaN	2	5	0.0350874958816868	1	1	NaN	244	4	55	2	121	221	321	NaN	521	0.401208288269117	2	1	NaN	264918.1415404	NaN	264919.1249802	264919.641474612
1	19	0	0	90	36.1581920903955	36.241610738255	15	0.500053560000379	2	7	1	NaN	2	4	0.0350874958816868	1	1	NaN	245	4	56	2	121	221	321	NaN	521	0.203177228569984	2	1	NaN	264920.8751531	NaN	264921.8585655	264922.375084871
1	19	0	0	90	36.1581920903955	36.241610738255	19	0.63340117600048	2	4	3	NaN	1	5	0.0350874958816868	1	1	NaN	246	4	57	2	121	221	321	NaN	521	0.22993317671353	1	1	NaN	264923.4087095	NaN	264924.3921353	264924.908660123
1	19	0	0	90	36.1581920903955	36.241610738255	22	0.733411888000555	2	2	6	NaN	1	3	0.0350874958816868	1	1	NaN	247	4	58	2	121	221	321	NaN	521	0.239196580543648	1	1	NaN	264925.9589734	NaN	264926.94238	264927.458910319
1	19	0	0	90	36.1581920903955	36.241610738255	8	0.266695232000202	2	1	5	NaN	1	4	0.0350874958816868	1	1	NaN	248	4	59	2	121	221	321	NaN	521	0.224982728599571	2	0	NaN	264928.5092107	NaN	264929.4926346	264930.009162371
1	19	0	0	90	36.1581920903955	36.241610738255	0	0	1	9	3	NaN	2	5	0.0350874958816868	1	1	NaN	249	4	60	2	111	211	311	NaN	511	0.242823628592305	2	1	NaN	264931.0594859	NaN	264932.0428814	264932.559417271
1	19	0	0	90	36.1581920903955	36.241610738255	20	0.666738080000505	2	6	3	NaN	1	3	0.0350874958816868	1	1	NaN	250	4	61	2	121	221	321	NaN	521	0.228031976672355	1	1	NaN	264933.6263828	NaN	264934.6097828	264935.126325423
1	19	0	0	90	36.1581920903955	36.241610738255	20	0.666738080000505	2	5	6	NaN	1	5	0.0350874958816868	1	1	NaN	251	4	62	2	121	221	321	NaN	521	0.174177028588019	1	1	NaN	264936.1766361	NaN	264937.1599234	264937.676580271
1	19	0	0	90	36.1581920903955	36.241610738255	25	0.833422600000631	2	5	6	NaN	1	3	0.0350874958816868	1	1	NaN	252	4	63	2	121	221	321	NaN	521	0.225458476692438	1	1	NaN	264938.6768908	NaN	264939.6602927	264940.176835323
1	19	0	0	90	36.1581920903955	36.241610738255	9	0.300032136000227	2	11	1	NaN	2	3	0.0350874958816868	1	1	NaN	253	5	1	2	121	221	321	NaN	521	0.242698128626216	2	1	NaN	264944.844044	NaN	264945.8275843	264946.344114271
1	19	0	0	90	36.1581920903955	36.241610738255	18	0.600064272000454	2	11	5	NaN	2	3	0.0350874958816868	1	1	NaN	254	5	2	2	121	221	321	NaN	521	1.08390752860578	2	1	NaN	264947.3943716	NaN	264948.3778193	264948.894357571
1	19	0	0	90	36.1581920903955	36.241610738255	24	0.800085696000606	2	10	6	NaN	2	4	0.0350874958816868	1	1	NaN	255	5	3	2	121	221	321	NaN	521	0.547643976693507	2	1	NaN	264950.7947314	NaN	264951.7781601	264952.294683223
1	19	0	0	90	36.1581920903955	36.241610738255	7	0.233358328000177	2	7	4	NaN	2	4	0.0350874958816868	1	1	NaN	256	5	4	2	121	221	321	NaN	521	0.24079907668056	2	1	NaN	264953.6617328	NaN	264954.6450951	264955.161633723
1	19	0	0	90	36.1581920903955	36.241610738255	14	0.466716656000353	2	10	4	NaN	2	5	0.0350874958816868	1	1	NaN	257	5	5	2	121	221	321	NaN	521	0.218801228620578	2	1	NaN	264956.2119642	NaN	264957.1953646	264957.711891371
1	19	0	0	90	36.1581920903955	36.241610738255	6	0.200021424000151	2	4	4	NaN	1	3	0.0350874958816868	1	1	NaN	258	5	6	2	121	221	321	NaN	521	0.251981884473935	1	1	NaN	264958.9621986	NaN	264959.9456352	264960.462166016
1	19	0	0	90	36.1581920903955	36.241610738255	20	0.666738080000505	2	9	2	NaN	2	3	0.0350874958816868	1	1	NaN	259	5	7	2	121	221	321	NaN	521	0.204495128593408	2	1	NaN	264961.5458359	NaN	264962.5291321	264963.045753071
1	19	0	0	90	36.1581920903955	36.241610738255	7	0.233358328000177	2	4	6	NaN	1	3	0.0350874958816868	1	1	NaN	260	5	8	2	121	221	321	NaN	521	0.191426728561055	1	1	NaN	264964.0793934	NaN	264965.0627032	264965.579325271
1	19	0	0	90	36.1581920903955	36.241610738255	21	0.70007498400053	2	3	3	NaN	1	5	0.0350874958816868	1	1	NaN	261	5	9	2	121	221	321	NaN	521	0.0580963766551577	1	1	NaN	264966.5962905	NaN	264967.5797496	264968.096240823
1	19	0	0	90	36.1581920903955	36.241610738255	15	0.500053560000379	2	8	5	NaN	2	4	0.0350874958816868	1	1	NaN	262	5	10	2	121	221	321	NaN	521	0.17847992858151	2	1	NaN	264968.979877	NaN	264969.9633055	264970.479831271
1	19	0	0	90	36.1581920903955	36.241610738255	15	0.500053560000379	2	12	4	NaN	2	3	0.0350874958816868	1	1	NaN	263	5	11	2	121	221	321	NaN	521	0.118576144217514	2	1	NaN	264971.4801242	NaN	264972.4635253	264972.980067256
1	19	0	0	90	36.1581920903955	36.241610738255	10	0.333369040000252	2	1	1	NaN	1	5	0.0350874958816868	1	1	NaN	264	5	12	2	121	221	321	NaN	521	0.632728872762527	2	0	NaN	264974.2136003	NaN	264975.1971469	264975.713654827
1	19	0	0	90	36.1581920903955	36.241610738255	25	0.833422600000631	2	6	3	NaN	1	4	0.0350874958816868	1	1	NaN	265	5	13	2	121	221	321	NaN	521	0.226273676671553	1	1	NaN	264977.1639986	NaN	264978.1474501	264978.663943823
1	19	0	0	90	36.1581920903955	36.241610738255	23	0.766748792000581	2	3	1	NaN	1	3	0.0350874958816868	1	1	NaN	266	5	14	2	121	221	321	NaN	521	0.21212932857452	2	0	NaN	264979.7142533	NaN	264980.6976448	264981.214206171
1	19	0	0	90	36.1581920903955	36.241610738255	17	0.566727368000429	2	12	2	NaN	2	4	0.0350874958816868	1	1	NaN	267	5	15	2	121	221	321	NaN	521	0.0947093286085874	2	1	NaN	264982.2478462	NaN	264983.2312423	264983.747789871
1	19	0	0	90	36.1581920903955	36.241610738255	21	0.70007498400053	2	6	5	NaN	1	4	0.0350874958816868	1	1	NaN	268	5	16	2	121	221	321	NaN	521	0.010463576647453	2	0	NaN	264984.6647475	NaN	264985.6481508	264986.164680523
1	19	0	0	90	36.1581920903955	36.241610738255	14	0.466716656000353	2	5	4	NaN	1	5	0.0350874958816868	1	1	NaN	269	5	17	2	121	221	321	NaN	521	0.264166544191539	1	1	NaN	264986.9983255	NaN	264987.9817188	264988.498266056
1	19	0	0	90	36.1581920903955	36.241610738255	24	0.800085696000606	2	5	5	NaN	1	5	0.0350874958816868	1	1	NaN	270	5	18	2	121	221	321	NaN	521	0.136632428620942	1	1	NaN	264989.5818865	NaN	264990.5652871	264991.081844071
1	19	0	0	90	36.1581920903955	36.241610738255	16	0.533390464000404	2	11	3	NaN	2	3	0.0350874958816868	1	1	NaN	271	5	19	2	121	221	321	NaN	521	0.414261428581085	2	1	NaN	264992.0321512	NaN	264993.0155306	264993.532103371
1	19	0	0	90	36.1581920903955	36.241610738255	14	0.466716656000353	2	4	2	NaN	1	4	0.0350874958816868	1	1	NaN	272	5	20	2	121	221	321	NaN	521	0.169851872778963	1	1	NaN	264994.7490713	NaN	264995.7324656	264996.249021027
1	19	0	0	90	36.1581920903955	36.241610738255	6	0.200021424000151	2	10	4	NaN	2	4	0.0350874958816868	1	1	NaN	273	5	21	2	121	221	321	NaN	521	0.17428312858101	2	1	NaN	264997.2324909	NaN	264998.2160746	264998.732590071
1	19	0	0	90	36.1581920903955	36.241610738255	12	0.400042848000303	2	9	5	NaN	2	4	0.0350874958816868	1	1	NaN	274	5	22	2	121	221	321	NaN	521	0.217704832437448	2	1	NaN	264999.9328998	NaN	265000.9163231	265001.432861968
1	19	0	0	90	36.1581920903955	36.241610738255	21	0.70007498400053	2	5	3	NaN	1	5	0.0350874958816868	1	1	NaN	275	5	23	2	121	221	321	NaN	521	0.147152432473376	2	0	NaN	265002.4831616	NaN	265003.4665676	265003.983118768
1	19	0	0	90	36.1581920903955	36.241610738255	23	0.766748792000581	2	9	5	NaN	2	3	0.0350874958816868	1	1	NaN	276	5	24	2	121	221	321	NaN	521	0.267531740246341	2	1	NaN	265005.0660644	NaN	265006.0501282	265006.56669896
1	19	0	0	90	36.1581920903955	36.241610738255	22	0.733411888000555	2	5	2	NaN	1	3	0.0350874958816868	1	1	NaN	277	5	25	2	121	221	321	NaN	521	0.116250376682729	1	1	NaN	265007.650341	NaN	265008.6337542	265009.150277023
1	19	0	0	90	36.1581920903955	36.241610738255	17	0.566727368000429	2	6	5	NaN	1	4	0.0350874958816868	1	1	NaN	278	5	26	2	121	221	321	NaN	521	0.177821744175162	1	1	NaN	265010.3004938	NaN	265011.2840073	265011.800547056
1	19	0	0	90	36.1581920903955	36.241610738255	8	0.266695232000202	2	2	4	NaN	1	5	0.0350874958816868	1	1	NaN	279	5	27	2	121	221	321	NaN	521	0.229607728600968	1	1	NaN	265012.8009187	NaN	265013.7842579	265014.300788871
1	19	0	0	90	36.1581920903955	36.241610738255	16	0.533390464000404	2	10	3	NaN	2	5	0.0350874958816868	1	1	NaN	280	5	28	2	121	221	321	NaN	521	0.311293028586078	2	1	NaN	265015.3511095	NaN	265016.3344872	265016.851049571
1	19	0	0	90	36.1581920903955	36.241610738255	9	0.300032136000227	2	8	5	NaN	2	4	0.0350874958816868	1	1	NaN	281	5	29	2	121	221	321	NaN	521	0.662196040269919	2	1	NaN	265017.9846989	NaN	265018.9681267	265019.48463406
1	19	0	0	90	36.1581920903955	36.241610738255	9	0.300032136000227	2	6	5	NaN	1	3	0.0350874958816868	1	1	NaN	282	5	30	2	121	221	321	NaN	521	0.23035487276502	1	1	NaN	265020.9681706	NaN	265021.9517045	265022.468260627
1	19	0	0	90	36.1581920903955	36.241610738255	20	0.666738080000505	2	10	5	NaN	2	4	0.0350874958816868	1	1	NaN	283	5	31	2	121	221	321	NaN	521	0.232022684474941	2	1	NaN	265023.5185877	NaN	265024.5018781	265025.018520316
1	19	0	0	90	36.1581920903955	36.241610738255	24	0.800085696000606	2	8	6	NaN	2	3	0.0350874958816868	1	1	NaN	284	5	32	2	121	221	321	NaN	521	0.202161476656329	2	1	NaN	265026.0688464	NaN	265027.0522159	265027.568759623
1	19	0	0	90	36.1581920903955	36.241610738255	9	0.300032136000227	2	11	2	NaN	2	5	0.0350874958816868	1	1	NaN	285	5	33	2	121	221	321	NaN	521	0.708626528619789	1	0	NaN	265028.5857432	NaN	265029.5691487	265030.085680871
1	19	0	0	90	36.1581920903955	36.241610738255	24	0.800085696000606	2	12	6	NaN	2	4	0.0350874958816868	1	1	NaN	286	5	34	2	121	221	321	NaN	521	0.171128924703225	2	1	NaN	265031.6192642	NaN	265032.6027866	265033.119306875
1	19	0	0	90	36.1581920903955	36.241610738255	20	0.666738080000505	2	4	2	NaN	1	3	0.0350874958816868	1	1	NaN	287	5	35	2	121	221	321	NaN	521	0.188196780567523	1	1	NaN	265034.1863183	NaN	265035.169722	265035.686235719
1	19	0	0	90	36.1581920903955	36.241610738255	14	0.466716656000353	2	5	1	NaN	1	5	0.0350874958816868	1	1	NaN	288	5	36	2	121	221	321	NaN	521	0.0741099286242388	2	0	NaN	265036.8364296	NaN	265037.8199298	265038.336484771
1	19	0	0	90	36.1581920903955	36.241610738255	22	0.733411888000555	2	6	2	NaN	1	4	0.0350874958816868	1	1	NaN	289	5	37	2	121	221	321	NaN	521	0.0491302766604349	1	1	NaN	265039.2534816	NaN	265040.2368706	265040.753391723
1	19	0	0	90	36.1581920903955	36.241610738255	10	0.333369040000252	2	5	5	NaN	1	5	0.0350874958816868	1	1	NaN	290	5	38	2	121	221	321	NaN	521	0.0103889285819605	1	1	NaN	265041.9870482	NaN	265042.9704582	265043.486997871
1	19	0	0	90	36.1581920903955	36.241610738255	24	0.800085696000606	2	7	2	NaN	2	5	0.0350874958816868	1	1	NaN	291	5	39	2	121	221	321	NaN	521	0.157879124686588	2	1	NaN	265044.3206166	NaN	265045.3040276	265045.820554475
1	19	0	0	90	36.1581920903955	36.241610738255	22	0.733411888000555	2	5	4	NaN	1	5	0.0350874958816868	1	1	NaN	292	5	40	2	121	221	321	NaN	521	0.674312028568238	1	1	NaN	265046.8041939	NaN	265047.7875952	265048.304138771
1	19	0	0	90	36.1581920903955	36.241610738255	19	0.63340117600048	2	7	3	NaN	2	4	0.0350874958816868	1	1	NaN	293	5	41	2	121	221	321	NaN	521	0.242156776716001	2	1	NaN	265049.8045025	NaN	265050.7878927	265051.304429823
1	19	0	0	90	36.1581920903955	36.241610738255	15	0.500053560000379	2	1	4	NaN	1	5	0.0350874958816868	1	1	NaN	294	5	42	2	121	221	321	NaN	521	0.211699324718211	1	1	NaN	265052.3547362	NaN	265053.3380452	265053.854678575
1	19	0	0	90	36.1581920903955	36.241610738255	20	0.666738080000505	2	9	2	NaN	2	5	0.0350874958816868	1	1	NaN	295	5	43	2	121	221	321	NaN	521	0.15961912862258	2	1	NaN	265055.2549884	NaN	265056.2384396	265056.754966771
1	19	0	0	90	36.1581920903955	36.241610738255	17	0.566727368000429	2	3	2	NaN	1	5	0.0350874958816868	1	1	NaN	296	5	44	2	121	221	321	NaN	521	0.148372028605081	1	1	NaN	265057.7386134	NaN	265058.7220077	265059.238559771
1	19	0	0	90	36.1581920903955	36.241610738255	17	0.566727368000429	2	11	2	NaN	2	3	0.0350874958816868	1	1	NaN	297	5	45	2	121	221	321	NaN	521	0.337342128623277	2	1	NaN	265060.2055139	NaN	265061.1888196	265061.705466371
1	19	0	0	90	36.1581920903955	36.241610738255	18	0.600064272000454	2	12	2	NaN	2	5	0.0350874958816868	1	1	NaN	298	5	46	2	121	221	321	NaN	521	0.230655128601938	2	1	NaN	265062.8557739	NaN	265063.8391585	265064.355717871
1	19	0	0	90	36.1581920903955	36.241610738255	11	0.366705944000278	2	6	5	NaN	1	3	0.0350874958816868	1	1	NaN	299	5	47	2	121	221	321	NaN	521	0.0725479766842909	2	0	NaN	265065.4060466	NaN	265066.3894203	265066.905967623
1	19	0	0	90	36.1581920903955	36.241610738255	6	0.200021424000151	2	11	6	NaN	2	3	0.0350874958816868	1	1	NaN	300	5	48	2	121	221	321	NaN	521	0.164039328577928	2	1	NaN	265067.9229012	NaN	265068.9062697	265069.422876671
1	19	0	0	90	36.1581920903955	36.241610738255	6	0.200021424000151	2	7	5	NaN	2	4	0.0350874958816868	1	1	NaN	301	5	49	2	121	221	321	NaN	521	0.0562924285768531	2	1	NaN	265070.4064971	NaN	265071.3899286	265071.906463171
1	19	0	0	90	36.1581920903955	36.241610738255	7	0.233358328000177	2	12	4	NaN	2	3	0.0350874958816868	1	1	NaN	302	5	50	2	121	221	321	NaN	521	0.136439068883192	2	1	NaN	265072.7901972	NaN	265073.7734485	265074.290026031
1	19	0	0	90	36.1581920903955	36.241610738255	15	0.500053560000379	2	6	4	NaN	1	3	0.0350874958816868	1	1	NaN	303	5	51	2	121	221	321	NaN	521	0.102195628627669	1	1	NaN	265075.2403047	NaN	265076.2237445	265076.740266271
1	19	0	0	90	36.1581920903955	36.241610738255	19	0.63340117600048	2	12	4	NaN	2	3	0.0350874958816868	1	1	NaN	304	5	52	2	121	221	321	NaN	521	0.133482092234772	2	1	NaN	265077.6572371	NaN	265078.640635	265079.157180508
1	19	0	0	90	36.1581920903955	36.241610738255	9	0.300032136000227	2	6	6	NaN	1	5	0.0350874958816868	1	1	NaN	305	5	53	2	121	221	321	NaN	521	0.0832391767180525	1	1	NaN	265080.1074985	NaN	265081.0908844	265081.607413623
1	19	0	0	90	36.1581920903955	36.241610738255	12	0.400042848000303	2	6	4	NaN	1	5	0.0350874958816868	1	1	NaN	306	5	54	2	121	221	321	NaN	521	0.0349366441951133	1	1	NaN	265082.5077392	NaN	265083.491148	265084.007651356
1	19	0	0	90	36.1581920903955	36.241610738255	20	0.666738080000505	2	11	1	NaN	2	3	0.0350874958816868	1	1	NaN	307	5	55	2	121	221	321	NaN	521	0.284618076693732	1	0	NaN	265084.8579454	NaN	265085.8413504	265086.357882123
1	19	0	0	90	36.1581920903955	36.241610738255	7	0.233358328000177	2	6	2	NaN	1	5	0.0350874958816868	1	1	NaN	308	5	56	2	121	221	321	NaN	521	0.0802041285787709	2	0	NaN	265087.5580749	NaN	265088.5416203	265089.058149271
1	19	0	0	90	36.1581920903955	36.241610738255	20	0.666738080000505	2	8	2	NaN	2	4	0.0350874958816868	1	1	NaN	309	5	57	2	121	221	321	NaN	521	0.120160476712044	2	1	NaN	265089.958461	NaN	265090.9418528	265091.458379423
1	19	0	0	90	36.1581920903955	36.241610738255	6	0.200021424000151	2	12	6	NaN	2	5	0.0350874958816868	1	1	NaN	310	5	58	2	121	221	321	NaN	521	1.04656172858085	2	1	NaN	265092.3918751	NaN	265093.3754017	265093.891952871
1	19	0	0	90	36.1581920903955	36.241610738255	18	0.600064272000454	2	3	1	NaN	1	3	0.0350874958816868	1	1	NaN	311	5	59	2	121	221	321	NaN	521	0.0554506766493432	1	1	NaN	265095.7589972	NaN	265096.7424084	265097.258944423
1	19	0	0	90	36.1581920903955	36.241610738255	10	0.333369040000252	2	5	6	NaN	1	5	0.0350874958816868	1	1	NaN	312	5	60	2	121	221	321	NaN	521	0.0800565805402584	1	1	NaN	265098.1424522	NaN	265099.125963	265099.642521819
1	19	0	0	90	36.1581920903955	36.241610738255	8	0.266695232000202	2	3	2	NaN	1	4	0.0350874958816868	1	1	NaN	313	5	61	2	121	221	321	NaN	521	0.311674528638832	1	1	NaN	265100.5427961	NaN	265101.5262433	265102.042764571
1	19	0	0	90	36.1581920903955	36.241610738255	10	0.333369040000252	2	12	5	NaN	2	5	0.0350874958816868	1	1	NaN	314	5	62	2	121	221	321	NaN	521	0.286568876705132	2	1	NaN	265103.1764228	NaN	265104.1597974	265104.676341823
1	19	0	0	90	36.1581920903955	36.241610738255	25	0.833422600000631	2	2	5	NaN	1	3	0.0350874958816868	1	1	NaN	315	5	63	2	121	221	321	NaN	521	0.358401028555818	1	1	NaN	265105.7764841	NaN	265106.7600729	265107.276611671
1	19	0	0	90	36.1581920903955	36.241610738255	11	0.366705944000278	2	5	6	NaN	1	3	0.0350874958816868	1	1	NaN	316	6	1	2	121	221	321	NaN	521	0.237961140286643	1	1	NaN	265113.1606953	NaN	265114.1441154	265114.66066966
1	19	0	0	90	36.1581920903955	36.241610738255	10	0.333369040000252	2	4	5	NaN	1	5	0.0350874958816868	1	1	NaN	317	6	2	2	121	221	321	NaN	521	0.439842776686419	1	1	NaN	265115.7109598	NaN	265116.6943789	265117.210920223
1	19	0	0	90	36.1581920903955	36.241610738255	13	0.433379752000328	2	5	3	NaN	1	3	0.0350874958816868	1	1	NaN	318	6	3	2	121	221	321	NaN	521	0.248698976705782	1	1	NaN	265118.4779373	NaN	265119.4613236	265119.977848723
1	19	0	0	90	36.1581920903955	36.241610738255	21	0.70007498400053	2	9	4	NaN	2	3	0.0350874958816868	1	1	NaN	319	6	4	2	121	221	321	NaN	521	0.121898832498118	2	1	NaN	265121.0448381	NaN	265122.0282255	265122.544780568
1	19	0	0	90	36.1581920903955	36.241610738255	6	0.200021424000151	2	1	5	NaN	1	4	0.0350874958816868	1	1	NaN	320	6	5	2	121	221	321	NaN	521	0.216687276726589	1	1	NaN	265123.4783721	NaN	265124.4618207	265124.978338323
1	19	0	0	90	36.1581920903955	36.241610738255	8	0.266695232000202	2	7	5	NaN	2	4	0.0350874958816868	1	1	NaN	321	6	6	2	121	221	321	NaN	521	0.226973528566305	2	1	NaN	265126.0119135	NaN	265126.9953884	265127.511931471
1	19	0	0	90	36.1581920903955	36.241610738255	10	0.333369040000252	2	4	5	NaN	1	5	0.0350874958816868	1	1	NaN	322	6	7	2	121	221	321	NaN	521	0.220528176694643	1	1	NaN	265128.5622532	NaN	265129.5456371	265130.062176023
1	19	0	0	90	36.1581920903955	36.241610738255	14	0.466716656000353	2	6	6	NaN	1	5	0.0350874958816868	1	1	NaN	323	6	8	2	121	221	321	NaN	521	0.246937844203785	1	1	NaN	265131.0958284	NaN	265132.0792101	265132.595765956
1	19	0	0	90	36.1581920903955	36.241610738255	19	0.63340117600048	2	11	3	NaN	2	3	0.0350874958816868	1	1	NaN	324	6	9	2	121	221	321	NaN	521	0.263905528583564	2	1	NaN	265133.6626988	NaN	265134.6461545	265135.162686871
1	19	0	0	90	36.1581920903955	36.241610738255	7	0.233358328000177	2	4	4	NaN	1	3	0.0350874958816868	1	1	NaN	325	6	10	2	121	221	321	NaN	521	0.186996728589293	1	1	NaN	265136.37967	NaN	265137.3630816	265137.879619071
1	19	0	0	90	36.1581920903955	36.241610738255	21	0.70007498400053	2	6	1	NaN	1	4	0.0350874958816868	1	1	NaN	326	6	11	2	121	221	321	NaN	521	0.0395420247223228	1	1	NaN	265139.063236	NaN	265140.0466895	265140.563222175
1	19	0	0	90	36.1581920903955	36.241610738255	23	0.766748792000581	2	4	5	NaN	1	5	0.0350874958816868	1	1	NaN	327	6	12	2	121	221	321	NaN	521	0.136162276670802	1	1	NaN	265141.446826	NaN	265142.4302425	265142.946772623
1	19	0	0	90	36.1581920903955	36.241610738255	17	0.566727368000429	2	11	3	NaN	2	5	0.0350874958816868	1	1	NaN	328	6	13	2	121	221	321	NaN	521	0.0135991766583174	2	1	NaN	265143.8971105	NaN	265144.8805026	265145.397028723
1	19	0	0	90	36.1581920903955	36.241610738255	15	0.500053560000379	2	4	5	NaN	1	3	0.0350874958816868	1	1	NaN	329	6	14	2	121	221	321	NaN	521	0.677255696093198	1	1	NaN	265146.4972162	NaN	265147.4807455	265147.997291204
1	19	0	0	90	36.1581920903955	36.241610738255	16	0.533390464000404	2	2	6	NaN	1	3	0.0350874958816868	1	1	NaN	330	6	15	2	121	221	321	NaN	521	0.2061826766585	1	1	NaN	265149.4809535	NaN	265150.4643631	265150.980896623
1	19	0	0	90	36.1581920903955	36.241610738255	14	0.466716656000353	2	11	4	NaN	2	5	0.0350874958816868	1	1	NaN	331	6	16	2	121	221	321	NaN	521	0.377108192245942	2	1	NaN	265151.9979126	NaN	265152.981296	265153.497826108
1	19	0	0	90	36.1581920903955	36.241610738255	19	0.63340117600048	2	4	1	NaN	1	5	0.0350874958816868	1	1	NaN	332	6	17	2	121	221	321	NaN	521	0.148903620836791	1	1	NaN	265154.6981292	NaN	265155.6815592	265156.198084779
1	19	0	0	90	36.1581920903955	36.241610738255	15	0.500053560000379	2	4	1	NaN	1	3	0.0350874958816868	1	1	NaN	333	6	18	2	121	221	321	NaN	521	0.229361276666168	1	1	NaN	265157.4817602	NaN	265158.4651516	265158.981683923
1	19	0	0	90	36.1581920903955	36.241610738255	13	0.433379752000328	2	11	2	NaN	2	4	0.0350874958816868	1	1	NaN	334	6	19	2	121	221	321	NaN	521	0.223153140279464	2	1	NaN	265160.0320138	NaN	265161.0154397	265161.53194066
1	19	0	0	90	36.1581920903955	36.241610738255	11	0.366705944000278	2	11	4	NaN	2	4	0.0350874958816868	1	1	NaN	335	6	20	2	121	221	321	NaN	521	0.0405673805507831	2	1	NaN	265162.5822368	NaN	265163.5656549	265164.082192519
1	19	0	0	90	36.1581920903955	36.241610738255	9	0.300032136000227	2	3	3	NaN	1	3	0.0350874958816868	1	1	NaN	336	6	21	2	121	221	321	NaN	521	0.825571736379061	1	1	NaN	265164.9491345	NaN	265165.9325524	265166.449089864
1	19	0	0	90	36.1581920903955	36.241610738255	10	0.333369040000252	2	9	4	NaN	2	5	0.0350874958816868	1	1	NaN	337	6	22	2	121	221	321	NaN	521	0.259708928584587	2	1	NaN	265168.0828162	NaN	265169.0661979	265169.582764171
1	19	0	0	90	36.1581920903955	36.241610738255	19	0.63340117600048	2	9	2	NaN	2	4	0.0350874958816868	1	1	NaN	338	6	23	2	121	221	321	NaN	521	0.14024077670183	2	1	NaN	265170.666261	NaN	265171.6497785	265172.166313923
1	19	0	0	90	36.1581920903955	36.241610738255	13	0.433379752000328	2	3	3	NaN	1	4	0.0350874958816868	1	1	NaN	339	6	24	2	121	221	321	NaN	521	0.2472563922056	1	1	NaN	265173.1832838	NaN	265174.1667053	265174.683235008
1	19	0	0	90	36.1581920903955	36.241610738255	9	0.300032136000227	2	3	5	NaN	1	3	0.0350874958816868	1	1	NaN	340	6	25	2	121	221	321	NaN	521	0.229131876665633	1	1	NaN	265175.8335962	NaN	265176.8169811	265177.333489123
1	19	0	0	90	36.1581920903955	36.241610738255	24	0.800085696000606	2	3	5	NaN	1	4	0.0350874958816868	1	1	NaN	341	6	26	2	121	221	321	NaN	521	0.192246040329337	1	1	NaN	265178.5505085	NaN	265179.5339559	265180.05044036
1	19	0	0	90	36.1581920903955	36.241610738255	13	0.433379752000328	2	4	5	NaN	1	4	0.0350874958816868	1	1	NaN	342	6	27	2	121	221	321	NaN	521	0.14129207667429	1	1	NaN	265181.2174112	NaN	265182.2008104	265182.717367823
1	19	0	0	90	36.1581920903955	36.241610738255	12	0.400042848000303	2	7	6	NaN	2	4	0.0350874958816868	1	1	NaN	343	6	28	2	121	221	321	NaN	521	0.194506713072769	2	1	NaN	265183.6843219	NaN	265184.6677189	265185.184256487
1	19	0	0	90	36.1581920903955	36.241610738255	10	0.333369040000252	2	8	4	NaN	2	3	0.0350874958816868	1	1	NaN	344	6	29	2	121	221	321	NaN	521	0.277550876664463	2	1	NaN	265186.2012421	NaN	265187.1846603	265187.701180923
1	19	0	0	90	36.1581920903955	36.241610738255	0	0	1	5	2	NaN	1	4	0.0350874958816868	1	1	NaN	345	6	30	2	111	211	311	NaN	511	0.293677880545147	1	1	NaN	265188.8015146	NaN	265189.7849133	265190.301444619
1	19	0	0	90	36.1581920903955	36.241610738255	0	0	1	4	3	NaN	1	4	0.0350874958816868	1	1	NaN	346	6	31	2	111	211	311	NaN	511	0.276727372780442	1	1	NaN	265191.4184072	NaN	265192.4018251	265192.918366727
1	19	0	0	90	36.1581920903955	36.241610738255	24	0.800085696000606	2	2	5	NaN	1	3	0.0350874958816868	1	1	NaN	347	6	32	2	121	221	321	NaN	521	0.30523828061996	1	1	NaN	265194.0853413	NaN	265195.0687386	265195.585290819
1	19	0	0	90	36.1581920903955	36.241610738255	17	0.566727368000429	2	5	2	NaN	1	4	0.0350874958816868	1	1	NaN	348	6	33	2	121	221	321	NaN	521	0.351668124669231	1	1	NaN	265196.7189284	NaN	265197.7023379	265198.218885975
1	19	0	0	90	36.1581920903955	36.241610738255	15	0.500053560000379	2	8	3	NaN	2	4	0.0350874958816868	1	1	NaN	349	6	34	2	121	221	321	NaN	521	0.572863428562414	2	1	NaN	265199.3857521	NaN	265200.3692958	265200.885817871
1	19	0	0	90	36.1581920903955	36.241610738255	19	0.63340117600048	2	12	4	NaN	2	4	0.0350874958816868	1	1	NaN	350	6	35	2	121	221	321	NaN	521	0.20854837668594	2	1	NaN	265202.286026	NaN	265203.2695681	265203.786092823
1	19	0	0	90	36.1581920903955	36.241610738255	14	0.466716656000353	2	4	6	NaN	1	5	0.0350874958816868	1	1	NaN	351	6	36	2	121	221	321	NaN	521	0.371531576674897	2	0	NaN	265204.803111	NaN	265205.7865207	265206.303012523
1	19	0	0	90	36.1581920903955	36.241610738255	20	0.666738080000505	2	5	5	NaN	1	3	0.0350874958816868	1	1	NaN	352	6	37	2	121	221	321	NaN	521	0.104017876728904	2	0	NaN	265207.4866521	NaN	265208.4700869	265208.986609223
1	19	0	0	90	36.1581920903955	36.241610738255	8	0.266695232000202	2	6	2	NaN	1	3	0.0350874958816868	1	1	NaN	353	6	38	2	121	221	321	NaN	521	0.0105035728192888	1	1	NaN	265209.9035668	NaN	265210.8869624	265211.403515527
1	19	0	0	90	36.1581920903955	36.241610738255	16	0.533390464000404	2	8	4	NaN	2	5	0.0350874958816868	1	1	NaN	354	6	39	2	121	221	321	NaN	521	0.0736672766506672	2	1	NaN	265212.2371365	NaN	265213.2205685	265213.737071023
1	19	0	0	90	36.1581920903955	36.241610738255	22	0.733411888000555	2	7	3	NaN	2	3	0.0350874958816868	1	1	NaN	355	6	40	2	121	221	321	NaN	521	0.233896576624829	2	1	NaN	265214.6373232	NaN	265215.6207516	265216.137308323
1	19	0	0	90	36.1581920903955	36.241610738255	8	0.266695232000202	2	8	5	NaN	2	3	0.0350874958816868	1	1	NaN	356	6	41	2	121	221	321	NaN	521	0.0104234766913578	2	1	NaN	265217.1876162	NaN	265218.1710449	265218.687559423
1	19	0	0	90	36.1581920903955	36.241610738255	22	0.733411888000555	2	6	3	NaN	1	5	0.0350874958816868	1	1	NaN	357	6	42	2	121	221	321	NaN	521	0.021011128614191	1	1	NaN	265219.5378443	NaN	265220.5212616	265221.037796571
1	19	0	0	90	36.1581920903955	36.241610738255	18	0.600064272000454	2	8	4	NaN	2	3	0.0350874958816868	1	1	NaN	358	6	43	2	121	221	321	NaN	521	0.121661276672967	2	1	NaN	265222.0214158	NaN	265223.0048511	265223.521376423
1	19	0	0	90	36.1581920903955	36.241610738255	24	0.800085696000606	2	9	6	NaN	2	3	0.0350874958816868	1	1	NaN	359	6	44	2	121	221	321	NaN	521	0.168270076683257	2	1	NaN	265224.4550088	NaN	265225.4384456	265225.954948523
1	19	0	0	90	36.1581920903955	36.241610738255	22	0.733411888000555	2	4	5	NaN	1	3	0.0350874958816868	1	1	NaN	360	6	45	2	121	221	321	NaN	521	0.572215676656924	2	0	NaN	265226.9386106	NaN	265227.9220044	265228.438518123
1	19	0	0	90	36.1581920903955	36.241610738255	0	0	1	12	1	NaN	2	3	0.0350874958816868	1	1	NaN	361	6	46	2	111	211	311	NaN	511	0.216020772815682	2	1	NaN	265229.8388808	NaN	265230.8222998	265231.338800227
1	19	0	0	90	36.1581920903955	36.241610738255	6	0.200021424000151	2	2	1	NaN	1	4	0.0350874958816868	1	1	NaN	362	6	47	2	121	221	321	NaN	521	0.0989415246876888	1	1	NaN	265232.355856	NaN	265233.3391787	265233.855722175
1	19	0	0	90	36.1581920903955	36.241610738255	7	0.233358328000177	2	7	2	NaN	2	4	0.0350874958816868	1	1	NaN	363	6	48	2	121	221	321	NaN	521	0.226089776668232	2	1	NaN	265234.7726956	NaN	265235.756084	265236.272623823
1	19	0	0	90	36.1581920903955	36.241610738255	9	0.300032136000227	2	5	1	NaN	1	5	0.0350874958816868	1	1	NaN	364	6	49	2	121	221	321	NaN	521	0.564117792237084	1	1	NaN	265237.3229359	NaN	265238.3064282	265238.822884808
1	19	0	0	90	36.1581920903955	36.241610738255	16	0.533390464000404	2	2	2	NaN	1	4	0.0350874958816868	1	1	NaN	365	6	50	2	121	221	321	NaN	521	0.0823234766721725	1	1	NaN	265240.3565304	NaN	265241.3399669	265241.856517023
1	19	0	0	90	36.1581920903955	36.241610738255	14	0.466716656000353	2	1	2	NaN	1	5	0.0350874958816868	1	1	NaN	366	6	51	2	121	221	321	NaN	521	0.313874376646709	2	0	NaN	265242.7568109	NaN	265243.7402065	265244.256743623
1	19	0	0	90	36.1581920903955	36.241610738255	24	0.800085696000606	2	10	3	NaN	2	4	0.0350874958816868	1	1	NaN	367	6	52	2	121	221	321	NaN	521	0.112271344172768	2	1	NaN	265245.390408	NaN	265246.3738071	265246.890341956
1	19	0	0	90	36.1581920903955	36.241610738255	11	0.366705944000278	2	4	3	NaN	1	3	0.0350874958816868	1	1	NaN	368	6	53	2	121	221	321	NaN	521	0.240462076675612	1	1	NaN	265247.9906143	NaN	265248.9740637	265249.490594323
1	19	0	0	90	36.1581920903955	36.241610738255	10	0.333369040000252	2	6	3	NaN	1	5	0.0350874958816868	1	1	NaN	369	6	54	2	121	221	321	NaN	521	0.249092224694323	1	1	NaN	265250.5576046	NaN	265251.540992	265252.057512375
1	19	0	0	90	36.1581920903955	36.241610738255	8	0.266695232000202	2	1	3	NaN	1	3	0.0350874958816868	1	1	NaN	370	6	55	2	121	221	321	NaN	521	0.434337728598621	2	0	NaN	265253.1244651	NaN	265254.1079323	265254.624440471
1	19	0	0	90	36.1581920903955	36.241610738255	21	0.70007498400053	2	11	3	NaN	2	5	0.0350874958816868	1	1	NaN	371	6	56	2	121	221	321	NaN	521	0.132089984486811	1	0	NaN	265255.8747581	NaN	265256.8581677	265257.374705516
1	19	0	0	90	36.1581920903955	36.241610738255	20	0.666738080000505	2	3	6	NaN	1	5	0.0350874958816868	1	1	NaN	372	6	57	2	121	221	321	NaN	521	0.236242428596597	1	1	NaN	265258.4748921	NaN	265259.4584409	265259.974961671
1	19	0	0	90	36.1581920903955	36.241610738255	9	0.300032136000227	2	4	4	NaN	1	4	0.0350874958816868	1	1	NaN	373	6	58	2	121	221	321	NaN	521	0.0103867285652086	1	1	NaN	265261.125299	NaN	265262.1086883	265262.625221271
1	19	0	0	90	36.1581920903955	36.241610738255	8	0.266695232000202	2	10	6	NaN	2	4	0.0350874958816868	1	1	NaN	374	6	59	2	121	221	321	NaN	521	0.116054776648525	2	1	NaN	265263.4588357	NaN	265264.4422465	265264.958773023
1	19	0	0	90	36.1581920903955	36.241610738255	20	0.666738080000505	2	11	4	NaN	2	4	0.0350874958816868	1	1	NaN	375	6	60	2	121	221	321	NaN	521	0.138868928595912	2	1	NaN	265265.8924133	NaN	265266.8758275	265267.392355971
1	19	0	0	90	36.1581920903955	36.241610738255	16	0.533390464000404	2	8	2	NaN	2	3	0.0350874958816868	1	1	NaN	376	6	61	2	121	221	321	NaN	521	0.231475128559396	2	1	NaN	265268.3591882	NaN	265269.3427161	265269.859268171
1	19	0	0	90	36.1581920903955	36.241610738255	6	0.200021424000151	2	9	6	NaN	2	5	0.0350874958816868	1	1	NaN	377	6	62	2	121	221	321	NaN	521	0.113246472785249	2	1	NaN	265270.9095861	NaN	265271.8929679	265272.409515827
1	19	0	0	90	36.1581920903955	36.241610738255	15	0.500053560000379	2	1	5	NaN	1	4	0.0350874958816868	1	1	NaN	378	6	63	2	121	221	321	NaN	521	0.135774320864584	1	1	NaN	265273.3431678	NaN	265274.3265405	265274.843083979
1	19	0	0	90	36.1581920903955	36.241610738255	18	0.600064272000454	2	12	1	NaN	2	3	0.0350874958816868	1	1	NaN	379	7	1	2	121	221	321	NaN	521	0.428246580588166	2	1	NaN	265280.6105449	NaN	265281.5939619	265282.110474919
1	19	0	0	90	36.1581920903955	36.241610738255	9	0.300032136000227	2	2	6	NaN	1	5	0.0350874958816868	1	1	NaN	380	7	2	2	121	221	321	NaN	521	0.237941928615328	2	0	NaN	265283.3607853	NaN	265284.3441902	265284.860740471
1	19	0	0	90	36.1581920903955	36.241610738255	17	0.566727368000429	2	2	4	NaN	1	5	0.0350874958816868	1	1	NaN	381	7	3	2	121	221	321	NaN	521	0.0471132766688243	1	1	NaN	265285.9277252	NaN	265286.9111031	265287.427654623
1	19	0	0	90	36.1581920903955	36.241610738255	22	0.733411888000555	2	12	5	NaN	2	3	0.0350874958816868	1	1	NaN	382	7	4	2	121	221	321	NaN	521	0.216568676696625	2	1	NaN	265288.2945003	NaN	265289.278063	265289.794557423
1	19	0	0	90	36.1581920903955	36.241610738255	20	0.666738080000505	2	10	1	NaN	2	5	0.0350874958816868	1	1	NaN	383	7	5	2	121	221	321	NaN	521	0.0587276766891591	2	1	NaN	265290.8283093	NaN	265291.8116013	265292.328135623
1	19	0	0	90	36.1581920903955	36.241610738255	18	0.600064272000454	2	10	2	NaN	2	4	0.0350874958816868	1	1	NaN	384	7	6	2	121	221	321	NaN	521	0.219508728594519	2	1	NaN	265293.2116382	NaN	265294.195052	265294.711705571
1	19	0	0	90	36.1581920903955	36.241610738255	16	0.533390464000404	2	6	2	NaN	1	5	0.0350874958816868	1	1	NaN	385	7	7	2	121	221	321	NaN	521	0.204642676690128	1	1	NaN	265295.7620227	NaN	265296.7454224	265297.261955423
1	19	0	0	90	36.1581920903955	36.241610738255	20	0.666738080000505	2	3	2	NaN	1	3	0.0350874958816868	1	1	NaN	386	7	8	2	121	221	321	NaN	521	0.159199676651042	1	1	NaN	265298.29547	NaN	265299.2790104	265299.795543323
1	19	0	0	90	36.1581920903955	36.241610738255	16	0.533390464000404	2	6	1	NaN	1	3	0.0350874958816868	1	1	NaN	387	7	9	2	121	221	321	NaN	521	0.0104428727645427	1	1	NaN	265300.7791933	NaN	265301.7626116	265302.279109327
1	19	0	0	90	36.1581920903955	36.241610738255	23	0.766748792000581	2	2	1	NaN	1	5	0.0350874958816868	1	1	NaN	388	7	10	2	121	221	321	NaN	521	0.0104830766795203	1	1	NaN	265303.4627622	NaN	265304.4461619	265304.962723523
1	19	0	0	90	36.1581920903955	36.241610738255	0	0	1	10	4	NaN	2	3	0.0350874958816868	1	1	NaN	389	7	11	2	111	211	311	NaN	511	0.162606184429023	2	1	NaN	265305.7962148	NaN	265306.7797553	265307.296279216
1	19	0	0	90	36.1581920903955	36.241610738255	7	0.233358328000177	2	3	6	NaN	1	5	0.0350874958816868	1	1	NaN	390	7	12	2	121	221	321	NaN	521	0.437689128564671	1	1	NaN	265308.3132197	NaN	265309.2966507	265309.813194171
1	19	0	0	90	36.1581920903955	36.241610738255	7	0.233358328000177	2	1	1	NaN	1	3	0.0350874958816868	1	1	NaN	391	7	13	2	121	221	321	NaN	521	0.159734576649498	1	1	NaN	265311.0635347	NaN	265312.0469366	265312.563456323
1	19	0	0	90	36.1581920903955	36.241610738255	18	0.600064272000454	2	4	6	NaN	1	5	0.0350874958816868	1	1	NaN	392	7	14	2	121	221	321	NaN	521	0.428398420859594	2	0	NaN	265313.5304262	NaN	265314.5138682	265315.030370579
1	19	0	0	90	36.1581920903955	36.241610738255	22	0.733411888000555	2	9	2	NaN	2	3	0.0350874958816868	1	1	NaN	393	7	15	2	121	221	321	NaN	521	0.102387828577776	2	1	NaN	265316.2806763	NaN	265317.2641281	265317.780647471
1	19	0	0	90	36.1581920903955	36.241610738255	7	0.233358328000177	2	5	3	NaN	1	4	0.0350874958816868	1	1	NaN	394	7	16	2	121	221	321	NaN	521	0.11765554419253	1	1	NaN	265318.6975382	NaN	265319.6810148	265320.197560056
1	19	0	0	90	36.1581920903955	36.241610738255	17	0.566727368000429	2	12	2	NaN	2	4	0.0350874958816868	1	1	NaN	395	7	17	2	121	221	321	NaN	521	0.163764324737713	2	1	NaN	265321.1310701	NaN	265322.1146552	265322.631124875
1	19	0	0	90	36.1581920903955	36.241610738255	24	0.800085696000606	2	4	6	NaN	1	5	0.0350874958816868	1	1	NaN	396	7	18	2	121	221	321	NaN	521	0.10426677664509	1	1	NaN	265323.6147915	NaN	265324.5981408	265325.114702123
1	19	0	0	90	36.1581920903955	36.241610738255	6	0.200021424000151	2	9	4	NaN	2	4	0.0350874958816868	1	1	NaN	397	7	19	2	121	221	321	NaN	521	0.163000748085324	2	1	NaN	265326.1481631	NaN	265327.1317503	265327.648282652
1	19	0	0	90	36.1581920903955	36.241610738255	24	0.800085696000606	2	1	4	NaN	1	3	0.0350874958816868	1	1	NaN	398	7	20	2	121	221	321	NaN	521	0.215150628588162	1	1	NaN	265328.6318363	NaN	265329.6153239	265330.131856271
1	19	0	0	90	36.1581920903955	36.241610738255	10	0.333369040000252	2	11	1	NaN	2	5	0.0350874958816868	1	1	NaN	399	7	21	2	121	221	321	NaN	521	0.137924828566611	2	1	NaN	265331.1655285	NaN	265332.1489063	265332.665445871
1	19	0	0	90	36.1581920903955	36.241610738255	23	0.766748792000581	2	5	4	NaN	1	3	0.0350874958816868	1	1	NaN	400	7	22	2	121	221	321	NaN	521	0.143524272774812	1	1	NaN	265333.6157618	NaN	265334.5991391	265335.115678527
1	19	0	0	90	36.1581920903955	36.241610738255	25	0.833422600000631	2	9	1	NaN	2	4	0.0350874958816868	1	1	NaN	401	7	23	2	121	221	321	NaN	521	0.748130076681264	2	1	NaN	265336.0826411	NaN	265337.0660441	265337.582585623
1	19	0	0	90	36.1581920903955	36.241610738255	19	0.63340117600048	2	9	6	NaN	2	5	0.0350874958816868	1	1	NaN	402	7	24	2	121	221	321	NaN	521	0.225353428628296	2	1	NaN	265339.1496215	NaN	265340.1330128	265340.649556771
1	19	0	0	90	36.1581920903955	36.241610738255	12	0.400042848000303	2	3	5	NaN	1	5	0.0350874958816868	1	1	NaN	403	7	25	2	121	221	321	NaN	521	0.299197732529137	2	0	NaN	265341.6997536	NaN	265342.6832895	265343.199812067
1	19	0	0	90	36.1581920903955	36.241610738255	13	0.433379752000328	2	12	1	NaN	2	4	0.0350874958816868	1	1	NaN	404	7	26	2	121	221	321	NaN	521	0.386450628575403	2	1	NaN	265344.3167904	NaN	265345.3002032	265345.816736971
1	19	0	0	90	36.1581920903955	36.241610738255	6	0.200021424000151	2	4	4	NaN	1	5	0.0350874958816868	1	1	NaN	405	7	27	2	121	221	321	NaN	521	0.141626272816211	1	1	NaN	265347.0337069	NaN	265348.017136	265348.533675827
1	19	0	0	90	36.1581920903955	36.241610738255	8	0.266695232000202	2	9	1	NaN	2	3	0.0350874958816868	1	1	NaN	406	7	28	2	121	221	321	NaN	521	0.0263299805810675	2	1	NaN	265349.5006683	NaN	265350.4840357	265351.000581519
1	19	0	0	90	36.1581920903955	36.241610738255	18	0.600064272000454	2	1	2	NaN	1	4	0.0350874958816868	1	1	NaN	407	7	29	2	121	221	321	NaN	521	0.276441572816111	1	1	NaN	265351.8508615	NaN	265352.8342774	265353.350807927
1	19	0	0	90	36.1581920903955	36.241610738255	18	0.600064272000454	2	5	1	NaN	1	3	0.0350874958816868	1	1	NaN	408	7	30	2	121	221	321	NaN	521	0.119311880553141	1	1	NaN	265354.5678002	NaN	265355.5512044	265356.067744719
1	19	0	0	90	36.1581920903955	36.241610738255	10	0.333369040000252	2	8	1	NaN	2	3	0.0350874958816868	1	1	NaN	409	7	31	2	121	221	321	NaN	521	0.885418724734336	2	1	NaN	265357.0013976	NaN	265357.9847631	265358.501311375
1	19	0	0	90	36.1581920903955	36.241610738255	0	0	1	2	5	NaN	1	5	0.0350874958816868	1	1	NaN	410	7	32	2	111	211	311	NaN	511	0.149665428616572	1	1	NaN	265360.2015852	NaN	265361.1851574	265361.701630371
1	19	0	0	90	36.1581920903955	36.241610738255	25	0.833422600000631	2	1	6	NaN	1	4	0.0350874958816868	1	1	NaN	411	7	33	2	121	221	321	NaN	521	0.232117376697715	1	1	NaN	265362.7352213	NaN	265363.7186993	265364.235219323
1	19	0	0	90	36.1581920903955	36.241610738255	18	0.600064272000454	2	6	2	NaN	1	4	0.0350874958816868	1	1	NaN	412	7	34	2	121	221	321	NaN	521	0.217590324697085	1	1	NaN	265365.2855086	NaN	265366.268952	265366.785458875
1	19	0	0	90	36.1581920903955	36.241610738255	21	0.70007498400053	2	10	5	NaN	2	3	0.0350874958816868	1	1	NaN	413	7	35	2	121	221	321	NaN	521	0.323889576655347	1	0	NaN	265367.8190961	NaN	265368.802535	265369.319041923
1	19	0	0	90	36.1581920903955	36.241610738255	16	0.533390464000404	2	7	2	NaN	2	3	0.0350874958816868	1	1	NaN	414	7	36	2	121	221	321	NaN	521	0.100418376678135	2	1	NaN	265370.8027116	NaN	265371.7861505	265372.302668123
1	19	0	0	90	36.1581920903955	36.241610738255	12	0.400042848000303	2	7	4	NaN	2	5	0.0350874958816868	1	1	NaN	415	7	37	2	121	221	321	NaN	521	0.0513491766760126	2	1	NaN	265373.2196145	NaN	265374.2029443	265374.719567623
1	19	0	0	90	36.1581920903955	36.241610738255	23	0.766748792000581	2	6	1	NaN	1	4	0.0350874958816868	1	1	NaN	416	7	38	2	121	221	321	NaN	521	0.180223576666322	1	1	NaN	265375.6030436	NaN	265376.5866098	265377.103141523
1	19	0	0	90	36.1581920903955	36.241610738255	0	0	1	8	3	NaN	2	5	0.0350874958816868	1	1	NaN	417	7	39	2	111	211	311	NaN	511	0.167510176659562	2	1	NaN	265378.103442	NaN	265379.0868532	265379.603382823
1	19	0	0	90	36.1581920903955	36.241610738255	9	0.300032136000227	2	7	1	NaN	2	5	0.0350874958816868	1	1	NaN	418	7	40	2	121	221	321	NaN	521	0.291949576698244	2	1	NaN	265380.5869088	NaN	265381.5704276	265382.086971523
1	19	0	0	90	36.1581920903955	36.241610738255	12	0.400042848000303	2	11	3	NaN	2	4	0.0350874958816868	1	1	NaN	419	7	41	2	121	221	321	NaN	521	0.17945927666733	2	1	NaN	265383.2039615	NaN	265384.1873758	265384.703889323
1	19	0	0	90	36.1581920903955	36.241610738255	6	0.200021424000151	2	6	5	NaN	1	5	0.0350874958816868	1	1	NaN	420	7	42	2	121	221	321	NaN	521	0.190056376624852	1	1	NaN	265385.7207462	NaN	265386.7042622	265387.220808023
1	19	0	0	90	36.1581920903955	36.241610738255	14	0.466716656000353	2	10	5	NaN	2	5	0.0350874958816868	1	1	NaN	421	7	43	2	121	221	321	NaN	521	0.145289528591093	2	1	NaN	265388.237807	NaN	265389.2211838	265389.737722171
1	19	0	0	90	36.1581920903955	36.241610738255	6	0.200021424000151	2	10	1	NaN	2	3	0.0350874958816868	1	1	NaN	422	7	44	2	121	221	321	NaN	521	0.243304824689403	2	1	NaN	265390.78811	NaN	265391.7714123	265392.287969075
1	19	0	0	90	36.1581920903955	36.241610738255	7	0.233358328000177	2	9	5	NaN	2	5	0.0350874958816868	1	1	NaN	423	7	45	2	121	221	321	NaN	521	0.212316192162689	2	1	NaN	265393.3549554	NaN	265394.3383582	265394.854890708
1	19	0	0	90	36.1581920903955	36.241610738255	9	0.300032136000227	2	10	1	NaN	2	4	0.0350874958816868	1	1	NaN	424	7	46	2	121	221	321	NaN	521	0.550991876691114	2	1	NaN	265395.8885424	NaN	265396.8719089	265397.388474923
1	19	0	0	90	36.1581920903955	36.241610738255	12	0.400042848000303	2	8	1	NaN	2	4	0.0350874958816868	1	1	NaN	425	7	47	2	121	221	321	NaN	521	0.379534932493698	1	0	NaN	265398.7554644	NaN	265399.7388961	265400.255423067
1	19	0	0	90	36.1581920903955	36.241610738255	11	0.366705944000278	2	10	5	NaN	2	4	0.0350874958816868	1	1	NaN	426	7	48	2	121	221	321	NaN	521	0.471196676662657	2	1	NaN	265401.4557316	NaN	265402.4391875	265402.955687223
1	19	0	0	90	36.1581920903955	36.241610738255	0	0	1	11	3	NaN	2	3	0.0350874958816868	1	1	NaN	427	7	49	2	111	211	311	NaN	511	0.263696144218557	2	1	NaN	265404.2392148	NaN	265405.2227715	265405.739294856
1	19	0	0	90	36.1581920903955	36.241610738255	23	0.766748792000581	2	10	3	NaN	2	4	0.0350874958816868	1	1	NaN	428	7	50	2	121	221	321	NaN	521	0.256583028589375	2	1	NaN	265406.8229418	NaN	265407.8063421	265408.322880871
1	19	0	0	90	36.1581920903955	36.241610738255	20	0.666738080000505	2	6	5	NaN	1	3	0.0350874958816868	1	1	NaN	429	7	51	2	121	221	321	NaN	521	0.272363376687281	2	0	NaN	265409.4065455	NaN	265410.3899355	265410.906460023
1	19	0	0	90	36.1581920903955	36.241610738255	15	0.500053560000379	2	10	2	NaN	2	5	0.0350874958816868	1	1	NaN	430	7	52	2	121	221	321	NaN	521	0.0969267285545357	2	1	NaN	265411.9901823	NaN	265412.9735288	265413.490054371
1	19	0	0	90	36.1581920903955	36.241610738255	7	0.233358328000177	2	5	4	NaN	1	4	0.0350874958816868	1	1	NaN	431	7	53	2	121	221	321	NaN	521	0.224451624671929	1	1	NaN	265414.4070064	NaN	265415.3904217	265415.906953575
1	19	0	0	90	36.1581920903955	36.241610738255	13	0.433379752000328	2	12	3	NaN	2	5	0.0350874958816868	1	1	NaN	432	7	54	2	121	221	321	NaN	521	0.378867676656228	1	0	NaN	265416.9404809	NaN	265417.9239967	265418.440543823
1	19	0	0	90	36.1581920903955	36.241610738255	9	0.300032136000227	2	7	2	NaN	2	4	0.0350874958816868	1	1	NaN	433	7	55	2	121	221	321	NaN	521	0.318119728588499	2	1	NaN	265419.6408697	NaN	265420.6242711	265421.140813371
1	19	0	0	90	36.1581920903955	36.241610738255	0	0	1	1	2	NaN	1	3	0.0350874958816868	1	1	NaN	434	7	56	2	111	211	311	NaN	511	0.21260009217076	1	1	NaN	265422.274465	NaN	265423.2578988	265423.774401108
1	19	0	0	90	36.1581920903955	36.241610738255	25	0.833422600000631	2	11	2	NaN	2	3	0.0350874958816868	1	1	NaN	435	7	57	2	121	221	321	NaN	521	0.0630160286091268	2	1	NaN	265424.8078925	NaN	265425.7914492	265426.308003371
1	19	0	0	90	36.1581920903955	36.241610738255	9	0.300032136000227	2	4	3	NaN	1	5	0.0350874958816868	1	1	NaN	436	7	58	2	121	221	321	NaN	521	0.0794492805725895	1	1	NaN	265427.1916384	NaN	265428.1750042	265428.691556519
1	19	0	0	90	36.1581920903955	36.241610738255	7	0.233358328000177	2	8	5	NaN	2	4	0.0350874958816868	1	1	NaN	437	7	59	2	121	221	321	NaN	521	0.0438863286399283	1	0	NaN	265429.8752083	NaN	265430.8586237	265431.375154971
1	19	0	0	90	36.1581920903955	36.241610738255	13	0.433379752000328	2	10	2	NaN	2	5	0.0350874958816868	1	1	NaN	438	7	60	2	121	221	321	NaN	521	0.0449904442066327	2	1	NaN	265432.2421206	NaN	265433.225509	265433.742055156
1	19	0	0	90	36.1581920903955	36.241610738255	25	0.833422600000631	2	4	5	NaN	1	3	0.0350874958816868	1	1	NaN	439	7	61	2	121	221	321	NaN	521	0.0967886766884476	1	1	NaN	265434.7423453	NaN	265435.7257596	265436.242286223
1	19	0	0	90	36.1581920903955	36.241610738255	25	0.833422600000631	2	4	4	NaN	1	3	0.0350874958816868	1	1	NaN	440	7	62	2	121	221	321	NaN	521	0.224235328554641	2	0	NaN	265437.1592447	NaN	265438.1426437	265438.659200271
1	19	0	0	90	36.1581920903955	36.241610738255	23	0.766748792000581	2	12	5	NaN	2	3	0.0350874958816868	1	1	NaN	441	7	63	2	121	221	321	NaN	521	0.062913128582295	1	0	NaN	265439.7762014	NaN	265440.7596187	265441.276124471
1	19	0	0	90	36.1581920903955	36.241610738255	22	0.733411888000555	2	8	4	NaN	2	3	0.0350874958816868	1	1	NaN	442	8	1	2	121	221	321	NaN	521	0.299092780565843	2	1	NaN	265445.8601353	NaN	265446.8434816	265447.360052119
1	19	0	0	90	36.1581920903955	36.241610738255	0	0	1	11	1	NaN	2	3	0.0350874958816868	1	1	NaN	443	8	2	2	111	211	311	NaN	511	0.154148428584449	2	1	NaN	265448.4770612	NaN	265449.4605444	265449.976976171
1	19	0	0	90	36.1581920903955	36.241610738255	10	0.333369040000252	2	2	1	NaN	1	4	0.0350874958816868	1	1	NaN	444	8	3	2	121	221	321	NaN	521	0.0104848766932264	1	1	NaN	265450.9606695	NaN	265451.9440316	265452.460557923
1	19	0	0	90	36.1581920903955	36.241610738255	23	0.766748792000581	2	5	4	NaN	1	4	0.0350874958816868	1	1	NaN	445	8	4	2	121	221	321	NaN	521	0.121130996150896	1	1	NaN	265453.2940595	NaN	265454.2775789	265454.794119704
1	19	0	0	90	36.1581920903955	36.241610738255	8	0.266695232000202	2	4	2	NaN	1	3	0.0350874958816868	1	1	NaN	446	8	5	2	121	221	321	NaN	521	0.0714099766919389	1	1	NaN	265455.7277795	NaN	265456.7111474	265457.227689323
1	19	0	0	90	36.1581920903955	36.241610738255	7	0.233358328000177	2	6	4	NaN	1	4	0.0350874958816868	1	1	NaN	447	8	6	2	121	221	321	NaN	521	0.0318078767159022	1	1	NaN	265458.1113356	NaN	265459.0947214	265459.611258523
1	19	0	0	90	36.1581920903955	36.241610738255	0	0	1	6	3	NaN	1	3	0.0350874958816868	1	1	NaN	448	8	7	2	111	211	311	NaN	511	1.12957817665301	1	1	NaN	265460.4615451	NaN	265461.4448569	265461.961485323
1	19	0	0	90	36.1581920903955	36.241610738255	18	0.600064272000454	2	6	1	NaN	1	5	0.0350874958816868	1	1	NaN	449	8	8	2	121	221	321	NaN	521	0.25518862856552	1	1	NaN	265463.9118919	NaN	265464.8953031	265465.411821771
1	19	0	0	90	36.1581920903955	36.241610738255	22	0.733411888000555	2	10	4	NaN	2	3	0.0350874958816868	1	1	NaN	450	8	9	2	121	221	321	NaN	521	0.974859476671554	2	1	NaN	265466.512125	NaN	265467.4955493	265468.012078323
1	19	0	0	90	36.1581920903955	36.241610738255	18	0.600064272000454	2	2	2	NaN	1	4	0.0350874958816868	1	1	NaN	451	8	10	2	121	221	321	NaN	521	0.147290176653769	1	1	NaN	265469.7956837	NaN	265470.7791934	265471.295737623
1	19	0	0	90	36.1581920903955	36.241610738255	15	0.500053560000379	2	9	1	NaN	2	5	0.0350874958816868	1	1	NaN	452	8	11	2	121	221	321	NaN	521	0.184389076661319	1	0	NaN	265472.2627031	NaN	265473.2461868	265473.762644123
1	19	0	0	90	36.1581920903955	36.241610738255	12	0.400042848000303	2	3	4	NaN	1	5	0.0350874958816868	1	1	NaN	453	8	12	2	121	221	321	NaN	521	0.0922916246927343	1	1	NaN	265474.7629412	NaN	265475.7463371	265476.262896775
1	19	0	0	90	36.1581920903955	36.241610738255	8	0.266695232000202	2	8	6	NaN	2	5	0.0350874958816868	1	1	NaN	454	8	13	2	121	221	321	NaN	521	0.203656476689503	2	1	NaN	265477.1798462	NaN	265478.1633077	265478.679793523
1	19	0	0	90	36.1581920903955	36.241610738255	21	0.70007498400053	2	7	6	NaN	2	5	0.0350874958816868	1	1	NaN	455	8	14	2	121	221	321	NaN	521	0.0622520325123332	2	1	NaN	265479.6967886	NaN	265480.6801829	265481.196708868
1	19	0	0	90	36.1581920903955	36.241610738255	6	0.200021424000151	2	11	4	NaN	2	3	0.0350874958816868	1	1	NaN	456	8	15	2	121	221	321	NaN	521	0.0475744727882557	2	1	NaN	265482.263677	NaN	265483.2470941	265483.763625127
1	19	0	0	90	36.1581920903955	36.241610738255	7	0.233358328000177	2	8	1	NaN	2	5	0.0350874958816868	1	1	NaN	457	8	16	2	121	221	321	NaN	521	0.795044828613754	1	0	NaN	265484.7805872	NaN	265485.7640092	265486.280543971
1	19	0	0	90	36.1581920903955	36.241610738255	10	0.333369040000252	2	2	2	NaN	1	3	0.0350874958816868	1	1	NaN	458	8	17	2	121	221	321	NaN	521	0.197558144165669	2	0	NaN	265487.897569	NaN	265488.8809937	265489.397519456
1	19	0	0	90	36.1581920903955	36.241610738255	0	0	1	2	5	NaN	1	4	0.0350874958816868	1	1	NaN	459	8	18	2	111	211	311	NaN	511	0.29713232856011	2	0	NaN	265490.4143693	NaN	265491.3979385	265491.914436971
1	19	0	0	90	36.1581920903955	36.241610738255	7	0.233358328000177	2	2	3	NaN	1	5	0.0350874958816868	1	1	NaN	460	8	19	2	121	221	321	NaN	521	0.138403228600509	1	1	NaN	265493.164736	NaN	265494.1481822	265494.664707271
1	19	0	0	90	36.1581920903955	36.241610738255	23	0.766748792000581	2	9	5	NaN	2	3	0.0350874958816868	1	1	NaN	461	8	20	2	121	221	321	NaN	521	0.223520728584845	2	1	NaN	265495.6316666	NaN	265496.6150617	265497.131617771
1	19	0	0	90	36.1581920903955	36.241610738255	20	0.666738080000505	2	8	5	NaN	2	3	0.0350874958816868	1	1	NaN	462	8	21	2	121	221	321	NaN	521	0.498440476658288	2	1	NaN	265498.1652535	NaN	265499.1486616	265499.665195623
1	19	0	0	90	36.1581920903955	36.241610738255	18	0.600064272000454	2	10	3	NaN	2	5	0.0350874958816868	1	1	NaN	463	8	22	2	121	221	321	NaN	521	0.223723128612619	2	1	NaN	265501.2154264	NaN	265502.1989559	265502.715497371
1	19	0	0	90	36.1581920903955	36.241610738255	25	0.833422600000631	2	1	4	NaN	1	4	0.0350874958816868	1	1	NaN	464	8	23	2	121	221	321	NaN	521	0.184023476671427	1	1	NaN	265503.9991402	NaN	265504.9825713	265505.499094723
