subjno	age	gender	isPractice	viewdist	CmToPixX	CmToPixY	SOA_frm	SOA_time	targNum	targID	targExample	targRace	targGender	firstTargPos	contrast	familiarity	curr_staircase	iStair	TrialNum	BlockNum	blktrl	sessionNum	TC_FIXATION	TC_RSVP_START	TC_RSVP_END	TC_BLANK	TC_RESPONSE_ONSET	RT2afc	resp_2afc	acc	RSVPOnsetVBL	RSVPOnsetTime	RSVPOffsetVBL	RSVPOffsetTime	startrt_2afc
62	18	0	0	90	36.1581920903955	36.241610738255	22	0.733380031809211	2	10	3	NaN	2	3	0.059286764476989	0	1	NaN	1	1	1	2	120	220	320	NaN	520	0.535707321483642	2	1	NaN	3373575.4173729	NaN	3373576.4006697	3373576.93378758
62	18	0	0	90	36.1581920903955	36.241610738255	13	0.433360927887261	2	3	6	NaN	1	5	0.059286764476989	0	1	NaN	2	1	2	2	120	220	320	NaN	520	1.01155046885833	2	0	NaN	3373578.3176804	NaN	3373579.300937	3373579.83407783
62	18	0	0	90	36.1581920903955	36.241610738255	20	0.666709119826555	2	1	5	NaN	1	4	0.059286764476989	0	1	NaN	3	1	3	2	120	220	320	NaN	520	0.573250515852123	2	0	NaN	3373581.6678124	NaN	3373582.6511816	3373583.18440548
62	18	0	0	90	36.1581920903955	36.241610738255	6	0.200012735947967	2	11	4	NaN	2	3	0.059286764476989	0	1	NaN	4	1	4	2	120	220	320	NaN	520	0.432952521368861	2	1	NaN	3373584.5847343	NaN	3373585.5681284	3373586.08469258
62	18	0	0	90	36.1581920903955	36.241610738255	0	0	1	9	6	NaN	2	5	0.059286764476989	0	1	NaN	5	1	5	2	110	210	310	NaN	510	0.906247437000275	2	1	NaN	3373587.3350102	NaN	3373588.3184178	3373588.83495536
62	18	0	0	90	36.1581920903955	36.241610738255	14	0.466696383878589	2	3	1	NaN	1	4	0.059286764476989	0	1	NaN	6	1	6	2	120	220	320	NaN	520	0.424723368603736	1	1	NaN	3373590.5686609	NaN	3373591.5520735	3373592.06861193
62	18	0	0	90	36.1581920903955	36.241610738255	17	0.566702751852572	2	7	2	NaN	2	5	0.059286764476989	0	1	NaN	7	1	7	2	120	220	320	NaN	520	0.394993721041828	2	1	NaN	3373593.302385	NaN	3373594.285654	3373594.80223218
62	18	0	0	90	36.1581920903955	36.241610738255	12	0.400025471895933	2	3	1	NaN	1	4	0.059286764476989	0	1	NaN	8	1	8	2	120	220	320	NaN	520	0.350535220932215	2	0	NaN	3373596.0192131	NaN	3373597.0025892	3373597.51915138
62	18	0	0	90	36.1581920903955	36.241610738255	25	0.833386399783194	2	2	2	NaN	1	3	0.059286764476989	0	1	NaN	9	1	9	2	120	220	320	NaN	520	0.531328021083027	1	1	NaN	3373598.6861342	NaN	3373599.6695201	3373600.18607788
62	18	0	0	90	36.1581920903955	36.241610738255	6	0.200012735947967	2	6	3	NaN	1	5	0.059286764476989	0	1	NaN	10	1	10	2	120	220	320	NaN	520	0.364076221361756	1	1	NaN	3373601.6530525	NaN	3373602.6364766	3373603.15302808
62	18	0	0	90	36.1581920903955	36.241610738255	24	0.800050943791866	2	6	5	NaN	1	5	0.059286764476989	0	1	NaN	11	1	11	2	120	220	320	NaN	520	0.672569721471518	1	1	NaN	3373604.3366792	NaN	3373605.3200951	3373605.83662428
62	18	0	0	90	36.1581920903955	36.241610738255	14	0.466696383878589	2	2	5	NaN	1	5	0.059286764476989	0	1	NaN	12	1	12	2	120	220	320	NaN	520	0.657037668861449	1	1	NaN	3373607.3202219	NaN	3373608.3037014	3373608.82025733
62	18	0	0	90	36.1581920903955	36.241610738255	18	0.6000382078439	2	2	4	NaN	1	5	0.059286764476989	0	1	NaN	13	1	13	2	120	220	320	NaN	520	0.729718368500471	1	1	NaN	3373610.3039469	NaN	3373611.2873216	3373611.80387413
62	18	0	0	90	36.1581920903955	36.241610738255	12	0.400025471895933	2	4	4	NaN	1	3	0.059286764476989	0	1	NaN	14	1	14	2	120	220	320	NaN	520	0.487189416307956	2	0	NaN	3373613.35424	NaN	3373614.3376216	3373614.85418428
62	18	0	0	90	36.1581920903955	36.241610738255	23	0.766715487800539	2	8	4	NaN	2	5	0.059286764476989	0	1	NaN	15	1	15	2	120	220	320	NaN	520	1.72732882108539	2	1	NaN	3373616.3378572	NaN	3373617.3212651	3373617.83781508
62	18	0	0	90	36.1581920903955	36.241610738255	8	0.266683647930622	2	6	1	NaN	1	5	0.059286764476989	0	1	NaN	16	1	16	2	120	220	320	NaN	520	0.0103961210697889	2	0	NaN	3373620.7216593	NaN	3373621.7050072	3373622.22157218
62	18	0	0	90	36.1581920903955	36.241610738255	10	0.333354559913278	2	1	3	NaN	1	4	0.059286764476989	0	1	NaN	17	1	17	2	120	220	320	NaN	520	0.874486468266696	1	1	NaN	3373623.0552006	NaN	3373624.0385919	3373624.55512853
62	18	0	0	90	36.1581920903955	36.241610738255	13	0.433360927887261	2	8	1	NaN	2	5	0.059286764476989	0	1	NaN	18	1	18	2	120	220	320	NaN	520	0.442301968578249	2	1	NaN	3373626.2555034	NaN	3373627.2389001	3373627.75544903
62	18	0	0	90	36.1581920903955	36.241610738255	17	0.566702751852572	2	11	2	NaN	2	4	0.059286764476989	0	1	NaN	19	1	19	2	120	220	320	NaN	520	1.78737672138959	2	1	NaN	3373629.0224456	NaN	3373630.005838	3373630.52239038
62	18	0	0	90	36.1581920903955	36.241610738255	23	0.766715487800539	2	3	3	NaN	1	4	0.059286764476989	0	1	NaN	20	1	20	2	120	220	320	NaN	520	0.422414468601346	1	1	NaN	3373633.1228379	NaN	3373634.1062282	3373634.62278943
62	18	0	0	90	36.1581920903955	36.241610738255	10	0.333354559913278	2	4	6	NaN	1	3	0.059286764476989	0	1	NaN	21	1	21	2	120	220	320	NaN	520	0.751841120887548	1	1	NaN	3373635.8897764	NaN	3373636.873172	3373637.38973078
62	18	0	0	90	36.1581920903955	36.241610738255	19	0.633373663835228	2	7	5	NaN	2	4	0.059286764476989	0	1	NaN	22	1	22	2	120	220	320	NaN	520	0.340707268565893	1	0	NaN	3373638.956743	NaN	3373639.9401404	3373640.45669213
62	18	0	0	90	36.1581920903955	36.241610738255	10	0.333354559913278	2	10	6	NaN	2	3	0.059286764476989	0	1	NaN	23	1	23	2	120	220	320	NaN	520	0.281870021484792	1	0	NaN	3373641.6236749	NaN	3373642.607076	3373643.12362738
62	18	0	0	90	36.1581920903955	36.241610738255	24	0.800050943791866	2	10	4	NaN	2	4	0.059286764476989	0	1	NaN	24	1	24	2	120	220	320	NaN	520	0.321593337226659	2	1	NaN	3373644.2238107	NaN	3373645.2073293	3373645.72388376
62	18	0	0	90	36.1581920903955	36.241610738255	6	0.200012735947967	2	12	2	NaN	2	5	0.059286764476989	0	1	NaN	25	1	25	2	120	220	320	NaN	520	0.359093768522143	1	0	NaN	3373646.8741962	NaN	3373647.8576082	3373648.37413363
62	18	0	0	90	36.1581920903955	36.241610738255	17	0.566702751852572	2	9	6	NaN	2	4	0.059286764476989	0	1	NaN	26	1	26	2	120	220	320	NaN	520	0.427564115729183	2	1	NaN	3373649.557784	NaN	3373650.5412774	3373651.05773998
62	18	0	0	90	36.1581920903955	36.241610738255	14	0.466696383878589	2	9	1	NaN	2	4	0.059286764476989	0	1	NaN	27	1	27	2	120	220	320	NaN	520	2.82943592127413	1	0	NaN	3373652.3080675	NaN	3373653.2914465	3373653.80800788
62	18	0	0	90	36.1581920903955	36.241610738255	15	0.500031839869916	2	5	6	NaN	1	4	0.059286764476989	0	1	NaN	28	1	28	2	120	220	320	NaN	520	0.103477615863085	2	0	NaN	3373657.8419582	NaN	3373658.8253249	3373659.34187658
62	18	0	0	90	36.1581920903955	36.241610738255	18	0.6000382078439	2	7	6	NaN	2	3	0.059286764476989	0	1	NaN	29	1	29	2	120	220	320	NaN	520	0.494047720916569	1	0	NaN	3373660.2755071	NaN	3373661.2588988	3373661.77546298
62	18	0	0	90	36.1581920903955	36.241610738255	20	0.666709119826555	2	4	3	NaN	1	5	0.059286764476989	0	1	NaN	30	1	30	2	120	220	320	NaN	520	0.469477568753064	2	0	NaN	3373663.075747	NaN	3373664.0591833	3373664.57575023
62	18	0	0	90	36.1581920903955	36.241610738255	9	0.30001910392195	2	3	5	NaN	1	3	0.059286764476989	0	1	NaN	31	1	31	2	120	220	320	NaN	520	1.25423692120239	1	1	NaN	3373665.8593859	NaN	3373666.8427746	3373667.35934358
62	18	0	0	90	36.1581920903955	36.241610738255	8	0.266683647930622	2	8	1	NaN	2	3	0.059286764476989	0	1	NaN	32	1	32	2	120	220	320	NaN	520	0.822480868548155	1	0	NaN	3373669.4430595	NaN	3373670.4264559	3373670.94302383
62	18	0	0	90	36.1581920903955	36.241610738255	12	0.400025471895933	2	7	1	NaN	2	5	0.059286764476989	0	1	NaN	33	1	33	2	120	220	320	NaN	520	0.841064068488777	1	0	NaN	3373672.5765925	NaN	3373673.5601069	3373674.07665923
62	18	0	0	90	36.1581920903955	36.241610738255	23	0.766715487800539	2	5	5	NaN	1	3	0.059286764476989	0	1	NaN	34	1	34	2	120	220	320	NaN	520	0.833820120897144	1	1	NaN	3373675.7437098	NaN	3373676.7270812	3373677.24364188
62	18	0	0	90	36.1581920903955	36.241610738255	25	0.833386399783194	2	3	1	NaN	1	4	0.059286764476989	0	1	NaN	35	1	35	2	120	220	320	NaN	520	0.65156713174656	1	1	NaN	3373678.8938904	NaN	3373679.8774059	3373680.39395887
62	18	0	0	90	36.1581920903955	36.241610738255	23	0.766715487800539	2	11	1	NaN	2	5	0.059286764476989	0	1	NaN	36	1	36	2	120	220	320	NaN	520	0.508455068338662	1	0	NaN	3373681.860833	NaN	3373682.844359	3373683.36091213
62	18	0	0	90	36.1581920903955	36.241610738255	14	0.466696383878589	2	11	3	NaN	2	3	0.059286764476989	0	1	NaN	37	1	37	2	120	220	320	NaN	520	1.05118222115561	1	0	NaN	3373684.6946532	NaN	3373685.6779779	3373686.19452438
62	18	0	0	90	36.1581920903955	36.241610738255	15	0.500031839869916	2	8	4	NaN	2	3	0.059286764476989	0	1	NaN	38	1	38	2	120	220	320	NaN	520	0.010324384085834	2	1	NaN	3373688.0615723	NaN	3373689.0449778	3373689.56152322
62	18	0	0	90	36.1581920903955	36.241610738255	24	0.800050943791866	2	2	5	NaN	1	4	0.059286764476989	0	1	NaN	39	1	39	2	120	220	320	NaN	520	0.276225621346384	1	1	NaN	3373690.4451747	NaN	3373691.4285426	3373691.94509138
62	18	0	0	90	36.1581920903955	36.241610738255	18	0.6000382078439	2	1	3	NaN	1	5	0.059286764476989	0	1	NaN	40	1	40	2	120	220	320	NaN	520	0.541165068279952	2	0	NaN	3373693.0288163	NaN	3373694.0121109	3373694.52867473
62	18	0	0	90	36.1581920903955	36.241610738255	14	0.466696383878589	2	11	2	NaN	2	3	0.059286764476989	0	1	NaN	41	1	41	2	120	220	320	NaN	520	0.442483968567103	2	1	NaN	3373695.8789949	NaN	3373696.8624236	3373697.37894543
62	18	0	0	90	36.1581920903955	36.241610738255	17	0.566702751852572	2	6	6	NaN	1	5	0.059286764476989	0	1	NaN	42	1	42	2	120	220	320	NaN	520	0.990061020944268	1	1	NaN	3373698.779192	NaN	3373699.7627158	3373700.27923628
62	18	0	0	90	36.1581920903955	36.241610738255	15	0.500031839869916	2	8	3	NaN	2	5	0.059286764476989	0	1	NaN	43	1	43	2	120	220	320	NaN	520	1.7939668209292	2	1	NaN	3373702.0796084	NaN	3373703.0630117	3373703.57955798
62	18	0	0	90	36.1581920903955	36.241610738255	20	0.666709119826555	2	3	5	NaN	1	3	0.059286764476989	0	1	NaN	44	1	44	2	120	220	320	NaN	520	1.27633351599798	1	1	NaN	3373706.2133478	NaN	3373707.1967427	3373707.71329648
62	18	0	0	90	36.1581920903955	36.241610738255	12	0.400025471895933	2	5	3	NaN	1	3	0.059286764476989	0	1	NaN	45	1	45	2	120	220	320	NaN	520	2.54859082121402	2	0	NaN	3373709.7970257	NaN	3373710.7804396	3373711.29699108
62	18	0	0	90	36.1581920903955	36.241610738255	25	0.833386399783194	2	1	5	NaN	1	3	0.059286764476989	0	1	NaN	46	1	46	2	120	220	320	NaN	520	0.48137486865744	2	0	NaN	3373714.6641781	NaN	3373715.6475697	3373716.16412683
62	18	0	0	90	36.1581920903955	36.241610738255	7	0.233348191939294	2	12	4	NaN	2	4	0.059286764476989	0	1	NaN	47	1	47	2	120	220	320	NaN	520	0.394524720963091	2	1	NaN	3373717.631117	NaN	3373718.6145296	3373719.13109478
62	18	0	0	90	36.1581920903955	36.241610738255	7	0.233348191939294	2	4	6	NaN	1	4	0.059286764476989	0	1	NaN	48	1	48	2	120	220	320	NaN	520	0.0104090687818825	1	1	NaN	3373720.3314287	NaN	3373721.3147984	3373721.83135093
62	18	0	0	90	36.1581920903955	36.241610738255	14	0.466696383878589	2	8	2	NaN	2	3	0.059286764476989	0	1	NaN	49	1	49	2	120	220	320	NaN	520	0.0104108210653067	2	1	NaN	3373722.6483238	NaN	3373723.6316969	3373724.14824688
62	18	0	0	90	36.1581920903955	36.241610738255	23	0.766715487800539	2	6	2	NaN	1	5	0.059286764476989	0	1	NaN	50	1	50	2	120	220	320	NaN	520	0.244393568951637	1	1	NaN	3373724.9651868	NaN	3373725.9485883	3373726.46514083
62	18	0	0	90	36.1581920903955	36.241610738255	11	0.366690015904605	2	11	6	NaN	2	4	0.059286764476989	0	1	NaN	51	1	51	2	120	220	320	NaN	520	0.862037921324372	2	1	NaN	3373727.5154411	NaN	3373728.4988816	3373729.01539548
62	18	0	0	90	36.1581920903955	36.241610738255	22	0.733380031809211	2	12	4	NaN	2	5	0.059286764476989	0	1	NaN	52	1	52	2	120	220	320	NaN	520	0.999130642041564	1	0	NaN	3373730.6824504	NaN	3373731.6658558	3373732.18237126
62	18	0	0	90	36.1581920903955	36.241610738255	19	0.633373663835228	2	4	4	NaN	1	4	0.059286764476989	0	1	NaN	53	1	53	2	120	220	320	NaN	520	0.522436421364546	2	0	NaN	3373733.9995113	NaN	3373734.9828082	3373735.49936778
62	18	0	0	90	36.1581920903955	36.241610738255	16	0.533367295861244	2	4	2	NaN	1	3	0.059286764476989	0	1	NaN	54	1	54	2	120	220	320	NaN	520	1.17693486856297	1	1	NaN	3373736.8330253	NaN	3373737.8164361	3373738.33297483
62	18	0	0	90	36.1581920903955	36.241610738255	8	0.266683647930622	2	2	1	NaN	1	3	0.059286764476989	0	1	NaN	55	1	55	2	120	220	320	NaN	520	0.931377721019089	2	0	NaN	3373740.3500938	NaN	3373741.3334332	3373741.84999228
62	18	0	0	90	36.1581920903955	36.241610738255	16	0.533367295861244	2	8	2	NaN	2	3	0.059286764476989	0	1	NaN	56	1	56	2	120	220	320	NaN	520	0.68133076839149	1	0	NaN	3373743.6003726	NaN	3373744.5837508	3373745.10030493
62	18	0	0	90	36.1581920903955	36.241610738255	13	0.433360927887261	2	2	2	NaN	1	4	0.059286764476989	0	1	NaN	57	1	57	2	120	220	320	NaN	520	1.51299712108448	2	0	NaN	3373746.6006563	NaN	3373747.5840524	3373748.10060588
62	18	0	0	90	36.1581920903955	36.241610738255	24	0.800050943791866	2	10	6	NaN	2	4	0.059286764476989	0	1	NaN	58	1	58	2	120	220	320	NaN	520	0.711311021354049	1	0	NaN	3373750.4343674	NaN	3373751.4177454	3373751.93431568
62	18	0	0	90	36.1581920903955	36.241610738255	8	0.266683647930622	2	10	4	NaN	2	3	0.059286764476989	0	1	NaN	59	1	59	2	120	220	320	NaN	520	0.773866168688983	2	1	NaN	3373753.4680014	NaN	3373754.4513984	3373754.96794103
62	18	0	0	90	36.1581920903955	36.241610738255	12	0.400025471895933	2	7	4	NaN	2	5	0.059286764476989	0	1	NaN	60	1	60	2	120	220	320	NaN	520	0.497912768740207	1	0	NaN	3373756.5516467	NaN	3373757.5350227	3373758.05158193
62	18	0	0	90	36.1581920903955	36.241610738255	21	0.700044575817883	2	3	5	NaN	1	4	0.059286764476989	0	1	NaN	61	1	61	2	120	220	320	NaN	520	0.32143776351586	1	1	NaN	3373759.3685635	NaN	3373760.3519743	3373760.86851434
62	18	0	0	90	36.1581920903955	36.241610738255	18	0.6000382078439	2	3	4	NaN	1	5	0.059286764476989	0	1	NaN	62	1	62	2	120	220	320	NaN	520	0.703366199973971	2	0	NaN	3373762.0020459	NaN	3373762.9855566	3373763.5021407
62	18	0	0	90	36.1581920903955	36.241610738255	7	0.233348191939294	2	7	5	NaN	2	5	0.059286764476989	0	1	NaN	63	1	63	2	120	220	320	NaN	520	0.60483811609447	1	0	NaN	3373765.0690923	NaN	3373766.0525338	3373766.56907588
62	18	0	0	90	36.1581920903955	36.241610738255	8	0.266683647930622	2	12	4	NaN	2	3	0.059286764476989	0	1	NaN	64	2	1	2	120	220	320	NaN	520	0.169121721293777	1	0	NaN	3373772.3365019	NaN	3373773.3199098	3373773.83646828
62	18	0	0	90	36.1581920903955	36.241610738255	19	0.633373663835228	2	2	3	NaN	1	5	0.059286764476989	0	1	NaN	65	2	2	2	120	220	320	NaN	520	0.437763768713921	1	1	NaN	3373774.8200223	NaN	3373775.8034899	3373776.32003303
62	18	0	0	90	36.1581920903955	36.241610738255	8	0.266683647930622	2	11	3	NaN	2	5	0.059286764476989	0	1	NaN	66	2	3	2	120	220	320	NaN	520	0.663536868523806	1	0	NaN	3373777.5703623	NaN	3373778.5537637	3373779.07030803
62	18	0	0	90	36.1581920903955	36.241610738255	21	0.700044575817883	2	11	3	NaN	2	3	0.059286764476989	0	1	NaN	67	2	4	2	120	220	320	NaN	520	1.82459382154047	2	1	NaN	3373780.5371885	NaN	3373781.5206381	3373782.03727188
62	18	0	0	90	36.1581920903955	36.241610738255	18	0.6000382078439	2	5	6	NaN	1	3	0.059286764476989	0	1	NaN	68	2	5	2	120	220	320	NaN	520	2.54134162096307	2	0	NaN	3373784.8042657	NaN	3373785.7878074	3373786.30434928
62	18	0	0	90	36.1581920903955	36.241610738255	17	0.566702751852572	2	4	5	NaN	1	5	0.059286764476989	0	1	NaN	69	2	6	2	120	220	320	NaN	520	0.0104191685095429	1	1	NaN	3373790.0048937	NaN	3373790.9883333	3373791.50485613
62	18	0	0	90	36.1581920903955	36.241610738255	8	0.266683647930622	2	9	4	NaN	2	5	0.059286764476989	0	1	NaN	70	2	7	2	120	220	320	NaN	520	0.383362421300262	2	1	NaN	3373792.3384752	NaN	3373793.321877	3373793.83842888
62	18	0	0	90	36.1581920903955	36.241610738255	19	0.633373663835228	2	6	3	NaN	1	3	0.059286764476989	0	1	NaN	71	2	8	2	120	220	320	NaN	520	0.435298068448901	2	0	NaN	3373795.0387418	NaN	3373796.0221328	3373796.53868773
62	18	0	0	90	36.1581920903955	36.241610738255	20	0.666709119826555	2	10	1	NaN	2	4	0.059286764476989	0	1	NaN	72	2	9	2	120	220	320	NaN	520	0.956537468824536	2	1	NaN	3373797.7890577	NaN	3373798.7724172	3373799.28895563
62	18	0	0	90	36.1581920903955	36.241610738255	18	0.6000382078439	2	8	5	NaN	2	3	0.059286764476989	0	1	NaN	73	2	10	2	120	220	320	NaN	520	0.497667568735778	2	1	NaN	3373801.0560035	NaN	3373802.039425	3373802.55594393
62	18	0	0	90	36.1581920903955	36.241610738255	10	0.333354559913278	2	9	2	NaN	2	4	0.059286764476989	0	1	NaN	74	2	11	2	120	220	320	NaN	520	0.593216568697244	2	1	NaN	3373803.8562602	NaN	3373804.8396811	3373805.35621553
62	18	0	0	90	36.1581920903955	36.241610738255	13	0.433360927887261	2	9	5	NaN	2	3	0.059286764476989	0	1	NaN	75	2	12	2	120	220	320	NaN	520	0.628709616139531	2	1	NaN	3373806.773223	NaN	3373807.7566791	3373808.27317988
62	18	0	0	90	36.1581920903955	36.241610738255	12	0.400025471895933	2	8	4	NaN	2	3	0.059286764476989	0	1	NaN	76	2	13	2	120	220	320	NaN	520	0.514639321248978	2	1	NaN	3373809.8068228	NaN	3373810.7902605	3373811.30681068
62	18	0	0	90	36.1581920903955	36.241610738255	16	0.533367295861244	2	6	4	NaN	1	4	0.059286764476989	0	1	NaN	77	2	14	2	120	220	320	NaN	520	0.138202368747443	1	1	NaN	3373812.6237971	NaN	3373813.6071996	3373814.12374723
62	18	0	0	90	36.1581920903955	36.241610738255	12	0.400025471895933	2	12	2	NaN	2	3	0.059286764476989	0	1	NaN	78	2	15	2	120	220	320	NaN	520	1.14325802121311	1	0	NaN	3373815.2906957	NaN	3373816.2741337	3373816.79068168
62	18	0	0	90	36.1581920903955	36.241610738255	6	0.200012735947967	2	2	4	NaN	1	3	0.059286764476989	0	1	NaN	79	2	16	2	120	220	320	NaN	520	0.349026568699628	1	1	NaN	3373818.741067	NaN	3373819.7244686	3373820.24101093
62	18	0	0	90	36.1581920903955	36.241610738255	9	0.30001910392195	2	7	1	NaN	2	3	0.059286764476989	0	1	NaN	80	2	17	2	120	220	320	NaN	520	0.329550763592124	2	1	NaN	3373821.4080985	NaN	3373822.3914267	3373822.90794584
62	18	0	0	90	36.1581920903955	36.241610738255	7	0.233348191939294	2	9	6	NaN	2	3	0.059286764476989	0	1	NaN	81	2	18	2	120	220	320	NaN	520	0.168297068681568	1	0	NaN	3373824.041582	NaN	3373825.0249776	3373825.54153703
62	18	0	0	90	36.1581920903955	36.241610738255	9	0.30001910392195	2	4	2	NaN	1	5	0.059286764476989	0	1	NaN	82	2	19	2	120	220	320	NaN	520	1.70125762093812	1	1	NaN	3373826.5251709	NaN	3373827.5085656	3373828.02511998
62	18	0	0	90	36.1581920903955	36.241610738255	15	0.500031839869916	2	11	4	NaN	2	5	0.059286764476989	0	1	NaN	83	2	20	2	120	220	320	NaN	520	1.41976526891813	1	0	NaN	3373830.5422441	NaN	3373831.5256172	3373832.04217663
62	18	0	0	90	36.1581920903955	36.241610738255	0	0	1	8	2	NaN	2	4	0.059286764476989	0	1	NaN	84	2	21	2	110	210	310	NaN	510	2.49407788412645	2	1	NaN	3373834.4759676	NaN	3373835.459347	3373835.97589882
62	18	0	0	90	36.1581920903955	36.241610738255	6	0.200012735947967	2	8	3	NaN	2	3	0.059286764476989	0	1	NaN	85	2	22	2	120	220	320	NaN	520	2.04425611579791	2	1	NaN	3373839.5096342	NaN	3373840.493167	3373841.00971718
62	18	0	0	90	36.1581920903955	36.241610738255	19	0.633373663835228	2	7	2	NaN	2	4	0.059286764476989	0	1	NaN	86	2	23	2	120	220	320	NaN	520	0.469166721217334	1	0	NaN	3373843.8768696	NaN	3373844.8602696	3373845.37682028
62	18	0	0	90	36.1581920903955	36.241610738255	10	0.333354559913278	2	2	1	NaN	1	5	0.059286764476989	0	1	NaN	87	2	24	2	120	220	320	NaN	520	0.795902979094535	1	1	NaN	3373846.8938066	NaN	3373847.87722	3373848.39378232
62	18	0	0	90	36.1581920903955	36.241610738255	21	0.700044575817883	2	11	3	NaN	2	3	0.059286764476989	0	1	NaN	88	2	25	2	120	220	320	NaN	520	2.28734012087807	1	0	NaN	3373850.0107719	NaN	3373850.9942344	3373851.51075478
62	18	0	0	90	36.1581920903955	36.241610738255	21	0.700044575817883	2	12	2	NaN	2	5	0.059286764476989	0	1	NaN	89	2	26	2	120	220	320	NaN	520	3.48655976867303	1	0	NaN	3373854.6111882	NaN	3373855.5946609	3373856.11120563
62	18	0	0	90	36.1581920903955	36.241610738255	20	0.666709119826555	2	11	6	NaN	2	3	0.059286764476989	0	1	NaN	90	2	27	2	120	220	320	NaN	520	0.31355972122401	1	0	NaN	3373860.528379	NaN	3373861.5119097	3373862.02845608
62	18	0	0	90	36.1581920903955	36.241610738255	13	0.433360927887261	2	1	1	NaN	1	4	0.059286764476989	0	1	NaN	91	2	28	2	120	220	320	NaN	520	0.0104159684851766	1	1	NaN	3373863.1454306	NaN	3373864.1288269	3373864.64537603
62	18	0	0	90	36.1581920903955	36.241610738255	22	0.733380031809211	2	8	2	NaN	2	4	0.059286764476989	0	1	NaN	92	2	29	2	120	220	320	NaN	520	0.0104195685125887	2	1	NaN	3373865.4623103	NaN	3373866.445707	3373866.96226743
62	18	0	0	90	36.1581920903955	36.241610738255	0	0	1	6	1	NaN	1	5	0.059286764476989	0	1	NaN	93	2	30	2	110	210	310	NaN	510	1.4148054686375	2	0	NaN	3373867.7792224	NaN	3373868.762612	3373869.27916743
62	18	0	0	90	36.1581920903955	36.241610738255	16	0.533367295861244	2	10	3	NaN	2	3	0.059286764476989	0	1	NaN	94	2	31	2	120	220	320	NaN	520	0.488944521173835	2	1	NaN	3373871.5129353	NaN	3373872.4963119	3373873.01286248
62	18	0	0	90	36.1581920903955	36.241610738255	20	0.666709119826555	2	3	4	NaN	1	3	0.059286764476989	0	1	NaN	95	2	32	2	120	220	320	NaN	520	0.176873368676752	1	1	NaN	3373874.3131308	NaN	3373875.2966139	3373875.81315613
62	18	0	0	90	36.1581920903955	36.241610738255	8	0.266683647930622	2	11	1	NaN	2	5	0.059286764476989	0	1	NaN	96	2	33	2	120	220	320	NaN	520	0.0104392161592841	2	1	NaN	3373909.2499765	NaN	3373910.2333579	3373910.74990648
62	18	0	0	90	36.1581920903955	36.241610738255	8	0.266683647930622	2	4	4	NaN	1	3	0.059286764476989	0	1	NaN	97	2	34	2	120	220	320	NaN	520	1.8986974209547	2	0	NaN	3373911.5833769	NaN	3373912.5669162	3373913.08347508
62	18	0	0	90	36.1581920903955	36.241610738255	6	0.200012735947967	2	9	3	NaN	2	5	0.059286764476989	0	1	NaN	98	2	35	2	120	220	320	NaN	520	0.43318876856938	1	0	NaN	3373915.800608	NaN	3373916.7840003	3373917.30054863
62	18	0	0	90	36.1581920903955	36.241610738255	8	0.266683647930622	2	9	5	NaN	2	5	0.059286764476989	0	1	NaN	99	2	36	2	120	220	320	NaN	520	0.658890021033585	1	0	NaN	3373918.5508651	NaN	3373919.5342563	3373920.05082068
62	18	0	0	90	36.1581920903955	36.241610738255	25	0.833386399783194	2	11	3	NaN	2	5	0.059286764476989	0	1	NaN	100	2	37	2	120	220	320	NaN	520	0.380222416017205	2	1	NaN	3373921.5178253	NaN	3373922.5012414	3373923.01777758
62	18	0	0	90	36.1581920903955	36.241610738255	13	0.433360927887261	2	7	3	NaN	2	5	0.059286764476989	0	1	NaN	101	2	38	2	120	220	320	NaN	520	0.263586189597845	2	1	NaN	3373924.2180881	NaN	3373925.2014658	3373925.71804611
62	18	0	0	90	36.1581920903955	36.241610738255	9	0.30001910392195	2	3	3	NaN	1	4	0.059286764476989	0	1	NaN	102	2	39	2	120	220	320	NaN	520	0.264933968428522	1	1	NaN	3373926.7850088	NaN	3373927.768406	3373928.28495853
62	18	0	0	90	36.1581920903955	36.241610738255	20	0.666709119826555	2	12	5	NaN	2	3	0.059286764476989	0	1	NaN	103	2	40	2	120	220	320	NaN	520	0.497263721656054	1	0	NaN	3373929.3685941	NaN	3373930.3520019	3373930.86854738
62	18	0	0	90	36.1581920903955	36.241610738255	0	0	1	8	2	NaN	2	5	0.059286764476989	0	1	NaN	104	2	41	2	110	210	310	NaN	510	0.256242121104151	2	1	NaN	3373932.1855371	NaN	3373933.1689329	3373933.68549518
62	18	0	0	90	36.1581920903955	36.241610738255	23	0.766715487800539	2	12	1	NaN	2	4	0.059286764476989	0	1	NaN	105	2	42	2	120	220	320	NaN	520	0.345337921287864	2	1	NaN	3373934.7524371	NaN	3373935.7358649	3373936.25241128
62	18	0	0	90	36.1581920903955	36.241610738255	12	0.400025471895933	2	2	6	NaN	1	5	0.059286764476989	0	1	NaN	106	2	43	2	120	220	320	NaN	520	0.791462268680334	2	0	NaN	3373937.4027202	NaN	3373938.386124	3373938.90266803
62	18	0	0	90	36.1581920903955	36.241610738255	20	0.666709119826555	2	9	1	NaN	2	3	0.059286764476989	0	1	NaN	107	2	44	2	120	220	320	NaN	520	3.22665576869622	1	0	NaN	3373940.503018	NaN	3373941.4864471	3373942.00298183
62	18	0	0	90	36.1581920903955	36.241610738255	7	0.233348191939294	2	8	5	NaN	2	3	0.059286764476989	0	1	NaN	108	2	45	2	120	220	320	NaN	520	0.749263868667185	2	1	NaN	3373946.0369273	NaN	3373947.0203208	3373947.53685123
62	18	0	0	90	36.1581920903955	36.241610738255	0	0	1	1	4	NaN	1	4	0.059286764476989	0	1	NaN	109	2	46	2	110	210	310	NaN	510	0.802092921454459	2	0	NaN	3373949.1038882	NaN	3373950.0871786	3373950.60382848
62	18	0	0	90	36.1581920903955	36.241610738255	8	0.266683647930622	2	8	6	NaN	2	4	0.059286764476989	0	1	NaN	110	2	47	2	120	220	320	NaN	520	0.33336266875267	1	0	NaN	3373952.2207103	NaN	3373953.2042605	3373953.72080283
62	18	0	0	90	36.1581920903955	36.241610738255	6	0.200012735947967	2	10	5	NaN	2	3	0.059286764476989	0	1	NaN	111	2	48	2	120	220	320	NaN	520	2.30680892104283	1	0	NaN	3373954.8711053	NaN	3373955.8545049	3373956.37105728
62	18	0	0	90	36.1581920903955	36.241610738255	20	0.666709119826555	2	1	4	NaN	1	3	0.059286764476989	0	1	NaN	112	2	49	2	120	220	320	NaN	520	1.79376256885007	1	1	NaN	3373959.4881788	NaN	3373960.4716166	3373960.98817703
62	18	0	0	90	36.1581920903955	36.241610738255	21	0.700044575817883	2	7	3	NaN	2	4	0.059286764476989	0	1	NaN	113	2	50	2	120	220	320	NaN	520	1.23738032113761	2	1	NaN	3373963.5884971	NaN	3373964.5720418	3373965.08858128
62	18	0	0	90	36.1581920903955	36.241610738255	16	0.533367295861244	2	12	1	NaN	2	3	0.059286764476989	0	1	NaN	114	2	51	2	120	220	320	NaN	520	0.79901536880061	1	0	NaN	3373967.1389975	NaN	3373968.1223764	3373968.63891793
62	18	0	0	90	36.1581920903955	36.241610738255	15	0.500031839869916	2	6	5	NaN	1	4	0.059286764476989	0	1	NaN	115	2	52	2	120	220	320	NaN	520	1.21780992113054	1	1	NaN	3373970.2559752	NaN	3373971.2393527	3373971.75590198
62	18	0	0	90	36.1581920903955	36.241610738255	13	0.433360927887261	2	10	4	NaN	2	3	0.059286764476989	0	1	NaN	116	2	53	2	120	220	320	NaN	520	1.60438726842403	1	0	NaN	3373973.7896468	NaN	3373974.7730347	3373975.28958423
62	18	0	0	90	36.1581920903955	36.241610738255	18	0.6000382078439	2	5	6	NaN	1	5	0.059286764476989	0	1	NaN	117	2	54	2	120	220	320	NaN	520	3.88948012143373	2	0	NaN	3373977.8567038	NaN	3373978.8400904	3373979.35664378
62	18	0	0	90	36.1581920903955	36.241610738255	7	0.233348191939294	2	6	5	NaN	1	3	0.059286764476989	0	1	NaN	118	2	55	2	120	220	320	NaN	520	0.0103830737061799	1	1	NaN	3373984.0571706	NaN	3373985.0407081	3373985.55726043
62	18	0	0	90	36.1581920903955	36.241610738255	20	0.666709119826555	2	6	5	NaN	1	4	0.059286764476989	0	1	NaN	119	2	56	2	120	220	320	NaN	520	0.0104067213833332	2	0	NaN	3373986.3909627	NaN	3373987.3742708	3373987.89082338
62	18	0	0	90	36.1581920903955	36.241610738255	7	0.233348191939294	2	2	6	NaN	1	4	0.059286764476989	0	1	NaN	120	2	57	2	120	220	320	NaN	520	0.246209268458188	2	0	NaN	3373988.7077588	NaN	3373989.6911591	3373990.20770803
62	18	0	0	90	36.1581920903955	36.241610738255	14	0.466696383878589	2	4	4	NaN	1	5	0.059286764476989	0	1	NaN	121	2	58	2	120	220	320	NaN	520	3.55117732100189	2	0	NaN	3373991.274554	NaN	3373992.258108	3373992.77463588
62	18	0	0	90	36.1581920903955	36.241610738255	7	0.233348191939294	2	9	6	NaN	2	5	0.059286764476989	0	1	NaN	122	2	59	2	120	220	320	NaN	520	0.010403121355921	2	1	NaN	3373997.3584904	NaN	3373998.3419969	3373998.85856558
62	18	0	0	90	36.1581920903955	36.241610738255	24	0.800050943791866	2	6	3	NaN	1	5	0.059286764476989	0	1	NaN	123	2	60	2	120	220	320	NaN	520	2.19845112087205	2	0	NaN	3373999.6755197	NaN	3374000.6589059	3374001.17546188
62	18	0	0	90	36.1581920903955	36.241610738255	14	0.466696383878589	2	3	4	NaN	1	4	0.059286764476989	0	1	NaN	124	2	61	2	120	220	320	NaN	520	0.313243568874896	2	0	NaN	3374004.1926057	NaN	3374005.1759968	3374005.69256013
62	18	0	0	90	36.1581920903955	36.241610738255	9	0.30001910392195	2	8	1	NaN	2	4	0.059286764476989	0	1	NaN	125	2	62	2	120	220	320	NaN	520	0.415964020881802	2	1	NaN	3374006.8262153	NaN	3374007.809619	3374008.32616418
62	18	0	0	90	36.1581920903955	36.241610738255	9	0.30001910392195	2	1	3	NaN	1	5	0.059286764476989	0	1	NaN	126	2	63	2	120	220	320	NaN	520	0.418416868429631	2	0	NaN	3374009.5598107	NaN	3374010.5432478	3374011.05975293
62	18	0	0	90	36.1581920903955	36.241610738255	25	0.833386399783194	2	4	2	NaN	1	5	0.059286764476989	0	1	NaN	127	3	1	2	120	220	320	NaN	520	0.0104095684364438	1	1	NaN	3374018.5273551	NaN	3374019.5107422	3374020.02730443
62	18	0	0	90	36.1581920903955	36.241610738255	16	0.533367295861244	2	4	6	NaN	1	4	0.059286764476989	0	1	NaN	128	3	2	2	120	220	320	NaN	520	0.317708421032876	1	1	NaN	3374020.8441396	NaN	3374021.8275454	3374022.34420368
62	18	0	0	90	36.1581920903955	36.241610738255	0	0	1	7	1	NaN	2	3	0.059286764476989	0	1	NaN	129	3	3	2	110	210	310	NaN	510	1.11605310020968	1	0	NaN	3374023.477839	NaN	3374024.4612371	3374024.9778171
62	18	0	0	90	36.1581920903955	36.241610738255	23	0.766715487800539	2	10	2	NaN	2	3	0.059286764476989	0	1	NaN	130	3	4	2	120	220	320	NaN	520	0.378775668330491	1	0	NaN	3374026.9115392	NaN	3374027.8949184	3374028.41145753
62	18	0	0	90	36.1581920903955	36.241610738255	16	0.533367295861244	2	7	4	NaN	2	3	0.059286764476989	0	1	NaN	131	3	5	2	120	220	320	NaN	520	0.896984868682921	2	1	NaN	3374029.7449942	NaN	3374030.7285361	3374031.24507173
62	18	0	0	90	36.1581920903955	36.241610738255	12	0.400025471895933	2	1	5	NaN	1	5	0.059286764476989	0	1	NaN	132	3	6	2	120	220	320	NaN	520	0.2331562214531	2	0	NaN	3374033.1287527	NaN	3374034.1121793	3374034.62874678
62	18	0	0	90	36.1581920903955	36.241610738255	24	0.800050943791866	2	1	3	NaN	1	3	0.059286764476989	0	1	NaN	133	3	7	2	120	220	320	NaN	520	0.596993715967983	2	0	NaN	3374035.8290775	NaN	3374036.8124587	3374037.32900028
62	18	0	0	90	36.1581920903955	36.241610738255	7	0.233348191939294	2	10	4	NaN	2	4	0.059286764476989	0	1	NaN	134	3	8	2	120	220	320	NaN	520	0.720630321186036	2	1	NaN	3374038.7292215	NaN	3374039.7127443	3374040.22929148
62	18	0	0	90	36.1581920903955	36.241610738255	22	0.733380031809211	2	7	5	NaN	2	4	0.059286764476989	0	1	NaN	135	3	9	2	120	220	320	NaN	520	0.382948368787766	2	1	NaN	3374041.7629225	NaN	3374042.7463664	3374043.26291893
62	18	0	0	90	36.1581920903955	36.241610738255	25	0.833386399783194	2	3	6	NaN	1	4	0.059286764476989	0	1	NaN	136	3	10	2	120	220	320	NaN	520	0.522855068556964	2	0	NaN	3374044.4632433	NaN	3374045.4466347	3374045.96317943
62	18	0	0	90	36.1581920903955	36.241610738255	17	0.566702751852572	2	1	2	NaN	1	3	0.059286764476989	0	1	NaN	137	3	11	2	120	220	320	NaN	520	0.010410868562758	1	1	NaN	3374047.296844	NaN	3374048.2802384	3374048.79679353
62	18	0	0	90	36.1581920903955	36.241610738255	6	0.200012735947967	2	8	3	NaN	2	4	0.059286764476989	0	1	NaN	138	3	12	2	120	220	320	NaN	520	0.0104109211824834	2	1	NaN	3374049.613623	NaN	3374050.5971493	3374051.11370078
62	18	0	0	90	36.1581920903955	36.241610738255	8	0.266683647930622	2	7	6	NaN	2	3	0.059286764476989	0	1	NaN	139	3	13	2	120	220	320	NaN	520	0.735388268716633	2	1	NaN	3374051.9306383	NaN	3374052.9140288	3374053.43058963
62	18	0	0	90	36.1581920903955	36.241610738255	20	0.666709119826555	2	12	4	NaN	2	3	0.059286764476989	0	1	NaN	140	3	14	2	120	220	320	NaN	520	0.605125620961189	2	1	NaN	3374054.980919	NaN	3374055.9643125	3374056.48089408
62	18	0	0	90	36.1581920903955	36.241610738255	10	0.333354559913278	2	3	2	NaN	1	3	0.059286764476989	0	1	NaN	141	3	15	2	120	220	320	NaN	520	0.82440596818924	1	1	NaN	3374057.8978885	NaN	3374058.881291	3374059.39783663
62	18	0	0	90	36.1581920903955	36.241610738255	13	0.433360927887261	2	7	3	NaN	2	5	0.059286764476989	0	1	NaN	142	3	16	2	120	220	320	NaN	520	0.62636856874451	2	1	NaN	3374061.0315383	NaN	3374062.0149343	3374062.53148743
62	18	0	0	90	36.1581920903955	36.241610738255	25	0.833386399783194	2	10	5	NaN	2	4	0.059286764476989	0	1	NaN	143	3	17	2	120	220	320	NaN	520	0.285146315582097	1	0	NaN	3374063.9651936	NaN	3374064.9485273	3374065.46509988
62	18	0	0	90	36.1581920903955	36.241610738255	18	0.6000382078439	2	9	4	NaN	2	4	0.059286764476989	0	1	NaN	144	3	18	2	120	220	320	NaN	520	0.0685971737839282	2	1	NaN	3374066.5654223	NaN	3374067.54884	3374068.06535693
62	18	0	0	90	36.1581920903955	36.241610738255	10	0.333354559913278	2	11	3	NaN	2	4	0.059286764476989	0	1	NaN	145	3	19	2	120	220	320	NaN	520	0.293393368367106	2	1	NaN	3374068.9489953	NaN	3374069.9323826	3374070.44892403
62	18	0	0	90	36.1581920903955	36.241610738255	24	0.800050943791866	2	8	6	NaN	2	4	0.059286764476989	0	1	NaN	146	3	20	2	120	220	320	NaN	520	0.0288917212747037	2	1	NaN	3374071.549266	NaN	3374072.5326213	3374073.04918668
62	18	0	0	90	36.1581920903955	36.241610738255	15	0.500031839869916	2	3	3	NaN	1	3	0.059286764476989	0	1	NaN	147	3	21	2	120	220	320	NaN	520	1.27079186867923	1	1	NaN	3374073.8994739	NaN	3374074.8828586	3374075.39941533
62	18	0	0	90	36.1581920903955	36.241610738255	25	0.833386399783194	2	12	6	NaN	2	5	0.059286764476989	0	1	NaN	148	3	22	2	120	220	320	NaN	520	0.423242621123791	2	1	NaN	3374077.4831789	NaN	3374078.4665502	3374078.98310348
62	18	0	0	90	36.1581920903955	36.241610738255	24	0.800050943791866	2	11	2	NaN	2	3	0.059286764476989	0	1	NaN	149	3	23	2	120	220	320	NaN	520	0.329380268696696	2	1	NaN	3374080.2167511	NaN	3374081.2001546	3374081.71669653
62	18	0	0	90	36.1581920903955	36.241610738255	14	0.466696383878589	2	6	4	NaN	1	4	0.059286764476989	0	1	NaN	150	3	24	2	120	220	320	NaN	520	0.0103918211534619	2	0	NaN	3374082.8669562	NaN	3374083.850411	3374084.36696538
62	18	0	0	90	36.1581920903955	36.241610738255	19	0.633373663835228	2	10	6	NaN	2	4	0.059286764476989	0	1	NaN	151	3	25	2	120	220	320	NaN	520	0.35434796847403	1	0	NaN	3374085.1839101	NaN	3374086.1673137	3374086.68384943
62	18	0	0	90	36.1581920903955	36.241610738255	9	0.30001910392195	2	6	2	NaN	1	3	0.059286764476989	0	1	NaN	152	3	26	2	120	220	320	NaN	520	0.471489221323282	1	1	NaN	3374087.850711	NaN	3374088.8342327	3374089.35078688
62	18	0	0	90	36.1581920903955	36.241610738255	23	0.766715487800539	2	1	2	NaN	1	4	0.059286764476989	0	1	NaN	153	3	27	2	120	220	320	NaN	520	2.10296636866406	1	1	NaN	3374090.8511685	NaN	3374091.8345698	3374092.35107353
62	18	0	0	90	36.1581920903955	36.241610738255	9	0.30001910392195	2	11	6	NaN	2	3	0.059286764476989	0	1	NaN	154	3	28	2	120	220	320	NaN	520	4.34095882158726	1	0	NaN	3374095.4849281	NaN	3374096.4683706	3374096.98487258
62	18	0	0	90	36.1581920903955	36.241610738255	20	0.666709119826555	2	11	4	NaN	2	3	0.059286764476989	0	1	NaN	155	3	29	2	120	220	320	NaN	520	0.554534316062927	2	1	NaN	3374102.1355669	NaN	3374103.1189616	3374103.63551258
62	18	0	0	90	36.1581920903955	36.241610738255	7	0.233348191939294	2	3	5	NaN	1	4	0.059286764476989	0	1	NaN	156	3	30	2	120	220	320	NaN	520	0.935481768567115	2	0	NaN	3374105.0025419	NaN	3374105.9859136	3374106.50246163
62	18	0	0	90	36.1581920903955	36.241610738255	25	0.833386399783194	2	6	1	NaN	1	5	0.059286764476989	0	1	NaN	157	3	31	2	120	220	320	NaN	520	0.636060821358114	1	1	NaN	3374108.485529	NaN	3374109.4696242	3374109.98614468
62	18	0	0	90	36.1581920903955	36.241610738255	17	0.566702751852572	2	8	6	NaN	2	5	0.059286764476989	0	1	NaN	158	3	32	2	120	220	320	NaN	520	1.55752002121881	2	1	NaN	3374111.4364816	NaN	3374112.4198792	3374112.93643758
62	18	0	0	90	36.1581920903955	36.241610738255	19	0.633373663835228	2	11	2	NaN	2	5	0.059286764476989	0	1	NaN	159	3	33	2	120	220	320	NaN	520	1.17234146874398	1	0	NaN	3374115.4701317	NaN	3374116.4536164	3374116.97015743
62	18	0	0	90	36.1581920903955	36.241610738255	15	0.500031839869916	2	9	3	NaN	2	5	0.059286764476989	0	1	NaN	160	3	34	2	120	220	320	NaN	520	2.73600866831839	2	1	NaN	3374118.9538782	NaN	3374119.9373098	3374120.45383833
62	18	0	0	90	36.1581920903955	36.241610738255	8	0.266683647930622	2	5	4	NaN	1	5	0.059286764476989	0	1	NaN	161	3	35	2	120	220	320	NaN	520	1.13470626855269	1	1	NaN	3374124.1877384	NaN	3374125.1711114	3374125.68768553
62	18	0	0	90	36.1581920903955	36.241610738255	23	0.766715487800539	2	7	1	NaN	2	3	0.059286764476989	0	1	NaN	162	3	36	2	120	220	320	NaN	520	0.604175968561321	1	0	NaN	3374127.6380881	NaN	3374128.621459	3374129.13802183
62	18	0	0	90	36.1581920903955	36.241610738255	16	0.533367295861244	2	6	6	NaN	1	3	0.059286764476989	0	1	NaN	163	3	37	2	120	220	320	NaN	520	0.895039015915245	1	1	NaN	3374130.5550341	NaN	3374131.5384249	3374132.05496888
62	18	0	0	90	36.1581920903955	36.241610738255	10	0.333354559913278	2	5	2	NaN	1	3	0.059286764476989	0	1	NaN	164	3	38	2	120	220	320	NaN	520	1.66045972099528	2	0	NaN	3374134.022046	NaN	3374135.0054324	3374135.52200788
62	18	0	0	90	36.1581920903955	36.241610738255	8	0.266683647930622	2	5	2	NaN	1	4	0.059286764476989	0	1	NaN	165	3	39	2	120	220	320	NaN	520	2.16535866865888	2	0	NaN	3374137.9889702	NaN	3374138.972489	3374139.48903383
62	18	0	0	90	36.1581920903955	36.241610738255	10	0.333354559913278	2	3	4	NaN	1	5	0.059286764476989	0	1	NaN	166	3	40	2	120	220	320	NaN	520	0.0103947212919593	2	0	NaN	3374142.4728861	NaN	3374143.456272	3374143.97281988
62	18	0	0	90	36.1581920903955	36.241610738255	0	0	1	12	1	NaN	2	3	0.059286764476989	0	1	NaN	167	3	41	2	110	210	310	NaN	510	0.164392868522555	2	1	NaN	3374144.7897564	NaN	3374145.7731566	3374146.28971073
62	18	0	0	90	36.1581920903955	36.241610738255	17	0.566702751852572	2	4	1	NaN	1	5	0.059286764476989	0	1	NaN	168	3	42	2	120	220	320	NaN	520	2.9608779209666	2	0	NaN	3374147.2733434	NaN	3374148.2567181	3374148.77328878
62	18	0	0	90	36.1581920903955	36.241610738255	23	0.766715487800539	2	6	4	NaN	1	3	0.059286764476989	0	1	NaN	169	3	43	2	120	220	320	NaN	520	0.365709368139505	1	1	NaN	3374152.5403956	NaN	3374153.5239116	3374154.04046613
62	18	0	0	90	36.1581920903955	36.241610738255	16	0.533367295861244	2	5	5	NaN	1	5	0.059286764476989	0	1	NaN	170	3	44	2	120	220	320	NaN	520	1.00512192118913	1	1	NaN	3374156.7409092	NaN	3374157.7243341	3374158.24088728
62	18	0	0	90	36.1581920903955	36.241610738255	25	0.833386399783194	2	8	6	NaN	2	5	0.059286764476989	0	1	NaN	171	3	45	2	120	220	320	NaN	520	1.52018406847492	1	0	NaN	3374160.0579182	NaN	3374161.0413165	3374161.55787403
62	18	0	0	90	36.1581920903955	36.241610738255	15	0.500031839869916	2	6	1	NaN	1	4	0.059286764476989	0	1	NaN	172	3	46	2	120	220	320	NaN	520	0.4308364209719	1	1	NaN	3374163.8916322	NaN	3374164.8750349	3374165.39158098
62	18	0	0	90	36.1581920903955	36.241610738255	14	0.466696383878589	2	7	4	NaN	2	3	0.059286764476989	0	1	NaN	173	3	47	2	120	220	320	NaN	520	0.488276468589902	2	1	NaN	3374166.6419088	NaN	3374167.6252959	3374168.14184973
62	18	0	0	90	36.1581920903955	36.241610738255	9	0.30001910392195	2	2	2	NaN	1	5	0.059286764476989	0	1	NaN	174	3	48	2	120	220	320	NaN	520	2.327897537034	2	0	NaN	3374169.4421842	NaN	3374170.4255837	3374170.94213006
62	18	0	0	90	36.1581920903955	36.241610738255	18	0.6000382078439	2	10	6	NaN	2	4	0.059286764476989	0	1	NaN	175	3	49	2	120	220	320	NaN	520	0.381811758503318	1	0	NaN	3374174.0926661	NaN	3374175.0760874	3374175.59258824
62	18	0	0	90	36.1581920903955	36.241610738255	6	0.200012735947967	2	1	3	NaN	1	5	0.059286764476989	0	1	NaN	176	3	50	2	120	220	320	NaN	520	0.649219668470323	1	1	NaN	3374176.7929461	NaN	3374177.7763246	3374178.29286343
62	18	0	0	90	36.1581920903955	36.241610738255	0	0	1	10	2	NaN	2	5	0.059286764476989	0	1	NaN	177	3	51	2	110	210	310	NaN	510	0.994679068215191	1	0	NaN	3374179.7597102	NaN	3374180.7432761	3374181.25981063
62	18	0	0	90	36.1581920903955	36.241610738255	16	0.533367295861244	2	7	1	NaN	2	5	0.059286764476989	0	1	NaN	178	3	52	2	120	220	320	NaN	520	0.838319321162999	2	1	NaN	3374183.0601947	NaN	3374184.0435888	3374184.56013798
62	18	0	0	90	36.1581920903955	36.241610738255	20	0.666709119826555	2	7	4	NaN	2	5	0.059286764476989	0	1	NaN	179	3	53	2	120	220	320	NaN	520	1.52793546859175	1	0	NaN	3374186.2105222	NaN	3374187.1938947	3374187.71044303
62	18	0	0	90	36.1581920903955	36.241610738255	8	0.266683647930622	2	4	4	NaN	1	4	0.059286764476989	0	1	NaN	180	3	54	2	120	220	320	NaN	520	4.77725792117417	1	1	NaN	3374190.3607746	NaN	3374191.3442841	3374191.86085508
62	18	0	0	90	36.1581920903955	36.241610738255	21	0.700044575817883	2	6	2	NaN	1	5	0.059286764476989	0	1	NaN	181	3	55	2	120	220	320	NaN	520	0.0103908209130168	2	0	NaN	3374197.4449341	NaN	3374198.4283222	3374198.94488478
62	18	0	0	90	36.1581920903955	36.241610738255	15	0.500031839869916	2	12	4	NaN	2	3	0.059286764476989	0	1	NaN	182	3	56	2	120	220	320	NaN	520	1.74409525794908	1	0	NaN	3374199.7618672	NaN	3374200.7452139	3374201.26176364
62	18	0	0	90	36.1581920903955	36.241610738255	13	0.433360927887261	2	12	6	NaN	2	5	0.059286764476989	0	1	NaN	183	3	57	2	120	220	320	NaN	520	4.61334366817027	2	1	NaN	3374203.8288866	NaN	3374204.8122816	3374205.32883713
62	18	0	0	90	36.1581920903955	36.241610738255	21	0.700044575817883	2	9	5	NaN	2	4	0.059286764476989	0	1	NaN	184	3	58	2	120	220	320	NaN	520	0.0103982212021947	2	1	NaN	3374210.8295858	NaN	3374211.8129748	3374212.32953298
62	18	0	0	90	36.1581920903955	36.241610738255	11	0.366690015904605	2	10	6	NaN	2	5	0.059286764476989	0	1	NaN	185	3	59	2	120	220	320	NaN	520	1.73590466845781	2	1	NaN	3374213.1464185	NaN	3374214.1298703	3374214.64641733
62	18	0	0	90	36.1581920903955	36.241610738255	21	0.700044575817883	2	2	5	NaN	1	5	0.059286764476989	0	1	NaN	186	3	60	2	120	220	320	NaN	520	0.0103959213010967	2	0	NaN	3374217.1968662	NaN	3374218.1802773	3374218.69682048
62	18	0	0	90	36.1581920903955	36.241610738255	12	0.400025471895933	2	11	6	NaN	2	5	0.059286764476989	0	1	NaN	187	3	61	2	120	220	320	NaN	520	0.416825268883258	2	1	NaN	3374219.5137533	NaN	3374220.4971545	3374221.01371123
62	18	0	0	90	36.1581920903955	36.241610738255	23	0.766715487800539	2	7	6	NaN	2	4	0.059286764476989	0	1	NaN	188	3	62	2	120	220	320	NaN	520	2.47527522128075	2	1	NaN	3374222.2473476	NaN	3374223.230791	3374223.74731578
62	18	0	0	90	36.1581920903955	36.241610738255	12	0.400025471895933	2	2	1	NaN	1	3	0.059286764476989	0	1	NaN	189	3	63	2	120	220	320	NaN	520	0.0104123684577644	1	1	NaN	3374227.0478323	NaN	3374228.031251	3374228.54778333
62	18	0	0	90	36.1581920903955	36.241610738255	22	0.733380031809211	2	8	6	NaN	2	5	0.059286764476989	0	1	NaN	190	4	1	2	120	220	320	NaN	520	0.134916368406266	2	1	NaN	3374291.5875075	NaN	3374292.5709053	3374293.08745463
62	18	0	0	90	36.1581920903955	36.241610738255	16	0.533367295861244	2	11	3	NaN	2	5	0.059286764476989	0	1	NaN	191	4	2	2	120	220	320	NaN	520	0.300564168486744	2	1	NaN	3374294.0377568	NaN	3374295.0211358	3374295.53768893
62	18	0	0	90	36.1581920903955	36.241610738255	14	0.466696383878589	2	10	2	NaN	2	5	0.059286764476989	0	1	NaN	192	4	3	2	120	220	320	NaN	520	0.395761979278177	1	0	NaN	3374296.654676	NaN	3374297.6380763	3374298.15461782
62	18	0	0	90	36.1581920903955	36.241610738255	24	0.800050943791866	2	11	6	NaN	2	5	0.059286764476989	0	1	NaN	193	4	4	2	120	220	320	NaN	520	0.807318021077663	1	0	NaN	3374299.3548001	NaN	3374300.3383357	3374300.85488258
62	18	0	0	90	36.1581920903955	36.241610738255	21	0.700044575817883	2	10	1	NaN	2	4	0.059286764476989	0	1	NaN	194	4	5	2	120	220	320	NaN	520	0.370508768595755	2	1	NaN	3374302.4719174	NaN	3374303.4552951	3374303.97186263
62	18	0	0	90	36.1581920903955	36.241610738255	22	0.733380031809211	2	6	5	NaN	1	3	0.059286764476989	0	1	NaN	195	4	6	2	120	220	320	NaN	520	1.77516772132367	1	1	NaN	3374305.1555095	NaN	3374306.1389092	3374306.65545958
62	18	0	0	90	36.1581920903955	36.241610738255	8	0.266683647930622	2	10	5	NaN	2	5	0.059286764476989	0	1	NaN	196	4	7	2	120	220	320	NaN	520	0.819203421473503	1	0	NaN	3374309.2390851	NaN	3374310.2226397	3374310.73919598
62	18	0	0	90	36.1581920903955	36.241610738255	16	0.533367295861244	2	1	3	NaN	1	4	0.059286764476989	0	1	NaN	197	4	8	2	120	220	320	NaN	520	0.445829668547958	1	1	NaN	3374312.37288	NaN	3374313.3562844	3374313.87282263
62	18	0	0	90	36.1581920903955	36.241610738255	19	0.633373663835228	2	9	4	NaN	2	4	0.059286764476989	0	1	NaN	198	4	9	2	120	220	320	NaN	520	0.422446915879846	2	1	NaN	3374315.1398311	NaN	3374316.1232128	3374316.63977118
62	18	0	0	90	36.1581920903955	36.241610738255	22	0.733380031809211	2	5	3	NaN	1	5	0.059286764476989	0	1	NaN	199	4	10	2	120	220	320	NaN	520	0.545006621163338	2	0	NaN	3374317.8734446	NaN	3374318.8568235	3374319.37337418
62	18	0	0	90	36.1581920903955	36.241610738255	17	0.566702751852572	2	2	4	NaN	1	4	0.059286764476989	0	1	NaN	200	4	11	2	120	220	320	NaN	520	0.654978515580297	2	0	NaN	3374320.7236919	NaN	3374321.7070958	3374322.22364638
62	18	0	0	90	36.1581920903955	36.241610738255	22	0.733380031809211	2	9	2	NaN	2	5	0.059286764476989	0	1	NaN	201	4	12	2	120	220	320	NaN	520	1.45569032151252	2	1	NaN	3374323.69066	NaN	3374324.6740339	3374325.19061328
62	18	0	0	90	36.1581920903955	36.241610738255	24	0.800050943791866	2	9	3	NaN	2	5	0.059286764476989	0	1	NaN	202	4	13	2	120	220	320	NaN	520	0.392792979255319	1	0	NaN	3374327.4576932	NaN	3374328.4410856	3374328.95765362
62	18	0	0	90	36.1581920903955	36.241610738255	18	0.6000382078439	2	12	3	NaN	2	4	0.059286764476989	0	1	NaN	203	4	14	2	120	220	320	NaN	520	0.0104133686982095	2	1	NaN	3374330.1746307	NaN	3374331.1580225	3374331.67457343
62	18	0	0	90	36.1581920903955	36.241610738255	22	0.733380031809211	2	2	6	NaN	1	3	0.059286764476989	0	1	NaN	204	4	15	2	120	220	320	NaN	520	0.350980768445879	1	1	NaN	3374332.4915161	NaN	3374333.4749091	3374333.99147153
62	18	0	0	90	36.1581920903955	36.241610738255	21	0.700044575817883	2	1	1	NaN	1	3	0.059286764476989	0	1	NaN	205	4	16	2	120	220	320	NaN	520	2.14033782109618	1	1	NaN	3374335.1583801	NaN	3374336.1418425	3374336.65840348
62	18	0	0	90	36.1581920903955	36.241610738255	14	0.466696383878589	2	1	6	NaN	1	5	0.059286764476989	0	1	NaN	206	4	17	2	120	220	320	NaN	520	0.889909368474036	1	1	NaN	3374339.6088885	NaN	3374340.5923053	3374341.10883533
62	18	0	0	90	36.1581920903955	36.241610738255	24	0.800050943791866	2	9	1	NaN	2	4	0.059286764476989	0	1	NaN	207	4	18	2	120	220	320	NaN	520	0.889250568579882	1	0	NaN	3374342.8092305	NaN	3374343.7926004	3374344.30914533
62	18	0	0	90	36.1581920903955	36.241610738255	23	0.766715487800539	2	3	6	NaN	1	5	0.059286764476989	0	1	NaN	208	4	19	2	120	220	320	NaN	520	2.91346836835146	1	1	NaN	3374346.0095179	NaN	3374346.9929182	3374347.50946173
62	18	0	0	90	36.1581920903955	36.241610738255	0	0	1	4	1	NaN	1	4	0.059286764476989	0	1	NaN	209	4	20	2	110	210	310	NaN	510	0.354490421246737	1	1	NaN	3374351.5600288	NaN	3374352.5434684	3374353.06001798
62	18	0	0	90	36.1581920903955	36.241610738255	0	0	1	1	6	NaN	1	4	0.059286764476989	0	1	NaN	210	4	21	2	110	210	310	NaN	510	0.519291936885566	1	1	NaN	3374354.2270056	NaN	3374355.2103946	3374355.72695176
62	18	0	0	90	36.1581920903955	36.241610738255	11	0.366690015904605	2	4	5	NaN	1	5	0.059286764476989	0	1	NaN	211	4	22	2	120	220	320	NaN	520	1.31014926871285	2	0	NaN	3374357.0604941	NaN	3374358.0440014	3374358.56055333
62	18	0	0	90	36.1581920903955	36.241610738255	19	0.633373663835228	2	10	4	NaN	2	3	0.059286764476989	0	1	NaN	212	4	23	2	120	220	320	NaN	520	0.780976021196693	2	1	NaN	3374360.6776005	NaN	3374361.6610196	3374362.17757618
62	18	0	0	90	36.1581920903955	36.241610738255	18	0.6000382078439	2	12	5	NaN	2	3	0.059286764476989	0	1	NaN	213	4	24	2	120	220	320	NaN	520	0.304683568421751	2	1	NaN	3374363.7779162	NaN	3374364.7613277	3374365.27787083
62	18	0	0	90	36.1581920903955	36.241610738255	21	0.700044575817883	2	10	3	NaN	2	4	0.059286764476989	0	1	NaN	214	4	25	2	120	220	320	NaN	520	0.366843068506569	2	1	NaN	3374366.4114964	NaN	3374367.3949466	3374367.91146733
62	18	0	0	90	36.1581920903955	36.241610738255	10	0.333354559913278	2	8	4	NaN	2	5	0.059286764476989	0	1	NaN	215	4	26	2	120	220	320	NaN	520	0.971182568464428	1	0	NaN	3374369.0951079	NaN	3374370.0785085	3374370.59506163
62	18	0	0	90	36.1581920903955	36.241610738255	13	0.433360927887261	2	10	3	NaN	2	5	0.059286764476989	0	1	NaN	216	4	27	2	120	220	320	NaN	520	1.1676645684056	2	1	NaN	3374372.3786434	NaN	3374373.3621753	3374373.87872043
62	18	0	0	90	36.1581920903955	36.241610738255	19	0.633373663835228	2	1	6	NaN	1	4	0.059286764476989	0	1	NaN	217	4	28	2	120	220	320	NaN	520	0.116306221112609	2	0	NaN	3374375.862457	NaN	3374376.8458532	3374377.36240498
62	18	0	0	90	36.1581920903955	36.241610738255	9	0.30001910392195	2	9	1	NaN	2	4	0.059286764476989	0	1	NaN	218	4	29	2	120	220	320	NaN	520	0.0104104685597122	2	1	NaN	3374378.295898	NaN	3374379.2794228	3374379.79596703
62	18	0	0	90	36.1581920903955	36.241610738255	24	0.800050943791866	2	8	5	NaN	2	5	0.059286764476989	0	1	NaN	219	4	30	2	120	220	320	NaN	520	0.925919921137393	2	1	NaN	3374380.6128706	NaN	3374381.5963209	3374382.11286918
62	18	0	0	90	36.1581920903955	36.241610738255	8	0.266683647930622	2	7	5	NaN	2	4	0.059286764476989	0	1	NaN	220	4	31	2	120	220	320	NaN	520	0.579823768697679	2	1	NaN	3374383.846431	NaN	3374384.8299521	3374385.34651303
62	18	0	0	90	36.1581920903955	36.241610738255	13	0.433360927887261	2	2	3	NaN	1	5	0.059286764476989	0	1	NaN	221	4	32	2	120	220	320	NaN	520	0.304271968547255	2	0	NaN	3374386.7301697	NaN	3374387.7135736	3374388.23013403
62	18	0	0	90	36.1581920903955	36.241610738255	23	0.766715487800539	2	10	5	NaN	2	5	0.059286764476989	0	1	NaN	222	4	33	2	120	220	320	NaN	520	0.367353968322277	1	0	NaN	3374389.3471179	NaN	3374390.3304996	3374390.84706193
62	18	0	0	90	36.1581920903955	36.241610738255	0	0	1	3	5	NaN	1	5	0.059286764476989	0	1	NaN	223	4	34	2	110	210	310	NaN	510	0.339880920946598	2	0	NaN	3374392.0306939	NaN	3374393.0140929	3374393.53065618
62	18	0	0	90	36.1581920903955	36.241610738255	11	0.366690015904605	2	4	5	NaN	1	5	0.059286764476989	0	1	NaN	224	4	35	2	120	220	320	NaN	520	0.45760191604495	1	1	NaN	3374394.6808385	NaN	3374395.6644236	3374396.18090998
62	18	0	0	90	36.1581920903955	36.241610738255	11	0.366690015904605	2	7	2	NaN	2	3	0.059286764476989	0	1	NaN	225	4	36	2	120	220	320	NaN	520	0.578930120915174	1	0	NaN	3374397.4479384	NaN	3374398.4313004	3374398.94787438
62	18	0	0	90	36.1581920903955	36.241610738255	22	0.733380031809211	2	4	4	NaN	1	3	0.059286764476989	0	1	NaN	226	4	37	2	120	220	320	NaN	520	1.71029479987919	2	0	NaN	3374400.3481954	NaN	3374401.3316087	3374401.8481664
62	18	0	0	90	36.1581920903955	36.241610738255	22	0.733380031809211	2	3	2	NaN	1	4	0.059286764476989	0	1	NaN	227	4	38	2	120	220	320	NaN	520	0.0104243159294128	1	1	NaN	3374404.3652725	NaN	3374405.3486457	3374405.86519218
62	18	0	0	90	36.1581920903955	36.241610738255	21	0.700044575817883	2	8	3	NaN	2	3	0.059286764476989	0	1	NaN	228	4	39	2	120	220	320	NaN	520	0.304410868790001	2	1	NaN	3374406.6820175	NaN	3374407.6655294	3374408.18208943
62	18	0	0	90	36.1581920903955	36.241610738255	16	0.533367295861244	2	3	6	NaN	1	3	0.059286764476989	0	1	NaN	229	4	40	2	120	220	320	NaN	520	0.57968322141096	1	1	NaN	3374409.3990873	NaN	3374410.3824792	3374410.89902608
62	18	0	0	90	36.1581920903955	36.241610738255	7	0.233348191939294	2	5	1	NaN	1	5	0.059286764476989	0	1	NaN	230	4	41	2	120	220	320	NaN	520	0.540924868546426	2	0	NaN	3374412.3493597	NaN	3374413.3328956	3374413.84931113
62	18	0	0	90	36.1581920903955	36.241610738255	7	0.233348191939294	2	12	3	NaN	2	5	0.059286764476989	0	1	NaN	231	4	42	2	120	220	320	NaN	520	1.36302496818826	1	0	NaN	3374415.1996465	NaN	3374416.1830556	3374416.69958853
62	18	0	0	90	36.1581920903955	36.241610738255	14	0.466696383878589	2	4	3	NaN	1	4	0.059286764476989	0	1	NaN	232	4	43	2	120	220	320	NaN	520	2.99984426843002	1	1	NaN	3374418.8665589	NaN	3374419.8500975	3374420.36662063
62	18	0	0	90	36.1581920903955	36.241610738255	12	0.400025471895933	2	10	1	NaN	2	4	0.059286764476989	0	1	NaN	233	4	44	2	120	220	320	NaN	520	0.329438468441367	2	1	NaN	3374424.2171137	NaN	3374425.200598	3374425.71713973
62	18	0	0	90	36.1581920903955	36.241610738255	23	0.766715487800539	2	12	6	NaN	2	4	0.059286764476989	0	1	NaN	234	4	45	2	120	220	320	NaN	520	0.521629868540913	2	1	NaN	3374427.0007732	NaN	3374427.9842045	3374428.50075443
62	18	0	0	90	36.1581920903955	36.241610738255	6	0.200012735947967	2	10	2	NaN	2	4	0.059286764476989	0	1	NaN	235	4	46	2	120	220	320	NaN	520	0.464127320796251	1	0	NaN	3374429.8344076	NaN	3374430.8178125	3374431.33436928
62	18	0	0	90	36.1581920903955	36.241610738255	18	0.6000382078439	2	7	6	NaN	2	4	0.059286764476989	0	1	NaN	236	4	47	2	120	220	320	NaN	520	0.645131368655711	2	1	NaN	3374432.9012561	NaN	3374433.8847768	3374434.40133713
62	18	0	0	90	36.1581920903955	36.241610738255	15	0.500031839869916	2	2	6	NaN	1	5	0.059286764476989	0	1	NaN	237	4	48	2	120	220	320	NaN	520	0.718626321293414	2	0	NaN	3374435.8682147	NaN	3374436.8517481	3374437.36829388
62	18	0	0	90	36.1581920903955	36.241610738255	19	0.633373663835228	2	8	4	NaN	2	4	0.059286764476989	0	1	NaN	238	4	49	2	120	220	320	NaN	520	0.364887963049114	2	1	NaN	3374438.9019623	NaN	3374439.8853674	3374440.40191604
62	18	0	0	90	36.1581920903955	36.241610738255	9	0.30001910392195	2	11	4	NaN	2	3	0.059286764476989	0	1	NaN	239	4	50	2	120	220	320	NaN	520	0.448993868660182	2	1	NaN	3374441.5854607	NaN	3374442.5689766	3374443.08551333
62	18	0	0	90	36.1581920903955	36.241610738255	18	0.6000382078439	2	1	5	NaN	1	4	0.059286764476989	0	1	NaN	240	4	51	2	120	220	320	NaN	520	0.891008868813515	2	0	NaN	3374444.5358483	NaN	3374445.5192377	3374446.03580633
62	18	0	0	90	36.1581920903955	36.241610738255	15	0.500031839869916	2	7	3	NaN	2	4	0.059286764476989	0	1	NaN	241	4	52	2	120	220	320	NaN	520	0.666278463322669	2	1	NaN	3374447.7361822	NaN	3374448.7195822	3374449.23612754
62	18	0	0	90	36.1581920903955	36.241610738255	19	0.633373663835228	2	3	1	NaN	1	5	0.059286764476989	0	1	NaN	242	4	53	2	120	220	320	NaN	520	0.930643768515438	2	0	NaN	3374450.7198097	NaN	3374451.7031946	3374452.21975013
62	18	0	0	90	36.1581920903955	36.241610738255	0	0	1	2	2	NaN	1	5	0.059286764476989	0	1	NaN	243	4	54	2	110	210	310	NaN	510	0.690874921157956	2	0	NaN	3374454.1201439	NaN	3374455.1035418	3374455.62008268
62	18	0	0	90	36.1581920903955	36.241610738255	21	0.700044575817883	2	9	1	NaN	2	3	0.059286764476989	0	1	NaN	244	4	55	2	120	220	320	NaN	520	1.58759601553902	1	0	NaN	3374457.2870901	NaN	3374458.2705032	3374458.78706998
62	18	0	0	90	36.1581920903955	36.241610738255	25	0.833386399783194	2	6	5	NaN	1	4	0.059286764476989	0	1	NaN	245	4	56	2	120	220	320	NaN	520	0.519460421521217	1	1	NaN	3374461.187461	NaN	3374462.1709108	3374462.68744638
62	18	0	0	90	36.1581920903955	36.241610738255	17	0.566702751852572	2	10	2	NaN	2	3	0.059286764476989	0	1	NaN	246	4	57	2	120	220	320	NaN	520	1.46975786844268	1	0	NaN	3374464.0211065	NaN	3374465.0044959	3374465.52105443
62	18	0	0	90	36.1581920903955	36.241610738255	20	0.666709119826555	2	5	1	NaN	1	4	0.059286764476989	0	1	NaN	247	4	58	2	120	220	320	NaN	520	0.725639715790749	1	1	NaN	3374467.8048184	NaN	3374468.7882102	3374469.30475448
62	18	0	0	90	36.1581920903955	36.241610738255	9	0.30001910392195	2	8	3	NaN	2	4	0.059286764476989	0	1	NaN	248	4	59	2	120	220	320	NaN	520	1.58020616834983	1	0	NaN	3374470.8384368	NaN	3374471.8218427	3374472.33839973
62	18	0	0	90	36.1581920903955	36.241610738255	0	0	1	3	1	NaN	1	3	0.059286764476989	0	1	NaN	249	4	60	2	110	210	310	NaN	510	0.311900221277028	1	1	NaN	3374474.7388313	NaN	3374475.7222173	3374476.23878178
62	18	0	0	90	36.1581920903955	36.241610738255	20	0.666709119826555	2	7	2	NaN	2	4	0.059286764476989	0	1	NaN	250	4	61	2	120	220	320	NaN	520	4.69523912156001	1	0	NaN	3374477.3557456	NaN	3374478.3391594	3374478.85569388
62	18	0	0	90	36.1581920903955	36.241610738255	11	0.366690015904605	2	6	2	NaN	1	4	0.059286764476989	0	1	NaN	251	4	62	2	120	220	320	NaN	520	0.777547321282327	1	1	NaN	3374484.6731842	NaN	3374485.6565191	3374486.17309078
62	18	0	0	90	36.1581920903955	36.241610738255	15	0.500031839869916	2	7	6	NaN	2	5	0.059286764476989	0	1	NaN	252	4	63	2	120	220	320	NaN	520	2.43709176825359	1	0	NaN	3374487.7734512	NaN	3374488.7568266	3374489.27339013
62	18	0	0	90	36.1581920903955	36.241610738255	25	0.833386399783194	2	5	3	NaN	1	3	0.059286764476989	0	1	NaN	253	5	1	2	120	220	320	NaN	520	0.333072021137923	1	1	NaN	3374495.3575598	NaN	3374496.3409118	3374496.85747328
62	18	0	0	90	36.1581920903955	36.241610738255	23	0.766715487800539	2	1	2	NaN	1	4	0.059286764476989	0	1	NaN	254	5	2	2	120	220	320	NaN	520	0.523211821448058	1	1	NaN	3374498.0077791	NaN	3374498.9911837	3374499.50773268
62	18	0	0	90	36.1581920903955	36.241610738255	20	0.666709119826555	2	10	2	NaN	2	3	0.059286764476989	0	1	NaN	255	5	3	2	120	220	320	NaN	520	0.345382068771869	1	0	NaN	3374500.8413918	NaN	3374501.8247834	3374502.34134073
62	18	0	0	90	36.1581920903955	36.241610738255	16	0.533367295861244	2	8	4	NaN	2	3	0.059286764476989	0	1	NaN	256	5	4	2	120	220	320	NaN	520	0.479060420766473	1	0	NaN	3374503.4915319	NaN	3374504.4750496	3374504.99160368
62	18	0	0	90	36.1581920903955	36.241610738255	13	0.433360927887261	2	12	3	NaN	2	3	0.059286764476989	0	1	NaN	257	5	5	2	120	220	320	NaN	520	0.431097516324371	1	0	NaN	3374506.2752552	NaN	3374507.2586503	3374507.77520128
62	18	0	0	90	36.1581920903955	36.241610738255	15	0.500031839869916	2	2	1	NaN	1	5	0.059286764476989	0	1	NaN	258	5	6	2	120	220	320	NaN	520	0.505561336874962	1	1	NaN	3374509.0255236	NaN	3374510.0089256	3374510.52548336
62	18	0	0	90	36.1581920903955	36.241610738255	9	0.30001910392195	2	12	2	NaN	2	5	0.059286764476989	0	1	NaN	259	5	7	2	120	220	320	NaN	520	0.512403868604451	1	0	NaN	3374511.8424658	NaN	3374512.8258957	3374513.34242083
62	18	0	0	90	36.1581920903955	36.241610738255	25	0.833386399783194	2	5	4	NaN	1	3	0.059286764476989	0	1	NaN	260	5	8	2	120	220	320	NaN	520	3.75931532122195	1	1	NaN	3374514.6592749	NaN	3374515.6428156	3374516.15936718
62	18	0	0	90	36.1581920903955	36.241610738255	12	0.400025471895933	2	4	5	NaN	1	4	0.059286764476989	0	1	NaN	261	5	9	2	120	220	320	NaN	520	0.611877584364265	1	1	NaN	3374520.7266719	NaN	3374521.7100668	3374522.22662442
62	18	0	0	90	36.1581920903955	36.241610738255	20	0.666709119826555	2	8	1	NaN	2	4	0.059286764476989	0	1	NaN	262	5	10	2	120	220	320	NaN	520	0.046427121385932	1	0	NaN	3374523.6602837	NaN	3374524.6436387	3374525.16025198
62	18	0	0	90	36.1581920903955	36.241610738255	24	0.800050943791866	2	5	3	NaN	1	4	0.059286764476989	0	1	NaN	263	5	11	2	120	220	320	NaN	520	2.40040836855769	1	1	NaN	3374526.0105303	NaN	3374526.993919	3374527.51048043
62	18	0	0	90	36.1581920903955	36.241610738255	18	0.6000382078439	2	8	3	NaN	2	3	0.059286764476989	0	1	NaN	264	5	12	2	120	220	320	NaN	520	3.32380788959563	1	0	NaN	3374530.710865	NaN	3374531.6943956	3374532.21093801
62	18	0	0	90	36.1581920903955	36.241610738255	21	0.700044575817883	2	6	3	NaN	1	5	0.059286764476989	0	1	NaN	265	5	13	2	120	220	320	NaN	520	1.29792192112654	1	1	NaN	3374536.3448821	NaN	3374537.3282752	3374537.84483118
62	18	0	0	90	36.1581920903955	36.241610738255	9	0.30001910392195	2	5	6	NaN	1	3	0.059286764476989	0	1	NaN	266	5	14	2	120	220	320	NaN	520	2.27283392101526	1	1	NaN	3374539.96175	NaN	3374540.9453005	3374541.46185258
62	18	0	0	90	36.1581920903955	36.241610738255	20	0.666709119826555	2	9	6	NaN	2	5	0.059286764476989	0	1	NaN	267	5	15	2	120	220	320	NaN	520	0.656970268581063	1	0	NaN	3374544.5456819	NaN	3374545.5290734	3374546.04562653
62	18	0	0	90	36.1581920903955	36.241610738255	6	0.200012735947967	2	3	4	NaN	1	5	0.059286764476989	0	1	NaN	268	5	16	2	120	220	320	NaN	520	0.802203473635018	1	1	NaN	3374547.5126459	NaN	3374548.496042	3374549.01259303
62	18	0	0	90	36.1581920903955	36.241610738255	14	0.466696383878589	2	9	3	NaN	2	5	0.059286764476989	0	1	NaN	269	5	17	2	120	220	320	NaN	520	0.764998268336058	1	0	NaN	3374550.6295718	NaN	3374551.6130123	3374552.12956123
62	18	0	0	90	36.1581920903955	36.241610738255	12	0.400025471895933	2	11	4	NaN	2	4	0.059286764476989	0	1	NaN	270	5	18	2	120	220	320	NaN	520	0.274522468447685	2	1	NaN	3374553.6965748	NaN	3374554.6799822	3374555.19652163
62	18	0	0	90	36.1581920903955	36.241610738255	12	0.400025471895933	2	8	6	NaN	2	3	0.059286764476989	0	1	NaN	271	5	19	2	120	220	320	NaN	520	1.41039786813781	2	1	NaN	3374556.2801525	NaN	3374557.2635949	3374557.78011583
62	18	0	0	90	36.1581920903955	36.241610738255	6	0.200012735947967	2	5	5	NaN	1	5	0.059286764476989	0	1	NaN	272	5	20	2	120	220	320	NaN	520	0.0104127684608102	1	1	NaN	3374595.9173986	NaN	3374596.900783	3374597.41734703
62	18	0	0	90	36.1581920903955	36.241610738255	17	0.566702751852572	2	10	5	NaN	2	4	0.059286764476989	0	1	NaN	273	5	21	2	120	220	320	NaN	520	0.010409721173346	1	0	NaN	3374598.2342924	NaN	3374599.2175863	3374599.73424278
62	18	0	0	90	36.1581920903955	36.241610738255	11	0.366690015904605	2	1	4	NaN	1	5	0.059286764476989	0	1	NaN	274	5	22	2	120	220	320	NaN	520	0.355915010441095	1	1	NaN	3374600.5511852	NaN	3374601.534579	3374602.05112969
62	18	0	0	90	36.1581920903955	36.241610738255	8	0.266683647930622	2	1	1	NaN	1	3	0.059286764476989	0	1	NaN	275	5	23	2	120	220	320	NaN	520	0.21661566849798	1	1	NaN	3374603.2181099	NaN	3374604.2015084	3374604.71805283
62	18	0	0	90	36.1581920903955	36.241610738255	21	0.700044575817883	2	1	4	NaN	1	5	0.059286764476989	0	1	NaN	276	5	24	2	120	220	320	NaN	520	0.107262868434191	1	1	NaN	3374605.7516817	NaN	3374606.7349874	3374607.25164083
62	18	0	0	90	36.1581920903955	36.241610738255	15	0.500031839869916	2	3	2	NaN	1	3	0.059286764476989	0	1	NaN	277	5	25	2	120	220	320	NaN	520	0.464881015941501	1	1	NaN	3374608.2019384	NaN	3374609.1853347	3374609.70188618
62	18	0	0	90	36.1581920903955	36.241610738255	11	0.366690015904605	2	6	3	NaN	1	4	0.059286764476989	0	1	NaN	278	5	26	2	120	220	320	NaN	520	0.369294968899339	1	1	NaN	3374610.9855343	NaN	3374611.9689201	3374612.48548903
62	18	0	0	90	36.1581920903955	36.241610738255	22	0.733380031809211	2	4	2	NaN	1	3	0.059286764476989	0	1	NaN	279	5	27	2	120	220	320	NaN	520	0.429710721131414	1	1	NaN	3374613.6692377	NaN	3374614.6525383	3374615.16909288
62	18	0	0	90	36.1581920903955	36.241610738255	11	0.366690015904605	2	2	5	NaN	1	3	0.059286764476989	0	1	NaN	280	5	28	2	120	220	320	NaN	520	0.0104224681854248	2	0	NaN	3374616.4194016	NaN	3374617.4028083	3374617.91935903
62	18	0	0	90	36.1581920903955	36.241610738255	15	0.500031839869916	2	10	3	NaN	2	5	0.059286764476989	0	1	NaN	281	5	29	2	120	220	320	NaN	520	0.0103949210606515	2	1	NaN	3374618.7529664	NaN	3374619.7363629	3374620.25292548
62	18	0	0	90	36.1581920903955	36.241610738255	6	0.200012735947967	2	4	6	NaN	1	3	0.059286764476989	0	1	NaN	282	5	30	2	120	220	320	NaN	520	0.197042768355459	1	1	NaN	3374621.0698674	NaN	3374622.053236	3374622.56980933
62	18	0	0	90	36.1581920903955	36.241610738255	11	0.366690015904605	2	12	3	NaN	2	4	0.059286764476989	0	1	NaN	283	5	31	2	120	220	320	NaN	520	0.0104100685566664	2	1	NaN	3374623.586816	NaN	3374624.5701748	3374625.08672113
62	18	0	0	90	36.1581920903955	36.241610738255	19	0.633373663835228	2	5	4	NaN	1	5	0.059286764476989	0	1	NaN	284	5	32	2	120	220	320	NaN	520	0.3387395683676	2	0	NaN	3374625.9203428	NaN	3374626.9037353	3374627.42029443
62	18	0	0	90	36.1581920903955	36.241610738255	17	0.566702751852572	2	8	5	NaN	2	3	0.059286764476989	0	1	NaN	285	5	33	2	120	220	320	NaN	520	0.353044221177697	2	1	NaN	3374628.7538236	NaN	3374629.737359	3374630.25390668
62	18	0	0	90	36.1581920903955	36.241610738255	19	0.633373663835228	2	6	1	NaN	1	4	0.059286764476989	0	1	NaN	286	5	34	2	120	220	320	NaN	520	0.189901068806648	1	1	NaN	3374631.4208799	NaN	3374632.4042893	3374632.92083123
62	18	0	0	90	36.1581920903955	36.241610738255	24	0.800050943791866	2	4	2	NaN	1	5	0.059286764476989	0	1	NaN	287	5	35	2	120	220	320	NaN	520	0.249706494621933	2	0	NaN	3374634.1211095	NaN	3374635.1045518	3374635.62110561
62	18	0	0	90	36.1581920903955	36.241610738255	22	0.733380031809211	2	2	3	NaN	1	3	0.059286764476989	0	1	NaN	288	5	36	2	120	220	320	NaN	520	0.692382968496531	2	0	NaN	3374637.0547838	NaN	3374638.0381704	3374638.55471723
62	18	0	0	90	36.1581920903955	36.241610738255	24	0.800050943791866	2	12	1	NaN	2	3	0.059286764476989	0	1	NaN	289	5	37	2	120	220	320	NaN	520	0.323783820960671	2	1	NaN	3374640.0550706	NaN	3374641.0384586	3374641.55501558
62	18	0	0	90	36.1581920903955	36.241610738255	7	0.233348191939294	2	2	2	NaN	1	4	0.059286764476989	0	1	NaN	290	5	38	2	120	220	320	NaN	520	0.0982675682753325	1	1	NaN	3374642.688525	NaN	3374643.6721069	3374644.18860593
62	18	0	0	90	36.1581920903955	36.241610738255	7	0.233348191939294	2	1	5	NaN	1	3	0.059286764476989	0	1	NaN	291	5	39	2	120	220	320	NaN	520	0.0104193682782352	1	1	NaN	3374645.1054984	NaN	3374646.0889646	3374646.60550023
62	18	0	0	90	36.1581920903955	36.241610738255	6	0.200012735947967	2	2	5	NaN	1	4	0.059286764476989	0	1	NaN	292	5	40	2	120	220	320	NaN	520	0.540468168444932	2	0	NaN	3374647.4224522	NaN	3374648.4058498	3374648.92240293
62	18	0	0	90	36.1581920903955	36.241610738255	11	0.366690015904605	2	8	2	NaN	2	3	0.059286764476989	0	1	NaN	293	5	41	2	120	220	320	NaN	520	1.05042516859248	1	0	NaN	3374650.2727209	NaN	3374651.2561294	3374651.77268343
62	18	0	0	90	36.1581920903955	36.241610738255	19	0.633373663835228	2	5	4	NaN	1	5	0.059286764476989	0	1	NaN	294	5	42	2	120	220	320	NaN	520	2.83541766833514	2	0	NaN	3374653.6397818	NaN	3374654.6231264	3374655.13968273
62	18	0	0	90	36.1581920903955	36.241610738255	13	0.433360927887261	2	5	4	NaN	1	4	0.059286764476989	0	1	NaN	295	5	43	2	120	220	320	NaN	520	2.93253707373515	2	0	NaN	3374658.7901111	NaN	3374659.7736387	3374660.29018453
62	18	0	0	90	36.1581920903955	36.241610738255	15	0.500031839869916	2	1	3	NaN	1	4	0.059286764476989	0	1	NaN	296	5	44	2	120	220	320	NaN	520	0.0102721420116723	1	1	NaN	3374664.2407516	NaN	3374665.2241663	3374665.74071906
62	18	0	0	90	36.1581920903955	36.241610738255	21	0.700044575817883	2	4	6	NaN	1	4	0.059286764476989	0	1	NaN	297	5	45	2	120	220	320	NaN	520	0.277258068788797	1	1	NaN	3374666.5576801	NaN	3374667.5410696	3374668.05760823
62	18	0	0	90	36.1581920903955	36.241610738255	20	0.666709119826555	2	6	4	NaN	1	3	0.059286764476989	0	1	NaN	298	5	46	2	120	220	320	NaN	520	2.02957186847925	1	1	NaN	3374669.1411192	NaN	3374670.1246731	3374670.64120313
62	18	0	0	90	36.1581920903955	36.241610738255	15	0.500031839869916	2	11	5	NaN	2	5	0.059286764476989	0	1	NaN	299	5	47	2	120	220	320	NaN	520	0.343567374162376	2	1	NaN	3374673.4916653	NaN	3374674.4750798	3374674.99163663
62	18	0	0	90	36.1581920903955	36.241610738255	0	0	1	10	6	NaN	2	4	0.059286764476989	0	1	NaN	300	5	48	2	110	210	310	NaN	510	0.812850868795067	1	0	NaN	3374676.1419353	NaN	3374677.1253354	3374677.64188373
62	18	0	0	90	36.1581920903955	36.241610738255	6	0.200012735947967	2	4	5	NaN	1	5	0.059286764476989	0	1	NaN	301	5	49	2	120	220	320	NaN	520	0.735229420941323	1	1	NaN	3374679.2755844	NaN	3374680.2589777	3374680.77553328
62	18	0	0	90	36.1581920903955	36.241610738255	18	0.6000382078439	2	11	5	NaN	2	5	0.059286764476989	0	1	NaN	302	5	50	2	120	220	320	NaN	520	0.861078668385744	1	0	NaN	3374682.3258715	NaN	3374683.309274	3374683.82582603
62	18	0	0	90	36.1581920903955	36.241610738255	15	0.500031839869916	2	10	3	NaN	2	3	0.059286764476989	0	1	NaN	303	5	51	2	120	220	320	NaN	520	0.838039921596646	1	0	NaN	3374685.4928573	NaN	3374686.4762665	3374686.99280228
62	18	0	0	90	36.1581920903955	36.241610738255	12	0.400025471895933	2	1	5	NaN	1	4	0.059286764476989	0	1	NaN	304	5	52	2	120	220	320	NaN	520	0.743488347623497	1	1	NaN	3374688.6431798	NaN	3374689.6265535	3374690.14310765
62	18	0	0	90	36.1581920903955	36.241610738255	25	0.833386399783194	2	7	2	NaN	2	5	0.059286764476989	0	1	NaN	305	5	53	2	120	220	320	NaN	520	0.485379968769848	1	0	NaN	3374691.6934626	NaN	3374692.676866	3374693.19341073
62	18	0	0	90	36.1581920903955	36.241610738255	17	0.566702751852572	2	5	1	NaN	1	5	0.059286764476989	0	1	NaN	306	5	54	2	120	220	320	NaN	520	0.469479468651116	1	1	NaN	3374694.4937331	NaN	3374695.4771316	3374695.99368793
62	18	0	0	90	36.1581920903955	36.241610738255	24	0.800050943791866	2	5	5	NaN	1	3	0.059286764476989	0	1	NaN	307	5	55	2	120	220	320	NaN	520	0.528790921438485	1	1	NaN	3374697.3940206	NaN	3374698.377433	3374698.89398238
62	18	0	0	90	36.1581920903955	36.241610738255	14	0.466696383878589	2	10	1	NaN	2	3	0.059286764476989	0	1	NaN	308	5	56	2	120	220	320	NaN	520	0.103273268789053	2	1	NaN	3374700.2276371	NaN	3374701.2110509	3374701.72758313
62	18	0	0	90	36.1581920903955	36.241610738255	16	0.533367295861244	2	10	2	NaN	2	4	0.059286764476989	0	1	NaN	309	5	57	2	120	220	320	NaN	520	0.718732921406627	1	0	NaN	3374702.6445363	NaN	3374703.6279401	3374704.14449688
62	18	0	0	90	36.1581920903955	36.241610738255	0	0	1	5	3	NaN	1	3	0.059286764476989	0	1	NaN	310	5	58	2	110	210	310	NaN	510	0.413178168702871	2	0	NaN	3374705.6781682	NaN	3374706.6615721	3374707.17812273
62	18	0	0	90	36.1581920903955	36.241610738255	7	0.233348191939294	2	6	2	NaN	1	3	0.059286764476989	0	1	NaN	311	5	59	2	120	220	320	NaN	520	0.470990373753011	2	0	NaN	3374708.4116586	NaN	3374709.3952179	3374709.91173203
62	18	0	0	90	36.1581920903955	36.241610738255	20	0.666709119826555	2	2	3	NaN	1	4	0.059286764476989	0	1	NaN	312	5	60	2	120	220	320	NaN	520	0.28420606860891	2	0	NaN	3374711.4786767	NaN	3374712.4621495	3374712.97869073
62	18	0	0	90	36.1581920903955	36.241610738255	19	0.633373663835228	2	2	3	NaN	1	5	0.059286764476989	0	1	NaN	313	5	61	2	120	220	320	NaN	520	0.796200068667531	1	1	NaN	3374714.0789902	NaN	3374715.0624233	3374715.57894353
62	18	0	0	90	36.1581920903955	36.241610738255	7	0.233348191939294	2	1	1	NaN	1	4	0.059286764476989	0	1	NaN	314	5	62	2	120	220	320	NaN	520	0.406939289532602	2	0	NaN	3374717.1959757	NaN	3374718.1793721	3374718.69592861
62	18	0	0	90	36.1581920903955	36.241610738255	17	0.566702751852572	2	2	2	NaN	1	4	0.059286764476989	0	1	NaN	315	5	63	2	120	220	320	NaN	520	0.986295868642628	1	1	NaN	3374719.912913	NaN	3374720.8963072	3374721.41285773
62	18	0	0	90	36.1581920903955	36.241610738255	6	0.200012735947967	2	1	2	NaN	1	5	0.059286764476989	0	1	NaN	316	6	1	2	120	220	320	NaN	520	0.668255621101707	1	1	NaN	3374726.4468449	NaN	3374727.4303041	3374727.94683288
62	18	0	0	90	36.1581920903955	36.241610738255	20	0.666709119826555	2	4	1	NaN	1	3	0.059286764476989	0	1	NaN	317	6	2	2	120	220	320	NaN	520	0.346531568560749	1	1	NaN	3374729.4805145	NaN	3374730.4639025	3374730.98046163
62	18	0	0	90	36.1581920903955	36.241610738255	13	0.433360927887261	2	6	6	NaN	1	4	0.059286764476989	0	1	NaN	318	6	3	2	120	220	320	NaN	520	0.327668568585068	1	1	NaN	3374732.1474382	NaN	3374733.130846	3374733.64739553
62	18	0	0	90	36.1581920903955	36.241610738255	19	0.633373663835228	2	9	5	NaN	2	5	0.059286764476989	0	1	NaN	319	6	4	2	120	220	320	NaN	520	0.509265868924558	1	0	NaN	3374734.7976972	NaN	3374735.7811003	3374736.29765003
62	18	0	0	90	36.1581920903955	36.241610738255	25	0.833386399783194	2	11	5	NaN	2	3	0.059286764476989	0	1	NaN	320	6	5	2	120	220	320	NaN	520	2.91666512144729	1	0	NaN	3374737.614666	NaN	3374738.5980679	3374739.11461478
62	18	0	0	90	36.1581920903955	36.241610738255	21	0.700044575817883	2	3	6	NaN	1	4	0.059286764476989	0	1	NaN	321	6	6	2	120	220	320	NaN	520	0.570377116091549	1	1	NaN	3374742.848493	NaN	3374743.8318883	3374744.34843448
62	18	0	0	90	36.1581920903955	36.241610738255	7	0.233348191939294	2	11	5	NaN	2	4	0.059286764476989	0	1	NaN	322	6	7	2	120	220	320	NaN	520	0.542910768650472	1	0	NaN	3374745.7319814	NaN	3374746.7155137	3374747.23205543
62	18	0	0	90	36.1581920903955	36.241610738255	6	0.200012735947967	2	7	6	NaN	2	4	0.059286764476989	0	1	NaN	323	6	8	2	120	220	320	NaN	520	0.388669068459421	1	0	NaN	3374748.5823812	NaN	3374749.5657827	3374750.08233403
62	18	0	0	90	36.1581920903955	36.241610738255	14	0.466696383878589	2	12	2	NaN	2	4	0.059286764476989	0	1	NaN	324	6	9	2	120	220	320	NaN	520	0.320314089301974	1	0	NaN	3374751.2826438	NaN	3374752.2660531	3374752.78262051
62	18	0	0	90	36.1581920903955	36.241610738255	18	0.6000382078439	2	3	6	NaN	1	5	0.059286764476989	0	1	NaN	325	6	10	2	120	220	320	NaN	520	2.48814706876874	1	1	NaN	3374754.0829276	NaN	3374755.0663201	3374755.58288033
62	18	0	0	90	36.1581920903955	36.241610738255	17	0.566702751852572	2	12	2	NaN	2	5	0.059286764476989	0	1	NaN	326	6	11	2	120	220	320	NaN	520	0.376070068683475	1	0	NaN	3374759.0667078	NaN	3374760.0501537	3374760.56670023
62	18	0	0	90	36.1581920903955	36.241610738255	18	0.6000382078439	2	2	5	NaN	1	5	0.059286764476989	0	1	NaN	327	6	12	2	120	220	320	NaN	520	1.90057986835018	1	1	NaN	3374761.7503578	NaN	3374762.7337361	3374763.25029323
62	18	0	0	90	36.1581920903955	36.241610738255	10	0.333354559913278	2	5	1	NaN	1	3	0.059286764476989	0	1	NaN	328	6	13	2	120	220	320	NaN	520	0.315840015653521	2	0	NaN	3374765.9674674	NaN	3374766.9508492	3374767.46738338
62	18	0	0	90	36.1581920903955	36.241610738255	0	0	1	9	5	NaN	2	4	0.059286764476989	0	1	NaN	329	6	14	2	110	210	310	NaN	510	0.742890294641256	2	1	NaN	3374768.6843476	NaN	3374769.6677473	3374770.18431821
62	18	0	0	90	36.1581920903955	36.241610738255	12	0.400025471895933	2	12	1	NaN	2	3	0.059286764476989	0	1	NaN	330	6	15	2	120	220	320	NaN	520	1.48446843679994	2	1	NaN	3374771.7346375	NaN	3374772.7180847	3374773.23461866
62	18	0	0	90	36.1581920903955	36.241610738255	23	0.766715487800539	2	4	4	NaN	1	5	0.059286764476989	0	1	NaN	331	6	16	2	120	220	320	NaN	520	0.515992468688637	2	0	NaN	3374775.5350275	NaN	3374776.5184695	3374777.03497813
62	18	0	0	90	36.1581920903955	36.241610738255	16	0.533367295861244	2	2	3	NaN	1	3	0.059286764476989	0	1	NaN	332	6	17	2	120	220	320	NaN	520	0.946249168831855	2	0	NaN	3374778.3686582	NaN	3374779.3520402	3374779.86860153
62	18	0	0	90	36.1581920903955	36.241610738255	9	0.30001910392195	2	5	5	NaN	1	3	0.059286764476989	0	1	NaN	333	6	18	2	120	220	320	NaN	520	0.475430521182716	1	1	NaN	3374781.9356401	NaN	3374782.9190559	3374783.43561018
62	18	0	0	90	36.1581920903955	36.241610738255	15	0.500031839869916	2	4	6	NaN	1	3	0.059286764476989	0	1	NaN	334	6	19	2	120	220	320	NaN	520	0.643123221583664	1	1	NaN	3374784.7359122	NaN	3374785.719335	3374786.23589108
62	18	0	0	90	36.1581920903955	36.241610738255	24	0.800050943791866	2	1	4	NaN	1	3	0.059286764476989	0	1	NaN	335	6	20	2	120	220	320	NaN	520	0.844888816121966	2	0	NaN	3374787.6862612	NaN	3374788.6696203	3374789.18618128
62	18	0	0	90	36.1581920903955	36.241610738255	7	0.233348191939294	2	8	2	NaN	2	3	0.059286764476989	0	1	NaN	336	6	21	2	120	220	320	NaN	520	0.622615221422166	1	0	NaN	3374790.836539	NaN	3374791.8199517	3374792.33650118
62	18	0	0	90	36.1581920903955	36.241610738255	19	0.633373663835228	2	11	1	NaN	2	4	0.059286764476989	0	1	NaN	337	6	22	2	120	220	320	NaN	520	0.728099468629807	2	1	NaN	3374793.7868295	NaN	3374794.7702177	3374795.28677433
62	18	0	0	90	36.1581920903955	36.241610738255	11	0.366690015904605	2	9	6	NaN	2	3	0.059286764476989	0	1	NaN	338	6	23	2	120	220	320	NaN	520	0.38995422096923	2	1	NaN	3374796.837123	NaN	3374797.8205284	3374798.33707958
62	18	0	0	90	36.1581920903955	36.241610738255	20	0.666709119826555	2	8	5	NaN	2	3	0.059286764476989	0	1	NaN	339	6	24	2	120	220	320	NaN	520	0.617959568277001	2	1	NaN	3374799.5373817	NaN	3374800.520786	3374801.03733613
62	18	0	0	90	36.1581920903955	36.241610738255	21	0.700044575817883	2	12	1	NaN	2	4	0.059286764476989	0	1	NaN	340	6	25	2	120	220	320	NaN	520	0.620101821608841	2	1	NaN	3374802.4708358	NaN	3374803.4544162	3374803.97096708
62	18	0	0	90	36.1581920903955	36.241610738255	0	0	1	5	3	NaN	1	4	0.059286764476989	0	1	NaN	341	6	26	2	110	210	310	NaN	510	1.93446913175285	2	0	NaN	3374805.4046249	NaN	3374806.3880284	3374806.90458437
62	18	0	0	90	36.1581920903955	36.241610738255	19	0.633373663835228	2	12	2	NaN	2	4	0.059286764476989	0	1	NaN	342	6	27	2	120	220	320	NaN	520	0.643877942115068	2	1	NaN	3374809.6550536	NaN	3374810.6384365	3374811.15500186
62	18	0	0	90	36.1581920903955	36.241610738255	6	0.200012735947967	2	7	1	NaN	2	4	0.059286764476989	0	1	NaN	343	6	28	2	120	220	320	NaN	520	1.22216576850042	2	1	NaN	3374812.605438	NaN	3374813.5887456	3374814.10528693
62	18	0	0	90	36.1581920903955	36.241610738255	13	0.433360927887261	2	11	1	NaN	2	5	0.059286764476989	0	1	NaN	344	6	29	2	120	220	320	NaN	520	0.215783521533012	2	1	NaN	3374816.1390262	NaN	3374817.1224185	3374817.63897698
62	18	0	0	90	36.1581920903955	36.241610738255	12	0.400025471895933	2	9	2	NaN	2	5	0.059286764476989	0	1	NaN	345	6	30	2	120	220	320	NaN	520	1.06640906864777	2	1	NaN	3374818.672607	NaN	3374819.6560104	3374820.17255083
62	18	0	0	90	36.1581920903955	36.241610738255	0	0	1	12	6	NaN	2	3	0.059286764476989	0	1	NaN	346	6	31	2	110	210	310	NaN	510	2.53891570586711	2	1	NaN	3374822.056274	NaN	3374823.0396713	3374823.55620709
62	18	0	0	90	36.1581920903955	36.241610738255	16	0.533367295861244	2	1	6	NaN	1	4	0.059286764476989	0	1	NaN	347	6	32	2	120	220	320	NaN	520	0.36068885307759	2	0	NaN	3374826.9067465	NaN	3374827.8901354	3374828.40668485
62	18	0	0	90	36.1581920903955	36.241610738255	25	0.833386399783194	2	7	3	NaN	2	3	0.059286764476989	0	1	NaN	348	6	33	2	120	220	320	NaN	520	0.729373921174556	2	1	NaN	3374829.6735627	NaN	3374830.6570995	3374831.17363848
62	18	0	0	90	36.1581920903955	36.241610738255	0	0	1	11	2	NaN	2	3	0.059286764476989	0	1	NaN	349	6	34	2	110	210	310	NaN	510	0.409059268422425	2	1	NaN	3374832.8741595	NaN	3374833.8573747	3374834.37395283
62	18	0	0	90	36.1581920903955	36.241610738255	10	0.333354559913278	2	7	4	NaN	2	4	0.059286764476989	0	1	NaN	350	6	35	2	120	220	320	NaN	520	2.17100276844576	2	1	NaN	3374835.6243527	NaN	3374836.6076624	3374837.12421013
62	18	0	0	90	36.1581920903955	36.241610738255	11	0.366690015904605	2	3	2	NaN	1	4	0.059286764476989	0	1	NaN	351	6	36	2	120	220	320	NaN	520	0.366873168386519	2	0	NaN	3374840.3079298	NaN	3374841.2914956	3374841.80800643
62	18	0	0	90	36.1581920903955	36.241610738255	18	0.6000382078439	2	10	1	NaN	2	3	0.059286764476989	0	1	NaN	352	6	37	2	120	220	320	NaN	520	0.0104053211398423	2	1	NaN	3374842.9916329	NaN	3374843.9751508	3374844.49161118
62	18	0	0	90	36.1581920903955	36.241610738255	14	0.466696383878589	2	1	6	NaN	1	5	0.059286764476989	0	1	NaN	353	6	38	2	120	220	320	NaN	520	3.08579481579363	2	0	NaN	3374845.3252318	NaN	3374846.3086053	3374846.82516538
62	18	0	0	90	36.1581920903955	36.241610738255	11	0.366690015904605	2	3	3	NaN	1	4	0.059286764476989	0	1	NaN	354	6	39	2	120	220	320	NaN	520	0.0104398210532963	1	1	NaN	3374850.909085	NaN	3374851.8925015	3374852.40905358
62	18	0	0	90	36.1581920903955	36.241610738255	9	0.30001910392195	2	4	2	NaN	1	5	0.059286764476989	0	1	NaN	355	6	40	2	120	220	320	NaN	520	1.13728466816247	1	1	NaN	3374853.2259958	NaN	3374854.2094382	3374854.72594373
62	18	0	0	90	36.1581920903955	36.241610738255	7	0.233348191939294	2	4	3	NaN	1	3	0.059286764476989	0	1	NaN	356	6	41	2	120	220	320	NaN	520	0.407021921128035	1	1	NaN	3374856.6763392	NaN	3374857.6597403	3374858.17629078
62	18	0	0	90	36.1581920903955	36.241610738255	22	0.733380031809211	2	7	5	NaN	2	3	0.059286764476989	0	1	NaN	357	6	42	2	120	220	320	NaN	520	0.454585589468479	1	0	NaN	3374859.4766193	NaN	3374860.4600066	3374860.97656561
62	18	0	0	90	36.1581920903955	36.241610738255	19	0.633373663835228	2	12	5	NaN	2	3	0.059286764476989	0	1	NaN	358	6	43	2	120	220	320	NaN	520	0.33585192123428	2	1	NaN	3374862.2434371	NaN	3374863.2269551	3374863.74350518
62	18	0	0	90	36.1581920903955	36.241610738255	18	0.6000382078439	2	4	1	NaN	1	4	0.059286764476989	0	1	NaN	359	6	44	2	120	220	320	NaN	520	0.237238621339202	2	0	NaN	3374864.8937861	NaN	3374865.8771975	3374866.39376098
62	18	0	0	90	36.1581920903955	36.241610738255	7	0.233348191939294	2	5	3	NaN	1	5	0.059286764476989	0	1	NaN	360	6	45	2	120	220	320	NaN	520	0.0104272160679102	2	0	NaN	3374867.4440716	NaN	3374868.4274529	3374868.94400058
62	18	0	0	90	36.1581920903955	36.241610738255	17	0.566702751852572	2	6	2	NaN	1	3	0.059286764476989	0	1	NaN	361	6	46	2	120	220	320	NaN	520	1.59417928941548	1	1	NaN	3374869.7609035	NaN	3374870.7443292	3374871.26090851
62	18	0	0	90	36.1581920903955	36.241610738255	12	0.400025471895933	2	6	2	NaN	1	4	0.059286764476989	0	1	NaN	362	6	47	2	120	220	320	NaN	520	0.677851021289825	1	1	NaN	3374873.6612601	NaN	3374874.6447334	3374875.16129008
62	18	0	0	90	36.1581920903955	36.241610738255	0	0	1	7	2	NaN	2	3	0.059286764476989	0	1	NaN	363	6	48	2	110	210	310	NaN	510	0.309503468219191	2	1	NaN	3374876.6616297	NaN	3374877.6450221	3374878.16157753
62	18	0	0	90	36.1581920903955	36.241610738255	15	0.500031839869916	2	4	1	NaN	1	5	0.059286764476989	0	1	NaN	364	6	49	2	120	220	320	NaN	520	0.804586821235716	1	1	NaN	3374879.2784237	NaN	3374880.2619599	3374880.77850838
62	18	0	0	90	36.1581920903955	36.241610738255	15	0.500031839869916	2	1	5	NaN	1	3	0.059286764476989	0	1	NaN	365	6	50	2	120	220	320	NaN	520	0.38370717363432	2	0	NaN	3374882.3954539	NaN	3374883.3789287	3374883.89548023
62	18	0	0	90	36.1581920903955	36.241610738255	10	0.333354559913278	2	7	4	NaN	2	5	0.059286764476989	0	1	NaN	366	6	51	2	120	220	320	NaN	520	0.763289121445268	1	0	NaN	3374885.6958319	NaN	3374886.6793394	3374887.19580688
62	18	0	0	90	36.1581920903955	36.241610738255	12	0.400025471895933	2	6	4	NaN	1	4	0.059286764476989	0	1	NaN	367	6	52	2	120	220	320	NaN	520	0.623992868699133	2	0	NaN	3374888.7794869	NaN	3374889.762867	3374890.27943363
62	18	0	0	90	36.1581920903955	36.241610738255	11	0.366690015904605	2	9	4	NaN	2	5	0.059286764476989	0	1	NaN	368	6	53	2	120	220	320	NaN	520	2.1062867208384	1	0	NaN	3374891.7130065	NaN	3374892.6964971	3374893.21306388
62	18	0	0	90	36.1581920903955	36.241610738255	17	0.566702751852572	2	3	4	NaN	1	4	0.059286764476989	0	1	NaN	369	6	54	2	120	220	320	NaN	520	0.63306132145226	2	0	NaN	3374896.1302268	NaN	3374897.1136038	3374897.63015868
62	18	0	0	90	36.1581920903955	36.241610738255	6	0.200012735947967	2	9	1	NaN	2	4	0.059286764476989	0	1	NaN	370	6	55	2	120	220	320	NaN	520	0.66651802090928	2	1	NaN	3374899.0805091	NaN	3374900.0639065	3374900.58045208
62	18	0	0	90	36.1581920903955	36.241610738255	13	0.433360927887261	2	6	3	NaN	1	5	0.059286764476989	0	1	NaN	371	6	56	2	120	220	320	NaN	520	0.475155768916011	2	0	NaN	3374902.0641653	NaN	3374903.0475197	3374903.56407183
62	18	0	0	90	36.1581920903955	36.241610738255	14	0.466696383878589	2	2	6	NaN	1	5	0.059286764476989	0	1	NaN	372	6	57	2	120	220	320	NaN	520	0.587759279180318	2	0	NaN	3374904.847607	NaN	3374905.8311931	3374906.34768422
62	18	0	0	90	36.1581920903955	36.241610738255	10	0.333354559913278	2	12	3	NaN	2	3	0.059286764476989	0	1	NaN	373	6	58	2	120	220	320	NaN	520	0.903381721116602	2	1	NaN	3374907.7481155	NaN	3374908.7314068	3374909.24798568
62	18	0	0	90	36.1581920903955	36.241610738255	14	0.466696383878589	2	8	3	NaN	2	5	0.059286764476989	0	1	NaN	374	6	59	2	120	220	320	NaN	520	0.562865573912859	2	1	NaN	3374911.0483132	NaN	3374912.0317462	3374912.54828623
62	18	0	0	90	36.1581920903955	36.241610738255	18	0.6000382078439	2	4	5	NaN	1	4	0.059286764476989	0	1	NaN	375	6	60	2	120	220	320	NaN	520	0.424118815921247	1	1	NaN	3374913.9153062	NaN	3374914.8986811	3374915.41523638
62	18	0	0	90	36.1581920903955	36.241610738255	22	0.733380031809211	2	3	4	NaN	1	5	0.059286764476989	0	1	NaN	376	6	61	2	120	220	320	NaN	520	2.54811842087656	1	1	NaN	3374916.9989195	NaN	3374917.9823223	3374918.49888078
62	18	0	0	90	36.1581920903955	36.241610738255	24	0.800050943791866	2	7	1	NaN	2	3	0.059286764476989	0	1	NaN	377	6	62	2	120	220	320	NaN	520	2.49631321616471	1	0	NaN	3374922.0827313	NaN	3374923.0661504	3374923.58270318
62	18	0	0	90	36.1581920903955	36.241610738255	22	0.733380031809211	2	1	6	NaN	1	3	0.059286764476989	0	1	NaN	378	6	63	2	120	220	320	NaN	520	0.515051721129566	1	1	NaN	3374927.3999241	NaN	3374928.3833422	3374928.89990178
62	18	0	0	90	36.1581920903955	36.241610738255	21	0.700044575817883	2	2	5	NaN	1	4	0.059286764476989	0	1	NaN	379	7	1	2	120	220	320	NaN	520	7.76229402096942	1	1	NaN	3374938.8010444	NaN	3374939.7844734	3374940.30101648
62	18	0	0	90	36.1581920903955	36.241610738255	7	0.233348191939294	2	10	1	NaN	2	5	0.059286764476989	0	1	NaN	380	7	2	2	120	220	320	NaN	520	0.638427968602628	1	0	NaN	3374948.8687439	NaN	3374949.8521151	3374950.36866523
62	18	0	0	90	36.1581920903955	36.241610738255	15	0.500031839869916	2	9	3	NaN	2	5	0.059286764476989	0	1	NaN	381	7	3	2	120	220	320	NaN	520	1.70437276316807	2	1	NaN	3374951.8188862	NaN	3374952.8023952	3374953.31896654
62	18	0	0	90	36.1581920903955	36.241610738255	22	0.733380031809211	2	9	4	NaN	2	4	0.059286764476989	0	1	NaN	382	7	4	2	120	220	320	NaN	520	0.537111721001565	2	1	NaN	3374956.2027467	NaN	3374957.1861823	3374957.70272978
62	18	0	0	90	36.1581920903955	36.241610738255	15	0.500031839869916	2	5	4	NaN	1	5	0.059286764476989	0	1	NaN	383	7	5	2	120	220	320	NaN	520	1.7265333365649	2	0	NaN	3374959.0530468	NaN	3374960.0364607	3374960.55300646
62	18	0	0	90	36.1581920903955	36.241610738255	21	0.700044575817883	2	8	6	NaN	2	3	0.059286764476989	0	1	NaN	384	7	6	2	120	220	320	NaN	520	0.924414721317589	2	1	NaN	3374963.0866425	NaN	3374964.0701417	3374964.58673768
62	18	0	0	90	36.1581920903955	36.241610738255	9	0.30001910392195	2	1	2	NaN	1	3	0.059286764476989	0	1	NaN	385	7	7	2	120	220	320	NaN	520	0.419195368420333	1	1	NaN	3374966.3204369	NaN	3374967.3038342	3374967.82037843
62	18	0	0	90	36.1581920903955	36.241610738255	24	0.800050943791866	2	7	2	NaN	2	4	0.059286764476989	0	1	NaN	386	7	8	2	120	220	320	NaN	520	0.821305468678474	2	1	NaN	3374969.054041	NaN	3374970.0374366	3374970.55398253
62	18	0	0	90	36.1581920903955	36.241610738255	25	0.833386399783194	2	9	3	NaN	2	3	0.059286764476989	0	1	NaN	387	7	9	2	120	220	320	NaN	520	0.734721468761563	1	0	NaN	3374972.6044042	NaN	3374973.5878493	3374974.10432843
62	18	0	0	90	36.1581920903955	36.241610738255	7	0.233348191939294	2	7	3	NaN	2	5	0.059286764476989	0	1	NaN	388	7	10	2	120	220	320	NaN	520	0.92498866841197	1	0	NaN	3374975.6546837	NaN	3374976.6380815	3374977.15463133
62	18	0	0	90	36.1581920903955	36.241610738255	23	0.766715487800539	2	4	2	NaN	1	5	0.059286764476989	0	1	NaN	389	7	11	2	120	220	320	NaN	520	1.41093236859888	2	0	NaN	3374978.8883002	NaN	3374979.871733	3374980.38827883
62	18	0	0	90	36.1581920903955	36.241610738255	8	0.266683647930622	2	2	6	NaN	1	5	0.059286764476989	0	1	NaN	390	7	12	2	120	220	320	NaN	520	2.2022050214	2	0	NaN	3374982.9054002	NaN	3374983.8887864	3374984.40534628
62	18	0	0	90	36.1581920903955	36.241610738255	17	0.566702751852572	2	9	2	NaN	2	3	0.059286764476989	0	1	NaN	391	7	13	2	120	220	320	NaN	520	1.48478232137859	2	1	NaN	3374987.6225761	NaN	3374988.6059347	3374989.12248168
62	18	0	0	90	36.1581920903955	36.241610738255	7	0.233348191939294	2	3	5	NaN	1	3	0.059286764476989	0	1	NaN	392	7	14	2	120	220	320	NaN	520	3.22859596880153	2	0	NaN	3374991.4229213	NaN	3374992.406294	3374992.92284563
62	18	0	0	90	36.1581920903955	36.241610738255	21	0.700044575817883	2	7	5	NaN	2	4	0.059286764476989	0	1	NaN	393	7	15	2	120	220	320	NaN	520	3.39154996862635	2	1	NaN	3374997.1400939	NaN	3374998.1235292	3374998.64007093
62	18	0	0	90	36.1581920903955	36.241610738255	0	0	1	2	4	NaN	1	4	0.059286764476989	0	1	NaN	394	7	16	2	110	210	310	NaN	510	0.842938768677413	2	0	NaN	3375003.040686	NaN	3375004.0241064	3375004.54065463
62	18	0	0	90	36.1581920903955	36.241610738255	9	0.30001910392195	2	9	4	NaN	2	5	0.059286764476989	0	1	NaN	395	7	17	2	120	220	320	NaN	520	0.396126468665898	2	1	NaN	3375006.1909659	NaN	3375007.1744402	3375007.69095873
62	18	0	0	90	36.1581920903955	36.241610738255	10	0.333354559913278	2	1	1	NaN	1	5	0.059286764476989	0	1	NaN	396	7	18	2	120	220	320	NaN	520	0.320116968825459	2	0	NaN	3375008.891279	NaN	3375009.8746786	3375010.39123073
62	18	0	0	90	36.1581920903955	36.241610738255	6	0.200012735947967	2	11	5	NaN	2	5	0.059286764476989	0	1	NaN	397	7	19	2	120	220	320	NaN	520	0.974473763257265	2	1	NaN	3375011.5248678	NaN	3375012.5083037	3375013.02482554
62	18	0	0	90	36.1581920903955	36.241610738255	10	0.333354559913278	2	11	6	NaN	2	3	0.059286764476989	0	1	NaN	398	7	20	2	120	220	320	NaN	520	0.738855168689042	2	1	NaN	3375014.8084216	NaN	3375015.7919125	3375016.30847873
62	18	0	0	90	36.1581920903955	36.241610738255	9	0.30001910392195	2	10	5	NaN	2	5	0.059286764476989	0	1	NaN	399	7	21	2	120	220	320	NaN	520	0.568894121330231	1	0	NaN	3375017.8588302	NaN	3375018.8422549	3375019.35878578
62	18	0	0	90	36.1581920903955	36.241610738255	19	0.633373663835228	2	3	6	NaN	1	3	0.059286764476989	0	1	NaN	400	7	22	2	120	220	320	NaN	520	0.463019668590277	1	1	NaN	3375020.892467	NaN	3375021.875861	3375022.39240843
62	18	0	0	90	36.1581920903955	36.241610738255	10	0.333354559913278	2	9	2	NaN	2	3	0.059286764476989	0	1	NaN	401	7	23	2	120	220	320	NaN	520	1.46336442139	1	0	NaN	3375023.676071	NaN	3375024.6594721	3375025.17602168
62	18	0	0	90	36.1581920903955	36.241610738255	23	0.766715487800539	2	5	1	NaN	1	3	0.059286764476989	0	1	NaN	402	7	24	2	120	220	320	NaN	520	0.543935968540609	1	1	NaN	3375027.4596434	NaN	3375028.4432011	3375028.95972113
62	18	0	0	90	36.1581920903955	36.241610738255	12	0.400025471895933	2	10	1	NaN	2	4	0.059286764476989	0	1	NaN	403	7	25	2	120	220	320	NaN	520	0.613639920949936	1	0	NaN	3375030.3100553	NaN	3375031.293457	3375031.81000228
62	18	0	0	90	36.1581920903955	36.241610738255	15	0.500031839869916	2	12	4	NaN	2	5	0.059286764476989	0	1	NaN	404	7	26	2	120	220	320	NaN	520	0.528703668620437	1	0	NaN	3375033.2268943	NaN	3375034.2104028	3375034.72695733
62	18	0	0	90	36.1581920903955	36.241610738255	13	0.433360927887261	2	1	4	NaN	1	4	0.059286764476989	0	1	NaN	405	7	27	2	120	220	320	NaN	520	1.87016432126984	1	1	NaN	3375036.0772821	NaN	3375037.0606719	3375037.57724048
62	18	0	0	90	36.1581920903955	36.241610738255	17	0.566702751852572	2	7	4	NaN	2	4	0.059286764476989	0	1	NaN	406	7	28	2	120	220	320	NaN	520	1.2469520685263	1	0	NaN	3375040.4443509	NaN	3375041.4277793	3375041.94433053
62	18	0	0	90	36.1581920903955	36.241610738255	8	0.266683647930622	2	12	5	NaN	2	4	0.059286764476989	0	1	NaN	407	7	29	2	120	220	320	NaN	520	0.791835021227598	1	0	NaN	3375044.0114027	NaN	3375044.9947935	3375045.51135368
62	18	0	0	90	36.1581920903955	36.241610738255	22	0.733380031809211	2	11	4	NaN	2	5	0.059286764476989	0	1	NaN	408	7	30	2	120	220	320	NaN	520	0.475769521202892	2	1	NaN	3375047.1117104	NaN	3375048.0950963	3375048.61165508
62	18	0	0	90	36.1581920903955	36.241610738255	25	0.833386399783194	2	9	2	NaN	2	4	0.059286764476989	0	1	NaN	409	7	31	2	120	220	320	NaN	520	1.42665026849136	2	1	NaN	3375049.9286477	NaN	3375050.9120376	3375051.42858783
62	18	0	0	90	36.1581920903955	36.241610738255	13	0.433360927887261	2	4	1	NaN	1	3	0.059286764476989	0	1	NaN	410	7	32	2	120	220	320	NaN	520	0.26909306878224	2	0	NaN	3375053.6623449	NaN	3375054.64574	3375055.16229533
62	18	0	0	90	36.1581920903955	36.241610738255	13	0.433360927887261	2	5	4	NaN	1	3	0.059286764476989	0	1	NaN	411	7	33	2	120	220	320	NaN	520	1.11813862109557	2	0	NaN	3375056.4292545	NaN	3375057.4126705	3375057.92923558
62	18	0	0	90	36.1581920903955	36.241610738255	11	0.366690015904605	2	8	1	NaN	2	5	0.059286764476989	0	1	NaN	412	7	34	2	120	220	320	NaN	520	0.860812068451196	2	1	NaN	3375060.0630333	NaN	3375061.046366	3375061.56292153
62	18	0	0	90	36.1581920903955	36.241610738255	23	0.766715487800539	2	2	3	NaN	1	4	0.059286764476989	0	1	NaN	413	7	35	2	120	220	320	NaN	520	2.86171452095732	2	0	NaN	3375063.2299321	NaN	3375064.2133574	3375064.72991998
62	18	0	0	90	36.1581920903955	36.241610738255	8	0.266683647930622	2	6	4	NaN	1	4	0.059286764476989	0	1	NaN	414	7	36	2	120	220	320	NaN	520	0.375075621530414	2	0	NaN	3375068.5803532	NaN	3375069.5638778	3375070.08043278
62	18	0	0	90	36.1581920903955	36.241610738255	25	0.833386399783194	2	1	1	NaN	1	3	0.059286764476989	0	1	NaN	415	7	37	2	120	220	320	NaN	520	0.443694121204317	2	0	NaN	3375071.2639484	NaN	3375072.2474682	3375072.76402718
62	18	0	0	90	36.1581920903955	36.241610738255	10	0.333354559913278	2	6	5	NaN	1	4	0.059286764476989	0	1	NaN	416	7	38	2	120	220	320	NaN	520	0.35638806829229	2	0	NaN	3375074.0309996	NaN	3375075.0143454	3375075.53095863
62	18	0	0	90	36.1581920903955	36.241610738255	18	0.6000382078439	2	6	6	NaN	1	5	0.059286764476989	0	1	NaN	417	7	39	2	120	220	320	NaN	520	0.623537220992148	2	0	NaN	3375077.1479741	NaN	3375078.1314472	3375078.64794188
62	18	0	0	90	36.1581920903955	36.241610738255	14	0.466696383878589	2	5	2	NaN	1	5	0.059286764476989	0	1	NaN	418	7	40	2	120	220	320	NaN	520	0.833838521502912	2	0	NaN	3375080.2816406	NaN	3375081.2650199	3375081.78157078
62	18	0	0	90	36.1581920903955	36.241610738255	21	0.700044575817883	2	5	6	NaN	1	3	0.059286764476989	0	1	NaN	419	7	41	2	120	220	320	NaN	520	2.93867960013449	1	1	NaN	3375083.6485977	NaN	3375084.6320281	3375085.1485734
62	18	0	0	90	36.1581920903955	36.241610738255	25	0.833386399783194	2	12	3	NaN	2	3	0.059286764476989	0	1	NaN	420	7	42	2	120	220	320	NaN	520	0.384592168498784	2	1	NaN	3375088.899157	NaN	3375089.8825293	3375090.39908823
62	18	0	0	90	36.1581920903955	36.241610738255	9	0.30001910392195	2	10	3	NaN	2	4	0.059286764476989	0	1	NaN	421	7	43	2	120	220	320	NaN	520	0.195997821167111	2	1	NaN	3375091.5994172	NaN	3375092.5828631	3375093.09936068
62	18	0	0	90	36.1581920903955	36.241610738255	16	0.533367295861244	2	11	4	NaN	2	5	0.059286764476989	0	1	NaN	422	7	44	2	120	220	320	NaN	520	0.0103932209312916	2	1	NaN	3375094.1163061	NaN	3375095.0997229	3375095.61627408
62	18	0	0	90	36.1581920903955	36.241610738255	11	0.366690015904605	2	5	2	NaN	1	3	0.059286764476989	0	1	NaN	423	7	45	2	120	220	320	NaN	520	1.5144411213696	2	0	NaN	3375096.4332088	NaN	3375097.4166182	3375097.93316678
62	18	0	0	90	36.1581920903955	36.241610738255	22	0.733380031809211	2	11	1	NaN	2	4	0.059286764476989	0	1	NaN	424	7	46	2	120	220	320	NaN	520	0.0104360161349177	2	1	NaN	3375100.2669338	NaN	3375101.2503105	3375101.76687688
62	18	0	0	90	36.1581920903955	36.241610738255	11	0.366690015904605	2	10	4	NaN	2	3	0.059286764476989	0	1	NaN	425	7	47	2	120	220	320	NaN	520	0.62794676842168	2	1	NaN	3375102.583836	NaN	3375103.5672423	3375104.08375893
62	18	0	0	90	36.1581920903955	36.241610738255	10	0.333354559913278	2	2	2	NaN	1	3	0.059286764476989	0	1	NaN	426	7	48	2	120	220	320	NaN	520	0.351494668517262	1	1	NaN	3375105.6840964	NaN	3375106.6675696	3375107.18406963
62	18	0	0	90	36.1581920903955	36.241610738255	11	0.366690015904605	2	7	5	NaN	2	3	0.059286764476989	0	1	NaN	427	7	49	2	120	220	320	NaN	520	0.660514621064067	2	1	NaN	3375108.3510513	NaN	3375109.3344595	3375109.85099838
62	18	0	0	90	36.1581920903955	36.241610738255	24	0.800050943791866	2	2	6	NaN	1	3	0.059286764476989	0	1	NaN	428	7	50	2	120	220	320	NaN	520	0.733527768403292	2	0	NaN	3375111.3178828	NaN	3375112.3014353	3375112.81795143
62	18	0	0	90	36.1581920903955	36.241610738255	13	0.433360927887261	2	11	5	NaN	2	4	0.059286764476989	0	1	NaN	429	7	51	2	120	220	320	NaN	520	2.73148822085932	2	1	NaN	3375114.3683024	NaN	3375115.3517027	3375115.86826278
62	18	0	0	90	36.1581920903955	36.241610738255	16	0.533367295861244	2	12	5	NaN	2	3	0.059286764476989	0	1	NaN	430	7	52	2	120	220	320	NaN	520	0.649695368483663	2	1	NaN	3375119.6021115	NaN	3375120.5855566	3375121.10210313
62	18	0	0	90	36.1581920903955	36.241610738255	10	0.333354559913278	2	12	6	NaN	2	4	0.059286764476989	0	1	NaN	431	7	53	2	120	220	320	NaN	520	0.333732221275568	2	1	NaN	3375122.8857683	NaN	3375123.8691911	3375124.38576178
62	18	0	0	90	36.1581920903955	36.241610738255	19	0.633373663835228	2	8	4	NaN	2	4	0.059286764476989	0	1	NaN	432	7	54	2	120	220	320	NaN	520	1.06746286852285	2	1	NaN	3375125.5360798	NaN	3375126.5194685	3375127.03601593
62	18	0	0	90	36.1581920903955	36.241610738255	12	0.400025471895933	2	9	6	NaN	2	4	0.059286764476989	0	1	NaN	433	7	55	2	120	220	320	NaN	520	0.0439847260713577	2	1	NaN	3375128.9197205	NaN	3375129.9031345	3375130.41969307
62	18	0	0	90	36.1581920903955	36.241610738255	20	0.666709119826555	2	5	5	NaN	1	5	0.059286764476989	0	1	NaN	434	7	56	2	120	220	320	NaN	520	0.349942968692631	1	1	NaN	3375131.2698534	NaN	3375132.25339	3375132.76991083
62	18	0	0	90	36.1581920903955	36.241610738255	24	0.800050943791866	2	4	3	NaN	1	3	0.059286764476989	0	1	NaN	435	7	57	2	120	220	320	NaN	520	1.81008242117241	1	1	NaN	3375133.9535548	NaN	3375134.9369702	3375135.45351118
62	18	0	0	90	36.1581920903955	36.241610738255	11	0.366690015904605	2	5	2	NaN	1	5	0.059286764476989	0	1	NaN	436	7	58	2	120	220	320	NaN	520	0.41281086858362	1	1	NaN	3375138.0706289	NaN	3375139.0540211	3375139.57058273
62	18	0	0	90	36.1581920903955	36.241610738255	23	0.766715487800539	2	8	5	NaN	2	4	0.059286764476989	0	1	NaN	437	7	59	2	120	220	320	NaN	520	0.615379268769175	1	0	NaN	3375140.8042328	NaN	3375141.7876301	3375142.30418573
62	18	0	0	90	36.1581920903955	36.241610738255	25	0.833386399783194	2	10	4	NaN	2	5	0.059286764476989	0	1	NaN	438	7	60	2	120	220	320	NaN	520	0.993626868352294	1	0	NaN	3375143.7378602	NaN	3375144.7212468	3375145.23780403
62	18	0	0	90	36.1581920903955	36.241610738255	16	0.533367295861244	2	9	5	NaN	2	5	0.059286764476989	0	1	NaN	439	7	61	2	120	220	320	NaN	520	0.692619068548083	1	0	NaN	3375147.0548401	NaN	3375148.0382333	3375148.55479243
62	18	0	0	90	36.1581920903955	36.241610738255	6	0.200012735947967	2	5	1	NaN	1	3	0.059286764476989	0	1	NaN	440	7	62	2	120	220	320	NaN	520	0.880362668540329	1	1	NaN	3375150.1551241	NaN	3375151.1385351	3375151.65509653
62	18	0	0	90	36.1581920903955	36.241610738255	6	0.200012735947967	2	6	3	NaN	1	3	0.059286764476989	0	1	NaN	441	7	63	2	120	220	320	NaN	520	0.814082936849445	1	1	NaN	3375153.4054759	NaN	3375154.3888734	3375154.90543246
62	18	0	0	90	36.1581920903955	36.241610738255	10	0.333354559913278	2	6	6	NaN	1	3	0.059286764476989	0	1	NaN	442	8	1	2	120	220	320	NaN	520	0.0103990212082863	2	0	NaN	3375159.5560882	NaN	3375160.5395035	3375161.05603398
62	18	0	0	90	36.1581920903955	36.241610738255	11	0.366690015904605	2	12	3	NaN	2	5	0.059286764476989	0	1	NaN	443	8	2	2	120	220	320	NaN	520	0.250683916267008	2	1	NaN	3375161.8728207	NaN	3375162.8563702	3375163.37291618
62	18	0	0	90	36.1581920903955	36.241610738255	16	0.533367295861244	2	2	1	NaN	1	5	0.059286764476989	0	1	NaN	444	8	3	2	120	220	320	NaN	520	0.548015968408436	1	1	NaN	3375164.4398809	NaN	3375165.4232912	3375165.93983663
62	18	0	0	90	36.1581920903955	36.241610738255	23	0.766715487800539	2	9	4	NaN	2	5	0.059286764476989	0	1	NaN	445	8	4	2	120	220	320	NaN	520	0.408789868466556	2	1	NaN	3375167.3068346	NaN	3375168.2902529	3375168.80678833
62	18	0	0	90	36.1581920903955	36.241610738255	21	0.700044575817883	2	5	2	NaN	1	3	0.059286764476989	0	1	NaN	446	8	5	2	120	220	320	NaN	520	0.615440221503377	2	0	NaN	3375170.3404493	NaN	3375171.3238748	3375171.84042898
62	18	0	0	90	36.1581920903955	36.241610738255	0	0	1	4	3	NaN	1	4	0.059286764476989	0	1	NaN	447	8	6	2	110	210	310	NaN	510	0.449486568570137	2	0	NaN	3375173.274085	NaN	3375174.2575298	3375174.77403593
62	18	0	0	90	36.1581920903955	36.241610738255	0	0	1	11	2	NaN	2	3	0.059286764476989	0	1	NaN	448	8	7	2	110	210	310	NaN	510	0.746494568418711	2	1	NaN	3375176.0410249	NaN	3375177.0244371	3375177.54097263
62	18	0	0	90	36.1581920903955	36.241610738255	19	0.633373663835228	2	1	1	NaN	1	5	0.059286764476989	0	1	NaN	449	8	8	2	120	220	320	NaN	520	0.75313846860081	2	0	NaN	3375179.2746777	NaN	3375180.2580836	3375180.77462363
62	18	0	0	90	36.1581920903955	36.241610738255	24	0.800050943791866	2	3	3	NaN	1	4	0.059286764476989	0	1	NaN	450	8	9	2	120	220	320	NaN	520	0.642852815799415	2	0	NaN	3375182.4249978	NaN	3375183.4083858	3375183.92493418
62	18	0	0	90	36.1581920903955	36.241610738255	18	0.6000382078439	2	11	5	NaN	2	5	0.059286764476989	0	1	NaN	451	8	10	2	120	220	320	NaN	520	0.444187768734992	2	1	NaN	3375185.3751574	NaN	3375186.3586663	3375186.87522433
62	18	0	0	90	36.1581920903955	36.241610738255	22	0.733380031809211	2	12	6	NaN	2	3	0.059286764476989	0	1	NaN	452	8	11	2	120	220	320	NaN	520	0.302713120821863	2	1	NaN	3375188.3088808	NaN	3375189.292304	3375189.80885498
62	18	0	0	90	36.1581920903955	36.241610738255	13	0.433360927887261	2	4	6	NaN	1	4	0.059286764476989	0	1	NaN	453	8	12	2	120	220	320	NaN	520	0.621336268726736	1	1	NaN	3375191.142505	NaN	3375192.1259076	3375192.64246563
62	18	0	0	90	36.1581920903955	36.241610738255	23	0.766715487800539	2	9	2	NaN	2	5	0.059286764476989	0	1	NaN	454	8	13	2	120	220	320	NaN	520	3.95142802130431	1	0	NaN	3375194.0761306	NaN	3375195.059542	3375195.57608988
62	18	0	0	90	36.1581920903955	36.241610738255	24	0.800050943791866	2	3	3	NaN	1	5	0.059286764476989	0	1	NaN	455	8	14	2	120	220	320	NaN	520	0.455082868225873	1	1	NaN	3375200.4761228	NaN	3375201.4601797	3375201.97670473
62	18	0	0	90	36.1581920903955	36.241610738255	20	0.666709119826555	2	2	1	NaN	1	3	0.059286764476989	0	1	NaN	456	8	15	2	120	220	320	NaN	520	0.335859621409327	1	1	NaN	3375203.2436927	NaN	3375204.2271054	3375204.74365708
62	18	0	0	90	36.1581920903955	36.241610738255	24	0.800050943791866	2	12	5	NaN	2	3	0.059286764476989	0	1	NaN	457	8	16	2	120	220	320	NaN	520	0.557710968423635	1	0	NaN	3375205.8939646	NaN	3375206.8773601	3375207.39390893
62	18	0	0	90	36.1581920903955	36.241610738255	23	0.766715487800539	2	11	6	NaN	2	4	0.059286764476989	0	1	NaN	458	8	17	2	120	220	320	NaN	520	0.39381912117824	1	0	NaN	3375208.7775795	NaN	3375209.7609751	3375210.27753118
62	18	0	0	90	36.1581920903955	36.241610738255	17	0.566702751852572	2	3	2	NaN	1	3	0.059286764476989	0	1	NaN	459	8	18	2	120	220	320	NaN	520	1.22165306843817	1	1	NaN	3375211.477719	NaN	3375212.4612364	3375212.97779283
62	18	0	0	90	36.1581920903955	36.241610738255	8	0.266683647930622	2	1	6	NaN	1	3	0.059286764476989	0	1	NaN	460	8	19	2	120	220	320	NaN	520	0.608156920876354	2	0	NaN	3375215.0114171	NaN	3375215.9949291	3375216.51147808
