subjno	age	gender	isPractice	viewdist	CmToPixX	CmToPixY	SOA_frm	SOA_time	targNum	targID	targExample	targRace	targGender	firstTargPos	contrast	familiarity	curr_staircase	iStair	TrialNum	BlockNum	blktrl	sessionNum	TC_FIXATION	TC_RSVP_START	TC_RSVP_END	TC_BLANK	TC_RESPONSE_ONSET	RT2afc	resp_2afc	acc	RSVPOnsetVBL	RSVPOnsetTime	RSVPOffsetVBL	RSVPOffsetTime	startrt_2afc
60	23	0	0	90	36.1581920903955	36.241610738255	13	0.433378660082817	2	5	6	NaN	1	4	0.0190648399435654	0	1	NaN	1	1	1	2	120	220	320	NaN	520	1.99332043202594	2	0	NaN	2586515.5071546	NaN	2586516.4904313	2586517.02357117
60	23	0	0	90	36.1581920903955	36.241610738255	20	0.666736400127411	2	6	2	NaN	1	5	0.0190648399435654	0	1	NaN	2	1	2	2	120	220	320	NaN	520	2.12201992841437	2	0	NaN	2586519.8742856	NaN	2586520.8575047	2586521.39065257
60	23	0	0	90	36.1581920903955	36.241610738255	17	0.566725940108299	2	10	6	NaN	2	5	0.0190648399435654	0	1	NaN	3	1	3	2	120	220	320	NaN	520	2.47953123599291	1	0	NaN	2586524.3411419	NaN	2586525.3245571	2586525.84109306
60	23	0	0	90	36.1581920903955	36.241610738255	11	0.366705020070076	2	11	6	NaN	2	3	0.0190648399435654	0	1	NaN	4	1	4	2	120	220	320	NaN	520	2.75128722796217	2	1	NaN	2586529.1416207	NaN	2586530.1250022	2586530.64156517
60	23	0	0	90	36.1581920903955	36.241610738255	21	0.700073220133781	2	5	4	NaN	1	3	0.0190648399435654	0	1	NaN	5	1	5	2	120	220	320	NaN	520	3.50928832823411	2	0	NaN	2586534.3754489	NaN	2586535.3588619	2586535.87541137
60	23	0	0	90	36.1581920903955	36.241610738255	12	0.400041840076447	2	6	6	NaN	1	3	0.0190648399435654	0	1	NaN	6	1	6	2	120	220	320	NaN	520	3.03493328066543	1	1	NaN	2586540.2092336	NaN	2586541.1927823	2586541.70932682
60	23	0	0	90	36.1581920903955	36.241610738255	19	0.63339958012104	2	9	2	NaN	2	4	0.0190648399435654	0	1	NaN	7	1	7	2	120	220	320	NaN	520	2.92485602432862	2	1	NaN	2586545.5599303	NaN	2586546.5432824	2586547.05983998
60	23	0	0	90	36.1581920903955	36.241610738255	8	0.266694560050964	2	6	3	NaN	1	5	0.0190648399435654	0	1	NaN	8	1	8	2	120	220	320	NaN	520	1.26602112827823	1	1	NaN	2586550.8102683	NaN	2586551.7938108	2586552.31035767
60	23	0	0	90	36.1581920903955	36.241610738255	13	0.433378660082817	2	9	4	NaN	2	3	0.0190648399435654	0	1	NaN	9	1	9	2	120	220	320	NaN	520	1.71464682463557	1	0	NaN	2586554.3940849	NaN	2586555.3774128	2586555.89404318
60	23	0	0	90	36.1581920903955	36.241610738255	6	0.200020920038223	2	9	2	NaN	2	4	0.0190648399435654	0	1	NaN	10	1	10	2	120	220	320	NaN	520	3.23281552828848	2	1	NaN	2586558.4278303	NaN	2586559.411248	2586559.92777207
60	23	0	0	90	36.1581920903955	36.241610738255	7	0.233357740044594	2	7	3	NaN	2	5	0.0190648399435654	0	1	NaN	11	1	11	2	120	220	320	NaN	520	4.06614902429283	2	1	NaN	2586563.9783571	NaN	2586564.961781	2586565.47831898
60	23	0	0	90	36.1581920903955	36.241610738255	24	0.800083680152893	2	6	1	NaN	1	4	0.0190648399435654	0	1	NaN	12	1	12	2	120	220	320	NaN	520	2.41040482837707	2	0	NaN	2586570.3623369	NaN	2586571.3457243	2586571.86228157
60	23	0	0	90	36.1581920903955	36.241610738255	20	0.666736400127411	2	7	3	NaN	2	4	0.0190648399435654	0	1	NaN	13	1	13	2	120	220	320	NaN	520	2.49267922434956	2	1	NaN	2586575.0961203	NaN	2586576.0795619	2586576.59607318
60	23	0	0	90	36.1581920903955	36.241610738255	12	0.400041840076447	2	11	5	NaN	2	4	0.0190648399435654	0	1	NaN	14	1	14	2	120	220	320	NaN	520	3.62748172786087	1	0	NaN	2586579.9132683	NaN	2586580.8966585	2586581.41321837
60	23	0	0	90	36.1581920903955	36.241610738255	7	0.233357740044594	2	6	4	NaN	1	4	0.0190648399435654	0	1	NaN	15	1	15	2	120	220	320	NaN	520	1.82065082434565	1	1	NaN	2586585.8638651	NaN	2586586.8472496	2586587.36380098
60	23	0	0	90	36.1581920903955	36.241610738255	10	0.333368200063705	2	6	6	NaN	1	3	0.0190648399435654	0	1	NaN	16	1	16	2	120	220	320	NaN	520	2.14309928007424	1	1	NaN	2586589.9974641	NaN	2586590.9809915	2586591.49754672
60	23	0	0	90	36.1581920903955	36.241610738255	20	0.666736400127411	2	12	3	NaN	2	4	0.0190648399435654	0	1	NaN	17	1	17	2	120	220	320	NaN	520	3.21174877602607	2	1	NaN	2586594.4646878	NaN	2586595.448098	2586595.96464432
60	23	0	0	90	36.1581920903955	36.241610738255	9	0.300031380057335	2	6	1	NaN	1	5	0.0190648399435654	0	1	NaN	18	1	18	2	120	220	320	NaN	520	2.36607867619023	2	0	NaN	2586599.9985616	NaN	2586600.9820042	2586601.49851772
60	23	0	0	90	36.1581920903955	36.241610738255	22	0.733410040140152	2	8	5	NaN	2	4	0.0190648399435654	0	1	NaN	19	1	19	2	120	220	320	NaN	520	4.50081002432853	2	1	NaN	2586605.0157021	NaN	2586605.9991845	2586606.51567348
60	23	0	0	90	36.1581920903955	36.241610738255	25	0.833420500159264	2	4	3	NaN	1	3	0.0190648399435654	0	1	NaN	20	1	20	2	120	220	320	NaN	520	3.34760517580435	2	0	NaN	2586611.833065	NaN	2586612.8164649	2586613.33301302
60	23	0	0	90	36.1581920903955	36.241610738255	9	0.300031380057335	2	12	3	NaN	2	5	0.0190648399435654	0	1	NaN	21	1	21	2	120	220	320	NaN	520	4.24826647620648	1	0	NaN	2586617.5002752	NaN	2586618.4837003	2586619.00023142
60	23	0	0	90	36.1581920903955	36.241610738255	8	0.266694560050964	2	5	6	NaN	1	5	0.0190648399435654	0	1	NaN	22	1	22	2	120	220	320	NaN	520	3.41719052847475	1	1	NaN	2586624.0676145	NaN	2586625.0509968	2586625.56754867
60	23	0	0	90	36.1581920903955	36.241610738255	18	0.60006276011467	2	3	3	NaN	1	5	0.0190648399435654	0	1	NaN	23	1	23	2	120	220	320	NaN	520	2.33942892448977	1	1	NaN	2586629.8014801	NaN	2586630.7848893	2586631.30146308
60	23	0	0	90	36.1581920903955	36.241610738255	22	0.733410040140152	2	10	5	NaN	2	4	0.0190648399435654	0	1	NaN	24	1	24	2	120	220	320	NaN	520	2.35251067625359	1	0	NaN	2586634.4686383	NaN	2586635.4520408	2586635.96857362
60	23	0	0	90	36.1581920903955	36.241610738255	15	0.500052300095558	2	10	2	NaN	2	3	0.0190648399435654	0	1	NaN	25	1	25	2	120	220	320	NaN	520	1.59675062447786	2	1	NaN	2586639.1358212	NaN	2586640.1190402	2586640.63569198
60	23	0	0	90	36.1581920903955	36.241610738255	23	0.766746860146523	2	7	1	NaN	2	3	0.0190648399435654	0	1	NaN	26	1	26	2	120	220	320	NaN	520	6.43989702826366	2	1	NaN	2586643.0528101	NaN	2586644.0361961	2586644.55275317
60	23	0	0	90	36.1581920903955	36.241610738255	23	0.766746860146523	2	6	6	NaN	1	5	0.0190648399435654	0	1	NaN	27	1	27	2	120	220	320	NaN	520	3.69720477610826	1	1	NaN	2586651.8036872	NaN	2586652.7870649	2586653.30359932
60	23	0	0	90	36.1581920903955	36.241610738255	11	0.366705020070076	2	2	5	NaN	1	4	0.0190648399435654	0	1	NaN	28	1	28	2	120	220	320	NaN	520	3.99998812796548	2	0	NaN	2586657.820846	NaN	2586658.8042962	2586659.32086067
60	23	0	0	90	36.1581920903955	36.241610738255	8	0.266694560050964	2	12	1	NaN	2	3	0.0190648399435654	0	1	NaN	29	1	29	2	120	220	320	NaN	520	2.17849532421678	1	0	NaN	2586664.1382238	NaN	2586665.121601	2586665.63815278
60	23	0	0	90	36.1581920903955	36.241610738255	20	0.666736400127411	2	8	5	NaN	2	5	0.0190648399435654	0	1	NaN	30	1	30	2	120	220	320	NaN	520	2.83784742793068	2	1	NaN	2586668.6386536	NaN	2586669.6220431	2586670.13859607
60	23	0	0	90	36.1581920903955	36.241610738255	17	0.566725940108299	2	3	2	NaN	1	3	0.0190648399435654	0	1	NaN	31	1	31	2	120	220	320	NaN	520	5.82366152433679	2	0	NaN	2586673.7891328	NaN	2586674.7725593	2586675.28909368
60	23	0	0	90	36.1581920903955	36.241610738255	8	0.266694560050964	2	4	3	NaN	1	4	0.0190648399435654	0	1	NaN	32	1	32	2	120	220	320	NaN	520	5.46456732833758	2	0	NaN	2586681.9399658	NaN	2586682.9233521	2586683.43989237
60	23	0	0	90	36.1581920903955	36.241610738255	12	0.400041840076447	2	9	5	NaN	2	3	0.0190648399435654	0	1	NaN	33	1	33	2	120	220	320	NaN	520	3.44085107604042	2	1	NaN	2586689.7240265	NaN	2586690.7074127	2586691.22399562
60	23	0	0	90	36.1581920903955	36.241610738255	24	0.800083680152893	2	6	1	NaN	1	4	0.0190648399435654	0	1	NaN	34	1	34	2	120	220	320	NaN	520	4.84924478037283	1	1	NaN	2586695.4911543	NaN	2586696.4746692	2586696.99122772
60	23	0	0	90	36.1581920903955	36.241610738255	14	0.466715480089188	2	11	6	NaN	2	5	0.0190648399435654	0	1	NaN	35	1	35	2	120	220	320	NaN	520	2.27382397605106	2	1	NaN	2586702.658523	NaN	2586703.6420408	2586704.15859062
60	23	0	0	90	36.1581920903955	36.241610738255	12	0.400041840076447	2	2	6	NaN	1	4	0.0190648399435654	0	1	NaN	36	1	36	2	120	220	320	NaN	520	2.75357067631558	2	0	NaN	2586707.2591155	NaN	2586708.2425009	2586708.75904022
60	23	0	0	90	36.1581920903955	36.241610738255	7	0.233357740044594	2	7	4	NaN	2	5	0.0190648399435654	0	1	NaN	37	1	37	2	120	220	320	NaN	520	1.38959652464837	1	0	NaN	2586712.3429333	NaN	2586713.3263361	2586713.84288148
60	23	0	0	90	36.1581920903955	36.241610738255	15	0.500052300095558	2	5	5	NaN	1	3	0.0190648399435654	0	1	NaN	38	1	38	2	120	220	320	NaN	520	2.97742458805442	2	0	NaN	2586716.0432872	NaN	2586717.0266982	2586717.54325351
60	23	0	0	90	36.1581920903955	36.241610738255	8	0.266694560050964	2	12	2	NaN	2	3	0.0190648399435654	0	1	NaN	39	1	39	2	120	220	320	NaN	520	2.41318182460964	1	0	NaN	2586721.3438025	NaN	2586722.3272155	2586722.84375928
60	23	0	0	90	36.1581920903955	36.241610738255	22	0.733410040140152	2	6	1	NaN	1	4	0.0190648399435654	0	1	NaN	40	1	40	2	120	220	320	NaN	520	3.05576557572931	1	1	NaN	2586726.0609497	NaN	2586727.0443381	2586727.56088532
60	23	0	0	90	36.1581920903955	36.241610738255	0	0	1	12	2	NaN	2	5	0.0190648399435654	0	1	NaN	41	1	41	2	110	210	310	NaN	510	3.28882162412629	2	1	NaN	2586731.4281373	NaN	2586732.4115318	2586732.92808838
60	23	0	0	90	36.1581920903955	36.241610738255	18	0.60006276011467	2	10	4	NaN	2	3	0.0190648399435654	0	1	NaN	42	1	42	2	120	220	320	NaN	520	5.61599462851882	2	1	NaN	2586737.0287056	NaN	2586738.0120906	2586738.52863667
60	23	0	0	90	36.1581920903955	36.241610738255	17	0.566725940108299	2	5	6	NaN	1	5	0.0190648399435654	0	1	NaN	43	1	43	2	120	220	320	NaN	520	2.6579038281925	2	0	NaN	2586744.9627849	NaN	2586745.9462166	2586746.46275307
60	23	0	0	90	36.1581920903955	36.241610738255	21	0.700073220133781	2	12	1	NaN	2	3	0.0190648399435654	0	1	NaN	44	1	44	2	120	220	320	NaN	520	3.78444362804294	1	0	NaN	2586749.9966301	NaN	2586750.9800415	2586751.49657667
60	23	0	0	90	36.1581920903955	36.241610738255	20	0.666736400127411	2	1	3	NaN	1	3	0.0190648399435654	0	1	NaN	45	1	45	2	120	220	320	NaN	520	2.66766747599468	1	1	NaN	2586756.0971092	NaN	2586757.0806221	2586757.59717852
60	23	0	0	90	36.1581920903955	36.241610738255	14	0.466715480089188	2	10	5	NaN	2	4	0.0190648399435654	0	1	NaN	46	1	46	2	120	220	320	NaN	520	3.35546062793583	2	1	NaN	2586761.081052	NaN	2586762.0644353	2586762.58100007
60	23	0	0	90	36.1581920903955	36.241610738255	0	0	1	6	5	NaN	1	3	0.0190648399435654	0	1	NaN	47	1	47	2	110	210	310	NaN	510	3.16880102455616	2	0	NaN	2586766.7482678	NaN	2586767.7316658	2586768.24822108
60	23	0	0	90	36.1581920903955	36.241610738255	0	0	1	12	2	NaN	2	3	0.0190648399435654	0	1	NaN	48	1	48	2	110	210	310	NaN	510	5.34846902824938	1	0	NaN	2586772.2321418	NaN	2586773.2155428	2586773.73208517
60	23	0	0	90	36.1581920903955	36.241610738255	8	0.266694560050964	2	1	1	NaN	1	4	0.0190648399435654	0	1	NaN	49	1	49	2	120	220	320	NaN	520	3.86499492451549	2	0	NaN	2586779.8995338	NaN	2586780.8829512	2586781.39951138
60	23	0	0	90	36.1581920903955	36.241610738255	21	0.700073220133781	2	2	3	NaN	1	5	0.0190648399435654	0	1	NaN	50	1	50	2	120	220	320	NaN	520	3.87328342813998	2	0	NaN	2586786.0834956	NaN	2586787.0669032	2586787.58344707
60	23	0	0	90	36.1581920903955	36.241610738255	21	0.700073220133781	2	6	2	NaN	1	3	0.0190648399435654	0	1	NaN	51	1	51	2	120	220	320	NaN	520	3.78560458403081	1	1	NaN	2586792.267311	NaN	2586793.2508392	2586793.76739562
60	23	0	0	90	36.1581920903955	36.241610738255	20	0.666736400127411	2	11	3	NaN	2	3	0.0190648399435654	0	1	NaN	52	1	52	2	120	220	320	NaN	520	2.92471927218139	2	1	NaN	2586798.367919	NaN	2586799.3514345	2586799.86798013
60	23	0	0	90	36.1581920903955	36.241610738255	6	0.200020920038223	2	10	5	NaN	2	4	0.0190648399435654	0	1	NaN	53	1	53	2	120	220	320	NaN	520	4.0192703763023	2	1	NaN	2586803.6019028	NaN	2586804.585281	2586805.10184192
60	23	0	0	90	36.1581920903955	36.241610738255	17	0.566725940108299	2	8	1	NaN	2	3	0.0190648399435654	0	1	NaN	54	1	54	2	120	220	320	NaN	520	5.2611627439037	2	1	NaN	2586809.935839	NaN	2586810.9192415	2586811.43579846
60	23	0	0	90	36.1581920903955	36.241610738255	22	0.733410040140152	2	2	6	NaN	1	4	0.0190648399435654	0	1	NaN	55	1	55	2	120	220	320	NaN	520	2.66089932434261	1	1	NaN	2586817.5199179	NaN	2586818.5033183	2586819.01986638
60	23	0	0	90	36.1581920903955	36.241610738255	21	0.700073220133781	2	10	6	NaN	2	5	0.0190648399435654	0	1	NaN	56	1	56	2	120	220	320	NaN	520	3.65309382788837	2	1	NaN	2586822.503742	NaN	2586823.4870365	2586824.00369017
60	23	0	0	90	36.1581920903955	36.241610738255	10	0.333368200063705	2	1	6	NaN	1	5	0.0190648399435654	0	1	NaN	57	1	57	2	120	220	320	NaN	520	4.11816552421078	2	0	NaN	2586828.4710099	NaN	2586829.454399	2586829.97093828
60	23	0	0	90	36.1581920903955	36.241610738255	15	0.500052300095558	2	4	1	NaN	1	5	0.0190648399435654	0	1	NaN	58	1	58	2	120	220	320	NaN	520	3.70002730004489	1	1	NaN	2586834.904955	NaN	2586835.8883571	2586836.4049342
60	23	0	0	90	36.1581920903955	36.241610738255	16	0.533389120101929	2	5	6	NaN	1	5	0.0190648399435654	0	1	NaN	59	1	59	2	120	220	320	NaN	520	5.25057622417808	2	0	NaN	2586840.9220964	NaN	2586841.9056156	2586842.42215718
60	23	0	0	90	36.1581920903955	36.241610738255	17	0.566725940108299	2	4	5	NaN	1	4	0.0190648399435654	0	1	NaN	60	1	60	2	120	220	320	NaN	520	4.09188702842221	1	1	NaN	2586848.4728492	NaN	2586849.4563552	2586849.97290097
60	23	0	0	90	36.1581920903955	36.241610738255	0	0	1	1	4	NaN	1	3	0.0190648399435654	0	1	NaN	61	1	61	2	110	210	310	NaN	510	2.67529102414846	2	0	NaN	2586854.873474	NaN	2586855.8570222	2586856.37352848
60	23	0	0	90	36.1581920903955	36.241610738255	16	0.533389120101929	2	9	6	NaN	2	4	0.0190648399435654	0	1	NaN	62	1	62	2	120	220	320	NaN	520	3.72350192815065	1	0	NaN	2586859.8574028	NaN	2586860.8408029	2586861.35735097
60	23	0	0	90	36.1581920903955	36.241610738255	0	0	1	4	2	NaN	1	4	0.0190648399435654	0	1	NaN	63	1	63	2	110	210	310	NaN	510	1.53755992464721	1	1	NaN	2586865.8913284	NaN	2586866.8747694	2586867.39127648
60	23	0	0	90	36.1581920903955	36.241610738255	8	0.266694560050964	2	7	3	NaN	2	5	0.0190648399435654	0	1	NaN	64	2	1	2	120	220	320	NaN	520	3.44695157604292	2	1	NaN	2586905.6618981	NaN	2586906.6452038	2586907.16185082
60	23	0	0	90	36.1581920903955	36.241610738255	18	0.60006276011467	2	8	6	NaN	2	4	0.0190648399435654	0	1	NaN	65	2	2	2	120	220	320	NaN	520	3.89175667613745	2	1	NaN	2586911.7290415	NaN	2586912.7126125	2586913.22911452
60	23	0	0	90	36.1581920903955	36.241610738255	11	0.366705020070076	2	7	5	NaN	2	5	0.0190648399435654	0	1	NaN	66	2	3	2	120	220	320	NaN	520	3.61943632410839	1	0	NaN	2586917.9297753	NaN	2586918.9131691	2586919.42972558
60	23	0	0	90	36.1581920903955	36.241610738255	10	0.333368200063705	2	2	3	NaN	1	3	0.0190648399435654	0	1	NaN	67	2	4	2	120	220	320	NaN	520	4.26117032812908	1	1	NaN	2586923.8636054	NaN	2586924.8470936	2586925.36363657
60	23	0	0	90	36.1581920903955	36.241610738255	6	0.200020920038223	2	7	4	NaN	2	4	0.0190648399435654	0	1	NaN	68	2	5	2	120	220	320	NaN	520	3.62175732431933	1	0	NaN	2586930.4309093	NaN	2586931.414405	2586931.93094828
60	23	0	0	90	36.1581920903955	36.241610738255	19	0.63339958012104	2	6	1	NaN	1	4	0.0190648399435654	0	1	NaN	69	2	6	2	120	220	320	NaN	520	2.76037502847612	2	0	NaN	2586936.3649175	NaN	2586937.3483054	2586937.86486267
60	23	0	0	90	36.1581920903955	36.241610738255	16	0.533389120101929	2	12	6	NaN	2	4	0.0190648399435654	0	1	NaN	70	2	7	2	120	220	320	NaN	520	4.6127619240433	2	1	NaN	2586941.4320627	NaN	2586942.4154881	2586942.93202338
60	23	0	0	90	36.1581920903955	36.241610738255	6	0.200020920038223	2	10	6	NaN	2	4	0.0190648399435654	0	1	NaN	71	2	8	2	120	220	320	NaN	520	3.04756672820076	1	0	NaN	2586948.3493168	NaN	2586949.3328208	2586949.84937197
60	23	0	0	90	36.1581920903955	36.241610738255	14	0.466715480089188	2	12	6	NaN	2	5	0.0190648399435654	0	1	NaN	72	2	9	2	120	220	320	NaN	520	4.20066032465547	2	1	NaN	2586953.7166191	NaN	2586954.7000783	2586955.21656408
60	23	0	0	90	36.1581920903955	36.241610738255	13	0.433378660082817	2	3	5	NaN	1	3	0.0190648399435654	0	1	NaN	73	2	10	2	120	220	320	NaN	520	2.69902858044952	1	1	NaN	2586960.2339268	NaN	2586961.2173204	2586961.73388082
60	23	0	0	90	36.1581920903955	36.241610738255	22	0.733410040140152	2	2	6	NaN	1	5	0.0190648399435654	0	1	NaN	74	2	11	2	120	220	320	NaN	520	1.16230362467468	1	1	NaN	2586965.2510899	NaN	2586966.2344851	2586966.75103218
60	23	0	0	90	36.1581920903955	36.241610738255	11	0.366705020070076	2	12	4	NaN	2	4	0.0190648399435654	0	1	NaN	75	2	12	2	120	220	320	NaN	520	6.78106377599761	2	1	NaN	2586969.1681425	NaN	2586970.1516159	2586970.66808052
60	23	0	0	90	36.1581920903955	36.241610738255	18	0.60006276011467	2	12	6	NaN	2	4	0.0190648399435654	0	1	NaN	76	2	13	2	120	220	320	NaN	520	2.41667372453958	2	1	NaN	2586978.2523706	NaN	2586979.2357394	2586979.75230508
60	23	0	0	90	36.1581920903955	36.241610738255	24	0.800083680152893	2	4	5	NaN	1	3	0.0190648399435654	0	1	NaN	77	2	14	2	120	220	320	NaN	520	3.76326002785936	1	1	NaN	2586982.9861928	NaN	2586983.9695795	2586984.48610197
60	23	0	0	90	36.1581920903955	36.241610738255	12	0.400041840076447	2	5	3	NaN	1	3	0.0190648399435654	0	1	NaN	78	2	15	2	120	220	320	NaN	520	1.49525538040325	1	1	NaN	2586989.0700921	NaN	2586990.0534859	2586990.57003192
60	23	0	0	90	36.1581920903955	36.241610738255	21	0.700073220133781	2	5	5	NaN	1	5	0.0190648399435654	0	1	NaN	79	2	16	2	120	220	320	NaN	520	3.27481074025854	2	0	NaN	2586993.170473	NaN	2586994.1537925	2586994.67044746
60	23	0	0	90	36.1581920903955	36.241610738255	7	0.233357740044594	2	10	2	NaN	2	3	0.0190648399435654	0	1	NaN	80	2	17	2	120	220	320	NaN	520	0.97900872444734	2	1	NaN	2586998.7543681	NaN	2586999.7377746	2587000.25433738
60	23	0	0	90	36.1581920903955	36.241610738255	23	0.766746860146523	2	12	5	NaN	2	4	0.0190648399435654	0	1	NaN	81	2	18	2	120	220	320	NaN	520	5.97437569173053	2	1	NaN	2587002.0546942	NaN	2587003.0381074	2587003.55465191
60	23	0	0	90	36.1581920903955	36.241610738255	11	0.366705020070076	2	6	2	NaN	1	3	0.0190648399435654	0	1	NaN	82	2	19	2	120	220	320	NaN	520	2.4260943280533	1	1	NaN	2587010.3388338	NaN	2587011.3222481	2587011.83879807
60	23	0	0	90	36.1581920903955	36.241610738255	10	0.333368200063705	2	11	2	NaN	2	4	0.0190648399435654	0	1	NaN	83	2	20	2	120	220	320	NaN	520	5.52458062814549	2	1	NaN	2587015.0725323	NaN	2587016.0560359	2587016.57259127
60	23	0	0	90	36.1581920903955	36.241610738255	25	0.833420500159264	2	10	2	NaN	2	5	0.0190648399435654	0	1	NaN	84	2	21	2	120	220	320	NaN	520	1.94652362447232	1	0	NaN	2587022.906732	NaN	2587023.8901399	2587024.40668468
60	23	0	0	90	36.1581920903955	36.241610738255	19	0.63339958012104	2	5	1	NaN	1	3	0.0190648399435654	0	1	NaN	85	2	22	2	120	220	320	NaN	520	3.15148367639631	2	0	NaN	2587027.1738278	NaN	2587028.1572327	2587028.67377542
60	23	0	0	90	36.1581920903955	36.241610738255	21	0.700073220133781	2	4	4	NaN	1	4	0.0190648399435654	0	1	NaN	86	2	23	2	120	220	320	NaN	520	2.63617307599634	2	0	NaN	2587032.6410873	NaN	2587033.6243149	2587034.14098492
60	23	0	0	90	36.1581920903955	36.241610738255	16	0.533389120101929	2	1	5	NaN	1	5	0.0190648399435654	0	1	NaN	87	2	24	2	120	220	320	NaN	520	4.02984402840957	1	1	NaN	2587037.5915211	NaN	2587038.574921	2587039.09147087
60	23	0	0	90	36.1581920903955	36.241610738255	15	0.500052300095558	2	3	5	NaN	1	5	0.0190648399435654	0	1	NaN	88	2	25	2	120	220	320	NaN	520	2.89516697637737	1	1	NaN	2587043.9421371	NaN	2587044.9255411	2587045.44209562
60	23	0	0	90	36.1581920903955	36.241610738255	21	0.700073220133781	2	1	6	NaN	1	4	0.0190648399435654	0	1	NaN	89	2	26	2	120	220	320	NaN	520	3.13375078048557	2	0	NaN	2587049.1593202	NaN	2587050.1427176	2587050.65927612
60	23	0	0	90	36.1581920903955	36.241610738255	25	0.833420500159264	2	4	3	NaN	1	4	0.0190648399435654	0	1	NaN	90	2	27	2	120	220	320	NaN	520	3.89326112437993	2	0	NaN	2587054.9597821	NaN	2587055.9432878	2587056.45983608
60	23	0	0	90	36.1581920903955	36.241610738255	9	0.300031380057335	2	8	5	NaN	2	5	0.0190648399435654	0	1	NaN	91	2	28	2	120	220	320	NaN	520	3.73231142852455	2	1	NaN	2587061.1771996	NaN	2587062.1605775	2587062.67711867
60	23	0	0	90	36.1581920903955	36.241610738255	25	0.833420500159264	2	3	2	NaN	1	4	0.0190648399435654	0	1	NaN	92	2	29	2	120	220	320	NaN	520	3.26527487207204	1	1	NaN	2587067.2277572	NaN	2587068.211156	2587068.72770153
60	23	0	0	90	36.1581920903955	36.241610738255	10	0.333368200063705	2	11	5	NaN	2	4	0.0190648399435654	0	1	NaN	93	2	30	2	120	220	320	NaN	520	4.60966402851045	2	1	NaN	2587072.8116352	NaN	2587073.7950378	2587074.31158717
60	23	0	0	90	36.1581920903955	36.241610738255	9	0.300031380057335	2	12	2	NaN	2	3	0.0190648399435654	0	1	NaN	94	2	31	2	120	220	320	NaN	520	3.6682707760483	1	0	NaN	2587079.7288635	NaN	2587080.7123882	2587081.22894212
60	23	0	0	90	36.1581920903955	36.241610738255	16	0.533389120101929	2	3	5	NaN	1	5	0.0190648399435654	0	1	NaN	95	2	32	2	120	220	320	NaN	520	3.83642329648137	1	1	NaN	2587085.7129467	NaN	2587086.6963074	2587087.2128652
60	23	0	0	90	36.1581920903955	36.241610738255	19	0.63339958012104	2	11	2	NaN	2	3	0.0190648399435654	0	1	NaN	96	2	33	2	120	220	320	NaN	520	2.03764142422006	2	1	NaN	2587091.8635217	NaN	2587092.8469051	2587093.36346088
60	23	0	0	90	36.1581920903955	36.241610738255	24	0.800083680152893	2	1	2	NaN	1	3	0.0190648399435654	0	1	NaN	97	2	34	2	120	220	320	NaN	520	3.55110378004611	2	0	NaN	2587096.2139383	NaN	2587097.1973107	2587097.71388482
60	23	0	0	90	36.1581920903955	36.241610738255	21	0.700073220133781	2	6	3	NaN	1	3	0.0190648399435654	0	1	NaN	98	2	35	2	120	220	320	NaN	520	3.61197112454101	2	0	NaN	2587102.0811171	NaN	2587103.064574	2587103.58112958
60	23	0	0	90	36.1581920903955	36.241610738255	18	0.60006276011467	2	4	2	NaN	1	4	0.0190648399435654	0	1	NaN	99	2	36	2	120	220	320	NaN	520	1.68708842806518	1	1	NaN	2587107.9983039	NaN	2587108.9818652	2587109.49837397
60	23	0	0	90	36.1581920903955	36.241610738255	15	0.500052300095558	2	6	6	NaN	1	4	0.0190648399435654	0	1	NaN	100	2	37	2	120	220	320	NaN	520	1.80643297592178	1	1	NaN	2587111.9987845	NaN	2587112.982214	2587113.49877452
60	23	0	0	90	36.1581920903955	36.241610738255	22	0.733410040140152	2	1	5	NaN	1	5	0.0190648399435654	0	1	NaN	101	2	38	2	120	220	320	NaN	520	4.29730372829363	2	0	NaN	2587116.1158894	NaN	2587117.0992857	2587117.61584037
60	23	0	0	90	36.1581920903955	36.241610738255	17	0.566725940108299	2	2	3	NaN	1	3	0.0190648399435654	0	1	NaN	102	2	39	2	120	220	320	NaN	520	2.75240497570485	1	1	NaN	2587122.7332069	NaN	2587123.716597	2587124.23315052
60	23	0	0	90	36.1581920903955	36.241610738255	11	0.366705020070076	2	9	6	NaN	2	3	0.0190648399435654	0	1	NaN	103	2	40	2	120	220	320	NaN	520	2.05311638023704	2	1	NaN	2587127.8003631	NaN	2587128.7837745	2587129.30032222
60	23	0	0	90	36.1581920903955	36.241610738255	20	0.666736400127411	2	7	6	NaN	2	4	0.0190648399435654	0	1	NaN	104	2	41	2	120	220	320	NaN	520	4.29375012824312	2	1	NaN	2587132.1674731	NaN	2587133.1508661	2587133.66742277
60	23	0	0	90	36.1581920903955	36.241610738255	10	0.333368200063705	2	10	3	NaN	2	4	0.0190648399435654	0	1	NaN	105	2	42	2	120	220	320	NaN	520	2.75711698038504	1	0	NaN	2587138.7681851	NaN	2587139.751497	2587140.26806832
60	23	0	0	90	36.1581920903955	36.241610738255	24	0.800083680152893	2	7	3	NaN	2	3	0.0190648399435654	0	1	NaN	106	2	43	2	120	220	320	NaN	520	3.46624533645809	2	1	NaN	2587143.8352662	NaN	2587144.8186746	2587145.33523446
60	23	0	0	90	36.1581920903955	36.241610738255	10	0.333368200063705	2	4	5	NaN	1	5	0.0190648399435654	0	1	NaN	107	2	44	2	120	220	320	NaN	520	2.4103995282203	1	1	NaN	2587149.6191676	NaN	2587150.6025806	2587151.11912567
60	23	0	0	90	36.1581920903955	36.241610738255	19	0.63339958012104	2	4	2	NaN	1	5	0.0190648399435654	0	1	NaN	108	2	45	2	120	220	320	NaN	520	2.37289997609332	1	1	NaN	2587154.3362974	NaN	2587155.3197299	2587155.83625982
60	23	0	0	90	36.1581920903955	36.241610738255	20	0.666736400127411	2	2	3	NaN	1	5	0.0190648399435654	0	1	NaN	109	2	46	2	120	220	320	NaN	520	1.96114808041602	2	0	NaN	2587159.0201045	NaN	2587160.0035075	2587160.52005602
60	23	0	0	90	36.1581920903955	36.241610738255	13	0.433378660082817	2	12	6	NaN	2	5	0.0190648399435654	0	1	NaN	110	2	47	2	120	220	320	NaN	520	2.1104122758843	2	1	NaN	2587163.2872242	NaN	2587164.2705991	2587164.78714222
60	23	0	0	90	36.1581920903955	36.241610738255	11	0.366705020070076	2	4	2	NaN	1	3	0.0190648399435654	0	1	NaN	111	2	48	2	120	220	320	NaN	520	1.33322788029909	1	1	NaN	2587167.7041774	NaN	2587168.6877201	2587169.20423522
60	23	0	0	90	36.1581920903955	36.241610738255	17	0.566725940108299	2	11	1	NaN	2	5	0.0190648399435654	0	1	NaN	112	2	49	2	120	220	320	NaN	520	4.50699432799593	2	1	NaN	2587171.3546442	NaN	2587172.3380553	2587172.85459417
60	23	0	0	90	36.1581920903955	36.241610738255	22	0.733410040140152	2	9	2	NaN	2	4	0.0190648399435654	0	1	NaN	113	2	50	2	120	220	320	NaN	520	4.14535132842138	2	1	NaN	2587178.1718379	NaN	2587179.1553855	2587179.67192507
60	23	0	0	90	36.1581920903955	36.241610738255	24	0.800083680152893	2	11	6	NaN	2	5	0.0190648399435654	0	1	NaN	114	2	51	2	120	220	320	NaN	520	3.66289057582617	1	0	NaN	2587184.6226056	NaN	2587185.6060299	2587186.12256552
60	23	0	0	90	36.1581920903955	36.241610738255	24	0.800083680152893	2	9	6	NaN	2	5	0.0190648399435654	0	1	NaN	115	2	52	2	120	220	320	NaN	520	2.59130288800225	2	1	NaN	2587190.6065353	NaN	2587191.5899374	2587192.10648221
60	23	0	0	90	36.1581920903955	36.241610738255	9	0.300031380057335	2	5	2	NaN	1	4	0.0190648399435654	0	1	NaN	116	2	53	2	120	220	320	NaN	520	2.74621342448518	1	1	NaN	2587195.5068876	NaN	2587196.4904043	2587197.00696468
60	23	0	0	90	36.1581920903955	36.241610738255	16	0.533389120101929	2	10	2	NaN	2	4	0.0190648399435654	0	1	NaN	117	2	54	2	120	220	320	NaN	520	3.7991656283848	2	1	NaN	2587200.5741814	NaN	2587201.5575732	2587202.07412767
60	23	0	0	90	36.1581920903955	36.241610738255	12	0.400041840076447	2	8	2	NaN	2	3	0.0190648399435654	0	1	NaN	118	2	55	2	120	220	320	NaN	520	3.01080107595772	2	1	NaN	2587206.6746585	NaN	2587207.6581848	2587208.17472982
60	23	0	0	90	36.1581920903955	36.241610738255	6	0.200020920038223	2	3	2	NaN	1	5	0.0190648399435654	0	1	NaN	119	2	56	2	120	220	320	NaN	520	1.54123238055035	2	0	NaN	2587211.9919521	NaN	2587212.9753965	2587213.49192162
60	23	0	0	90	36.1581920903955	36.241610738255	14	0.466715480089188	2	5	4	NaN	1	3	0.0190648399435654	0	1	NaN	120	2	57	2	120	220	320	NaN	520	3.64328027609736	2	0	NaN	2587215.8423211	NaN	2587216.8257452	2587217.34229572
60	23	0	0	90	36.1581920903955	36.241610738255	20	0.666736400127411	2	10	1	NaN	2	4	0.0190648399435654	0	1	NaN	121	2	58	2	120	220	320	NaN	520	4.46046294411644	2	1	NaN	2587221.7929258	NaN	2587222.7763336	2587223.29287806
60	23	0	0	90	36.1581920903955	36.241610738255	22	0.733410040140152	2	12	1	NaN	2	4	0.0190648399435654	0	1	NaN	122	2	59	2	120	220	320	NaN	520	6.5322724240832	2	1	NaN	2587228.5769203	NaN	2587229.5603193	2587230.07687118
60	23	0	0	90	36.1581920903955	36.241610738255	21	0.700073220133781	2	9	5	NaN	2	5	0.0190648399435654	0	1	NaN	123	2	60	2	120	220	320	NaN	520	2.82548968028277	2	1	NaN	2587237.4278178	NaN	2587238.4111992	2587238.92774632
60	23	0	0	90	36.1581920903955	36.241610738255	25	0.833420500159264	2	1	5	NaN	1	3	0.0190648399435654	0	1	NaN	124	2	61	2	120	220	320	NaN	520	1.82805697573349	1	1	NaN	2587242.5615257	NaN	2587243.545017	2587244.06157722
60	23	0	0	90	36.1581920903955	36.241610738255	23	0.766746860146523	2	3	3	NaN	1	4	0.0190648399435654	0	1	NaN	125	2	62	2	120	220	320	NaN	520	1.86207502800971	2	0	NaN	2587246.6952553	NaN	2587247.6788059	2587248.19531867
60	23	0	0	90	36.1581920903955	36.241610738255	11	0.366705020070076	2	12	5	NaN	2	4	0.0190648399435654	0	1	NaN	126	2	63	2	120	220	320	NaN	520	3.42261042445898	1	0	NaN	2587250.879117	NaN	2587251.8625039	2587252.37905888
60	23	0	0	90	36.1581920903955	36.241610738255	18	0.60006276011467	2	7	6	NaN	2	3	0.0190648399435654	0	1	NaN	127	3	1	2	120	220	320	NaN	520	2.55401222826913	2	1	NaN	2587293.683318	NaN	2587294.6667665	2587295.18328777
60	23	0	0	90	36.1581920903955	36.241610738255	9	0.300031380057335	2	7	4	NaN	2	4	0.0190648399435654	0	1	NaN	128	3	2	2	120	220	320	NaN	520	3.99935952806845	2	1	NaN	2587298.5503472	NaN	2587299.5338822	2587300.05041077
60	23	0	0	90	36.1581920903955	36.241610738255	17	0.566725940108299	2	4	5	NaN	1	4	0.0190648399435654	0	1	NaN	129	3	3	2	120	220	320	NaN	520	2.88201647577807	1	1	NaN	2587304.8675848	NaN	2587305.8511596	2587306.36770012
60	23	0	0	90	36.1581920903955	36.241610738255	11	0.366705020070076	2	5	3	NaN	1	3	0.0190648399435654	0	1	NaN	130	3	4	2	120	220	320	NaN	520	4.04119118023664	1	1	NaN	2587310.0682552	NaN	2587311.0516648	2587311.56820852
60	23	0	0	90	36.1581920903955	36.241610738255	25	0.833420500159264	2	9	6	NaN	2	5	0.0190648399435654	0	1	NaN	131	3	5	2	120	220	320	NaN	520	2.40255792438984	1	0	NaN	2587316.4188768	NaN	2587317.4022741	2587317.91882848
60	23	0	0	90	36.1581920903955	36.241610738255	22	0.733410040140152	2	3	4	NaN	1	4	0.0190648399435654	0	1	NaN	132	3	6	2	120	220	320	NaN	520	2.46169472439215	2	0	NaN	2587321.1360147	NaN	2587322.1194849	2587322.63595318
60	23	0	0	90	36.1581920903955	36.241610738255	23	0.766746860146523	2	3	1	NaN	1	4	0.0190648399435654	0	1	NaN	133	3	7	2	120	220	320	NaN	520	3.7257600245066	2	0	NaN	2587325.9198031	NaN	2587326.9032095	2587327.41976778
60	23	0	0	90	36.1581920903955	36.241610738255	21	0.700073220133781	2	8	2	NaN	2	4	0.0190648399435654	0	1	NaN	134	3	8	2	120	220	320	NaN	520	5.29168892838061	2	1	NaN	2587331.9537426	NaN	2587332.9371324	2587333.45368187
60	23	0	0	90	36.1581920903955	36.241610738255	14	0.466715480089188	2	6	2	NaN	1	4	0.0190648399435654	0	1	NaN	135	3	9	2	120	220	320	NaN	520	1.29922397201881	1	1	NaN	2587339.5544852	NaN	2587340.5378911	2587341.05442843
60	23	0	0	90	36.1581920903955	36.241610738255	19	0.63339958012104	2	9	5	NaN	2	4	0.0190648399435654	0	1	NaN	136	3	10	2	120	220	320	NaN	520	3.48982988065109	2	1	NaN	2587343.1715187	NaN	2587344.1549028	2587344.67145412
60	23	0	0	90	36.1581920903955	36.241610738255	16	0.533389120101929	2	4	4	NaN	1	5	0.0190648399435654	0	1	NaN	137	3	11	2	120	220	320	NaN	520	2.96140972478315	1	1	NaN	2587348.9721351	NaN	2587349.9554788	2587350.47202068
60	23	0	0	90	36.1581920903955	36.241610738255	24	0.800083680152893	2	1	3	NaN	1	3	0.0190648399435654	0	1	NaN	138	3	12	2	120	220	320	NaN	520	2.4546135282144	1	1	NaN	2587354.2392578	NaN	2587355.2226442	2587355.73920727
60	23	0	0	90	36.1581920903955	36.241610738255	7	0.233357740044594	2	2	6	NaN	1	4	0.0190648399435654	0	1	NaN	139	3	13	2	120	220	320	NaN	520	3.15938922436908	1	1	NaN	2587359.0063835	NaN	2587359.9897885	2587360.50634338
60	23	0	0	90	36.1581920903955	36.241610738255	13	0.433378660082817	2	2	5	NaN	1	5	0.0190648399435654	0	1	NaN	140	3	14	2	120	220	320	NaN	520	3.02022568043321	1	1	NaN	2587364.4735887	NaN	2587365.4570062	2587365.97353992
60	23	0	0	90	36.1581920903955	36.241610738255	8	0.266694560050964	2	9	4	NaN	2	5	0.0190648399435654	0	1	NaN	141	3	15	2	120	220	320	NaN	520	2.15805452829227	1	0	NaN	2587369.8074531	NaN	2587370.7908893	2587371.30740257
60	23	0	0	90	36.1581920903955	36.241610738255	23	0.766746860146523	2	1	2	NaN	1	4	0.0190648399435654	0	1	NaN	142	3	16	2	120	220	320	NaN	520	2.48306872835383	2	0	NaN	2587374.2744416	NaN	2587375.257978	2587375.77451497
60	23	0	0	90	36.1581920903955	36.241610738255	19	0.63339958012104	2	3	2	NaN	1	3	0.0190648399435654	0	1	NaN	143	3	17	2	120	220	320	NaN	520	1.49851842829958	1	1	NaN	2587379.0750415	NaN	2587380.0584716	2587380.57498207
60	23	0	0	90	36.1581920903955	36.241610738255	22	0.733410040140152	2	7	6	NaN	2	5	0.0190648399435654	0	1	NaN	144	3	18	2	120	220	320	NaN	520	2.17739438032731	2	1	NaN	2587382.8919493	NaN	2587383.8754796	2587384.39202272
60	23	0	0	90	36.1581920903955	36.241610738255	25	0.833420500159264	2	8	3	NaN	2	4	0.0190648399435654	0	1	NaN	145	3	19	2	120	220	320	NaN	520	3.04602372460067	2	1	NaN	2587387.3757487	NaN	2587388.3593349	2587388.87579138
60	23	0	0	90	36.1581920903955	36.241610738255	21	0.700073220133781	2	10	1	NaN	2	3	0.0190648399435654	0	1	NaN	146	3	20	2	120	220	320	NaN	520	2.16660538036376	2	1	NaN	2587392.7430456	NaN	2587393.7265025	2587394.24298682
60	23	0	0	90	36.1581920903955	36.241610738255	12	0.400041840076447	2	5	3	NaN	1	5	0.0190648399435654	0	1	NaN	147	3	21	2	120	220	320	NaN	520	3.00305997207761	2	0	NaN	2587397.2266846	NaN	2587398.2102204	2587398.72675983
60	23	0	0	90	36.1581920903955	36.241610738255	9	0.300031380057335	2	11	2	NaN	2	4	0.0190648399435654	0	1	NaN	148	3	22	2	120	220	320	NaN	520	2.60578342806548	2	1	NaN	2587402.5439855	NaN	2587403.5273991	2587404.04394247
60	23	0	0	90	36.1581920903955	36.241610738255	7	0.233357740044594	2	6	1	NaN	1	4	0.0190648399435654	0	1	NaN	149	3	23	2	120	220	320	NaN	520	1.52077067596838	1	1	NaN	2587407.4611226	NaN	2587408.4445484	2587408.96109972
60	23	0	0	90	36.1581920903955	36.241610738255	23	0.766746860146523	2	2	6	NaN	1	4	0.0190648399435654	0	1	NaN	150	3	24	2	120	220	320	NaN	520	1.63866097573191	1	1	NaN	2587411.2948675	NaN	2587412.2782677	2587412.79480452
60	23	0	0	90	36.1581920903955	36.241610738255	10	0.333368200063705	2	12	5	NaN	2	3	0.0190648399435654	0	1	NaN	151	3	25	2	120	220	320	NaN	520	6.48836302850395	1	0	NaN	2587415.2452413	NaN	2587416.2286494	2587416.74519867
60	23	0	0	90	36.1581920903955	36.241610738255	19	0.63339958012104	2	12	6	NaN	2	4	0.0190648399435654	0	1	NaN	152	3	26	2	120	220	320	NaN	520	4.12721107620746	1	0	NaN	2587424.0460476	NaN	2587425.0295162	2587425.54605182
60	23	0	0	90	36.1581920903955	36.241610738255	10	0.333368200063705	2	6	4	NaN	1	4	0.0190648399435654	0	1	NaN	153	3	27	2	120	220	320	NaN	520	1.7412225282751	2	0	NaN	2587430.496821	NaN	2587431.480186	2587431.99669537
60	23	0	0	90	36.1581920903955	36.241610738255	11	0.366705020070076	2	10	5	NaN	2	3	0.0190648399435654	0	1	NaN	154	3	28	2	120	220	320	NaN	520	2.34659217623994	2	1	NaN	2587434.5471069	NaN	2587435.5305438	2587436.04708802
60	23	0	0	90	36.1581920903955	36.241610738255	19	0.63339958012104	2	2	4	NaN	1	5	0.0190648399435654	0	1	NaN	155	3	29	2	120	220	320	NaN	520	0.835065275896341	2	0	NaN	2587439.3309137	NaN	2587440.3143429	2587440.83089282
60	23	0	0	90	36.1581920903955	36.241610738255	14	0.466715480089188	2	3	6	NaN	1	4	0.0190648399435654	0	1	NaN	156	3	30	2	120	220	320	NaN	520	1.2603844278492	2	0	NaN	2587442.4812695	NaN	2587443.4646553	2587443.98120327
60	23	0	0	90	36.1581920903955	36.241610738255	8	0.266694560050964	2	11	1	NaN	2	4	0.0190648399435654	0	1	NaN	157	3	31	2	120	220	320	NaN	520	2.90936832455918	1	0	NaN	2587446.0482529	NaN	2587447.0316646	2587447.54821728
60	23	0	0	90	36.1581920903955	36.241610738255	25	0.833420500159264	2	7	4	NaN	2	4	0.0190648399435654	0	1	NaN	158	3	32	2	120	220	320	NaN	520	2.56344232428819	1	0	NaN	2587451.2821255	NaN	2587452.2655096	2587452.78206468
60	23	0	0	90	36.1581920903955	36.241610738255	19	0.63339958012104	2	10	2	NaN	2	3	0.0190648399435654	0	1	NaN	159	3	33	2	120	220	320	NaN	520	2.20242172433063	2	1	NaN	2587456.4992907	NaN	2587457.4826887	2587457.99923608
60	23	0	0	90	36.1581920903955	36.241610738255	20	0.666736400127411	2	8	5	NaN	2	3	0.0190648399435654	0	1	NaN	160	3	34	2	120	220	320	NaN	520	2.96556502813473	1	0	NaN	2587461.0163997	NaN	2587461.9998076	2587462.51636007
60	23	0	0	90	36.1581920903955	36.241610738255	15	0.500052300095558	2	8	3	NaN	2	3	0.0190648399435654	0	1	NaN	161	3	35	2	120	220	320	NaN	520	2.33767388062552	2	1	NaN	2587466.3002586	NaN	2587467.2836531	2587467.80019962
60	23	0	0	90	36.1581920903955	36.241610738255	6	0.200020920038223	2	9	5	NaN	2	4	0.0190648399435654	0	1	NaN	162	3	36	2	120	220	320	NaN	520	2.93497238028795	2	1	NaN	2587470.9505942	NaN	2587471.9341083	2587472.45065832
60	23	0	0	90	36.1581920903955	36.241610738255	7	0.233357740044594	2	5	1	NaN	1	3	0.0190648399435654	0	1	NaN	163	3	37	2	120	220	320	NaN	520	1.70062977215275	1	1	NaN	2587476.2012297	NaN	2587477.1846296	2587477.70117903
60	23	0	0	90	36.1581920903955	36.241610738255	19	0.63339958012104	2	5	1	NaN	1	5	0.0190648399435654	0	1	NaN	164	3	38	2	120	220	320	NaN	520	3.52351943217218	2	0	NaN	2587480.2182946	NaN	2587481.2016905	2587481.71824207
60	23	0	0	90	36.1581920903955	36.241610738255	14	0.466715480089188	2	8	6	NaN	2	5	0.0190648399435654	0	1	NaN	165	3	39	2	120	220	320	NaN	520	4.03001642460003	2	1	NaN	2587486.3354313	NaN	2587487.3189572	2587487.83551728
60	23	0	0	90	36.1581920903955	36.241610738255	11	0.366705020070076	2	9	1	NaN	2	3	0.0190648399435654	0	1	NaN	166	3	40	2	120	220	320	NaN	520	3.67976642819121	2	1	NaN	2587492.686189	NaN	2587493.6695806	2587494.18612647
60	23	0	0	90	36.1581920903955	36.241610738255	9	0.300031380057335	2	9	2	NaN	2	4	0.0190648399435654	0	1	NaN	167	3	41	2	120	220	320	NaN	520	0.607442024163902	1	0	NaN	2587498.6867509	NaN	2587499.6701805	2587500.18672808
60	23	0	0	90	36.1581920903955	36.241610738255	24	0.800083680152893	2	5	2	NaN	1	5	0.0190648399435654	0	1	NaN	168	3	42	2	120	220	320	NaN	520	4.61870212852955	1	1	NaN	2587501.6037295	NaN	2587502.5871073	2587503.10366517
60	23	0	0	90	36.1581920903955	36.241610738255	7	0.233357740044594	2	9	4	NaN	2	3	0.0190648399435654	0	1	NaN	169	3	43	2	120	220	320	NaN	520	2.3002521279268	1	0	NaN	2587508.5376064	NaN	2587509.5211335	2587510.03769047
60	23	0	0	90	36.1581920903955	36.241610738255	9	0.300031380057335	2	4	1	NaN	1	4	0.0190648399435654	0	1	NaN	170	3	44	2	120	220	320	NaN	520	1.71517568035051	2	0	NaN	2587513.154746	NaN	2587514.138266	2587514.65481042
60	23	0	0	90	36.1581920903955	36.241610738255	13	0.433378660082817	2	8	1	NaN	2	4	0.0190648399435654	0	1	NaN	171	3	45	2	120	220	320	NaN	520	1.89782332396135	1	0	NaN	2587517.1719338	NaN	2587518.1553037	2587518.67186308
60	23	0	0	90	36.1581920903955	36.241610738255	10	0.333368200063705	2	3	6	NaN	1	4	0.0190648399435654	0	1	NaN	172	3	46	2	120	220	320	NaN	520	2.62884898018092	2	0	NaN	2587521.4890197	NaN	2587522.4724095	2587522.98896032
60	23	0	0	90	36.1581920903955	36.241610738255	19	0.63339958012104	2	8	6	NaN	2	4	0.0190648399435654	0	1	NaN	173	3	47	2	120	220	320	NaN	520	3.2385884243995	1	0	NaN	2587526.4395093	NaN	2587527.4228957	2587527.93944028
60	23	0	0	90	36.1581920903955	36.241610738255	12	0.400041840076447	2	12	4	NaN	2	3	0.0190648399435654	0	1	NaN	174	3	48	2	120	220	320	NaN	520	1.97611032798886	1	0	NaN	2587531.9899186	NaN	2587532.973443	2587533.48999097
60	23	0	0	90	36.1581920903955	36.241610738255	25	0.833420500159264	2	12	6	NaN	2	3	0.0190648399435654	0	1	NaN	175	3	49	2	120	220	320	NaN	520	2.99602612433955	1	0	NaN	2587536.2737672	NaN	2587537.2571763	2587537.77374128
60	23	0	0	90	36.1581920903955	36.241610738255	11	0.366705020070076	2	8	5	NaN	2	3	0.0190648399435654	0	1	NaN	176	3	50	2	120	220	320	NaN	520	3.97494322806597	1	0	NaN	2587541.590973	NaN	2587542.57438	2587543.09092617
60	23	0	0	90	36.1581920903955	36.241610738255	22	0.733410040140152	2	5	6	NaN	1	3	0.0190648399435654	0	1	NaN	177	3	51	2	120	220	320	NaN	520	4.02750253630802	2	0	NaN	2587547.8748076	NaN	2587548.8583238	2587549.37487986
60	23	0	0	90	36.1581920903955	36.241610738255	17	0.566725940108299	2	8	3	NaN	2	4	0.0190648399435654	0	1	NaN	178	3	52	2	120	220	320	NaN	520	2.57261472847313	2	1	NaN	2587554.2255915	NaN	2587555.2089743	2587555.72549597
60	23	0	0	90	36.1581920903955	36.241610738255	15	0.500052300095558	2	11	4	NaN	2	3	0.0190648399435654	0	1	NaN	179	3	53	2	120	220	320	NaN	520	4.16071222815663	2	1	NaN	2587559.1093682	NaN	2587560.0927649	2587560.60931767
60	23	0	0	90	36.1581920903955	36.241610738255	19	0.63339958012104	2	1	2	NaN	1	4	0.0190648399435654	0	1	NaN	180	3	54	2	120	220	320	NaN	520	2.04513988038525	1	1	NaN	2587565.5766599	NaN	2587566.56007	2587567.07661932
60	23	0	0	90	36.1581920903955	36.241610738255	25	0.833420500159264	2	3	4	NaN	1	3	0.0190648399435654	0	1	NaN	181	3	55	2	120	220	320	NaN	520	3.61403442407027	1	1	NaN	2587569.94376	NaN	2587570.9271558	2587571.44370418
60	23	0	0	90	36.1581920903955	36.241610738255	10	0.333368200063705	2	12	1	NaN	2	5	0.0190648399435654	0	1	NaN	182	3	56	2	120	220	320	NaN	520	5.23002848029137	2	1	NaN	2587577.5277445	NaN	2587578.5112383	2587579.02779102
60	23	0	0	90	36.1581920903955	36.241610738255	0	0	1	9	6	NaN	2	3	0.0190648399435654	0	1	NaN	183	3	57	2	110	210	310	NaN	510	7.39957082783803	1	0	NaN	2587585.0785858	NaN	2587586.0619733	2587586.57852547
60	23	0	0	90	36.1581920903955	36.241610738255	18	0.60006276011467	2	4	4	NaN	1	5	0.0190648399435654	0	1	NaN	184	3	58	2	120	220	320	NaN	520	1.84199778037146	2	0	NaN	2587594.7962024	NaN	2587595.7796249	2587596.29614892
60	23	0	0	90	36.1581920903955	36.241610738255	14	0.466715480089188	2	8	6	NaN	2	3	0.0190648399435654	0	1	NaN	185	3	59	2	120	220	320	NaN	520	3.01922612451017	2	1	NaN	2587598.946621	NaN	2587599.929992	2587600.44654928
60	23	0	0	90	36.1581920903955	36.241610738255	7	0.233357740044594	2	5	4	NaN	1	5	0.0190648399435654	0	1	NaN	186	3	60	2	120	220	320	NaN	520	3.15766598796472	2	0	NaN	2587604.2803733	NaN	2587605.2638597	2587605.78041301
60	23	0	0	90	36.1581920903955	36.241610738255	0	0	1	6	5	NaN	1	5	0.0190648399435654	0	1	NaN	187	3	61	2	110	210	310	NaN	510	2.94630827615038	2	0	NaN	2587609.7477069	NaN	2587610.7310715	2587611.24761822
60	23	0	0	90	36.1581920903955	36.241610738255	0	0	1	9	3	NaN	2	4	0.0190648399435654	0	1	NaN	188	3	62	2	110	210	310	NaN	510	3.2637026803568	1	0	NaN	2587614.9982763	NaN	2587615.9815839	2587616.49812762
60	23	0	0	90	36.1581920903955	36.241610738255	24	0.800083680152893	2	3	1	NaN	1	5	0.0190648399435654	0	1	NaN	189	3	63	2	120	220	320	NaN	520	3.27983972430229	2	0	NaN	2587620.5820743	NaN	2587621.5654443	2587622.08201138
60	23	0	0	90	36.1581920903955	36.241610738255	12	0.400041840076447	2	11	1	NaN	2	5	0.0190648399435654	0	1	NaN	190	4	1	2	120	220	320	NaN	520	1.79169677617028	2	1	NaN	2587680.0545617	NaN	2587681.0379623	2587681.55450972
60	23	0	0	90	36.1581920903955	36.241610738255	19	0.63339958012104	2	4	1	NaN	1	4	0.0190648399435654	0	1	NaN	191	4	2	2	120	220	320	NaN	520	2.15517852827907	2	0	NaN	2587684.1548282	NaN	2587685.1383685	2587685.65491847
60	23	0	0	90	36.1581920903955	36.241610738255	0	0	1	11	5	NaN	2	5	0.0190648399435654	0	1	NaN	192	4	3	2	110	210	310	NaN	510	1.66371877212077	1	0	NaN	2587688.6219469	NaN	2587689.6054661	2587690.12201973
60	23	0	0	90	36.1581920903955	36.241610738255	8	0.266694560050964	2	4	1	NaN	1	4	0.0190648399435654	0	1	NaN	193	4	4	2	120	220	320	NaN	520	2.53608718048781	2	0	NaN	2587692.6057917	NaN	2587693.5891829	2587694.10575082
60	23	0	0	90	36.1581920903955	36.241610738255	12	0.400041840076447	2	9	1	NaN	2	5	0.0190648399435654	0	1	NaN	194	4	5	2	120	220	320	NaN	520	3.60588412405923	2	1	NaN	2587697.4562637	NaN	2587698.4396832	2587698.95622318
60	23	0	0	90	36.1581920903955	36.241610738255	14	0.466715480089188	2	4	3	NaN	1	3	0.0190648399435654	0	1	NaN	195	4	6	2	120	220	320	NaN	520	1.74117257632315	1	1	NaN	2587703.8567581	NaN	2587704.8403334	2587705.35684362
60	23	0	0	90	36.1581920903955	36.241610738255	16	0.533389120101929	2	1	3	NaN	1	3	0.0190648399435654	0	1	NaN	196	4	7	2	120	220	320	NaN	520	2.78597547579557	1	1	NaN	2587708.3239769	NaN	2587709.3073897	2587709.82396012
60	23	0	0	90	36.1581920903955	36.241610738255	15	0.500052300095558	2	1	6	NaN	1	5	0.0190648399435654	0	1	NaN	197	4	8	2	120	220	320	NaN	520	4.0059185763821	1	1	NaN	2587713.4243635	NaN	2587714.4079281	2587714.92445662
60	23	0	0	90	36.1581920903955	36.241610738255	21	0.700073220133781	2	4	6	NaN	1	3	0.0190648399435654	0	1	NaN	198	4	9	2	120	220	320	NaN	520	2.00836477614939	1	1	NaN	2587719.7417838	NaN	2587720.7251866	2587721.24174542
60	23	0	0	90	36.1581920903955	36.241610738255	11	0.366705020070076	2	6	5	NaN	1	4	0.0190648399435654	0	1	NaN	199	4	10	2	120	220	320	NaN	520	3.75492307590321	1	1	NaN	2587724.0588951	NaN	2587725.0422739	2587725.55882782
60	23	0	0	90	36.1581920903955	36.241610738255	16	0.533389120101929	2	2	2	NaN	1	3	0.0190648399435654	0	1	NaN	200	4	11	2	120	220	320	NaN	520	3.79198702797294	1	1	NaN	2587730.1261404	NaN	2587731.1095521	2587731.62609837
60	23	0	0	90	36.1581920903955	36.241610738255	16	0.533389120101929	2	2	1	NaN	1	3	0.0190648399435654	0	1	NaN	201	4	12	2	120	220	320	NaN	520	3.18706597620621	2	0	NaN	2587736.2267504	NaN	2587737.2101414	2587737.72668812
60	23	0	0	90	36.1581920903955	36.241610738255	20	0.666736400127411	2	5	3	NaN	1	4	0.0190648399435654	0	1	NaN	202	4	13	2	120	220	320	NaN	520	3.18294389219955	2	0	NaN	2587741.7272737	NaN	2587742.7106706	2587743.22723021
60	23	0	0	90	36.1581920903955	36.241610738255	16	0.533389120101929	2	11	5	NaN	2	5	0.0190648399435654	0	1	NaN	203	4	14	2	120	220	320	NaN	520	2.34634532779455	1	0	NaN	2587747.2279434	NaN	2587748.2112126	2587748.72777487
60	23	0	0	90	36.1581920903955	36.241610738255	22	0.733410040140152	2	10	3	NaN	2	4	0.0190648399435654	0	1	NaN	204	4	15	2	120	220	320	NaN	520	3.32734082825482	2	1	NaN	2587751.8949417	NaN	2587752.8783855	2587753.39490047
60	23	0	0	90	36.1581920903955	36.241610738255	15	0.500052300095558	2	3	1	NaN	1	5	0.0190648399435654	0	1	NaN	205	4	16	2	120	220	320	NaN	520	3.33321347599849	2	0	NaN	2587757.5288473	NaN	2587758.51223	2587759.02877842
60	23	0	0	90	36.1581920903955	36.241610738255	23	0.766746860146523	2	11	4	NaN	2	5	0.0190648399435654	0	1	NaN	206	4	17	2	120	220	320	NaN	520	2.81889152433723	1	0	NaN	2587763.1793916	NaN	2587764.1627971	2587764.67933238
60	23	0	0	90	36.1581920903955	36.241610738255	21	0.700073220133781	2	3	3	NaN	1	4	0.0190648399435654	0	1	NaN	207	4	18	2	120	220	320	NaN	520	2.20517092803493	1	1	NaN	2587768.3132305	NaN	2587769.2966278	2587769.81317867
60	23	0	0	90	36.1581920903955	36.241610738255	25	0.833420500159264	2	12	4	NaN	2	4	0.0190648399435654	0	1	NaN	208	4	19	2	120	220	320	NaN	520	4.72807652456686	1	0	NaN	2587772.8302558	NaN	2587773.8137349	2587774.33027758
60	23	0	0	90	36.1581920903955	36.241610738255	7	0.233357740044594	2	4	1	NaN	1	3	0.0190648399435654	0	1	NaN	209	4	20	2	120	220	320	NaN	520	2.0611888282001	1	1	NaN	2587779.8810464	NaN	2587780.8644608	2587781.38097697
60	23	0	0	90	36.1581920903955	36.241610738255	12	0.400041840076447	2	3	3	NaN	1	3	0.0190648399435654	0	1	NaN	210	4	21	2	120	220	320	NaN	520	1.80629447568208	1	1	NaN	2587784.2481334	NaN	2587785.2315234	2587785.74807452
60	23	0	0	90	36.1581920903955	36.241610738255	8	0.266694560050964	2	2	2	NaN	1	3	0.0190648399435654	0	1	NaN	211	4	22	2	120	220	320	NaN	520	3.00030848011374	2	0	NaN	2587788.3818816	NaN	2587789.3652636	2587789.88181042
60	23	0	0	90	36.1581920903955	36.241610738255	21	0.700073220133781	2	11	4	NaN	2	4	0.0190648399435654	0	1	NaN	212	4	23	2	120	220	320	NaN	520	3.77106777578592	2	1	NaN	2587793.6990398	NaN	2587794.682442	2587795.19900472
60	23	0	0	90	36.1581920903955	36.241610738255	12	0.400041840076447	2	4	4	NaN	1	5	0.0190648399435654	0	1	NaN	213	4	24	2	120	220	320	NaN	520	1.38231333624572	1	1	NaN	2587799.7996536	NaN	2587800.7830319	2587801.29960036
60	23	0	0	90	36.1581920903955	36.241610738255	22	0.733410040140152	2	7	6	NaN	2	5	0.0190648399435654	0	1	NaN	214	4	25	2	120	220	320	NaN	520	1.83449897216633	1	0	NaN	2587803.5000374	NaN	2587804.4834269	2587804.99995783
60	23	0	0	90	36.1581920903955	36.241610738255	6	0.200020920038223	2	4	3	NaN	1	4	0.0190648399435654	0	1	NaN	215	4	26	2	120	220	320	NaN	520	0.579748728312552	2	0	NaN	2587807.6504197	NaN	2587808.6337981	2587809.15037407
60	23	0	0	90	36.1581920903955	36.241610738255	14	0.466715480089188	2	7	2	NaN	2	3	0.0190648399435654	0	1	NaN	216	4	27	2	120	220	320	NaN	520	0.728119424544275	2	1	NaN	2587810.5340214	NaN	2587811.517434	2587812.03398308
60	23	0	0	90	36.1581920903955	36.241610738255	6	0.200020920038223	2	12	1	NaN	2	4	0.0190648399435654	0	1	NaN	217	4	28	2	120	220	320	NaN	520	3.30217082798481	2	1	NaN	2587813.5842756	NaN	2587814.5677312	2587815.08428647
60	23	0	0	90	36.1581920903955	36.241610738255	25	0.833420500159264	2	6	2	NaN	1	4	0.0190648399435654	0	1	NaN	218	4	29	2	120	220	320	NaN	520	1.66872427240014	2	0	NaN	2587819.2015551	NaN	2587820.1849356	2587820.70149313
60	23	0	0	90	36.1581920903955	36.241610738255	22	0.733410040140152	2	6	5	NaN	1	3	0.0190648399435654	0	1	NaN	219	4	30	2	120	220	320	NaN	520	2.09282297594473	1	1	NaN	2587823.1852902	NaN	2587824.1686709	2587824.68522752
60	23	0	0	90	36.1581920903955	36.241610738255	16	0.533389120101929	2	7	2	NaN	2	5	0.0190648399435654	0	1	NaN	220	4	31	2	120	220	320	NaN	520	4.03669787570834	2	1	NaN	2587827.5855714	NaN	2587828.5691497	2587829.08566282
60	23	0	0	90	36.1581920903955	36.241610738255	7	0.233357740044594	2	1	4	NaN	1	4	0.0190648399435654	0	1	NaN	221	4	32	2	120	220	320	NaN	520	1.56603018054739	1	1	NaN	2587833.9363417	NaN	2587834.9197365	2587835.43628712
60	23	0	0	90	36.1581920903955	36.241610738255	15	0.500052300095558	2	10	4	NaN	2	5	0.0190648399435654	0	1	NaN	222	4	33	2	120	220	320	NaN	520	2.61014832416549	2	1	NaN	2587837.8200559	NaN	2587838.8034564	2587839.31999768
60	23	0	0	90	36.1581920903955	36.241610738255	9	0.300031380057335	2	3	6	NaN	1	5	0.0190648399435654	0	1	NaN	223	4	34	2	120	220	320	NaN	520	2.26140032801777	1	1	NaN	2587842.737188	NaN	2587843.7205942	2587844.23713927
60	23	0	0	90	36.1581920903955	36.241610738255	21	0.700073220133781	2	1	1	NaN	1	3	0.0190648399435654	0	1	NaN	224	4	35	2	120	220	320	NaN	520	5.55754454387352	1	1	NaN	2587847.3209813	NaN	2587848.3044027	2587848.82093586
60	23	0	0	90	36.1581920903955	36.241610738255	18	0.60006276011467	2	11	2	NaN	2	4	0.0190648399435654	0	1	NaN	225	4	36	2	120	220	320	NaN	520	6.38602262828499	2	1	NaN	2587855.1882788	NaN	2587856.1718099	2587856.68836617
60	23	0	0	90	36.1581920903955	36.241610738255	16	0.533389120101929	2	5	2	NaN	1	3	0.0190648399435654	0	1	NaN	226	4	37	2	120	220	320	NaN	520	0.429052376188338	1	1	NaN	2587863.8892667	NaN	2587864.8726719	2587865.38921962
60	23	0	0	90	36.1581920903955	36.241610738255	11	0.366705020070076	2	11	3	NaN	2	4	0.0190648399435654	0	1	NaN	227	4	38	2	120	220	320	NaN	520	3.98363598017022	2	1	NaN	2587866.6229077	NaN	2587867.6063361	2587868.12282922
60	23	0	0	90	36.1581920903955	36.241610738255	10	0.333368200063705	2	10	5	NaN	2	5	0.0190648399435654	0	1	NaN	228	4	39	2	120	220	320	NaN	520	1.79511057632044	1	0	NaN	2587872.923473	NaN	2587873.9068917	2587874.42343532
60	23	0	0	90	36.1581920903955	36.241610738255	11	0.366705020070076	2	1	4	NaN	1	5	0.0190648399435654	0	1	NaN	229	4	40	2	120	220	320	NaN	520	1.94997912831604	1	1	NaN	2587877.0405693	NaN	2587878.0239575	2587878.54051077
60	23	0	0	90	36.1581920903955	36.241610738255	6	0.200020920038223	2	11	1	NaN	2	4	0.0190648399435654	0	1	NaN	230	4	41	2	120	220	320	NaN	520	3.12254052422941	1	0	NaN	2587881.3076253	NaN	2587882.2910421	2587882.80760208
60	23	0	0	90	36.1581920903955	36.241610738255	13	0.433378660082817	2	4	6	NaN	1	3	0.0190648399435654	0	1	NaN	231	4	42	2	120	220	320	NaN	520	2.96897202823311	2	0	NaN	2587886.7413903	NaN	2587887.724895	2587888.24146197
60	23	0	0	90	36.1581920903955	36.241610738255	8	0.266694560050964	2	11	6	NaN	2	3	0.0190648399435654	0	1	NaN	232	4	43	2	120	220	320	NaN	520	2.86118992418051	2	1	NaN	2587892.0253558	NaN	2587893.0087588	2587893.52531238
60	23	0	0	90	36.1581920903955	36.241610738255	20	0.666736400127411	2	3	6	NaN	1	3	0.0190648399435654	0	1	NaN	233	4	44	2	120	220	320	NaN	520	2.18542774394155	2	0	NaN	2587897.5092084	NaN	2587898.4926356	2587899.00919856
60	23	0	0	90	36.1581920903955	36.241610738255	6	0.200020920038223	2	11	1	NaN	2	5	0.0190648399435654	0	1	NaN	234	4	45	2	120	220	320	NaN	520	0.812494228128344	2	1	NaN	2587902.0096742	NaN	2587902.9930747	2587903.50963237
60	23	0	0	90	36.1581920903955	36.241610738255	11	0.366705020070076	2	3	3	NaN	1	3	0.0190648399435654	0	1	NaN	235	4	46	2	120	220	320	NaN	520	2.19950282806531	2	0	NaN	2587905.1266536	NaN	2587906.1100693	2587906.62660757
60	23	0	0	90	36.1581920903955	36.241610738255	15	0.500052300095558	2	2	1	NaN	1	5	0.0190648399435654	0	1	NaN	236	4	47	2	120	220	320	NaN	520	6.05038822442293	1	1	NaN	2587909.6437871	NaN	2587910.6271584	2587911.14370378
60	23	0	0	90	36.1581920903955	36.241610738255	6	0.200020920038223	2	3	4	NaN	1	3	0.0190648399435654	0	1	NaN	237	4	48	2	120	220	320	NaN	520	3.36336102429777	2	0	NaN	2587918.0112529	NaN	2587918.9946484	2587919.51119498
60	23	0	0	90	36.1581920903955	36.241610738255	21	0.700073220133781	2	7	1	NaN	2	3	0.0190648399435654	0	1	NaN	238	4	49	2	120	220	320	NaN	520	3.60135347209871	2	1	NaN	2587924.0451639	NaN	2587925.0285739	2587925.54512113
60	23	0	0	90	36.1581920903955	36.241610738255	11	0.366705020070076	2	1	3	NaN	1	5	0.0190648399435654	0	1	NaN	239	4	50	2	120	220	320	NaN	520	1.8518760278821	2	0	NaN	2587929.9624209	NaN	2587930.9457967	2587931.46236757
60	23	0	0	90	36.1581920903955	36.241610738255	11	0.366705020070076	2	4	6	NaN	1	4	0.0190648399435654	0	1	NaN	240	4	51	2	120	220	320	NaN	520	1.67682792851701	1	1	NaN	2587934.129488	NaN	2587935.1129116	2587935.62944817
60	23	0	0	90	36.1581920903955	36.241610738255	15	0.500052300095558	2	11	5	NaN	2	4	0.0190648399435654	0	1	NaN	241	4	52	2	120	220	320	NaN	520	3.9494102280587	2	1	NaN	2587938.1132214	NaN	2587939.0966279	2587939.61317197
60	23	0	0	90	36.1581920903955	36.241610738255	9	0.300031380057335	2	1	4	NaN	1	3	0.0190648399435654	0	1	NaN	242	4	53	2	120	220	320	NaN	520	0.418092624749988	1	1	NaN	2587944.3804932	NaN	2587945.3639019	2587945.88044688
60	23	0	0	90	36.1581920903955	36.241610738255	25	0.833420500159264	2	5	3	NaN	1	4	0.0190648399435654	0	1	NaN	243	4	54	2	120	220	320	NaN	520	3.8282218282111	2	0	NaN	2587947.1139853	NaN	2587948.0974957	2587948.61405687
60	23	0	0	90	36.1581920903955	36.241610738255	12	0.400041840076447	2	10	4	NaN	2	5	0.0190648399435654	0	1	NaN	244	4	55	2	120	220	320	NaN	520	3.09375262446702	1	0	NaN	2587953.2647147	NaN	2587954.2480984	2587954.76465808
60	23	0	0	90	36.1581920903955	36.241610738255	24	0.800083680152893	2	10	4	NaN	2	3	0.0190648399435654	0	1	NaN	245	4	56	2	120	220	320	NaN	520	2.85351722827181	1	0	NaN	2587958.6652481	NaN	2587959.648639	2587960.16519217
60	23	0	0	90	36.1581920903955	36.241610738255	6	0.200020920038223	2	2	5	NaN	1	3	0.0190648399435654	0	1	NaN	246	4	57	2	120	220	320	NaN	520	4.43800917221233	1	1	NaN	2587963.8324101	NaN	2587964.8158139	2587965.33235853
60	23	0	0	90	36.1581920903955	36.241610738255	19	0.63339958012104	2	6	2	NaN	1	3	0.0190648399435654	0	1	NaN	247	4	58	2	120	220	320	NaN	520	3.67956458032131	1	1	NaN	2587970.5830655	NaN	2587971.566473	2587972.08303062
60	23	0	0	90	36.1581920903955	36.241610738255	9	0.300031380057335	2	8	6	NaN	2	3	0.0190648399435654	0	1	NaN	248	4	59	2	120	220	320	NaN	520	0.519057628232986	2	1	NaN	2587976.583558	NaN	2587977.5670748	2587978.08362087
60	23	0	0	90	36.1581920903955	36.241610738255	25	0.833420500159264	2	9	1	NaN	2	3	0.0190648399435654	0	1	NaN	249	4	60	2	120	220	320	NaN	520	2.56523092789575	2	1	NaN	2587979.4172836	NaN	2587980.400678	2587980.91722217
60	23	0	0	90	36.1581920903955	36.241610738255	25	0.833420500159264	2	2	4	NaN	1	3	0.0190648399435654	0	1	NaN	250	4	61	2	120	220	320	NaN	520	1.78539472399279	1	1	NaN	2587984.3011011	NaN	2587985.2844728	2587985.80103978
60	23	0	0	90	36.1581920903955	36.241610738255	19	0.63339958012104	2	11	3	NaN	2	5	0.0190648399435654	0	1	NaN	251	4	62	2	120	220	320	NaN	520	2.39727077586576	2	1	NaN	2587988.4015018	NaN	2587989.3848915	2587989.90144812
60	23	0	0	90	36.1581920903955	36.241610738255	17	0.566725940108299	2	9	1	NaN	2	4	0.0190648399435654	0	1	NaN	252	4	63	2	120	220	320	NaN	520	0.840030375868082	1	0	NaN	2587993.1186283	NaN	2587994.1020224	2587994.61857162
60	23	0	0	90	36.1581920903955	36.241610738255	12	0.400041840076447	2	7	3	NaN	2	4	0.0190648399435654	0	1	NaN	253	5	1	2	120	220	320	NaN	520	2.73601447604597	2	1	NaN	2588052.9743765	NaN	2588053.9579006	2588054.47444632
60	23	0	0	90	36.1581920903955	36.241610738255	12	0.400041840076447	2	8	3	NaN	2	3	0.0190648399435654	0	1	NaN	254	5	2	2	120	220	320	NaN	520	3.32570793665946	2	1	NaN	2588058.0249962	NaN	2588059.0083721	2588059.52493676
60	23	0	0	90	36.1581920903955	36.241610738255	13	0.433378660082817	2	9	3	NaN	2	5	0.0190648399435654	0	1	NaN	255	5	3	2	120	220	320	NaN	520	2.61968382401392	1	0	NaN	2588063.6588677	NaN	2588064.6422681	2588065.15882718
60	23	0	0	90	36.1581920903955	36.241610738255	7	0.233357740044594	2	1	2	NaN	1	5	0.0190648399435654	0	1	NaN	256	5	4	2	120	220	320	NaN	520	2.06193142849952	1	1	NaN	2588068.592712	NaN	2588069.5761082	2588070.09264807
60	23	0	0	90	36.1581920903955	36.241610738255	8	0.266694560050964	2	3	2	NaN	1	4	0.0190648399435654	0	1	NaN	257	5	5	2	120	220	320	NaN	520	2.63843954401091	2	0	NaN	2588072.9764669	NaN	2588073.9598659	2588074.47640586
60	23	0	0	90	36.1581920903955	36.241610738255	0	0	1	3	5	NaN	1	4	0.0190648399435654	0	1	NaN	258	5	6	2	110	210	310	NaN	510	3.94496162841097	2	0	NaN	2588078.2935318	NaN	2588079.2770434	2588079.79359937
60	23	0	0	90	36.1581920903955	36.241610738255	9	0.300031380057335	2	9	3	NaN	2	3	0.0190648399435654	0	1	NaN	259	5	7	2	120	220	320	NaN	520	2.91000447236001	2	1	NaN	2588084.5608363	NaN	2588085.544383	2588086.06087533
60	23	0	0	90	36.1581920903955	36.241610738255	6	0.200020920038223	2	12	3	NaN	2	3	0.0190648399435654	0	1	NaN	260	5	8	2	120	220	320	NaN	520	1.4687787280418	2	1	NaN	2588089.7779865	NaN	2588090.7615092	2588091.27805187
60	23	0	0	90	36.1581920903955	36.241610738255	18	0.60006276011467	2	6	2	NaN	1	3	0.0190648399435654	0	1	NaN	261	5	9	2	120	220	320	NaN	520	0.468964376021177	1	1	NaN	2588093.5617985	NaN	2588094.5452087	2588095.06176632
60	23	0	0	90	36.1581920903955	36.241610738255	8	0.266694560050964	2	6	4	NaN	1	5	0.0190648399435654	0	1	NaN	262	5	10	2	120	220	320	NaN	520	4.16513712797314	2	0	NaN	2588096.3454256	NaN	2588097.328801	2588097.84536287
60	23	0	0	90	36.1581920903955	36.241610738255	15	0.500052300095558	2	5	5	NaN	1	4	0.0190648399435654	0	1	NaN	263	5	11	2	120	220	320	NaN	520	1.80907187610865	1	1	NaN	2588102.8293905	NaN	2588103.8127941	2588104.32933962
60	23	0	0	90	36.1581920903955	36.241610738255	14	0.466715480089188	2	1	5	NaN	1	4	0.0190648399435654	0	1	NaN	264	5	12	2	120	220	320	NaN	520	1.87540568038821	2	0	NaN	2588106.9631289	NaN	2588107.9465355	2588108.46307862
60	23	0	0	90	36.1581920903955	36.241610738255	15	0.500052300095558	2	9	5	NaN	2	3	0.0190648399435654	0	1	NaN	265	5	13	2	120	220	320	NaN	520	6.21198132447898	1	0	NaN	2588111.1468487	NaN	2588112.1302771	2588112.64682138
60	23	0	0	90	36.1581920903955	36.241610738255	24	0.800083680152893	2	12	3	NaN	2	5	0.0190648399435654	0	1	NaN	266	5	14	2	120	220	320	NaN	520	2.54185992805287	1	0	NaN	2588119.6809902	NaN	2588120.664438	2588121.18098327
60	23	0	0	90	36.1581920903955	36.241610738255	6	0.200020920038223	2	8	4	NaN	2	4	0.0190648399435654	0	1	NaN	267	5	15	2	120	220	320	NaN	520	2.8353640246205	1	0	NaN	2588124.5314038	NaN	2588125.5149095	2588126.03147078
60	23	0	0	90	36.1581920903955	36.241610738255	6	0.200020920038223	2	1	2	NaN	1	5	0.0190648399435654	0	1	NaN	268	5	16	2	120	220	320	NaN	520	3.02016702806577	2	0	NaN	2588130.098602	NaN	2588131.0821336	2588131.59868447
60	23	0	0	90	36.1581920903955	36.241610738255	8	0.266694560050964	2	8	2	NaN	2	5	0.0190648399435654	0	1	NaN	269	5	17	2	120	220	320	NaN	520	2.58194592827931	2	1	NaN	2588135.4325936	NaN	2588136.4159896	2588136.93254207
60	23	0	0	90	36.1581920903955	36.241610738255	17	0.566725940108299	2	12	4	NaN	2	5	0.0190648399435654	0	1	NaN	270	5	18	2	120	220	320	NaN	520	1.65789662813768	1	0	NaN	2588140.3330699	NaN	2588141.3164693	2588141.83301047
60	23	0	0	90	36.1581920903955	36.241610738255	12	0.400041840076447	2	1	5	NaN	1	3	0.0190648399435654	0	1	NaN	271	5	19	2	120	220	320	NaN	520	0.634371728170663	1	1	NaN	2588144.300178	NaN	2588145.2835104	2588145.80007657
60	23	0	0	90	36.1581920903955	36.241610738255	11	0.366705020070076	2	7	5	NaN	2	3	0.0190648399435654	0	1	NaN	272	5	20	2	120	220	320	NaN	520	0.548219427932054	1	0	NaN	2588147.2502827	NaN	2588148.2338249	2588148.75036357
60	23	0	0	90	36.1581920903955	36.241610738255	16	0.533389120101929	2	6	6	NaN	1	5	0.0190648399435654	0	1	NaN	273	5	21	2	120	220	320	NaN	520	2.92956394003704	1	1	NaN	2588150.1173596	NaN	2588151.1007817	2588151.61730716
60	23	0	0	90	36.1581920903955	36.241610738255	23	0.766746860146523	2	10	6	NaN	2	5	0.0190648399435654	0	1	NaN	274	5	22	2	120	220	320	NaN	520	2.28666079603136	2	1	NaN	2588155.3678894	NaN	2588156.3512783	2588156.8678343
60	23	0	0	90	36.1581920903955	36.241610738255	14	0.466715480089188	2	4	3	NaN	1	3	0.0190648399435654	0	1	NaN	275	5	23	2	120	220	320	NaN	520	2.88669192418456	1	1	NaN	2588159.9683202	NaN	2588160.9517108	2588161.46828848
60	23	0	0	90	36.1581920903955	36.241610738255	14	0.466715480089188	2	7	2	NaN	2	3	0.0190648399435654	0	1	NaN	276	5	24	2	120	220	320	NaN	520	4.0778890280053	1	0	NaN	2588165.1688348	NaN	2588166.152248	2588166.66880577
60	23	0	0	90	36.1581920903955	36.241610738255	21	0.700073220133781	2	7	4	NaN	2	5	0.0190648399435654	0	1	NaN	277	5	25	2	120	220	320	NaN	520	4.26927587203681	2	1	NaN	2588171.5693337	NaN	2588172.5529129	2588173.06941873
60	23	0	0	90	36.1581920903955	36.241610738255	16	0.533389120101929	2	11	1	NaN	2	5	0.0190648399435654	0	1	NaN	278	5	26	2	120	220	320	NaN	520	2.9805337805301	2	1	NaN	2588178.1701269	NaN	2588179.153502	2588179.67005822
60	23	0	0	90	36.1581920903955	36.241610738255	8	0.266694560050964	2	10	5	NaN	2	5	0.0190648399435654	0	1	NaN	279	5	27	2	120	220	320	NaN	520	3.60882242815569	2	1	NaN	2588183.4539506	NaN	2588184.4373571	2588184.95391677
60	23	0	0	90	36.1581920903955	36.241610738255	0	0	1	10	1	NaN	2	5	0.0190648399435654	0	1	NaN	280	5	28	2	110	210	310	NaN	510	3.69982809154317	2	1	NaN	2588189.371227	NaN	2588190.3546047	2588190.87116221
60	23	0	0	90	36.1581920903955	36.241610738255	19	0.63339958012104	2	7	6	NaN	2	4	0.0190648399435654	0	1	NaN	281	5	29	2	120	220	320	NaN	520	1.96220752410591	2	1	NaN	2588195.3884966	NaN	2588196.3718826	2588196.88841458
60	23	0	0	90	36.1581920903955	36.241610738255	13	0.433378660082817	2	10	1	NaN	2	4	0.0190648399435654	0	1	NaN	282	5	30	2	120	220	320	NaN	520	5.03121138038114	2	1	NaN	2588199.6555608	NaN	2588200.6390258	2588201.15550972
60	23	0	0	90	36.1581920903955	36.241610738255	25	0.833420500159264	2	5	5	NaN	1	5	0.0190648399435654	0	1	NaN	283	5	31	2	120	220	320	NaN	520	2.08900867635384	1	1	NaN	2588206.9895944	NaN	2588207.973004	2588208.48955922
60	23	0	0	90	36.1581920903955	36.241610738255	13	0.433378660082817	2	10	3	NaN	2	5	0.0190648399435654	0	1	NaN	284	5	32	2	120	220	320	NaN	520	2.25681288074702	1	0	NaN	2588211.3900405	NaN	2588212.3733563	2588212.88999662
60	23	0	0	90	36.1581920903955	36.241610738255	10	0.333368200063705	2	8	6	NaN	2	4	0.0190648399435654	0	1	NaN	285	5	33	2	120	220	320	NaN	520	3.25748992431909	1	0	NaN	2588215.9571389	NaN	2588216.9405813	2588217.45710528
60	23	0	0	90	36.1581920903955	36.241610738255	17	0.566725940108299	2	6	5	NaN	1	5	0.0190648399435654	0	1	NaN	286	5	34	2	120	220	320	NaN	520	1.14667224418372	2	0	NaN	2588221.524378	NaN	2588222.5077689	2588223.02431976
60	23	0	0	90	36.1581920903955	36.241610738255	24	0.800083680152893	2	12	2	NaN	2	3	0.0190648399435654	0	1	NaN	287	5	35	2	120	220	320	NaN	520	5.54337227577344	2	1	NaN	2588224.9914291	NaN	2588225.9747645	2588226.49132352
60	23	0	0	90	36.1581920903955	36.241610738255	6	0.200020920038223	2	5	1	NaN	1	5	0.0190648399435654	0	1	NaN	288	5	36	2	120	220	320	NaN	520	3.87696782825515	2	0	NaN	2588232.8421365	NaN	2588233.8255312	2588234.34209937
60	23	0	0	90	36.1581920903955	36.241610738255	18	0.60006276011467	2	2	6	NaN	1	3	0.0190648399435654	0	1	NaN	289	5	37	2	120	220	320	NaN	520	2.51675067609176	1	1	NaN	2588239.0260734	NaN	2588240.0094755	2588240.52603912
60	23	0	0	90	36.1581920903955	36.241610738255	18	0.60006276011467	2	5	2	NaN	1	3	0.0190648399435654	0	1	NaN	290	5	38	2	120	220	320	NaN	520	1.50702172797173	2	0	NaN	2588243.8598892	NaN	2588244.8432997	2588245.35984177
60	23	0	0	90	36.1581920903955	36.241610738255	9	0.300031380057335	2	11	6	NaN	2	4	0.0190648399435654	0	1	NaN	291	5	39	2	120	220	320	NaN	520	2.9295300245285	1	0	NaN	2588247.6769242	NaN	2588248.6603252	2588249.17687918
60	23	0	0	90	36.1581920903955	36.241610738255	18	0.60006276011467	2	7	4	NaN	2	3	0.0190648399435654	0	1	NaN	292	5	40	2	120	220	320	NaN	520	3.66368962824345	2	1	NaN	2588252.9274669	NaN	2588253.9108473	2588254.42740507
60	23	0	0	90	36.1581920903955	36.241610738255	11	0.366705020070076	2	10	4	NaN	2	4	0.0190648399435654	0	1	NaN	293	5	41	2	120	220	320	NaN	520	4.63139402819797	2	1	NaN	2588258.9113557	NaN	2588259.8947617	2588260.41132557
60	23	0	0	90	36.1581920903955	36.241610738255	10	0.333368200063705	2	3	5	NaN	1	4	0.0190648399435654	0	1	NaN	294	5	42	2	120	220	320	NaN	520	2.8968595280312	2	0	NaN	2588265.8619524	NaN	2588266.8454484	2588267.36200217
60	23	0	0	90	36.1581920903955	36.241610738255	10	0.333368200063705	2	8	2	NaN	2	5	0.0190648399435654	0	1	NaN	295	5	43	2	120	220	320	NaN	520	5.27176092844456	1	0	NaN	2588271.079216	NaN	2588272.0626252	2588272.57918527
60	23	0	0	90	36.1581920903955	36.241610738255	13	0.433378660082817	2	5	4	NaN	1	5	0.0190648399435654	0	1	NaN	296	5	44	2	120	220	320	NaN	520	2.83995612803847	2	0	NaN	2588278.6633119	NaN	2588279.6467038	2588280.16325917
60	23	0	0	90	36.1581920903955	36.241610738255	12	0.400041840076447	2	4	3	NaN	1	3	0.0190648399435654	0	1	NaN	297	5	45	2	120	220	320	NaN	520	1.50509582832456	1	1	NaN	2588283.8137993	NaN	2588284.7972142	2588285.31376747
60	23	0	0	90	36.1581920903955	36.241610738255	6	0.200020920038223	2	2	2	NaN	1	5	0.0190648399435654	0	1	NaN	298	5	46	2	120	220	320	NaN	520	3.1203072280623	2	0	NaN	2588287.6308753	NaN	2588288.6142459	2588289.13080717
60	23	0	0	90	36.1581920903955	36.241610738255	22	0.733410040140152	2	11	6	NaN	2	4	0.0190648399435654	0	1	NaN	299	5	47	2	120	220	320	NaN	520	4.34310752851889	2	1	NaN	2588293.4480676	NaN	2588294.4314856	2588294.94804747
60	23	0	0	90	36.1581920903955	36.241610738255	15	0.500052300095558	2	4	4	NaN	1	3	0.0190648399435654	0	1	NaN	300	5	48	2	120	220	320	NaN	520	2.56440502824262	2	0	NaN	2588300.098746	NaN	2588301.0821337	2588301.59869937
60	23	0	0	90	36.1581920903955	36.241610738255	17	0.566725940108299	2	10	3	NaN	2	4	0.0190648399435654	0	1	NaN	301	5	49	2	120	220	320	NaN	520	2.59260572819039	2	1	NaN	2588304.9826334	NaN	2588305.9659688	2588306.48251417
60	23	0	0	90	36.1581920903955	36.241610738255	22	0.733410040140152	2	12	3	NaN	2	3	0.0190648399435654	0	1	NaN	302	5	50	2	120	220	320	NaN	520	2.01118722837418	2	1	NaN	2588309.8997096	NaN	2588310.8831079	2588311.39965407
60	23	0	0	90	36.1581920903955	36.241610738255	25	0.833420500159264	2	10	3	NaN	2	4	0.0190648399435654	0	1	NaN	303	5	51	2	120	220	320	NaN	520	2.67732007568702	1	0	NaN	2588314.2333403	NaN	2588315.2168733	2588315.73341762
60	23	0	0	90	36.1581920903955	36.241610738255	23	0.766746860146523	2	6	6	NaN	1	5	0.0190648399435654	0	1	NaN	304	5	52	2	120	220	320	NaN	520	1.19727712823078	1	1	NaN	2588319.2339602	NaN	2588320.2173582	2588320.73390947
60	23	0	0	90	36.1581920903955	36.241610738255	20	0.666736400127411	2	1	3	NaN	1	3	0.0190648399435654	0	1	NaN	305	5	53	2	120	220	320	NaN	520	1.30406412435696	1	1	NaN	2588322.7509698	NaN	2588323.7343597	2588324.25091838
60	23	0	0	90	36.1581920903955	36.241610738255	0	0	1	4	6	NaN	1	3	0.0190648399435654	0	1	NaN	306	5	54	2	110	210	310	NaN	510	1.01517242798582	2	0	NaN	2588326.3680139	NaN	2588327.3513959	2588327.86793597
60	23	0	0	90	36.1581920903955	36.241610738255	19	0.63339958012104	2	10	1	NaN	2	5	0.0190648399435654	0	1	NaN	307	5	55	2	120	220	320	NaN	520	3.01791982445866	2	1	NaN	2588329.6849713	NaN	2588330.6683869	2588331.18493208
60	23	0	0	90	36.1581920903955	36.241610738255	8	0.266694560050964	2	5	2	NaN	1	3	0.0190648399435654	0	1	NaN	308	5	56	2	120	220	320	NaN	520	0.636128228157759	1	1	NaN	2588335.0188451	NaN	2588336.0022666	2588336.51879077
60	23	0	0	90	36.1581920903955	36.241610738255	14	0.466715480089188	2	2	6	NaN	1	5	0.0190648399435654	0	1	NaN	309	5	57	2	120	220	320	NaN	520	2.30651387618855	1	1	NaN	2588338.2524336	NaN	2588339.2358798	2588339.75243342
60	23	0	0	90	36.1581920903955	36.241610738255	21	0.700073220133781	2	3	2	NaN	1	5	0.0190648399435654	0	1	NaN	310	5	58	2	120	220	320	NaN	520	1.95255637587979	1	1	NaN	2588342.8862783	NaN	2588343.869709	2588344.38623092
60	23	0	0	90	36.1581920903955	36.241610738255	10	0.333368200063705	2	5	3	NaN	1	3	0.0190648399435654	0	1	NaN	311	5	59	2	120	220	320	NaN	520	2.66159027628601	2	0	NaN	2588347.1532306	NaN	2588348.1367697	2588348.65330852
60	23	0	0	90	36.1581920903955	36.241610738255	12	0.400041840076447	2	1	6	NaN	1	4	0.0190648399435654	0	1	NaN	312	5	60	2	120	220	320	NaN	520	4.84652748052031	1	1	NaN	2588352.1205266	NaN	2588353.1039261	2588353.62046962
60	23	0	0	90	36.1581920903955	36.241610738255	24	0.800083680152893	2	5	5	NaN	1	3	0.0190648399435654	0	1	NaN	313	5	61	2	120	220	320	NaN	520	2.58350802445784	1	1	NaN	2588359.2878855	NaN	2588360.2712866	2588360.78784268
60	23	0	0	90	36.1581920903955	36.241610738255	11	0.366705020070076	2	2	5	NaN	1	4	0.0190648399435654	0	1	NaN	314	5	62	2	120	220	320	NaN	520	1.81091737607494	2	0	NaN	2588364.1883869	NaN	2588365.1717893	2588365.68831612
60	23	0	0	90	36.1581920903955	36.241610738255	16	0.533389120101929	2	3	3	NaN	1	3	0.0190648399435654	0	1	NaN	315	5	63	2	120	220	320	NaN	520	0.781755228061229	2	0	NaN	2588368.3053301	NaN	2588369.2888286	2588369.80539457
60	23	0	0	90	36.1581920903955	36.241610738255	13	0.433378660082817	2	4	6	NaN	1	4	0.0190648399435654	0	1	NaN	316	6	1	2	120	220	320	NaN	520	2.17566177574918	2	0	NaN	2588438.4956496	NaN	2588439.4790743	2588439.99562212
60	23	0	0	90	36.1581920903955	36.241610738255	15	0.500052300095558	2	2	1	NaN	1	4	0.0190648399435654	0	1	NaN	317	6	2	2	120	220	320	NaN	520	2.45967418048531	2	0	NaN	2588442.9793402	NaN	2588443.9628246	2588444.47938932
60	23	0	0	90	36.1581920903955	36.241610738255	14	0.466715480089188	2	3	5	NaN	1	4	0.0190648399435654	0	1	NaN	318	6	3	2	120	220	320	NaN	520	2.61247461987659	1	1	NaN	2588447.7466331	NaN	2588448.7299729	2588449.24651278
60	23	0	0	90	36.1581920903955	36.241610738255	15	0.500052300095558	2	7	2	NaN	2	4	0.0190648399435654	0	1	NaN	319	6	4	2	120	220	320	NaN	520	2.38292117603123	1	0	NaN	2588452.6803879	NaN	2588453.663788	2588454.18033262
60	23	0	0	90	36.1581920903955	36.241610738255	15	0.500052300095558	2	7	3	NaN	2	4	0.0190648399435654	0	1	NaN	320	6	5	2	120	220	320	NaN	520	2.29011133639142	2	1	NaN	2588457.3808394	NaN	2588458.3642377	2588458.88079926
60	23	0	0	90	36.1581920903955	36.241610738255	18	0.60006276011467	2	3	4	NaN	1	3	0.0190648399435654	0	1	NaN	321	6	6	2	120	220	320	NaN	520	1.44999587582424	2	0	NaN	2588461.981393	NaN	2588462.9647001	2588463.48124812
60	23	0	0	90	36.1581920903955	36.241610738255	8	0.266694560050964	2	1	5	NaN	1	4	0.0190648399435654	0	1	NaN	322	6	7	2	120	220	320	NaN	520	4.12303742440417	1	1	NaN	2588465.7483271	NaN	2588466.7317358	2588467.24828698
60	23	0	0	90	36.1581920903955	36.241610738255	18	0.60006276011467	2	5	4	NaN	1	3	0.0190648399435654	0	1	NaN	323	6	8	2	120	220	320	NaN	520	3.06482917629182	2	0	NaN	2588472.1823003	NaN	2588473.165722	2588473.68224562
60	23	0	0	90	36.1581920903955	36.241610738255	6	0.200020920038223	2	5	1	NaN	1	3	0.0190648399435654	0	1	NaN	324	6	9	2	120	220	320	NaN	520	3.44109362456948	2	0	NaN	2588477.5661517	NaN	2588478.5495596	2588479.06610688
60	23	0	0	90	36.1581920903955	36.241610738255	16	0.533389120101929	2	8	1	NaN	2	3	0.0190648399435654	0	1	NaN	325	6	10	2	120	220	320	NaN	520	1.30608662823215	2	1	NaN	2588483.3333821	NaN	2588484.3167907	2588484.83334117
60	23	0	0	90	36.1581920903955	36.241610738255	10	0.333368200063705	2	4	2	NaN	1	5	0.0190648399435654	0	1	NaN	326	6	11	2	120	220	320	NaN	520	1.94496572436765	1	1	NaN	2588486.9504161	NaN	2588487.9338197	2588488.45036928
60	23	0	0	90	36.1581920903955	36.241610738255	20	0.666736400127411	2	11	2	NaN	2	3	0.0190648399435654	0	1	NaN	327	6	12	2	120	220	320	NaN	520	3.70967698795721	1	0	NaN	2588491.2173814	NaN	2588492.2008883	2588492.71746481
60	23	0	0	90	36.1581920903955	36.241610738255	12	0.400041840076447	2	12	3	NaN	2	4	0.0190648399435654	0	1	NaN	328	6	13	2	120	220	320	NaN	520	2.98849632404745	1	0	NaN	2588497.2346353	NaN	2588498.2181473	2588498.73471438
60	23	0	0	90	36.1581920903955	36.241610738255	15	0.500052300095558	2	8	1	NaN	2	5	0.0190648399435654	0	1	NaN	329	6	14	2	120	220	320	NaN	520	1.54375097993761	2	1	NaN	2588502.5352728	NaN	2588503.5186849	2588504.03522312
60	23	0	0	90	36.1581920903955	36.241610738255	6	0.200020920038223	2	1	1	NaN	1	5	0.0190648399435654	0	1	NaN	330	6	15	2	120	220	320	NaN	520	1.06987362448126	2	0	NaN	2588506.3856579	NaN	2588507.3690448	2588507.88559928
60	23	0	0	90	36.1581920903955	36.241610738255	23	0.766746860146523	2	1	3	NaN	1	3	0.0190648399435654	0	1	NaN	331	6	16	2	120	220	320	NaN	520	4.24614787613973	1	1	NaN	2588509.7693183	NaN	2588510.7527023	2588511.26927082
60	23	0	0	90	36.1581920903955	36.241610738255	25	0.833420500159264	2	7	5	NaN	2	5	0.0190648399435654	0	1	NaN	332	6	17	2	120	220	320	NaN	520	2.85514957597479	2	1	NaN	2588516.3198346	NaN	2588517.3033509	2588517.81990882
60	23	0	0	90	36.1581920903955	36.241610738255	14	0.466715480089188	2	2	2	NaN	1	4	0.0190648399435654	0	1	NaN	333	6	18	2	120	220	320	NaN	520	1.58436832809821	2	0	NaN	2588521.4871172	NaN	2588522.4705463	2588522.98708467
60	23	0	0	90	36.1581920903955	36.241610738255	13	0.433378660082817	2	7	5	NaN	2	3	0.0190648399435654	0	1	NaN	334	6	19	2	120	220	320	NaN	520	2.61953017581254	2	1	NaN	2588525.3875237	NaN	2588526.3709324	2588526.88747392
60	23	0	0	90	36.1581920903955	36.241610738255	0	0	1	8	4	NaN	2	4	0.0190648399435654	0	1	NaN	335	6	20	2	110	210	310	NaN	510	2.05402028048411	1	0	NaN	2588530.3213314	NaN	2588531.3047388	2588531.82129542
60	23	0	0	90	36.1581920903955	36.241610738255	23	0.766746860146523	2	5	4	NaN	1	3	0.0190648399435654	0	1	NaN	336	6	21	2	120	220	320	NaN	520	2.68682442465797	1	1	NaN	2588534.6884267	NaN	2588535.6718254	2588536.18838438
60	23	0	0	90	36.1581920903955	36.241610738255	9	0.300031380057335	2	7	1	NaN	2	3	0.0190648399435654	0	1	NaN	337	6	22	2	120	220	320	NaN	520	1.79018032830209	1	0	NaN	2588539.6889257	NaN	2588540.6723242	2588541.18886997
60	23	0	0	90	36.1581920903955	36.241610738255	19	0.63339958012104	2	2	3	NaN	1	3	0.0190648399435654	0	1	NaN	338	6	23	2	120	220	320	NaN	520	2.34599147597328	2	0	NaN	2588543.7893122	NaN	2588544.7727186	2588545.28927422
60	23	0	0	90	36.1581920903955	36.241610738255	10	0.333368200063705	2	7	3	NaN	2	4	0.0190648399435654	0	1	NaN	339	6	24	2	120	220	320	NaN	520	2.0710988282226	1	0	NaN	2588548.4564656	NaN	2588549.4398629	2588549.95640557
60	23	0	0	90	36.1581920903955	36.241610738255	17	0.566725940108299	2	1	6	NaN	1	5	0.0190648399435654	0	1	NaN	340	6	25	2	120	220	320	NaN	520	2.83082552440464	2	0	NaN	2588552.8401971	NaN	2588553.8236158	2588554.34016638
60	23	0	0	90	36.1581920903955	36.241610738255	9	0.300031380057335	2	2	4	NaN	1	3	0.0190648399435654	0	1	NaN	341	6	26	2	120	220	320	NaN	520	3.2484830240719	1	1	NaN	2588557.9905964	NaN	2588558.9741673	2588559.49067138
60	23	0	0	90	36.1581920903955	36.241610738255	14	0.466715480089188	2	5	2	NaN	1	3	0.0190648399435654	0	1	NaN	342	6	27	2	120	220	320	NaN	520	2.49830692447722	1	1	NaN	2588563.5413349	NaN	2588564.5246649	2588565.04120708
60	23	0	0	90	36.1581920903955	36.241610738255	22	0.733410040140152	2	1	1	NaN	1	3	0.0190648399435654	0	1	NaN	343	6	28	2	120	220	320	NaN	520	0.480790875852108	2	0	NaN	2588568.3583841	NaN	2588569.3418351	2588569.85834802
60	23	0	0	90	36.1581920903955	36.241610738255	9	0.300031380057335	2	4	6	NaN	1	4	0.0190648399435654	0	1	NaN	344	6	29	2	120	220	320	NaN	520	4.91276362817734	2	0	NaN	2588571.1587134	NaN	2588572.1421152	2588572.65863247
60	23	0	0	90	36.1581920903955	36.241610738255	19	0.63339958012104	2	1	3	NaN	1	4	0.0190648399435654	0	1	NaN	345	6	30	2	120	220	320	NaN	520	2.5507874279283	1	1	NaN	2588578.3928236	NaN	2588579.3761034	2588579.89267267
60	23	0	0	90	36.1581920903955	36.241610738255	16	0.533389120101929	2	7	1	NaN	2	5	0.0190648399435654	0	1	NaN	346	6	31	2	120	220	320	NaN	520	2.13139882450923	2	1	NaN	2588583.2598508	NaN	2588584.2432977	2588584.75981878
60	23	0	0	90	36.1581920903955	36.241610738255	13	0.433378660082817	2	3	1	NaN	1	4	0.0190648399435654	0	1	NaN	347	6	32	2	120	220	320	NaN	520	1.68125722417608	2	0	NaN	2588587.710305	NaN	2588588.6936958	2588589.21024838
60	23	0	0	90	36.1581920903955	36.241610738255	18	0.60006276011467	2	9	2	NaN	2	5	0.0190648399435654	0	1	NaN	348	6	33	2	120	220	320	NaN	520	3.26529752463102	2	1	NaN	2588591.6940265	NaN	2588592.6774268	2588593.19398058
60	23	0	0	90	36.1581920903955	36.241610738255	19	0.63339958012104	2	8	3	NaN	2	4	0.0190648399435654	0	1	NaN	349	6	34	2	120	220	320	NaN	520	2.05742032825947	1	0	NaN	2588597.277901	NaN	2588598.2613132	2588598.77785717
60	23	0	0	90	36.1581920903955	36.241610738255	14	0.466715480089188	2	9	6	NaN	2	3	0.0190648399435654	0	1	NaN	350	6	35	2	120	220	320	NaN	520	2.3222097242251	2	1	NaN	2588601.6448671	NaN	2588602.628394	2588603.14495428
60	23	0	0	90	36.1581920903955	36.241610738255	10	0.333368200063705	2	5	2	NaN	1	4	0.0190648399435654	0	1	NaN	351	6	36	2	120	220	320	NaN	520	1.08876982843503	1	1	NaN	2588606.278796	NaN	2588607.2621961	2588607.77874687
60	23	0	0	90	36.1581920903955	36.241610738255	18	0.60006276011467	2	2	1	NaN	1	5	0.0190648399435654	0	1	NaN	352	6	37	2	120	220	320	NaN	520	1.14451512414962	2	0	NaN	2588609.6791173	NaN	2588610.662525	2588611.17907098
60	23	0	0	90	36.1581920903955	36.241610738255	23	0.766746860146523	2	10	1	NaN	2	3	0.0190648399435654	0	1	NaN	353	6	38	2	120	220	320	NaN	520	1.08594558062032	2	1	NaN	2588613.1294603	NaN	2588614.1128607	2588614.62941862
60	23	0	0	90	36.1581920903955	36.241610738255	24	0.800083680152893	2	11	2	NaN	2	3	0.0190648399435654	0	1	NaN	354	6	39	2	120	220	320	NaN	520	2.74974942440167	2	1	NaN	2588616.5297858	NaN	2588617.5131987	2588618.02974058
60	23	0	0	90	36.1581920903955	36.241610738255	7	0.233357740044594	2	3	5	NaN	1	4	0.0190648399435654	0	1	NaN	355	6	40	2	120	220	320	NaN	520	1.17023412836716	2	0	NaN	2588621.5969617	NaN	2588622.5803783	2588623.09691447
60	23	0	0	90	36.1581920903955	36.241610738255	13	0.433378660082817	2	12	4	NaN	2	4	0.0190648399435654	0	1	NaN	356	6	41	2	120	220	320	NaN	520	4.16694902442396	1	0	NaN	2588625.0806332	NaN	2588626.0640189	2588626.58058558
60	23	0	0	90	36.1581920903955	36.241610738255	0	0	1	7	5	NaN	2	3	0.0190648399435654	0	1	NaN	357	6	42	2	110	210	310	NaN	510	2.87519368063658	1	0	NaN	2588631.5646159	NaN	2588632.5480098	2588633.06456172
60	23	0	0	90	36.1581920903955	36.241610738255	25	0.833420500159264	2	1	5	NaN	1	5	0.0190648399435654	0	1	NaN	358	6	43	2	120	220	320	NaN	520	2.35993977589533	1	1	NaN	2588636.8317726	NaN	2588637.8152521	2588638.33173252
60	23	0	0	90	36.1581920903955	36.241610738255	14	0.466715480089188	2	10	5	NaN	2	4	0.0190648399435654	0	1	NaN	359	6	44	2	120	220	320	NaN	520	4.5883741802536	2	1	NaN	2588641.498812	NaN	2588642.4823201	2588642.99886752
60	23	0	0	90	36.1581920903955	36.241610738255	20	0.666736400127411	2	2	2	NaN	1	3	0.0190648399435654	0	1	NaN	360	6	45	2	120	220	320	NaN	520	2.35206562420353	2	0	NaN	2588648.3995945	NaN	2588649.3829974	2588649.89954108
60	23	0	0	90	36.1581920903955	36.241610738255	8	0.266694560050964	2	8	4	NaN	2	5	0.0190648399435654	0	1	NaN	361	6	46	2	120	220	320	NaN	520	2.91688512824476	1	0	NaN	2588653.0667244	NaN	2588654.0501329	2588654.56666457
60	23	0	0	90	36.1581920903955	36.241610738255	16	0.533389120101929	2	9	6	NaN	2	5	0.0190648399435654	0	1	NaN	362	6	47	2	120	220	320	NaN	520	1.12279442464933	2	1	NaN	2588658.3005675	NaN	2588659.2839696	2588659.80051448
60	23	0	0	90	36.1581920903955	36.241610738255	10	0.333368200063705	2	9	3	NaN	2	3	0.0190648399435654	0	1	NaN	363	6	48	2	120	220	320	NaN	520	3.75338798062876	2	1	NaN	2588661.7341154	NaN	2588662.7175275	2588663.23419132
60	23	0	0	90	36.1581920903955	36.241610738255	0	0	1	8	4	NaN	2	3	0.0190648399435654	0	1	NaN	364	6	49	2	110	210	310	NaN	510	3.17376112472266	2	1	NaN	2588667.8014871	NaN	2588668.7848924	2588669.30144478
60	23	0	0	90	36.1581920903955	36.241610738255	10	0.333368200063705	2	7	6	NaN	2	4	0.0190648399435654	0	1	NaN	365	6	50	2	120	220	320	NaN	520	3.05804688017815	2	1	NaN	2588673.2853947	NaN	2588674.2687624	2588674.78532032
60	23	0	0	90	36.1581920903955	36.241610738255	14	0.466715480089188	2	1	6	NaN	1	3	0.0190648399435654	0	1	NaN	366	6	51	2	120	220	320	NaN	520	2.13114467589185	2	0	NaN	2588678.6525483	NaN	2588679.6359598	2588680.15251262
60	23	0	0	90	36.1581920903955	36.241610738255	7	0.233357740044594	2	12	5	NaN	2	5	0.0190648399435654	0	1	NaN	367	6	52	2	120	220	320	NaN	520	3.14471272798255	2	1	NaN	2588683.1029998	NaN	2588684.0863809	2588684.60295047
60	23	0	0	90	36.1581920903955	36.241610738255	22	0.733410040140152	2	4	5	NaN	1	5	0.0190648399435654	0	1	NaN	368	6	53	2	120	220	320	NaN	520	1.5821573282592	2	0	NaN	2588688.553518	NaN	2588689.5369306	2588690.05348677
60	23	0	0	90	36.1581920903955	36.241610738255	0	0	1	7	1	NaN	2	5	0.0190648399435654	0	1	NaN	369	6	54	2	110	210	310	NaN	510	4.39375418052077	1	0	NaN	2588692.453918	NaN	2588693.4373014	2588693.95387222
60	23	0	0	90	36.1581920903955	36.241610738255	24	0.800083680152893	2	3	6	NaN	1	3	0.0190648399435654	0	1	NaN	370	6	55	2	120	220	320	NaN	520	1.89249002421275	2	0	NaN	2588699.1712381	NaN	2588700.1546373	2588700.67118228
60	23	0	0	90	36.1581920903955	36.241610738255	24	0.800083680152893	2	2	4	NaN	1	3	0.0190648399435654	0	1	NaN	371	6	56	2	120	220	320	NaN	520	1.50007862830535	2	0	NaN	2588703.3716585	NaN	2588704.355054	2588704.87160127
60	23	0	0	90	36.1581920903955	36.241610738255	8	0.266694560050964	2	9	1	NaN	2	5	0.0190648399435654	0	1	NaN	372	6	57	2	120	220	320	NaN	520	0.730691027827561	2	1	NaN	2588707.188693	NaN	2588708.1721034	2588708.68864917
60	23	0	0	90	36.1581920903955	36.241610738255	18	0.60006276011467	2	6	4	NaN	1	5	0.0190648399435654	0	1	NaN	373	6	58	2	120	220	320	NaN	520	2.0644854279235	1	1	NaN	2588710.2388585	NaN	2588711.22238	2588711.73894187
60	23	0	0	90	36.1581920903955	36.241610738255	22	0.733410040140152	2	11	3	NaN	2	5	0.0190648399435654	0	1	NaN	374	6	59	2	120	220	320	NaN	520	2.78477392392233	2	1	NaN	2588714.6227715	NaN	2588715.6061918	2588716.12270348
60	23	0	0	90	36.1581920903955	36.241610738255	9	0.300031380057335	2	10	2	NaN	2	3	0.0190648399435654	0	1	NaN	375	6	60	2	120	220	320	NaN	520	0.844464728143066	1	0	NaN	2588719.7232611	NaN	2588720.7066595	2588721.22320277
60	23	0	0	90	36.1581920903955	36.241610738255	13	0.433378660082817	2	6	4	NaN	1	5	0.0190648399435654	0	1	NaN	376	6	61	2	120	220	320	NaN	520	4.68544507212937	1	1	NaN	2588722.8902516	NaN	2588723.8736397	2588724.39017713
60	23	0	0	90	36.1581920903955	36.241610738255	0	0	1	10	6	NaN	2	4	0.0190648399435654	0	1	NaN	377	6	62	2	110	210	310	NaN	510	3.10856328066438	1	0	NaN	2588729.8909302	NaN	2588730.8743241	2588731.39087772
60	23	0	0	90	36.1581920903955	36.241610738255	23	0.766746860146523	2	4	2	NaN	1	5	0.0190648399435654	0	1	NaN	378	6	63	2	120	220	320	NaN	520	3.82720462419093	1	1	NaN	2588735.3081717	NaN	2588736.2915283	2588736.80807078
60	23	0	0	90	36.1581920903955	36.241610738255	17	0.566725940108299	2	7	6	NaN	2	3	0.0190648399435654	0	1	NaN	379	7	1	2	120	220	320	NaN	520	2.84297862835228	2	1	NaN	2588828.3005643	NaN	2588829.2839808	2588829.80053447
60	23	0	0	90	36.1581920903955	36.241610738255	22	0.733410040140152	2	9	1	NaN	2	3	0.0190648399435654	0	1	NaN	380	7	2	2	120	220	320	NaN	520	3.26849942840636	2	1	NaN	2588833.4510865	NaN	2588834.4344656	2588834.95103717
60	23	0	0	90	36.1581920903955	36.241610738255	20	0.666736400127411	2	12	1	NaN	2	4	0.0190648399435654	0	1	NaN	381	7	3	2	120	220	320	NaN	520	1.89288072427735	2	1	NaN	2588839.0349563	NaN	2588840.0183546	2588840.53491158
60	23	0	0	90	36.1581920903955	36.241610738255	16	0.533389120101929	2	4	5	NaN	1	4	0.0190648399435654	0	1	NaN	382	7	4	2	120	220	320	NaN	520	2.86860528029501	2	0	NaN	2588843.2353908	NaN	2588844.2187759	2588844.73533192
60	23	0	0	90	36.1581920903955	36.241610738255	7	0.233357740044594	2	2	5	NaN	1	4	0.0190648399435654	0	1	NaN	383	7	5	2	120	220	320	NaN	520	3.35674982424825	2	0	NaN	2588848.4193024	NaN	2588849.4026121	2588849.91916118
60	23	0	0	90	36.1581920903955	36.241610738255	7	0.233357740044594	2	4	5	NaN	1	3	0.0190648399435654	0	1	NaN	384	7	6	2	120	220	320	NaN	520	1.52128708036616	1	1	NaN	2588854.0863216	NaN	2588855.0698787	2588855.58638892
60	23	0	0	90	36.1581920903955	36.241610738255	19	0.63339958012104	2	7	1	NaN	2	3	0.0190648399435654	0	1	NaN	385	7	7	2	120	220	320	NaN	520	2.89575562439859	1	0	NaN	2588857.9201605	NaN	2588858.9035509	2588859.42010438
60	23	0	0	90	36.1581920903955	36.241610738255	14	0.466715480089188	2	9	4	NaN	2	4	0.0190648399435654	0	1	NaN	386	7	8	2	120	220	320	NaN	520	1.79859058000147	2	1	NaN	2588863.1373292	NaN	2588864.1207353	2588864.63728632
60	23	0	0	90	36.1581920903955	36.241610738255	18	0.60006276011467	2	11	6	NaN	2	5	0.0190648399435654	0	1	NaN	387	7	9	2	120	220	320	NaN	520	2.47351812804118	2	1	NaN	2588867.254384	NaN	2588868.2377996	2588868.75435327
60	23	0	0	90	36.1581920903955	36.241610738255	16	0.533389120101929	2	6	3	NaN	1	4	0.0190648399435654	0	1	NaN	388	7	10	2	120	220	320	NaN	520	1.57762547582388	1	1	NaN	2588872.0382379	NaN	2588873.0216011	2588873.53814472
60	23	0	0	90	36.1581920903955	36.241610738255	9	0.300031380057335	2	6	3	NaN	1	4	0.0190648399435654	0	1	NaN	389	7	11	2	120	220	320	NaN	520	0.589863228145987	1	1	NaN	2588875.9219158	NaN	2588876.9053201	2588877.42186457
60	23	0	0	90	36.1581920903955	36.241610738255	0	0	1	3	4	NaN	1	3	0.0190648399435654	0	1	NaN	390	7	12	2	110	210	310	NaN	510	1.75341232819483	2	0	NaN	2588878.8222047	NaN	2588879.8056015	2588880.32215077
60	23	0	0	90	36.1581920903955	36.241610738255	24	0.800083680152893	2	4	1	NaN	1	4	0.0190648399435654	0	1	NaN	391	7	13	2	120	220	320	NaN	520	0.942160292062908	1	1	NaN	2588882.8893023	NaN	2588883.8726958	2588884.38922351
60	23	0	0	90	36.1581920903955	36.241610738255	23	0.766746860146523	2	8	1	NaN	2	5	0.0190648399435654	0	1	NaN	392	7	14	2	120	220	320	NaN	520	4.04441438056529	2	1	NaN	2588886.139582	NaN	2588887.1229828	2588887.63954082
60	23	0	0	90	36.1581920903955	36.241610738255	20	0.666736400127411	2	4	2	NaN	1	5	0.0190648399435654	0	1	NaN	393	7	15	2	120	220	320	NaN	520	3.14980177627876	2	0	NaN	2588892.4901945	NaN	2588893.473608	2588893.99016642
60	23	0	0	90	36.1581920903955	36.241610738255	25	0.833420500159264	2	11	4	NaN	2	5	0.0190648399435654	0	1	NaN	394	7	16	2	120	220	320	NaN	520	2.5064986278303	1	0	NaN	2588897.9574146	NaN	2588898.9407909	2588899.45736157
60	23	0	0	90	36.1581920903955	36.241610738255	15	0.500052300095558	2	6	3	NaN	1	4	0.0190648399435654	0	1	NaN	395	7	17	2	120	220	320	NaN	520	2.44943332439288	2	0	NaN	2588902.7745344	NaN	2588903.7579529	2588904.27450528
60	23	0	0	90	36.1581920903955	36.241610738255	20	0.666736400127411	2	4	4	NaN	1	3	0.0190648399435654	0	1	NaN	396	7	18	2	120	220	320	NaN	520	3.0342610757798	2	0	NaN	2588907.5416764	NaN	2588908.5250894	2588909.04164202
60	23	0	0	90	36.1581920903955	36.241610738255	7	0.233357740044594	2	11	3	NaN	2	4	0.0190648399435654	0	1	NaN	397	7	19	2	120	220	320	NaN	520	2.75548272393644	2	1	NaN	2588912.8922075	NaN	2588913.8756006	2588914.39216218
60	23	0	0	90	36.1581920903955	36.241610738255	13	0.433378660082817	2	6	1	NaN	1	5	0.0190648399435654	0	1	NaN	398	7	20	2	120	220	320	NaN	520	4.28860232792795	1	1	NaN	2588917.9593736	NaN	2588918.9427735	2588919.45931907
60	23	0	0	90	36.1581920903955	36.241610738255	0	0	1	2	3	NaN	1	5	0.0190648399435654	0	1	NaN	399	7	21	2	110	210	310	NaN	510	2.40808802843094	2	0	NaN	2588924.5600182	NaN	2588925.5434251	2588926.05997817
60	23	0	0	90	36.1581920903955	36.241610738255	0	0	1	5	6	NaN	1	3	0.0190648399435654	0	1	NaN	400	7	22	2	110	210	310	NaN	510	1.93888698052615	1	1	NaN	2588929.2771535	NaN	2588930.2605348	2588930.77710902
60	23	0	0	90	36.1581920903955	36.241610738255	13	0.433378660082817	2	1	4	NaN	1	3	0.0190648399435654	0	1	NaN	401	7	23	2	120	220	320	NaN	520	2.50430282438174	2	0	NaN	2588933.5276124	NaN	2588934.5109772	2588935.02752518
60	23	0	0	90	36.1581920903955	36.241610738255	24	0.800083680152893	2	8	1	NaN	2	5	0.0190648399435654	0	1	NaN	402	7	24	2	120	220	320	NaN	520	2.47129477607086	1	0	NaN	2588938.3445928	NaN	2588939.328103	2588939.84466262
60	23	0	0	90	36.1581920903955	36.241610738255	24	0.800083680152893	2	10	3	NaN	2	3	0.0190648399435654	0	1	NaN	403	7	25	2	120	220	320	NaN	520	2.04728462453932	2	1	NaN	2588943.3283958	NaN	2588944.3119441	2588944.82847978
60	23	0	0	90	36.1581920903955	36.241610738255	22	0.733410040140152	2	3	6	NaN	1	5	0.0190648399435654	0	1	NaN	404	7	26	2	120	220	320	NaN	520	2.1043811282143	2	0	NaN	2588947.6956508	NaN	2588948.6790257	2588949.19557717
60	23	0	0	90	36.1581920903955	36.241610738255	11	0.366705020070076	2	3	1	NaN	1	3	0.0190648399435654	0	1	NaN	405	7	27	2	120	220	320	NaN	520	1.90340784424916	2	0	NaN	2588952.1127153	NaN	2588953.0961166	2588953.61268826
60	23	0	0	90	36.1581920903955	36.241610738255	17	0.566725940108299	2	1	4	NaN	1	5	0.0190648399435654	0	1	NaN	406	7	28	2	120	220	320	NaN	520	2.10192498005927	2	0	NaN	2588956.3298103	NaN	2588957.3131927	2588957.82976132
60	23	0	0	90	36.1581920903955	36.241610738255	23	0.766746860146523	2	9	3	NaN	2	3	0.0190648399435654	0	1	NaN	407	7	29	2	120	220	320	NaN	520	0.693224124610424	1	0	NaN	2588960.7469058	NaN	2588961.7303186	2588962.24685828
60	23	0	0	90	36.1581920903955	36.241610738255	20	0.666736400127411	2	9	2	NaN	2	5	0.0190648399435654	0	1	NaN	408	7	30	2	120	220	320	NaN	520	3.41467167623341	2	1	NaN	2588964.0971127	NaN	2588965.0806356	2588965.59718972
60	23	0	0	90	36.1581920903955	36.241610738255	12	0.400041840076447	2	3	3	NaN	1	4	0.0190648399435654	0	1	NaN	409	7	31	2	120	220	320	NaN	520	1.54506952827796	1	1	NaN	2588969.8311554	NaN	2588970.8145292	2588971.33108287
60	23	0	0	90	36.1581920903955	36.241610738255	24	0.800083680152893	2	9	1	NaN	2	4	0.0190648399435654	0	1	NaN	410	7	32	2	120	220	320	NaN	520	3.41394732799381	2	1	NaN	2588973.6981946	NaN	2588974.68158	2588975.19812197
60	23	0	0	90	36.1581920903955	36.241610738255	24	0.800083680152893	2	8	2	NaN	2	4	0.0190648399435654	0	1	NaN	411	7	33	2	120	220	320	NaN	520	1.97577742440626	2	1	NaN	2588979.4320947	NaN	2588980.4154636	2588980.93202808
60	23	0	0	90	36.1581920903955	36.241610738255	13	0.433378660082817	2	11	2	NaN	2	3	0.0190648399435654	0	1	NaN	412	7	34	2	120	220	320	NaN	520	4.66024601645768	1	0	NaN	2588983.7157226	NaN	2588984.6992421	2588985.21577108
60	23	0	0	90	36.1581920903955	36.241610738255	17	0.566725940108299	2	7	2	NaN	2	4	0.0190648399435654	0	1	NaN	413	7	35	2	120	220	320	NaN	520	2.98021212406456	2	1	NaN	2588990.6997221	NaN	2588991.6832788	2588992.19979198
60	23	0	0	90	36.1581920903955	36.241610738255	23	0.766746860146523	2	9	4	NaN	2	3	0.0190648399435654	0	1	NaN	414	7	36	2	120	220	320	NaN	520	4.43955042818561	2	1	NaN	2588996.0003776	NaN	2588996.9837626	2588997.50031397
60	23	0	0	90	36.1581920903955	36.241610738255	24	0.800083680152893	2	2	1	NaN	1	3	0.0190648399435654	0	1	NaN	415	7	37	2	120	220	320	NaN	520	2.86521252803504	2	0	NaN	2589002.7510285	NaN	2589003.7344292	2589004.25100367
60	23	0	0	90	36.1581920903955	36.241610738255	9	0.300031380057335	2	3	4	NaN	1	4	0.0190648399435654	0	1	NaN	416	7	38	2	120	220	320	NaN	520	1.58502308046445	2	0	NaN	2589007.9348726	NaN	2589008.9182736	2589009.43482642
60	23	0	0	90	36.1581920903955	36.241610738255	7	0.233357740044594	2	8	6	NaN	2	5	0.0190648399435654	0	1	NaN	417	7	39	2	120	220	320	NaN	520	3.26090132817626	2	1	NaN	2589011.8352568	NaN	2589012.8186472	2589013.33521077
60	23	0	0	90	36.1581920903955	36.241610738255	23	0.766746860146523	2	11	1	NaN	2	3	0.0190648399435654	0	1	NaN	418	7	40	2	120	220	320	NaN	520	1.70855808071792	1	0	NaN	2589017.4191304	NaN	2589018.4025235	2589018.91909112
60	23	0	0	90	36.1581920903955	36.241610738255	21	0.700073220133781	2	9	3	NaN	2	3	0.0190648399435654	0	1	NaN	419	7	41	2	120	220	320	NaN	520	2.10749872773886	1	0	NaN	2589021.4361835	NaN	2589022.4196004	2589022.93615237
60	23	0	0	90	36.1581920903955	36.241610738255	15	0.500052300095558	2	12	4	NaN	2	4	0.0190648399435654	0	1	NaN	420	7	42	2	120	220	320	NaN	520	1.8104825722985	2	1	NaN	2589025.8531801	NaN	2589026.836696	2589027.35324113
60	23	0	0	90	36.1581920903955	36.241610738255	18	0.60006276011467	2	12	5	NaN	2	4	0.0190648399435654	0	1	NaN	421	7	43	2	120	220	320	NaN	520	1.52873832825571	2	1	NaN	2589030.2870512	NaN	2589031.2704754	2589031.78702047
60	23	0	0	90	36.1581920903955	36.241610738255	10	0.333368200063705	2	9	5	NaN	2	5	0.0190648399435654	0	1	NaN	422	7	44	2	120	220	320	NaN	520	1.87938138423488	1	0	NaN	2589034.1207686	NaN	2589035.1042321	2589035.62072582
60	23	0	0	90	36.1581920903955	36.241610738255	19	0.63339958012104	2	12	6	NaN	2	4	0.0190648399435654	0	1	NaN	423	7	45	2	120	220	320	NaN	520	2.08695774385706	2	1	NaN	2589038.3211909	NaN	2589039.3045925	2589039.82114096
60	23	0	0	90	36.1581920903955	36.241610738255	15	0.500052300095558	2	9	5	NaN	2	5	0.0190648399435654	0	1	NaN	424	7	46	2	120	220	320	NaN	520	2.43846414424479	2	1	NaN	2589042.7216339	NaN	2589043.7050069	2589044.22157956
60	23	0	0	90	36.1581920903955	36.241610738255	13	0.433378660082817	2	11	4	NaN	2	5	0.0190648399435654	0	1	NaN	425	7	47	2	120	220	320	NaN	520	1.25573362410069	1	0	NaN	2589047.4720875	NaN	2589048.4554838	2589048.97203018
60	23	0	0	90	36.1581920903955	36.241610738255	18	0.60006276011467	2	9	3	NaN	2	3	0.0190648399435654	0	1	NaN	426	7	48	2	120	220	320	NaN	520	1.39319062791765	2	1	NaN	2589051.0391131	NaN	2589052.0225146	2589052.53905887
60	23	0	0	90	36.1581920903955	36.241610738255	23	0.766746860146523	2	2	4	NaN	1	3	0.0190648399435654	0	1	NaN	427	7	49	2	120	220	320	NaN	520	1.23587142815813	2	0	NaN	2589054.7561238	NaN	2589055.7395544	2589056.25608877
60	23	0	0	90	36.1581920903955	36.241610738255	16	0.533389120101929	2	8	5	NaN	2	4	0.0190648399435654	0	1	NaN	428	7	50	2	120	220	320	NaN	520	1.91767282783985	2	1	NaN	2589058.3064818	NaN	2589059.2899067	2589059.80642957
60	23	0	0	90	36.1581920903955	36.241610738255	22	0.733410040140152	2	5	3	NaN	1	4	0.0190648399435654	0	1	NaN	429	7	51	2	120	220	320	NaN	520	1.40398702817038	2	0	NaN	2589062.5402248	NaN	2589063.5236307	2589064.04020267
60	23	0	0	90	36.1581920903955	36.241610738255	18	0.60006276011467	2	1	2	NaN	1	5	0.0190648399435654	0	1	NaN	430	7	52	2	120	220	320	NaN	520	2.04793532844633	1	1	NaN	2589066.6239637	NaN	2589067.6073652	2589068.12390837
60	23	0	0	90	36.1581920903955	36.241610738255	9	0.300031380057335	2	1	2	NaN	1	4	0.0190648399435654	0	1	NaN	431	7	53	2	120	220	320	NaN	520	2.30515532847494	1	1	NaN	2589070.9909356	NaN	2589071.974476	2589072.49101597
60	23	0	0	90	36.1581920903955	36.241610738255	7	0.233357740044594	2	10	6	NaN	2	3	0.0190648399435654	0	1	NaN	432	7	54	2	120	220	320	NaN	520	0.94377142842859	2	1	NaN	2589075.6081945	NaN	2589076.591588	2589077.10813037
60	23	0	0	90	36.1581920903955	36.241610738255	13	0.433378660082817	2	1	4	NaN	1	5	0.0190648399435654	0	1	NaN	433	7	55	2	120	220	320	NaN	520	2.50948107242584	1	1	NaN	2589078.8584867	NaN	2589079.8419614	2589080.35845123
60	23	0	0	90	36.1581920903955	36.241610738255	7	0.233357740044594	2	11	4	NaN	2	4	0.0190648399435654	0	1	NaN	434	7	56	2	120	220	320	NaN	520	1.15616337582469	2	1	NaN	2589083.6756514	NaN	2589084.6590372	2589085.17558232
60	23	0	0	90	36.1581920903955	36.241610738255	0	0	1	2	2	NaN	1	3	0.0190648399435654	0	1	NaN	435	7	57	2	110	210	310	NaN	510	0.457462224178016	1	1	NaN	2589087.1426384	NaN	2589088.1260432	2589088.64258968
60	23	0	0	90	36.1581920903955	36.241610738255	8	0.266694560050964	2	3	1	NaN	1	5	0.0190648399435654	0	1	NaN	436	7	58	2	120	220	320	NaN	520	2.50669102463871	2	0	NaN	2589089.9095998	NaN	2589090.8929729	2589091.40952948
60	23	0	0	90	36.1581920903955	36.241610738255	12	0.400041840076447	2	6	4	NaN	1	5	0.0190648399435654	0	1	NaN	437	7	59	2	120	220	320	NaN	520	2.16979242814705	2	0	NaN	2589094.726712	NaN	2589095.7101199	2589096.22667997
60	23	0	0	90	36.1581920903955	36.241610738255	22	0.733410040140152	2	4	6	NaN	1	4	0.0190648399435654	0	1	NaN	438	7	60	2	120	220	320	NaN	520	1.27740788040683	2	0	NaN	2589099.2105136	NaN	2589100.1938918	2589100.71044782
60	23	0	0	90	36.1581920903955	36.241610738255	23	0.766746860146523	2	4	4	NaN	1	5	0.0190648399435654	0	1	NaN	439	7	61	2	120	220	320	NaN	520	1.63736468413845	1	1	NaN	2589102.810841	NaN	2589103.7942418	2589104.31080662
60	23	0	0	90	36.1581920903955	36.241610738255	13	0.433378660082817	2	2	3	NaN	1	3	0.0190648399435654	0	1	NaN	440	7	62	2	120	220	320	NaN	520	3.4867317401804	2	0	NaN	2589106.7612543	NaN	2589107.744655	2589108.26119786
60	23	0	0	90	36.1581920903955	36.241610738255	17	0.566725940108299	2	12	2	NaN	2	4	0.0190648399435654	0	1	NaN	441	7	63	2	120	220	320	NaN	520	2.15812142426148	1	0	NaN	2589112.5618094	NaN	2589113.5452087	2589114.06175608
60	23	0	0	90	36.1581920903955	36.241610738255	7	0.233357740044594	2	9	2	NaN	2	3	0.0190648399435654	0	1	NaN	442	8	1	2	120	220	320	NaN	520	2.39195962809026	2	1	NaN	2589213.0883348	NaN	2589214.0717218	2589214.58829347
60	23	0	0	90	36.1581920903955	36.241610738255	6	0.200020920038223	2	6	5	NaN	1	4	0.0190648399435654	0	1	NaN	443	8	2	2	120	220	320	NaN	520	2.13934522820637	2	0	NaN	2589217.7888008	NaN	2589218.7721956	2589219.28874367
60	23	0	0	90	36.1581920903955	36.241610738255	17	0.566725940108299	2	5	4	NaN	1	4	0.0190648399435654	0	1	NaN	444	8	3	2	120	220	320	NaN	520	2.15291842399165	2	0	NaN	2589222.239231	NaN	2589223.22263	2589223.73918198
60	23	0	0	90	36.1581920903955	36.241610738255	8	0.266694560050964	2	7	4	NaN	2	4	0.0190648399435654	0	1	NaN	445	8	4	2	120	220	320	NaN	520	2.56610784400254	1	0	NaN	2589226.7063466	NaN	2589227.6897429	2589228.20629916
60	23	0	0	90	36.1581920903955	36.241610738255	23	0.766746860146523	2	7	2	NaN	2	4	0.0190648399435654	0	1	NaN	446	8	5	2	120	220	320	NaN	520	2.89797482453287	1	0	NaN	2589231.5901487	NaN	2589232.5735456	2589233.09010208
60	23	0	0	90	36.1581920903955	36.241610738255	21	0.700073220133781	2	8	5	NaN	2	5	0.0190648399435654	0	1	NaN	447	8	6	2	120	220	320	NaN	520	3.96113732783124	1	0	NaN	2589236.8072053	NaN	2589237.7907602	2589238.30727927
60	23	0	0	90	36.1581920903955	36.241610738255	13	0.433378660082817	2	8	3	NaN	2	4	0.0190648399435654	0	1	NaN	448	8	7	2	120	220	320	NaN	520	2.53291972447187	2	1	NaN	2589243.0912745	NaN	2589244.074684	2589244.59122758
60	23	0	0	90	36.1581920903955	36.241610738255	19	0.63339958012104	2	3	4	NaN	1	4	0.0190648399435654	0	1	NaN	449	8	8	2	120	220	320	NaN	520	0.978337575681508	2	0	NaN	2589247.941757	NaN	2589248.9251575	2589249.44170642
60	23	0	0	90	36.1581920903955	36.241610738255	15	0.500052300095558	2	1	1	NaN	1	5	0.0190648399435654	0	1	NaN	450	8	9	2	120	220	320	NaN	520	2.45486832456663	2	0	NaN	2589251.2254114	NaN	2589252.2088281	2589252.72536618
60	23	0	0	90	36.1581920903955	36.241610738255	10	0.333368200063705	2	1	1	NaN	1	5	0.0190648399435654	0	1	NaN	451	8	10	2	120	220	320	NaN	520	0.66403292817995	1	1	NaN	2589255.9925472	NaN	2589256.975925	2589257.49249577
60	23	0	0	90	36.1581920903955	36.241610738255	21	0.700073220133781	2	11	5	NaN	2	4	0.0190648399435654	0	1	NaN	452	8	11	2	120	220	320	NaN	520	4.10406842455268	2	1	NaN	2589258.9761666	NaN	2589259.9595621	2589260.47611878
60	23	0	0	90	36.1581920903955	36.241610738255	14	0.466715480089188	2	12	3	NaN	2	5	0.0190648399435654	0	1	NaN	453	8	12	2	120	220	320	NaN	520	4.03116138046607	2	1	NaN	2589265.393476	NaN	2589266.3767625	2589266.89342662
60	23	0	0	90	36.1581920903955	36.241610738255	0	0	1	1	1	NaN	1	4	0.0190648399435654	0	1	NaN	454	8	13	2	110	210	310	NaN	510	1.71260422840714	1	1	NaN	2589271.7440909	NaN	2589272.7274995	2589273.24404827
60	23	0	0	90	36.1581920903955	36.241610738255	12	0.400041840076447	2	7	5	NaN	2	4	0.0190648399435654	0	1	NaN	455	8	14	2	120	220	320	NaN	520	2.33455742849037	1	0	NaN	2589275.7778549	NaN	2589276.7612248	2589277.27777197
60	23	0	0	90	36.1581920903955	36.241610738255	9	0.300031380057335	2	5	1	NaN	1	5	0.0190648399435654	0	1	NaN	456	8	15	2	120	220	320	NaN	520	1.8899510758929	1	1	NaN	2589280.6782946	NaN	2589281.6617672	2589282.17825442
60	23	0	0	90	36.1581920903955	36.241610738255	17	0.566725940108299	2	6	6	NaN	1	3	0.0190648399435654	0	1	NaN	457	8	16	2	120	220	320	NaN	520	2.93753632856533	1	1	NaN	2589284.8787301	NaN	2589285.8621049	2589286.37866877
60	23	0	0	90	36.1581920903955	36.241610738255	14	0.466715480089188	2	6	3	NaN	1	5	0.0190648399435654	0	1	NaN	458	8	17	2	120	220	320	NaN	520	1.31098432466388	1	1	NaN	2589290.129221	NaN	2589291.1126246	2589291.62918478
60	23	0	0	90	36.1581920903955	36.241610738255	23	0.766746860146523	2	12	1	NaN	2	5	0.0190648399435654	0	1	NaN	459	8	18	2	120	220	320	NaN	520	2.42237738054246	2	1	NaN	2589293.7462498	NaN	2589294.7296403	2589295.24620892
60	23	0	0	90	36.1581920903955	36.241610738255	11	0.366705020070076	2	8	3	NaN	2	5	0.0190648399435654	0	1	NaN	460	8	19	2	120	220	320	NaN	520	2.88853582413867	2	1	NaN	2589298.4800462	NaN	2589299.4634623	2589299.97999238
