subjno	age	gender	isPractice	viewdist	CmToPixX	CmToPixY	SOA_frm	SOA_time	targNum	targID	targExample	targRace	targGender	firstTargPos	contrast	familiarity	curr_staircase	iStair	TrialNum	BlockNum	blktrl	sessionNum	TC_FIXATION	TC_RSVP_START	TC_RSVP_END	TC_BLANK	TC_RESPONSE_ONSET	RT2afc	resp_2afc	acc	RSVPOnsetVBL	RSVPOnsetTime	RSVPOffsetVBL	RSVPOffsetTime	startrt_2afc
2	21	0	0	90	36.1581920903955	36.241610738255	9	0.300030192006379	2	9	2	NaN	2	3	0.058938015802289	1	1	NaN	1	1	1	1	121	221	321	NaN	521	0.0109818275086582	2	1	NaN	1276922.0660733	NaN	1276923.0495005	1276923.58264397
2	21	0	0	90	36.1581920903955	36.241610738255	13	0.433376944009215	2	11	2	NaN	2	3	0.058938015802289	1	1	NaN	2	1	2	1	121	221	321	NaN	521	0.106311331503093	2	1	NaN	1276924.6496051	NaN	1276925.6330829	1276926.16624727
2	21	0	0	90	36.1581920903955	36.241610738255	7	0.233356816004962	2	10	1	NaN	2	5	0.058938015802289	1	1	NaN	3	1	3	1	121	221	321	NaN	521	0.0106008315924555	2	1	NaN	1276927.6165779	NaN	1276928.6000044	1276929.11653667
2	21	0	0	90	36.1581920903955	36.241610738255	24	0.800080512017012	2	6	3	NaN	1	3	0.058938015802289	1	1	NaN	4	1	4	1	121	221	321	NaN	521	0.0107562756165862	1	1	NaN	1276930.4000629	NaN	1276931.3836353	1276931.90013722
2	21	0	0	90	36.1581920903955	36.241610738255	23	0.766743824016303	2	8	1	NaN	2	5	0.058938015802289	1	1	NaN	5	1	5	1	121	221	321	NaN	521	0.246502023423091	2	1	NaN	1276932.750501	NaN	1276933.7339864	1276934.25036048
2	21	0	0	90	36.1581920903955	36.241610738255	11	0.366703568007797	2	10	2	NaN	2	5	0.058938015802289	1	1	NaN	6	1	6	1	121	221	321	NaN	521	0.230299527524039	2	1	NaN	1276935.350805	NaN	1276936.3342012	1276936.85062267
2	21	0	0	90	36.1581920903955	36.241610738255	13	0.433376944009215	2	8	5	NaN	2	4	0.058938015802289	1	1	NaN	7	1	7	1	121	221	321	NaN	521	0.240036127623171	2	1	NaN	1276937.9008502	NaN	1276938.884332	1276939.40086807
2	21	0	0	90	36.1581920903955	36.241610738255	18	0.600060384012759	2	8	4	NaN	2	3	0.058938015802289	1	1	NaN	8	1	8	1	121	221	321	NaN	521	0.632596423616633	2	1	NaN	1276940.8845272	NaN	1276941.8679741	1276942.38449608
2	21	0	0	90	36.1581920903955	36.241610738255	21	0.700070448014885	2	9	1	NaN	2	3	0.058938015802289	1	1	NaN	9	1	9	1	121	221	321	NaN	521	0.237270327517763	2	1	NaN	1276944.1515471	NaN	1276945.1349355	1276945.65148417
2	21	0	0	90	36.1581920903955	36.241610738255	17	0.56672369601205	2	4	4	NaN	1	5	0.058938015802289	1	1	NaN	10	1	10	1	121	221	321	NaN	521	0.486029295949265	1	1	NaN	1276946.7184016	NaN	1276947.7018775	1276948.2184101
2	21	0	0	90	36.1581920903955	36.241610738255	20	0.666733760014176	2	5	1	NaN	1	3	0.058938015802289	1	1	NaN	11	1	11	1	121	221	321	NaN	521	0.237363527528942	2	0	NaN	1276949.5354013	NaN	1276950.5187962	1276951.03534137
2	21	0	0	90	36.1581920903955	36.241610738255	21	0.700070448014885	2	10	4	NaN	2	5	0.058938015802289	1	1	NaN	12	1	12	1	121	221	321	NaN	521	0.310389027465135	2	1	NaN	1276952.1022879	NaN	1276953.0857403	1276953.60226337
2	21	0	0	90	36.1581920903955	36.241610738255	11	0.366703568007797	2	5	1	NaN	1	4	0.058938015802289	1	1	NaN	13	1	13	1	121	221	321	NaN	521	0.0104626275133342	1	1	NaN	1276955.1526152	NaN	1276956.1360241	1276956.65257457
2	21	0	0	90	36.1581920903955	36.241610738255	0	0	1	3	2	NaN	1	3	0.058938015802289	1	1	NaN	14	1	14	1	111	211	311	NaN	511	0.206888375570998	1	1	NaN	1276957.4861747	NaN	1276958.4695869	1276958.98613512
2	21	0	0	90	36.1581920903955	36.241610738255	17	0.56672369601205	2	2	3	NaN	1	4	0.058938015802289	1	1	NaN	15	1	15	1	121	221	321	NaN	521	0.400969723472372	1	1	NaN	1276960.0198438	NaN	1276961.0031687	1276961.51970278
2	21	0	0	90	36.1581920903955	36.241610738255	12	0.400040256008506	2	4	4	NaN	1	5	0.058938015802289	1	1	NaN	16	1	16	1	121	221	321	NaN	521	0.291270371293649	1	1	NaN	1276962.7533717	NaN	1276963.7367905	1276964.25330443
2	21	0	0	90	36.1581920903955	36.241610738255	8	0.266693504005671	2	12	2	NaN	2	4	0.058938015802289	1	1	NaN	17	1	17	1	121	221	321	NaN	521	0.778438727371395	2	1	NaN	1276965.3702067	NaN	1276966.3536913	1276966.87023177
2	21	0	0	90	36.1581920903955	36.241610738255	9	0.300030192006379	2	11	3	NaN	2	4	0.058938015802289	1	1	NaN	18	1	18	1	121	221	321	NaN	521	0.438452427275479	2	1	NaN	1276968.4706567	NaN	1276969.4540035	1276969.97053557
2	21	0	0	90	36.1581920903955	36.241610738255	19	0.633397072013468	2	5	4	NaN	1	3	0.058938015802289	1	1	NaN	19	1	19	1	121	221	321	NaN	521	0.296023975592107	1	1	NaN	1276971.220983	NaN	1276972.2042694	1276972.72080822
2	21	0	0	90	36.1581920903955	36.241610738255	17	0.56672369601205	2	6	3	NaN	1	5	0.058938015802289	1	1	NaN	20	1	20	1	121	221	321	NaN	521	0.33454537554644	1	1	NaN	1276974.4545024	NaN	1276975.437937	1276975.95446172
2	21	0	0	90	36.1581920903955	36.241610738255	9	0.300030192006379	2	7	2	NaN	2	4	0.058938015802289	1	1	NaN	21	1	21	1	121	221	321	NaN	521	0.475630175555125	1	0	NaN	1276977.1215521	NaN	1276978.1048545	1276978.62139582
2	21	0	0	90	36.1581920903955	36.241610738255	9	0.300030192006379	2	8	5	NaN	2	5	0.058938015802289	1	1	NaN	22	1	22	1	121	221	321	NaN	521	0.283061827532947	2	1	NaN	1276979.9217186	NaN	1276980.9051236	1276981.42167997
2	21	0	0	90	36.1581920903955	36.241610738255	23	0.766743824016303	2	12	1	NaN	2	5	0.058938015802289	1	1	NaN	23	1	23	1	121	221	321	NaN	521	0.443098575575277	2	1	NaN	1276982.5218476	NaN	1276983.5053626	1276984.02196582
2	21	0	0	90	36.1581920903955	36.241610738255	15	0.500050320010632	2	11	6	NaN	2	3	0.058938015802289	1	1	NaN	24	1	24	1	121	221	321	NaN	521	0.3082432274241	2	1	NaN	1276985.288773	NaN	1276986.2723245	1276986.78886297
2	21	0	0	90	36.1581920903955	36.241610738255	24	0.800080512017012	2	3	3	NaN	1	5	0.058938015802289	1	1	NaN	25	1	25	1	121	221	321	NaN	521	0.314214527606964	1	1	NaN	1276987.9225219	NaN	1276988.9058922	1276989.42245037
2	21	0	0	90	36.1581920903955	36.241610738255	11	0.366703568007797	2	8	2	NaN	2	5	0.058938015802289	1	1	NaN	26	1	26	1	121	221	321	NaN	521	0.34499947540462	2	1	NaN	1276990.5560916	NaN	1276991.5395162	1276992.05604392
2	21	0	0	90	36.1581920903955	36.241610738255	25	0.83341720001772	2	2	2	NaN	1	5	0.058938015802289	1	1	NaN	27	1	27	1	121	221	321	NaN	521	0.2855386917945	1	1	NaN	1276993.2230406	NaN	1276994.2064351	1276994.72298351
2	21	0	0	90	36.1581920903955	36.241610738255	20	0.666733760014176	2	5	3	NaN	1	4	0.058938015802289	1	1	NaN	28	1	28	1	121	221	321	NaN	521	0.485168227460235	1	1	NaN	1276995.8398432	NaN	1276996.8233446	1276997.33989397
2	21	0	0	90	36.1581920903955	36.241610738255	12	0.400040256008506	2	10	5	NaN	2	5	0.058938015802289	1	1	NaN	29	1	29	1	121	221	321	NaN	521	0.385314023587853	2	1	NaN	1276999.1236123	NaN	1277000.1070103	1277000.62354668
2	21	0	0	90	36.1581920903955	36.241610738255	18	0.600060384012759	2	8	6	NaN	2	4	0.058938015802289	1	1	NaN	30	1	30	1	121	221	321	NaN	521	0.31600993569009	2	1	NaN	1277001.8405603	NaN	1277002.8239369	1277003.34049346
2	21	0	0	90	36.1581920903955	36.241610738255	14	0.466713632009923	2	7	4	NaN	2	5	0.058938015802289	1	1	NaN	31	1	31	1	121	221	321	NaN	521	0.274707679636776	2	1	NaN	1277004.4741491	NaN	1277005.4575185	1277005.97407802
2	21	0	0	90	36.1581920903955	36.241610738255	12	0.400040256008506	2	12	6	NaN	2	3	0.058938015802289	1	1	NaN	32	1	32	1	121	221	321	NaN	521	0.370026923483238	2	1	NaN	1277007.4910925	NaN	1277008.4745173	1277008.99104148
2	21	0	0	90	36.1581920903955	36.241610738255	12	0.400040256008506	2	5	6	NaN	1	4	0.058938015802289	1	1	NaN	33	1	33	1	121	221	321	NaN	521	0.291302027413622	1	1	NaN	1277010.6413967	NaN	1277011.6247996	1277012.14135377
2	21	0	0	90	36.1581920903955	36.241610738255	20	0.666733760014176	2	6	5	NaN	1	5	0.058938015802289	1	1	NaN	34	1	34	1	121	221	321	NaN	521	0.714467327576131	2	0	NaN	1277013.2583206	NaN	1277014.2417439	1277014.75827317
2	21	0	0	90	36.1581920903955	36.241610738255	7	0.233356816004962	2	8	2	NaN	2	5	0.058938015802289	1	1	NaN	35	1	35	1	121	221	321	NaN	521	0.271043327637017	2	1	NaN	1277016.7419975	NaN	1277017.7254051	1277018.24195137
2	21	0	0	90	36.1581920903955	36.241610738255	18	0.600060384012759	2	2	5	NaN	1	3	0.058938015802289	1	1	NaN	36	1	36	1	121	221	321	NaN	521	0.302494327537715	1	1	NaN	1277019.3422592	NaN	1277020.3257051	1277020.84220607
2	21	0	0	90	36.1581920903955	36.241610738255	9	0.300030192006379	2	2	6	NaN	1	5	0.058938015802289	1	1	NaN	37	1	37	1	121	221	321	NaN	521	0.0104780276305974	1	1	NaN	1277021.9590745	NaN	1277022.9426277	1277023.45913297
2	21	0	0	90	36.1581920903955	36.241610738255	22	0.733407136015594	2	2	3	NaN	1	5	0.058938015802289	1	1	NaN	38	1	38	1	121	221	321	NaN	521	0.288003127323464	1	1	NaN	1277024.2926349	NaN	1277025.2761591	1277025.79269517
2	21	0	0	90	36.1581920903955	36.241610738255	15	0.500050320010632	2	8	1	NaN	2	4	0.058938015802289	1	1	NaN	39	1	39	1	121	221	321	NaN	521	0.0630711712874472	2	1	NaN	1277026.9096776	NaN	1277027.8930621	1277028.40961593
2	21	0	0	90	36.1581920903955	36.241610738255	0	0	1	6	3	NaN	1	5	0.058938015802289	1	1	NaN	40	1	40	1	111	211	311	NaN	511	0.303673175629228	1	1	NaN	1277029.2933157	NaN	1277030.2766907	1277030.79318862
2	21	0	0	90	36.1581920903955	36.241610738255	22	0.733407136015594	2	3	2	NaN	1	3	0.058938015802289	1	1	NaN	41	1	41	1	121	221	321	NaN	521	0.294595527695492	1	1	NaN	1277031.9101726	NaN	1277032.8935561	1277033.41010187
2	21	0	0	90	36.1581920903955	36.241610738255	13	0.433376944009215	2	11	4	NaN	2	3	0.058938015802289	1	1	NaN	42	1	42	1	121	221	321	NaN	521	0.414114227518439	2	1	NaN	1277034.5270785	NaN	1277035.5105029	1277036.02704027
2	21	0	0	90	36.1581920903955	36.241610738255	7	0.233356816004962	2	1	1	NaN	1	5	0.058938015802289	1	1	NaN	43	1	43	1	121	221	321	NaN	521	0.35201022750698	1	1	NaN	1277037.2605933	NaN	1277038.2440866	1277038.76064157
2	21	0	0	90	36.1581920903955	36.241610738255	9	0.300030192006379	2	6	1	NaN	1	5	0.058938015802289	1	1	NaN	44	1	44	1	121	221	321	NaN	521	0.333455299958587	1	1	NaN	1277039.9276995	NaN	1277040.9110613	1277041.4275566
2	21	0	0	90	36.1581920903955	36.241610738255	25	0.83341720001772	2	6	1	NaN	1	5	0.058938015802289	1	1	NaN	45	1	45	1	121	221	321	NaN	521	0.267018627375364	1	1	NaN	1277042.5778836	NaN	1277043.5612655	1277044.07782797
2	21	0	0	90	36.1581920903955	36.241610738255	8	0.266693504005671	2	1	5	NaN	1	4	0.058938015802289	1	1	NaN	46	1	46	1	121	221	321	NaN	521	0.0103980274870992	1	1	NaN	1277045.1614732	NaN	1277046.1448814	1277046.66140637
2	21	0	0	90	36.1581920903955	36.241610738255	18	0.600060384012759	2	4	3	NaN	1	4	0.058938015802289	1	1	NaN	47	1	47	1	121	221	321	NaN	521	0.270656171254814	1	1	NaN	1277047.4782293	NaN	1277048.4617642	1277048.97832073
2	21	0	0	90	36.1581920903955	36.241610738255	14	0.466713632009923	2	10	6	NaN	2	3	0.058938015802289	1	1	NaN	48	1	48	1	121	221	321	NaN	521	0.24723192746751	2	1	NaN	1277050.0618762	NaN	1277051.0453678	1277051.56189297
2	21	0	0	90	36.1581920903955	36.241610738255	22	0.733407136015594	2	6	4	NaN	1	4	0.058938015802289	1	1	NaN	49	1	49	1	121	221	321	NaN	521	0.317998783662915	1	1	NaN	1277053.0789096	NaN	1277054.0623127	1277054.57885702
2	21	0	0	90	36.1581920903955	36.241610738255	20	0.666733760014176	2	11	4	NaN	2	5	0.058938015802289	1	1	NaN	50	1	50	1	121	221	321	NaN	521	0.248960527591407	1	0	NaN	1277055.9958419	NaN	1277056.9792884	1277057.49580987
2	21	0	0	90	36.1581920903955	36.241610738255	10	0.333366880007088	2	3	4	NaN	1	5	0.058938015802289	1	1	NaN	51	1	51	1	121	221	321	NaN	521	0.26638122764416	1	1	NaN	1277058.5628039	NaN	1277059.5461687	1277060.06273097
2	21	0	0	90	36.1581920903955	36.241610738255	14	0.466713632009923	2	11	6	NaN	2	3	0.058938015802289	1	1	NaN	52	1	52	1	121	221	321	NaN	521	0.425746575696394	2	1	NaN	1277061.1630624	NaN	1277062.1464663	1277062.66298432
2	21	0	0	90	36.1581920903955	36.241610738255	8	0.266693504005671	2	6	4	NaN	1	5	0.058938015802289	1	1	NaN	53	1	53	1	121	221	321	NaN	521	0.0434184796176851	1	1	NaN	1277063.9131791	NaN	1277064.8967139	1277065.41325692
2	21	0	0	90	36.1581920903955	36.241610738255	19	0.633397072013468	2	7	5	NaN	2	3	0.058938015802289	1	1	NaN	54	1	54	1	121	221	321	NaN	521	0.700419027358294	2	1	NaN	1277066.2802426	NaN	1277067.2636169	1277067.78015417
2	21	0	0	90	36.1581920903955	36.241610738255	24	0.800080512017012	2	5	5	NaN	1	4	0.058938015802289	1	1	NaN	55	1	55	1	121	221	321	NaN	521	0.257368723396212	1	1	NaN	1277069.7632392	NaN	1277070.7472827	1277071.26382498
2	21	0	0	90	36.1581920903955	36.241610738255	14	0.466713632009923	2	1	2	NaN	1	4	0.058938015802289	1	1	NaN	56	1	56	1	121	221	321	NaN	521	0.314121135743335	1	1	NaN	1277072.3307289	NaN	1277073.3142148	1277073.83075156
2	21	0	0	90	36.1581920903955	36.241610738255	13	0.433376944009215	2	2	4	NaN	1	5	0.058938015802289	1	1	NaN	57	1	57	1	121	221	321	NaN	521	0.0102714439854026	1	1	NaN	1277074.9644066	NaN	1277075.9478068	1277076.46434826
2	21	0	0	90	36.1581920903955	36.241610738255	9	0.300030192006379	2	10	1	NaN	2	5	0.058938015802289	1	1	NaN	58	1	58	1	121	221	321	NaN	521	0.623197827488184	2	1	NaN	1277077.7979992	NaN	1277078.7814188	1277079.29794797
2	21	0	0	90	36.1581920903955	36.241610738255	25	0.83341720001772	2	8	1	NaN	2	4	0.058938015802289	1	1	NaN	59	1	59	1	121	221	321	NaN	521	0.200544595951214	2	1	NaN	1277080.7482991	NaN	1277081.7317027	1277082.2482442
2	21	0	0	90	36.1581920903955	36.241610738255	6	0.200020128004253	2	3	3	NaN	1	5	0.058938015802289	1	1	NaN	60	1	60	1	121	221	321	NaN	521	0.175716343801469	1	1	NaN	1277083.7652472	NaN	1277084.7486783	1277085.26521656
2	21	0	0	90	36.1581920903955	36.241610738255	12	0.400040256008506	2	5	1	NaN	1	4	0.058938015802289	1	1	NaN	61	1	61	1	121	221	321	NaN	521	0.203582627465948	1	1	NaN	1277086.2655243	NaN	1277087.2489105	1277087.76544927
2	21	0	0	90	36.1581920903955	36.241610738255	14	0.466713632009923	2	2	3	NaN	1	4	0.058938015802289	1	1	NaN	62	1	62	1	121	221	321	NaN	521	0.285732775693759	1	1	NaN	1277088.7990834	NaN	1277089.7825183	1277090.29902732
2	21	0	0	90	36.1581920903955	36.241610738255	21	0.700070448014885	2	8	6	NaN	2	4	0.058938015802289	1	1	NaN	63	1	63	1	121	221	321	NaN	521	0.261900875717402	2	1	NaN	1277091.3993393	NaN	1277092.3827952	1277092.89928632
2	21	0	0	90	36.1581920903955	36.241610738255	9	0.300030192006379	2	4	2	NaN	1	4	0.058938015802289	1	1	NaN	64	2	1	1	121	221	321	NaN	521	0.252044079825282	2	0	NaN	1277112.7848969	NaN	1277113.7681869	1277114.28472412
2	21	0	0	90	36.1581920903955	36.241610738255	16	0.533387008011341	2	9	5	NaN	2	5	0.058938015802289	1	1	NaN	65	2	2	1	121	221	321	NaN	521	0.261232823366299	1	0	NaN	1277115.3517036	NaN	1277116.3351121	1277116.85163598
2	21	0	0	90	36.1581920903955	36.241610738255	20	0.666733760014176	2	2	2	NaN	1	4	0.058938015802289	1	1	NaN	66	2	3	1	121	221	321	NaN	521	0.217924827476963	1	1	NaN	1277118.0352868	NaN	1277119.0187101	1277119.53523637
2	21	0	0	90	36.1581920903955	36.241610738255	7	0.233356816004962	2	11	1	NaN	2	5	0.058938015802289	1	1	NaN	67	2	4	1	121	221	321	NaN	521	0.452450427459553	2	1	NaN	1277120.5688806	NaN	1277121.5522907	1277122.06881757
2	21	0	0	90	36.1581920903955	36.241610738255	10	0.333366880007088	2	2	4	NaN	1	4	0.058938015802289	1	1	NaN	68	2	5	1	121	221	321	NaN	521	0.0844320796895772	1	1	NaN	1277123.3525201	NaN	1277124.3358898	1277124.85242972
2	21	0	0	90	36.1581920903955	36.241610738255	10	0.333366880007088	2	9	5	NaN	2	3	0.058938015802289	1	1	NaN	69	2	6	1	121	221	321	NaN	521	0.197539875516668	2	1	NaN	1277126.119304	NaN	1277127.1028411	1277127.61937102
2	21	0	0	90	36.1581920903955	36.241610738255	8	0.266693504005671	2	3	5	NaN	1	4	0.058938015802289	1	1	NaN	70	2	7	1	121	221	321	NaN	521	0.0104402315337211	1	1	NaN	1277128.6196041	NaN	1277129.6030576	1277130.11961027
2	21	0	0	90	36.1581920903955	36.241610738255	23	0.766743824016303	2	4	6	NaN	1	5	0.058938015802289	1	1	NaN	71	2	8	1	121	221	321	NaN	521	0.395403775619343	1	1	NaN	1277131.3699377	NaN	1277132.3532227	1277132.86988942
2	21	0	0	90	36.1581920903955	36.241610738255	6	0.200020128004253	2	10	1	NaN	2	5	0.058938015802289	1	1	NaN	72	2	9	1	121	221	321	NaN	521	0.237741527380422	2	1	NaN	1277134.5036284	NaN	1277135.4869634	1277136.00352837
2	21	0	0	90	36.1581920903955	36.241610738255	15	0.500050320010632	2	6	5	NaN	1	3	0.058938015802289	1	1	NaN	73	2	10	1	121	221	321	NaN	521	0.230779775651172	1	1	NaN	1277137.0703944	NaN	1277138.0539158	1277138.57044042
2	21	0	0	90	36.1581920903955	36.241610738255	6	0.200020128004253	2	5	4	NaN	1	4	0.058938015802289	1	1	NaN	74	2	11	1	121	221	321	NaN	521	0.0103894274216145	1	1	NaN	1277140.0041151	NaN	1277140.9875143	1277141.50406717
2	21	0	0	90	36.1581920903955	36.241610738255	16	0.533387008011341	2	10	6	NaN	2	3	0.058938015802289	1	1	NaN	75	2	12	1	121	221	321	NaN	521	0.284269575495273	2	1	NaN	1277142.3210378	NaN	1277143.3043823	1277143.82095452
2	21	0	0	90	36.1581920903955	36.241610738255	25	0.83341720001772	2	3	4	NaN	1	3	0.058938015802289	1	1	NaN	76	2	13	1	121	221	321	NaN	521	0.251757475547493	1	1	NaN	1277144.9212654	NaN	1277145.9046599	1277146.42123182
2	21	0	0	90	36.1581920903955	36.241610738255	0	0	1	4	2	NaN	1	4	0.058938015802289	1	1	NaN	77	2	14	1	111	211	311	NaN	511	0.356570383766666	1	1	NaN	1277147.5046812	NaN	1277148.4883392	1277149.00480122
2	21	0	0	90	36.1581920903955	36.241610738255	25	0.83341720001772	2	12	6	NaN	2	4	0.058938015802289	1	1	NaN	78	2	15	1	121	221	321	NaN	521	0.166366227436811	2	1	NaN	1277150.6548179	NaN	1277151.6385616	1277152.15510917
2	21	0	0	90	36.1581920903955	36.241610738255	17	0.56672369601205	2	2	2	NaN	1	3	0.058938015802289	1	1	NaN	79	2	16	1	121	221	321	NaN	521	0.290652223397046	1	1	NaN	1277153.1387557	NaN	1277154.1221313	1277154.63867778
2	21	0	0	90	36.1581920903955	36.241610738255	16	0.533387008011341	2	1	3	NaN	1	3	0.058938015802289	1	1	NaN	80	2	17	1	121	221	321	NaN	521	0.270832527661696	1	1	NaN	1277156.2223599	NaN	1277157.2058163	1277157.72231697
2	21	0	0	90	36.1581920903955	36.241610738255	11	0.366703568007797	2	11	6	NaN	2	4	0.058938015802289	1	1	NaN	81	2	18	1	121	221	321	NaN	521	0.184901527594775	2	1	NaN	1277158.9558665	NaN	1277159.9393794	1277160.45592917
2	21	0	0	90	36.1581920903955	36.241610738255	21	0.700070448014885	2	9	2	NaN	2	4	0.058938015802289	1	1	NaN	82	2	19	1	121	221	321	NaN	521	0.244709375547245	1	0	NaN	1277161.4562143	NaN	1277162.4396627	1277162.95618742
2	21	0	0	90	36.1581920903955	36.241610738255	13	0.433376944009215	2	9	2	NaN	2	4	0.058938015802289	1	1	NaN	83	2	20	1	121	221	321	NaN	521	0.686234927503392	2	1	NaN	1277164.4231549	NaN	1277165.4065982	1277165.92313107
2	21	0	0	90	36.1581920903955	36.241610738255	6	0.200020128004253	2	6	1	NaN	1	3	0.058938015802289	1	1	NaN	84	2	21	1	121	221	321	NaN	521	0.196855427697301	1	1	NaN	1277167.4401559	NaN	1277168.42355	1277168.94009747
2	21	0	0	90	36.1581920903955	36.241610738255	25	0.83341720001772	2	4	4	NaN	1	4	0.058938015802289	1	1	NaN	85	2	22	1	121	221	321	NaN	521	0.343955127522349	1	1	NaN	1277169.9570518	NaN	1277170.9404945	1277171.45699857
2	21	0	0	90	36.1581920903955	36.241610738255	20	0.666733760014176	2	4	2	NaN	1	4	0.058938015802289	1	1	NaN	86	2	23	1	121	221	321	NaN	521	0.309171675471589	2	0	NaN	1277172.6240069	NaN	1277173.6073951	1277174.12392602
2	21	0	0	90	36.1581920903955	36.241610738255	17	0.56672369601205	2	11	2	NaN	2	4	0.058938015802289	1	1	NaN	87	2	24	1	121	221	321	NaN	521	0.259355075424537	2	1	NaN	1277175.257594	NaN	1277176.2409685	1277176.75752562
2	21	0	0	90	36.1581920903955	36.241610738255	12	0.400040256008506	2	7	4	NaN	2	3	0.058938015802289	1	1	NaN	88	2	25	1	121	221	321	NaN	521	0.316317179473117	2	1	NaN	1277177.8245211	NaN	1277178.8079382	1277179.32445122
2	21	0	0	90	36.1581920903955	36.241610738255	24	0.800080512017012	2	12	4	NaN	2	4	0.058938015802289	1	1	NaN	89	2	26	1	121	221	321	NaN	521	0.827333331573755	2	1	NaN	1277180.4580866	NaN	1277181.4415098	1277181.95804427
2	21	0	0	90	36.1581920903955	36.241610738255	16	0.533387008011341	2	2	3	NaN	1	3	0.058938015802289	1	1	NaN	90	2	27	1	121	221	321	NaN	521	0.252896875608712	1	1	NaN	1277183.6084189	NaN	1277184.5917882	1277185.10833842
2	21	0	0	90	36.1581920903955	36.241610738255	15	0.500050320010632	2	7	3	NaN	2	4	0.058938015802289	1	1	NaN	91	2	28	1	121	221	321	NaN	521	0.548999327467754	2	1	NaN	1277186.1919834	NaN	1277187.1753916	1277187.69193137
2	21	0	0	90	36.1581920903955	36.241610738255	22	0.733407136015594	2	7	1	NaN	2	3	0.058938015802289	1	1	NaN	92	2	29	1	121	221	321	NaN	521	0.0104611276183277	2	1	NaN	1277189.3256531	NaN	1277190.3090274	1277190.82558017
2	21	0	0	90	36.1581920903955	36.241610738255	8	0.266693504005671	2	2	4	NaN	1	3	0.058938015802289	1	1	NaN	93	2	30	1	121	221	321	NaN	521	0.337766927434132	2	0	NaN	1277191.6592008	NaN	1277192.6425904	1277193.15913417
2	21	0	0	90	36.1581920903955	36.241610738255	17	0.56672369601205	2	7	4	NaN	2	5	0.058938015802289	1	1	NaN	94	2	31	1	121	221	321	NaN	521	0.272318827454001	2	1	NaN	1277194.69279	NaN	1277195.6762253	1277196.19276317
2	21	0	0	90	36.1581920903955	36.241610738255	0	0	1	12	1	NaN	2	3	0.058938015802289	1	1	NaN	95	2	32	1	111	211	311	NaN	511	0.152957691811025	1	0	NaN	1277197.2764182	NaN	1277198.2598196	1277198.77636591
2	21	0	0	90	36.1581920903955	36.241610738255	15	0.500050320010632	2	12	3	NaN	2	4	0.058938015802289	1	1	NaN	96	2	33	1	121	221	321	NaN	521	0.353241575416178	2	1	NaN	1277200.4600563	NaN	1277201.4434569	1277201.95999452
2	21	0	0	90	36.1581920903955	36.241610738255	24	0.800080512017012	2	2	5	NaN	1	5	0.058938015802289	1	1	NaN	97	2	34	1	121	221	321	NaN	521	0.221923827426508	1	1	NaN	1277203.1269172	NaN	1277204.1103789	1277204.62692857
2	21	0	0	90	36.1581920903955	36.241610738255	7	0.233356816004962	2	4	3	NaN	1	3	0.058938015802289	1	1	NaN	98	2	35	1	121	221	321	NaN	521	0.24778362759389	1	1	NaN	1277205.6772354	NaN	1277206.6606415	1277207.17717927
2	21	0	0	90	36.1581920903955	36.241610738255	16	0.533387008011341	2	3	4	NaN	1	5	0.058938015802289	1	1	NaN	99	2	36	1	121	221	321	NaN	521	0.321327639743686	1	1	NaN	1277208.2439751	NaN	1277209.2275655	1277209.74410216
2	21	0	0	90	36.1581920903955	36.241610738255	6	0.200020128004253	2	9	5	NaN	2	4	0.058938015802289	1	1	NaN	100	2	37	1	121	221	321	NaN	521	0.262689927592874	2	1	NaN	1277210.8944287	NaN	1277211.8778018	1277212.39436627
2	21	0	0	90	36.1581920903955	36.241610738255	20	0.666733760014176	2	3	2	NaN	1	5	0.058938015802289	1	1	NaN	101	2	38	1	121	221	321	NaN	521	0.41510949190706	1	1	NaN	1277213.4780031	NaN	1277214.4614196	1277214.97794981
2	21	0	0	90	36.1581920903955	36.241610738255	18	0.600060384012759	2	12	6	NaN	2	5	0.058938015802289	1	1	NaN	102	2	39	1	121	221	321	NaN	521	0.193403275683522	2	1	NaN	1277216.2116024	NaN	1277217.1949849	1277217.71154712
2	21	0	0	90	36.1581920903955	36.241610738255	6	0.200020128004253	2	1	3	NaN	1	5	0.058938015802289	1	1	NaN	103	2	40	1	121	221	321	NaN	521	0.196852927561849	1	1	NaN	1277218.7285389	NaN	1277219.711934	1277220.22845777
2	21	0	0	90	36.1581920903955	36.241610738255	16	0.533387008011341	2	4	1	NaN	1	5	0.058938015802289	1	1	NaN	104	2	41	1	121	221	321	NaN	521	0.188226727535948	1	1	NaN	1277221.7288222	NaN	1277222.7122191	1277223.22875967
2	21	0	0	90	36.1581920903955	36.241610738255	0	0	1	7	6	NaN	2	5	0.058938015802289	1	1	NaN	105	2	42	1	111	211	311	NaN	511	0.24019913142547	2	1	NaN	1277224.2290635	NaN	1277225.2124719	1277225.72901157
2	21	0	0	90	36.1581920903955	36.241610738255	9	0.300030192006379	2	2	4	NaN	1	5	0.058938015802289	1	1	NaN	106	2	43	1	121	221	321	NaN	521	0.273923127446324	1	1	NaN	1277226.7793341	NaN	1277227.7627102	1277228.27925467
2	21	0	0	90	36.1581920903955	36.241610738255	12	0.400040256008506	2	1	2	NaN	1	3	0.058938015802289	1	1	NaN	107	2	44	1	121	221	321	NaN	521	0.257614575559273	1	1	NaN	1277229.3795665	NaN	1277230.3629729	1277230.87949982
2	21	0	0	90	36.1581920903955	36.241610738255	10	0.333366880007088	2	8	5	NaN	2	5	0.058938015802289	1	1	NaN	108	2	45	1	121	221	321	NaN	521	0.202021791832522	2	1	NaN	1277231.9631543	NaN	1277232.9465369	1277233.46309851
2	21	0	0	90	36.1581920903955	36.241610738255	17	0.56672369601205	2	4	6	NaN	1	3	0.058938015802289	1	1	NaN	109	2	46	1	121	221	321	NaN	521	1.01321222749539	1	1	NaN	1277234.4799581	NaN	1277235.4634869	1277235.98000137
2	21	0	0	90	36.1581920903955	36.241610738255	8	0.266693504005671	2	5	2	NaN	1	5	0.058938015802289	1	1	NaN	110	2	47	1	121	221	321	NaN	521	0.356185227632523	1	1	NaN	1277238.2971017	NaN	1277239.2805004	1277239.79704437
2	21	0	0	90	36.1581920903955	36.241610738255	17	0.56672369601205	2	8	6	NaN	2	4	0.058938015802289	1	1	NaN	111	2	48	1	121	221	321	NaN	521	0.0104594274889678	2	1	NaN	1277241.5303412	NaN	1277242.5141756	1277243.03069987
2	21	0	0	90	36.1581920903955	36.241610738255	12	0.400040256008506	2	6	4	NaN	1	3	0.058938015802289	1	1	NaN	112	2	49	1	121	221	321	NaN	521	0.457533583743498	1	1	NaN	1277244.3475813	NaN	1277245.331087	1277245.84764572
2	21	0	0	90	36.1581920903955	36.241610738255	20	0.666733760014176	2	7	2	NaN	2	4	0.058938015802289	1	1	NaN	113	2	50	1	121	221	321	NaN	521	0.322470075450838	2	1	NaN	1277247.1146379	NaN	1277248.0980459	1277248.61458222
2	21	0	0	90	36.1581920903955	36.241610738255	8	0.266693504005671	2	6	3	NaN	1	3	0.058938015802289	1	1	NaN	114	2	51	1	121	221	321	NaN	521	0.216335227480158	1	1	NaN	1277249.7649059	NaN	1277250.7482954	1277251.26483807
2	21	0	0	90	36.1581920903955	36.241610738255	8	0.266693504005671	2	3	6	NaN	1	4	0.058938015802289	1	1	NaN	115	2	52	1	121	221	321	NaN	521	0.16298787551932	1	1	NaN	1277252.2984534	NaN	1277253.2818949	1277253.79842472
2	21	0	0	90	36.1581920903955	36.241610738255	7	0.233356816004962	2	9	6	NaN	2	4	0.058938015802289	1	1	NaN	116	2	53	1	121	221	321	NaN	521	0.271463027456775	2	1	NaN	1277254.7820471	NaN	1277255.7653475	1277256.28199527
2	21	0	0	90	36.1581920903955	36.241610738255	18	0.600060384012759	2	10	6	NaN	2	3	0.058938015802289	1	1	NaN	117	2	54	1	121	221	321	NaN	521	0.239179027499631	2	1	NaN	1277257.3823128	NaN	1277258.3656276	1277258.88226597
2	21	0	0	90	36.1581920903955	36.241610738255	18	0.600060384012759	2	11	4	NaN	2	3	0.058938015802289	1	1	NaN	118	2	55	1	121	221	321	NaN	521	0.503692247904837	1	0	NaN	1277259.949077	NaN	1277260.9326165	1277261.44920105
2	21	0	0	90	36.1581920903955	36.241610738255	11	0.366703568007797	2	2	5	NaN	1	5	0.058938015802289	1	1	NaN	119	2	56	1	121	221	321	NaN	521	0.0783246273640543	1	1	NaN	1277262.7828417	NaN	1277263.7662839	1277264.28283147
2	21	0	0	90	36.1581920903955	36.241610738255	15	0.500050320010632	2	4	1	NaN	1	5	0.058938015802289	1	1	NaN	120	2	57	1	121	221	321	NaN	521	0.390431171283126	1	1	NaN	1277265.1830882	NaN	1277266.1664811	1277266.68302333
2	21	0	0	90	36.1581920903955	36.241610738255	14	0.466713632009923	2	2	2	NaN	1	4	0.058938015802289	1	1	NaN	121	2	58	1	121	221	321	NaN	521	0.601297375513241	1	1	NaN	1277267.8999984	NaN	1277268.8834043	1277269.39995692
2	21	0	0	90	36.1581920903955	36.241610738255	20	0.666733760014176	2	6	6	NaN	1	5	0.058938015802289	1	1	NaN	122	2	59	1	121	221	321	NaN	521	0.195927875349298	1	1	NaN	1277270.8336369	NaN	1277271.8170255	1277272.33358102
2	21	0	0	90	36.1581920903955	36.241610738255	9	0.300030192006379	2	4	3	NaN	1	4	0.058938015802289	1	1	NaN	123	2	60	1	121	221	321	NaN	521	0.134616335621104	1	1	NaN	1277273.3505556	NaN	1277274.3339195	1277274.85049996
2	21	0	0	90	36.1581920903955	36.241610738255	12	0.400040256008506	2	3	4	NaN	1	5	0.058938015802289	1	1	NaN	124	2	61	1	121	221	321	NaN	521	0.200439179781824	1	1	NaN	1277276.3008182	NaN	1277277.2842498	1277277.80078882
2	21	0	0	90	36.1581920903955	36.241610738255	6	0.200020128004253	2	2	4	NaN	1	3	0.058938015802289	1	1	NaN	125	2	62	1	121	221	321	NaN	521	0.187112127430737	1	1	NaN	1277278.8176489	NaN	1277279.8011585	1277280.31769447
2	21	0	0	90	36.1581920903955	36.241610738255	6	0.200020128004253	2	6	1	NaN	1	4	0.058938015802289	1	1	NaN	126	2	63	1	121	221	321	NaN	521	0.278884679777548	1	1	NaN	1277281.3346666	NaN	1277282.318071	1277282.83461702
2	21	0	0	90	36.1581920903955	36.241610738255	22	0.733407136015594	2	8	5	NaN	2	4	0.058938015802289	1	1	NaN	127	3	1	1	121	221	321	NaN	521	0.872701887739822	2	1	NaN	1277286.4684651	NaN	1277287.4519639	1277287.96845031
2	21	0	0	90	36.1581920903955	36.241610738255	24	0.800080512017012	2	5	3	NaN	1	3	0.058938015802289	1	1	NaN	128	3	2	1	121	221	321	NaN	521	0.260208487743512	1	1	NaN	1277290.1688434	NaN	1277291.1522886	1277291.66881181
2	21	0	0	90	36.1581920903955	36.241610738255	9	0.300030192006379	2	11	5	NaN	2	4	0.058938015802289	1	1	NaN	129	3	3	1	121	221	321	NaN	521	0.484599991934374	1	0	NaN	1277292.7524609	NaN	1277293.7358523	1277294.25240041
2	21	0	0	90	36.1581920903955	36.241610738255	19	0.633397072013468	2	1	1	NaN	1	3	0.058938015802289	1	1	NaN	130	3	4	1	121	221	321	NaN	521	0.251601979602128	1	1	NaN	1277295.5694074	NaN	1277296.5528078	1277297.06935962
2	21	0	0	90	36.1581920903955	36.241610738255	23	0.766743824016303	2	5	2	NaN	1	5	0.058938015802289	1	1	NaN	131	3	5	1	121	221	321	NaN	521	0.108207979705185	1	1	NaN	1277298.1529925	NaN	1277299.1363593	1277299.65293462
2	21	0	0	90	36.1581920903955	36.241610738255	25	0.83341720001772	2	7	1	NaN	2	3	0.058938015802289	1	1	NaN	132	3	6	1	121	221	321	NaN	521	0.21900383150205	2	1	NaN	1277300.5865455	NaN	1277301.5699703	1277302.08649437
2	21	0	0	90	36.1581920903955	36.241610738255	23	0.766743824016303	2	4	1	NaN	1	5	0.058938015802289	1	1	NaN	133	3	7	1	121	221	321	NaN	521	0.0103795798495412	1	1	NaN	1277303.136812	NaN	1277304.120243	1277304.63675772
2	21	0	0	90	36.1581920903955	36.241610738255	14	0.466713632009923	2	5	5	NaN	1	3	0.058938015802289	1	1	NaN	134	3	8	1	121	221	321	NaN	521	0.0103540918789804	1	1	NaN	1277306.0037362	NaN	1277306.9871715	1277307.50370701
2	21	0	0	90	36.1581920903955	36.241610738255	16	0.533387008011341	2	11	6	NaN	2	5	0.058938015802289	1	1	NaN	135	3	9	1	121	221	321	NaN	521	0.256733379559591	2	1	NaN	1277309.4207495	NaN	1277310.4041406	1277310.92070722
2	21	0	0	90	36.1581920903955	36.241610738255	21	0.700070448014885	2	1	1	NaN	1	3	0.058938015802289	1	1	NaN	136	3	10	1	121	221	321	NaN	521	0.0104729274753481	1	1	NaN	1277312.4543913	NaN	1277313.4378196	1277313.95433477
2	21	0	0	90	36.1581920903955	36.241610738255	18	0.600060384012759	2	10	3	NaN	2	5	0.058938015802289	1	1	NaN	137	3	11	1	121	221	321	NaN	521	0.0103953797370195	2	1	NaN	1277315.3046563	NaN	1277316.2880704	1277316.80461882
2	21	0	0	90	36.1581920903955	36.241610738255	17	0.56672369601205	2	12	3	NaN	2	5	0.058938015802289	1	1	NaN	138	3	12	1	121	221	321	NaN	521	0.242308979621157	2	1	NaN	1277318.1549361	NaN	1277319.1383722	1277319.65489732
2	21	0	0	90	36.1581920903955	36.241610738255	17	0.56672369601205	2	3	1	NaN	1	3	0.058938015802289	1	1	NaN	139	3	13	1	121	221	321	NaN	521	0.331844831584021	1	1	NaN	1277320.7218682	NaN	1277321.7052668	1277322.22181307
2	21	0	0	90	36.1581920903955	36.241610738255	10	0.333366880007088	2	10	1	NaN	2	4	0.058938015802289	1	1	NaN	140	3	14	1	121	221	321	NaN	521	0.138423523399979	2	1	NaN	1277323.9388577	NaN	1277324.9222949	1277325.43879988
2	21	0	0	90	36.1581920903955	36.241610738255	15	0.500050320010632	2	1	2	NaN	1	4	0.058938015802289	1	1	NaN	141	3	15	1	121	221	321	NaN	521	0.250907427631319	1	1	NaN	1277326.9224477	NaN	1277327.9058618	1277328.42241917
2	21	0	0	90	36.1581920903955	36.241610738255	13	0.433376944009215	2	12	5	NaN	2	3	0.058938015802289	1	1	NaN	142	3	16	1	121	221	321	NaN	521	0.010438927449286	2	1	NaN	1277329.9727092	NaN	1277330.9561848	1277331.47271577
2	21	0	0	90	36.1581920903955	36.241610738255	25	0.83341720001772	2	9	3	NaN	2	4	0.058938015802289	1	1	NaN	143	3	17	1	121	221	321	NaN	521	0.131226279772818	2	1	NaN	1277332.9063808	NaN	1277333.8897973	1277334.40633712
2	21	0	0	90	36.1581920903955	36.241610738255	24	0.800080512017012	2	7	5	NaN	2	5	0.058938015802289	1	1	NaN	144	3	18	1	121	221	321	NaN	521	0.0103380437940359	2	1	NaN	1277335.3566185	NaN	1277336.3400584	1277336.85659336
2	21	0	0	90	36.1581920903955	36.241610738255	20	0.666733760014176	2	9	4	NaN	2	3	0.058938015802289	1	1	NaN	145	3	19	1	121	221	321	NaN	521	0.273682283703238	2	1	NaN	1277338.1235538	NaN	1277339.106989	1277339.62352972
2	21	0	0	90	36.1581920903955	36.241610738255	6	0.200020128004253	2	1	1	NaN	1	3	0.058938015802289	1	1	NaN	146	3	20	1	121	221	321	NaN	521	0.633472475456074	1	1	NaN	1277340.7237385	NaN	1277341.7072461	1277342.22378232
2	21	0	0	90	36.1581920903955	36.241610738255	16	0.533387008011341	2	12	5	NaN	2	4	0.058938015802289	1	1	NaN	147	3	21	1	121	221	321	NaN	521	0.0103916274383664	2	1	NaN	1277346.6410582	NaN	1277347.6244883	1277348.14101797
2	21	0	0	90	36.1581920903955	36.241610738255	19	0.633397072013468	2	11	5	NaN	2	3	0.058938015802289	1	1	NaN	148	3	22	1	121	221	321	NaN	521	0.346548127476126	2	1	NaN	1277349.4746631	NaN	1277350.45811	1277350.97463807
2	21	0	0	90	36.1581920903955	36.241610738255	22	0.733407136015594	2	10	6	NaN	2	4	0.058938015802289	1	1	NaN	149	3	23	1	121	221	321	NaN	521	0.324594775680453	2	1	NaN	1277352.625019	NaN	1277353.6083083	1277354.12493972
2	21	0	0	90	36.1581920903955	36.241610738255	17	0.56672369601205	2	7	3	NaN	2	4	0.058938015802289	1	1	NaN	150	3	24	1	121	221	321	NaN	521	0.302873575361446	2	1	NaN	1277355.758623	NaN	1277356.7420414	1277357.25858692
2	21	0	0	90	36.1581920903955	36.241610738255	23	0.766743824016303	2	3	4	NaN	1	3	0.058938015802289	1	1	NaN	151	3	25	1	121	221	321	NaN	521	0.317701079649851	1	1	NaN	1277358.3755666	NaN	1277359.3589714	1277359.87551012
2	21	0	0	90	36.1581920903955	36.241610738255	0	0	1	9	3	NaN	2	4	0.058938015802289	1	1	NaN	152	3	26	1	111	211	311	NaN	511	0.0104041756130755	2	1	NaN	1277361.5425292	NaN	1277362.5259522	1277363.04249052
2	21	0	0	90	36.1581920903955	36.241610738255	16	0.533387008011341	2	6	2	NaN	1	4	0.058938015802289	1	1	NaN	153	3	27	1	121	221	321	NaN	521	0.139818479772657	1	1	NaN	1277364.4094592	NaN	1277365.392878	1277365.90943922
2	21	0	0	90	36.1581920903955	36.241610738255	20	0.666733760014176	2	1	1	NaN	1	3	0.058938015802289	1	1	NaN	154	3	28	1	121	221	321	NaN	521	0.283825075486675	1	1	NaN	1277367.4097845	NaN	1277368.3933342	1277368.90973322
2	21	0	0	90	36.1581920903955	36.241610738255	25	0.83341720001772	2	10	3	NaN	2	5	0.058938015802289	1	1	NaN	155	3	29	1	121	221	321	NaN	521	0.0864169273991138	2	1	NaN	1277370.5267409	NaN	1277371.5101501	1277372.02670467
2	21	0	0	90	36.1581920903955	36.241610738255	22	0.733407136015594	2	11	3	NaN	2	4	0.058938015802289	1	1	NaN	156	3	30	1	121	221	321	NaN	521	0.382625023601577	2	1	NaN	1277372.9269839	NaN	1277373.9104014	1277374.42693628
2	21	0	0	90	36.1581920903955	36.241610738255	7	0.233356816004962	2	10	6	NaN	2	5	0.058938015802289	1	1	NaN	157	3	31	1	121	221	321	NaN	521	0.450368427671492	2	1	NaN	1277375.6272642	NaN	1277376.6106701	1277377.12720027
2	21	0	0	90	36.1581920903955	36.241610738255	17	0.56672369601205	2	3	3	NaN	1	5	0.058938015802289	1	1	NaN	158	3	32	1	121	221	321	NaN	521	0.258983827428892	1	1	NaN	1277378.394221	NaN	1277379.3776253	1277379.89413697
2	21	0	0	90	36.1581920903955	36.241610738255	8	0.266693504005671	2	4	2	NaN	1	4	0.058938015802289	1	1	NaN	159	3	33	1	121	221	321	NaN	521	0.331439579604194	1	1	NaN	1277380.9777731	NaN	1277381.9611797	1277382.47773142
2	21	0	0	90	36.1581920903955	36.241610738255	11	0.366703568007797	2	1	3	NaN	1	5	0.058938015802289	1	1	NaN	160	3	34	1	121	221	321	NaN	521	0.521289127413183	2	0	NaN	1277383.628055	NaN	1277384.6114487	1277385.12799077
2	21	0	0	90	36.1581920903955	36.241610738255	24	0.800080512017012	2	11	4	NaN	2	3	0.058938015802289	1	1	NaN	161	3	35	1	121	221	321	NaN	521	0.319853671360761	2	1	NaN	1277386.4615453	NaN	1277387.4450544	1277387.96159743
2	21	0	0	90	36.1581920903955	36.241610738255	14	0.466713632009923	2	7	3	NaN	2	3	0.058938015802289	1	1	NaN	162	3	36	1	121	221	321	NaN	521	0.389663827605546	2	1	NaN	1277389.1118948	NaN	1277390.0953035	1277390.61185507
2	21	0	0	90	36.1581920903955	36.241610738255	14	0.466713632009923	2	6	3	NaN	1	4	0.058938015802289	1	1	NaN	163	3	37	1	121	221	321	NaN	521	0.240303375758231	1	1	NaN	1277391.8288424	NaN	1277392.8122598	1277393.32878542
2	21	0	0	90	36.1581920903955	36.241610738255	6	0.200020128004253	2	12	1	NaN	2	4	0.058938015802289	1	1	NaN	164	3	38	1	121	221	321	NaN	521	0.353681275621057	2	1	NaN	1277394.3957735	NaN	1277395.3791535	1277395.89572952
2	21	0	0	90	36.1581920903955	36.241610738255	23	0.766743824016303	2	6	5	NaN	1	3	0.058938015802289	1	1	NaN	165	3	39	1	121	221	321	NaN	521	0.294547179713845	2	0	NaN	1277397.0627101	NaN	1277398.0461157	1277398.56263722
2	21	0	0	90	36.1581920903955	36.241610738255	11	0.366703568007797	2	6	6	NaN	1	4	0.058938015802289	1	1	NaN	166	3	40	1	121	221	321	NaN	521	0.334117727354169	1	1	NaN	1277399.6796185	NaN	1277400.6630494	1277401.17956217
2	21	0	0	90	36.1581920903955	36.241610738255	16	0.533387008011341	2	6	2	NaN	1	3	0.058938015802289	1	1	NaN	167	3	41	1	121	221	321	NaN	521	0.299812527373433	1	1	NaN	1277402.3298745	NaN	1277403.3133017	1277403.82982727
2	21	0	0	90	36.1581920903955	36.241610738255	21	0.700070448014885	2	7	1	NaN	2	4	0.058938015802289	1	1	NaN	168	3	42	1	121	221	321	NaN	521	0.434618627419695	2	1	NaN	1277404.9468045	NaN	1277405.9302194	1277406.44674197
2	21	0	0	90	36.1581920903955	36.241610738255	15	0.500050320010632	2	11	2	NaN	2	5	0.058938015802289	1	1	NaN	169	3	43	1	121	221	321	NaN	521	0.476274279644713	2	1	NaN	1277407.6970692	NaN	1277408.6804427	1277409.19701832
2	21	0	0	90	36.1581920903955	36.241610738255	7	0.233356816004962	2	3	5	NaN	1	4	0.058938015802289	1	1	NaN	170	3	44	1	121	221	321	NaN	521	0.227893875446171	1	1	NaN	1277410.4973512	NaN	1277411.4807797	1277411.99729122
2	21	0	0	90	36.1581920903955	36.241610738255	18	0.600060384012759	2	5	1	NaN	1	5	0.058938015802289	1	1	NaN	171	3	45	1	121	221	321	NaN	521	0.246048327535391	1	1	NaN	1277413.0476137	NaN	1277414.0309981	1277414.54753527
2	21	0	0	90	36.1581920903955	36.241610738255	6	0.200020128004253	2	3	6	NaN	1	3	0.058938015802289	1	1	NaN	172	3	46	1	121	221	321	NaN	521	0.208912775386125	1	1	NaN	1277415.7644121	NaN	1277416.7479323	1277417.26448672
2	21	0	0	90	36.1581920903955	36.241610738255	19	0.633397072013468	2	1	6	NaN	1	4	0.058938015802289	1	1	NaN	173	3	47	1	121	221	321	NaN	521	0.179433439858258	1	1	NaN	1277418.2981056	NaN	1277419.2815011	1277419.79805786
2	21	0	0	90	36.1581920903955	36.241610738255	8	0.266693504005671	2	9	3	NaN	2	4	0.058938015802289	1	1	NaN	174	3	48	1	121	221	321	NaN	521	0.2469223276712	2	1	NaN	1277420.7983588	NaN	1277421.7817471	1277422.29830057
2	21	0	0	90	36.1581920903955	36.241610738255	21	0.700070448014885	2	3	1	NaN	1	4	0.058938015802289	1	1	NaN	175	3	49	1	121	221	321	NaN	521	0.240246027708054	1	1	NaN	1277423.3652884	NaN	1277424.3486956	1277424.86521447
2	21	0	0	90	36.1581920903955	36.241610738255	18	0.600060384012759	2	9	6	NaN	2	3	0.058938015802289	1	1	NaN	176	3	50	1	121	221	321	NaN	521	0.50876659178175	2	1	NaN	1277426.2487672	NaN	1277427.2323095	1277427.74884861
2	21	0	0	90	36.1581920903955	36.241610738255	10	0.333366880007088	2	9	6	NaN	2	5	0.058938015802289	1	1	NaN	177	3	51	1	121	221	321	NaN	521	0.370830331696197	2	1	NaN	1277429.0825132	NaN	1277430.0659116	1277430.58245847
2	21	0	0	90	36.1581920903955	36.241610738255	12	0.400040256008506	2	2	5	NaN	1	5	0.058938015802289	1	1	NaN	178	3	52	1	121	221	321	NaN	521	0.179212395800278	1	1	NaN	1277432.2661198	NaN	1277433.2495348	1277433.7661229
2	21	0	0	90	36.1581920903955	36.241610738255	11	0.366703568007797	2	1	3	NaN	1	5	0.058938015802289	1	1	NaN	179	3	53	1	121	221	321	NaN	521	0.150977675570175	1	1	NaN	1277434.7664204	NaN	1277435.7497864	1277436.26633782
2	21	0	0	90	36.1581920903955	36.241610738255	13	0.433376944009215	2	9	5	NaN	2	4	0.058938015802289	1	1	NaN	180	3	54	1	121	221	321	NaN	521	0.284351627342403	2	1	NaN	1277437.2333283	NaN	1277438.2167127	1277438.73324757
2	21	0	0	90	36.1581920903955	36.241610738255	13	0.433376944009215	2	5	4	NaN	1	3	0.058938015802289	1	1	NaN	181	3	55	1	121	221	321	NaN	521	0.403382175369188	1	1	NaN	1277439.8502454	NaN	1277440.8335979	1277441.35016712
2	21	0	0	90	36.1581920903955	36.241610738255	25	0.83341720001772	2	1	4	NaN	1	5	0.058938015802289	1	1	NaN	182	3	56	1	121	221	321	NaN	521	0.285812023328617	1	1	NaN	1277442.5838151	NaN	1277443.5672495	1277444.08377898
2	21	0	0	90	36.1581920903955	36.241610738255	18	0.600060384012759	2	1	6	NaN	1	4	0.058938015802289	1	1	NaN	183	3	57	1	121	221	321	NaN	521	0.188683975487947	1	1	NaN	1277445.2007629	NaN	1277446.184186	1277446.70069332
2	21	0	0	90	36.1581920903955	36.241610738255	0	0	1	1	4	NaN	1	5	0.058938015802289	1	1	NaN	184	3	58	1	111	211	311	NaN	511	0.0104349316097796	1	1	NaN	1277447.7176674	NaN	1277448.7010714	1277449.21762207
2	21	0	0	90	36.1581920903955	36.241610738255	18	0.600060384012759	2	1	5	NaN	1	4	0.058938015802289	1	1	NaN	185	3	59	1	121	221	321	NaN	521	0.290083979489282	1	1	NaN	1277450.0512809	NaN	1277451.0346823	1277451.55118242
2	21	0	0	90	36.1581920903955	36.241610738255	21	0.700070448014885	2	6	2	NaN	1	5	0.058938015802289	1	1	NaN	186	3	60	1	121	221	321	NaN	521	0.241880395915359	1	1	NaN	1277452.65149	NaN	1277453.6348952	1277454.1514405
2	21	0	0	90	36.1581920903955	36.241610738255	19	0.633397072013468	2	11	5	NaN	2	4	0.058938015802289	1	1	NaN	187	3	61	1	121	221	321	NaN	521	0.379320279695094	1	0	NaN	1277455.2182691	NaN	1277456.2018121	1277456.71835452
2	21	0	0	90	36.1581920903955	36.241610738255	13	0.433376944009215	2	7	2	NaN	2	5	0.058938015802289	1	1	NaN	188	3	62	1	121	221	321	NaN	521	0.263141875388101	2	1	NaN	1277457.9186753	NaN	1277458.9020552	1277459.41861282
2	21	0	0	90	36.1581920903955	36.241610738255	19	0.633397072013468	2	10	3	NaN	2	4	0.058938015802289	1	1	NaN	189	3	63	1	121	221	321	NaN	521	0.311562543734908	2	1	NaN	1277460.5022641	NaN	1277461.4856692	1277462.00221326
2	21	0	0	90	36.1581920903955	36.241610738255	25	0.83341720001772	2	3	6	NaN	1	5	0.058938015802289	1	1	NaN	190	4	1	1	121	221	321	NaN	521	0.127744575496763	1	1	NaN	1277499.4057523	NaN	1277500.3894856	1277500.90602492
2	21	0	0	90	36.1581920903955	36.241610738255	15	0.500050320010632	2	4	6	NaN	1	4	0.058938015802289	1	1	NaN	191	4	2	1	121	221	321	NaN	521	0.909965127473697	1	1	NaN	1277501.8396746	NaN	1277502.8230549	1277503.33960067
2	21	0	0	90	36.1581920903955	36.241610738255	19	0.633397072013468	2	12	2	NaN	2	5	0.058938015802289	1	1	NaN	192	4	3	1	121	221	321	NaN	521	0.33411432756111	2	1	NaN	1277505.223315	NaN	1277506.206719	1277506.72326437
2	21	0	0	90	36.1581920903955	36.241610738255	17	0.56672369601205	2	10	2	NaN	2	5	0.058938015802289	1	1	NaN	193	4	4	1	121	221	321	NaN	521	0.0104361712001264	2	1	NaN	1277507.8736091	NaN	1277508.8569955	1277509.37351053
2	21	0	0	90	36.1581920903955	36.241610738255	7	0.233356816004962	2	9	2	NaN	2	4	0.058938015802289	1	1	NaN	194	4	5	1	121	221	321	NaN	521	0.366383171407506	2	1	NaN	1277510.2071531	NaN	1277511.1905445	1277511.70708333
2	21	0	0	90	36.1581920903955	36.241610738255	10	0.333366880007088	2	12	5	NaN	2	3	0.058938015802289	1	1	NaN	195	4	6	1	121	221	321	NaN	521	0.338508375687525	2	1	NaN	1277512.9074291	NaN	1277513.8908106	1277514.40734282
2	21	0	0	90	36.1581920903955	36.241610738255	7	0.233356816004962	2	12	4	NaN	2	5	0.058938015802289	1	1	NaN	196	4	7	1	121	221	321	NaN	521	0.247482327278703	2	1	NaN	1277515.574329	NaN	1277516.5577159	1277517.07426847
2	21	0	0	90	36.1581920903955	36.241610738255	14	0.466713632009923	2	12	6	NaN	2	3	0.058938015802289	1	1	NaN	197	4	8	1	121	221	321	NaN	521	0.218835500068963	2	1	NaN	1277518.4746048	NaN	1277519.4580505	1277519.9745805
2	21	0	0	90	36.1581920903955	36.241610738255	8	0.266693504005671	2	5	4	NaN	1	4	0.058938015802289	1	1	NaN	198	4	9	1	121	221	321	NaN	521	0.276937675662339	1	1	NaN	1277521.0248675	NaN	1277522.0082992	1277522.52480952
2	21	0	0	90	36.1581920903955	36.241610738255	13	0.433376944009215	2	8	2	NaN	2	3	0.058938015802289	1	1	NaN	199	4	10	1	121	221	321	NaN	521	0.372276427457109	2	1	NaN	1277523.6250099	NaN	1277524.6085289	1277525.12506517
2	21	0	0	90	36.1581920903955	36.241610738255	18	0.600060384012759	2	3	5	NaN	1	3	0.058938015802289	1	1	NaN	200	4	11	1	121	221	321	NaN	521	0.0560610273387283	1	1	NaN	1277526.3253786	NaN	1277527.30876	1277527.82533387
2	21	0	0	90	36.1581920903955	36.241610738255	8	0.266693504005671	2	7	2	NaN	2	3	0.058938015802289	1	1	NaN	201	4	12	1	121	221	321	NaN	521	0.289510475704446	2	1	NaN	1277528.6922684	NaN	1277529.6756862	1277530.19222422
2	21	0	0	90	36.1581920903955	36.241610738255	12	0.400040256008506	2	10	2	NaN	2	3	0.058938015802289	1	1	NaN	202	4	13	1	121	221	321	NaN	521	0.152592475526035	2	1	NaN	1277531.292537	NaN	1277532.2759717	1277532.79248482
2	21	0	0	90	36.1581920903955	36.241610738255	20	0.666733760014176	2	3	3	NaN	1	4	0.058938015802289	1	1	NaN	203	4	14	1	121	221	321	NaN	521	0.0744634275324643	1	1	NaN	1277534.0428106	NaN	1277535.0262278	1277535.54276217
2	21	0	0	90	36.1581920903955	36.241610738255	10	0.333366880007088	2	11	6	NaN	2	3	0.058938015802289	1	1	NaN	204	4	15	1	121	221	321	NaN	521	0.0992386958096176	2	1	NaN	1277536.4263661	NaN	1277537.4097788	1277537.9263346
2	21	0	0	90	36.1581920903955	36.241610738255	13	0.433376944009215	2	10	5	NaN	2	4	0.058938015802289	1	1	NaN	205	4	16	1	121	221	321	NaN	521	0.290093375602737	2	1	NaN	1277538.8431934	NaN	1277539.8267029	1277540.34322742
2	21	0	0	90	36.1581920903955	36.241610738255	16	0.533387008011341	2	2	5	NaN	1	5	0.058938015802289	1	1	NaN	206	4	17	1	121	221	321	NaN	521	0.311292279744521	1	1	NaN	1277541.9102633	NaN	1277542.8936541	1277543.41019802
2	21	0	0	90	36.1581920903955	36.241610738255	8	0.266693504005671	2	10	3	NaN	2	4	0.058938015802289	1	1	NaN	207	4	18	1	121	221	321	NaN	521	0.366615483537316	2	1	NaN	1277544.5271497	NaN	1277545.510555	1277546.02711552
2	21	0	0	90	36.1581920903955	36.241610738255	9	0.300030192006379	2	12	3	NaN	2	5	0.058938015802289	1	1	NaN	208	4	19	1	121	221	321	NaN	521	0.378804727457464	2	1	NaN	1277547.2108819	NaN	1277548.1941743	1277548.71071417
2	21	0	0	90	36.1581920903955	36.241610738255	11	0.366703568007797	2	12	3	NaN	2	5	0.058938015802289	1	1	NaN	209	4	20	1	121	221	321	NaN	521	0.150494875619188	2	1	NaN	1277549.9110292	NaN	1277550.8944134	1277551.41099382
2	21	0	0	90	36.1581920903955	36.241610738255	9	0.300030192006379	2	5	2	NaN	1	3	0.058938015802289	1	1	NaN	210	4	21	1	121	221	321	NaN	521	0.379611627431586	2	0	NaN	1277552.3779488	NaN	1277553.3613501	1277553.87789027
2	21	0	0	90	36.1581920903955	36.241610738255	9	0.300030192006379	2	1	5	NaN	1	5	0.058938015802289	1	1	NaN	211	4	22	1	121	221	321	NaN	521	0.295372075634077	1	1	NaN	1277555.0780978	NaN	1277556.061611	1277556.57815522
2	21	0	0	90	36.1581920903955	36.241610738255	18	0.600060384012759	2	6	6	NaN	1	5	0.058938015802289	1	1	NaN	212	4	23	1	121	221	321	NaN	521	0.0104955232236534	1	1	NaN	1277558.195164	NaN	1277559.1785809	1277559.69512268
2	21	0	0	90	36.1581920903955	36.241610738255	18	0.600060384012759	2	6	1	NaN	1	5	0.058938015802289	1	1	NaN	213	4	24	1	121	221	321	NaN	521	0.0104902235325426	1	1	NaN	1277560.5286598	NaN	1277561.512163	1277562.02868578
2	21	0	0	90	36.1581920903955	36.241610738255	22	0.733407136015594	2	4	5	NaN	1	4	0.058938015802289	1	1	NaN	214	4	25	1	121	221	321	NaN	521	0.234788991743699	1	1	NaN	1277563.379006	NaN	1277564.3624337	1277564.87897541
2	21	0	0	90	36.1581920903955	36.241610738255	23	0.766743824016303	2	12	4	NaN	2	5	0.058938015802289	1	1	NaN	215	4	26	1	121	221	321	NaN	521	0.243878527311608	2	1	NaN	1277565.9459473	NaN	1277566.9293503	1277567.44588957
2	21	0	0	90	36.1581920903955	36.241610738255	13	0.433376944009215	2	6	2	NaN	1	4	0.058938015802289	1	1	NaN	216	4	27	1	121	221	321	NaN	521	0.236741879722103	1	1	NaN	1277568.5128764	NaN	1277569.4962658	1277570.01281112
2	21	0	0	90	36.1581920903955	36.241610738255	20	0.666733760014176	2	7	6	NaN	2	5	0.058938015802289	1	1	NaN	217	4	28	1	121	221	321	NaN	521	0.278882127488032	2	1	NaN	1277571.4631481	NaN	1277572.4465978	1277572.96309447
2	21	0	0	90	36.1581920903955	36.241610738255	18	0.600060384012759	2	9	4	NaN	2	3	0.058938015802289	1	1	NaN	218	4	29	1	121	221	321	NaN	521	0.23845312744379	2	1	NaN	1277574.063277	NaN	1277575.0467991	1277575.56335127
2	21	0	0	90	36.1581920903955	36.241610738255	25	0.83341720001772	2	12	2	NaN	2	4	0.058938015802289	1	1	NaN	219	4	30	1	121	221	321	NaN	521	0.26146842748858	2	1	NaN	1277577.0803319	NaN	1277578.0637873	1277578.58032007
2	21	0	0	90	36.1581920903955	36.241610738255	21	0.700070448014885	2	12	6	NaN	2	3	0.058938015802289	1	1	NaN	220	4	31	1	121	221	321	NaN	521	0.0103200876619667	2	1	NaN	1277579.6638704	NaN	1277580.6473385	1277581.16390251
2	21	0	0	90	36.1581920903955	36.241610738255	12	0.400040256008506	2	2	1	NaN	1	3	0.058938015802289	1	1	NaN	221	4	32	1	121	221	321	NaN	521	0.0104077274445444	1	1	NaN	1277581.9974998	NaN	1277582.9809172	1277583.49745727
2	21	0	0	90	36.1581920903955	36.241610738255	23	0.766743824016303	2	7	5	NaN	2	5	0.058938015802289	1	1	NaN	222	4	33	1	121	221	321	NaN	521	0.143900375580415	2	1	NaN	1277584.7977761	NaN	1277585.7812279	1277586.29773052
2	21	0	0	90	36.1581920903955	36.241610738255	11	0.366703568007797	2	2	2	NaN	1	5	0.058938015802289	1	1	NaN	223	4	34	1	121	221	321	NaN	521	0.0103807796258479	1	1	NaN	1277587.247895	NaN	1277588.2314485	1277588.74798672
2	21	0	0	90	36.1581920903955	36.241610738255	17	0.56672369601205	2	12	2	NaN	2	4	0.058938015802289	1	1	NaN	224	4	35	1	121	221	321	NaN	521	0.223876127507538	2	1	NaN	1277589.5814707	NaN	1277590.5649948	1277591.08153997
2	21	0	0	90	36.1581920903955	36.241610738255	19	0.633397072013468	2	2	6	NaN	1	5	0.058938015802289	1	1	NaN	225	4	36	1	121	221	321	NaN	521	0.0982399275526404	1	1	NaN	1277592.1151935	NaN	1277593.0985613	1277593.61512577
2	21	0	0	90	36.1581920903955	36.241610738255	18	0.600060384012759	2	7	3	NaN	2	3	0.058938015802289	1	1	NaN	226	4	37	1	121	221	321	NaN	521	0.113334723515436	1	0	NaN	1277594.5322089	NaN	1277595.5154818	1277596.03202968
2	21	0	0	90	36.1581920903955	36.241610738255	0	0	1	5	3	NaN	1	5	0.058938015802289	1	1	NaN	227	4	38	1	111	211	311	NaN	511	0.0103994272649288	1	1	NaN	1277596.9655433	NaN	1277597.9490741	1277598.46561377
2	21	0	0	90	36.1581920903955	36.241610738255	24	0.800080512017012	2	9	4	NaN	2	5	0.058938015802289	1	1	NaN	228	4	39	1	121	221	321	NaN	521	0.138634027447551	1	0	NaN	1277599.2992266	NaN	1277600.2826266	1277600.79915807
2	21	0	0	90	36.1581920903955	36.241610738255	12	0.400040256008506	2	11	1	NaN	2	5	0.058938015802289	1	1	NaN	229	4	40	1	121	221	321	NaN	521	0.28817057562992	2	1	NaN	1277601.7494593	NaN	1277602.7329442	1277603.24940772
2	21	0	0	90	36.1581920903955	36.241610738255	12	0.400040256008506	2	6	3	NaN	1	3	0.058938015802289	1	1	NaN	230	4	41	1	121	221	321	NaN	521	0.104035927448422	1	1	NaN	1277604.3498163	NaN	1277605.3331178	1277605.84965737
2	21	0	0	90	36.1581920903955	36.241610738255	6	0.200020128004253	2	4	4	NaN	1	5	0.058938015802289	1	1	NaN	231	4	42	1	121	221	321	NaN	521	0.214224683819339	2	0	NaN	1277606.7833089	NaN	1277607.766678	1277608.28323912
2	21	0	0	90	36.1581920903955	36.241610738255	12	0.400040256008506	2	1	6	NaN	1	4	0.058938015802289	1	1	NaN	232	4	43	1	121	221	321	NaN	521	0.168980527436361	1	1	NaN	1277609.3168762	NaN	1277610.3001603	1277610.81683047
2	21	0	0	90	36.1581920903955	36.241610738255	7	0.233356816004962	2	2	5	NaN	1	5	0.058938015802289	1	1	NaN	233	4	44	1	121	221	321	NaN	521	0.213093775557354	1	1	NaN	1277611.8004514	NaN	1277612.7838388	1277613.30038622
2	21	0	0	90	36.1581920903955	36.241610738255	9	0.300030192006379	2	10	2	NaN	2	5	0.058938015802289	1	1	NaN	234	4	45	1	121	221	321	NaN	521	0.0103951273486018	2	1	NaN	1277614.7840057	NaN	1277615.7674505	1277616.28401097
2	21	0	0	90	36.1581920903955	36.241610738255	24	0.800080512017012	2	7	1	NaN	2	5	0.058938015802289	1	1	NaN	235	4	46	1	121	221	321	NaN	521	0.738899027695879	2	1	NaN	1277617.6510326	NaN	1277618.6344288	1277619.15096087
2	21	0	0	90	36.1581920903955	36.241610738255	0	0	1	10	6	NaN	2	4	0.058938015802289	1	1	NaN	236	4	47	1	111	211	311	NaN	511	0.229248891817406	2	1	NaN	1277621.1845884	NaN	1277622.1680846	1277622.68465431
2	21	0	0	90	36.1581920903955	36.241610738255	16	0.533387008011341	2	3	5	NaN	1	3	0.058938015802289	1	1	NaN	237	4	48	1	121	221	321	NaN	521	0.23835942754522	1	1	NaN	1277623.7349576	NaN	1277624.7183615	1277625.23489237
2	21	0	0	90	36.1581920903955	36.241610738255	15	0.500050320010632	2	8	1	NaN	2	5	0.058938015802289	1	1	NaN	238	4	49	1	121	221	321	NaN	521	0.408737387740985	2	1	NaN	1277626.2851988	NaN	1277627.2686075	1277627.78514601
2	21	0	0	90	36.1581920903955	36.241610738255	25	0.83341720001772	2	9	6	NaN	2	3	0.058938015802289	1	1	NaN	239	4	50	1	121	221	321	NaN	521	0.290874427417293	1	0	NaN	1277629.0188154	NaN	1277630.0021944	1277630.51874337
2	21	0	0	90	36.1581920903955	36.241610738255	0	0	1	2	1	NaN	1	4	0.058938015802289	1	1	NaN	240	4	51	1	111	211	311	NaN	511	0.297789627453312	1	1	NaN	1277631.6357446	NaN	1277632.6191215	1277633.13566657
2	21	0	0	90	36.1581920903955	36.241610738255	11	0.366703568007797	2	7	3	NaN	2	4	0.058938015802289	1	1	NaN	241	4	52	1	121	221	321	NaN	521	0.336741979699582	1	0	NaN	1277634.2526257	NaN	1277635.2360093	1277635.75260062
2	21	0	0	90	36.1581920903955	36.241610738255	10	0.333366880007088	2	4	1	NaN	1	3	0.058938015802289	1	1	NaN	242	4	53	1	121	221	321	NaN	521	0.24709047540091	1	1	NaN	1277636.9029418	NaN	1277637.8863071	1277638.40284892
2	21	0	0	90	36.1581920903955	36.241610738255	21	0.700070448014885	2	2	3	NaN	1	5	0.058938015802289	1	1	NaN	243	4	54	1	121	221	321	NaN	521	0.273670335765928	1	1	NaN	1277640.0197781	NaN	1277641.0033024	1277641.51982936
2	21	0	0	90	36.1581920903955	36.241610738255	8	0.266693504005671	2	11	1	NaN	2	3	0.058938015802289	1	1	NaN	244	4	55	1	121	221	321	NaN	521	0.3984758798033	2	1	NaN	1277643.1034963	NaN	1277644.0869299	1277644.60346252
2	21	0	0	90	36.1581920903955	36.241610738255	7	0.233356816004962	2	6	2	NaN	1	4	0.058938015802289	1	1	NaN	245	4	56	1	121	221	321	NaN	521	0.0976419358048588	1	1	NaN	1277645.8204787	NaN	1277646.8038691	1277647.32040336
2	21	0	0	90	36.1581920903955	36.241610738255	0	0	1	10	5	NaN	2	5	0.058938015802289	1	1	NaN	246	4	57	1	111	211	311	NaN	511	0.104367027524859	2	1	NaN	1277648.237346	NaN	1277649.2207541	1277649.73729477
2	21	0	0	90	36.1581920903955	36.241610738255	23	0.766743824016303	2	9	1	NaN	2	4	0.058938015802289	1	1	NaN	247	4	58	1	121	221	321	NaN	521	0.447345575550571	2	1	NaN	1277650.6542488	NaN	1277651.6376878	1277652.15420332
2	21	0	0	90	36.1581920903955	36.241610738255	7	0.233356816004962	2	2	4	NaN	1	4	0.058938015802289	1	1	NaN	248	4	59	1	121	221	321	NaN	521	0.272492627380416	1	1	NaN	1277653.4212014	NaN	1277654.4045896	1277654.92114017
2	21	0	0	90	36.1581920903955	36.241610738255	20	0.666733760014176	2	4	2	NaN	1	5	0.058938015802289	1	1	NaN	249	4	60	1	121	221	321	NaN	521	0.737272327300161	1	1	NaN	1277656.0048733	NaN	1277656.9882006	1277657.50473427
2	21	0	0	90	36.1581920903955	36.241610738255	19	0.633397072013468	2	8	2	NaN	2	3	0.058938015802289	1	1	NaN	250	4	61	1	121	221	321	NaN	521	0.26996322744526	2	1	NaN	1277659.0716262	NaN	1277660.0551846	1277660.57169047
2	21	0	0	90	36.1581920903955	36.241610738255	20	0.666733760014176	2	9	3	NaN	2	5	0.058938015802289	1	1	NaN	251	4	62	1	121	221	321	NaN	521	0.310193427605554	2	1	NaN	1277661.6553315	NaN	1277662.6387423	1277663.15527807
2	21	0	0	90	36.1581920903955	36.241610738255	19	0.633397072013468	2	5	3	NaN	1	5	0.058938015802289	1	1	NaN	252	4	63	1	121	221	321	NaN	521	0.349060079781339	1	1	NaN	1277664.288944	NaN	1277665.2723181	1277665.78888232
2	21	0	0	90	36.1581920903955	36.241610738255	12	0.400040256008506	2	9	5	NaN	2	5	0.058938015802289	1	1	NaN	253	5	1	1	121	221	321	NaN	521	0.0103796795010567	2	1	NaN	1277668.339318	NaN	1277669.322622	1277669.83927602
2	21	0	0	90	36.1581920903955	36.241610738255	10	0.333366880007088	2	2	3	NaN	1	3	0.058938015802289	1	1	NaN	254	5	2	1	121	221	321	NaN	521	0.140779439592734	1	1	NaN	1277670.672894	NaN	1277671.6562957	1277672.17284676
2	21	0	0	90	36.1581920903955	36.241610738255	18	0.600060384012759	2	12	1	NaN	2	4	0.058938015802289	1	1	NaN	255	5	3	1	121	221	321	NaN	521	0.506277931621298	2	1	NaN	1277673.1397876	NaN	1277674.1232212	1277674.63974307
2	21	0	0	90	36.1581920903955	36.241610738255	24	0.800080512017012	2	10	6	NaN	2	5	0.058938015802289	1	1	NaN	256	5	4	1	121	221	321	NaN	521	0.010226699989289	2	1	NaN	1277676.4400845	NaN	1277677.4235084	1277677.9400617
2	21	0	0	90	36.1581920903955	36.241610738255	6	0.200020128004253	2	7	5	NaN	2	5	0.058938015802289	1	1	NaN	257	5	5	1	121	221	321	NaN	521	0.101389779476449	2	1	NaN	1277679.2403223	NaN	1277680.2237951	1277680.74034492
2	21	0	0	90	36.1581920903955	36.241610738255	17	0.56672369601205	2	8	6	NaN	2	3	0.058938015802289	1	1	NaN	258	5	6	1	121	221	321	NaN	521	0.26047947560437	2	1	NaN	1277681.6572702	NaN	1277682.6407117	1277683.15724382
2	21	0	0	90	36.1581920903955	36.241610738255	0	0	1	7	5	NaN	2	4	0.058938015802289	1	1	NaN	259	5	7	1	111	211	311	NaN	511	0.010502815246582	2	1	NaN	1277684.2408982	NaN	1277685.2242902	1277685.74083438
2	21	0	0	90	36.1581920903955	36.241610738255	21	0.700070448014885	2	12	1	NaN	2	5	0.058938015802289	1	1	NaN	260	5	8	1	121	221	321	NaN	521	0.309602527413517	2	1	NaN	1277687.0244553	NaN	1277688.0079371	1277688.52444457
2	21	0	0	90	36.1581920903955	36.241610738255	22	0.733407136015594	2	5	2	NaN	1	3	0.058938015802289	1	1	NaN	261	5	9	1	121	221	321	NaN	521	0.0516197276301682	1	1	NaN	1277689.658091	NaN	1277690.6414898	1277691.15803107
2	21	0	0	90	36.1581920903955	36.241610738255	16	0.533387008011341	2	4	5	NaN	1	5	0.058938015802289	1	1	NaN	262	5	10	1	121	221	321	NaN	521	0.609305575722829	1	1	NaN	1277692.5083558	NaN	1277693.4917589	1277694.00830742
2	21	0	0	90	36.1581920903955	36.241610738255	24	0.800080512017012	2	11	1	NaN	2	4	0.058938015802289	1	1	NaN	263	5	11	1	121	221	321	NaN	521	0.242629695916548	2	1	NaN	1277695.8752414	NaN	1277696.858766	1277697.375321
2	21	0	0	90	36.1581920903955	36.241610738255	11	0.366703568007797	2	7	4	NaN	2	3	0.058938015802289	1	1	NaN	264	5	12	1	121	221	321	NaN	521	0.307601427426562	2	1	NaN	1277698.4422783	NaN	1277699.4256908	1277699.94222167
2	21	0	0	90	36.1581920903955	36.241610738255	16	0.533387008011341	2	7	6	NaN	2	5	0.058938015802289	1	1	NaN	265	5	13	1	121	221	321	NaN	521	0.192711327457801	2	1	NaN	1277701.5093041	NaN	1277702.4926544	1277703.00919537
2	21	0	0	90	36.1581920903955	36.241610738255	23	0.766743824016303	2	2	6	NaN	1	3	0.058938015802289	1	1	NaN	266	5	14	1	121	221	321	NaN	521	0.0104109754320234	1	1	NaN	1277704.0261537	NaN	1277705.0095551	1277705.52610252
2	21	0	0	90	36.1581920903955	36.241610738255	14	0.466713632009923	2	6	1	NaN	1	5	0.058938015802289	1	1	NaN	267	5	15	1	121	221	321	NaN	521	0.297827679663897	1	1	NaN	1277706.8597748	NaN	1277707.8431947	1277708.35972502
2	21	0	0	90	36.1581920903955	36.241610738255	20	0.666733760014176	2	10	4	NaN	2	3	0.058938015802289	1	1	NaN	268	5	16	1	121	221	321	NaN	521	0.385088727576658	2	1	NaN	1277709.4766995	NaN	1277710.4600962	1277710.97664127
2	21	0	0	90	36.1581920903955	36.241610738255	7	0.233356816004962	2	7	3	NaN	2	5	0.058938015802289	1	1	NaN	269	5	17	1	121	221	321	NaN	521	0.269201427465305	2	1	NaN	1277712.1769111	NaN	1277713.1603651	1277713.67690547
2	21	0	0	90	36.1581920903955	36.241610738255	7	0.233356816004962	2	4	4	NaN	1	4	0.058938015802289	1	1	NaN	270	5	18	1	121	221	321	NaN	521	0.149217327358201	1	1	NaN	1277714.7605397	NaN	1277715.7439707	1277716.26049277
2	21	0	0	90	36.1581920903955	36.241610738255	14	0.466713632009923	2	3	2	NaN	1	3	0.058938015802289	1	1	NaN	271	5	19	1	121	221	321	NaN	521	0.0822905274108052	1	1	NaN	1277717.2274608	NaN	1277718.2108818	1277718.72740897
2	21	0	0	90	36.1581920903955	36.241610738255	9	0.300030192006379	2	3	6	NaN	1	3	0.058938015802289	1	1	NaN	272	5	20	1	121	221	321	NaN	521	0.218045335728675	1	1	NaN	1277719.6277075	NaN	1277720.6111221	1277721.12764956
2	21	0	0	90	36.1581920903955	36.241610738255	0	0	1	2	1	NaN	1	4	0.058938015802289	1	1	NaN	273	5	21	1	111	211	311	NaN	511	0.0278410234022886	1	1	NaN	1277722.1779465	NaN	1277723.1613471	1277723.67788678
2	21	0	0	90	36.1581920903955	36.241610738255	8	0.266693504005671	2	12	6	NaN	2	3	0.058938015802289	1	1	NaN	274	5	22	1	121	221	321	NaN	521	0.277851743623614	2	1	NaN	1277724.5281246	NaN	1277725.5115968	1277726.02812866
2	21	0	0	90	36.1581920903955	36.241610738255	11	0.366703568007797	2	4	3	NaN	1	4	0.058938015802289	1	1	NaN	275	5	23	1	121	221	321	NaN	521	0.213321227580309	1	1	NaN	1277727.1284393	NaN	1277728.1118197	1277728.62837887
2	21	0	0	90	36.1581920903955	36.241610738255	14	0.466713632009923	2	9	2	NaN	2	5	0.058938015802289	1	1	NaN	276	5	24	1	121	221	321	NaN	521	0.280098527669907	2	1	NaN	1277729.6618874	NaN	1277730.6454206	1277731.16195297
2	21	0	0	90	36.1581920903955	36.241610738255	8	0.266693504005671	2	8	2	NaN	2	3	0.058938015802289	1	1	NaN	277	5	25	1	121	221	321	NaN	521	0.0716460754629225	2	1	NaN	1277732.2622287	NaN	1277733.2456634	1277733.76221332
2	21	0	0	90	36.1581920903955	36.241610738255	13	0.433376944009215	2	1	6	NaN	1	4	0.058938015802289	1	1	NaN	278	5	26	1	121	221	321	NaN	521	0.0103849878069013	1	1	NaN	1277735.1458556	NaN	1277736.1293262	1277736.64583001
2	21	0	0	90	36.1581920903955	36.241610738255	14	0.466713632009923	2	8	1	NaN	2	3	0.058938015802289	1	1	NaN	279	5	27	1	121	221	321	NaN	521	0.478230779757723	2	1	NaN	1277737.4794506	NaN	1277738.4628548	1277738.97939902
2	21	0	0	90	36.1581920903955	36.241610738255	18	0.600060384012759	2	4	5	NaN	1	3	0.058938015802289	1	1	NaN	280	5	28	1	121	221	321	NaN	521	0.374356923392043	1	1	NaN	1277740.2797427	NaN	1277741.2631477	1277741.77967888
2	21	0	0	90	36.1581920903955	36.241610738255	24	0.800080512017012	2	8	5	NaN	2	3	0.058938015802289	1	1	NaN	281	5	29	1	121	221	321	NaN	521	0.0104094876442105	2	1	NaN	1277742.9799794	NaN	1277743.9633894	1277744.47993621
2	21	0	0	90	36.1581920903955	36.241610738255	10	0.333366880007088	2	5	3	NaN	1	5	0.058938015802289	1	1	NaN	282	5	30	1	121	221	321	NaN	521	0.316645927494392	1	1	NaN	1277745.3135502	NaN	1277746.2969796	1277746.81349677
2	21	0	0	90	36.1581920903955	36.241610738255	11	0.366703568007797	2	5	6	NaN	1	4	0.058938015802289	1	1	NaN	283	5	31	1	121	221	321	NaN	521	0.266726791858673	1	1	NaN	1277747.9471549	NaN	1277748.9305506	1277749.44708641
2	21	0	0	90	36.1581920903955	36.241610738255	10	0.333366880007088	2	7	2	NaN	2	3	0.058938015802289	1	1	NaN	284	5	32	1	121	221	321	NaN	521	0.306989079806954	2	1	NaN	1277750.5307412	NaN	1277751.5141463	1277752.03067402
2	21	0	0	90	36.1581920903955	36.241610738255	13	0.433376944009215	2	4	5	NaN	1	5	0.058938015802289	1	1	NaN	285	5	33	1	121	221	321	NaN	521	0.27336777956225	2	0	NaN	1277753.164328	NaN	1277754.1477214	1277754.66426912
2	21	0	0	90	36.1581920903955	36.241610738255	8	0.266693504005671	2	1	4	NaN	1	3	0.058938015802289	1	1	NaN	286	5	34	1	121	221	321	NaN	521	0.601880327565596	2	0	NaN	1277755.7479257	NaN	1277756.7312964	1277757.24785197
2	21	0	0	90	36.1581920903955	36.241610738255	15	0.500050320010632	2	2	6	NaN	1	5	0.058938015802289	1	1	NaN	287	5	35	1	121	221	321	NaN	521	0.268257027491927	1	1	NaN	1277758.68156	NaN	1277759.664915	1277760.18146787
2	21	0	0	90	36.1581920903955	36.241610738255	15	0.500050320010632	2	3	3	NaN	1	4	0.058938015802289	1	1	NaN	288	5	36	1	121	221	321	NaN	521	0.333013127557933	1	1	NaN	1277761.2651072	NaN	1277762.2485141	1277762.76505987
2	21	0	0	90	36.1581920903955	36.241610738255	11	0.366703568007797	2	9	3	NaN	2	4	0.058938015802289	1	1	NaN	289	5	37	1	121	221	321	NaN	521	0.313841539667919	2	1	NaN	1277764.5320873	NaN	1277765.5155112	1277766.03205356
2	21	0	0	90	36.1581920903955	36.241610738255	11	0.366703568007797	2	4	4	NaN	1	3	0.058938015802289	1	1	NaN	290	5	38	1	121	221	321	NaN	521	0.0104621273931116	1	1	NaN	1277767.1656823	NaN	1277768.1490831	1277768.66563977
2	21	0	0	90	36.1581920903955	36.241610738255	23	0.766743824016303	2	11	2	NaN	2	4	0.058938015802289	1	1	NaN	291	5	39	1	121	221	321	NaN	521	0.0103928276803344	2	1	NaN	1277770.0659677	NaN	1277771.0493684	1277771.56592747
2	21	0	0	90	36.1581920903955	36.241610738255	17	0.56672369601205	2	1	2	NaN	1	5	0.058938015802289	1	1	NaN	292	5	40	1	121	221	321	NaN	521	1.05688252323307	1	1	NaN	1277772.9329111	NaN	1277773.9163506	1277774.43287758
2	21	0	0	90	36.1581920903955	36.241610738255	19	0.633397072013468	2	6	1	NaN	1	4	0.058938015802289	1	1	NaN	293	5	41	1	121	221	321	NaN	521	0.129534375388175	1	1	NaN	1277776.3165964	NaN	1277777.2999943	1277777.81654282
2	21	0	0	90	36.1581920903955	36.241610738255	10	0.333366880007088	2	4	6	NaN	1	3	0.058938015802289	1	1	NaN	294	5	42	1	121	221	321	NaN	521	0.239825227297843	1	1	NaN	1277778.7502012	NaN	1277779.7334957	1277780.25011607
2	21	0	0	90	36.1581920903955	36.241610738255	21	0.700070448014885	2	1	6	NaN	1	5	0.058938015802289	1	1	NaN	295	5	43	1	121	221	321	NaN	521	0.010479923337698	1	1	NaN	1277781.3169569	NaN	1277782.3005107	1277782.81702908
2	21	0	0	90	36.1581920903955	36.241610738255	15	0.500050320010632	2	12	5	NaN	2	5	0.058938015802289	1	1	NaN	296	5	44	1	121	221	321	NaN	521	0.69964622752741	2	1	NaN	1277783.6506319	NaN	1277784.6340393	1277785.15059867
2	21	0	0	90	36.1581920903955	36.241610738255	14	0.466713632009923	2	11	2	NaN	2	5	0.058938015802289	1	1	NaN	297	5	45	1	121	221	321	NaN	521	0.306622227653861	2	1	NaN	1277786.6676279	NaN	1277787.6510164	1277788.16755137
2	21	0	0	90	36.1581920903955	36.241610738255	0	0	1	4	3	NaN	1	5	0.058938015802289	1	1	NaN	298	5	46	1	111	211	311	NaN	511	0.304555875482038	1	1	NaN	1277789.301205	NaN	1277790.2845427	1277790.80114792
2	21	0	0	90	36.1581920903955	36.241610738255	13	0.433376944009215	2	4	6	NaN	1	5	0.058938015802289	1	1	NaN	299	5	47	1	121	221	321	NaN	521	0.255413639592007	1	1	NaN	1277791.9347574	NaN	1277792.9181955	1277793.43474576
2	21	0	0	90	36.1581920903955	36.241610738255	11	0.366703568007797	2	9	2	NaN	2	3	0.058938015802289	1	1	NaN	300	5	48	1	121	221	321	NaN	521	0.32774942740798	1	0	NaN	1277794.5183678	NaN	1277795.501775	1277796.01833247
2	21	0	0	90	36.1581920903955	36.241610738255	11	0.366703568007797	2	10	1	NaN	2	5	0.058938015802289	1	1	NaN	301	5	49	1	121	221	321	NaN	521	0.0771661356557161	2	1	NaN	1277797.1686384	NaN	1277798.1520377	1277798.66859596
2	21	0	0	90	36.1581920903955	36.241610738255	22	0.733407136015594	2	10	3	NaN	2	3	0.058938015802289	1	1	NaN	302	5	50	1	121	221	321	NaN	521	0.369025375694036	2	1	NaN	1277800.0685751	NaN	1277801.0523436	1277801.56886232
2	21	0	0	90	36.1581920903955	36.241610738255	15	0.500050320010632	2	5	3	NaN	1	4	0.058938015802289	1	1	NaN	303	5	51	1	121	221	321	NaN	521	0.149095327593386	1	1	NaN	1277802.7692013	NaN	1277803.7525827	1277804.26913337
2	21	0	0	90	36.1581920903955	36.241610738255	10	0.333366880007088	2	6	6	NaN	1	5	0.058938015802289	1	1	NaN	304	5	52	1	121	221	321	NaN	521	0.274385827593505	1	1	NaN	1277805.4194472	NaN	1277806.4029083	1277806.91939477
2	21	0	0	90	36.1581920903955	36.241610738255	14	0.466713632009923	2	8	3	NaN	2	5	0.058938015802289	1	1	NaN	305	5	53	1	121	221	321	NaN	521	0.130902943899855	2	1	NaN	1277808.0029281	NaN	1277808.9864034	1277809.50299276
2	21	0	0	90	36.1581920903955	36.241610738255	22	0.733407136015594	2	12	3	NaN	2	5	0.058938015802289	1	1	NaN	306	5	54	1	121	221	321	NaN	521	0.0533539797179401	2	1	NaN	1277810.936642	NaN	1277811.9200965	1277812.43660312
2	21	0	0	90	36.1581920903955	36.241610738255	20	0.666733760014176	2	8	2	NaN	2	5	0.058938015802289	1	1	NaN	307	5	55	1	121	221	321	NaN	521	0.010482175508514	2	1	NaN	1277813.8535851	NaN	1277814.8370141	1277815.35355452
2	21	0	0	90	36.1581920903955	36.241610738255	17	0.56672369601205	2	10	4	NaN	2	3	0.058938015802289	1	1	NaN	308	5	56	1	121	221	321	NaN	521	0.0104925234336406	2	1	NaN	1277816.1872092	NaN	1277817.1705728	1277817.68712158
2	21	0	0	90	36.1581920903955	36.241610738255	21	0.700070448014885	2	2	3	NaN	1	3	0.058938015802289	1	1	NaN	309	5	57	1	121	221	321	NaN	521	0.160485700005665	2	0	NaN	1277819.0374337	NaN	1277820.0208408	1277820.5374046
2	21	0	0	90	36.1581920903955	36.241610738255	9	0.300030192006379	2	12	1	NaN	2	5	0.058938015802289	1	1	NaN	310	5	58	1	121	221	321	NaN	521	0.407916227355599	2	1	NaN	1277822.0377407	NaN	1277823.0211799	1277823.53768927
2	21	0	0	90	36.1581920903955	36.241610738255	13	0.433376944009215	2	3	2	NaN	1	3	0.058938015802289	1	1	NaN	311	5	59	1	121	221	321	NaN	521	0.267643227474764	2	0	NaN	1277824.7546773	NaN	1277825.7381058	1277826.25462717
2	21	0	0	90	36.1581920903955	36.241610738255	15	0.500050320010632	2	5	5	NaN	1	3	0.058938015802289	1	1	NaN	312	5	60	1	121	221	321	NaN	521	0.187799287959933	1	1	NaN	1277827.3382778	NaN	1277828.3216674	1277828.83821801
2	21	0	0	90	36.1581920903955	36.241610738255	9	0.300030192006379	2	5	6	NaN	1	5	0.058938015802289	1	1	NaN	313	5	61	1	121	221	321	NaN	521	0.22375672752969	1	1	NaN	1277829.8385124	NaN	1277830.8218971	1277831.33846167
2	21	0	0	90	36.1581920903955	36.241610738255	22	0.733407136015594	2	1	5	NaN	1	3	0.058938015802289	1	1	NaN	314	5	62	1	121	221	321	NaN	521	0.0104644193779677	1	1	NaN	1277833.4388481	NaN	1277834.4222729	1277834.93881478
2	21	0	0	90	36.1581920903955	36.241610738255	11	0.366703568007797	2	12	5	NaN	2	5	0.058938015802289	1	1	NaN	315	5	63	1	121	221	321	NaN	521	0.010409475537017	2	1	NaN	1277836.2390411	NaN	1277837.222539	1277837.73909002
2	21	0	0	90	36.1581920903955	36.241610738255	25	0.83341720001772	2	8	6	NaN	2	3	0.058938015802289	1	1	NaN	316	6	1	1	121	221	321	NaN	521	0.0104149836115539	2	1	NaN	1277878.3599509	NaN	1277879.3433733	1277879.85989112
2	21	0	0	90	36.1581920903955	36.241610738255	24	0.800080512017012	2	10	2	NaN	2	5	0.058938015802289	1	1	NaN	317	6	2	1	121	221	321	NaN	521	0.25654197554104	2	1	NaN	1277880.6933734	NaN	1277881.6769117	1277882.19345142
2	21	0	0	90	36.1581920903955	36.241610738255	12	0.400040256008506	2	8	5	NaN	2	5	0.058938015802289	1	1	NaN	318	6	3	1	121	221	321	NaN	521	0.248909127665684	2	1	NaN	1277883.2771026	NaN	1277884.2604834	1277884.77703507
2	21	0	0	90	36.1581920903955	36.241610738255	12	0.400040256008506	2	4	1	NaN	1	4	0.058938015802289	1	1	NaN	319	6	4	1	121	221	321	NaN	521	0.130008827429265	1	1	NaN	1277885.8440196	NaN	1277886.8274354	1277887.34396077
2	21	0	0	90	36.1581920903955	36.241610738255	14	0.466713632009923	2	9	1	NaN	2	5	0.058938015802289	1	1	NaN	320	6	5	1	121	221	321	NaN	521	0.0103912274353206	2	1	NaN	1277888.2941373	NaN	1277889.2776558	1277889.79419017
2	21	0	0	90	36.1581920903955	36.241610738255	8	0.266693504005671	2	9	6	NaN	2	3	0.058938015802289	1	1	NaN	321	6	6	1	121	221	321	NaN	521	0.122895475709811	2	1	NaN	1277890.6112583	NaN	1277891.5945367	1277892.11110922
2	21	0	0	90	36.1581920903955	36.241610738255	15	0.500050320010632	2	10	3	NaN	2	4	0.058938015802289	1	1	NaN	322	6	7	1	121	221	321	NaN	521	0.36933317547664	2	1	NaN	1277893.0447153	NaN	1277894.0281529	1277894.54466432
2	21	0	0	90	36.1581920903955	36.241610738255	21	0.700070448014885	2	11	3	NaN	2	3	0.058938015802289	1	1	NaN	323	6	8	1	121	221	321	NaN	521	0.637566527351737	2	1	NaN	1277895.728333	NaN	1277896.7117191	1277897.22826077
2	21	0	0	90	36.1581920903955	36.241610738255	17	0.56672369601205	2	9	5	NaN	2	4	0.058938015802289	1	1	NaN	324	6	9	1	121	221	321	NaN	521	0.142707127612084	1	0	NaN	1277898.6952677	NaN	1277899.6786943	1277900.19521327
2	21	0	0	90	36.1581920903955	36.241610738255	23	0.766743824016303	2	1	4	NaN	1	3	0.058938015802289	1	1	NaN	325	6	10	1	121	221	321	NaN	521	0.291789427632466	1	1	NaN	1277901.162168	NaN	1277902.1455907	1277902.66212207
2	21	0	0	90	36.1581920903955	36.241610738255	21	0.700070448014885	2	8	5	NaN	2	4	0.058938015802289	1	1	NaN	326	6	11	1	121	221	321	NaN	521	0.370795779628679	2	1	NaN	1277903.7790097	NaN	1277904.762499	1277905.27905622
2	21	0	0	90	36.1581920903955	36.241610738255	0	0	1	3	5	NaN	1	4	0.058938015802289	1	1	NaN	327	6	12	1	111	211	311	NaN	511	0.222556627355516	1	1	NaN	1277906.47935	NaN	1277907.4627885	1277907.97933437
2	21	0	0	90	36.1581920903955	36.241610738255	23	0.766743824016303	2	1	1	NaN	1	4	0.058938015802289	1	1	NaN	328	6	13	1	121	221	321	NaN	521	0.120411875657737	1	1	NaN	1277909.0296299	NaN	1277910.0130725	1277910.52957092
2	21	0	0	90	36.1581920903955	36.241610738255	16	0.533387008011341	2	5	6	NaN	1	4	0.058938015802289	1	1	NaN	329	6	14	1	121	221	321	NaN	521	0.118484635604545	1	1	NaN	1277911.4798189	NaN	1277912.4632801	1277912.97981326
2	21	0	0	90	36.1581920903955	36.241610738255	11	0.366703568007797	2	11	6	NaN	2	5	0.058938015802289	1	1	NaN	330	6	15	1	121	221	321	NaN	521	0.500616223551333	2	1	NaN	1277913.9134306	NaN	1277914.8968426	1277915.41337778
2	21	0	0	90	36.1581920903955	36.241610738255	10	0.333366880007088	2	6	6	NaN	1	4	0.058938015802289	1	1	NaN	331	6	16	1	121	221	321	NaN	521	0.227985327364877	1	1	NaN	1277916.7303737	NaN	1277917.713791	1277918.23031477
2	21	0	0	90	36.1581920903955	36.241610738255	16	0.533387008011341	2	11	5	NaN	2	5	0.058938015802289	1	1	NaN	332	6	17	1	121	221	321	NaN	521	0.18002292746678	2	1	NaN	1277919.7139994	NaN	1277920.6973941	1277921.21394097
2	21	0	0	90	36.1581920903955	36.241610738255	22	0.733407136015594	2	9	2	NaN	2	5	0.058938015802289	1	1	NaN	333	6	18	1	121	221	321	NaN	521	0.240102839656174	2	1	NaN	1277922.2142774	NaN	1277923.1976346	1277923.71419606
2	21	0	0	90	36.1581920903955	36.241610738255	9	0.300030192006379	2	8	3	NaN	2	5	0.058938015802289	1	1	NaN	334	6	19	1	121	221	321	NaN	521	0.0816330756060779	2	1	NaN	1277924.7643806	NaN	1277925.7478998	1277926.26444672
2	21	0	0	90	36.1581920903955	36.241610738255	10	0.333366880007088	2	1	2	NaN	1	4	0.058938015802289	1	1	NaN	335	6	20	1	121	221	321	NaN	521	0.175589627586305	1	1	NaN	1277927.4147544	NaN	1277928.3981764	1277928.91470507
2	21	0	0	90	36.1581920903955	36.241610738255	18	0.600060384012759	2	2	6	NaN	1	3	0.058938015802289	1	1	NaN	336	6	21	1	121	221	321	NaN	521	0.139344243798405	2	0	NaN	1277929.9150372	NaN	1277930.8983871	1277931.41495466
2	21	0	0	90	36.1581920903955	36.241610738255	25	0.83341720001772	2	4	1	NaN	1	3	0.058938015802289	1	1	NaN	337	6	22	1	121	221	321	NaN	521	0.408585075521842	1	1	NaN	1277932.3819064	NaN	1277933.3653263	1277933.88185782
2	21	0	0	90	36.1581920903955	36.241610738255	17	0.56672369601205	2	6	4	NaN	1	4	0.058938015802289	1	1	NaN	338	6	23	1	121	221	321	NaN	521	0.253262027399614	1	1	NaN	1277936.248957	NaN	1277937.2323306	1277937.74890817
2	21	0	0	90	36.1581920903955	36.241610738255	20	0.666733760014176	2	2	6	NaN	1	3	0.058938015802289	1	1	NaN	339	6	24	1	121	221	321	NaN	521	0.0103978274855763	2	0	NaN	1277938.8325459	NaN	1277939.8159068	1277940.33249377
2	21	0	0	90	36.1581920903955	36.241610738255	19	0.633397072013468	2	9	1	NaN	2	4	0.058938015802289	1	1	NaN	340	6	25	1	121	221	321	NaN	521	0.0640552437398583	2	1	NaN	1277941.1661093	NaN	1277942.1494913	1277942.66605976
2	21	0	0	90	36.1581920903955	36.241610738255	16	0.533387008011341	2	5	2	NaN	1	3	0.058938015802289	1	1	NaN	341	6	26	1	121	221	321	NaN	521	0.624719591811299	1	1	NaN	1277943.5496655	NaN	1277944.5330914	1277945.04962701
2	21	0	0	90	36.1581920903955	36.241610738255	21	0.700070448014885	2	6	5	NaN	1	3	0.058938015802289	1	1	NaN	342	6	27	1	121	221	321	NaN	521	0.370519975665957	1	1	NaN	1277946.4998508	NaN	1277947.4833636	1277947.99991332
2	21	0	0	90	36.1581920903955	36.241610738255	19	0.633397072013468	2	3	1	NaN	1	4	0.058938015802289	1	1	NaN	343	6	28	1	121	221	321	NaN	521	0.0105184274725616	1	1	NaN	1277949.1835648	NaN	1277950.1669795	1277950.68350637
2	21	0	0	90	36.1581920903955	36.241610738255	24	0.800080512017012	2	4	2	NaN	1	5	0.058938015802289	1	1	NaN	344	6	29	1	121	221	321	NaN	521	0.201226327568293	1	1	NaN	1277951.5171103	NaN	1277952.5005338	1277953.01706417
2	21	0	0	90	36.1581920903955	36.241610738255	7	0.233356816004962	2	8	3	NaN	2	3	0.058938015802289	1	1	NaN	345	6	30	1	121	221	321	NaN	521	0.180346200009808	2	1	NaN	1277954.0340264	NaN	1277955.0174488	1277955.5339853
2	21	0	0	90	36.1581920903955	36.241610738255	25	0.83341720001772	2	11	3	NaN	2	5	0.058938015802289	1	1	NaN	346	6	31	1	121	221	321	NaN	521	0.423872143728659	2	1	NaN	1277956.5343342	NaN	1277957.5176673	1277958.03423016
2	21	0	0	90	36.1581920903955	36.241610738255	25	0.83341720001772	2	1	2	NaN	1	4	0.058938015802289	1	1	NaN	347	6	32	1	121	221	321	NaN	521	0.0103913273196667	1	1	NaN	1277959.2844822	NaN	1277960.2679458	1277960.78449757
2	21	0	0	90	36.1581920903955	36.241610738255	14	0.466713632009923	2	3	3	NaN	1	5	0.058938015802289	1	1	NaN	348	6	33	1	121	221	321	NaN	521	0.144268627511337	1	1	NaN	1277962.118152	NaN	1277963.1015645	1277963.61810977
2	21	0	0	90	36.1581920903955	36.241610738255	18	0.600060384012759	2	7	1	NaN	2	3	0.058938015802289	1	1	NaN	349	6	34	1	121	221	321	NaN	521	0.173151127295569	2	1	NaN	1277964.5849388	NaN	1277965.5684956	1277966.08501777
2	21	0	0	90	36.1581920903955	36.241610738255	19	0.633397072013468	2	4	5	NaN	1	5	0.058938015802289	1	1	NaN	350	6	35	1	121	221	321	NaN	521	0.728879979578778	2	0	NaN	1277967.085235	NaN	1277968.0686068	1277968.58526502
2	21	0	0	90	36.1581920903955	36.241610738255	0	0	1	8	2	NaN	2	4	0.058938015802289	1	1	NaN	351	6	36	1	111	211	311	NaN	511	0.0305701275356114	2	1	NaN	1277970.1356127	NaN	1277971.1190281	1277971.63556187
2	21	0	0	90	36.1581920903955	36.241610738255	25	0.83341720001772	2	5	3	NaN	1	3	0.058938015802289	1	1	NaN	352	6	37	1	121	221	321	NaN	521	0.216305539710447	1	1	NaN	1277972.48585	NaN	1277973.4692472	1277973.98580636
2	21	0	0	90	36.1581920903955	36.241610738255	6	0.200020128004253	2	5	1	NaN	1	4	0.058938015802289	1	1	NaN	353	6	38	1	121	221	321	NaN	521	0.210355919320136	1	1	NaN	1277975.0193355	NaN	1277976.0028693	1277976.51937548
2	21	0	0	90	36.1581920903955	36.241610738255	10	0.333366880007088	2	5	4	NaN	1	5	0.058938015802289	1	1	NaN	354	6	39	1	121	221	321	NaN	521	0.0103231356479228	1	1	NaN	1277977.5528937	NaN	1277978.5364156	1277979.05296516
2	21	0	0	90	36.1581920903955	36.241610738255	24	0.800080512017012	2	8	3	NaN	2	3	0.058938015802289	1	1	NaN	355	6	40	1	121	221	321	NaN	521	0.343929727561772	2	1	NaN	1277979.8865687	NaN	1277980.8699933	1277981.38651377
2	21	0	0	90	36.1581920903955	36.241610738255	22	0.733407136015594	2	8	1	NaN	2	5	0.058938015802289	1	1	NaN	356	6	41	1	121	221	321	NaN	521	0.0103977276012301	2	1	NaN	1277982.5535518	NaN	1277983.536909	1277984.05345067
2	21	0	0	90	36.1581920903955	36.241610738255	10	0.333366880007088	2	10	5	NaN	2	3	0.058938015802289	1	1	NaN	357	6	42	1	121	221	321	NaN	521	0.0104628275148571	2	1	NaN	1277984.8869663	NaN	1277985.8704629	1277986.38701147
2	21	0	0	90	36.1581920903955	36.241610738255	6	0.200020128004253	2	8	1	NaN	2	4	0.058938015802289	1	1	NaN	358	6	43	1	121	221	321	NaN	521	0.242223427630961	2	1	NaN	1277987.2039614	NaN	1277988.1873511	1277988.70390917
2	21	0	0	90	36.1581920903955	36.241610738255	16	0.533387008011341	2	12	2	NaN	2	5	0.058938015802289	1	1	NaN	359	6	44	1	121	221	321	NaN	521	0.0112664275802672	2	1	NaN	1277989.7707689	NaN	1277990.7543663	1277991.27082327
2	21	0	0	90	36.1581920903955	36.241610738255	19	0.633397072013468	2	12	3	NaN	2	4	0.058938015802289	1	1	NaN	360	6	45	1	121	221	321	NaN	521	0.238044279627502	2	1	NaN	1277992.1044251	NaN	1277993.0878457	1277993.60439262
2	21	0	0	90	36.1581920903955	36.241610738255	22	0.733407136015594	2	9	1	NaN	2	3	0.058938015802289	1	1	NaN	361	6	46	1	121	221	321	NaN	521	0.278925175778568	2	1	NaN	1277994.6713247	NaN	1277995.6547705	1277996.17130742
2	21	0	0	90	36.1581920903955	36.241610738255	25	0.83341720001772	2	11	5	NaN	2	3	0.058938015802289	1	1	NaN	362	6	47	1	121	221	321	NaN	521	0.294436827301979	2	1	NaN	1277997.2716176	NaN	1277998.2550211	1277998.77155407
2	21	0	0	90	36.1581920903955	36.241610738255	8	0.266693504005671	2	10	4	NaN	2	4	0.058938015802289	1	1	NaN	363	6	48	1	121	221	321	NaN	521	0.301949175540358	2	1	NaN	1277999.8885269	NaN	1278000.8719744	1278001.38848212
2	21	0	0	90	36.1581920903955	36.241610738255	25	0.83341720001772	2	7	5	NaN	2	5	0.058938015802289	1	1	NaN	364	6	49	1	121	221	321	NaN	521	0.364972543669865	2	1	NaN	1278002.5054625	NaN	1278003.4888693	1278004.00541996
2	21	0	0	90	36.1581920903955	36.241610738255	0	0	1	5	5	NaN	1	3	0.058938015802289	1	1	NaN	365	6	50	1	111	211	311	NaN	511	0.193151623476297	1	1	NaN	1278005.1889396	NaN	1278006.1724722	1278006.68900048
2	21	0	0	90	36.1581920903955	36.241610738255	19	0.633397072013468	2	7	2	NaN	2	3	0.058938015802289	1	1	NaN	366	6	51	1	121	221	321	NaN	521	0.0602078796364367	2	1	NaN	1278007.7059177	NaN	1278008.6893972	1278009.20592492
2	21	0	0	90	36.1581920903955	36.241610738255	16	0.533387008011341	2	8	6	NaN	2	5	0.058938015802289	1	1	NaN	367	6	52	1	121	221	321	NaN	521	0.0847187233157456	2	1	NaN	1278010.0895303	NaN	1278011.0729547	1278011.58948068
2	21	0	0	90	36.1581920903955	36.241610738255	23	0.766743824016303	2	8	4	NaN	2	3	0.058938015802289	1	1	NaN	368	6	53	1	121	221	321	NaN	521	0.195804975694045	2	1	NaN	1278012.506451	NaN	1278013.4898486	1278014.00638562
2	21	0	0	90	36.1581920903955	36.241610738255	22	0.733407136015594	2	6	3	NaN	1	5	0.058938015802289	1	1	NaN	369	6	54	1	121	221	321	NaN	521	0.246803727466613	1	1	NaN	1278015.0232606	NaN	1278016.0067718	1278016.52330617
2	21	0	0	90	36.1581920903955	36.241610738255	21	0.700070448014885	2	5	4	NaN	1	5	0.058938015802289	1	1	NaN	370	6	55	1	121	221	321	NaN	521	0.328230975661427	1	1	NaN	1278017.5901665	NaN	1278018.5736659	1278019.09022862
2	21	0	0	90	36.1581920903955	36.241610738255	7	0.233356816004962	2	3	4	NaN	1	3	0.058938015802289	1	1	NaN	371	6	56	1	121	221	321	NaN	521	0.301782471360639	1	1	NaN	1278020.2404105	NaN	1278021.2239381	1278021.74047773
2	21	0	0	90	36.1581920903955	36.241610738255	24	0.800080512017012	2	12	5	NaN	2	4	0.058938015802289	1	1	NaN	372	6	57	1	121	221	321	NaN	521	0.4608798797708	1	0	NaN	1278022.8574773	NaN	1278023.8408709	1278024.35741072
2	21	0	0	90	36.1581920903955	36.241610738255	6	0.200020128004253	2	4	3	NaN	1	4	0.058938015802289	1	1	NaN	373	6	58	1	121	221	321	NaN	521	0.253595927497372	1	1	NaN	1278025.6410738	NaN	1278026.6244783	1278027.14101107
2	21	0	0	90	36.1581920903955	36.241610738255	15	0.500050320010632	2	10	2	NaN	2	3	0.058938015802289	1	1	NaN	374	6	59	1	121	221	321	NaN	521	0.42212867969647	2	1	NaN	1278028.2078786	NaN	1278029.1913882	1278029.70792842
2	21	0	0	90	36.1581920903955	36.241610738255	11	0.366703568007797	2	3	6	NaN	1	4	0.058938015802289	1	1	NaN	375	6	60	1	121	221	321	NaN	521	0.264135127654299	1	1	NaN	1278030.9581525	NaN	1278031.9416566	1278032.45820107
2	21	0	0	90	36.1581920903955	36.241610738255	23	0.766743824016303	2	5	5	NaN	1	5	0.058938015802289	1	1	NaN	376	6	61	1	121	221	321	NaN	521	0.0961341273505241	1	1	NaN	1278033.5417089	NaN	1278034.5252539	1278035.04178847
2	21	0	0	90	36.1581920903955	36.241610738255	16	0.533387008011341	2	8	4	NaN	2	3	0.058938015802289	1	1	NaN	377	6	62	1	121	221	321	NaN	521	0.447748779784888	2	1	NaN	1278035.9586142	NaN	1278036.9421512	1278037.45869842
2	21	0	0	90	36.1581920903955	36.241610738255	13	0.433376944009215	2	6	6	NaN	1	3	0.058938015802289	1	1	NaN	378	6	63	1	121	221	321	NaN	521	0.224372627446428	1	1	NaN	1278038.7255715	NaN	1278039.7091232	1278040.22562837
2	21	0	0	90	36.1581920903955	36.241610738255	20	0.666733760014176	2	10	4	NaN	2	4	0.058938015802289	1	1	NaN	379	7	1	1	121	221	321	NaN	521	0.195010827621445	2	1	NaN	1278042.6594189	NaN	1278043.6428504	1278044.15934247
2	21	0	0	90	36.1581920903955	36.241610738255	12	0.400040256008506	2	3	2	NaN	1	5	0.058938015802289	1	1	NaN	380	7	2	1	121	221	321	NaN	521	0.0778646275866777	1	1	NaN	1278045.1762977	NaN	1278046.1597369	1278046.67626577
2	21	0	0	90	36.1581920903955	36.241610738255	21	0.700070448014885	2	11	2	NaN	2	5	0.058938015802289	1	1	NaN	381	7	3	1	121	221	321	NaN	521	0.0103923273272812	2	1	NaN	1278047.5765548	NaN	1278048.5599599	1278049.07649647
2	21	0	0	90	36.1581920903955	36.241610738255	15	0.500050320010632	2	1	5	NaN	1	4	0.058938015802289	1	1	NaN	382	7	4	1	121	221	321	NaN	521	0.0103794396854937	2	0	NaN	1278049.8933441	NaN	1278050.8768457	1278051.39340336
2	21	0	0	90	36.1581920903955	36.241610738255	6	0.200020128004253	2	12	4	NaN	2	3	0.058938015802289	1	1	NaN	383	7	5	1	121	221	321	NaN	521	0.0105013712309301	2	1	NaN	1278052.8603869	NaN	1278053.84379	1278054.36034353
2	21	0	0	90	36.1581920903955	36.241610738255	7	0.233356816004962	2	12	3	NaN	2	3	0.058938015802289	1	1	NaN	384	7	6	1	121	221	321	NaN	521	0.164704375434667	2	1	NaN	1278055.1938915	NaN	1278056.1774224	1278056.69393282
2	21	0	0	90	36.1581920903955	36.241610738255	23	0.766743824016303	2	10	2	NaN	2	5	0.058938015802289	1	1	NaN	385	7	7	1	121	221	321	NaN	521	0.0103936356026679	2	1	NaN	1278057.6774572	NaN	1278058.6609633	1278059.17751266
2	21	0	0	90	36.1581920903955	36.241610738255	17	0.56672369601205	2	5	6	NaN	1	4	0.058938015802289	1	1	NaN	386	7	8	1	121	221	321	NaN	521	0.0104195838794112	1	1	NaN	1278060.0109661	NaN	1278060.9945102	1278061.51105742
2	21	0	0	90	36.1581920903955	36.241610738255	14	0.466713632009923	2	10	4	NaN	2	3	0.058938015802289	1	1	NaN	387	7	9	1	121	221	321	NaN	521	0.301615771139041	2	1	NaN	1278062.3446625	NaN	1278063.3280969	1278063.84460813
2	21	0	0	90	36.1581920903955	36.241610738255	20	0.666733760014176	2	11	5	NaN	2	5	0.058938015802289	1	1	NaN	388	7	10	1	121	221	321	NaN	521	0.284993691835552	1	0	NaN	1278064.96158	NaN	1278065.944995	1278066.46155861
2	21	0	0	90	36.1581920903955	36.241610738255	12	0.400040256008506	2	12	2	NaN	2	3	0.058938015802289	1	1	NaN	389	7	11	1	121	221	321	NaN	521	0.228459927486256	2	1	NaN	1278067.5618424	NaN	1278068.5452241	1278069.06179297
2	21	0	0	90	36.1581920903955	36.241610738255	9	0.300030192006379	2	1	4	NaN	1	3	0.058938015802289	1	1	NaN	390	7	12	1	121	221	321	NaN	521	0.190178231569007	1	1	NaN	1278070.1120905	NaN	1278071.0954516	1278071.61204237
2	21	0	0	90	36.1581920903955	36.241610738255	21	0.700070448014885	2	3	1	NaN	1	4	0.058938015802289	1	1	NaN	391	7	13	1	121	221	321	NaN	521	0.209244779776782	1	1	NaN	1278072.6290144	NaN	1278073.6123783	1278074.12896552
2	21	0	0	90	36.1581920903955	36.241610738255	23	0.766743824016303	2	9	6	NaN	2	4	0.058938015802289	1	1	NaN	392	7	14	1	121	221	321	NaN	521	0.260661227395758	2	1	NaN	1278075.1459935	NaN	1278076.1293394	1278076.64586807
2	21	0	0	90	36.1581920903955	36.241610738255	0	0	1	8	3	NaN	2	4	0.058938015802289	1	1	NaN	393	7	15	1	111	211	311	NaN	511	0.387722643790767	2	1	NaN	1278078.3629287	NaN	1278079.3463102	1278079.86286316
2	21	0	0	90	36.1581920903955	36.241610738255	14	0.466713632009923	2	12	2	NaN	2	5	0.058938015802289	1	1	NaN	394	7	16	1	121	221	321	NaN	521	0.0104732755571604	2	1	NaN	1278081.3964104	NaN	1278082.3799317	1278082.89648952
2	21	0	0	90	36.1581920903955	36.241610738255	17	0.56672369601205	2	5	5	NaN	1	5	0.058938015802289	1	1	NaN	395	7	17	1	121	221	321	NaN	521	0.180234279716387	1	1	NaN	1278083.7301118	NaN	1278084.7134996	1278085.23004882
2	21	0	0	90	36.1581920903955	36.241610738255	6	0.200020128004253	2	7	6	NaN	2	4	0.058938015802289	1	1	NaN	396	7	18	1	121	221	321	NaN	521	0.693143727490678	2	1	NaN	1278086.6969514	NaN	1278087.6804744	1278088.19701017
2	21	0	0	90	36.1581920903955	36.241610738255	19	0.633397072013468	2	9	3	NaN	2	5	0.058938015802289	1	1	NaN	397	7	19	1	121	221	321	NaN	521	0.0103786794934422	2	1	NaN	1278090.2473869	NaN	1278091.2308026	1278091.74735802
2	21	0	0	90	36.1581920903955	36.241610738255	7	0.233356816004962	2	6	4	NaN	1	5	0.058938015802289	1	1	NaN	398	7	20	1	121	221	321	NaN	521	0.0494469273835421	1	1	NaN	1278092.5809772	NaN	1278093.5643742	1278094.08091337
2	21	0	0	90	36.1581920903955	36.241610738255	7	0.233356816004962	2	11	4	NaN	2	3	0.058938015802289	1	1	NaN	399	7	21	1	121	221	321	NaN	521	0.0104074275586754	2	1	NaN	1278094.9478841	NaN	1278095.9312674	1278096.44780597
2	21	0	0	90	36.1581920903955	36.241610738255	17	0.56672369601205	2	9	4	NaN	2	5	0.058938015802289	1	1	NaN	400	7	22	1	121	221	321	NaN	521	0.0104560274630785	2	1	NaN	1278097.8147764	NaN	1278098.7981993	1278099.31475747
2	21	0	0	90	36.1581920903955	36.241610738255	10	0.333366880007088	2	12	4	NaN	2	5	0.058938015802289	1	1	NaN	401	7	23	1	121	221	321	NaN	521	0.0104589273687452	2	1	NaN	1278100.1483351	NaN	1278101.1317681	1278101.64833377
2	21	0	0	90	36.1581920903955	36.241610738255	22	0.733407136015594	2	5	6	NaN	1	4	0.058938015802289	1	1	NaN	402	7	24	1	121	221	321	NaN	521	0.172804375644773	1	1	NaN	1278102.4819879	NaN	1278103.4653766	1278103.98188542
2	21	0	0	90	36.1581920903955	36.241610738255	8	0.266693504005671	2	4	6	NaN	1	5	0.058938015802289	1	1	NaN	403	7	25	1	121	221	321	NaN	521	0.536625479580835	1	1	NaN	1278104.9655214	NaN	1278105.9489141	1278106.46546992
2	21	0	0	90	36.1581920903955	36.241610738255	24	0.800080512017012	2	1	6	NaN	1	4	0.058938015802289	1	1	NaN	404	7	26	1	121	221	321	NaN	521	0.148610475473106	1	1	NaN	1278108.2657809	NaN	1278109.2492644	1278109.76580482
2	21	0	0	90	36.1581920903955	36.241610738255	6	0.200020128004253	2	9	1	NaN	2	5	0.058938015802289	1	1	NaN	405	7	27	1	121	221	321	NaN	521	0.0255114275496453	2	1	NaN	1278110.732864	NaN	1278111.7161566	1278112.23269057
2	21	0	0	90	36.1581920903955	36.241610738255	18	0.600060384012759	2	11	4	NaN	2	3	0.058938015802289	1	1	NaN	406	7	28	1	121	221	321	NaN	521	0.859266427578405	2	1	NaN	1278113.0829826	NaN	1278114.0664015	1278114.58293007
2	21	0	0	90	36.1581920903955	36.241610738255	6	0.200020128004253	2	11	1	NaN	2	4	0.058938015802289	1	1	NaN	407	7	29	1	121	221	321	NaN	521	0.259821727639064	2	1	NaN	1278116.2666461	NaN	1278117.2500343	1278117.76657807
2	21	0	0	90	36.1581920903955	36.241610738255	22	0.733407136015594	2	3	5	NaN	1	5	0.058938015802289	1	1	NaN	408	7	30	1	121	221	321	NaN	521	0.0104127754457295	1	1	NaN	1278118.8334249	NaN	1278119.8169596	1278120.33348802
2	21	0	0	90	36.1581920903955	36.241610738255	12	0.400040256008506	2	9	4	NaN	2	5	0.058938015802289	1	1	NaN	409	7	31	1	121	221	321	NaN	521	0.0103775798343122	2	1	NaN	1278121.1671103	NaN	1278122.1505147	1278122.66705912
2	21	0	0	90	36.1581920903955	36.241610738255	23	0.766743824016303	2	3	1	NaN	1	5	0.058938015802289	1	1	NaN	410	7	32	1	121	221	321	NaN	521	0.0104000275023282	1	1	NaN	1278123.9673708	NaN	1278124.9507789	1278125.46732347
2	21	0	0	90	36.1581920903955	36.241610738255	16	0.533387008011341	2	7	5	NaN	2	4	0.058938015802289	1	1	NaN	411	7	33	1	121	221	321	NaN	521	0.0104133756831288	2	1	NaN	1278126.2842856	NaN	1278127.2677082	1278127.78421512
2	21	0	0	90	36.1581920903955	36.241610738255	24	0.800080512017012	2	1	4	NaN	1	5	0.058938015802289	1	1	NaN	412	7	34	1	121	221	321	NaN	521	0.010472827591002	1	1	NaN	1278128.6178369	NaN	1278129.6012515	1278130.11779087
2	21	0	0	90	36.1581920903955	36.241610738255	7	0.233356816004962	2	5	1	NaN	1	3	0.058938015802289	1	1	NaN	413	7	35	1	121	221	321	NaN	521	0.0104462797753513	1	1	NaN	1278130.9513152	NaN	1278131.9348158	1278132.45135022
2	21	0	0	90	36.1581920903955	36.241610738255	22	0.733407136015594	2	7	4	NaN	2	4	0.058938015802289	1	1	NaN	414	7	36	1	121	221	321	NaN	521	0.0104124757926911	2	1	NaN	1278133.2849777	NaN	1278134.2684009	1278134.78491772
2	21	0	0	90	36.1581920903955	36.241610738255	22	0.733407136015594	2	1	4	NaN	1	5	0.058938015802289	1	1	NaN	415	7	37	1	121	221	321	NaN	521	0.852241927525029	1	1	NaN	1278135.6185491	NaN	1278136.601937	1278137.11847117
2	21	0	0	90	36.1581920903955	36.241610738255	9	0.300030192006379	2	6	5	NaN	1	3	0.058938015802289	1	1	NaN	416	7	38	1	121	221	321	NaN	521	0.188519735820591	2	0	NaN	1278138.8021851	NaN	1278139.7855493	1278140.30211996
2	21	0	0	90	36.1581920903955	36.241610738255	0	0	1	11	3	NaN	2	4	0.058938015802289	1	1	NaN	417	7	39	1	111	211	311	NaN	511	0.0104131754487753	1	0	NaN	1278141.3190982	NaN	1278142.3024805	1278142.81903632
2	21	0	0	90	36.1581920903955	36.241610738255	17	0.56672369601205	2	11	3	NaN	2	3	0.058938015802289	1	1	NaN	418	7	40	1	121	221	321	NaN	521	0.113820927450433	2	1	NaN	1278143.6526418	NaN	1278144.6360537	1278145.15259087
2	21	0	0	90	36.1581920903955	36.241610738255	23	0.766743824016303	2	11	3	NaN	2	5	0.058938015802289	1	1	NaN	419	7	41	1	121	221	321	NaN	521	0.0104647274129093	2	1	NaN	1278146.0862333	NaN	1278147.0695342	1278147.58616077
2	21	0	0	90	36.1581920903955	36.241610738255	20	0.666733760014176	2	12	5	NaN	2	5	0.058938015802289	1	1	NaN	420	7	42	1	121	221	321	NaN	521	0.29064682754688	2	1	NaN	1278148.4196534	NaN	1278149.4032135	1278149.91972897
2	21	0	0	90	36.1581920903955	36.241610738255	21	0.700070448014885	2	4	1	NaN	1	4	0.058938015802289	1	1	NaN	421	7	43	1	121	221	321	NaN	521	0.43463047966361	2	0	NaN	1278151.0200338	NaN	1278152.0034565	1278152.51998242
2	21	0	0	90	36.1581920903955	36.241610738255	24	0.800080512017012	2	6	5	NaN	1	4	0.058938015802289	1	1	NaN	422	7	44	1	121	221	321	NaN	521	0.444420075509697	1	1	NaN	1278153.7703381	NaN	1278154.7536996	1278155.27025182
2	21	0	0	90	36.1581920903955	36.241610738255	14	0.466713632009923	2	4	4	NaN	1	4	0.058938015802289	1	1	NaN	423	7	45	1	121	221	321	NaN	521	0.245634175604209	1	1	NaN	1278156.5372337	NaN	1278157.5206482	1278158.03718622
2	21	0	0	90	36.1581920903955	36.241610738255	25	0.83341720001772	2	10	5	NaN	2	4	0.058938015802289	1	1	NaN	424	7	46	1	121	221	321	NaN	521	0.0220510796643794	2	1	NaN	1278159.1041459	NaN	1278160.0875581	1278160.60413592
2	21	0	0	90	36.1581920903955	36.241610738255	10	0.333366880007088	2	8	4	NaN	2	4	0.058938015802289	1	1	NaN	425	7	47	1	121	221	321	NaN	521	0.0104606274981052	2	1	NaN	1278161.4377146	NaN	1278162.4210284	1278162.93767957
2	21	0	0	90	36.1581920903955	36.241610738255	13	0.433376944009215	2	2	1	NaN	1	3	0.058938015802289	1	1	NaN	426	7	48	1	121	221	321	NaN	521	0.315448627341539	2	0	NaN	1278163.7712979	NaN	1278164.7546776	1278165.27124007
2	21	0	0	90	36.1581920903955	36.241610738255	11	0.366703568007797	2	6	5	NaN	1	4	0.058938015802289	1	1	NaN	427	7	49	1	121	221	321	NaN	521	0.0104072755202651	1	1	NaN	1278166.4048636	NaN	1278167.38828	1278167.90482362
2	21	0	0	90	36.1581920903955	36.241610738255	24	0.800080512017012	2	2	4	NaN	1	3	0.058938015802289	1	1	NaN	428	7	50	1	121	221	321	NaN	521	0.0105038632173091	1	1	NaN	1278168.7216575	NaN	1278169.7051725	1278170.22171314
2	21	0	0	90	36.1581920903955	36.241610738255	8	0.266693504005671	2	2	1	NaN	1	5	0.058938015802289	1	1	NaN	429	7	51	1	121	221	321	NaN	521	0.0104301234241575	1	1	NaN	1278171.0553525	NaN	1278172.0387359	1278172.55527768
2	21	0	0	90	36.1581920903955	36.241610738255	13	0.433376944009215	2	12	4	NaN	2	4	0.058938015802289	1	1	NaN	430	7	52	1	121	221	321	NaN	521	0.0104466713964939	1	0	NaN	1278173.3888831	NaN	1278174.3722883	1278174.88884293
2	21	0	0	90	36.1581920903955	36.241610738255	19	0.633397072013468	2	2	1	NaN	1	3	0.058938015802289	1	1	NaN	431	7	53	1	121	221	321	NaN	521	0.203903127461672	1	1	NaN	1278175.7224521	NaN	1278176.7058894	1278177.22240367
2	21	0	0	90	36.1581920903955	36.241610738255	8	0.266693504005671	2	7	6	NaN	2	4	0.058938015802289	1	1	NaN	432	7	54	1	121	221	321	NaN	521	0.0104576274752617	2	1	NaN	1278178.2393788	NaN	1278179.2227839	1278179.73932587
2	21	0	0	90	36.1581920903955	36.241610738255	22	0.733407136015594	2	11	5	NaN	2	3	0.058938015802289	1	1	NaN	433	7	55	1	121	221	321	NaN	521	0.929499335587025	2	1	NaN	1278180.5729345	NaN	1278181.5563157	1278182.07288656
2	21	0	0	90	36.1581920903955	36.241610738255	15	0.500050320010632	2	9	4	NaN	2	4	0.058938015802289	1	1	NaN	434	7	56	1	121	221	321	NaN	521	0.0103970274794847	2	1	NaN	1278184.1066598	NaN	1278185.0900304	1278185.60656287
2	21	0	0	90	36.1581920903955	36.241610738255	25	0.83341720001772	2	5	2	NaN	1	3	0.058938015802289	1	1	NaN	435	7	57	1	121	221	321	NaN	521	0.0104415796231478	2	0	NaN	1278186.4401836	NaN	1278187.4235912	1278187.94012792
2	21	0	0	90	36.1581920903955	36.241610738255	15	0.500050320010632	2	3	2	NaN	1	4	0.058938015802289	1	1	NaN	436	7	58	1	121	221	321	NaN	521	0.369981575757265	2	0	NaN	1278189.3404565	NaN	1278190.3238834	1278190.84040202
2	21	0	0	90	36.1581920903955	36.241610738255	6	0.200020128004253	2	8	3	NaN	2	3	0.058938015802289	1	1	NaN	437	7	59	1	121	221	321	NaN	521	0.101611327612773	2	1	NaN	1278192.0407234	NaN	1278193.0241275	1278193.54067007
2	21	0	0	90	36.1581920903955	36.241610738255	21	0.700070448014885	2	10	4	NaN	2	5	0.058938015802289	1	1	NaN	438	7	60	1	121	221	321	NaN	521	1.02010733564384	2	1	NaN	1278194.4743054	NaN	1278195.4577204	1278195.97424936
2	21	0	0	90	36.1581920903955	36.241610738255	25	0.83341720001772	2	2	1	NaN	1	4	0.058938015802289	1	1	NaN	439	7	61	1	121	221	321	NaN	521	0.261839643586427	2	0	NaN	1278197.8247099	NaN	1278198.808064	1278199.32457386
2	21	0	0	90	36.1581920903955	36.241610738255	23	0.766743824016303	2	10	5	NaN	2	4	0.058938015802289	1	1	NaN	440	7	62	1	121	221	321	NaN	521	0.342200175393373	2	1	NaN	1278200.4082	NaN	1278201.3916567	1278201.90815802
2	21	0	0	90	36.1581920903955	36.241610738255	22	0.733407136015594	2	2	2	NaN	1	3	0.058938015802289	1	1	NaN	441	7	63	1	121	221	321	NaN	521	0.0103828876744956	1	1	NaN	1278203.0751663	NaN	1278204.0585646	1278204.57509081
2	21	0	0	90	36.1581920903955	36.241610738255	22	0.733407136015594	2	12	6	NaN	2	3	0.058938015802289	1	1	NaN	442	8	1	1	121	221	321	NaN	521	0.133745627477765	2	1	NaN	1278230.1611112	NaN	1278231.1445452	1278231.66108337
2	21	0	0	90	36.1581920903955	36.241610738255	13	0.433376944009215	2	5	5	NaN	1	4	0.058938015802289	1	1	NaN	443	8	2	1	121	221	321	NaN	521	0.135518327588215	2	0	NaN	1278234.0948384	NaN	1278235.07826	1278235.59480267
2	21	0	0	90	36.1581920903955	36.241610738255	12	0.400040256008506	2	7	4	NaN	2	4	0.058938015802289	1	1	NaN	444	8	3	1	121	221	321	NaN	521	0.189522879663855	2	1	NaN	1278236.5450874	NaN	1278237.5284839	1278238.04504432
2	21	0	0	90	36.1581920903955	36.241610738255	17	0.56672369601205	2	1	1	NaN	1	3	0.058938015802289	1	1	NaN	445	8	4	1	121	221	321	NaN	521	0.0811987838242203	2	0	NaN	1278239.0453363	NaN	1278240.0287478	1278240.54529332
2	21	0	0	90	36.1581920903955	36.241610738255	13	0.433376944009215	2	7	1	NaN	2	4	0.058938015802289	1	1	NaN	446	8	5	1	121	221	321	NaN	521	0.593198523391038	2	1	NaN	1278241.4455739	NaN	1278242.4290316	1278242.94553088
2	21	0	0	90	36.1581920903955	36.241610738255	9	0.300030192006379	2	7	1	NaN	2	5	0.058938015802289	1	1	NaN	447	8	6	1	121	221	321	NaN	521	0.292098675621673	2	1	NaN	1278244.3623965	NaN	1278245.34594	1278245.86248172
2	21	0	0	90	36.1581920903955	36.241610738255	18	0.600060384012759	2	5	1	NaN	1	3	0.058938015802289	1	1	NaN	448	8	7	1	121	221	321	NaN	521	0.0990537274628878	1	1	NaN	1278246.9794644	NaN	1278247.9628657	1278248.47939367
2	21	0	0	90	36.1581920903955	36.241610738255	19	0.633397072013468	2	4	6	NaN	1	5	0.058938015802289	1	1	NaN	449	8	8	1	121	221	321	NaN	521	0.553335723234341	1	1	NaN	1278249.4130111	NaN	1278250.3964383	1278250.91296938
2	21	0	0	90	36.1581920903955	36.241610738255	14	0.466713632009923	2	1	2	NaN	1	5	0.058938015802289	1	1	NaN	450	8	9	1	121	221	321	NaN	521	3.09904152736999	1	1	NaN	1278253.5634443	NaN	1278254.5467978	1278255.06337347
2	21	0	0	90	36.1581920903955	36.241610738255	10	0.333366880007088	2	7	4	NaN	2	5	0.058938015802289	1	1	NaN	451	8	10	1	121	221	321	NaN	521	0.217968087643385	2	1	NaN	1278258.9806409	NaN	1278259.9640632	1278260.48058101
2	21	0	0	90	36.1581920903955	36.241610738255	13	0.433376944009215	2	3	5	NaN	1	5	0.058938015802289	1	1	NaN	452	8	11	1	121	221	321	NaN	521	0.134266479639336	1	1	NaN	1278261.8642477	NaN	1278262.8476456	1278263.36419682
2	21	0	0	90	36.1581920903955	36.241610738255	0	0	1	12	4	NaN	2	4	0.058938015802289	1	1	NaN	453	8	12	1	111	211	311	NaN	511	0.403832527343184	2	1	NaN	1278264.3143719	NaN	1278265.2979076	1278265.81443617
2	21	0	0	90	36.1581920903955	36.241610738255	9	0.300030192006379	2	3	1	NaN	1	3	0.058938015802289	1	1	NaN	454	8	13	1	121	221	321	NaN	521	0.23114547948353	1	1	NaN	1278267.0314553	NaN	1278268.0148292	1278268.53136242
2	21	0	0	90	36.1581920903955	36.241610738255	15	0.500050320010632	2	2	6	NaN	1	3	0.058938015802289	1	1	NaN	455	8	14	1	121	221	321	NaN	521	0.201165375532582	1	1	NaN	1278269.5816793	NaN	1278270.5651005	1278271.08161362
2	21	0	0	90	36.1581920903955	36.241610738255	20	0.666733760014176	2	8	6	NaN	2	4	0.058938015802289	1	1	NaN	456	8	15	1	121	221	321	NaN	521	0.308371727587655	2	1	NaN	1278272.0984329	NaN	1278273.0820274	1278273.59852727
2	21	0	0	90	36.1581920903955	36.241610738255	7	0.233356816004962	2	1	5	NaN	1	5	0.058938015802289	1	1	NaN	457	8	16	1	121	221	321	NaN	521	0.0104805275332183	1	1	NaN	1278274.7321647	NaN	1278275.71559	1278276.23213157
2	21	0	0	90	36.1581920903955	36.241610738255	19	0.633397072013468	2	3	6	NaN	1	3	0.058938015802289	1	1	NaN	458	8	17	1	121	221	321	NaN	521	0.0104592274874449	1	1	NaN	1278277.065745	NaN	1278278.049148	1278278.56568817
2	21	0	0	90	36.1581920903955	36.241610738255	14	0.466713632009923	2	5	2	NaN	1	4	0.058938015802289	1	1	NaN	459	8	18	1	121	221	321	NaN	521	1.0230830356013	1	1	NaN	1278279.3993008	NaN	1278280.3827275	1278280.89925646
2	21	0	0	90	36.1581920903955	36.241610738255	19	0.633397072013468	2	6	2	NaN	1	3	0.058938015802289	1	1	NaN	460	8	19	1	121	221	321	NaN	521	0.329894527327269	1	1	NaN	1278282.7329798	NaN	1278283.7163566	1278284.23291657
2	21	0	0	90	36.1581920903955	36.241610738255	16	0.533387008011341	2	1	5	NaN	1	5	0.058938015802289	1	1	NaN	461	8	20	1	121	221	321	NaN	521	0.079246623441577	1	1	NaN	1278285.3832589	NaN	1278286.3666413	1278286.88316428
