subjno	age	gender	isPractice	viewdist	CmToPixX	CmToPixY	SOA_frm	SOA_time	targNum	targID	targExample	targRace	targGender	firstTargPos	contrast	familiarity	curr_staircase	iStair	TrialNum	BlockNum	blktrl	sessionNum	TC_FIXATION	TC_RSVP_START	TC_RSVP_END	TC_BLANK	TC_RESPONSE_ONSET	RT2afc	resp_2afc	acc	RSVPOnsetVBL	RSVPOnsetTime	RSVPOffsetVBL	RSVPOffsetTime	startrt_2afc
56	99	99	1	90	36.1581920903955	36.241610738255	0	0	1	9	1	NaN	2	3	0.0398107170553497	1	1	1	1	1	1	1	111	211	311	NaN	511	1.97298269206658	2	1	NaN	2680025.133922	NaN	2680026.1172775	2680026.65047401
56	99	99	1	90	36.1581920903955	36.241610738255	0	0	1	7	1	NaN	2	4	0.158489319246111	1	1	2	2	1	2	1	111	211	311	NaN	511	0.85438918042928	2	1	NaN	2680029.7009746	NaN	2680030.684423	2680031.21759262
56	99	99	1	90	36.1581920903955	36.241610738255	0	0	1	5	1	NaN	1	3	0.1	1	1	3	3	1	3	1	111	211	311	NaN	511	0.725916476920247	1	1	NaN	2680033.1180002	NaN	2680034.1013171	2680034.61791642
56	99	99	1	90	36.1581920903955	36.241610738255	0	0	1	11	1	NaN	2	3	0.251188643150958	1	1	4	4	1	4	1	111	211	311	NaN	511	0.779040940105915	2	1	NaN	2680036.3849646	NaN	2680037.3684064	2680037.88491906
56	99	99	1	90	36.1581920903955	36.241610738255	0	0	1	9	1	NaN	2	3	0.0630957344480193	1	1	5	5	1	5	1	111	211	311	NaN	511	0.554471996147186	2	1	NaN	2680039.5853477	NaN	2680040.5687973	2680041.0852341
56	99	99	1	90	36.1581920903955	36.241610738255	0	0	1	1	1	NaN	1	5	0.630957344480193	1	1	6	6	1	6	1	111	211	311	NaN	511	0.0952557250857353	1	1	NaN	2680042.6523519	NaN	2680043.6357791	2680044.15219817
56	99	99	1	90	36.1581920903955	36.241610738255	0	0	1	8	1	NaN	2	4	0.0158489319246111	1	1	7	7	1	7	1	111	211	311	NaN	511	0.467896976973861	1	0	NaN	2680045.3358895	NaN	2680046.31925	2680046.83578302
56	99	99	1	90	36.1581920903955	36.241610738255	0	0	1	1	1	NaN	1	5	0.398107170553497	1	1	8	8	1	8	1	111	211	311	NaN	511	0.408229376655072	1	1	NaN	2680048.2194534	NaN	2680049.202851	2680049.71940332
56	99	99	1	90	36.1581920903955	36.241610738255	0	0	1	8	1	NaN	2	3	0.158489319246111	1	1	9	9	1	9	1	111	211	311	NaN	511	0.429294492583722	2	1	NaN	2680051.086374	NaN	2680052.0698347	2680052.58635891
56	99	99	1	90	36.1581920903955	36.241610738255	0	0	1	6	1	NaN	1	3	0.398107170553497	1	1	10	10	1	10	1	111	211	311	NaN	511	0.393369976896793	1	1	NaN	2680053.9699893	NaN	2680054.9534447	2680055.46997712
56	99	99	1	90	36.1581920903955	36.241610738255	0	0	1	5	1	NaN	1	3	0.1	1	1	11	11	1	11	1	111	211	311	NaN	511	0.694933732505888	1	1	NaN	2680056.8369514	NaN	2680057.8203761	2680058.33691527
56	99	99	1	90	36.1581920903955	36.241610738255	0	0	1	8	1	NaN	2	3	0.0630957344480193	1	1	12	12	1	12	1	111	211	311	NaN	511	0.511907272972167	2	1	NaN	2680060.0039666	NaN	2680060.9873893	2680061.50389083
56	99	99	1	90	36.1581920903955	36.241610738255	0	0	1	4	1	NaN	1	4	0.0251188643150958	1	1	13	13	1	13	1	111	211	311	NaN	511	0.720634244382381	2	0	NaN	2680062.9709028	NaN	2680063.9543138	2680064.47086576
56	99	99	1	90	36.1581920903955	36.241610738255	0	0	1	3	1	NaN	1	4	0.0158489319246111	1	1	14	14	1	14	1	111	211	311	NaN	511	0.697539388667792	2	0	NaN	2680066.1377761	NaN	2680067.1212858	2680067.63784471
56	99	99	1	90	36.1581920903955	36.241610738255	0	0	1	3	1	NaN	1	5	0.630957344480193	1	1	15	15	1	15	1	111	211	311	NaN	511	0.420592577196658	1	1	NaN	2680069.2548567	NaN	2680070.2382648	2680070.75480312
56	99	99	1	90	36.1581920903955	36.241610738255	0	0	1	1	1	NaN	1	4	0.0398107170553497	1	1	16	16	1	16	1	111	211	311	NaN	511	0.529929276555777	1	1	NaN	2680072.1217815	NaN	2680073.1051998	2680073.62175602
56	99	99	1	90	36.1581920903955	36.241610738255	0	0	1	10	1	NaN	2	3	0.251188643150958	1	1	17	17	1	17	1	111	211	311	NaN	511	0.495108573231846	2	1	NaN	2680075.188849	NaN	2680076.1721904	2680076.68872583
56	99	99	1	90	36.1581920903955	36.241610738255	0	0	1	2	1	NaN	1	5	0.1	1	1	18	18	1	18	1	111	211	311	NaN	511	0.272657576948404	1	1	NaN	2680078.1389544	NaN	2680079.1224849	2680079.63900842
56	99	99	1	90	36.1581920903955	36.241610738255	0	0	1	9	1	NaN	2	5	0.0254369539980188	1	1	19	19	1	19	1	111	211	311	NaN	511	0.530939080752432	2	1	NaN	2680080.8726488	NaN	2680081.8561262	2680082.37262292
56	99	99	1	90	36.1581920903955	36.241610738255	0	0	1	3	1	NaN	1	3	0.0237580752566768	1	1	20	20	1	20	1	111	211	311	NaN	511	0.44320867722854	2	0	NaN	2680083.8563274	NaN	2680084.8397077	2680085.35623962
56	99	99	1	90	36.1581920903955	36.241610738255	0	0	1	6	1	NaN	1	5	0.0265278364817088	1	1	21	21	1	21	1	111	211	311	NaN	511	0.632273776922375	1	1	NaN	2680086.7232739	NaN	2680087.7066311	2680088.22319242
56	99	99	1	90	36.1581920903955	36.241610738255	0	0	1	6	1	NaN	1	4	0.024837316511105	1	1	22	22	1	22	1	111	211	311	NaN	511	0.602044984698296	1	1	NaN	2680089.8735298	NaN	2680090.8569577	2680091.37349872
56	99	99	1	90	36.1581920903955	36.241610738255	0	0	1	12	1	NaN	2	5	0.0233298343547048	1	1	23	23	1	23	1	111	211	311	NaN	511	0.502003977075219	1	0	NaN	2680092.9738759	NaN	2680093.9572687	2680094.47381092
56	99	99	1	90	36.1581920903955	36.241610738255	0	0	1	5	1	NaN	1	3	0.0257808780895171	1	1	24	24	1	24	1	111	211	311	NaN	511	0.728592040017247	1	1	NaN	2680095.8908096	NaN	2680096.8742368	2680097.39076126
56	99	99	1	90	36.1581920903955	36.241610738255	0	0	1	8	1	NaN	2	5	0.0242592398164846	1	1	25	25	1	25	1	111	211	311	NaN	511	0.442707177251577	1	0	NaN	2680099.0411146	NaN	2680100.0245262	2680100.54106462
56	99	99	1	90	36.1581920903955	36.241610738255	0	0	1	11	1	NaN	2	3	0.0267298626476088	1	1	26	26	1	26	1	111	211	311	NaN	511	1.15053247706965	1	0	NaN	2680101.9247231	NaN	2680102.9081475	2680103.42468282
56	99	99	1	90	36.1581920903955	36.241610738255	0	0	1	2	1	NaN	1	3	0.0295250274276992	1	1	27	27	1	27	1	111	211	311	NaN	511	0.799654976930469	2	0	NaN	2680105.4917692	NaN	2680106.4751585	2680106.99169852
56	99	99	1	90	36.1581920903955	36.241610738255	0	0	1	1	1	NaN	1	4	0.0326587522938278	1	1	28	28	1	28	1	111	211	311	NaN	511	0.660016092471778	1	1	NaN	2680108.7754296	NaN	2680109.7588353	2680110.27536611
56	99	99	1	90	36.1581920903955	36.241610738255	0	0	1	11	1	NaN	2	5	0.0307463797882195	1	1	29	29	1	29	1	111	211	311	NaN	511	0.744664677418768	1	0	NaN	2680111.8590434	NaN	2680112.8424485	2680113.35899232
56	99	99	1	90	36.1581920903955	36.241610738255	0	0	1	7	1	NaN	2	3	0.0338531421631208	1	1	30	30	1	30	1	111	211	311	NaN	511	0.40031198086217	2	1	NaN	2680115.0593801	NaN	2680116.042756	2680116.55930452
56	99	99	1	90	36.1581920903955	36.241610738255	0	0	1	1	1	NaN	1	4	0.0319357797593267	1	1	31	31	1	31	1	111	211	311	NaN	511	0.829615972936153	1	1	NaN	2680117.9263525	NaN	2680118.9097067	2680119.42625963
56	99	99	1	90	36.1581920903955	36.241610738255	0	0	1	12	1	NaN	2	3	0.0302207195146716	1	1	32	32	1	32	1	111	211	311	NaN	511	0.730646376963705	1	0	NaN	2680121.1933099	NaN	2680122.1767052	2680122.69324602
56	99	99	1	90	36.1581920903955	36.241610738255	0	0	1	7	1	NaN	2	4	0.0329657743523041	1	1	33	33	1	33	1	111	211	311	NaN	511	0.698516476899385	1	0	NaN	2680124.3767953	NaN	2680125.3603934	2680125.87689112
56	99	99	1	90	36.1581920903955	36.241610738255	0	0	1	4	1	NaN	1	3	0.0360673893542895	1	1	34	34	1	34	1	111	211	311	NaN	511	0.618714476935565	1	1	NaN	2680127.5772503	NaN	2680128.5607053	2680129.07720092
56	99	99	1	90	36.1581920903955	36.241610738255	0	0	1	8	1	NaN	2	4	0.034119960216707	1	1	35	35	1	35	1	111	211	311	NaN	511	0.454271744005382	2	1	NaN	2680130.677549	NaN	2680131.6609648	2680132.17751896
56	99	99	1	90	36.1581920903955	36.241610738255	0	0	1	6	1	NaN	1	4	0.0323804613366879	1	1	36	36	1	36	1	111	211	311	NaN	511	0.49085162486881	2	0	NaN	2680133.5612118	NaN	2680134.5446417	2680135.06112248
56	99	99	1	90	36.1581920903955	36.241610738255	0	0	1	12	1	NaN	2	5	0.0351368185025239	1	1	37	37	1	37	1	111	211	311	NaN	511	0.525299644097686	2	1	NaN	2680136.4781125	NaN	2680137.4615608	2680137.97808916
56	99	99	1	90	36.1581920903955	36.241610738255	0	0	1	10	1	NaN	2	3	0.0333783678196192	1	1	38	38	1	38	1	111	211	311	NaN	511	0.0104843769222498	1	0	NaN	2680139.4616303	NaN	2680140.4451632	2680140.96170482
56	99	99	1	90	36.1581920903955	36.241610738255	0	0	1	2	1	NaN	1	3	0.0361544922516334	1	1	39	39	1	39	1	111	211	311	NaN	511	0.166825343854725	1	1	NaN	2680142.0286264	NaN	2680143.0120708	2680143.52863406
56	99	99	1	90	36.1581920903955	36.241610738255	0	0	1	4	1	NaN	1	3	0.0343744284167366	1	1	40	40	1	40	1	111	211	311	NaN	511	0.119211372919381	1	1	NaN	2680144.612262	NaN	2680145.595676	2680146.11220803
56	99	99	1	90	36.1581920903955	36.241610738255	0	0	1	10	1	NaN	2	4	0.0327816531790421	1	1	41	41	1	41	1	111	211	311	NaN	511	0.426819276995957	1	0	NaN	2680147.3291871	NaN	2680148.3126136	2680148.82915722
56	99	99	1	90	36.1581920903955	36.241610738255	0	0	1	3	1	NaN	1	4	0.0352722315029372	1	1	42	42	1	42	1	111	211	311	NaN	511	0.496534788049757	1	1	NaN	2680150.1795023	NaN	2680151.1628675	2680151.67943801
56	99	99	1	90	36.1581920903955	36.241610738255	0	0	1	5	1	NaN	1	4	0.0336568350242234	1	1	43	43	1	43	1	111	211	311	NaN	511	0.117308188229799	1	1	NaN	2680153.4464545	NaN	2680154.4298623	2680154.94642531
56	99	99	1	90	36.1581920903955	36.241610738255	0	0	1	1	1	NaN	1	5	0.0322074614542819	1	1	44	44	1	44	1	111	211	311	NaN	511	0.361224276944995	1	1	NaN	2680156.1467203	NaN	2680157.1301562	2680157.64668432
56	99	99	1	90	36.1581920903955	36.241610738255	0	0	1	8	1	NaN	2	4	0.0309026349992939	1	1	45	45	1	45	1	111	211	311	NaN	511	0.164037276990712	2	1	NaN	2680159.0636974	NaN	2680160.0470703	2680160.56363372
56	99	99	1	90	36.1581920903955	36.241610738255	0	0	1	2	1	NaN	1	5	0.0297239456244367	1	1	46	46	1	46	1	111	211	311	NaN	511	0.173046932555735	1	1	NaN	2680161.6306247	NaN	2680162.6140168	2680163.13055637
56	99	99	1	90	36.1581920903955	36.241610738255	0	0	1	2	1	NaN	1	3	0.0286556006856849	1	1	47	47	1	47	1	111	211	311	NaN	511	0.477541277185082	1	1	NaN	2680164.2141873	NaN	2680165.1975933	2680165.71414652
56	99	99	1	90	36.1581920903955	36.241610738255	0	0	1	11	1	NaN	2	5	0.0276840378177584	1	1	48	48	1	48	1	111	211	311	NaN	511	0.453815177083015	1	0	NaN	2680167.1971463	NaN	2680168.1811966	2680168.69776992
56	99	99	1	90	36.1581920903955	36.241610738255	0	0	1	11	1	NaN	2	4	0.0291666320651523	1	1	49	49	1	49	1	111	211	311	NaN	511	0.714148292317986	1	0	NaN	2680170.0814312	NaN	2680171.0648483	2680171.58139001
56	99	99	1	90	36.1581920903955	36.241610738255	0	0	1	10	1	NaN	2	3	0.0308272421265393	1	1	50	50	1	50	1	111	211	311	NaN	511	0.566786076873541	1	0	NaN	2680173.5650141	NaN	2680174.5485018	2680175.06505362
56	99	99	1	90	36.1581920903955	36.241610738255	0	0	1	11	1	NaN	2	3	0.0326967062729699	1	1	51	51	1	51	1	111	211	311	NaN	511	0.481189884711057	2	1	NaN	2680176.8987885	NaN	2680177.8821783	2680178.39872112
56	99	99	1	90	36.1581920903955	36.241610738255	0	0	1	9	1	NaN	2	4	0.0314580142913604	1	1	52	52	1	52	1	111	211	311	NaN	511	0.47732657706365	1	0	NaN	2680180.1824037	NaN	2680181.1658482	2680181.68237052
56	99	99	1	90	36.1581920903955	36.241610738255	0	0	1	2	1	NaN	1	4	0.0333566822796066	1	1	53	53	1	53	1	111	211	311	NaN	511	0.626005392055959	1	1	NaN	2680183.0660592	NaN	2680184.0494471	2680184.56599151
56	99	99	1	90	36.1581920903955	36.241610738255	0	0	1	7	1	NaN	2	3	0.0320968181020588	1	1	54	54	1	54	1	111	211	311	NaN	511	0.403171196114272	2	1	NaN	2680186.4163666	NaN	2680187.3998026	2680187.9163312
56	99	99	1	90	36.1581920903955	36.241610738255	0	0	1	12	1	NaN	2	4	0.0309575856724956	1	1	55	55	1	55	1	111	211	311	NaN	511	0.481801576912403	1	0	NaN	2680189.2500152	NaN	2680190.2333945	2680190.74992592
56	99	99	1	90	36.1581920903955	36.241610738255	0	0	1	5	1	NaN	1	5	0.0326954927874984	1	1	56	56	1	56	1	111	211	311	NaN	511	0.66201947722584	1	1	NaN	2680192.1336308	NaN	2680193.1170541	2680193.63354262
56	99	99	1	90	36.1581920903955	36.241610738255	0	0	1	12	1	NaN	2	3	0.031536524513511	1	1	57	57	1	57	1	111	211	311	NaN	511	0.595174677204341	2	1	NaN	2680195.2005699	NaN	2680196.1839781	2680196.70052262
56	99	99	1	90	36.1581920903955	36.241610738255	0	0	1	7	1	NaN	2	5	0.0304853831607182	1	1	58	58	1	58	1	111	211	311	NaN	511	0.442395436111838	2	1	NaN	2680198.2175733	NaN	2680199.2009446	2680199.71749106
56	99	99	1	90	36.1581920903955	36.241610738255	0	0	1	6	1	NaN	1	3	0.0295286785206075	1	1	59	59	1	59	1	111	211	311	NaN	511	0.522479476872832	1	1	NaN	2680201.2011678	NaN	2680202.1845705	2680202.70110652
56	99	99	1	90	36.1581920903955	36.241610738255	0	0	1	6	1	NaN	1	4	0.0286549370166528	1	1	60	60	1	60	1	111	211	311	NaN	511	0.548314384650439	1	1	NaN	2680204.1514425	NaN	2680205.1348692	2680205.65139932
56	99	99	1	90	36.1581920903955	36.241610738255	0	0	1	7	1	NaN	2	3	0.0278543052161045	1	1	61	61	1	61	1	111	211	311	NaN	511	0.6213493286632	1	0	NaN	2680207.1184383	NaN	2680208.1017994	2680208.61835557
56	99	99	1	90	36.1581920903955	36.241610738255	0	0	1	4	1	NaN	1	4	0.0290616898967065	1	1	62	62	1	62	1	111	211	311	NaN	511	0.603992884512991	1	1	NaN	2680210.1520253	NaN	2680211.1354482	2680211.65199072
56	99	99	1	90	36.1581920903955	36.241610738255	0	0	1	10	1	NaN	2	4	0.0282481350811513	1	1	63	63	1	63	1	111	211	311	NaN	511	0.551784576848149	2	1	NaN	2680213.2523765	NaN	2680214.2357471	2680214.75229632
56	99	99	1	90	36.1581920903955	36.241610738255	0	0	1	10	1	NaN	2	5	0.0275006812160071	1	1	64	64	1	64	1	111	211	311	NaN	511	0.561007540207356	1	0	NaN	2680216.202629	NaN	2680217.1860347	2680217.70258586
56	99	99	1	90	36.1581920903955	36.241610738255	0	0	1	3	1	NaN	1	5	0.0286253727449101	1	1	65	65	1	65	1	111	211	311	NaN	511	0.56175148114562	1	1	NaN	2680219.1862767	NaN	2680220.1696703	2680220.68621402
56	99	99	1	90	36.1581920903955	36.241610738255	0	0	1	4	1	NaN	1	3	0.0278660061958127	1	1	66	66	1	66	1	111	211	311	NaN	511	0.551631176844239	1	1	NaN	2680222.2365393	NaN	2680223.2199322	2680223.73650682
56	99	99	1	90	36.1581920903955	36.241610738255	0	0	1	12	1	NaN	2	5	0.0271665422985073	1	1	67	67	1	67	1	111	211	311	NaN	511	0.596344177145511	2	1	NaN	2680225.3035217	NaN	2680226.2869599	2680226.80347992
56	99	99	1	90	36.1581920903955	36.241610738255	0	0	1	3	1	NaN	1	5	0.0265202845378118	1	1	68	68	1	68	1	111	211	311	NaN	511	0.485342384316027	1	1	NaN	2680228.6704052	NaN	2680229.6539472	2680230.17047352
56	99	99	1	90	36.1581920903955	36.241610738255	0	0	1	9	1	NaN	2	4	0.0259214302433933	1	1	69	69	1	69	1	111	211	311	NaN	511	0.614113528747112	1	0	NaN	2680231.8374976	NaN	2680232.8209341	2680233.33745417
56	99	99	1	90	36.1581920903955	36.241610738255	0	0	1	4	1	NaN	1	4	0.0268186862701677	1	1	70	70	1	70	1	111	211	311	NaN	511	0.608944580890238	1	1	NaN	2680234.9711212	NaN	2680235.9545464	2680236.47109162
56	99	99	1	90	36.1581920903955	36.241610738255	0	0	1	5	1	NaN	1	3	0.0262110444738626	1	1	71	71	1	71	1	111	211	311	NaN	511	0.751068680547178	1	1	NaN	2680238.0047754	NaN	2680238.988177	2680239.50472022
56	99	99	1	90	36.1581920903955	36.241610738255	0	0	1	9	1	NaN	2	5	0.0256466903517738	1	1	72	72	1	72	1	111	211	311	NaN	511	0.46756457304582	2	1	NaN	2680241.2884129	NaN	2680242.2718635	2680242.78837603
