subjno	age	gender	isPractice	viewdist	CmToPixX	CmToPixY	SOA_frm	SOA_time	targNum	targID	targExample	targRace	targGender	firstTargPos	contrast	familiarity	curr_staircase	iStair	TrialNum	BlockNum	blktrl	sessionNum	TC_FIXATION	TC_RSVP_START	TC_RSVP_END	TC_BLANK	TC_RESPONSE_ONSET	RT2afc	resp_2afc	acc	RSVPOnsetVBL	RSVPOnsetTime	RSVPOffsetVBL	RSVPOffsetTime	startrt_2afc
56	19	0	0	90	36.1581920903955	36.241610738255	18	0.600042096041143	2	1	2	NaN	1	4	0.0251211088865766	0	1	NaN	1	1	1	2	120	220	320	NaN	520	0.881676927674562	1	1	NaN	2681958.5406116	NaN	2681959.5238683	2681960.05697997
56	19	0	0	90	36.1581920903955	36.241610738255	10	0.333356720022857	2	7	3	NaN	2	5	0.0251211088865766	0	1	NaN	2	1	2	2	120	220	320	NaN	520	0.831062027253211	1	0	NaN	2681961.7909185	NaN	2681962.7741548	2681963.30729947
56	19	0	0	90	36.1581920903955	36.241610738255	16	0.533370752036571	2	9	1	NaN	2	4	0.0251211088865766	0	1	NaN	3	1	3	2	120	220	320	NaN	520	0.792507094796747	2	1	NaN	2681964.9576603	NaN	2681965.9410539	2681966.45761481
56	19	0	0	90	36.1581920903955	36.241610738255	13	0.433363736029714	2	12	1	NaN	2	5	0.0251211088865766	0	1	NaN	4	1	4	2	120	220	320	NaN	520	0.812029117252678	2	1	NaN	2681968.0746206	NaN	2681969.0580256	2681969.57457718
56	19	0	0	90	36.1581920903955	36.241610738255	6	0.200014032013714	2	7	4	NaN	2	5	0.0251211088865766	0	1	NaN	5	1	5	2	120	220	320	NaN	520	0.533908022101969	1	0	NaN	2681971.2082835	NaN	2681972.1916938	2681972.70822008
56	19	0	0	90	36.1581920903955	36.241610738255	0	0	1	9	2	NaN	2	3	0.0251211088865766	0	1	NaN	6	1	6	2	110	210	310	NaN	510	0.819587870035321	1	0	NaN	2681974.0586518	NaN	2681975.0419359	2681975.55850123
56	19	0	0	90	36.1581920903955	36.241610738255	16	0.533370752036571	2	3	4	NaN	1	5	0.0251211088865766	0	1	NaN	7	1	7	2	120	220	320	NaN	520	0.485432117246091	2	0	NaN	2681977.2088756	NaN	2681978.1922556	2681978.70880268
56	19	0	0	90	36.1581920903955	36.241610738255	24	0.800056128054857	2	6	4	NaN	1	4	0.0251211088865766	0	1	NaN	8	1	8	2	120	220	320	NaN	520	0.733163970056921	1	1	NaN	2681980.0090566	NaN	2681980.9925335	2681981.50907603
56	19	0	0	90	36.1581920903955	36.241610738255	25	0.833391800057143	2	2	3	NaN	1	5	0.0251211088865766	0	1	NaN	9	1	9	2	120	220	320	NaN	520	0.691129790153354	2	0	NaN	2681983.0594603	NaN	2681984.0428245	2681984.55938201
56	19	0	0	90	36.1581920903955	36.241610738255	13	0.433363736029714	2	6	2	NaN	1	3	0.0251211088865766	0	1	NaN	10	1	10	2	120	220	320	NaN	520	0.690079370047897	1	1	NaN	2681986.0764126	NaN	2681987.0597946	2681987.57634213
56	19	0	0	90	36.1581920903955	36.241610738255	20	0.666713440045714	2	1	2	NaN	1	3	0.0251211088865766	0	1	NaN	11	1	11	2	120	220	320	NaN	520	0.576935811899602	2	0	NaN	2681989.0933756	NaN	2681990.0767628	2681990.59330179
56	19	0	0	90	36.1581920903955	36.241610738255	15	0.500035080034286	2	3	5	NaN	1	3	0.0251211088865766	0	1	NaN	12	1	12	2	120	220	320	NaN	520	0.740927574690431	1	1	NaN	2681991.9936406	NaN	2681992.9770291	2681993.49360053
56	19	0	0	90	36.1581920903955	36.241610738255	25	0.833391800057143	2	12	3	NaN	2	3	0.0251211088865766	0	1	NaN	13	1	13	2	120	220	320	NaN	520	0.850500479806215	1	0	NaN	2681995.0439267	NaN	2681996.0273641	2681996.54388742
56	19	0	0	90	36.1581920903955	36.241610738255	23	0.766720456052571	2	12	2	NaN	2	5	0.0251211088865766	0	1	NaN	14	1	14	2	120	220	320	NaN	520	0.811399769969285	1	0	NaN	2681998.210919	NaN	2681999.1943164	2681999.71086503
56	19	0	0	90	36.1581920903955	36.241610738255	9	0.300021048020571	2	5	2	NaN	1	5	0.0251211088865766	0	1	NaN	15	1	15	2	120	220	320	NaN	520	0.629711169749498	1	1	NaN	2682001.7446329	NaN	2682002.7279946	2682003.24455553
56	19	0	0	90	36.1581920903955	36.241610738255	8	0.266685376018286	2	2	4	NaN	1	5	0.0251211088865766	0	1	NaN	16	1	16	2	120	220	320	NaN	520	0.703697822056711	1	1	NaN	2682004.6948891	NaN	2682005.6782914	2682006.19484218
56	19	0	0	90	36.1581920903955	36.241610738255	10	0.333356720022857	2	12	1	NaN	2	5	0.0251211088865766	0	1	NaN	17	1	17	2	120	220	320	NaN	520	0.662564442493021	2	1	NaN	2682007.7118681	NaN	2682008.6952477	2682009.21181166
56	19	0	0	90	36.1581920903955	36.241610738255	12	0.400028064027429	2	6	3	NaN	1	4	0.0251211088865766	0	1	NaN	18	1	18	2	120	220	320	NaN	520	0.542733221780509	1	1	NaN	2682010.6954783	NaN	2682011.6788627	2682012.19543598
56	19	0	0	90	36.1581920903955	36.241610738255	14	0.466699408032	2	5	4	NaN	1	4	0.0251211088865766	0	1	NaN	19	1	19	2	120	220	320	NaN	520	0.923977222293615	1	1	NaN	2682013.5624561	NaN	2682014.5458261	2682015.06237598
56	19	0	0	90	36.1581920903955	36.241610738255	21	0.700049112048	2	5	6	NaN	1	4	0.0251211088865766	0	1	NaN	20	1	20	2	120	220	320	NaN	520	0.697603827342391	1	1	NaN	2682016.8127476	NaN	2682017.7961464	2682018.31270047
56	19	0	0	90	36.1581920903955	36.241610738255	16	0.533370752036571	2	6	2	NaN	1	4	0.0251211088865766	0	1	NaN	21	1	21	2	120	220	320	NaN	520	0.528555621858686	1	1	NaN	2682019.8297174	NaN	2682020.813107	2682021.32966198
56	19	0	0	90	36.1581920903955	36.241610738255	13	0.433363736029714	2	7	5	NaN	2	5	0.0251211088865766	0	1	NaN	22	1	22	2	120	220	320	NaN	520	0.87026712205261	2	1	NaN	2682022.6799899	NaN	2682023.6633807	2682024.17993798
56	19	0	0	90	36.1581920903955	36.241610738255	16	0.533370752036571	2	10	4	NaN	2	5	0.0251211088865766	0	1	NaN	23	1	23	2	120	220	320	NaN	520	0.751029669772834	2	1	NaN	2682025.8636509	NaN	2682026.847029	2682027.36358943
56	19	0	0	90	36.1581920903955	36.241610738255	6	0.200014032013714	2	2	5	NaN	1	3	0.0251211088865766	0	1	NaN	24	1	24	2	120	220	320	NaN	520	0.724047617521137	1	1	NaN	2682028.9306187	NaN	2682029.9139981	2682030.43055328
56	19	0	0	90	36.1581920903955	36.241610738255	7	0.233349704016	2	3	2	NaN	1	5	0.0251211088865766	0	1	NaN	25	1	25	2	120	220	320	NaN	520	0.705585579853505	1	1	NaN	2682031.9808928	NaN	2682032.9642837	2682033.48085812
56	19	0	0	90	36.1581920903955	36.241610738255	9	0.300021048020571	2	7	3	NaN	2	4	0.0251211088865766	0	1	NaN	26	1	26	2	120	220	320	NaN	520	0.711909869685769	1	0	NaN	2682035.0145312	NaN	2682035.9979227	2682036.51447723
56	19	0	0	90	36.1581920903955	36.241610738255	14	0.466699408032	2	3	4	NaN	1	5	0.0251211088865766	0	1	NaN	27	1	27	2	120	220	320	NaN	520	0.654039521701634	1	1	NaN	2682038.0481642	NaN	2682039.0315624	2682039.54810968
56	19	0	0	90	36.1581920903955	36.241610738255	21	0.700049112048	2	9	4	NaN	2	3	0.0251211088865766	0	1	NaN	28	1	28	2	120	220	320	NaN	520	0.886651922482997	2	1	NaN	2682041.031788	NaN	2682042.0152594	2682042.53174318
56	19	0	0	90	36.1581920903955	36.241610738255	13	0.433363736029714	2	5	3	NaN	1	4	0.0251211088865766	0	1	NaN	29	1	29	2	120	220	320	NaN	520	0.686594922095537	1	1	NaN	2682044.2321222	NaN	2682045.215496	2682045.73204778
56	19	0	0	90	36.1581920903955	36.241610738255	15	0.500035080034286	2	5	2	NaN	1	4	0.0251211088865766	0	1	NaN	30	1	30	2	120	220	320	NaN	520	0.878148221876472	1	1	NaN	2682047.2323915	NaN	2682048.2158063	2682048.73234968
56	19	0	0	90	36.1581920903955	36.241610738255	19	0.633377768043429	2	3	2	NaN	1	5	0.0251211088865766	0	1	NaN	31	1	31	2	120	220	320	NaN	520	1.18154877005145	1	1	NaN	2682050.4327127	NaN	2682051.4161006	2682051.93266063
56	19	0	0	90	36.1581920903955	36.241610738255	15	0.500035080034286	2	8	6	NaN	2	3	0.0251211088865766	0	1	NaN	32	1	32	2	120	220	320	NaN	520	0.729630247689784	1	0	NaN	2682053.9330491	NaN	2682054.9164452	2682055.43302075
56	19	0	0	90	36.1581920903955	36.241610738255	11	0.366692392025143	2	3	6	NaN	1	5	0.0251211088865766	0	1	NaN	33	1	33	2	120	220	320	NaN	520	0.566789521835744	2	0	NaN	2682056.9833756	NaN	2682057.9667525	2682058.48330308
56	19	0	0	90	36.1581920903955	36.241610738255	21	0.700049112048	2	7	5	NaN	2	5	0.0251211088865766	0	1	NaN	34	1	34	2	120	220	320	NaN	520	0.699379870202392	1	0	NaN	2682059.8669682	NaN	2682060.8503697	2682061.36692723
56	19	0	0	90	36.1581920903955	36.241610738255	14	0.466699408032	2	12	6	NaN	2	4	0.0251211088865766	0	1	NaN	35	1	35	2	120	220	320	NaN	520	0.79463932197541	2	1	NaN	2682062.8839403	NaN	2682063.8673347	2682064.38388688
56	19	0	0	90	36.1581920903955	36.241610738255	21	0.700049112048	2	10	5	NaN	2	5	0.0251211088865766	0	1	NaN	36	1	36	2	120	220	320	NaN	520	0.565696170087904	1	0	NaN	2682066.0009087	NaN	2682066.9843154	2682067.50086373
56	19	0	0	90	36.1581920903955	36.241610738255	20	0.666713440045714	2	12	2	NaN	2	4	0.0251211088865766	0	1	NaN	37	1	37	2	120	220	320	NaN	520	0.818055574782193	1	0	NaN	2682068.8845285	NaN	2682069.867897	2682070.38447193
56	19	0	0	90	36.1581920903955	36.241610738255	15	0.500035080034286	2	12	3	NaN	2	4	0.0251211088865766	0	1	NaN	38	1	38	2	120	220	320	NaN	520	0.6887670699507	1	0	NaN	2682072.5015288	NaN	2682073.4849584	2682074.00149093
56	19	0	0	90	36.1581920903955	36.241610738255	25	0.833391800057143	2	8	2	NaN	2	3	0.0251211088865766	0	1	NaN	39	1	39	2	120	220	320	NaN	520	0.568717869929969	2	1	NaN	2682075.5018567	NaN	2682076.4852341	2682077.00179383
56	19	0	0	90	36.1581920903955	36.241610738255	13	0.433363736029714	2	4	3	NaN	1	3	0.0251211088865766	0	1	NaN	40	1	40	2	120	220	320	NaN	520	0.572955522220582	1	1	NaN	2682078.3854605	NaN	2682079.3688461	2682079.88540648
56	19	0	0	90	36.1581920903955	36.241610738255	22	0.733384784050286	2	4	1	NaN	1	3	0.0251211088865766	0	1	NaN	41	1	41	2	120	220	320	NaN	520	0.697257527150214	1	1	NaN	2682081.2690916	NaN	2682082.2523614	2682082.76902767
56	19	0	0	90	36.1581920903955	36.241610738255	24	0.800056128054857	2	3	5	NaN	1	4	0.0251211088865766	0	1	NaN	42	1	42	2	120	220	320	NaN	520	0.488614822272211	1	1	NaN	2682084.2860439	NaN	2682085.2694356	2682085.78600298
56	19	0	0	90	36.1581920903955	36.241610738255	7	0.233349704016	2	2	1	NaN	1	4	0.0251211088865766	0	1	NaN	43	1	43	2	120	220	320	NaN	520	0.464167269878089	2	0	NaN	2682087.0863013	NaN	2682088.0697131	2682088.58625543
56	19	0	0	90	36.1581920903955	36.241610738255	8	0.266685376018286	2	3	4	NaN	1	5	0.0251211088865766	0	1	NaN	44	1	44	2	120	220	320	NaN	520	0.0884859701618552	1	1	NaN	2682089.8699166	NaN	2682090.8533294	2682091.36987003
56	19	0	0	90	36.1581920903955	36.241610738255	24	0.800056128054857	2	9	2	NaN	2	3	0.0251211088865766	0	1	NaN	45	1	45	2	120	220	320	NaN	520	0.0104024223983288	1	0	NaN	2682092.2701334	NaN	2682093.2535401	2682093.77010848
56	19	0	0	90	36.1581920903955	36.241610738255	20	0.666713440045714	2	6	5	NaN	1	5	0.0251211088865766	0	1	NaN	46	1	46	2	120	220	320	NaN	520	0.0104108699597418	1	1	NaN	2682094.5870487	NaN	2682095.5704384	2682096.08699013
56	19	0	0	90	36.1581920903955	36.241610738255	11	0.366692392025143	2	12	3	NaN	2	4	0.0251211088865766	0	1	NaN	47	1	47	2	120	220	320	NaN	520	0.20576881757006	2	1	NaN	2682096.9207047	NaN	2682097.9040028	2682098.42055588
56	19	0	0	90	36.1581920903955	36.241610738255	7	0.233349704016	2	10	2	NaN	2	3	0.0251211088865766	0	1	NaN	48	1	48	2	120	220	320	NaN	520	0.0103753749281168	1	0	NaN	2682099.4374053	NaN	2682100.4209056	2682100.93747853
56	19	0	0	90	36.1581920903955	36.241610738255	20	0.666713440045714	2	11	3	NaN	2	3	0.0251211088865766	0	1	NaN	49	1	49	2	120	220	320	NaN	520	0.675809142645448	2	1	NaN	2682101.7544202	NaN	2682102.7377949	2682103.25437506
56	19	0	0	90	36.1581920903955	36.241610738255	6	0.200014032013714	2	7	5	NaN	2	5	0.0251211088865766	0	1	NaN	50	1	50	2	120	220	320	NaN	520	0.0103937219828367	1	0	NaN	2682104.7380389	NaN	2682105.721458	2682106.23799988
56	19	0	0	90	36.1581920903955	36.241610738255	24	0.800056128054857	2	2	3	NaN	1	4	0.0251211088865766	0	1	NaN	51	1	51	2	120	220	320	NaN	520	0.631345322355628	2	0	NaN	2682107.0549228	NaN	2682108.0383396	2682108.55488518
56	19	0	0	90	36.1581920903955	36.241610738255	6	0.200014032013714	2	8	3	NaN	2	3	0.0251211088865766	0	1	NaN	52	1	52	2	120	220	320	NaN	520	0.26501142187044	1	0	NaN	2682110.0052196	NaN	2682110.9886232	2682111.50517208
56	19	0	0	90	36.1581920903955	36.241610738255	24	0.800056128054857	2	2	3	NaN	1	4	0.0251211088865766	0	1	NaN	53	1	53	2	120	220	320	NaN	520	0.553563721943647	1	1	NaN	2682112.5888014	NaN	2682113.5721949	2682114.08877628
56	19	0	0	90	36.1581920903955	36.241610738255	22	0.733384784050286	2	11	1	NaN	2	4	0.0251211088865766	0	1	NaN	54	1	54	2	120	220	320	NaN	520	1.22267866972834	2	1	NaN	2682115.4557606	NaN	2682116.4391522	2682116.95570653
56	19	0	0	90	36.1581920903955	36.241610738255	6	0.200014032013714	2	6	2	NaN	1	3	0.0251211088865766	0	1	NaN	55	1	55	2	120	220	320	NaN	520	0.513025622349232	1	1	NaN	2682118.9894427	NaN	2682119.9728661	2682120.48939778
56	19	0	0	90	36.1581920903955	36.241610738255	13	0.433363736029714	2	5	6	NaN	1	5	0.0251211088865766	0	1	NaN	56	1	56	2	120	220	320	NaN	520	0.991204069927335	2	0	NaN	2682121.8230556	NaN	2682122.8064384	2682123.32300983
56	19	0	0	90	36.1581920903955	36.241610738255	22	0.733384784050286	2	3	6	NaN	1	5	0.0251211088865766	0	1	NaN	57	1	57	2	120	220	320	NaN	520	0.611206822097301	1	1	NaN	2682125.123258	NaN	2682126.1067635	2682126.62333028
56	19	0	0	90	36.1581920903955	36.241610738255	17	0.566706424038857	2	8	6	NaN	2	5	0.0251211088865766	0	1	NaN	58	1	58	2	120	220	320	NaN	520	0.469723622314632	2	1	NaN	2682128.0570408	NaN	2682129.0403936	2682129.55694838
56	19	0	0	90	36.1581920903955	36.241610738255	18	0.600042096041143	2	3	1	NaN	1	5	0.0251211088865766	0	1	NaN	59	1	59	2	120	220	320	NaN	520	0.58214842248708	2	0	NaN	2682130.840594	NaN	2682131.8240029	2682132.34056168
56	19	0	0	90	36.1581920903955	36.241610738255	7	0.233349704016	2	11	1	NaN	2	5	0.0251211088865766	0	1	NaN	60	1	60	2	120	220	320	NaN	520	0.553593789692968	2	1	NaN	2682133.7408902	NaN	2682134.7242875	2682135.24084071
56	19	0	0	90	36.1581920903955	36.241610738255	19	0.633377768043429	2	8	6	NaN	2	5	0.0251211088865766	0	1	NaN	61	1	61	2	120	220	320	NaN	520	0.534842021763325	1	0	NaN	2682136.6078256	NaN	2682137.5912318	2682138.10779088
56	19	0	0	90	36.1581920903955	36.241610738255	14	0.466699408032	2	1	1	NaN	1	4	0.0251211088865766	0	1	NaN	62	1	62	2	120	220	320	NaN	520	0.64433701755479	2	0	NaN	2682139.4581183	NaN	2682140.4415132	2682140.95807278
56	19	0	0	90	36.1581920903955	36.241610738255	0	0	1	8	2	NaN	2	3	0.0251211088865766	0	1	NaN	63	1	63	2	110	210	310	NaN	510	0.429324321914464	2	1	NaN	2682142.4250677	NaN	2682143.4084743	2682143.92503018
56	19	0	0	90	36.1581920903955	36.241610738255	14	0.466699408032	2	10	1	NaN	2	3	0.0251211088865766	0	1	NaN	64	2	1	2	120	220	320	NaN	520	0.0104377223178744	2	1	NaN	2682169.1777326	NaN	2682170.1610995	2682170.67765378
56	19	0	0	90	36.1581920903955	36.241610738255	18	0.600042096041143	2	10	4	NaN	2	3	0.0251211088865766	0	1	NaN	65	2	2	2	120	220	320	NaN	520	0.0633179699070752	2	1	NaN	2682171.5112669	NaN	2682172.4946628	2682173.01121133
56	19	0	0	90	36.1581920903955	36.241610738255	16	0.533370752036571	2	3	4	NaN	1	3	0.0251211088865766	0	1	NaN	66	2	3	2	120	220	320	NaN	520	0.399611322209239	2	0	NaN	2682173.8948492	NaN	2682174.8782314	2682175.39478188
56	19	0	0	90	36.1581920903955	36.241610738255	20	0.666713440045714	2	8	5	NaN	2	4	0.0251211088865766	0	1	NaN	67	2	4	2	120	220	320	NaN	520	0.426996217574924	2	1	NaN	2682176.6117667	NaN	2682177.5951582	2682178.11171188
56	19	0	0	90	36.1581920903955	36.241610738255	6	0.200014032013714	2	3	4	NaN	1	5	0.0251211088865766	0	1	NaN	68	2	5	2	120	220	320	NaN	520	0.541250621899962	2	0	NaN	2682179.3453669	NaN	2682180.3287024	2682180.84532008
56	19	0	0	90	36.1581920903955	36.241610738255	14	0.466699408032	2	4	4	NaN	1	3	0.0251211088865766	0	1	NaN	69	2	6	2	120	220	320	NaN	520	0.298463969957083	1	1	NaN	2682182.2123069	NaN	2682183.1957154	2682183.71226363
56	19	0	0	90	36.1581920903955	36.241610738255	23	0.766720456052571	2	3	6	NaN	1	4	0.0251211088865766	0	1	NaN	70	2	7	2	120	220	320	NaN	520	0.657336669974029	2	0	NaN	2682184.8291139	NaN	2682185.8125269	2682186.32919483
56	19	0	0	90	36.1581920903955	36.241610738255	20	0.666713440045714	2	1	3	NaN	1	3	0.0251211088865766	0	1	NaN	71	2	8	2	120	220	320	NaN	520	0.506186717189848	2	0	NaN	2682187.7961901	NaN	2682188.7795963	2682189.29614458
56	19	0	0	90	36.1581920903955	36.241610738255	13	0.433363736029714	2	9	6	NaN	2	4	0.0251211088865766	0	1	NaN	72	2	9	2	120	220	320	NaN	520	0.865456121973693	2	1	NaN	2682190.6131307	NaN	2682191.5965747	2682192.11309448
56	19	0	0	90	36.1581920903955	36.241610738255	22	0.733384784050286	2	5	2	NaN	1	3	0.0251211088865766	0	1	NaN	73	2	10	2	120	220	320	NaN	520	0.681937974411994	1	1	NaN	2682193.7967825	NaN	2682194.7801842	2682195.29674373
56	19	0	0	90	36.1581920903955	36.241610738255	7	0.233349704016	2	6	1	NaN	1	5	0.0251211088865766	0	1	NaN	74	2	11	2	120	220	320	NaN	520	0.71337267011404	2	0	NaN	2682197.1970915	NaN	2682198.1805026	2682198.69706753
56	19	0	0	90	36.1581920903955	36.241610738255	9	0.300021048020571	2	4	4	NaN	1	4	0.0251211088865766	0	1	NaN	75	2	12	2	120	220	320	NaN	520	2.04802132211626	1	1	NaN	2682200.2307551	NaN	2682201.2141924	2682201.73069928
56	19	0	0	90	36.1581920903955	36.241610738255	6	0.200014032013714	2	9	5	NaN	2	3	0.0251211088865766	0	1	NaN	76	2	13	2	120	220	320	NaN	520	0.760952174663544	1	0	NaN	2682204.5978361	NaN	2682205.5812379	2682206.09780313
56	19	0	0	90	36.1581920903955	36.241610738255	12	0.400028064027429	2	3	4	NaN	1	4	0.0251211088865766	0	1	NaN	77	2	14	2	120	220	320	NaN	520	0.51804111758247	2	0	NaN	2682207.6648274	NaN	2682208.6482099	2682209.16476458
56	19	0	0	90	36.1581920903955	36.241610738255	7	0.233349704016	2	3	1	NaN	1	4	0.0251211088865766	0	1	NaN	78	2	15	2	120	220	320	NaN	520	0.988154769875109	1	1	NaN	2682210.4984356	NaN	2682211.4818234	2682211.99837093
56	19	0	0	90	36.1581920903955	36.241610738255	25	0.833391800057143	2	8	5	NaN	2	5	0.0251211088865766	0	1	NaN	79	2	16	2	120	220	320	NaN	520	0.879857021849602	2	1	NaN	2682213.798748	NaN	2682214.7821497	2682215.29870208
56	19	0	0	90	36.1581920903955	36.241610738255	23	0.766720456052571	2	6	1	NaN	1	3	0.0251211088865766	0	1	NaN	80	2	17	2	120	220	320	NaN	520	0.640282570384443	1	1	NaN	2682216.9823906	NaN	2682217.965788	2682218.48234353
56	19	0	0	90	36.1581920903955	36.241610738255	24	0.800056128054857	2	4	6	NaN	1	3	0.0251211088865766	0	1	NaN	81	2	18	2	120	220	320	NaN	520	0.553722585085779	1	1	NaN	2682219.9326863	NaN	2682220.9160549	2682221.43263872
56	19	0	0	90	36.1581920903955	36.241610738255	23	0.766720456052571	2	9	5	NaN	2	4	0.0251211088865766	0	1	NaN	82	2	19	2	120	220	320	NaN	520	0.495234722271562	2	1	NaN	2682222.7996381	NaN	2682223.7830353	2682224.29959108
56	19	0	0	90	36.1581920903955	36.241610738255	20	0.666713440045714	2	7	4	NaN	2	3	0.0251211088865766	0	1	NaN	83	2	20	2	120	220	320	NaN	520	0.502994574606419	2	1	NaN	2682225.5999408	NaN	2682226.5833064	2682227.09987623
56	19	0	0	90	36.1581920903955	36.241610738255	18	0.600042096041143	2	6	1	NaN	1	4	0.0251211088865766	0	1	NaN	84	2	21	2	120	220	320	NaN	520	0.592280121985823	1	1	NaN	2682228.5500961	NaN	2682229.5336014	2682230.05015498
56	19	0	0	90	36.1581920903955	36.241610738255	15	0.500035080034286	2	11	5	NaN	2	3	0.0251211088865766	0	1	NaN	85	2	22	2	120	220	320	NaN	520	0.612150975037366	1	0	NaN	2682231.450483	NaN	2682232.4338851	2682232.95043453
56	19	0	0	90	36.1581920903955	36.241610738255	25	0.833391800057143	2	10	4	NaN	2	4	0.0251211088865766	0	1	NaN	86	2	23	2	120	220	320	NaN	520	0.495146322064102	2	1	NaN	2682234.3674463	NaN	2682235.3508073	2682235.86738998
56	19	0	0	90	36.1581920903955	36.241610738255	6	0.200014032013714	2	10	2	NaN	2	3	0.0251211088865766	0	1	NaN	87	2	24	2	120	220	320	NaN	520	0.47897067014128	1	0	NaN	2682237.1677261	NaN	2682238.1510763	2682238.66765473
56	19	0	0	90	36.1581920903955	36.241610738255	14	0.466699408032	2	5	3	NaN	1	4	0.0251211088865766	0	1	NaN	88	2	25	2	120	220	320	NaN	520	0.655206369701773	1	1	NaN	2682239.9511886	NaN	2682240.9346948	2682241.45126623
56	19	0	0	90	36.1581920903955	36.241610738255	8	0.266685376018286	2	2	6	NaN	1	5	0.0251211088865766	0	1	NaN	89	2	26	2	120	220	320	NaN	520	0.528310622088611	1	1	NaN	2682242.918275	NaN	2682243.9016741	2682244.41823168
56	19	0	0	90	36.1581920903955	36.241610738255	8	0.266685376018286	2	3	2	NaN	1	5	0.0251211088865766	0	1	NaN	90	2	27	2	120	220	320	NaN	520	0.462963521946222	1	1	NaN	2682245.7519041	NaN	2682246.7352868	2682247.25184258
56	19	0	0	90	36.1581920903955	36.241610738255	13	0.433363736029714	2	11	2	NaN	2	4	0.0251211088865766	0	1	NaN	91	2	28	2	120	220	320	NaN	520	0.431449764408171	1	0	NaN	2682248.5354931	NaN	2682249.518887	2682250.03543624
56	19	0	0	90	36.1581920903955	36.241610738255	19	0.633377768043429	2	8	2	NaN	2	3	0.0251211088865766	0	1	NaN	92	2	29	2	120	220	320	NaN	520	0.857149817049503	1	0	NaN	2682251.2856763	NaN	2682252.2691646	2682252.78571438
56	19	0	0	90	36.1581920903955	36.241610738255	20	0.666713440045714	2	12	6	NaN	2	5	0.0251211088865766	0	1	NaN	93	2	30	2	120	220	320	NaN	520	0.514243822079152	2	1	NaN	2682254.4527665	NaN	2682255.4361434	2682255.95269388
56	19	0	0	90	36.1581920903955	36.241610738255	12	0.400028064027429	2	10	3	NaN	2	3	0.0251211088865766	0	1	NaN	94	2	31	2	120	220	320	NaN	520	0.736461222171783	2	1	NaN	2682257.2863716	NaN	2682258.2696426	2682258.78630928
56	19	0	0	90	36.1581920903955	36.241610738255	15	0.500035080034286	2	10	4	NaN	2	3	0.0251211088865766	0	1	NaN	95	2	32	2	120	220	320	NaN	520	0.622301169671118	2	1	NaN	2682260.336656	NaN	2682261.3200475	2682261.83659593
56	19	0	0	90	36.1581920903955	36.241610738255	14	0.466699408032	2	4	2	NaN	1	3	0.0251211088865766	0	1	NaN	96	2	33	2	120	220	320	NaN	520	0.408401070162654	1	1	NaN	2682263.2702239	NaN	2682264.2536731	2682264.77023343
56	19	0	0	90	36.1581920903955	36.241610738255	7	0.233349704016	2	4	6	NaN	1	5	0.0251211088865766	0	1	NaN	97	2	34	2	120	220	320	NaN	520	0.506616564933211	1	1	NaN	2682266.0038693	NaN	2682266.9872695	2682267.50382134
56	19	0	0	90	36.1581920903955	36.241610738255	0	0	1	3	1	NaN	1	5	0.0251211088865766	0	1	NaN	98	2	35	2	110	210	310	NaN	510	0.40977912209928	2	0	NaN	2682268.8208337	NaN	2682269.8042114	2682270.32077578
56	19	0	0	90	36.1581920903955	36.241610738255	18	0.600042096041143	2	7	2	NaN	2	5	0.0251211088865766	0	1	NaN	99	2	36	2	120	220	320	NaN	520	0.541005469858646	2	1	NaN	2682271.5377466	NaN	2682272.5211605	2682273.03770843
56	19	0	0	90	36.1581920903955	36.241610738255	18	0.600042096041143	2	2	6	NaN	1	3	0.0251211088865766	0	1	NaN	100	2	37	2	120	220	320	NaN	520	0.603039870038629	2	0	NaN	2682274.388078	NaN	2682275.371424	2682275.88797573
56	19	0	0	90	36.1581920903955	36.241610738255	12	0.400028064027429	2	12	6	NaN	2	5	0.0251211088865766	0	1	NaN	101	2	38	2	120	220	320	NaN	520	0.661492322105914	1	0	NaN	2682277.3049889	NaN	2682278.2883936	2682278.80493698
56	19	0	0	90	36.1581920903955	36.241610738255	21	0.700049112048	2	6	4	NaN	1	5	0.0251211088865766	0	1	NaN	102	2	39	2	120	220	320	NaN	520	0.366708022076637	1	1	NaN	2682280.2719554	NaN	2682281.2553299	2682281.77189998
56	19	0	0	90	36.1581920903955	36.241610738255	8	0.266685376018286	2	8	6	NaN	2	4	0.0251211088865766	0	1	NaN	103	2	40	2	120	220	320	NaN	520	0.411454469896853	1	0	NaN	2682282.9554068	NaN	2682283.9389361	2682284.45549603
56	19	0	0	90	36.1581920903955	36.241610738255	7	0.233349704016	2	7	2	NaN	2	4	0.0251211088865766	0	1	NaN	104	2	41	2	120	220	320	NaN	520	0.230234769638628	2	1	NaN	2682285.6724818	NaN	2682286.6558456	2682287.17242453
56	19	0	0	90	36.1581920903955	36.241610738255	8	0.266685376018286	2	5	5	NaN	1	5	0.0251211088865766	0	1	NaN	105	2	42	2	120	220	320	NaN	520	0.432601270265877	1	1	NaN	2682288.2059474	NaN	2682289.1894544	2682289.70600023
56	19	0	0	90	36.1581920903955	36.241610738255	16	0.533370752036571	2	4	5	NaN	1	5	0.0251211088865766	0	1	NaN	106	2	43	2	120	220	320	NaN	520	0.450613121967763	2	0	NaN	2682290.956222	NaN	2682291.939726	2682292.45627968
56	19	0	0	90	36.1581920903955	36.241610738255	15	0.500035080034286	2	1	5	NaN	1	3	0.0251211088865766	0	1	NaN	107	2	44	2	120	220	320	NaN	520	0.443630917463452	2	0	NaN	2682293.7233011	NaN	2682294.70666	2682295.22321138
56	19	0	0	90	36.1581920903955	36.241610738255	7	0.233349704016	2	4	6	NaN	1	3	0.0251211088865766	0	1	NaN	108	2	45	2	120	220	320	NaN	520	0.181341222021729	1	1	NaN	2682296.4735526	NaN	2682297.4569232	2682297.97348928
56	19	0	0	90	36.1581920903955	36.241610738255	16	0.533370752036571	2	5	5	NaN	1	5	0.0251211088865766	0	1	NaN	109	2	46	2	120	220	320	NaN	520	0.505026522092521	1	1	NaN	2682298.9737824	NaN	2682299.9571789	2682300.47373818
56	19	0	0	90	36.1581920903955	36.241610738255	9	0.300021048020571	2	4	1	NaN	1	4	0.0251211088865766	0	1	NaN	110	2	47	2	120	220	320	NaN	520	0.592055669985712	1	1	NaN	2682301.7907647	NaN	2682302.7741277	2682303.29066643
56	19	0	0	90	36.1581920903955	36.241610738255	20	0.666713440045714	2	11	1	NaN	2	3	0.0251211088865766	0	1	NaN	111	2	48	2	120	220	320	NaN	520	0.603867074940354	2	1	NaN	2682304.6910049	NaN	2682305.6743931	2682306.19096623
56	19	0	0	90	36.1581920903955	36.241610738255	8	0.266685376018286	2	10	3	NaN	2	3	0.0251211088865766	0	1	NaN	112	2	49	2	120	220	320	NaN	520	0.566985622048378	2	1	NaN	2682307.6079542	NaN	2682308.59136	2682309.10791588
56	19	0	0	90	36.1581920903955	36.241610738255	17	0.566706424038857	2	11	3	NaN	2	5	0.0251211088865766	0	1	NaN	113	2	50	2	120	220	320	NaN	520	0.507428122218698	1	0	NaN	2682310.4915852	NaN	2682311.474972	2682311.99152438
56	19	0	0	90	36.1581920903955	36.241610738255	7	0.233349704016	2	5	4	NaN	1	4	0.0251211088865766	0	1	NaN	114	2	51	2	120	220	320	NaN	520	0.506460822187364	1	1	NaN	2682313.308552	NaN	2682314.2919051	2682314.80847408
56	19	0	0	90	36.1581920903955	36.241610738255	19	0.633377768043429	2	4	4	NaN	1	3	0.0251211088865766	0	1	NaN	115	2	52	2	120	220	320	NaN	520	0.401145821902901	2	0	NaN	2682316.1254576	NaN	2682317.108856	2682317.62541718
56	19	0	0	90	36.1581920903955	36.241610738255	7	0.233349704016	2	5	2	NaN	1	3	0.0251211088865766	0	1	NaN	116	2	53	2	120	220	320	NaN	520	0.41233542189002	1	1	NaN	2682318.842405	NaN	2682319.8257949	2682320.34235068
56	19	0	0	90	36.1581920903955	36.241610738255	9	0.300021048020571	2	2	5	NaN	1	4	0.0251211088865766	0	1	NaN	117	2	54	2	120	220	320	NaN	520	0.47881882218644	1	1	NaN	2682321.5760309	NaN	2682322.5593942	2682323.07595738
56	19	0	0	90	36.1581920903955	36.241610738255	21	0.700049112048	2	3	3	NaN	1	3	0.0251211088865766	0	1	NaN	118	2	55	2	120	220	320	NaN	520	0.430220070295036	2	0	NaN	2682324.3762954	NaN	2682325.359675	2682325.87621813
56	19	0	0	90	36.1581920903955	36.241610738255	13	0.433363736029714	2	11	6	NaN	2	3	0.0251211088865766	0	1	NaN	119	2	56	2	120	220	320	NaN	520	0.736502964515239	2	1	NaN	2682327.1265609	NaN	2682328.1099317	2682328.62648794
56	19	0	0	90	36.1581920903955	36.241610738255	0	0	1	2	2	NaN	1	5	0.0251211088865766	0	1	NaN	120	2	57	2	110	210	310	NaN	510	0.453775217290968	1	1	NaN	2682330.1768634	NaN	2682331.1602874	2682331.67678998
56	19	0	0	90	36.1581920903955	36.241610738255	12	0.400028064027429	2	8	1	NaN	2	4	0.0251211088865766	0	1	NaN	121	2	58	2	120	220	320	NaN	520	0.575227770023048	2	1	NaN	2682332.9437837	NaN	2682333.92718	2682334.44372863
56	19	0	0	90	36.1581920903955	36.241610738255	24	0.800056128054857	2	10	4	NaN	2	3	0.0251211088865766	0	1	NaN	122	2	59	2	120	220	320	NaN	520	0.667319522239268	2	1	NaN	2682335.8272871	NaN	2682336.8107937	2682337.32734778
56	19	0	0	90	36.1581920903955	36.241610738255	11	0.366692392025143	2	10	4	NaN	2	5	0.0251211088865766	0	1	NaN	123	2	60	2	120	220	320	NaN	520	0.87723906012252	2	1	NaN	2682339.1776491	NaN	2682340.1611245	2682340.67767394
56	19	0	0	90	36.1581920903955	36.241610738255	9	0.300021048020571	2	3	1	NaN	1	3	0.0251211088865766	0	1	NaN	124	2	61	2	120	220	320	NaN	520	0.509588070213795	2	0	NaN	2682342.3613889	NaN	2682343.3447795	2682343.86131793
56	19	0	0	90	36.1581920903955	36.241610738255	9	0.300021048020571	2	1	5	NaN	1	3	0.0251211088865766	0	1	NaN	125	2	62	2	120	220	320	NaN	520	0.564300769940019	2	0	NaN	2682345.1783168	NaN	2682346.1617	2682346.67827073
56	19	0	0	90	36.1581920903955	36.241610738255	11	0.366692392025143	2	12	5	NaN	2	5	0.0251211088865766	0	1	NaN	126	2	63	2	120	220	320	NaN	520	0.648821169976145	2	1	NaN	2682348.0619568	NaN	2682349.0453043	2682349.56188523
56	19	0	0	90	36.1581920903955	36.241610738255	17	0.566706424038857	2	6	5	NaN	1	5	0.0251211088865766	0	1	NaN	127	3	1	2	120	220	320	NaN	520	0.120662821922451	2	0	NaN	2682371.8143345	NaN	2682372.7976634	2682373.31421468
56	19	0	0	90	36.1581920903955	36.241610738255	25	0.833391800057143	2	2	1	NaN	1	3	0.0251211088865766	0	1	NaN	128	3	2	2	120	220	320	NaN	520	0.0104135698638856	1	1	NaN	2682374.2478364	NaN	2682375.2312421	2682375.74778753
56	19	0	0	90	36.1581920903955	36.241610738255	0	0	1	1	2	NaN	1	4	0.0251211088865766	0	1	NaN	129	3	3	2	110	210	310	NaN	510	0.529988269787282	2	0	NaN	2682376.5647514	NaN	2682377.5481157	2682378.06468843
56	19	0	0	90	36.1581920903955	36.241610738255	21	0.700049112048	2	12	6	NaN	2	3	0.0251211088865766	0	1	NaN	130	3	4	2	120	220	320	NaN	520	0.623944969847798	2	1	NaN	2682379.4150117	NaN	2682380.3984038	2682380.91496453
56	19	0	0	90	36.1581920903955	36.241610738255	17	0.566706424038857	2	5	5	NaN	1	5	0.0251211088865766	0	1	NaN	131	3	5	2	120	220	320	NaN	520	0.362166269682348	1	1	NaN	2682382.3486459	NaN	2682383.332042	2682383.84857643
56	19	0	0	90	36.1581920903955	36.241610738255	25	0.833391800057143	2	7	2	NaN	2	5	0.0251211088865766	0	1	NaN	132	3	6	2	120	220	320	NaN	520	0.534890522249043	2	1	NaN	2682385.0322195	NaN	2682386.0156199	2682386.53217808
56	19	0	0	90	36.1581920903955	36.241610738255	17	0.566706424038857	2	11	2	NaN	2	3	0.0251211088865766	0	1	NaN	133	3	7	2	120	220	320	NaN	520	0.388072070199996	1	0	NaN	2682387.8825283	NaN	2682388.8659295	2682389.38245963
56	19	0	0	90	36.1581920903955	36.241610738255	24	0.800056128054857	2	8	1	NaN	2	4	0.0251211088865766	0	1	NaN	134	3	8	2	120	220	320	NaN	520	0.448245722334832	2	1	NaN	2682390.5827758	NaN	2682391.5661679	2682392.08272578
56	19	0	0	90	36.1581920903955	36.241610738255	16	0.533370752036571	2	11	2	NaN	2	5	0.0251211088865766	0	1	NaN	135	3	9	2	120	220	320	NaN	520	0.449200922157615	1	0	NaN	2682393.3497278	NaN	2682394.333108	2682394.84967728
56	19	0	0	90	36.1581920903955	36.241610738255	23	0.766720456052571	2	4	5	NaN	1	3	0.0251211088865766	0	1	NaN	136	3	10	2	120	220	320	NaN	520	0.506122070364654	1	1	NaN	2682396.1166417	NaN	2682397.1000391	2682397.61660813
56	19	0	0	90	36.1581920903955	36.241610738255	20	0.666713440045714	2	4	5	NaN	1	4	0.0251211088865766	0	1	NaN	137	3	11	2	120	220	320	NaN	520	0.873487969860435	1	1	NaN	2682398.9336121	NaN	2682399.9169918	2682400.43354853
56	19	0	0	90	36.1581920903955	36.241610738255	17	0.566706424038857	2	9	3	NaN	2	5	0.0251211088865766	0	1	NaN	138	3	12	2	120	220	320	NaN	520	0.50570821762085	2	1	NaN	2682402.1172389	NaN	2682403.1007316	2682403.61718688
56	19	0	0	90	36.1581920903955	36.241610738255	10	0.333356720022857	2	6	4	NaN	1	3	0.0251211088865766	0	1	NaN	139	3	13	2	120	220	320	NaN	520	0.576723722275347	1	1	NaN	2682404.9342013	NaN	2682405.9175777	2682406.43413928
56	19	0	0	90	36.1581920903955	36.241610738255	16	0.533370752036571	2	1	2	NaN	1	3	0.0251211088865766	0	1	NaN	140	3	14	2	120	220	320	NaN	520	0.445020521990955	2	0	NaN	2682407.8176666	NaN	2682408.8011861	2682409.31775378
56	19	0	0	90	36.1581920903955	36.241610738255	24	0.800056128054857	2	1	5	NaN	1	4	0.0251211088865766	0	1	NaN	141	3	15	2	120	220	320	NaN	520	0.455067989882082	1	1	NaN	2682410.5680605	NaN	2682411.5514556	2682412.06802661
56	19	0	0	90	36.1581920903955	36.241610738255	6	0.200014032013714	2	3	6	NaN	1	3	0.0251211088865766	0	1	NaN	142	3	16	2	120	220	320	NaN	520	0.623679870273918	1	1	NaN	2682413.3349765	NaN	2682414.3184022	2682414.83495163
56	19	0	0	90	36.1581920903955	36.241610738255	8	0.266685376018286	2	8	4	NaN	2	5	0.0251211088865766	0	1	NaN	143	3	17	2	120	220	320	NaN	520	0.794571622274816	1	0	NaN	2682416.2686567	NaN	2682417.2520445	2682417.76857468
56	19	0	0	90	36.1581920903955	36.241610738255	0	0	1	9	6	NaN	2	5	0.0251211088865766	0	1	NaN	144	3	18	2	110	210	310	NaN	510	0.613415669649839	1	0	NaN	2682419.3855989	NaN	2682420.3690195	2682420.88554653
56	19	0	0	90	36.1581920903955	36.241610738255	14	0.466699408032	2	11	5	NaN	2	5	0.0251211088865766	0	1	NaN	145	3	19	2	120	220	320	NaN	520	0.479485164862126	2	1	NaN	2682422.3190933	NaN	2682423.302627	2682423.81916694
56	19	0	0	90	36.1581920903955	36.241610738255	9	0.300021048020571	2	2	2	NaN	1	4	0.0251211088865766	0	1	NaN	146	3	20	2	120	220	320	NaN	520	0.527576369699091	1	1	NaN	2682425.1194958	NaN	2682426.1028866	2682426.61945023
56	19	0	0	90	36.1581920903955	36.241610738255	6	0.200014032013714	2	5	1	NaN	1	4	0.0251211088865766	0	1	NaN	147	3	21	2	120	220	320	NaN	520	0.501495422329754	1	1	NaN	2682427.9529734	NaN	2682428.9365102	2682429.45305998
56	19	0	0	90	36.1581920903955	36.241610738255	14	0.466699408032	2	3	5	NaN	1	4	0.0251211088865766	0	1	NaN	148	3	22	2	120	220	320	NaN	520	0.516954369843006	2	0	NaN	2682430.7700537	NaN	2682431.7534397	2682432.27000193
56	19	0	0	90	36.1581920903955	36.241610738255	13	0.433363736029714	2	8	1	NaN	2	5	0.0251211088865766	0	1	NaN	149	3	23	2	120	220	320	NaN	520	0.47527962224558	1	0	NaN	2682433.6035402	NaN	2682434.5870647	2682435.10361268
56	19	0	0	90	36.1581920903955	36.241610738255	18	0.600042096041143	2	11	5	NaN	2	4	0.0251211088865766	0	1	NaN	150	3	24	2	120	220	320	NaN	520	0.480891690123826	2	1	NaN	2682436.8539518	NaN	2682437.8373699	2682438.35393681
56	19	0	0	90	36.1581920903955	36.241610738255	11	0.366692392025143	2	3	6	NaN	1	5	0.0251211088865766	0	1	NaN	151	3	25	2	120	220	320	NaN	520	0.457226522266865	1	1	NaN	2682439.6374848	NaN	2682440.6210171	2682441.13753728
56	19	0	0	90	36.1581920903955	36.241610738255	21	0.700049112048	2	9	3	NaN	2	3	0.0251211088865766	0	1	NaN	152	3	26	2	120	220	320	NaN	520	0.514342242386192	1	0	NaN	2682442.4045428	NaN	2682443.3879173	2682443.90449046
56	19	0	0	90	36.1581920903955	36.241610738255	11	0.366692392025143	2	5	4	NaN	1	5	0.0251211088865766	0	1	NaN	153	3	27	2	120	220	320	NaN	520	0.480941422283649	1	1	NaN	2682445.2381368	NaN	2682446.2215561	2682446.73809318
56	19	0	0	90	36.1581920903955	36.241610738255	19	0.633377768043429	2	1	3	NaN	1	4	0.0251211088865766	0	1	NaN	154	3	28	2	120	220	320	NaN	520	0.344365369528532	1	1	NaN	2682448.0384127	NaN	2682449.0218643	2682449.53837223
56	19	0	0	90	36.1581920903955	36.241610738255	17	0.566706424038857	2	12	6	NaN	2	5	0.0251211088865766	0	1	NaN	155	3	29	2	120	220	320	NaN	520	0.414376389700919	1	0	NaN	2682450.6886935	NaN	2682451.6720732	2682452.18863651
56	19	0	0	90	36.1581920903955	36.241610738255	10	0.333356720022857	2	5	1	NaN	1	5	0.0251211088865766	0	1	NaN	156	3	30	2	120	220	320	NaN	520	0.42464442178607	1	1	NaN	2682453.4222749	NaN	2682454.4056703	2682454.92222698
56	19	0	0	90	36.1581920903955	36.241610738255	17	0.566706424038857	2	8	3	NaN	2	5	0.0251211088865766	0	1	NaN	157	3	31	2	120	220	320	NaN	520	0.443344121798873	2	1	NaN	2682456.1559034	NaN	2682457.1393086	2682457.65582828
56	19	0	0	90	36.1581920903955	36.241610738255	20	0.666713440045714	2	4	5	NaN	1	5	0.0251211088865766	0	1	NaN	158	3	32	2	120	220	320	NaN	520	0.549002674408257	1	1	NaN	2682458.9062668	NaN	2682459.889546	2682460.40610523
56	19	0	0	90	36.1581920903955	36.241610738255	6	0.200014032013714	2	1	2	NaN	1	4	0.0251211088865766	0	1	NaN	159	3	33	2	120	220	320	NaN	520	0.930776922032237	1	1	NaN	2682461.7563025	NaN	2682462.7398248	2682463.25638048
56	19	0	0	90	36.1581920903955	36.241610738255	16	0.533370752036571	2	7	6	NaN	2	5	0.0251211088865766	0	1	NaN	160	3	34	2	120	220	320	NaN	520	0.176161622162908	2	1	NaN	2682465.006749	NaN	2682465.9901321	2682466.50670338
56	19	0	0	90	36.1581920903955	36.241610738255	15	0.500035080034286	2	7	3	NaN	2	3	0.0251211088865766	0	1	NaN	161	3	35	2	120	220	320	NaN	520	0.403825017623603	2	1	NaN	2682467.507011	NaN	2682468.4903935	2682469.00694788
56	19	0	0	90	36.1581920903955	36.241610738255	9	0.300021048020571	2	8	4	NaN	2	4	0.0251211088865766	0	1	NaN	162	3	36	2	120	220	320	NaN	520	0.423164521809667	1	0	NaN	2682470.2239965	NaN	2682471.2073212	2682471.72387478
56	19	0	0	90	36.1581920903955	36.241610738255	25	0.833391800057143	2	1	1	NaN	1	4	0.0251211088865766	0	1	NaN	163	3	37	2	120	220	320	NaN	520	0.441409764345735	2	0	NaN	2682472.9575495	NaN	2682473.9409278	2682474.45747184
56	19	0	0	90	36.1581920903955	36.241610738255	16	0.533370752036571	2	12	4	NaN	2	3	0.0251211088865766	0	1	NaN	164	3	38	2	120	220	320	NaN	520	0.491042769979686	2	1	NaN	2682475.7076765	NaN	2682476.6911859	2682477.20775653
56	19	0	0	90	36.1581920903955	36.241610738255	16	0.533370752036571	2	2	3	NaN	1	4	0.0251211088865766	0	1	NaN	165	3	39	2	120	220	320	NaN	520	0.482778964564204	2	0	NaN	2682478.5080946	NaN	2682479.4914826	2682480.00803654
56	19	0	0	90	36.1581920903955	36.241610738255	20	0.666713440045714	2	2	4	NaN	1	3	0.0251211088865766	0	1	NaN	166	3	40	2	120	220	320	NaN	520	0.442724994849414	2	0	NaN	2682481.3083741	NaN	2682482.2917422	2682482.80830721
56	19	0	0	90	36.1581920903955	36.241610738255	15	0.500035080034286	2	9	6	NaN	2	4	0.0251211088865766	0	1	NaN	167	3	41	2	120	220	320	NaN	520	0.55672017019242	2	1	NaN	2682484.0585039	NaN	2682485.0420465	2682485.55856223
56	19	0	0	90	36.1581920903955	36.241610738255	22	0.733384784050286	2	7	6	NaN	2	3	0.0251211088865766	0	1	NaN	168	3	42	2	120	220	320	NaN	520	0.633652369957417	2	1	NaN	2682486.925587	NaN	2682487.9089621	2682488.42552363
56	19	0	0	90	36.1581920903955	36.241610738255	8	0.266685376018286	2	4	5	NaN	1	3	0.0251211088865766	0	1	NaN	169	3	43	2	120	220	320	NaN	520	0.491115895099938	1	1	NaN	2682489.8758535	NaN	2682490.8592342	2682491.37581031
56	19	0	0	90	36.1581920903955	36.241610738255	8	0.266685376018286	2	12	3	NaN	2	3	0.0251211088865766	0	1	NaN	170	3	44	2	120	220	320	NaN	520	0.722799617331475	1	0	NaN	2682492.6761339	NaN	2682493.6595248	2682494.17607648
56	19	0	0	90	36.1581920903955	36.241610738255	12	0.400028064027429	2	6	1	NaN	1	4	0.0251211088865766	0	1	NaN	171	3	45	2	120	220	320	NaN	520	0.593137842603028	1	1	NaN	2682495.709783	NaN	2682496.693163	2682497.20971926
56	19	0	0	90	36.1581920903955	36.241610738255	22	0.733384784050286	2	9	1	NaN	2	5	0.0251211088865766	0	1	NaN	172	3	46	2	120	220	320	NaN	520	0.373031522147357	2	1	NaN	2682498.6100463	NaN	2682499.5934395	2682500.10999598
56	19	0	0	90	36.1581920903955	36.241610738255	25	0.833391800057143	2	10	6	NaN	2	3	0.0251211088865766	0	1	NaN	173	3	47	2	120	220	320	NaN	520	0.569435422308743	1	0	NaN	2682501.2935001	NaN	2682502.2770686	2682502.79359658
56	19	0	0	90	36.1581920903955	36.241610738255	21	0.700049112048	2	8	3	NaN	2	3	0.0251211088865766	0	1	NaN	174	3	48	2	120	220	320	NaN	520	0.533768774941564	1	0	NaN	2682504.1772558	NaN	2682505.1606559	2682505.67721843
56	19	0	0	90	36.1581920903955	36.241610738255	18	0.600042096041143	2	9	1	NaN	2	3	0.0251211088865766	0	1	NaN	175	3	49	2	120	220	320	NaN	520	0.36390936980024	2	1	NaN	2682507.0277396	NaN	2682508.0109257	2682508.52748423
56	19	0	0	90	36.1581920903955	36.241610738255	24	0.800056128054857	2	3	5	NaN	1	4	0.0251211088865766	0	1	NaN	176	3	50	2	120	220	320	NaN	520	0.384393021930009	1	1	NaN	2682509.6944684	NaN	2682510.6778625	2682511.19441338
56	19	0	0	90	36.1581920903955	36.241610738255	0	0	1	2	2	NaN	1	5	0.0251211088865766	0	1	NaN	177	3	51	2	110	210	310	NaN	510	0.404071069788188	1	1	NaN	2682512.3947531	NaN	2682513.3781306	2682513.89468593
56	19	0	0	90	36.1581920903955	36.241610738255	15	0.500035080034286	2	8	2	NaN	2	5	0.0251211088865766	0	1	NaN	178	3	52	2	120	220	320	NaN	520	0.535401270259172	1	0	NaN	2682515.1116596	NaN	2682516.0950754	2682516.61161013
56	19	0	0	90	36.1581920903955	36.241610738255	17	0.566706424038857	2	10	1	NaN	2	4	0.0251211088865766	0	1	NaN	179	3	53	2	120	220	320	NaN	520	0.516840070020407	1	0	NaN	2682517.9619657	NaN	2682518.9453434	2682519.46189503
56	19	0	0	90	36.1581920903955	36.241610738255	6	0.200014032013714	2	10	3	NaN	2	5	0.0251211088865766	0	1	NaN	180	3	54	2	120	220	320	NaN	520	0.531474374700338	2	1	NaN	2682520.7955561	NaN	2682521.7789438	2682522.29550953
56	19	0	0	90	36.1581920903955	36.241610738255	20	0.666713440045714	2	5	5	NaN	1	3	0.0251211088865766	0	1	NaN	181	3	55	2	120	220	320	NaN	520	0.57749999454245	1	1	NaN	2682523.6457206	NaN	2682524.6292367	2682525.14579411
56	19	0	0	90	36.1581920903955	36.241610738255	22	0.733384784050286	2	11	3	NaN	2	5	0.0251211088865766	0	1	NaN	182	3	56	2	120	220	320	NaN	520	0.573810222093016	2	1	NaN	2682526.5294553	NaN	2682527.5128434	2682528.02939908
56	19	0	0	90	36.1581920903955	36.241610738255	14	0.466699408032	2	2	2	NaN	1	3	0.0251211088865766	0	1	NaN	183	3	57	2	120	220	320	NaN	520	0.641952759586275	1	1	NaN	2682529.4130967	NaN	2682530.396461	2682530.91301234
56	19	0	0	90	36.1581920903955	36.241610738255	8	0.266685376018286	2	6	4	NaN	1	4	0.0251211088865766	0	1	NaN	184	3	58	2	120	220	320	NaN	520	0.490574670024216	2	0	NaN	2682532.3966991	NaN	2682533.380082	2682533.89665073
56	19	0	0	90	36.1581920903955	36.241610738255	11	0.366692392025143	2	9	4	NaN	2	5	0.0251211088865766	0	1	NaN	185	3	59	2	120	220	320	NaN	520	0.361695664934814	2	1	NaN	2682535.2136284	NaN	2682536.1970379	2682536.71359484
56	19	0	0	90	36.1581920903955	36.241610738255	11	0.366692392025143	2	7	1	NaN	2	5	0.0251211088865766	0	1	NaN	186	3	60	2	120	220	320	NaN	520	0.573645022232085	2	1	NaN	2682537.8972737	NaN	2682538.8806303	2682539.39718098
56	19	0	0	90	36.1581920903955	36.241610738255	21	0.700049112048	2	11	1	NaN	2	4	0.0251211088865766	0	1	NaN	187	3	61	2	120	220	320	NaN	520	0.410052312072366	2	1	NaN	2682540.7808853	NaN	2682541.7642475	2682542.28080139
56	19	0	0	90	36.1581920903955	36.241610738255	17	0.566706424038857	2	10	2	NaN	2	4	0.0251211088865766	0	1	NaN	188	3	62	2	120	220	320	NaN	520	0.421274237334728	2	1	NaN	2682543.4977881	NaN	2682544.4811846	2682544.99774216
56	19	0	0	90	36.1581920903955	36.241610738255	7	0.233349704016	2	6	6	NaN	1	4	0.0251211088865766	0	1	NaN	189	3	63	2	120	220	320	NaN	520	0.415838122367859	2	0	NaN	2682546.2313923	NaN	2682547.2147857	2682547.73134538
56	19	0	0	90	36.1581920903955	36.241610738255	20	0.666713440045714	2	10	6	NaN	2	3	0.0251211088865766	0	1	NaN	190	4	1	2	120	220	320	NaN	520	0.0104072699323297	2	1	NaN	2682580.4513347	NaN	2682581.4348129	2682581.95136413
56	19	0	0	90	36.1581920903955	36.241610738255	10	0.333356720022857	2	1	6	NaN	1	5	0.0251211088865766	0	1	NaN	191	4	2	2	120	220	320	NaN	520	1.48241416970268	2	0	NaN	2682582.8849854	NaN	2682583.868383	2682584.38494163
56	19	0	0	90	36.1581920903955	36.241610738255	22	0.733384784050286	2	8	6	NaN	2	3	0.0251211088865766	0	1	NaN	192	4	3	2	120	220	320	NaN	520	0.466351590119302	1	0	NaN	2682587.068747	NaN	2682588.0521296	2682588.56868921
56	19	0	0	90	36.1581920903955	36.241610738255	20	0.666713440045714	2	2	4	NaN	1	4	0.0251211088865766	0	1	NaN	193	4	4	2	120	220	320	NaN	520	0.418652542401105	1	1	NaN	2682589.8523447	NaN	2682590.8357408	2682591.35229076
56	19	0	0	90	36.1581920903955	36.241610738255	18	0.600042096041143	2	11	5	NaN	2	3	0.0251211088865766	0	1	NaN	194	4	5	2	120	220	320	NaN	520	0.397241522092372	1	0	NaN	2682592.5859435	NaN	2682593.5693594	2682594.08589658
56	19	0	0	90	36.1581920903955	36.241610738255	17	0.566706424038857	2	1	1	NaN	1	5	0.0251211088865766	0	1	NaN	195	4	6	2	120	220	320	NaN	520	0.120862322393805	2	0	NaN	2682595.2862172	NaN	2682596.2696025	2682596.78615948
56	19	0	0	90	36.1581920903955	36.241610738255	11	0.366692392025143	2	2	1	NaN	1	5	0.0251211088865766	0	1	NaN	196	4	7	2	120	220	320	NaN	520	0.0104043702594936	2	0	NaN	2682597.7197743	NaN	2682598.7031707	2682599.21972843
56	19	0	0	90	36.1581920903955	36.241610738255	10	0.333356720022857	2	3	5	NaN	1	4	0.0251211088865766	0	1	NaN	197	4	8	2	120	220	320	NaN	520	0.54671621741727	2	0	NaN	2682600.0366551	NaN	2682601.0200517	2682601.53662008
56	19	0	0	90	36.1581920903955	36.241610738255	0	0	1	11	3	NaN	2	3	0.0251211088865766	0	1	NaN	198	4	9	2	110	210	310	NaN	510	0.0104002221487463	1	0	NaN	2682602.90363	NaN	2682603.8870219	2682604.40357488
56	19	0	0	90	36.1581920903955	36.241610738255	24	0.800056128054857	2	5	5	NaN	1	4	0.0251211088865766	0	1	NaN	199	4	10	2	120	220	320	NaN	520	0.010410170070827	1	1	NaN	2682605.2371222	NaN	2682606.2205948	2682606.73713353
56	19	0	0	90	36.1581920903955	36.241610738255	22	0.733384784050286	2	2	5	NaN	1	3	0.0251211088865766	0	1	NaN	200	4	11	2	120	220	320	NaN	520	0.853319922462106	1	1	NaN	2682607.5539431	NaN	2682608.5374567	2682609.05403018
56	19	0	0	90	36.1581920903955	36.241610738255	10	0.333356720022857	2	9	6	NaN	2	3	0.0251211088865766	0	1	NaN	201	4	12	2	120	220	320	NaN	520	0.0104106701910496	1	0	NaN	2682611.1377587	NaN	2682612.1211503	2682612.63770463
56	19	0	0	90	36.1581920903955	36.241610738255	13	0.433363736029714	2	8	1	NaN	2	4	0.0251211088865766	0	1	NaN	202	4	13	2	120	220	320	NaN	520	0.308412122074515	1	0	NaN	2682613.9546727	NaN	2682614.9381356	2682615.45464918
56	19	0	0	90	36.1581920903955	36.241610738255	17	0.566706424038857	2	3	1	NaN	1	3	0.0251211088865766	0	1	NaN	203	4	14	2	120	220	320	NaN	520	0.0735325221903622	2	0	NaN	2682616.6215959	NaN	2682617.605024	2682618.12160328
56	19	0	0	90	36.1581920903955	36.241610738255	9	0.300021048020571	2	12	3	NaN	2	4	0.0251211088865766	0	1	NaN	204	4	15	2	120	220	320	NaN	520	0.0104724601842463	2	1	NaN	2682619.5552243	NaN	2682620.538648	2682621.05520044
56	19	0	0	90	36.1581920903955	36.241610738255	0	0	1	7	6	NaN	2	5	0.0251211088865766	0	1	NaN	205	4	16	2	110	210	310	NaN	510	1.68064421741292	2	1	NaN	2682622.2221453	NaN	2682623.2056019	2682623.72213088
56	19	0	0	90	36.1581920903955	36.241610738255	17	0.566706424038857	2	2	3	NaN	1	3	0.0251211088865766	0	1	NaN	206	4	17	2	120	220	320	NaN	520	0.472712922375649	2	0	NaN	2682626.4225686	NaN	2682627.4060391	2682627.92254868
56	19	0	0	90	36.1581920903955	36.241610738255	7	0.233349704016	2	11	4	NaN	2	5	0.0251211088865766	0	1	NaN	207	4	18	2	120	220	320	NaN	520	0.200980470050126	2	1	NaN	2682629.2062033	NaN	2682630.1895912	2682630.70615103
56	19	0	0	90	36.1581920903955	36.241610738255	0	0	1	12	5	NaN	2	4	0.0251211088865766	0	1	NaN	208	4	19	2	110	210	310	NaN	510	0.193132222164422	1	0	NaN	2682632.1897964	NaN	2682633.173222	2682633.68978318
56	19	0	0	90	36.1581920903955	36.241610738255	7	0.233349704016	2	1	6	NaN	1	4	0.0251211088865766	0	1	NaN	209	4	20	2	120	220	320	NaN	520	0.434721522033215	2	0	NaN	2682634.9566335	NaN	2682635.940164	2682636.45672578
56	19	0	0	90	36.1581920903955	36.241610738255	7	0.233349704016	2	9	1	NaN	2	3	0.0251211088865766	0	1	NaN	210	4	21	2	120	220	320	NaN	520	0.444336812011898	2	1	NaN	2682637.7070502	NaN	2682638.6903315	2682639.20698699
56	19	0	0	90	36.1581920903955	36.241610738255	18	0.600042096041143	2	4	2	NaN	1	3	0.0251211088865766	0	1	NaN	211	4	22	2	120	220	320	NaN	520	0.0103777749463916	1	1	NaN	2682640.4573142	NaN	2682641.4407028	2682641.95725453
56	19	0	0	90	36.1581920903955	36.241610738255	19	0.633377768043429	2	11	2	NaN	2	3	0.0251211088865766	0	1	NaN	212	4	23	2	120	220	320	NaN	520	0.0103930220939219	1	0	NaN	2682642.7742242	NaN	2682643.7575943	2682644.27415768
56	19	0	0	90	36.1581920903955	36.241610738255	23	0.766720456052571	2	11	1	NaN	2	3	0.0251211088865766	0	1	NaN	213	4	24	2	120	220	320	NaN	520	0.116381269879639	1	0	NaN	2682645.0910927	NaN	2682646.0744841	2682646.59103813
56	19	0	0	90	36.1581920903955	36.241610738255	21	0.700049112048	2	4	1	NaN	1	5	0.0251211088865766	0	1	NaN	214	4	25	2	120	220	320	NaN	520	0.0103781744837761	2	0	NaN	2682647.5247633	NaN	2682648.5080663	2682649.02461363
56	19	0	0	90	36.1581920903955	36.241610738255	21	0.700049112048	2	6	2	NaN	1	3	0.0251211088865766	0	1	NaN	215	4	26	2	120	220	320	NaN	520	0.0104066701605916	2	0	NaN	2682650.1582441	NaN	2682651.1416579	2682651.65820173
56	19	0	0	90	36.1581920903955	36.241610738255	20	0.666713440045714	2	7	5	NaN	2	3	0.0251211088865766	0	1	NaN	216	4	27	2	120	220	320	NaN	520	0.0103878220543265	2	1	NaN	2682652.9748403	NaN	2682653.958598	2682654.47515588
56	19	0	0	90	36.1581920903955	36.241610738255	16	0.533370752036571	2	8	5	NaN	2	5	0.0251211088865766	0	1	NaN	217	4	28	2	120	220	320	NaN	520	0.010423069819808	1	0	NaN	2682655.3087612	NaN	2682656.2921514	2682656.80871983
56	19	0	0	90	36.1581920903955	36.241610738255	22	0.733384784050286	2	3	3	NaN	1	4	0.0251211088865766	0	1	NaN	218	4	29	2	120	220	320	NaN	520	0.318173222243786	2	0	NaN	2682657.8089748	NaN	2682658.7924088	2682659.30896688
56	19	0	0	90	36.1581920903955	36.241610738255	10	0.333356720022857	2	4	1	NaN	1	4	0.0251211088865766	0	1	NaN	219	4	30	2	120	220	320	NaN	520	0.164682222064584	2	0	NaN	2682660.4426005	NaN	2682661.4260076	2682661.94255728
56	19	0	0	90	36.1581920903955	36.241610738255	25	0.833391800057143	2	1	4	NaN	1	3	0.0251211088865766	0	1	NaN	220	4	31	2	120	220	320	NaN	520	0.0103914220817387	2	0	NaN	2682662.9261942	NaN	2682663.9095764	2682664.42613328
56	19	0	0	90	36.1581920903955	36.241610738255	8	0.266685376018286	2	9	6	NaN	2	4	0.0251211088865766	0	1	NaN	221	4	32	2	120	220	320	NaN	520	0.010406022425741	2	1	NaN	2682665.2597459	NaN	2682666.2431441	2682666.75969348
56	19	0	0	90	36.1581920903955	36.241610738255	16	0.533370752036571	2	1	3	NaN	1	4	0.0251211088865766	0	1	NaN	222	4	33	2	120	220	320	NaN	520	0.0538744223304093	2	0	NaN	2682667.5933199	NaN	2682668.5767022	2682669.09325928
56	19	0	0	90	36.1581920903955	36.241610738255	8	0.266685376018286	2	10	5	NaN	2	5	0.0251211088865766	0	1	NaN	223	4	34	2	120	220	320	NaN	520	0.0549654699862003	2	1	NaN	2682669.9600616	NaN	2682670.9434977	2682671.46015153
56	19	0	0	90	36.1581920903955	36.241610738255	15	0.500035080034286	2	2	1	NaN	1	5	0.0251211088865766	0	1	NaN	224	4	35	2	120	220	320	NaN	520	0.0102798426523805	2	0	NaN	2682672.3271121	NaN	2682673.3104973	2682673.82705676
56	19	0	0	90	36.1581920903955	36.241610738255	14	0.466699408032	2	6	4	NaN	1	3	0.0251211088865766	0	1	NaN	225	4	36	2	120	220	320	NaN	520	0.843580970074981	2	0	NaN	2682674.6439265	NaN	2682675.6273891	2682676.14394123
56	19	0	0	90	36.1581920903955	36.241610738255	6	0.200014032013714	2	2	5	NaN	1	5	0.0251211088865766	0	1	NaN	226	4	37	2	120	220	320	NaN	520	0.0367786949500442	2	0	NaN	2682677.7941997	NaN	2682678.7776978	2682679.29426141
56	19	0	0	90	36.1581920903955	36.241610738255	23	0.766720456052571	2	8	5	NaN	2	3	0.0251211088865766	0	1	NaN	227	4	38	2	120	220	320	NaN	520	0.318959469906986	2	1	NaN	2682680.1444346	NaN	2682681.1279269	2682681.64448703
56	19	0	0	90	36.1581920903955	36.241610738255	15	0.500035080034286	2	5	6	NaN	1	4	0.0251211088865766	0	1	NaN	228	4	39	2	120	220	320	NaN	520	1.14144172193483	2	0	NaN	2682682.7781468	NaN	2682683.7615085	2682684.27808368
56	19	0	0	90	36.1581920903955	36.241610738255	7	0.233349704016	2	8	4	NaN	2	3	0.0251211088865766	0	1	NaN	229	4	40	2	120	220	320	NaN	520	0.0104247173294425	2	1	NaN	2682686.2284651	NaN	2682687.211865	2682687.72841538
56	19	0	0	90	36.1581920903955	36.241610738255	21	0.700049112048	2	1	5	NaN	1	5	0.0251211088865766	0	1	NaN	230	4	41	2	120	220	320	NaN	520	0.0103925224393606	1	1	NaN	2682688.5453108	NaN	2682689.5287649	2682690.04531558
56	19	0	0	90	36.1581920903955	36.241610738255	12	0.400028064027429	2	11	5	NaN	2	4	0.0251211088865766	0	1	NaN	231	4	42	2	120	220	320	NaN	520	0.0103796748444438	1	0	NaN	2682690.8789255	NaN	2682691.8623149	2682692.37887823
56	19	0	0	90	36.1581920903955	36.241610738255	14	0.466699408032	2	6	5	NaN	1	3	0.0251211088865766	0	1	NaN	232	4	43	2	120	220	320	NaN	520	0.0103866220451891	1	1	NaN	2682693.2124985	NaN	2682694.1958808	2682694.71243708
56	19	0	0	90	36.1581920903955	36.241610738255	10	0.333356720022857	2	5	6	NaN	1	4	0.0251211088865766	0	1	NaN	233	4	44	2	120	220	320	NaN	520	0.0104270176962018	1	1	NaN	2682695.5293784	NaN	2682696.5127781	2682697.02933308
56	19	0	0	90	36.1581920903955	36.241610738255	23	0.766720456052571	2	4	4	NaN	1	4	0.0251211088865766	0	1	NaN	234	4	45	2	120	220	320	NaN	520	0.0103587275370955	2	0	NaN	2682697.8629746	NaN	2682698.8463399	2682699.36288687
56	19	0	0	90	36.1581920903955	36.241610738255	12	0.400028064027429	2	1	4	NaN	1	4	0.0251211088865766	0	1	NaN	235	4	46	2	120	220	320	NaN	520	0.258871469646692	2	0	NaN	2682700.1965072	NaN	2682701.1799173	2682701.69644783
56	19	0	0	90	36.1581920903955	36.241610738255	0	0	1	5	2	NaN	1	5	0.0251211088865766	0	1	NaN	236	4	47	2	110	210	310	NaN	510	0.195983794983476	2	0	NaN	2682702.7634495	NaN	2682703.7468488	2682704.26337571
56	19	0	0	90	36.1581920903955	36.241610738255	7	0.233349704016	2	12	4	NaN	2	4	0.0251211088865766	0	1	NaN	237	4	48	2	120	220	320	NaN	520	0.335776317398995	1	0	NaN	2682705.2636399	NaN	2682706.2470587	2682706.76360998
56	19	0	0	90	36.1581920903955	36.241610738255	8	0.266685376018286	2	1	5	NaN	1	5	0.0251211088865766	0	1	NaN	238	4	49	2	120	220	320	NaN	520	0.0375079219229519	2	0	NaN	2682707.9138999	NaN	2682708.8973227	2682709.41388188
56	19	0	0	90	36.1581920903955	36.241610738255	12	0.400028064027429	2	7	1	NaN	2	4	0.0251211088865766	0	1	NaN	239	4	50	2	120	220	320	NaN	520	0.383421421982348	2	1	NaN	2682710.2641634	NaN	2682711.2475471	2682711.76410588
56	19	0	0	90	36.1581920903955	36.241610738255	9	0.300021048020571	2	11	3	NaN	2	5	0.0251211088865766	0	1	NaN	240	4	51	2	120	220	320	NaN	520	0.074872522149235	2	1	NaN	2682712.9644248	NaN	2682713.9478408	2682714.46437898
56	19	0	0	90	36.1581920903955	36.241610738255	18	0.600042096041143	2	8	2	NaN	2	3	0.0251211088865766	0	1	NaN	241	4	52	2	120	220	320	NaN	520	0.403212922159582	2	1	NaN	2682715.3478589	NaN	2682716.3313823	2682716.84794878
56	19	0	0	90	36.1581920903955	36.241610738255	16	0.533370752036571	2	7	4	NaN	2	4	0.0251211088865766	0	1	NaN	242	4	53	2	120	220	320	NaN	520	0.406623122282326	2	1	NaN	2682718.0649404	NaN	2682719.0483213	2682719.56487978
56	19	0	0	90	36.1581920903955	36.241610738255	15	0.500035080034286	2	7	5	NaN	2	5	0.0251211088865766	0	1	NaN	243	4	54	2	120	220	320	NaN	520	0.425689221825451	1	0	NaN	2682720.7818539	NaN	2682721.7652535	2682722.28180708
56	19	0	0	90	36.1581920903955	36.241610738255	9	0.300021048020571	2	12	5	NaN	2	5	0.0251211088865766	0	1	NaN	244	4	55	2	120	220	320	NaN	520	0.0104432222433388	1	0	NaN	2682723.5154782	NaN	2682724.4988584	2682725.01541018
56	19	0	0	90	36.1581920903955	36.241610738255	15	0.500035080034286	2	6	3	NaN	1	4	0.0251211088865766	0	1	NaN	245	4	56	2	120	220	320	NaN	520	0.0103986221365631	2	0	NaN	2682725.8323519	NaN	2682726.8157377	2682727.33230928
56	19	0	0	90	36.1581920903955	36.241610738255	6	0.200014032013714	2	9	2	NaN	2	4	0.0251211088865766	0	1	NaN	246	4	57	2	120	220	320	NaN	520	0.010391722433269	1	0	NaN	2682728.1491789	NaN	2682729.1326523	2682729.64920018
56	19	0	0	90	36.1581920903955	36.241610738255	22	0.733384784050286	2	6	6	NaN	1	3	0.0251211088865766	0	1	NaN	247	4	58	2	120	220	320	NaN	520	0.101172642782331	1	1	NaN	2682730.4661424	NaN	2682731.4495397	2682731.96610146
56	19	0	0	90	36.1581920903955	36.241610738255	8	0.266685376018286	2	7	4	NaN	2	4	0.0251211088865766	0	1	NaN	248	4	59	2	120	220	320	NaN	520	0.204270017333329	2	1	NaN	2682732.8830423	NaN	2682733.8664336	2682734.38299348
56	19	0	0	90	36.1581920903955	36.241610738255	0	0	1	8	3	NaN	2	3	0.0251211088865766	0	1	NaN	249	4	60	2	110	210	310	NaN	510	0.295336070004851	2	1	NaN	2682735.3999585	NaN	2682736.383353	2682736.89990503
56	19	0	0	90	36.1581920903955	36.241610738255	11	0.366692392025143	2	11	6	NaN	2	5	0.0251211088865766	0	1	NaN	250	4	61	2	120	220	320	NaN	520	0.33541482174769	2	1	NaN	2682738.0000863	NaN	2682738.9836209	2682739.50017238
56	19	0	0	90	36.1581920903955	36.241610738255	17	0.566706424038857	2	12	2	NaN	2	5	0.0251211088865766	0	1	NaN	251	4	62	2	120	220	320	NaN	520	0.0269289221614599	2	1	NaN	2682740.7004456	NaN	2682741.6838595	2682742.20042928
56	19	0	0	90	36.1581920903955	36.241610738255	15	0.500035080034286	2	9	5	NaN	2	3	0.0251211088865766	0	1	NaN	252	4	63	2	120	220	320	NaN	520	0.0104231173172593	2	1	NaN	2682743.0340622	NaN	2682744.0174235	2682744.53398528
56	19	0	0	90	36.1581920903955	36.241610738255	18	0.600042096041143	2	12	4	NaN	2	5	0.0251211088865766	0	1	NaN	253	5	1	2	120	220	320	NaN	520	0.010408170055598	2	1	NaN	2682764.2194538	NaN	2682765.2028528	2682765.71940383
56	19	0	0	90	36.1581920903955	36.241610738255	19	0.633377768043429	2	7	3	NaN	2	4	0.0251211088865766	0	1	NaN	254	5	2	2	120	220	320	NaN	520	0.486888470128179	1	0	NaN	2682766.5362213	NaN	2682767.5197536	2682768.03629713
56	19	0	0	90	36.1581920903955	36.241610738255	13	0.433363736029714	2	10	1	NaN	2	5	0.0251211088865766	0	1	NaN	255	5	3	2	120	220	320	NaN	520	0.494745827279985	1	0	NaN	2682769.3366577	NaN	2682770.320024	2682770.83658147
56	19	0	0	90	36.1581920903955	36.241610738255	8	0.266685376018286	2	6	6	NaN	1	4	0.0251211088865766	0	1	NaN	256	5	4	2	120	220	320	NaN	520	0.486324521712959	1	1	NaN	2682772.1369014	NaN	2682773.1203075	2682773.63685638
56	19	0	0	90	36.1581920903955	36.241610738255	10	0.333356720022857	2	2	6	NaN	1	3	0.0251211088865766	0	1	NaN	257	5	5	2	120	220	320	NaN	520	0.406207142863423	2	0	NaN	2682774.9372081	NaN	2682775.9205782	2682776.43712566
56	19	0	0	90	36.1581920903955	36.241610738255	10	0.333356720022857	2	8	1	NaN	2	4	0.0251211088865766	0	1	NaN	258	5	6	2	120	220	320	NaN	520	0.489201569929719	2	1	NaN	2682777.6539729	NaN	2682778.6375062	2682779.15406383
56	19	0	0	90	36.1581920903955	36.241610738255	11	0.366692392025143	2	5	1	NaN	1	3	0.0251211088865766	0	1	NaN	259	5	7	2	120	220	320	NaN	520	0.433305521961302	1	1	NaN	2682780.4543551	NaN	2682781.4377775	2682781.95432848
56	19	0	0	90	36.1581920903955	36.241610738255	9	0.300021048020571	2	3	1	NaN	1	4	0.0251211088865766	0	1	NaN	260	5	8	2	120	220	320	NaN	520	0.370698942802846	1	1	NaN	2682783.2046453	NaN	2682784.1880443	2682784.70461226
56	19	0	0	90	36.1581920903955	36.241610738255	8	0.266685376018286	2	12	4	NaN	2	3	0.0251211088865766	0	1	NaN	261	5	9	2	120	220	320	NaN	520	0.375351422000676	2	1	NaN	2682785.8882497	NaN	2682786.871645	2682787.38821788
56	19	0	0	90	36.1581920903955	36.241610738255	19	0.633377768043429	2	2	6	NaN	1	4	0.0251211088865766	0	1	NaN	262	5	10	2	120	220	320	NaN	520	0.499529122374952	2	0	NaN	2682788.5718408	NaN	2682789.5552841	2682790.07179178
56	19	0	0	90	36.1581920903955	36.241610738255	16	0.533370752036571	2	8	5	NaN	2	4	0.0251211088865766	0	1	NaN	263	5	11	2	120	220	320	NaN	520	0.155218522064388	1	0	NaN	2682791.3721431	NaN	2682792.3555223	2682792.87207208
56	19	0	0	90	36.1581920903955	36.241610738255	25	0.833391800057143	2	5	4	NaN	1	4	0.0251211088865766	0	1	NaN	264	5	12	2	120	220	320	NaN	520	0.26441612187773	2	0	NaN	2682793.8389282	NaN	2682794.822473	2682795.33897638
56	19	0	0	90	36.1581920903955	36.241610738255	22	0.733384784050286	2	10	1	NaN	2	3	0.0251211088865766	0	1	NaN	265	5	13	2	120	220	320	NaN	520	0.424857821781188	1	0	NaN	2682796.4227014	NaN	2682797.4060127	2682797.92256558
56	19	0	0	90	36.1581920903955	36.241610738255	15	0.500035080034286	2	3	3	NaN	1	3	0.0251211088865766	0	1	NaN	266	5	14	2	120	220	320	NaN	520	0.490997922141105	1	1	NaN	2682799.1560787	NaN	2682800.1396018	2682800.65616758
56	19	0	0	90	36.1581920903955	36.241610738255	15	0.500035080034286	2	4	6	NaN	1	5	0.0251211088865766	0	1	NaN	267	5	15	2	120	220	320	NaN	520	0.427173470146954	1	1	NaN	2682801.9565003	NaN	2682802.9398883	2682803.45644253
56	19	0	0	90	36.1581920903955	36.241610738255	21	0.700049112048	2	1	6	NaN	1	4	0.0251211088865766	0	1	NaN	268	5	16	2	120	220	320	NaN	520	0.420930122025311	2	0	NaN	2682804.7067583	NaN	2682805.6901582	2682806.20670818
56	19	0	0	90	36.1581920903955	36.241610738255	10	0.333356720022857	2	4	5	NaN	1	4	0.0251211088865766	0	1	NaN	269	5	17	2	120	220	320	NaN	520	0.343115122523159	1	1	NaN	2682807.4405004	NaN	2682808.4237394	2682808.94031598
56	19	0	0	90	36.1581920903955	36.241610738255	8	0.266685376018286	2	7	3	NaN	2	4	0.0251211088865766	0	1	NaN	270	5	18	2	120	220	320	NaN	520	0.253108170349151	1	0	NaN	2682810.0906299	NaN	2682811.0740233	2682811.59057403
56	19	0	0	90	36.1581920903955	36.241610738255	24	0.800056128054857	2	7	6	NaN	2	4	0.0251211088865766	0	1	NaN	271	5	19	2	120	220	320	NaN	520	0.0220087221823633	2	1	NaN	2682812.6575504	NaN	2682813.6409536	2682814.15749438
56	19	0	0	90	36.1581920903955	36.241610738255	8	0.266685376018286	2	5	1	NaN	1	4	0.0251211088865766	0	1	NaN	272	5	20	2	120	220	320	NaN	520	0.20847987011075	1	1	NaN	2682814.9911054	NaN	2682815.9745127	2682816.49105063
56	19	0	0	90	36.1581920903955	36.241610738255	22	0.733384784050286	2	9	2	NaN	2	5	0.0251211088865766	0	1	NaN	273	5	21	2	120	220	320	NaN	520	0.563058522064239	1	0	NaN	2682817.5245476	NaN	2682818.5080774	2682819.02464448
56	19	0	0	90	36.1581920903955	36.241610738255	0	0	1	5	4	NaN	1	5	0.0251211088865766	0	1	NaN	274	5	22	2	110	210	310	NaN	510	0.0104427649639547	1	1	NaN	2682820.4083126	NaN	2682821.3916984	2682821.90825904
56	19	0	0	90	36.1581920903955	36.241610738255	23	0.766720456052571	2	2	5	NaN	1	4	0.0251211088865766	0	1	NaN	275	5	23	2	120	220	320	NaN	520	0.0103904223069549	2	0	NaN	2682822.7252021	NaN	2682823.70858	2682824.22515338
56	19	0	0	90	36.1581920903955	36.241610738255	12	0.400028064027429	2	4	2	NaN	1	5	0.0251211088865766	0	1	NaN	276	5	24	2	120	220	320	NaN	520	0.188504422083497	1	1	NaN	2682825.0588043	NaN	2682826.0421525	2682826.55871018
56	19	0	0	90	36.1581920903955	36.241610738255	11	0.366692392025143	2	4	1	NaN	1	3	0.0251211088865766	0	1	NaN	277	5	25	2	120	220	320	NaN	520	0.0104032699018717	1	1	NaN	2682828.0923379	NaN	2682829.0757883	2682829.59234693
56	19	0	0	90	36.1581920903955	36.241610738255	10	0.333356720022857	2	3	3	NaN	1	5	0.0251211088865766	0	1	NaN	278	5	26	2	120	220	320	NaN	520	0.397427622228861	1	1	NaN	2682830.4259534	NaN	2682831.409348	2682831.92589758
56	19	0	0	90	36.1581920903955	36.241610738255	23	0.766720456052571	2	7	6	NaN	2	3	0.0251211088865766	0	1	NaN	279	5	27	2	120	220	320	NaN	520	0.0171905225142837	2	1	NaN	2682833.1262558	NaN	2682834.1096064	2682834.62616478
56	19	0	0	90	36.1581920903955	36.241610738255	23	0.766720456052571	2	11	4	NaN	2	3	0.0251211088865766	0	1	NaN	280	5	28	2	120	220	320	NaN	520	0.492000095080584	2	1	NaN	2682835.4596451	NaN	2682836.4431747	2682836.95973851
56	19	0	0	90	36.1581920903955	36.241610738255	7	0.233349704016	2	1	3	NaN	1	5	0.0251211088865766	0	1	NaN	281	5	29	2	120	220	320	NaN	520	0.371702917385846	2	0	NaN	2682838.2600399	NaN	2682839.2434557	2682839.76000778
56	19	0	0	90	36.1581920903955	36.241610738255	23	0.766720456052571	2	7	1	NaN	2	3	0.0251211088865766	0	1	NaN	282	5	30	2	120	220	320	NaN	520	0.391811859793961	1	0	NaN	2682840.9436611	NaN	2682841.9269433	2682842.44360654
56	19	0	0	90	36.1581920903955	36.241610738255	24	0.800056128054857	2	10	6	NaN	2	3	0.0251211088865766	0	1	NaN	283	5	31	2	120	220	320	NaN	520	0.411816517356783	1	0	NaN	2682843.6437873	NaN	2682844.6273158	2682845.14387228
56	19	0	0	90	36.1581920903955	36.241610738255	19	0.633377768043429	2	2	4	NaN	1	5	0.0251211088865766	0	1	NaN	284	5	32	2	120	220	320	NaN	520	0.0627778274938464	2	0	NaN	2682846.3608889	NaN	2682847.3442478	2682847.86080377
56	19	0	0	90	36.1581920903955	36.241610738255	22	0.733384784050286	2	7	3	NaN	2	3	0.0251211088865766	0	1	NaN	285	5	33	2	120	220	320	NaN	520	0.535791822243482	2	1	NaN	2682848.7278282	NaN	2682849.7111449	2682850.22770438
56	19	0	0	90	36.1581920903955	36.241610738255	25	0.833391800057143	2	12	3	NaN	2	3	0.0251211088865766	0	1	NaN	286	5	34	2	120	220	320	NaN	520	0.393498070072383	2	1	NaN	2682851.6780344	NaN	2682852.6614411	2682853.17798213
56	19	0	0	90	36.1581920903955	36.241610738255	6	0.200014032013714	2	11	6	NaN	2	4	0.0251211088865766	0	1	NaN	287	5	35	2	120	220	320	NaN	520	0.381134721916169	2	1	NaN	2682854.3783181	NaN	2682855.3616957	2682855.87825818
56	19	0	0	90	36.1581920903955	36.241610738255	11	0.366692392025143	2	6	4	NaN	1	3	0.0251211088865766	0	1	NaN	288	5	36	2	120	220	320	NaN	520	0.345547322183847	1	1	NaN	2682857.0619337	NaN	2682858.0453049	2682858.56185398
56	19	0	0	90	36.1581920903955	36.241610738255	12	0.400028064027429	2	1	4	NaN	1	4	0.0251211088865766	0	1	NaN	289	5	37	2	120	220	320	NaN	520	0.430939142592251	1	1	NaN	2682859.7288592	NaN	2682860.712232	2682861.22878386
56	19	0	0	90	36.1581920903955	36.241610738255	19	0.633377768043429	2	1	3	NaN	1	3	0.0251211088865766	0	1	NaN	290	5	38	2	120	220	320	NaN	520	0.424493770115077	2	0	NaN	2682862.4790946	NaN	2682863.462487	2682863.97904203
56	19	0	0	90	36.1581920903955	36.241610738255	13	0.433363736029714	2	7	1	NaN	2	5	0.0251211088865766	0	1	NaN	291	5	39	2	120	220	320	NaN	520	0.459134222008288	2	1	NaN	2682865.2127175	NaN	2682866.1960938	2682866.71265598
56	19	0	0	90	36.1581920903955	36.241610738255	6	0.200014032013714	2	8	3	NaN	2	5	0.0251211088865766	0	1	NaN	292	5	40	2	120	220	320	NaN	520	0.268145969603211	2	1	NaN	2682867.9797362	NaN	2682868.9630828	2682869.47958393
56	19	0	0	90	36.1581920903955	36.241610738255	8	0.266685376018286	2	1	5	NaN	1	3	0.0251211088865766	0	1	NaN	293	5	41	2	120	220	320	NaN	520	0.300130722112954	2	0	NaN	2682870.5632377	NaN	2682871.546619	2682872.06318398
56	19	0	0	90	36.1581920903955	36.241610738255	16	0.533370752036571	2	4	2	NaN	1	5	0.0251211088865766	0	1	NaN	294	5	42	2	120	220	320	NaN	520	0.131336422171444	1	1	NaN	2682873.1801624	NaN	2682874.1635492	2682874.68010118
56	19	0	0	90	36.1581920903955	36.241610738255	25	0.833391800057143	2	9	6	NaN	2	5	0.0251211088865766	0	1	NaN	295	5	43	2	120	220	320	NaN	520	0.369897122494876	2	1	NaN	2682875.6137375	NaN	2682876.5971152	2682877.11367808
56	19	0	0	90	36.1581920903955	36.241610738255	6	0.200014032013714	2	12	4	NaN	2	5	0.0251211088865766	0	1	NaN	296	5	44	2	120	220	320	NaN	520	0.366021370049566	2	1	NaN	2682878.2973139	NaN	2682879.2807216	2682879.79727083
56	19	0	0	90	36.1581920903955	36.241610738255	18	0.600042096041143	2	3	6	NaN	1	4	0.0251211088865766	0	1	NaN	297	5	45	2	120	220	320	NaN	520	0.642398522235453	2	0	NaN	2682880.9809443	NaN	2682881.9643143	2682882.48086678
56	19	0	0	90	36.1581920903955	36.241610738255	0	0	1	6	5	NaN	1	5	0.0251211088865766	0	1	NaN	298	5	46	2	110	210	310	NaN	510	0.320983617566526	2	0	NaN	2682884.0144177	NaN	2682884.9979445	2682885.51449168
56	19	0	0	90	36.1581920903955	36.241610738255	14	0.466699408032	2	1	4	NaN	1	4	0.0251211088865766	0	1	NaN	299	5	47	2	120	220	320	NaN	520	0.247334422077984	1	1	NaN	2682886.6481236	NaN	2682887.6315403	2682888.14808988
56	19	0	0	90	36.1581920903955	36.241610738255	12	0.400028064027429	2	9	3	NaN	2	3	0.0251211088865766	0	1	NaN	300	5	48	2	120	220	320	NaN	520	0.37660502223298	1	0	NaN	2682889.2150617	NaN	2682890.1984667	2682890.71500728
56	19	0	0	90	36.1581920903955	36.241610738255	6	0.200014032013714	2	11	2	NaN	2	5	0.0251211088865766	0	1	NaN	301	5	49	2	120	220	320	NaN	520	0.34856852190569	2	1	NaN	2682891.9153369	NaN	2682892.8987458	2682893.41527688
56	19	0	0	90	36.1581920903955	36.241610738255	18	0.600042096041143	2	9	3	NaN	2	3	0.0251211088865766	0	1	NaN	302	5	50	2	120	220	320	NaN	520	0.425363612361252	1	0	NaN	2682894.5822405	NaN	2682895.5656419	2682896.08219269
56	19	0	0	90	36.1581920903955	36.241610738255	24	0.800056128054857	2	7	4	NaN	2	5	0.0251211088865766	0	1	NaN	303	5	51	2	120	220	320	NaN	520	0.331760222092271	1	0	NaN	2682897.3158734	NaN	2682898.2992495	2682898.81580738
56	19	0	0	90	36.1581920903955	36.241610738255	20	0.666713440045714	2	6	2	NaN	1	4	0.0251211088865766	0	1	NaN	304	5	52	2	120	220	320	NaN	520	0.385580370202661	2	0	NaN	2682899.9661298	NaN	2682900.9495107	2682901.46605533
56	19	0	0	90	36.1581920903955	36.241610738255	10	0.333356720022857	2	8	6	NaN	2	3	0.0251211088865766	0	1	NaN	305	5	53	2	120	220	320	NaN	520	0.389121722429991	2	1	NaN	2682902.6663881	NaN	2682903.649772	2682904.16632338
56	19	0	0	90	36.1581920903955	36.241610738255	19	0.633377768043429	2	12	1	NaN	2	4	0.0251211088865766	0	1	NaN	306	5	54	2	120	220	320	NaN	520	0.504751469939947	1	0	NaN	2682905.3666322	NaN	2682906.3500443	2682906.86658523
56	19	0	0	90	36.1581920903955	36.241610738255	0	0	1	7	4	NaN	2	4	0.0251211088865766	0	1	NaN	307	5	55	2	110	210	310	NaN	510	0.423878322355449	2	1	NaN	2682908.1836034	NaN	2682909.1669811	2682909.68353928
56	19	0	0	90	36.1581920903955	36.241610738255	10	0.333356720022857	2	6	3	NaN	1	3	0.0251211088865766	0	1	NaN	308	5	56	2	120	220	320	NaN	520	0.426686717197299	2	0	NaN	2682910.917052	NaN	2682911.9005891	2682912.41713028
56	19	0	0	90	36.1581920903955	36.241610738255	11	0.366692392025143	2	10	5	NaN	2	5	0.0251211088865766	0	1	NaN	309	5	57	2	120	220	320	NaN	520	0.524825621861964	1	0	NaN	2682913.6507892	NaN	2682914.6341897	2682915.15073748
56	19	0	0	90	36.1581920903955	36.241610738255	21	0.700049112048	2	4	2	NaN	1	5	0.0251211088865766	0	1	NaN	310	5	58	2	120	220	320	NaN	520	0.411303670145571	1	1	NaN	2682916.484402	NaN	2682917.467792	2682917.98434653
56	19	0	0	90	36.1581920903955	36.241610738255	9	0.300021048020571	2	10	2	NaN	2	4	0.0251211088865766	0	1	NaN	311	5	59	2	120	220	320	NaN	520	0.334437132347375	1	0	NaN	2682919.201351	NaN	2682920.1847092	2682920.70128757
56	19	0	0	90	36.1581920903955	36.241610738255	23	0.766720456052571	2	6	6	NaN	1	4	0.0251211088865766	0	1	NaN	312	5	60	2	120	220	320	NaN	520	0.587940394412726	1	1	NaN	2682921.851588	NaN	2682922.8349924	2682923.35154651
56	19	0	0	90	36.1581920903955	36.241610738255	10	0.333356720022857	2	11	6	NaN	2	4	0.0251211088865766	0	1	NaN	313	5	61	2	120	220	320	NaN	520	0.479509769938886	1	0	NaN	2682924.751882	NaN	2682925.7352667	2682926.25184103
56	19	0	0	90	36.1581920903955	36.241610738255	17	0.566706424038857	2	2	3	NaN	1	5	0.0251211088865766	0	1	NaN	314	5	62	2	120	220	320	NaN	520	0.576203522272408	1	1	NaN	2682927.5353468	NaN	2682928.5188901	2682929.03544068
56	19	0	0	90	36.1581920903955	36.241610738255	16	0.533370752036571	2	12	2	NaN	2	4	0.0251211088865766	0	1	NaN	315	5	63	2	120	220	320	NaN	520	0.644139300100505	1	0	NaN	2682930.4191134	NaN	2682931.4024954	2682931.9190606
56	19	0	0	90	36.1581920903955	36.241610738255	11	0.366692392025143	2	6	1	NaN	1	5	0.0251211088865766	0	1	NaN	316	6	1	2	120	220	320	NaN	520	0.0278188218362629	1	1	NaN	2682958.3718861	NaN	2682959.3552195	2682959.87179688
56	19	0	0	90	36.1581920903955	36.241610738255	21	0.700049112048	2	11	3	NaN	2	3	0.0251211088865766	0	1	NaN	317	6	2	2	120	220	320	NaN	520	0.429811822250485	1	0	NaN	2682960.722035	NaN	2682961.7054702	2682962.22202498
56	19	0	0	90	36.1581920903955	36.241610738255	18	0.600042096041143	2	5	6	NaN	1	4	0.0251211088865766	0	1	NaN	318	6	3	2	120	220	320	NaN	520	0.543089370243251	2	0	NaN	2682963.4723744	NaN	2682964.455738	2682964.97229373
56	19	0	0	90	36.1581920903955	36.241610738255	13	0.433363736029714	2	2	4	NaN	1	3	0.0251211088865766	0	1	NaN	319	6	4	2	120	220	320	NaN	520	0.220784469973296	2	0	NaN	2682966.3225688	NaN	2682967.30602	2682967.82257823
56	19	0	0	90	36.1581920903955	36.241610738255	9	0.300021048020571	2	5	2	NaN	1	5	0.0251211088865766	0	1	NaN	320	6	5	2	120	220	320	NaN	520	0.415238022338599	1	1	NaN	2682968.8562117	NaN	2682969.8397032	2682970.35615768
56	19	0	0	90	36.1581920903955	36.241610738255	21	0.700049112048	2	5	4	NaN	1	5	0.0251211088865766	0	1	NaN	321	6	6	2	120	220	320	NaN	520	0.385922970250249	1	1	NaN	2682971.5898094	NaN	2682972.5731989	2682973.08977133
56	19	0	0	90	36.1581920903955	36.241610738255	17	0.566706424038857	2	3	2	NaN	1	4	0.0251211088865766	0	1	NaN	322	6	7	2	120	220	320	NaN	520	0.517549817450345	1	1	NaN	2682974.2900794	NaN	2682975.2734762	2682975.79001848
56	19	0	0	90	36.1581920903955	36.241610738255	23	0.766720456052571	2	12	2	NaN	2	4	0.0251211088865766	0	1	NaN	323	6	8	2	120	220	320	NaN	520	0.452378522139043	2	1	NaN	2682977.1235556	NaN	2682978.1070669	2682978.62363548
56	19	0	0	90	36.1581920903955	36.241610738255	9	0.300021048020571	2	6	6	NaN	1	5	0.0251211088865766	0	1	NaN	324	6	9	2	120	220	320	NaN	520	0.404998164623976	1	1	NaN	2682979.8905103	NaN	2682980.8740402	2682981.39057264
56	19	0	0	90	36.1581920903955	36.241610738255	6	0.200014032013714	2	12	1	NaN	2	4	0.0251211088865766	0	1	NaN	325	6	10	2	120	220	320	NaN	520	0.400056469719857	2	1	NaN	2682982.6075612	NaN	2682983.590957	2682984.10750513
56	19	0	0	90	36.1581920903955	36.241610738255	22	0.733384784050286	2	1	3	NaN	1	3	0.0251211088865766	0	1	NaN	326	6	11	2	120	220	320	NaN	520	3.85133422212675	1	1	NaN	2682985.3245046	NaN	2682986.3078844	2682986.82444418
56	19	0	0	90	36.1581920903955	36.241610738255	0	0	1	4	3	NaN	1	5	0.0251211088865766	0	1	NaN	327	6	12	2	110	210	310	NaN	510	0.428745265118778	1	1	NaN	2682991.4750865	NaN	2682992.4584857	2682992.97504104
56	19	0	0	90	36.1581920903955	36.241610738255	12	0.400028064027429	2	5	3	NaN	1	4	0.0251211088865766	0	1	NaN	328	6	13	2	120	220	320	NaN	520	0.45408977009356	1	1	NaN	2682994.2253663	NaN	2682995.2087438	2682995.72533893
56	19	0	0	90	36.1581920903955	36.241610738255	14	0.466699408032	2	8	4	NaN	2	3	0.0251211088865766	0	1	NaN	329	6	14	2	120	220	320	NaN	520	0.343362617772073	1	0	NaN	2682996.9923034	NaN	2682997.975703	2682998.49225318
56	19	0	0	90	36.1581920903955	36.241610738255	22	0.733384784050286	2	1	1	NaN	1	4	0.0251211088865766	0	1	NaN	330	6	15	2	120	220	320	NaN	520	0.589030322153121	1	1	NaN	2682999.6425871	NaN	2683000.6259737	2683001.14251618
56	19	0	0	90	36.1581920903955	36.241610738255	13	0.433363736029714	2	1	4	NaN	1	3	0.0251211088865766	0	1	NaN	331	6	16	2	120	220	320	NaN	520	0.544753317721188	2	0	NaN	2683002.5427419	NaN	2683003.526244	2683004.04279658
56	19	0	0	90	36.1581920903955	36.241610738255	11	0.366692392025143	2	7	3	NaN	2	5	0.0251211088865766	0	1	NaN	332	6	17	2	120	220	320	NaN	520	0.0104042221792042	2	1	NaN	2683005.4098126	NaN	2683006.3931849	2683006.90975058
56	19	0	0	90	36.1581920903955	36.241610738255	25	0.833391800057143	2	4	3	NaN	1	3	0.0251211088865766	0	1	NaN	333	6	18	2	120	220	320	NaN	520	0.417244922369719	1	1	NaN	2683007.7265579	NaN	2683008.7100831	2683009.22664118
56	19	0	0	90	36.1581920903955	36.241610738255	19	0.633377768043429	2	3	3	NaN	1	3	0.0251211088865766	0	1	NaN	334	6	19	2	120	220	320	NaN	520	0.259552770294249	1	1	NaN	2683010.4603037	NaN	2683011.443776	2683011.96023583
56	19	0	0	90	36.1581920903955	36.241610738255	9	0.300021048020571	2	6	6	NaN	1	5	0.0251211088865766	0	1	NaN	335	6	20	2	120	220	320	NaN	520	0.524710522033274	1	1	NaN	2683013.0272089	NaN	2683014.0106015	2683014.52715808
56	19	0	0	90	36.1581920903955	36.241610738255	0	0	1	10	6	NaN	2	4	0.0251211088865766	0	1	NaN	336	6	21	2	110	210	310	NaN	510	0.427203469909728	1	0	NaN	2683015.8608367	NaN	2683016.8442455	2683017.36076963
56	19	0	0	90	36.1581920903955	36.241610738255	24	0.800056128054857	2	6	3	NaN	1	3	0.0251211088865766	0	1	NaN	337	6	22	2	120	220	320	NaN	520	0.397573422174901	1	1	NaN	2683018.5944257	NaN	2683019.5778171	2683020.09436928
56	19	0	0	90	36.1581920903955	36.241610738255	24	0.800056128054857	2	8	6	NaN	2	4	0.0251211088865766	0	1	NaN	338	6	23	2	120	220	320	NaN	520	0.408343142364174	2	1	NaN	2683021.3113683	NaN	2683022.2947464	2683022.81130916
56	19	0	0	90	36.1581920903955	36.241610738255	11	0.366692392025143	2	1	6	NaN	1	3	0.0251211088865766	0	1	NaN	339	6	24	2	120	220	320	NaN	520	0.491339522413909	1	1	NaN	2683024.0282893	NaN	2683025.0116837	2683025.52825518
56	19	0	0	90	36.1581920903955	36.241610738255	25	0.833391800057143	2	3	5	NaN	1	3	0.0251211088865766	0	1	NaN	340	6	25	2	120	220	320	NaN	520	0.435403522104025	1	1	NaN	2683026.8285925	NaN	2683027.8119582	2683028.32851918
56	19	0	0	90	36.1581920903955	36.241610738255	21	0.700049112048	2	3	3	NaN	1	5	0.0251211088865766	0	1	NaN	341	6	26	2	120	220	320	NaN	520	0.549188970122486	1	1	NaN	2683029.5787067	NaN	2683030.5622774	2683031.07878453
56	19	0	0	90	36.1581920903955	36.241610738255	0	0	1	11	4	NaN	2	5	0.0251211088865766	0	1	NaN	342	6	27	2	110	210	310	NaN	510	0.449888437055051	2	1	NaN	2683032.4458075	NaN	2683033.4291798	2683033.94573776
56	19	0	0	90	36.1581920903955	36.241610738255	11	0.366692392025143	2	11	4	NaN	2	5	0.0251211088865766	0	1	NaN	343	6	28	2	120	220	320	NaN	520	0.434927022084594	2	1	NaN	2683035.2127162	NaN	2683036.1960961	2683036.71266848
56	19	0	0	90	36.1581920903955	36.241610738255	14	0.466699408032	2	7	6	NaN	2	5	0.0251211088865766	0	1	NaN	344	6	29	2	120	220	320	NaN	520	0.381048717536032	1	0	NaN	2683037.9630081	NaN	2683038.9463884	2683039.46293508
56	19	0	0	90	36.1581920903955	36.241610738255	12	0.400028064027429	2	2	4	NaN	1	4	0.0251211088865766	0	1	NaN	345	6	30	2	120	220	320	NaN	520	0.384318169672042	2	0	NaN	2683040.6631189	NaN	2683041.6466486	2683042.16320883
56	19	0	0	90	36.1581920903955	36.241610738255	19	0.633377768043429	2	9	4	NaN	2	4	0.0251211088865766	0	1	NaN	346	6	31	2	120	220	320	NaN	520	0.300261721946299	1	0	NaN	2683043.3633825	NaN	2683044.3469047	2683044.86347398
56	19	0	0	90	36.1581920903955	36.241610738255	6	0.200014032013714	2	5	1	NaN	1	4	0.0251211088865766	0	1	NaN	347	6	32	2	120	220	320	NaN	520	0.0994326220825315	1	1	NaN	2683045.9804452	NaN	2683046.9638319	2683047.48039218
56	19	0	0	90	36.1581920903955	36.241610738255	24	0.800056128054857	2	11	2	NaN	2	5	0.0251211088865766	0	1	NaN	348	6	33	2	120	220	320	NaN	520	1.6086252219975	1	0	NaN	2683048.8473648	NaN	2683049.8307985	2683050.34733568
56	19	0	0	90	36.1581920903955	36.241610738255	16	0.533370752036571	2	5	2	NaN	1	5	0.0251211088865766	0	1	NaN	349	6	34	2	120	220	320	NaN	520	0.715265022125095	2	0	NaN	2683052.7644545	NaN	2683053.7478613	2683054.26438758
56	19	0	0	90	36.1581920903955	36.241610738255	20	0.666713440045714	2	8	5	NaN	2	4	0.0251211088865766	0	1	NaN	350	6	35	2	120	220	320	NaN	520	0.449988437350839	2	1	NaN	2683055.7980713	NaN	2683056.7814687	2683057.29802496
56	19	0	0	90	36.1581920903955	36.241610738255	18	0.600042096041143	2	4	3	NaN	1	3	0.0251211088865766	0	1	NaN	351	6	36	2	120	220	320	NaN	520	0.531150170136243	2	0	NaN	2683058.5650171	NaN	2683059.5484192	2683060.06496893
56	19	0	0	90	36.1581920903955	36.241610738255	13	0.433363736029714	2	1	1	NaN	1	5	0.0251211088865766	0	1	NaN	352	6	37	2	120	220	320	NaN	520	0.6564412699081	1	1	NaN	2683061.4152865	NaN	2683062.3986885	2683062.91524253
56	19	0	0	90	36.1581920903955	36.241610738255	15	0.500035080034286	2	4	5	NaN	1	5	0.0251211088865766	0	1	NaN	353	6	38	2	120	220	320	NaN	520	0.361663322430104	1	1	NaN	2683064.3822706	NaN	2683065.3656444	2683065.88219698
56	19	0	0	90	36.1581920903955	36.241610738255	25	0.833391800057143	2	9	5	NaN	2	3	0.0251211088865766	0	1	NaN	354	6	39	2	120	220	320	NaN	520	0.245827269740403	2	1	NaN	2683067.065877	NaN	2683068.0492226	2683068.56580113
56	19	0	0	90	36.1581920903955	36.241610738255	19	0.633377768043429	2	6	5	NaN	1	4	0.0251211088865766	0	1	NaN	355	6	40	2	120	220	320	NaN	520	0.545604954473674	2	0	NaN	2683069.7661084	NaN	2683070.7494951	2683071.26605405
56	19	0	0	90	36.1581920903955	36.241610738255	13	0.433363736029714	2	3	2	NaN	1	5	0.0251211088865766	0	1	NaN	356	6	41	2	120	220	320	NaN	520	0.134824194945395	1	1	NaN	2683072.6330739	NaN	2683073.6164627	2683074.13301431
56	19	0	0	90	36.1581920903955	36.241610738255	12	0.400028064027429	2	10	5	NaN	2	3	0.0251211088865766	0	1	NaN	357	6	42	2	120	220	320	NaN	520	0.668740017805248	1	0	NaN	2683075.083297	NaN	2683076.0666978	2683076.58324598
56	19	0	0	90	36.1581920903955	36.241610738255	11	0.366692392025143	2	2	4	NaN	1	5	0.0251211088865766	0	1	NaN	358	6	43	2	120	220	320	NaN	520	0.413183722179383	1	1	NaN	2683078.0669565	NaN	2683079.050319	2683079.56688268
56	19	0	0	90	36.1581920903955	36.241610738255	25	0.833391800057143	2	6	1	NaN	1	5	0.0251211088865766	0	1	NaN	359	6	44	2	120	220	320	NaN	520	0.607368589844555	1	1	NaN	2683080.8005356	NaN	2683081.7839199	2683082.30048791
56	19	0	0	90	36.1581920903955	36.241610738255	19	0.633377768043429	2	7	4	NaN	2	5	0.0251211088865766	0	1	NaN	360	6	45	2	120	220	320	NaN	520	0.402108321897686	1	0	NaN	2683083.7174955	NaN	2683084.7008783	2683085.21743598
56	19	0	0	90	36.1581920903955	36.241610738255	8	0.266685376018286	2	4	6	NaN	1	3	0.0251211088865766	0	1	NaN	361	6	46	2	120	220	320	NaN	520	0.381192622240633	1	1	NaN	2683086.4344073	NaN	2683087.4177991	2683087.93436928
56	19	0	0	90	36.1581920903955	36.241610738255	10	0.333356720022857	2	1	4	NaN	1	3	0.0251211088865766	0	1	NaN	362	6	47	2	120	220	320	NaN	520	0.433051522355527	2	0	NaN	2683089.1346866	NaN	2683090.1180585	2683090.63463548
56	19	0	0	90	36.1581920903955	36.241610738255	15	0.500035080034286	2	2	1	NaN	1	3	0.0251211088865766	0	1	NaN	363	6	48	2	120	220	320	NaN	520	0.395188632421196	1	1	NaN	2683091.884954	NaN	2683092.8683404	2683093.38490357
56	19	0	0	90	36.1581920903955	36.241610738255	20	0.666713440045714	2	9	2	NaN	2	5	0.0251211088865766	0	1	NaN	364	6	49	2	120	220	320	NaN	520	0.605794622097164	1	0	NaN	2683094.6018746	NaN	2683095.5852879	2683096.10183818
56	19	0	0	90	36.1581920903955	36.241610738255	10	0.333356720022857	2	12	6	NaN	2	5	0.0251211088865766	0	1	NaN	365	6	50	2	120	220	320	NaN	520	0.400954469572753	1	0	NaN	2683097.5188711	NaN	2683098.5022254	2683099.01878033
56	19	0	0	90	36.1581920903955	36.241610738255	21	0.700049112048	2	7	2	NaN	2	5	0.0251211088865766	0	1	NaN	366	6	51	2	120	220	320	NaN	520	0.411978722084314	2	1	NaN	2683100.2357988	NaN	2683101.2191771	2683101.73572068
56	19	0	0	90	36.1581920903955	36.241610738255	9	0.300021048020571	2	1	6	NaN	1	5	0.0251211088865766	0	1	NaN	367	6	52	2	120	220	320	NaN	520	0.479118269868195	2	0	NaN	2683102.952704	NaN	2683103.9360895	2683104.45264683
56	19	0	0	90	36.1581920903955	36.241610738255	12	0.400028064027429	2	3	4	NaN	1	5	0.0251211088865766	0	1	NaN	368	6	53	2	120	220	320	NaN	520	0.41528442222625	2	0	NaN	2683105.7363073	NaN	2683106.7197099	2683107.23625888
56	19	0	0	90	36.1581920903955	36.241610738255	18	0.600042096041143	2	10	1	NaN	2	3	0.0251211088865766	0	1	NaN	369	6	54	2	120	220	320	NaN	520	0.681908969767392	1	0	NaN	2683108.4699068	NaN	2683109.4533004	2683109.96986273
56	19	0	0	90	36.1581920903955	36.241610738255	25	0.833391800057143	2	6	1	NaN	1	4	0.0251211088865766	0	1	NaN	370	6	55	2	120	220	320	NaN	520	0.441295169759542	1	1	NaN	2683111.4702183	NaN	2683112.4536052	2683112.97015503
56	19	0	0	90	36.1581920903955	36.241610738255	10	0.333356720022857	2	11	1	NaN	2	3	0.0251211088865766	0	1	NaN	371	6	56	2	120	220	320	NaN	520	0.467674422077835	2	1	NaN	2683114.2204793	NaN	2683115.2038657	2683115.72043208
56	19	0	0	90	36.1581920903955	36.241610738255	7	0.233349704016	2	7	5	NaN	2	5	0.0251211088865766	0	1	NaN	372	6	57	2	120	220	320	NaN	520	0.491773521993309	1	0	NaN	2683117.0040977	NaN	2683117.9874759	2683118.50402598
56	19	0	0	90	36.1581920903955	36.241610738255	25	0.833391800057143	2	3	2	NaN	1	4	0.0251211088865766	0	1	NaN	373	6	58	2	120	220	320	NaN	520	0.0103945219889283	1	1	NaN	2683119.8043569	NaN	2683120.7877514	2683121.30430068
56	19	0	0	90	36.1581920903955	36.241610738255	19	0.633377768043429	2	9	3	NaN	2	5	0.0251211088865766	0	1	NaN	374	6	59	2	120	220	320	NaN	520	0.206773669924587	2	1	NaN	2683122.1211288	NaN	2683123.10465	2683123.62120283
56	19	0	0	90	36.1581920903955	36.241610738255	22	0.733384784050286	2	8	3	NaN	2	5	0.0251211088865766	0	1	NaN	375	6	60	2	120	220	320	NaN	520	0.529942970257252	2	1	NaN	2683124.6381641	NaN	2683125.6215574	2683126.13812103
56	19	0	0	90	36.1581920903955	36.241610738255	25	0.833391800057143	2	7	6	NaN	2	3	0.0251211088865766	0	1	NaN	376	6	61	2	120	220	320	NaN	520	0.295748222153634	1	0	NaN	2683127.4884391	NaN	2683128.4718373	2683128.98839998
56	19	0	0	90	36.1581920903955	36.241610738255	7	0.233349704016	2	2	6	NaN	1	5	0.0251211088865766	0	1	NaN	377	6	62	2	120	220	320	NaN	520	0.422315869946033	2	0	NaN	2683130.1053679	NaN	2683131.0887507	2683131.60531073
56	19	0	0	90	36.1581920903955	36.241610738255	8	0.266685376018286	2	9	4	NaN	2	5	0.0251211088865766	0	1	NaN	378	6	63	2	120	220	320	NaN	520	0.785272327251732	2	1	NaN	2683132.8389904	NaN	2683133.8223506	2683134.33892847
56	19	0	0	90	36.1581920903955	36.241610738255	17	0.566706424038857	2	5	3	NaN	1	3	0.0251211088865766	0	1	NaN	379	7	1	2	120	220	320	NaN	520	0.010417069774121	2	0	NaN	2683161.1917261	NaN	2683162.1751386	2683162.69169843
56	19	0	0	90	36.1581920903955	36.241610738255	14	0.466699408032	2	9	2	NaN	2	4	0.0251211088865766	0	1	NaN	380	7	2	2	120	220	320	NaN	520	0.331304321996868	1	0	NaN	2683163.5086169	NaN	2683164.4920446	2683165.00859198
56	19	0	0	90	36.1581920903955	36.241610738255	17	0.566706424038857	2	7	1	NaN	2	3	0.0251211088865766	0	1	NaN	381	7	3	2	120	220	320	NaN	520	0.31295152194798	1	0	NaN	2683166.1589088	NaN	2683167.1423029	2683167.65885838
56	19	0	0	90	36.1581920903955	36.241610738255	18	0.600042096041143	2	5	4	NaN	1	5	0.0251211088865766	0	1	NaN	382	7	4	2	120	220	320	NaN	520	0.343408022075891	1	1	NaN	2683168.7924942	NaN	2683169.775895	2683170.29244988
56	19	0	0	90	36.1581920903955	36.241610738255	16	0.533370752036571	2	11	3	NaN	2	5	0.0251211088865766	0	1	NaN	383	7	5	2	120	220	320	NaN	520	0.396550574805588	2	1	NaN	2683171.4594612	NaN	2683172.4428242	2683172.95938253
56	19	0	0	90	36.1581920903955	36.241610738255	13	0.433363736029714	2	6	3	NaN	1	3	0.0251211088865766	0	1	NaN	384	7	6	2	120	220	320	NaN	520	0.351710217539221	1	1	NaN	2683174.1763594	NaN	2683175.1598336	2683175.67631298
56	19	0	0	90	36.1581920903955	36.241610738255	10	0.333356720022857	2	9	4	NaN	2	5	0.0251211088865766	0	1	NaN	385	7	7	2	120	220	320	NaN	520	0.332666722126305	1	0	NaN	2683176.8432871	NaN	2683177.8266888	2683178.34323258
56	19	0	0	90	36.1581920903955	36.241610738255	20	0.666713440045714	2	5	6	NaN	1	4	0.0251211088865766	0	1	NaN	386	7	8	2	120	220	320	NaN	520	0.362323122099042	1	1	NaN	2683179.4935462	NaN	2683180.4769524	2683180.99349788
56	19	0	0	90	36.1581920903955	36.241610738255	17	0.566706424038857	2	7	5	NaN	2	3	0.0251211088865766	0	1	NaN	387	7	9	2	120	220	320	NaN	520	0.39890607027337	2	1	NaN	2683182.1770199	NaN	2683183.1605635	2683183.67709893
56	19	0	0	90	36.1581920903955	36.241610738255	21	0.700049112048	2	2	5	NaN	1	5	0.0251211088865766	0	1	NaN	388	7	10	2	120	220	320	NaN	520	0.169697470031679	1	1	NaN	2683184.8940768	NaN	2683185.8774737	2683186.39403133
56	19	0	0	90	36.1581920903955	36.241610738255	13	0.433363736029714	2	10	2	NaN	2	4	0.0251211088865766	0	1	NaN	389	7	11	2	120	220	320	NaN	520	0.390287122223526	1	0	NaN	2683187.3776013	NaN	2683188.3610499	2683188.87761058
56	19	0	0	90	36.1581920903955	36.241610738255	21	0.700049112048	2	2	1	NaN	1	4	0.0251211088865766	0	1	NaN	390	7	12	2	120	220	320	NaN	520	0.54606566997245	1	1	NaN	2683190.0777879	NaN	2683191.0613586	2683191.57787273
56	19	0	0	90	36.1581920903955	36.241610738255	23	0.766720456052571	2	10	3	NaN	2	4	0.0251211088865766	0	1	NaN	391	7	13	2	120	220	320	NaN	520	0.566963569726795	1	0	NaN	2683192.9447291	NaN	2683193.9282498	2683194.44481973
56	19	0	0	90	36.1581920903955	36.241610738255	24	0.800056128054857	2	11	6	NaN	2	5	0.0251211088865766	0	1	NaN	392	7	14	2	120	220	320	NaN	520	0.540020522195846	1	0	NaN	2683195.8284935	NaN	2683196.8118827	2683197.32844228
56	19	0	0	90	36.1581920903955	36.241610738255	19	0.633377768043429	2	10	6	NaN	2	4	0.0251211088865766	0	1	NaN	393	7	15	2	120	220	320	NaN	520	0.449348269961774	1	0	NaN	2683198.6787819	NaN	2683199.6621646	2683200.17870803
56	19	0	0	90	36.1581920903955	36.241610738255	7	0.233349704016	2	8	2	NaN	2	3	0.0251211088865766	0	1	NaN	394	7	16	2	120	220	320	NaN	520	0.48915457027033	2	1	NaN	2683201.4790374	NaN	2683202.4624337	2683202.97899423
56	19	0	0	90	36.1581920903955	36.241610738255	13	0.433363736029714	2	2	6	NaN	1	5	0.0251211088865766	0	1	NaN	395	7	17	2	120	220	320	NaN	520	0.520741269923747	2	0	NaN	2683204.2793309	NaN	2683205.2627098	2683205.77925913
56	19	0	0	90	36.1581920903955	36.241610738255	6	0.200014032013714	2	4	3	NaN	1	3	0.0251211088865766	0	1	NaN	396	7	18	2	120	220	320	NaN	520	0.486940607428551	1	1	NaN	2683207.1128109	NaN	2683208.0963054	2683208.61287709
56	19	0	0	90	36.1581920903955	36.241610738255	24	0.800056128054857	2	12	5	NaN	2	3	0.0251211088865766	0	1	NaN	397	7	19	2	120	220	320	NaN	520	0.342745800036937	1	0	NaN	2683209.9130524	NaN	2683210.896638	2683211.4131516
56	19	0	0	90	36.1581920903955	36.241610738255	14	0.466699408032	2	10	3	NaN	2	5	0.0251211088865766	0	1	NaN	398	7	20	2	120	220	320	NaN	520	0.476781575009227	1	0	NaN	2683212.5634595	NaN	2683213.5469291	2683214.06341763
56	19	0	0	90	36.1581920903955	36.241610738255	17	0.566706424038857	2	1	1	NaN	1	5	0.0251211088865766	0	1	NaN	399	7	21	2	120	220	320	NaN	520	0.36444432195276	1	1	NaN	2683215.3637681	NaN	2683216.3471367	2683216.86368748
56	19	0	0	90	36.1581920903955	36.241610738255	14	0.466699408032	2	2	3	NaN	1	3	0.0251211088865766	0	1	NaN	400	7	22	2	120	220	320	NaN	520	0.352639094926417	1	1	NaN	2683218.0473373	NaN	2683219.0307237	2683219.54728711
56	19	0	0	90	36.1581920903955	36.241610738255	9	0.300021048020571	2	10	4	NaN	2	4	0.0251211088865766	0	1	NaN	401	7	23	2	120	220	320	NaN	520	0.365753822028637	1	0	NaN	2683220.7142712	NaN	2683221.697696	2683222.21421338
56	19	0	0	90	36.1581920903955	36.241610738255	24	0.800056128054857	2	4	1	NaN	1	5	0.0251211088865766	0	1	NaN	402	7	24	2	120	220	320	NaN	520	0.562081317417324	1	1	NaN	2683223.3978549	NaN	2683224.3812701	2683224.89780338
56	19	0	0	90	36.1581920903955	36.241610738255	6	0.200014032013714	2	4	4	NaN	1	5	0.0251211088865766	0	1	NaN	403	7	25	2	120	220	320	NaN	520	0.478489269968122	1	1	NaN	2683226.2814905	NaN	2683227.2648696	2683227.78142823
56	19	0	0	90	36.1581920903955	36.241610738255	11	0.366692392025143	2	9	3	NaN	2	5	0.0251211088865766	0	1	NaN	404	7	26	2	120	220	320	NaN	520	0.398409170098603	2	1	NaN	2683229.0817486	NaN	2683230.0651584	2683230.58170103
56	19	0	0	90	36.1581920903955	36.241610738255	0	0	1	4	2	NaN	1	3	0.0251211088865766	0	1	NaN	405	7	27	2	110	210	310	NaN	510	0.505266021937132	1	1	NaN	2683231.798697	NaN	2683232.7820747	2683233.29863818
56	19	0	0	90	36.1581920903955	36.241610738255	19	0.633377768043429	2	12	4	NaN	2	5	0.0251211088865766	0	1	NaN	406	7	28	2	120	220	320	NaN	520	0.376411669887602	2	1	NaN	2683234.6155083	NaN	2683235.5990215	2683236.11557203
56	19	0	0	90	36.1581920903955	36.241610738255	20	0.666713440045714	2	3	6	NaN	1	5	0.0251211088865766	0	1	NaN	407	7	29	2	120	220	320	NaN	520	0.452980622183532	2	0	NaN	2683237.2992628	NaN	2683238.2826507	2683238.79917538
56	19	0	0	90	36.1581920903955	36.241610738255	12	0.400028064027429	2	5	3	NaN	1	5	0.0251211088865766	0	1	NaN	408	7	30	2	120	220	320	NaN	520	0.197915117722005	1	1	NaN	2683240.0661664	NaN	2683241.0495586	2683241.56610418
56	19	0	0	90	36.1581920903955	36.241610738255	24	0.800056128054857	2	12	4	NaN	2	4	0.0251211088865766	0	1	NaN	409	7	31	2	120	220	320	NaN	520	0.387687521986663	2	1	NaN	2683242.9163972	NaN	2683243.8998442	2683244.41638868
56	19	0	0	90	36.1581920903955	36.241610738255	15	0.500035080034286	2	10	3	NaN	2	3	0.0251211088865766	0	1	NaN	410	7	32	2	120	220	320	NaN	520	0.51116186985746	2	1	NaN	2683245.6167745	NaN	2683246.6001315	2683247.11664853
56	19	0	0	90	36.1581920903955	36.241610738255	11	0.366692392025143	2	4	6	NaN	1	3	0.0251211088865766	0	1	NaN	411	7	33	2	120	220	320	NaN	520	0.317616269923747	1	1	NaN	2683248.4503144	NaN	2683249.4336875	2683249.95026023
56	19	0	0	90	36.1581920903955	36.241610738255	8	0.266685376018286	2	11	6	NaN	2	4	0.0251211088865766	0	1	NaN	412	7	34	2	120	220	320	NaN	520	0.372027964796871	1	0	NaN	2683251.0839015	NaN	2683252.0673624	2683252.58385294
56	19	0	0	90	36.1581920903955	36.241610738255	20	0.666713440045714	2	3	1	NaN	1	3	0.0251211088865766	0	1	NaN	413	7	35	2	120	220	320	NaN	520	0.408602989744395	2	0	NaN	2683253.7674972	NaN	2683254.7508991	2683255.26746321
56	19	0	0	90	36.1581920903955	36.241610738255	22	0.733384784050286	2	6	6	NaN	1	5	0.0251211088865766	0	1	NaN	414	7	36	2	120	220	320	NaN	520	0.0104045700281858	1	1	NaN	2683256.4844321	NaN	2683257.4678536	2683257.98438273
56	19	0	0	90	36.1581920903955	36.241610738255	16	0.533370752036571	2	6	2	NaN	1	4	0.0251211088865766	0	1	NaN	415	7	37	2	120	220	320	NaN	520	0.0226016324013472	2	0	NaN	2683258.8013391	NaN	2683259.7847285	2683260.30128617
56	19	0	0	90	36.1581920903955	36.241610738255	14	0.466699408032	2	12	5	NaN	2	5	0.0251211088865766	0	1	NaN	416	7	38	2	120	220	320	NaN	520	0.0652217702008784	1	0	NaN	2683261.1347637	NaN	2683262.1182785	2683262.63483983
56	19	0	0	90	36.1581920903955	36.241610738255	9	0.300021048020571	2	9	2	NaN	2	3	0.0251211088865766	0	1	NaN	417	7	39	2	120	220	320	NaN	520	0.625868270173669	2	1	NaN	2683263.518319	NaN	2683264.5018586	2683265.01841453
56	19	0	0	90	36.1581920903955	36.241610738255	10	0.333356720022857	2	2	2	NaN	1	4	0.0251211088865766	0	1	NaN	418	7	40	2	120	220	320	NaN	520	0.435946822166443	1	1	NaN	2683266.4520776	NaN	2683267.435536	2683267.95203198
56	19	0	0	90	36.1581920903955	36.241610738255	10	0.333356720022857	2	10	6	NaN	2	3	0.0251211088865766	0	1	NaN	419	7	41	2	120	220	320	NaN	520	0.301416770089418	2	1	NaN	2683269.2023603	NaN	2683270.1857468	2683270.70230623
56	19	0	0	90	36.1581920903955	36.241610738255	0	0	1	1	2	NaN	1	3	0.0251211088865766	0	1	NaN	420	7	42	2	110	210	310	NaN	510	2.14911046996713	2	0	NaN	2683271.8192791	NaN	2683272.8026744	2683273.31922273
56	19	0	0	90	36.1581920903955	36.241610738255	18	0.600042096041143	2	1	6	NaN	1	4	0.0251211088865766	0	1	NaN	421	7	43	2	120	220	320	NaN	520	0.601957621984184	2	0	NaN	2683276.2863994	NaN	2683277.2698001	2683277.78633088
56	19	0	0	90	36.1581920903955	36.241610738255	25	0.833391800057143	2	11	4	NaN	2	5	0.0251211088865766	0	1	NaN	422	7	44	2	120	220	320	NaN	520	0.517097021918744	2	1	NaN	2683279.2033289	NaN	2683280.1867397	2683280.70328588
56	19	0	0	90	36.1581920903955	36.241610738255	12	0.400028064027429	2	2	5	NaN	1	4	0.0251211088865766	0	1	NaN	423	7	45	2	120	220	320	NaN	520	0.41095932200551	1	1	NaN	2683282.0369464	NaN	2683283.0203593	2683283.53690458
56	19	0	0	90	36.1581920903955	36.241610738255	6	0.200014032013714	2	1	2	NaN	1	5	0.0251211088865766	0	1	NaN	424	7	46	2	120	220	320	NaN	520	0.681410470046103	1	1	NaN	2683284.8704195	NaN	2683285.8539614	2683286.37050763
56	19	0	0	90	36.1581920903955	36.241610738255	13	0.433363736029714	2	4	3	NaN	1	4	0.0251211088865766	0	1	NaN	425	7	47	2	120	220	320	NaN	520	0.249320122413337	2	0	NaN	2683287.870862	NaN	2683288.8542497	2683289.37080548
56	19	0	0	90	36.1581920903955	36.241610738255	0	0	1	10	5	NaN	2	5	0.0251211088865766	0	1	NaN	426	7	48	2	110	210	310	NaN	510	0.362171269953251	1	0	NaN	2683290.4377873	NaN	2683291.4211635	2683291.93772313
56	19	0	0	90	36.1581920903955	36.241610738255	14	0.466699408032	2	8	5	NaN	2	5	0.0251211088865766	0	1	NaN	427	7	49	2	120	220	320	NaN	520	0.455400822218508	2	1	NaN	2683293.1046903	NaN	2683294.0880917	2683294.60465278
56	19	0	0	90	36.1581920903955	36.241610738255	15	0.500035080034286	2	1	1	NaN	1	5	0.0251211088865766	0	1	NaN	428	7	50	2	120	220	320	NaN	520	2.03269346430898	2	0	NaN	2683295.8715848	NaN	2683296.8551224	2683297.37158804
56	19	0	0	90	36.1581920903955	36.241610738255	18	0.600042096041143	2	6	2	NaN	1	5	0.0251211088865766	0	1	NaN	429	7	51	2	120	220	320	NaN	520	0.642408822197467	1	1	NaN	2683300.2220999	NaN	2683301.2054603	2683301.72201718
56	19	0	0	90	36.1581920903955	36.241610738255	18	0.600042096041143	2	12	5	NaN	2	4	0.0251211088865766	0	1	NaN	430	7	52	2	120	220	320	NaN	520	0.451018969994038	2	1	NaN	2683303.1890226	NaN	2683304.1724178	2683304.68897443
56	19	0	0	90	36.1581920903955	36.241610738255	22	0.733384784050286	2	5	1	NaN	1	3	0.0251211088865766	0	1	NaN	431	7	53	2	120	220	320	NaN	520	0.372421437408775	1	1	NaN	2683305.9559811	NaN	2683306.9393524	2683307.45591466
56	19	0	0	90	36.1581920903955	36.241610738255	7	0.233349704016	2	10	1	NaN	2	4	0.0251211088865766	0	1	NaN	432	7	54	2	120	220	320	NaN	520	0.424880822189152	2	1	NaN	2683308.6394136	NaN	2683309.6229523	2683310.13950768
56	19	0	0	90	36.1581920903955	36.241610738255	14	0.466699408032	2	11	4	NaN	2	4	0.0251211088865766	0	1	NaN	433	7	55	2	120	220	320	NaN	520	0.402233021799475	2	1	NaN	2683311.3898527	NaN	2683312.373222	2683312.88978358
56	19	0	0	90	36.1581920903955	36.241610738255	16	0.533370752036571	2	9	1	NaN	2	5	0.0251211088865766	0	1	NaN	434	7	56	2	120	220	320	NaN	520	0.341648917645216	1	0	NaN	2683314.1067604	NaN	2683315.0901651	2683315.60671058
56	19	0	0	90	36.1581920903955	36.241610738255	17	0.566706424038857	2	4	1	NaN	1	4	0.0251211088865766	0	1	NaN	435	7	57	2	120	220	320	NaN	520	0.162779570091516	2	0	NaN	2683316.7570286	NaN	2683317.7404213	2683318.25696473
56	19	0	0	90	36.1581920903955	36.241610738255	0	0	1	12	2	NaN	2	3	0.0251211088865766	0	1	NaN	436	7	58	2	110	210	310	NaN	510	0.399830370210111	2	1	NaN	2683319.2406047	NaN	2683320.2240468	2683320.74054873
56	19	0	0	90	36.1581920903955	36.241610738255	8	0.266685376018286	2	11	1	NaN	2	4	0.0251211088865766	0	1	NaN	437	7	59	2	120	220	320	NaN	520	0.434658722486347	1	0	NaN	2683321.9575472	NaN	2683322.940923	2683323.45748688
56	19	0	0	90	36.1581920903955	36.241610738255	10	0.333356720022857	2	10	2	NaN	2	3	0.0251211088865766	0	1	NaN	438	7	60	2	120	220	320	NaN	520	0.492177269887179	1	0	NaN	2683324.7078049	NaN	2683325.6911887	2683326.20775613
56	19	0	0	90	36.1581920903955	36.241610738255	23	0.766720456052571	2	2	2	NaN	1	5	0.0251211088865766	0	1	NaN	439	7	61	2	120	220	320	NaN	520	0.347776922397316	2	0	NaN	2683327.5246144	NaN	2683328.5081446	2683329.02469928
56	19	0	0	90	36.1581920903955	36.241610738255	23	0.766720456052571	2	3	5	NaN	1	3	0.0251211088865766	0	1	NaN	440	7	62	2	120	220	320	NaN	520	0.43244777014479	1	1	NaN	2683330.1916687	NaN	2683331.1750809	2683331.69162523
56	19	0	0	90	36.1581920903955	36.241610738255	23	0.766720456052571	2	1	6	NaN	1	4	0.0251211088865766	0	1	NaN	441	7	63	2	120	220	320	NaN	520	0.418483121786267	2	0	NaN	2683332.9419474	NaN	2683333.9253187	2683334.44189838
56	19	0	0	90	36.1581920903955	36.241610738255	18	0.600042096041143	2	2	6	NaN	1	5	0.0251211088865766	0	1	NaN	442	8	1	2	120	220	320	NaN	520	0.0482435221783817	2	0	NaN	2683346.3599112	NaN	2683347.343319	2683347.85988318
56	19	0	0	90	36.1581920903955	36.241610738255	23	0.766720456052571	2	10	3	NaN	2	3	0.0251211088865766	0	1	NaN	443	8	2	2	120	220	320	NaN	520	0.481635670177639	2	1	NaN	2683348.7268143	NaN	2683349.7102524	2683350.22678073
56	19	0	0	90	36.1581920903955	36.241610738255	23	0.766720456052571	2	5	3	NaN	1	3	0.0251211088865766	0	1	NaN	444	8	3	2	120	220	320	NaN	520	0.425174717325717	2	0	NaN	2683351.5271174	NaN	2683352.5105034	2683353.02705028
56	19	0	0	90	36.1581920903955	36.241610738255	7	0.233349704016	2	9	5	NaN	2	3	0.0251211088865766	0	1	NaN	445	8	4	2	120	220	320	NaN	520	0.579756869934499	2	1	NaN	2683354.2606972	NaN	2683355.2441196	2683355.76064853
56	19	0	0	90	36.1581920903955	36.241610738255	14	0.466699408032	2	7	1	NaN	2	4	0.0251211088865766	0	1	NaN	446	8	5	2	120	220	320	NaN	520	0.704182469751686	2	1	NaN	2683357.1442121	NaN	2683358.1277106	2683358.64426143
56	19	0	0	90	36.1581920903955	36.241610738255	0	0	1	3	2	NaN	1	4	0.0251211088865766	0	1	NaN	447	8	6	2	110	210	310	NaN	510	0.40687602199614	1	1	NaN	2683360.1612795	NaN	2683361.1446761	2683361.66123448
56	19	0	0	90	36.1581920903955	36.241610738255	18	0.600042096041143	2	7	2	NaN	2	5	0.0251211088865766	0	1	NaN	448	8	7	2	120	220	320	NaN	520	0.402262169867754	1	0	NaN	2683362.8782305	NaN	2683363.8616243	2683364.37816273
56	19	0	0	90	36.1581920903955	36.241610738255	11	0.366692392025143	2	8	1	NaN	2	4	0.0251211088865766	0	1	NaN	449	8	8	2	120	220	320	NaN	520	0.373058569617569	2	1	NaN	2683365.5951631	NaN	2683366.578545	2683367.09509993
56	19	0	0	90	36.1581920903955	36.241610738255	24	0.800056128054857	2	5	5	NaN	1	5	0.0251211088865766	0	1	NaN	450	8	9	2	120	220	320	NaN	520	0.441381021868438	2	0	NaN	2683368.2787479	NaN	2683369.2621422	2683369.77869738
56	19	0	0	90	36.1581920903955	36.241610738255	17	0.566706424038857	2	4	6	NaN	1	4	0.0251211088865766	0	1	NaN	451	8	10	2	120	220	320	NaN	520	0.651089369785041	1	1	NaN	2683371.029017	NaN	2683372.0124207	2683372.52896693
56	19	0	0	90	36.1581920903955	36.241610738255	17	0.566706424038857	2	9	1	NaN	2	4	0.0251211088865766	0	1	NaN	452	8	11	2	120	220	320	NaN	520	0.419364517554641	1	0	NaN	2683374.0126515	NaN	2683374.996035	2683375.51258478
56	19	0	0	90	36.1581920903955	36.241610738255	15	0.500035080034286	2	12	1	NaN	2	5	0.0251211088865766	0	1	NaN	453	8	12	2	120	220	320	NaN	520	0.846307217609137	2	1	NaN	2683376.7462596	NaN	2683377.7296343	2683378.24619908
56	19	0	0	90	36.1581920903955	36.241610738255	24	0.800056128054857	2	1	3	NaN	1	4	0.0251211088865766	0	1	NaN	454	8	13	2	120	220	320	NaN	520	0.591165722347796	1	1	NaN	2683379.9132691	NaN	2683380.8965998	2683381.41317568
56	19	0	0	90	36.1581920903955	36.241610738255	9	0.300021048020571	2	8	3	NaN	2	3	0.0251211088865766	0	1	NaN	455	8	14	2	120	220	320	NaN	520	0.754611722193658	1	0	NaN	2683382.8133699	NaN	2683383.7968942	2683384.31345858
56	19	0	0	90	36.1581920903955	36.241610738255	15	0.500035080034286	2	11	5	NaN	2	3	0.0251211088865766	0	1	NaN	456	8	15	2	120	220	320	NaN	520	0.118715870194137	2	1	NaN	2683386.3137387	NaN	2683387.2972456	2683387.81379213
56	19	0	0	90	36.1581920903955	36.241610738255	19	0.633377768043429	2	10	5	NaN	2	3	0.0251211088865766	0	1	NaN	457	8	16	2	120	220	320	NaN	520	0.476806269958615	2	1	NaN	2683388.7474331	NaN	2683389.7308633	2683390.24737573
56	19	0	0	90	36.1581920903955	36.241610738255	12	0.400028064027429	2	7	2	NaN	2	5	0.0251211088865766	0	1	NaN	458	8	17	2	120	220	320	NaN	520	0.461508869659156	2	1	NaN	2683391.531037	NaN	2683392.5143124	2683393.03097053
