subjno	age	gender	isPractice	viewdist	CmToPixX	CmToPixY	SOA_frm	SOA_time	targNum	targID	targExample	targRace	targGender	firstTargPos	contrast	familiarity	curr_staircase	iStair	TrialNum	BlockNum	blktrl	sessionNum	TC_FIXATION	TC_RSVP_START	TC_RSVP_END	TC_BLANK	TC_RESPONSE_ONSET	RT2afc	resp_2afc	acc	RSVPOnsetVBL	RSVPOnsetTime	RSVPOffsetVBL	RSVPOffsetTime	startrt_2afc
112	25	1	0	90	36.1581920903955	36.241610738255	9	0.300017484035343	2	8	5	NaN	2	3	0.671391698905087	0	1	NaN	1	1	1	2	120	220	320	NaN	520	24.3227655361407	2	1	NaN	3896247.2755412	NaN	3896248.2587647	3896248.79190476
112	25	1	0	90	36.1581920903955	36.241610738255	18	0.600034968070686	2	9	5	NaN	2	5	0.671391698905087	0	1	NaN	2	1	2	2	120	220	320	NaN	520	0.964381525292993	2	1	NaN	3896273.9781319	NaN	3896274.961388	3896275.49452717
112	25	1	0	90	36.1581920903955	36.241610738255	19	0.633370244074613	2	9	4	NaN	2	5	0.671391698905087	0	1	NaN	3	1	3	2	120	220	320	NaN	520	0.28028226736933	1	0	NaN	3896277.2782141	NaN	3896278.2616389	3896278.77817963
112	25	1	0	90	36.1581920903955	36.241610738255	11	0.366688036043197	2	10	4	NaN	2	5	0.671391698905087	0	1	NaN	4	1	4	2	120	220	320	NaN	520	0.224549362435937	2	1	NaN	3896279.8784816	NaN	3896280.8618777	3896281.37843454
112	25	1	0	90	36.1581920903955	36.241610738255	21	0.700040796082467	2	5	3	NaN	1	3	0.671391698905087	0	1	NaN	5	1	5	2	120	220	320	NaN	520	1.20221316767856	1	1	NaN	3896282.4287561	NaN	3896283.4121406	3896283.92868743
112	25	1	0	90	36.1581920903955	36.241610738255	23	0.766711348090321	2	2	6	NaN	1	5	0.671391698905087	0	1	NaN	6	1	6	2	120	220	320	NaN	520	0.236387367360294	1	1	NaN	3896285.9623733	NaN	3896286.9458121	3896287.46236643
112	25	1	0	90	36.1581920903955	36.241610738255	25	0.833381900098175	2	8	4	NaN	2	5	0.671391698905087	0	1	NaN	7	1	7	2	120	220	320	NaN	520	1.44532122043893	2	1	NaN	3896288.5293402	NaN	3896289.5127481	3896290.02928728
112	25	1	0	90	36.1581920903955	36.241610738255	0	0	1	2	1	NaN	1	3	0.671391698905087	0	1	NaN	8	1	8	2	110	210	310	NaN	510	2.56608286732808	1	1	NaN	3896292.2963735	NaN	3896293.279768	3896293.79632493
112	25	1	0	90	36.1581920903955	36.241610738255	19	0.633370244074613	2	9	6	NaN	2	5	0.671391698905087	0	1	NaN	9	1	9	2	120	220	320	NaN	520	0.530232920311391	2	1	NaN	3896297.180196	NaN	3896298.1635935	3896298.68015768
112	25	1	0	90	36.1581920903955	36.241610738255	23	0.766711348090321	2	11	2	NaN	2	4	0.671391698905087	0	1	NaN	10	1	10	2	120	220	320	NaN	520	0.39201346738264	2	1	NaN	3896300.0304766	NaN	3896301.0138615	3896301.53041823
112	25	1	0	90	36.1581920903955	36.241610738255	20	0.66670552007854	2	8	3	NaN	2	5	0.671391698905087	0	1	NaN	11	1	11	2	120	220	320	NaN	520	0.355114067904651	2	1	NaN	3896302.7474066	NaN	3896303.7307969	3896304.24735693
112	25	1	0	90	36.1581920903955	36.241610738255	24	0.800046624094248	2	8	3	NaN	2	4	0.671391698905087	0	1	NaN	12	1	12	2	120	220	320	NaN	520	0.927460515405983	2	1	NaN	3896305.4309947	NaN	3896306.4143735	3896306.93094098
112	25	1	0	90	36.1581920903955	36.241610738255	0	0	1	5	4	NaN	1	5	0.671391698905087	0	1	NaN	13	1	13	2	110	210	310	NaN	510	0.301188683602959	1	1	NaN	3896308.6813355	NaN	3896309.6647312	3896310.18126242
112	25	1	0	90	36.1581920903955	36.241610738255	11	0.366688036043197	2	1	1	NaN	1	3	0.671391698905087	0	1	NaN	14	1	14	2	120	220	320	NaN	520	0.580442567821592	2	0	NaN	3896311.2982311	NaN	3896312.2816338	3896312.79818893
112	25	1	0	90	36.1581920903955	36.241610738255	8	0.266682208031416	2	7	4	NaN	2	5	0.671391698905087	0	1	NaN	15	1	15	2	120	220	320	NaN	520	0.295870067551732	2	1	NaN	3896314.1985123	NaN	3896315.1819244	3896315.69846923
112	25	1	0	90	36.1581920903955	36.241610738255	12	0.400023312047124	2	11	1	NaN	2	4	0.671391698905087	0	1	NaN	16	1	16	2	120	220	320	NaN	520	0.263060320634395	2	1	NaN	3896316.8154491	NaN	3896317.7988247	3896318.31539308
112	25	1	0	90	36.1581920903955	36.241610738255	9	0.300017484035343	2	7	2	NaN	2	5	0.671391698905087	0	1	NaN	17	1	17	2	120	220	320	NaN	520	0.35994262015447	2	1	NaN	3896319.3989873	NaN	3896320.3824219	3896320.89899038
112	25	1	0	90	36.1581920903955	36.241610738255	16	0.533364416062832	2	3	4	NaN	1	3	0.671391698905087	0	1	NaN	18	1	18	2	120	220	320	NaN	520	0.324038267601281	2	0	NaN	3896322.0826314	NaN	3896323.0660416	3896323.58258313
112	25	1	0	90	36.1581920903955	36.241610738255	25	0.833381900098175	2	1	4	NaN	1	4	0.671391698905087	0	1	NaN	19	1	19	2	120	220	320	NaN	520	0.385691520292312	1	1	NaN	3896324.7329066	NaN	3896325.7162974	3896326.23284228
112	25	1	0	90	36.1581920903955	36.241610738255	14	0.466693864054978	2	7	2	NaN	2	5	0.671391698905087	0	1	NaN	20	1	20	2	120	220	320	NaN	520	0.277777819894254	2	1	NaN	3896327.4330342	NaN	3896328.4166044	3896328.93310348
112	25	1	0	90	36.1581920903955	36.241610738255	7	0.233346932027489	2	10	1	NaN	2	4	0.671391698905087	0	1	NaN	21	1	21	2	120	220	320	NaN	520	0.437196220271289	2	1	NaN	3896330.0332798	NaN	3896331.0168154	3896331.53335958
112	25	1	0	90	36.1581920903955	36.241610738255	22	0.733376072086394	2	3	1	NaN	1	5	0.671391698905087	0	1	NaN	22	1	22	2	120	220	320	NaN	520	0.502789867576212	2	0	NaN	3896332.7836886	NaN	3896333.7670788	3896334.28362863
112	25	1	0	90	36.1581920903955	36.241610738255	15	0.500029140058905	2	9	6	NaN	2	5	0.671391698905087	0	1	NaN	23	1	23	2	120	220	320	NaN	520	0.281793167348951	2	1	NaN	3896335.7006352	NaN	3896336.6840384	3896337.20058033
112	25	1	0	90	36.1581920903955	36.241610738255	7	0.233346932027489	2	1	6	NaN	1	4	0.671391698905087	0	1	NaN	24	1	24	2	120	220	320	NaN	520	0.450148967560381	2	0	NaN	3896338.300901	NaN	3896339.2842885	3896339.80084493
112	25	1	0	90	36.1581920903955	36.241610738255	20	0.66670552007854	2	6	4	NaN	1	4	0.671391698905087	0	1	NaN	25	1	25	2	120	220	320	NaN	520	0.931208867579699	1	1	NaN	3896341.0677723	NaN	3896342.051231	3896342.56777573
112	25	1	0	90	36.1581920903955	36.241610738255	25	0.833381900098175	2	9	3	NaN	2	3	0.671391698905087	0	1	NaN	26	1	26	2	120	220	320	NaN	520	0.84043573634699	1	0	NaN	3896344.3181583	NaN	3896345.3015547	3896345.81810176
112	25	1	0	90	36.1581920903955	36.241610738255	17	0.566699692066759	2	2	1	NaN	1	4	0.671391698905087	0	1	NaN	27	1	27	2	120	220	320	NaN	520	0.554092667996883	1	1	NaN	3896347.4684562	NaN	3896348.4518658	3896348.96840273
112	25	1	0	90	36.1581920903955	36.241610738255	10	0.33335276003927	2	6	3	NaN	1	4	0.671391698905087	0	1	NaN	28	1	28	2	120	220	320	NaN	520	0.454610967542976	1	1	NaN	3896350.3520688	NaN	3896351.3354702	3896351.85201913
112	25	1	0	90	36.1581920903955	36.241610738255	19	0.633370244074613	2	1	1	NaN	1	3	0.671391698905087	0	1	NaN	29	1	29	2	120	220	320	NaN	520	0.511634920258075	2	0	NaN	3896353.119064	NaN	3896354.1024391	3896354.61896158
112	25	1	0	90	36.1581920903955	36.241610738255	16	0.533364416062832	2	11	4	NaN	2	4	0.671391698905087	0	1	NaN	30	1	30	2	120	220	320	NaN	520	0.414199520368129	2	1	NaN	3896355.9526293	NaN	3896356.9360715	3896357.45257378
112	25	1	0	90	36.1581920903955	36.241610738255	0	0	1	12	5	NaN	2	4	0.671391698905087	0	1	NaN	31	1	31	2	110	210	310	NaN	510	0.912345841992646	2	1	NaN	3896358.6862428	NaN	3896359.6696668	3896360.18618576
112	25	1	0	90	36.1581920903955	36.241610738255	9	0.300017484035343	2	11	5	NaN	2	5	0.671391698905087	0	1	NaN	32	1	32	2	120	220	320	NaN	520	0.783286067657173	2	1	NaN	3896361.919871	NaN	3896362.9032733	3896363.41981763
112	25	1	0	90	36.1581920903955	36.241610738255	6	0.200011656023562	2	2	5	NaN	1	5	0.671391698905087	0	1	NaN	33	1	33	2	120	220	320	NaN	520	1.14648166764528	1	1	NaN	3896365.0201736	NaN	3896366.0035877	3896366.52012793
112	25	1	0	90	36.1581920903955	36.241610738255	8	0.266682208031416	2	3	4	NaN	1	4	0.671391698905087	0	1	NaN	34	1	34	2	120	220	320	NaN	520	0.879540441557765	1	1	NaN	3896368.4871895	NaN	3896369.4705834	3896369.98713886
112	25	1	0	90	36.1581920903955	36.241610738255	25	0.833381900098175	2	12	5	NaN	2	3	0.671391698905087	0	1	NaN	35	1	35	2	120	220	320	NaN	520	0.343604320194572	2	1	NaN	3896371.6874942	NaN	3896372.6709094	3896373.18745218
112	25	1	0	90	36.1581920903955	36.241610738255	22	0.733376072086394	2	1	6	NaN	1	5	0.671391698905087	0	1	NaN	36	1	36	2	120	220	320	NaN	520	0.220716967713088	2	0	NaN	3896374.3544241	NaN	3896375.3378145	3896375.85437783
112	25	1	0	90	36.1581920903955	36.241610738255	12	0.400023312047124	2	6	5	NaN	1	5	0.671391698905087	0	1	NaN	37	1	37	2	120	220	320	NaN	520	0.502789872698486	1	1	NaN	3896376.8880207	NaN	3896377.8714144	3896378.38796413
112	25	1	0	90	36.1581920903955	36.241610738255	22	0.733376072086394	2	2	4	NaN	1	4	0.671391698905087	0	1	NaN	38	1	38	2	120	220	320	NaN	520	0.301649314817041	2	0	NaN	3896379.7049734	NaN	3896380.6883618	3896381.20490819
112	25	1	0	90	36.1581920903955	36.241610738255	14	0.466693864054978	2	2	2	NaN	1	3	0.671391698905087	0	1	NaN	39	1	39	2	120	220	320	NaN	520	0.317219367716461	1	1	NaN	3896382.3218809	NaN	3896383.3053193	3896383.82182663
112	25	1	0	90	36.1581920903955	36.241610738255	22	0.733376072086394	2	2	6	NaN	1	3	0.671391698905087	0	1	NaN	40	1	40	2	120	220	320	NaN	520	0.475344767794013	1	1	NaN	3896384.9554709	NaN	3896385.9388568	3896386.45542703
112	25	1	0	90	36.1581920903955	36.241610738255	25	0.833381900098175	2	4	5	NaN	1	4	0.671391698905087	0	1	NaN	41	1	41	2	120	220	320	NaN	520	0.283109920099378	1	1	NaN	3896387.9556877	NaN	3896388.9391929	3896389.45571668
112	25	1	0	90	36.1581920903955	36.241610738255	13	0.433358588051051	2	7	6	NaN	2	5	0.671391698905087	0	1	NaN	42	1	42	2	120	220	320	NaN	520	0.331009925343096	1	0	NaN	3896390.5560151	NaN	3896391.5394192	3896392.05597117
112	25	1	0	90	36.1581920903955	36.241610738255	19	0.633370244074613	2	11	3	NaN	2	5	0.671391698905087	0	1	NaN	43	1	43	2	120	220	320	NaN	520	0.336346120107919	2	1	NaN	3896393.2063236	NaN	3896394.1896722	3896394.70623768
112	25	1	0	90	36.1581920903955	36.241610738255	24	0.800046624094248	2	10	1	NaN	2	4	0.671391698905087	0	1	NaN	44	1	44	2	120	220	320	NaN	520	0.23052276764065	2	1	NaN	3896395.8565221	NaN	3896396.839943	3896397.35649053
112	25	1	0	90	36.1581920903955	36.241610738255	6	0.200011656023562	2	10	3	NaN	2	4	0.671391698905087	0	1	NaN	45	1	45	2	120	220	320	NaN	520	0.463928814977407	1	0	NaN	3896398.4068098	NaN	3896399.390206	3896399.90673588
112	25	1	0	90	36.1581920903955	36.241610738255	21	0.700040796082467	2	4	1	NaN	1	4	0.671391698905087	0	1	NaN	46	1	46	2	120	220	320	NaN	520	0.336263267323375	1	1	NaN	3896401.1904112	NaN	3896402.1737778	3896402.69035093
112	25	1	0	90	36.1581920903955	36.241610738255	18	0.600034968070686	2	3	5	NaN	1	4	0.671391698905087	0	1	NaN	47	1	47	2	120	220	320	NaN	520	0.309993467759341	1	1	NaN	3896403.8406744	NaN	3896404.8240628	3896405.34060113
112	25	1	0	90	36.1581920903955	36.241610738255	15	0.500029140058905	2	7	4	NaN	2	3	0.671391698905087	0	1	NaN	48	1	48	2	120	220	320	NaN	520	0.813132420647889	1	0	NaN	3896406.4577136	NaN	3896407.4409769	3896407.95753338
112	25	1	0	90	36.1581920903955	36.241610738255	10	0.33335276003927	2	10	5	NaN	2	3	0.671391698905087	0	1	NaN	49	1	49	2	120	220	320	NaN	520	0.439500467851758	1	0	NaN	3896409.5912365	NaN	3896410.5746202	3896411.09116663
112	25	1	0	90	36.1581920903955	36.241610738255	6	0.200011656023562	2	12	4	NaN	2	5	0.671391698905087	0	1	NaN	50	1	50	2	120	220	320	NaN	520	0.417186120059341	2	1	NaN	3896412.3415186	NaN	3896413.3248833	3896413.84144458
112	25	1	0	90	36.1581920903955	36.241610738255	13	0.433358588051051	2	12	4	NaN	2	3	0.671391698905087	0	1	NaN	51	1	51	2	120	220	320	NaN	520	0.267753720283508	2	1	NaN	3896415.0750841	NaN	3896416.0584883	3896416.57504248
112	25	1	0	90	36.1581920903955	36.241610738255	6	0.200011656023562	2	1	5	NaN	1	3	0.671391698905087	0	1	NaN	52	1	52	2	120	220	320	NaN	520	0.340011067688465	2	0	NaN	3896417.6586812	NaN	3896418.6420671	3896419.15863633
112	25	1	0	90	36.1581920903955	36.241610738255	14	0.466693864054978	2	4	5	NaN	1	3	0.671391698905087	0	1	NaN	53	1	53	2	120	220	320	NaN	520	0.265573367476463	1	1	NaN	3896420.3089404	NaN	3896421.2923479	3896421.80891823
112	25	1	0	90	36.1581920903955	36.241610738255	17	0.566699692066759	2	8	5	NaN	2	5	0.671391698905087	0	1	NaN	54	1	54	2	120	220	320	NaN	520	0.242115315049887	1	0	NaN	3896422.8925402	NaN	3896423.875926	3896424.39247289
112	25	1	0	90	36.1581920903955	36.241610738255	7	0.233346932027489	2	4	5	NaN	1	3	0.671391698905087	0	1	NaN	55	1	55	2	120	220	320	NaN	520	0.379678267985582	1	1	NaN	3896425.4594608	NaN	3896426.4428483	3896426.95939213
112	25	1	0	90	36.1581920903955	36.241610738255	16	0.533364416062832	2	12	3	NaN	2	5	0.671391698905087	0	1	NaN	56	1	56	2	120	220	320	NaN	520	0.247693167533726	2	1	NaN	3896428.1430388	NaN	3896429.1264448	3896429.64298913
112	25	1	0	90	36.1581920903955	36.241610738255	23	0.766711348090321	2	1	1	NaN	1	4	0.671391698905087	0	1	NaN	57	1	57	2	120	220	320	NaN	520	0.233094967901707	2	0	NaN	3896430.7099491	NaN	3896431.6933659	3896432.20991473
112	25	1	0	90	36.1581920903955	36.241610738255	17	0.566699692066759	2	4	4	NaN	1	3	0.671391698905087	0	1	NaN	58	1	58	2	120	220	320	NaN	520	0.218509467784315	1	1	NaN	3896433.2602375	NaN	3896434.2435906	3896434.76016203
112	25	1	0	90	36.1581920903955	36.241610738255	0	0	1	4	2	NaN	1	5	0.671391698905087	0	1	NaN	59	1	59	2	110	210	310	NaN	510	0.325080668088049	1	1	NaN	3896435.7937977	NaN	3896436.7772027	3896437.29374033
112	25	1	0	90	36.1581920903955	36.241610738255	22	0.733376072086394	2	6	2	NaN	1	5	0.671391698905087	0	1	NaN	60	1	60	2	120	220	320	NaN	520	0.211968167684972	1	1	NaN	3896438.4272612	NaN	3896439.4107851	3896439.92734073
112	25	1	0	90	36.1581920903955	36.241610738255	22	0.733376072086394	2	9	4	NaN	2	3	0.671391698905087	0	1	NaN	61	1	61	2	120	220	320	NaN	520	0.333807467482984	1	0	NaN	3896440.9609657	NaN	3896441.9443735	3896442.46091343
112	25	1	0	90	36.1581920903955	36.241610738255	9	0.300017484035343	2	6	4	NaN	1	3	0.671391698905087	0	1	NaN	62	1	62	2	120	220	320	NaN	520	0.275488715153188	1	1	NaN	3896443.6112402	NaN	3896444.5946958	3896445.11117308
112	25	1	0	90	36.1581920903955	36.241610738255	12	0.400023312047124	2	10	5	NaN	2	3	0.671391698905087	0	1	NaN	63	1	63	2	120	220	320	NaN	520	0.499162320047617	1	0	NaN	3896446.2114963	NaN	3896447.1948877	3896447.71144088
112	25	1	0	90	36.1581920903955	36.241610738255	15	0.500029140058905	2	11	4	NaN	2	3	0.671391698905087	0	1	NaN	64	2	1	2	120	220	320	NaN	520	2.51301096752286	2	1	NaN	3896558.805893	NaN	3896559.7892908	3896560.30582113
112	25	1	0	90	36.1581920903955	36.241610738255	12	0.400023312047124	2	12	6	NaN	2	3	0.671391698905087	0	1	NaN	65	2	2	2	120	220	320	NaN	520	0.271376167889684	2	1	NaN	3896563.6397784	NaN	3896564.6231485	3896565.13962453
112	25	1	0	90	36.1581920903955	36.241610738255	22	0.733376072086394	2	10	6	NaN	2	3	0.671391698905087	0	1	NaN	66	2	3	2	120	220	320	NaN	520	0.224041167646646	2	1	NaN	3896566.2232393	NaN	3896567.2066773	3896567.72321403
112	25	1	0	90	36.1581920903955	36.241610738255	7	0.233346932027489	2	2	5	NaN	1	4	0.671391698905087	0	1	NaN	67	2	4	2	120	220	320	NaN	520	0.43393936753273	1	1	NaN	3896568.7568721	NaN	3896569.7402477	3896570.25680333
112	25	1	0	90	36.1581920903955	36.241610738255	19	0.633370244074613	2	5	4	NaN	1	5	0.671391698905087	0	1	NaN	68	2	5	2	120	220	320	NaN	520	0.107790067791939	1	1	NaN	3896571.5071182	NaN	3896572.4905255	3896573.00707113
112	25	1	0	90	36.1581920903955	36.241610738255	11	0.366688036043197	2	2	2	NaN	1	5	0.671391698905087	0	1	NaN	69	2	6	2	120	220	320	NaN	520	0.202870462089777	1	1	NaN	3896573.9238992	NaN	3896574.9074205	3896575.42396654
112	25	1	0	90	36.1581920903955	36.241610738255	21	0.700040796082467	2	5	5	NaN	1	3	0.671391698905087	0	1	NaN	70	2	7	2	120	220	320	NaN	520	0.982365820556879	1	1	NaN	3896576.4408477	NaN	3896577.4243404	3896577.94088508
112	25	1	0	90	36.1581920903955	36.241610738255	13	0.433358588051051	2	4	3	NaN	1	5	0.671391698905087	0	1	NaN	71	2	8	2	120	220	320	NaN	520	0.177704220172018	1	1	NaN	3896579.7412784	NaN	3896580.7247394	3896581.24121978
112	25	1	0	90	36.1581920903955	36.241610738255	18	0.600034968070686	2	3	5	NaN	1	3	0.671391698905087	0	1	NaN	72	2	9	2	120	220	320	NaN	520	0.230127767194062	1	1	NaN	3896582.2248952	NaN	3896583.2082429	3896583.72478653
112	25	1	0	90	36.1581920903955	36.241610738255	17	0.566699692066759	2	4	5	NaN	1	3	0.671391698905087	0	1	NaN	73	2	10	2	120	220	320	NaN	520	0.904019868001342	1	1	NaN	3896584.7750945	NaN	3896585.7584688	3896586.27504703
112	25	1	0	90	36.1581920903955	36.241610738255	25	0.833381900098175	2	11	5	NaN	2	4	0.671391698905087	0	1	NaN	74	2	11	2	120	220	320	NaN	520	0.206842920277268	2	1	NaN	3896587.9920755	NaN	3896588.9754772	3896589.49202818
112	25	1	0	90	36.1581920903955	36.241610738255	8	0.266682208031416	2	6	2	NaN	1	4	0.671391698905087	0	1	NaN	75	2	12	2	120	220	320	NaN	520	0.330334878526628	1	1	NaN	3896590.5089939	NaN	3896591.4923774	3896592.00893492
112	25	1	0	90	36.1581920903955	36.241610738255	12	0.400023312047124	2	6	2	NaN	1	3	0.671391698905087	0	1	NaN	76	2	13	2	120	220	320	NaN	520	1.4077830677852	1	1	NaN	3896593.1592482	NaN	3896594.1426319	3896594.65920323
112	25	1	0	90	36.1581920903955	36.241610738255	0	0	1	4	3	NaN	1	3	0.671391698905087	0	1	NaN	77	2	14	2	110	210	310	NaN	510	0.61111866729334	2	0	NaN	3896596.8762842	NaN	3896597.8597019	3896598.37622873
112	25	1	0	90	36.1581920903955	36.241610738255	13	0.433358588051051	2	9	3	NaN	2	5	0.671391698905087	0	1	NaN	78	2	15	2	120	220	320	NaN	520	0.221158967819065	2	1	NaN	3896599.8099027	NaN	3896600.7933089	3896601.30984743
112	25	1	0	90	36.1581920903955	36.241610738255	17	0.566699692066759	2	6	5	NaN	1	4	0.671391698905087	0	1	NaN	79	2	16	2	120	220	320	NaN	520	0.26384216779843	1	1	NaN	3896602.3433462	NaN	3896603.3268711	3896603.84343053
112	25	1	0	90	36.1581920903955	36.241610738255	6	0.200011656023562	2	5	1	NaN	1	3	0.671391698905087	0	1	NaN	80	2	17	2	120	220	320	NaN	520	0.407941920217127	1	1	NaN	3896604.9270719	NaN	3896605.9104709	3896606.42701738
112	25	1	0	90	36.1581920903955	36.241610738255	14	0.466693864054978	2	5	1	NaN	1	5	0.671391698905087	0	1	NaN	81	2	18	2	120	220	320	NaN	520	0.250902467872947	1	1	NaN	3896607.6440106	NaN	3896608.6274184	3896609.14395893
112	25	1	0	90	36.1581920903955	36.241610738255	19	0.633370244074613	2	2	3	NaN	1	3	0.671391698905087	0	1	NaN	82	2	19	2	120	220	320	NaN	520	0.251937720458955	2	0	NaN	3896610.211007	NaN	3896611.1943295	3896611.71087508
112	25	1	0	90	36.1581920903955	36.241610738255	7	0.233346932027489	2	10	4	NaN	2	5	0.671391698905087	0	1	NaN	83	2	20	2	120	220	320	NaN	520	0.157083567697555	2	1	NaN	3896612.7778343	NaN	3896613.7612358	3896614.27778873
112	25	1	0	90	36.1581920903955	36.241610738255	15	0.500029140058905	2	2	5	NaN	1	4	0.671391698905087	0	1	NaN	84	2	21	2	120	220	320	NaN	520	0.26661342009902	2	0	NaN	3896615.2446639	NaN	3896616.2281772	3896616.74470558
112	25	1	0	90	36.1581920903955	36.241610738255	21	0.700040796082467	2	1	5	NaN	1	3	0.671391698905087	0	1	NaN	85	2	22	2	120	220	320	NaN	520	0.298705915454775	1	1	NaN	3896617.82833	NaN	3896618.8117335	3896619.32828088
112	25	1	0	90	36.1581920903955	36.241610738255	14	0.466693864054978	2	10	1	NaN	2	4	0.671391698905087	0	1	NaN	86	2	23	2	120	220	320	NaN	520	0.2341891201213	2	1	NaN	3896620.4452499	NaN	3896621.4286617	3896621.94521028
112	25	1	0	90	36.1581920903955	36.241610738255	10	0.33335276003927	2	2	4	NaN	1	3	0.671391698905087	0	1	NaN	87	2	24	2	120	220	320	NaN	520	1.73169396771118	2	0	NaN	3896622.9954982	NaN	3896623.9788952	3896624.49545343
112	25	1	0	90	36.1581920903955	36.241610738255	14	0.466693864054978	2	1	4	NaN	1	5	0.671391698905087	0	1	NaN	88	2	25	2	120	220	320	NaN	520	0.697854589205235	2	0	NaN	3896627.0291044	NaN	3896628.0126437	3896628.52920041
112	25	1	0	90	36.1581920903955	36.241610738255	11	0.366688036043197	2	3	4	NaN	1	4	0.671391698905087	0	1	NaN	89	2	26	2	120	220	320	NaN	520	0.224908315110952	1	1	NaN	3896630.0462405	NaN	3896631.0295971	3896631.54614518
112	25	1	0	90	36.1581920903955	36.241610738255	6	0.200011656023562	2	1	3	NaN	1	3	0.671391698905087	0	1	NaN	90	2	27	2	120	220	320	NaN	520	0.307579067535698	1	1	NaN	3896632.5798307	NaN	3896633.5631943	3896634.07972843
112	25	1	0	90	36.1581920903955	36.241610738255	13	0.433358588051051	2	8	6	NaN	2	4	0.671391698905087	0	1	NaN	91	2	28	2	120	220	320	NaN	520	0.250259067863226	2	1	NaN	3896635.1965804	NaN	3896636.1800792	3896636.69665633
112	25	1	0	90	36.1581920903955	36.241610738255	25	0.833381900098175	2	2	6	NaN	1	5	0.671391698905087	0	1	NaN	92	2	29	2	120	220	320	NaN	520	0.38723016763106	1	1	NaN	3896637.7636464	NaN	3896638.7470336	3896639.26357733
112	25	1	0	90	36.1581920903955	36.241610738255	20	0.66670552007854	2	4	4	NaN	1	3	0.671391698905087	0	1	NaN	93	2	30	2	120	220	320	NaN	520	0.263015962671489	1	1	NaN	3896640.4639049	NaN	3896641.4472926	3896641.96384384
112	25	1	0	90	36.1581920903955	36.241610738255	7	0.233346932027489	2	1	2	NaN	1	4	0.671391698905087	0	1	NaN	94	2	31	2	120	220	320	NaN	520	0.536003820598125	1	1	NaN	3896643.0306717	NaN	3896644.0142188	3896644.53076398
112	25	1	0	90	36.1581920903955	36.241610738255	18	0.600034968070686	2	2	1	NaN	1	5	0.671391698905087	0	1	NaN	95	2	32	2	120	220	320	NaN	520	0.206283120438457	1	1	NaN	3896645.8809506	NaN	3896646.8644707	3896647.38104098
112	25	1	0	90	36.1581920903955	36.241610738255	8	0.266682208031416	2	1	1	NaN	1	5	0.671391698905087	0	1	NaN	96	2	33	2	120	220	320	NaN	520	0.192882167641073	1	1	NaN	3896648.3979876	NaN	3896649.3814222	3896649.89794843
112	25	1	0	90	36.1581920903955	36.241610738255	19	0.633370244074613	2	2	4	NaN	1	5	0.671391698905087	0	1	NaN	97	2	34	2	120	220	320	NaN	520	0.212432667613029	1	1	NaN	3896650.9149122	NaN	3896651.8983165	3896652.41486863
112	25	1	0	90	36.1581920903955	36.241610738255	24	0.800046624094248	2	12	3	NaN	2	3	0.671391698905087	0	1	NaN	98	2	35	2	120	220	320	NaN	520	0.166455520316958	1	0	NaN	3896653.4485057	NaN	3896654.4319058	3896654.94845208
112	25	1	0	90	36.1581920903955	36.241610738255	23	0.766711348090321	2	2	1	NaN	1	4	0.671391698905087	0	1	NaN	99	2	36	2	120	220	320	NaN	520	0.170793667901307	1	1	NaN	3896655.9320103	NaN	3896656.9155295	3896657.43203063
112	25	1	0	90	36.1581920903955	36.241610738255	20	0.66670552007854	2	9	6	NaN	2	4	0.671391698905087	0	1	NaN	100	2	37	2	120	220	320	NaN	520	0.231262367684394	2	1	NaN	3896658.4156542	NaN	3896659.399064	3896659.91560353
112	25	1	0	90	36.1581920903955	36.241610738255	22	0.733376072086394	2	11	6	NaN	2	3	0.671391698905087	0	1	NaN	101	2	38	2	120	220	320	NaN	520	0.785116114653647	2	1	NaN	3896660.9659216	NaN	3896661.9492818	3896662.46587049
112	25	1	0	90	36.1581920903955	36.241610738255	23	0.766711348090321	2	10	6	NaN	2	4	0.671391698905087	0	1	NaN	102	2	39	2	120	220	320	NaN	520	0.197211820632219	2	1	NaN	3896664.0662079	NaN	3896665.0496031	3896665.56615848
112	25	1	0	90	36.1581920903955	36.241610738255	21	0.700040796082467	2	2	4	NaN	1	4	0.671391698905087	0	1	NaN	103	2	40	2	120	220	320	NaN	520	0.0886204149574041	2	0	NaN	3896666.5664915	NaN	3896667.5498434	3896668.06639969
112	25	1	0	90	36.1581920903955	36.241610738255	10	0.33335276003927	2	9	1	NaN	2	3	0.671391698905087	0	1	NaN	104	2	41	2	120	220	320	NaN	520	0.352290767710656	2	1	NaN	3896668.966702	NaN	3896669.9500901	3896670.46664433
112	25	1	0	90	36.1581920903955	36.241610738255	15	0.500029140058905	2	3	2	NaN	1	4	0.671391698905087	0	1	NaN	105	2	42	2	120	220	320	NaN	520	0.573338967747986	1	1	NaN	3896671.6336396	NaN	3896672.6170093	3896673.13356933
112	25	1	0	90	36.1581920903955	36.241610738255	11	0.366688036043197	2	7	1	NaN	2	4	0.671391698905087	0	1	NaN	106	2	43	2	120	220	320	NaN	520	0.241785319987684	2	1	NaN	3896674.5172489	NaN	3896675.5006416	3896676.01719028
112	25	1	0	90	36.1581920903955	36.241610738255	18	0.600034968070686	2	8	6	NaN	2	5	0.671391698905087	0	1	NaN	107	2	44	2	120	220	320	NaN	520	0.187619267497212	1	0	NaN	3896677.0675244	NaN	3896678.0508822	3896678.56742993
112	25	1	0	90	36.1581920903955	36.241610738255	0	0	1	7	3	NaN	2	4	0.671391698905087	0	1	NaN	108	2	45	2	110	210	310	NaN	510	0.359622920397669	1	0	NaN	3896679.5677571	NaN	3896680.5511413	3896681.06768258
112	25	1	0	90	36.1581920903955	36.241610738255	10	0.33335276003927	2	3	4	NaN	1	3	0.671391698905087	0	1	NaN	109	2	46	2	120	220	320	NaN	520	0.180744567885995	1	1	NaN	3896682.2346531	NaN	3896683.2180767	3896683.73461673
112	25	1	0	90	36.1581920903955	36.241610738255	18	0.600034968070686	2	10	1	NaN	2	5	0.671391698905087	0	1	NaN	110	2	47	2	120	220	320	NaN	520	0.0401551625691354	2	1	NaN	3896684.7348955	NaN	3896685.718299	3896686.23485694
112	25	1	0	90	36.1581920903955	36.241610738255	17	0.566699692066759	2	12	2	NaN	2	3	0.671391698905087	0	1	NaN	111	2	48	2	120	220	320	NaN	520	0.802011203952134	2	1	NaN	3896687.0851524	NaN	3896688.0685386	3896688.5850821
112	25	1	0	90	36.1581920903955	36.241610738255	17	0.566699692066759	2	12	2	NaN	2	3	0.671391698905087	0	1	NaN	112	2	49	2	120	220	320	NaN	520	0.269432920496911	2	1	NaN	3896690.2021074	NaN	3896691.1855133	3896691.70206118
112	25	1	0	90	36.1581920903955	36.241610738255	24	0.800046624094248	2	6	1	NaN	1	3	0.671391698905087	0	1	NaN	113	2	50	2	120	220	320	NaN	520	0.301392514724284	1	1	NaN	3896692.7857138	NaN	3896693.7690932	3896694.28564449
112	25	1	0	90	36.1581920903955	36.241610738255	10	0.33335276003927	2	11	6	NaN	2	5	0.671391698905087	0	1	NaN	114	2	51	2	120	220	320	NaN	520	1.00458196736872	2	1	NaN	3896695.4026194	NaN	3896696.3860589	3896696.90257603
112	25	1	0	90	36.1581920903955	36.241610738255	16	0.533364416062832	2	8	5	NaN	2	3	0.671391698905087	0	1	NaN	115	2	52	2	120	220	320	NaN	520	0.247525872662663	2	1	NaN	3896698.7196241	NaN	3896699.7030378	3896700.21956053
112	25	1	0	90	36.1581920903955	36.241610738255	10	0.33335276003927	2	4	1	NaN	1	4	0.671391698905087	0	1	NaN	116	2	53	2	120	220	320	NaN	520	0.200598567724228	1	1	NaN	3896701.2865327	NaN	3896702.2699399	3896702.78648623
112	25	1	0	90	36.1581920903955	36.241610738255	13	0.433358588051051	2	8	1	NaN	2	4	0.671391698905087	0	1	NaN	117	2	54	2	120	220	320	NaN	520	0.227679767645895	2	1	NaN	3896703.803442	NaN	3896704.7868425	3896705.30339553
112	25	1	0	90	36.1581920903955	36.241610738255	6	0.200011656023562	2	3	2	NaN	1	3	0.671391698905087	0	1	NaN	118	2	55	2	120	220	320	NaN	520	0.260896520223469	1	1	NaN	3896706.3703771	NaN	3896707.3536569	3896707.87031928
112	25	1	0	90	36.1581920903955	36.241610738255	19	0.633370244074613	2	1	2	NaN	1	5	0.671391698905087	0	1	NaN	119	2	56	2	120	220	320	NaN	520	0.253828667569906	1	1	NaN	3896708.9371566	NaN	3896709.920688	3896710.43723463
112	25	1	0	90	36.1581920903955	36.241610738255	13	0.433358588051051	2	11	1	NaN	2	3	0.671391698905087	0	1	NaN	120	2	57	2	120	220	320	NaN	520	0.0103927203454077	2	1	NaN	3896711.5042269	NaN	3896712.4876077	3896713.00415828
112	25	1	0	90	36.1581920903955	36.241610738255	21	0.700040796082467	2	6	6	NaN	1	3	0.671391698905087	0	1	NaN	121	2	58	2	120	220	320	NaN	520	0.185557620134205	1	1	NaN	3896713.83776	NaN	3896714.8211685	3896715.33771838
112	25	1	0	90	36.1581920903955	36.241610738255	18	0.600034968070686	2	4	5	NaN	1	5	0.671391698905087	0	1	NaN	122	2	59	2	120	220	320	NaN	520	0.253406167495996	1	1	NaN	3896716.3379546	NaN	3896717.3214103	3896717.83796623
112	25	1	0	90	36.1581920903955	36.241610738255	20	0.66670552007854	2	5	3	NaN	1	3	0.671391698905087	0	1	NaN	123	2	60	2	120	220	320	NaN	520	0.278659467585385	1	1	NaN	3896718.9049247	NaN	3896719.8883287	3896720.40488323
112	25	1	0	90	36.1581920903955	36.241610738255	21	0.700040796082467	2	11	6	NaN	2	4	0.671391698905087	0	1	NaN	124	2	61	2	120	220	320	NaN	520	0.19803312048316	2	1	NaN	3896721.5051946	NaN	3896722.4886199	3896723.00513918
112	25	1	0	90	36.1581920903955	36.241610738255	18	0.600034968070686	2	10	3	NaN	2	4	0.671391698905087	0	1	NaN	125	2	62	2	120	220	320	NaN	520	0.225057367701083	2	1	NaN	3896724.0221127	NaN	3896725.0054913	3896725.52204593
112	25	1	0	90	36.1581920903955	36.241610738255	11	0.366688036043197	2	1	2	NaN	1	5	0.671391698905087	0	1	NaN	126	2	63	2	120	220	320	NaN	520	0.26777872024104	1	1	NaN	3896726.5556591	NaN	3896727.5390921	3896728.05562868
112	25	1	0	90	36.1581920903955	36.241610738255	17	0.566699692066759	2	5	3	NaN	1	5	0.671391698905087	0	1	NaN	127	3	1	2	120	220	320	NaN	520	0.283271720167249	1	1	NaN	3896765.8762271	NaN	3896766.8596127	3896767.37616578
112	25	1	0	90	36.1581920903955	36.241610738255	20	0.66670552007854	2	5	2	NaN	1	4	0.671391698905087	0	1	NaN	128	3	2	2	120	220	320	NaN	520	0.890803114976734	1	1	NaN	3896768.4764593	NaN	3896769.4598587	3896769.97641909
112	25	1	0	90	36.1581920903955	36.241610738255	7	0.233346932027489	2	7	5	NaN	2	3	0.671391698905087	0	1	NaN	129	3	3	2	120	220	320	NaN	520	0.27434526802972	1	0	NaN	3896771.6767819	NaN	3896772.6601876	3896773.17672733
112	25	1	0	90	36.1581920903955	36.241610738255	23	0.766711348090321	2	6	4	NaN	1	3	0.671391698905087	0	1	NaN	130	3	4	2	120	220	320	NaN	520	0.226917868014425	1	1	NaN	3896774.2602471	NaN	3896775.2437667	3896775.76031423
112	25	1	0	90	36.1581920903955	36.241610738255	8	0.266682208031416	2	3	3	NaN	1	3	0.671391698905087	0	1	NaN	131	3	5	2	120	220	320	NaN	520	0.204938367940485	1	1	NaN	3896776.8106302	NaN	3896777.7940218	3896778.31057193
112	25	1	0	90	36.1581920903955	36.241610738255	16	0.533364416062832	2	10	2	NaN	2	3	0.671391698905087	0	1	NaN	132	3	6	2	120	220	320	NaN	520	0.248079136479646	2	1	NaN	3896779.3275304	NaN	3896780.3109295	3896780.82748576
112	25	1	0	90	36.1581920903955	36.241610738255	25	0.833381900098175	2	11	2	NaN	2	3	0.671391698905087	0	1	NaN	133	3	7	2	120	220	320	NaN	520	0.176701920572668	2	1	NaN	3896781.8944575	NaN	3896782.8778381	3896783.39439718
112	25	1	0	90	36.1581920903955	36.241610738255	20	0.66670552007854	2	2	3	NaN	1	3	0.671391698905087	0	1	NaN	134	3	8	2	120	220	320	NaN	520	0.652647114824504	1	1	NaN	3896784.3945489	NaN	3896785.37809	3896785.89464359
112	25	1	0	90	36.1581920903955	36.241610738255	8	0.266682208031416	2	7	4	NaN	2	5	0.671391698905087	0	1	NaN	135	3	9	2	120	220	320	NaN	520	0.213617267552763	2	1	NaN	3896787.3616437	NaN	3896788.3450074	3896788.86160153
112	25	1	0	90	36.1581920903955	36.241610738255	22	0.733376072086394	2	3	1	NaN	1	4	0.671391698905087	0	1	NaN	136	3	10	2	120	220	320	NaN	520	0.264395667705685	2	0	NaN	3896789.895229	NaN	3896790.8786377	3896791.39518533
112	25	1	0	90	36.1581920903955	36.241610738255	11	0.366688036043197	2	12	5	NaN	2	4	0.671391698905087	0	1	NaN	137	3	11	2	120	220	320	NaN	520	0.200497319921851	2	1	NaN	3896792.4788192	NaN	3896793.4622	3896793.97877828
112	25	1	0	90	36.1581920903955	36.241610738255	13	0.433358588051051	2	3	2	NaN	1	4	0.671391698905087	0	1	NaN	138	3	12	2	120	220	320	NaN	520	0.235316520556808	2	0	NaN	3896794.9957301	NaN	3896795.9791555	3896796.49568938
112	25	1	0	90	36.1581920903955	36.241610738255	18	0.600034968070686	2	1	3	NaN	1	4	0.671391698905087	0	1	NaN	139	3	13	2	120	220	320	NaN	520	0.149796020239592	2	0	NaN	3896797.5458644	NaN	3896798.5293381	3896799.04594318
112	25	1	0	90	36.1581920903955	36.241610738255	23	0.766711348090321	2	5	5	NaN	1	5	0.671391698905087	0	1	NaN	140	3	14	2	120	220	320	NaN	520	0.290238067507744	2	0	NaN	3896800.0128419	NaN	3896800.9962942	3896801.51284833
112	25	1	0	90	36.1581920903955	36.241610738255	13	0.433358588051051	2	1	4	NaN	1	4	0.671391698905087	0	1	NaN	141	3	15	2	120	220	320	NaN	520	0.354120367672294	2	0	NaN	3896802.6130184	NaN	3896803.596554	3896804.11309613
112	25	1	0	90	36.1581920903955	36.241610738255	7	0.233346932027489	2	11	2	NaN	2	5	0.671391698905087	0	1	NaN	142	3	16	2	120	220	320	NaN	520	0.279607520438731	2	1	NaN	3896805.2800793	NaN	3896806.2634792	3896806.78003448
112	25	1	0	90	36.1581920903955	36.241610738255	8	0.266682208031416	2	8	3	NaN	2	5	0.671391698905087	0	1	NaN	143	3	17	2	120	220	320	NaN	520	0.360005367547274	2	1	NaN	3896807.8636721	NaN	3896808.8471028	3896809.36361673
112	25	1	0	90	36.1581920903955	36.241610738255	19	0.633370244074613	2	7	3	NaN	2	5	0.671391698905087	0	1	NaN	144	3	18	2	120	220	320	NaN	520	0.228502667509019	2	1	NaN	3896810.5304671	NaN	3896811.5139674	3896812.03054333
112	25	1	0	90	36.1581920903955	36.241610738255	19	0.633370244074613	2	6	1	NaN	1	4	0.671391698905087	0	1	NaN	145	3	19	2	120	220	320	NaN	520	0.182451367843896	2	0	NaN	3896813.080832	NaN	3896814.0642592	3896814.58079323
112	25	1	0	90	36.1581920903955	36.241610738255	20	0.66670552007854	2	7	6	NaN	2	4	0.671391698905087	0	1	NaN	146	3	20	2	120	220	320	NaN	520	0.282177315093577	2	1	NaN	3896815.5810865	NaN	3896816.5645303	3896817.08103648
112	25	1	0	90	36.1581920903955	36.241610738255	15	0.500029140058905	2	7	4	NaN	2	3	0.671391698905087	0	1	NaN	147	3	21	2	120	220	320	NaN	520	0.242245809175074	2	1	NaN	3896818.1813521	NaN	3896819.1647627	3896819.68129789
112	25	1	0	90	36.1581920903955	36.241610738255	9	0.300017484035343	2	10	4	NaN	2	3	0.671391698905087	0	1	NaN	148	3	22	2	120	220	320	NaN	520	2.18007142562419	2	1	NaN	3896820.7316126	NaN	3896821.7149836	3896822.23155197
112	25	1	0	90	36.1581920903955	36.241610738255	23	0.766711348090321	2	12	5	NaN	2	4	0.671391698905087	0	1	NaN	149	3	23	2	120	220	320	NaN	520	0.255632567685097	2	1	NaN	3896825.232044	NaN	3896826.2154559	3896826.73198313
112	25	1	0	90	36.1581920903955	36.241610738255	10	0.33335276003927	2	2	3	NaN	1	4	0.671391698905087	0	1	NaN	150	3	24	2	120	220	320	NaN	520	0.24830806767568	1	1	NaN	3896827.7989753	NaN	3896828.7823375	3896829.29891013
112	25	1	0	90	36.1581920903955	36.241610738255	15	0.500029140058905	2	8	6	NaN	2	3	0.671391698905087	0	1	NaN	151	3	25	2	120	220	320	NaN	520	0.329173420090228	2	1	NaN	3896830.3824376	NaN	3896831.3659516	3896831.88250148
112	25	1	0	90	36.1581920903955	36.241610738255	7	0.233346932027489	2	5	6	NaN	1	4	0.671391698905087	0	1	NaN	152	3	26	2	120	220	320	NaN	520	0.302557967603207	1	1	NaN	3896833.0328141	NaN	3896834.0161816	3896834.53275633
112	25	1	0	90	36.1581920903955	36.241610738255	13	0.433358588051051	2	9	3	NaN	2	5	0.671391698905087	0	1	NaN	153	3	27	2	120	220	320	NaN	520	0.437896667513996	2	1	NaN	3896835.6497375	NaN	3896836.6331317	3896837.14967843
112	25	1	0	90	36.1581920903955	36.241610738255	16	0.533364416062832	2	2	2	NaN	1	4	0.671391698905087	0	1	NaN	154	3	28	2	120	220	320	NaN	520	0.319823420140892	1	1	NaN	3896838.3999947	NaN	3896839.3833901	3896839.89995218
112	25	1	0	90	36.1581920903955	36.241610738255	0	0	1	2	5	NaN	1	4	0.671391698905087	0	1	NaN	155	3	29	2	110	210	310	NaN	510	0.925690167583525	1	1	NaN	3896841.0336062	NaN	3896842.0169849	3896842.53354353
112	25	1	0	90	36.1581920903955	36.241610738255	8	0.266682208031416	2	9	6	NaN	2	4	0.671391698905087	0	1	NaN	156	3	30	2	120	220	320	NaN	520	0.267370836343616	2	1	NaN	3896844.283907	NaN	3896845.2673157	3896845.78386486
112	25	1	0	90	36.1581920903955	36.241610738255	24	0.800046624094248	2	5	3	NaN	1	4	0.671391698905087	0	1	NaN	157	3	31	2	120	220	320	NaN	520	0.628214067779481	2	0	NaN	3896846.867518	NaN	3896847.850904	3896848.36744703
112	25	1	0	90	36.1581920903955	36.241610738255	6	0.200011656023562	2	3	5	NaN	1	3	0.671391698905087	0	1	NaN	158	3	32	2	120	220	320	NaN	520	0.246707267593592	1	1	NaN	3896849.8011207	NaN	3896850.7845192	3896851.30107143
112	25	1	0	90	36.1581920903955	36.241610738255	10	0.33335276003927	2	1	6	NaN	1	3	0.671391698905087	0	1	NaN	159	3	33	2	120	220	320	NaN	520	0.199702620040625	2	0	NaN	3896852.3680244	NaN	3896853.3514456	3896853.86798818
112	25	1	0	90	36.1581920903955	36.241610738255	25	0.833381900098175	2	12	5	NaN	2	5	0.671391698905087	0	1	NaN	160	3	34	2	120	220	320	NaN	520	0.32276062015444	2	1	NaN	3896854.8849273	NaN	3896855.8683446	3896856.38490258
112	25	1	0	90	36.1581920903955	36.241610738255	6	0.200011656023562	2	2	2	NaN	1	4	0.671391698905087	0	1	NaN	161	3	35	2	120	220	320	NaN	520	0.368812220171094	1	1	NaN	3896857.5184756	NaN	3896858.5019248	3896859.01850008
112	25	1	0	90	36.1581920903955	36.241610738255	12	0.400023312047124	2	11	4	NaN	2	4	0.671391698905087	0	1	NaN	162	3	36	2	120	220	320	NaN	520	0.181176867801696	2	1	NaN	3896860.2021372	NaN	3896861.1856465	3896861.70209473
112	25	1	0	90	36.1581920903955	36.241610738255	19	0.633370244074613	2	8	4	NaN	2	5	0.671391698905087	0	1	NaN	163	3	37	2	120	220	320	NaN	520	0.24933346780017	1	0	NaN	3896862.7023822	NaN	3896863.6857921	3896864.20232883
112	25	1	0	90	36.1581920903955	36.241610738255	17	0.566699692066759	2	8	1	NaN	2	4	0.671391698905087	0	1	NaN	164	3	38	2	120	220	320	NaN	520	0.930125720333308	1	0	NaN	3896865.2692976	NaN	3896866.2527042	3896866.76926188
112	25	1	0	90	36.1581920903955	36.241610738255	12	0.400023312047124	2	9	3	NaN	2	4	0.671391698905087	0	1	NaN	165	3	39	2	120	220	320	NaN	520	0.0104922675527632	2	1	NaN	3896868.5196588	NaN	3896869.5030275	3896870.01959993
112	25	1	0	90	36.1581920903955	36.241610738255	22	0.733376072086394	2	12	1	NaN	2	4	0.671391698905087	0	1	NaN	166	3	40	2	120	220	320	NaN	520	0.835293967742473	1	0	NaN	3896870.8365343	NaN	3896871.8199302	3896872.33646573
112	25	1	0	90	36.1581920903955	36.241610738255	7	0.233346932027489	2	12	1	NaN	2	5	0.671391698905087	0	1	NaN	167	3	41	2	120	220	320	NaN	520	0.220958762336522	2	1	NaN	3896873.9868451	NaN	3896874.9702364	3896875.48677134
112	25	1	0	90	36.1581920903955	36.241610738255	22	0.733376072086394	2	4	1	NaN	1	3	0.671391698905087	0	1	NaN	168	3	42	2	120	220	320	NaN	520	0.238965220283717	1	1	NaN	3896876.5202912	NaN	3896877.5038212	3896878.02036168
112	25	1	0	90	36.1581920903955	36.241610738255	13	0.433358588051051	2	10	2	NaN	2	4	0.671391698905087	0	1	NaN	169	3	43	2	120	220	320	NaN	520	0.152843514923006	2	1	NaN	3896879.0706488	NaN	3896880.0540602	3896880.57061358
112	25	1	0	90	36.1581920903955	36.241610738255	0	0	1	9	1	NaN	2	3	0.671391698905087	0	1	NaN	170	3	44	2	110	210	310	NaN	510	0.333873667754233	1	0	NaN	3896881.5375654	NaN	3896882.5209754	3896883.03752183
112	25	1	0	90	36.1581920903955	36.241610738255	13	0.433358588051051	2	11	2	NaN	2	5	0.671391698905087	0	1	NaN	171	3	45	2	120	220	320	NaN	520	0.204049062449485	2	1	NaN	3896884.1878319	NaN	3896885.1712375	3896885.68778154
112	25	1	0	90	36.1581920903955	36.241610738255	8	0.266682208031416	2	11	1	NaN	2	3	0.671391698905087	0	1	NaN	172	3	46	2	120	220	320	NaN	520	0.198418120387942	2	1	NaN	3896886.7047545	NaN	3896887.6881502	3896888.20471168
112	25	1	0	90	36.1581920903955	36.241610738255	23	0.766711348090321	2	3	6	NaN	1	3	0.671391698905087	0	1	NaN	173	3	47	2	120	220	320	NaN	520	0.426263020373881	1	1	NaN	3896889.2049883	NaN	3896890.1883875	3896890.70494638
112	25	1	0	90	36.1581920903955	36.241610738255	6	0.200011656023562	2	4	1	NaN	1	3	0.671391698905087	0	1	NaN	174	3	48	2	120	220	320	NaN	520	0.284842715132982	1	1	NaN	3896891.938468	NaN	3896892.9219897	3896893.43854048
112	25	1	0	90	36.1581920903955	36.241610738255	8	0.266682208031416	2	2	2	NaN	1	5	0.671391698905087	0	1	NaN	175	3	49	2	120	220	320	NaN	520	0.293011220172048	1	1	NaN	3896894.5388455	NaN	3896895.5222586	3896896.03879988
112	25	1	0	90	36.1581920903955	36.241610738255	24	0.800046624094248	2	3	6	NaN	1	5	0.671391698905087	0	1	NaN	176	3	50	2	120	220	320	NaN	520	0.220731878653169	1	1	NaN	3896897.1389765	NaN	3896898.122511	3896898.63904882
112	25	1	0	90	36.1581920903955	36.241610738255	6	0.200011656023562	2	6	6	NaN	1	4	0.671391698905087	0	1	NaN	177	3	51	2	120	220	320	NaN	520	0.734558967873454	1	1	NaN	3896899.6726605	NaN	3896900.6561047	3896901.17262933
112	25	1	0	90	36.1581920903955	36.241610738255	0	0	1	8	2	NaN	2	3	0.671391698905087	0	1	NaN	178	3	52	2	110	210	310	NaN	510	0.212356720119715	2	1	NaN	3896902.7229934	NaN	3896903.7063774	3896904.22293888
112	25	1	0	90	36.1581920903955	36.241610738255	19	0.633370244074613	2	3	1	NaN	1	5	0.671391698905087	0	1	NaN	179	3	53	2	120	220	320	NaN	520	0.431931567844003	1	1	NaN	3896905.2399097	NaN	3896906.2232973	3896906.73984263
112	25	1	0	90	36.1581920903955	36.241610738255	12	0.400023312047124	2	7	3	NaN	2	3	0.671391698905087	0	1	NaN	180	3	54	2	120	220	320	NaN	520	0.281059772707522	1	0	NaN	3896907.9901596	NaN	3896908.9735741	3896909.49011953
112	25	1	0	90	36.1581920903955	36.241610738255	20	0.66670552007854	2	12	3	NaN	2	3	0.671391698905087	0	1	NaN	181	3	55	2	120	220	320	NaN	520	0.75329172052443	2	1	NaN	3896910.5904384	NaN	3896911.5738787	3896912.09037778
112	25	1	0	90	36.1581920903955	36.241610738255	24	0.800046624094248	2	1	4	NaN	1	3	0.671391698905087	0	1	NaN	182	3	56	2	120	220	320	NaN	520	0.509807541500777	2	0	NaN	3896913.674072	NaN	3896914.6574515	3896915.17402156
112	25	1	0	90	36.1581920903955	36.241610738255	25	0.833381900098175	2	9	1	NaN	2	3	0.671391698905087	0	1	NaN	183	3	57	2	120	220	320	NaN	520	0.372805867809802	2	1	NaN	3896916.4910098	NaN	3896917.4742915	3896917.99095133
112	25	1	0	90	36.1581920903955	36.241610738255	14	0.466693864054978	2	1	2	NaN	1	5	0.671391698905087	0	1	NaN	184	3	58	2	120	220	320	NaN	520	0.289297172799706	1	1	NaN	3896919.1745898	NaN	3896920.1580383	3896920.67455273
112	25	1	0	90	36.1581920903955	36.241610738255	6	0.200011656023562	2	12	2	NaN	2	3	0.671391698905087	0	1	NaN	185	3	59	2	120	220	320	NaN	520	0.209062667563558	2	1	NaN	3896921.7748679	NaN	3896922.7582665	3896923.27480493
112	25	1	0	90	36.1581920903955	36.241610738255	7	0.233346932027489	2	4	2	NaN	1	4	0.671391698905087	0	1	NaN	186	3	60	2	120	220	320	NaN	520	0.267460415139794	1	1	NaN	3896924.3084342	NaN	3896925.2918311	3896925.80838028
112	25	1	0	90	36.1581920903955	36.241610738255	14	0.466693864054978	2	3	5	NaN	1	5	0.671391698905087	0	1	NaN	187	3	61	2	120	220	320	NaN	520	0.315406367648393	1	1	NaN	3896926.8920312	NaN	3896927.8754305	3896928.39197693
112	25	1	0	90	36.1581920903955	36.241610738255	21	0.700040796082467	2	3	6	NaN	1	4	0.671391698905087	0	1	NaN	188	3	62	2	120	220	320	NaN	520	0.241910972632468	1	1	NaN	3896929.525614	NaN	3896930.5090211	3896931.02557023
112	25	1	0	90	36.1581920903955	36.241610738255	17	0.566699692066759	2	6	5	NaN	1	3	0.671391698905087	0	1	NaN	189	3	63	2	120	220	320	NaN	520	0.234915462322533	1	1	NaN	3896932.0925303	NaN	3896933.0759214	3896933.59248354
112	25	1	0	90	36.1581920903955	36.241610738255	8	0.266682208031416	2	2	6	NaN	1	3	0.671391698905087	0	1	NaN	190	4	1	2	120	220	320	NaN	520	0.410421372856945	2	0	NaN	3896992.1650917	NaN	3896993.1485042	3896993.66505443
112	25	1	0	90	36.1581920903955	36.241610738255	22	0.733376072086394	2	8	5	NaN	2	4	0.671391698905087	0	1	NaN	191	4	2	2	120	220	320	NaN	520	0.238885767757893	2	1	NaN	3896995.248614	NaN	3896996.2321261	3896996.74869163
112	25	1	0	90	36.1581920903955	36.241610738255	24	0.800046624094248	2	5	4	NaN	1	4	0.671391698905087	0	1	NaN	192	4	3	2	120	220	320	NaN	520	0.336666194722056	2	0	NaN	3896997.7989906	NaN	3896998.7823934	3896999.29893791
112	25	1	0	90	36.1581920903955	36.241610738255	16	0.533364416062832	2	10	2	NaN	2	4	0.671391698905087	0	1	NaN	193	4	4	2	120	220	320	NaN	520	0.254307567607611	1	0	NaN	3897000.4492589	NaN	3897001.4326502	3897001.94920513
112	25	1	0	90	36.1581920903955	36.241610738255	6	0.200011656023562	2	4	2	NaN	1	3	0.671391698905087	0	1	NaN	194	4	5	2	120	220	320	NaN	520	0.263323520310223	1	1	NaN	3897003.0161658	NaN	3897003.9995734	3897004.51611748
112	25	1	0	90	36.1581920903955	36.241610738255	21	0.700040796082467	2	10	5	NaN	2	3	0.671391698905087	0	1	NaN	195	4	6	2	120	220	320	NaN	520	0.528851067647338	1	0	NaN	3897005.5830904	NaN	3897006.5664834	3897007.08303123
112	25	1	0	90	36.1581920903955	36.241610738255	10	0.33335276003927	2	11	2	NaN	2	5	0.671391698905087	0	1	NaN	196	4	7	2	120	220	320	NaN	520	0.246604667510837	2	1	NaN	3897008.4333816	NaN	3897009.4167613	3897009.93330863
112	25	1	0	90	36.1581920903955	36.241610738255	14	0.466693864054978	2	9	4	NaN	2	4	0.671391698905087	0	1	NaN	197	4	8	2	120	220	320	NaN	520	0.407330367248505	2	1	NaN	3897011.0001663	NaN	3897011.9836984	3897012.50024083
112	25	1	0	90	36.1581920903955	36.241610738255	0	0	1	5	4	NaN	1	3	0.671391698905087	0	1	NaN	198	4	9	2	110	210	310	NaN	510	0.186901120003313	2	0	NaN	3897013.7171085	NaN	3897014.7006257	3897015.21717228
112	25	1	0	90	36.1581920903955	36.241610738255	12	0.400023312047124	2	3	1	NaN	1	5	0.671391698905087	0	1	NaN	199	4	10	2	120	220	320	NaN	520	0.558407867792994	2	0	NaN	3897016.21747	NaN	3897017.2008398	3897017.71741953
112	25	1	0	90	36.1581920903955	36.241610738255	6	0.200011656023562	2	11	5	NaN	2	3	0.671391698905087	0	1	NaN	200	4	11	2	120	220	320	NaN	520	0.162567667663097	2	1	NaN	3897019.1010997	NaN	3897020.0844773	3897020.60102663
112	25	1	0	90	36.1581920903955	36.241610738255	7	0.233346932027489	2	2	2	NaN	1	4	0.671391698905087	0	1	NaN	201	4	12	2	120	220	320	NaN	520	0.255363420117646	1	1	NaN	3897021.5846523	NaN	3897022.5680583	3897023.08461438
112	25	1	0	90	36.1581920903955	36.241610738255	25	0.833381900098175	2	3	2	NaN	1	4	0.671391698905087	0	1	NaN	202	4	13	2	120	220	320	NaN	520	1.22385596763343	1	1	NaN	3897024.1515772	NaN	3897025.1349859	3897025.65152343
112	25	1	0	90	36.1581920903955	36.241610738255	18	0.600034968070686	2	2	3	NaN	1	5	0.671391698905087	0	1	NaN	203	4	14	2	120	220	320	NaN	520	0.466258920263499	2	0	NaN	3897027.6852635	NaN	3897028.6686511	3897029.18520818
112	25	1	0	90	36.1581920903955	36.241610738255	10	0.33335276003927	2	6	2	NaN	1	4	0.671391698905087	0	1	NaN	204	4	15	2	120	220	320	NaN	520	0.267053220421076	1	1	NaN	3897030.4688745	NaN	3897031.4522642	3897031.96881088
112	25	1	0	90	36.1581920903955	36.241610738255	20	0.66670552007854	2	6	4	NaN	1	5	0.671391698905087	0	1	NaN	205	4	16	2	120	220	320	NaN	520	0.195184472948313	1	1	NaN	3897033.0524583	NaN	3897034.0358415	3897034.55239593
112	25	1	0	90	36.1581920903955	36.241610738255	25	0.833381900098175	2	1	4	NaN	1	4	0.671391698905087	0	1	NaN	206	4	17	2	120	220	320	NaN	520	1.1985780200921	1	1	NaN	3897035.5693656	NaN	3897036.5527602	3897037.06932168
112	25	1	0	90	36.1581920903955	36.241610738255	16	0.533364416062832	2	6	4	NaN	1	3	0.671391698905087	0	1	NaN	207	4	18	2	120	220	320	NaN	520	0.273171267472208	1	1	NaN	3897039.0863885	NaN	3897040.0697546	3897040.58633293
112	25	1	0	90	36.1581920903955	36.241610738255	23	0.766711348090321	2	10	5	NaN	2	3	0.671391698905087	0	1	NaN	208	4	19	2	120	220	320	NaN	520	0.401656220201403	1	0	NaN	3897041.6699725	NaN	3897042.65337	3897043.16991358
112	25	1	0	90	36.1581920903955	36.241610738255	12	0.400023312047124	2	8	4	NaN	2	5	0.671391698905087	0	1	NaN	209	4	20	2	120	220	320	NaN	520	0.428809720557183	2	1	NaN	3897044.3869069	NaN	3897045.3703146	3897045.88685248
112	25	1	0	90	36.1581920903955	36.241610738255	23	0.766711348090321	2	1	5	NaN	1	3	0.671391698905087	0	1	NaN	210	4	21	2	120	220	320	NaN	520	0.142881819978356	2	0	NaN	3897047.1371662	NaN	3897048.1205726	3897048.63712298
112	25	1	0	90	36.1581920903955	36.241610738255	6	0.200011656023562	2	8	5	NaN	2	3	0.671391698905087	0	1	NaN	211	4	22	2	120	220	320	NaN	520	1.14036363130435	2	1	NaN	3897049.5872673	NaN	3897050.570802	3897051.08736217
112	25	1	0	90	36.1581920903955	36.241610738255	21	0.700040796082467	2	9	5	NaN	2	3	0.671391698905087	0	1	NaN	212	4	23	2	120	220	320	NaN	520	0.178308967500925	2	1	NaN	3897053.0377556	NaN	3897054.021147	3897054.53769493
112	25	1	0	90	36.1581920903955	36.241610738255	24	0.800046624094248	2	12	3	NaN	2	4	0.671391698905087	0	1	NaN	213	4	24	2	120	220	320	NaN	520	0.437486067414284	1	0	NaN	3897055.5379891	NaN	3897056.5213923	3897057.03794693
112	25	1	0	90	36.1581920903955	36.241610738255	6	0.200011656023562	2	5	3	NaN	1	4	0.671391698905087	0	1	NaN	214	4	25	2	120	220	320	NaN	520	1.14380272012204	1	1	NaN	3897058.2882721	NaN	3897059.27166	3897059.78821438
112	25	1	0	90	36.1581920903955	36.241610738255	22	0.733376072086394	2	1	5	NaN	1	4	0.671391698905087	0	1	NaN	215	4	26	2	120	220	320	NaN	520	0.349427567329258	2	0	NaN	3897061.7386166	NaN	3897062.7219838	3897063.23854533
112	25	1	0	90	36.1581920903955	36.241610738255	8	0.266682208031416	2	5	3	NaN	1	5	0.671391698905087	0	1	NaN	216	4	27	2	120	220	320	NaN	520	0.146610767580569	1	1	NaN	3897064.4055273	NaN	3897065.3889307	3897065.90548203
112	25	1	0	90	36.1581920903955	36.241610738255	13	0.433358588051051	2	5	6	NaN	1	4	0.671391698905087	0	1	NaN	217	4	28	2	120	220	320	NaN	520	0.519861720036715	1	1	NaN	3897066.8557634	NaN	3897067.8391637	3897068.35572588
112	25	1	0	90	36.1581920903955	36.241610738255	18	0.600034968070686	2	12	6	NaN	2	3	0.671391698905087	0	1	NaN	218	4	29	2	120	220	320	NaN	520	0.542217867448926	1	0	NaN	3897069.6893939	NaN	3897070.6727804	3897071.18933463
112	25	1	0	90	36.1581920903955	36.241610738255	13	0.433358588051051	2	1	6	NaN	1	3	0.671391698905087	0	1	NaN	219	4	30	2	120	220	320	NaN	520	0.508447367697954	1	1	NaN	3897072.5396746	NaN	3897073.523101	3897074.03961373
112	25	1	0	90	36.1581920903955	36.241610738255	7	0.233346932027489	2	8	3	NaN	2	4	0.671391698905087	0	1	NaN	220	4	31	2	120	220	320	NaN	520	0.202980920206755	2	1	NaN	3897075.3566361	NaN	3897076.3400078	3897076.85656238
112	25	1	0	90	36.1581920903955	36.241610738255	0	0	1	3	2	NaN	1	5	0.671391698905087	0	1	NaN	221	4	32	2	110	210	310	NaN	510	0.518067567609251	2	0	NaN	3897077.8734617	NaN	3897078.8569404	3897079.37347423
112	25	1	0	90	36.1581920903955	36.241610738255	9	0.300017484035343	2	5	1	NaN	1	3	0.671391698905087	0	1	NaN	222	4	33	2	120	220	320	NaN	520	0.196456519886851	1	1	NaN	3897080.707119	NaN	3897081.6905376	3897082.20708778
112	25	1	0	90	36.1581920903955	36.241610738255	25	0.833381900098175	2	5	5	NaN	1	3	0.671391698905087	0	1	NaN	223	4	34	2	120	220	320	NaN	520	1.95953486766666	2	0	NaN	3897083.2240625	NaN	3897084.2074503	3897084.72399183
112	25	1	0	90	36.1581920903955	36.241610738255	0	0	1	7	6	NaN	2	5	0.671391698905087	0	1	NaN	224	4	35	2	110	210	310	NaN	510	0.156916220206767	2	1	NaN	3897087.4911365	NaN	3897088.4745501	3897088.99107818
112	25	1	0	90	36.1581920903955	36.241610738255	16	0.533364416062832	2	11	3	NaN	2	3	0.671391698905087	0	1	NaN	225	4	36	2	120	220	320	NaN	520	0.257506615016609	2	1	NaN	3897089.958048	NaN	3897090.9414323	3897091.45801029
112	25	1	0	90	36.1581920903955	36.241610738255	19	0.633370244074613	2	10	5	NaN	2	4	0.671391698905087	0	1	NaN	226	4	37	2	120	220	320	NaN	520	0.275086867623031	1	0	NaN	3897092.524963	NaN	3897093.5083584	3897094.02491193
112	25	1	0	90	36.1581920903955	36.241610738255	21	0.700040796082467	2	11	6	NaN	2	5	0.671391698905087	0	1	NaN	227	4	38	2	120	220	320	NaN	520	0.171497420407832	2	1	NaN	3897095.1085384	NaN	3897096.0919367	3897096.60849218
112	25	1	0	90	36.1581920903955	36.241610738255	16	0.533364416062832	2	7	6	NaN	2	5	0.671391698905087	0	1	NaN	228	4	39	2	120	220	320	NaN	520	0.311696420423687	2	1	NaN	3897097.5921183	NaN	3897098.5755143	3897099.09208028
112	25	1	0	90	36.1581920903955	36.241610738255	21	0.700040796082467	2	3	1	NaN	1	4	0.671391698905087	0	1	NaN	229	4	40	2	120	220	320	NaN	520	0.182051267940551	2	0	NaN	3897100.2257702	NaN	3897101.2090986	3897101.72566923
112	25	1	0	90	36.1581920903955	36.241610738255	18	0.600034968070686	2	11	6	NaN	2	4	0.671391698905087	0	1	NaN	230	4	41	2	120	220	320	NaN	520	0.20158074144274	2	1	NaN	3897102.7258743	NaN	3897103.7094171	3897104.22591426
112	25	1	0	90	36.1581920903955	36.241610738255	24	0.800046624094248	2	3	4	NaN	1	5	0.671391698905087	0	1	NaN	231	4	42	2	120	220	320	NaN	520	1.16715662553906	1	1	NaN	3897105.5927621	NaN	3897106.5763072	3897107.09285727
112	25	1	0	90	36.1581920903955	36.241610738255	24	0.800046624094248	2	2	6	NaN	1	4	0.671391698905087	0	1	NaN	232	4	43	2	120	220	320	NaN	520	0.43520872015506	2	0	NaN	3897109.0765637	NaN	3897110.0600373	3897110.57653878
112	25	1	0	90	36.1581920903955	36.241610738255	10	0.33335276003927	2	9	5	NaN	2	3	0.671391698905087	0	1	NaN	233	4	44	2	120	220	320	NaN	520	0.292909967713058	2	1	NaN	3897111.8268691	NaN	3897112.8102464	3897113.32680463
112	25	1	0	90	36.1581920903955	36.241610738255	22	0.733376072086394	2	7	1	NaN	2	5	0.671391698905087	0	1	NaN	234	4	45	2	120	220	320	NaN	520	0.196321767754853	2	1	NaN	3897114.4437604	NaN	3897115.4271587	3897115.94372333
112	25	1	0	90	36.1581920903955	36.241610738255	9	0.300017484035343	2	5	2	NaN	1	4	0.671391698905087	0	1	NaN	235	4	46	2	120	220	320	NaN	520	0.0102513949386775	2	0	NaN	3897116.9606914	NaN	3897117.944093	3897118.46065411
112	25	1	0	90	36.1581920903955	36.241610738255	20	0.66670552007854	2	11	6	NaN	2	4	0.671391698905087	0	1	NaN	236	4	47	2	120	220	320	NaN	520	0.266544867772609	2	1	NaN	3897119.2775955	NaN	3897120.2609847	3897120.77753793
112	25	1	0	90	36.1581920903955	36.241610738255	24	0.800046624094248	2	7	4	NaN	2	4	0.671391698905087	0	1	NaN	237	4	48	2	120	220	320	NaN	520	0.210912967566401	2	1	NaN	3897121.8611763	NaN	3897122.8445712	3897123.36112903
112	25	1	0	90	36.1581920903955	36.241610738255	17	0.566699692066759	2	1	5	NaN	1	4	0.671391698905087	0	1	NaN	238	4	49	2	120	220	320	NaN	520	0.173654667567462	2	0	NaN	3897124.3781019	NaN	3897125.3614881	3897125.87803983
112	25	1	0	90	36.1581920903955	36.241610738255	11	0.366688036043197	2	11	3	NaN	2	5	0.671391698905087	0	1	NaN	239	4	50	2	120	220	320	NaN	520	0.162058014888316	2	1	NaN	3897126.8616707	NaN	3897127.8450634	3897128.36161109
112	25	1	0	90	36.1581920903955	36.241610738255	20	0.66670552007854	2	12	2	NaN	2	4	0.671391698905087	0	1	NaN	240	4	51	2	120	220	320	NaN	520	0.271169367711991	2	1	NaN	3897129.3285577	NaN	3897130.3119652	3897130.82852053
112	25	1	0	90	36.1581920903955	36.241610738255	24	0.800046624094248	2	4	4	NaN	1	3	0.671391698905087	0	1	NaN	241	4	52	2	120	220	320	NaN	520	0.167493120301515	2	0	NaN	3897131.9121565	NaN	3897132.8955496	3897133.41210708
112	25	1	0	90	36.1581920903955	36.241610738255	9	0.300017484035343	2	1	3	NaN	1	5	0.671391698905087	0	1	NaN	242	4	53	2	120	220	320	NaN	520	0.235801767557859	2	0	NaN	3897134.3957529	NaN	3897135.3791418	3897135.89568973
112	25	1	0	90	36.1581920903955	36.241610738255	23	0.766711348090321	2	3	5	NaN	1	3	0.671391698905087	0	1	NaN	243	4	54	2	120	220	320	NaN	520	0.261847594752908	1	1	NaN	3897136.9459826	NaN	3897137.9293872	3897138.44594441
112	25	1	0	90	36.1581920903955	36.241610738255	18	0.600034968070686	2	7	6	NaN	2	4	0.671391698905087	0	1	NaN	244	4	55	2	120	220	320	NaN	520	0.51077496772632	2	1	NaN	3897139.5128877	NaN	3897140.4963148	3897141.01285743
112	25	1	0	90	36.1581920903955	36.241610738255	14	0.466693864054978	2	10	5	NaN	2	5	0.671391698905087	0	1	NaN	245	4	56	2	120	220	320	NaN	520	0.317185420077294	1	0	NaN	3897142.346509	NaN	3897143.3299232	3897143.84647128
112	25	1	0	90	36.1581920903955	36.241610738255	21	0.700040796082467	2	6	2	NaN	1	5	0.671391698905087	0	1	NaN	246	4	57	2	120	220	320	NaN	520	0.236027420032769	1	1	NaN	3897144.9801124	NaN	3897145.9635173	3897146.48006628
112	25	1	0	90	36.1581920903955	36.241610738255	21	0.700040796082467	2	2	1	NaN	1	4	0.671391698905087	0	1	NaN	247	4	58	2	120	220	320	NaN	520	0.189432367682457	1	1	NaN	3897147.5302612	NaN	3897148.5137596	3897149.03031643
112	25	1	0	90	36.1581920903955	36.241610738255	14	0.466693864054978	2	3	3	NaN	1	4	0.671391698905087	0	1	NaN	248	4	59	2	120	220	320	NaN	520	0.617521967738867	1	1	NaN	3897150.0306091	NaN	3897151.0140081	3897151.53055383
112	25	1	0	90	36.1581920903955	36.241610738255	17	0.566699692066759	2	10	2	NaN	2	3	0.671391698905087	0	1	NaN	249	4	60	2	120	220	320	NaN	520	0.571854220237583	1	0	NaN	3897152.9642219	NaN	3897153.947617	3897154.46418318
112	25	1	0	90	36.1581920903955	36.241610738255	6	0.200011656023562	2	8	2	NaN	2	3	0.671391698905087	0	1	NaN	250	4	61	2	120	220	320	NaN	520	0.824372120201588	1	0	NaN	3897155.8478371	NaN	3897156.831247	3897157.34779908
112	25	1	0	90	36.1581920903955	36.241610738255	20	0.66670552007854	2	10	1	NaN	2	4	0.671391698905087	0	1	NaN	251	4	62	2	120	220	320	NaN	520	0.362653467338532	2	1	NaN	3897158.9815053	NaN	3897159.9648685	3897160.48143333
112	25	1	0	90	36.1581920903955	36.241610738255	22	0.733376072086394	2	5	2	NaN	1	5	0.671391698905087	0	1	NaN	252	4	63	2	120	220	320	NaN	520	8.99080232018605	1	1	NaN	3897161.6650907	NaN	3897162.6484827	3897163.16503428
112	25	1	0	90	36.1581920903955	36.241610738255	10	0.33335276003927	2	3	2	NaN	1	4	0.671391698905087	0	1	NaN	253	5	1	2	120	220	320	NaN	520	0.427059220150113	1	1	NaN	3897287.4607813	NaN	3897288.4441768	3897288.96071668
112	25	1	0	90	36.1581920903955	36.241610738255	7	0.233346932027489	2	3	5	NaN	1	5	0.671391698905087	0	1	NaN	254	5	2	2	120	220	320	NaN	520	0.188727267552167	1	1	NaN	3897290.2110516	NaN	3897291.1944373	3897291.71099303
112	25	1	0	90	36.1581920903955	36.241610738255	17	0.566699692066759	2	10	6	NaN	2	4	0.671391698905087	0	1	NaN	255	5	3	2	120	220	320	NaN	520	0.121086267288774	2	1	NaN	3897292.7112888	NaN	3897293.6946915	3897294.21123193
112	25	1	0	90	36.1581920903955	36.241610738255	23	0.766711348090321	2	8	4	NaN	2	4	0.671391698905087	0	1	NaN	256	5	4	2	120	220	320	NaN	520	0.119275367818773	2	1	NaN	3897295.1447471	NaN	3897296.1282368	3897296.64481103
112	25	1	0	90	36.1581920903955	36.241610738255	11	0.366688036043197	2	4	3	NaN	1	4	0.671391698905087	0	1	NaN	257	5	5	2	120	220	320	NaN	520	0.797584219835699	1	1	NaN	3897297.5784071	NaN	3897298.5618682	3897299.07838048
112	25	1	0	90	36.1581920903955	36.241610738255	23	0.766711348090321	2	8	6	NaN	2	4	0.671391698905087	0	1	NaN	258	5	6	2	120	220	320	NaN	520	0.265590820461512	2	1	NaN	3897300.6787544	NaN	3897301.6621262	3897302.17868498
112	25	1	0	90	36.1581920903955	36.241610738255	15	0.500029140058905	2	6	6	NaN	1	5	0.671391698905087	0	1	NaN	259	5	7	2	120	220	320	NaN	520	0.337862667627633	1	1	NaN	3897303.2623357	NaN	3897304.2457219	3897304.76227553
112	25	1	0	90	36.1581920903955	36.241610738255	10	0.33335276003927	2	5	2	NaN	1	4	0.671391698905087	0	1	NaN	260	5	8	2	120	220	320	NaN	520	0.207434967625886	2	0	NaN	3897305.9125658	NaN	3897306.8959888	3897307.41253263
112	25	1	0	90	36.1581920903955	36.241610738255	12	0.400023312047124	2	4	5	NaN	1	5	0.671391698905087	0	1	NaN	261	5	9	2	120	220	320	NaN	520	0.402340367436409	1	1	NaN	3897308.4295021	NaN	3897309.4128753	3897309.92944373
112	25	1	0	90	36.1581920903955	36.241610738255	9	0.300017484035343	2	12	1	NaN	2	5	0.671391698905087	0	1	NaN	262	5	10	2	120	220	320	NaN	520	0.165565056726336	2	1	NaN	3897311.146417	NaN	3897312.1298335	3897312.64636934
112	25	1	0	90	36.1581920903955	36.241610738255	12	0.400023312047124	2	7	6	NaN	2	4	0.671391698905087	0	1	NaN	263	5	11	2	120	220	320	NaN	520	0.202426120638847	2	1	NaN	3897313.6300069	NaN	3897314.6134161	3897315.12995878
112	25	1	0	90	36.1581920903955	36.241610738255	23	0.766711348090321	2	6	5	NaN	1	5	0.671391698905087	0	1	NaN	264	5	12	2	120	220	320	NaN	520	0.22099761525169	1	1	NaN	3897316.1469145	NaN	3897317.1303154	3897317.64686398
112	25	1	0	90	36.1581920903955	36.241610738255	14	0.466693864054978	2	8	6	NaN	2	3	0.671391698905087	0	1	NaN	265	5	13	2	120	220	320	NaN	520	0.303901567589492	2	1	NaN	3897318.6805136	NaN	3897319.6639009	3897320.18045843
112	25	1	0	90	36.1581920903955	36.241610738255	21	0.700040796082467	2	7	6	NaN	2	4	0.671391698905087	0	1	NaN	266	5	14	2	120	220	320	NaN	520	0.110528220422566	2	1	NaN	3897321.2972943	NaN	3897322.2808646	3897322.79738338
112	25	1	0	90	36.1581920903955	36.241610738255	17	0.566699692066759	2	9	3	NaN	2	4	0.671391698905087	0	1	NaN	267	5	15	2	120	220	320	NaN	520	0.293762467801571	2	1	NaN	3897323.7143265	NaN	3897324.6977344	3897325.21428053
112	25	1	0	90	36.1581920903955	36.241610738255	16	0.533364416062832	2	12	3	NaN	2	4	0.671391698905087	0	1	NaN	268	5	16	2	120	220	320	NaN	520	0.269804020412266	2	1	NaN	3897326.3145996	NaN	3897327.2979938	3897327.81453768
112	25	1	0	90	36.1581920903955	36.241610738255	8	0.266682208031416	2	12	1	NaN	2	3	0.671391698905087	0	1	NaN	269	5	17	2	120	220	320	NaN	520	0.26996322022751	2	1	NaN	3897328.8981748	NaN	3897329.8815616	3897330.39812358
112	25	1	0	90	36.1581920903955	36.241610738255	14	0.466693864054978	2	9	4	NaN	2	5	0.671391698905087	0	1	NaN	270	5	18	2	120	220	320	NaN	520	0.304826815146953	1	0	NaN	3897331.6150691	NaN	3897332.5985031	3897333.11505459
112	25	1	0	90	36.1581920903955	36.241610738255	24	0.800046624094248	2	6	6	NaN	1	3	0.671391698905087	0	1	NaN	271	5	19	2	120	220	320	NaN	520	0.232433867640793	2	0	NaN	3897334.231927	NaN	3897335.2154428	3897335.73197983
112	25	1	0	90	36.1581920903955	36.241610738255	10	0.33335276003927	2	8	2	NaN	2	3	0.671391698905087	0	1	NaN	272	5	20	2	120	220	320	NaN	520	0.138256741687655	2	1	NaN	3897336.7822837	NaN	3897337.7656847	3897338.28223666
112	25	1	0	90	36.1581920903955	36.241610738255	16	0.533364416062832	2	4	6	NaN	1	5	0.671391698905087	0	1	NaN	273	5	21	2	120	220	320	NaN	520	0.199887967668474	2	0	NaN	3897339.232525	NaN	3897340.2159245	3897340.73246393
112	25	1	0	90	36.1581920903955	36.241610738255	8	0.266682208031416	2	6	6	NaN	1	3	0.671391698905087	0	1	NaN	274	5	22	2	120	220	320	NaN	520	0.178627372719347	2	0	NaN	3897341.7494316	NaN	3897342.7328346	3897343.24938823
112	25	1	0	90	36.1581920903955	36.241610738255	23	0.766711348090321	2	9	5	NaN	2	4	0.671391698905087	0	1	NaN	275	5	23	2	120	220	320	NaN	520	0.526232767384499	2	1	NaN	3897344.2496684	NaN	3897345.2330925	3897345.74962923
112	25	1	0	90	36.1581920903955	36.241610738255	21	0.700040796082467	2	1	1	NaN	1	5	0.671391698905087	0	1	NaN	276	5	24	2	120	220	320	NaN	520	0.134114415384829	2	0	NaN	3897347.2499551	NaN	3897348.2333606	3897348.74991788
112	25	1	0	90	36.1581920903955	36.241610738255	11	0.366688036043197	2	6	2	NaN	1	3	0.671391698905087	0	1	NaN	277	5	25	2	120	220	320	NaN	520	0.180169962346554	1	1	NaN	3897349.700215	NaN	3897350.6836262	3897351.20016964
112	25	1	0	90	36.1581920903955	36.241610738255	15	0.500029140058905	2	5	1	NaN	1	4	0.671391698905087	0	1	NaN	278	5	26	2	120	220	320	NaN	520	0.831597467884421	2	0	NaN	3897352.2004737	NaN	3897353.1838602	3897353.70041283
112	25	1	0	90	36.1581920903955	36.241610738255	15	0.500029140058905	2	9	2	NaN	2	5	0.671391698905087	0	1	NaN	279	5	27	2	120	220	320	NaN	520	0.0905651678331196	2	1	NaN	3897355.5173261	NaN	3897356.5008588	3897357.01740323
112	25	1	0	90	36.1581920903955	36.241610738255	18	0.600034968070686	2	7	3	NaN	2	4	0.671391698905087	0	1	NaN	280	5	28	2	120	220	320	NaN	520	0.114193720277399	2	1	NaN	3897357.9176962	NaN	3897358.901078	3897359.41764208
112	25	1	0	90	36.1581920903955	36.241610738255	7	0.233346932027489	2	3	5	NaN	1	3	0.671391698905087	0	1	NaN	281	5	29	2	120	220	320	NaN	520	0.144715620204806	1	1	NaN	3897360.3512709	NaN	3897361.3346985	3897361.85121208
112	25	1	0	90	36.1581920903955	36.241610738255	24	0.800046624094248	2	8	2	NaN	2	5	0.671391698905087	0	1	NaN	282	5	30	2	120	220	320	NaN	520	0.182262167800218	2	1	NaN	3897362.818166	NaN	3897363.8016431	3897364.31812213
112	25	1	0	90	36.1581920903955	36.241610738255	20	0.66670552007854	2	1	3	NaN	1	5	0.671391698905087	0	1	NaN	283	5	31	2	120	220	320	NaN	520	0.0976831675507128	2	0	NaN	3897365.3184245	NaN	3897366.301825	3897366.81836273
112	25	1	0	90	36.1581920903955	36.241610738255	14	0.466693864054978	2	4	2	NaN	1	3	0.671391698905087	0	1	NaN	284	5	32	2	120	220	320	NaN	520	0.0654063727706671	1	1	NaN	3897367.7186465	NaN	3897368.7020558	3897369.21860833
112	25	1	0	90	36.1581920903955	36.241610738255	15	0.500029140058905	2	1	5	NaN	1	4	0.671391698905087	0	1	NaN	285	5	33	2	120	220	320	NaN	520	0.363233436364681	2	0	NaN	3897370.4689021	NaN	3897371.4524048	3897371.96888276
112	25	1	0	90	36.1581920903955	36.241610738255	12	0.400023312047124	2	12	4	NaN	2	3	0.671391698905087	0	1	NaN	286	5	34	2	120	220	320	NaN	520	0.975456815212965	1	0	NaN	3897373.1525158	NaN	3897374.1359214	3897374.65246109
112	25	1	0	90	36.1581920903955	36.241610738255	25	0.833381900098175	2	6	4	NaN	1	3	0.671391698905087	0	1	NaN	287	5	35	2	120	220	320	NaN	520	0.0104094673879445	1	1	NaN	3897376.4361898	NaN	3897377.4195743	3897377.93612613
112	25	1	0	90	36.1581920903955	36.241610738255	16	0.533364416062832	2	8	3	NaN	2	5	0.671391698905087	0	1	NaN	288	5	36	2	120	220	320	NaN	520	1.0553380199708	1	0	NaN	3897378.752967	NaN	3897379.7364604	3897380.25302208
112	25	1	0	90	36.1581920903955	36.241610738255	23	0.766711348090321	2	4	6	NaN	1	4	0.671391698905087	0	1	NaN	289	5	37	2	120	220	320	NaN	520	0.223915689159185	1	1	NaN	3897382.1199554	NaN	3897383.103471	3897383.62001661
112	25	1	0	90	36.1581920903955	36.241610738255	12	0.400023312047124	2	5	5	NaN	1	3	0.671391698905087	0	1	NaN	290	5	38	2	120	220	320	NaN	520	0.266838015057147	1	1	NaN	3897384.65354	NaN	3897385.6370319	3897386.15359718
112	25	1	0	90	36.1581920903955	36.241610738255	8	0.266682208031416	2	10	4	NaN	2	3	0.671391698905087	0	1	NaN	291	5	39	2	120	220	320	NaN	520	0.146823820192367	2	1	NaN	3897387.2372334	NaN	3897388.2206389	3897388.73719238
112	25	1	0	90	36.1581920903955	36.241610738255	12	0.400023312047124	2	1	3	NaN	1	5	0.671391698905087	0	1	NaN	292	5	40	2	120	220	320	NaN	520	0.280269867740571	2	0	NaN	3897389.7041604	NaN	3897390.6875504	3897391.20408803
112	25	1	0	90	36.1581920903955	36.241610738255	9	0.300017484035343	2	9	2	NaN	2	3	0.671391698905087	0	1	NaN	293	5	41	2	120	220	320	NaN	520	1.10365066723898	2	1	NaN	3897392.3044183	NaN	3897393.2877894	3897393.80434653
112	25	1	0	90	36.1581920903955	36.241610738255	22	0.733376072086394	2	5	6	NaN	1	4	0.671391698905087	0	1	NaN	294	5	42	2	120	220	320	NaN	520	0.22317152004689	1	1	NaN	3897395.7214902	NaN	3897396.7047927	3897397.22136038
112	25	1	0	90	36.1581920903955	36.241610738255	16	0.533364416062832	2	9	1	NaN	2	5	0.671391698905087	0	1	NaN	295	5	43	2	120	220	320	NaN	520	0.737151520326734	2	1	NaN	3897398.2548475	NaN	3897399.2383902	3897399.75493758
112	25	1	0	90	36.1581920903955	36.241610738255	6	0.200011656023562	2	7	2	NaN	2	5	0.671391698905087	0	1	NaN	296	5	44	2	120	220	320	NaN	520	0.174868915230036	2	1	NaN	3897401.3052977	NaN	3897402.2886797	3897402.80523618
112	25	1	0	90	36.1581920903955	36.241610738255	14	0.466693864054978	2	12	4	NaN	2	4	0.671391698905087	0	1	NaN	297	5	45	2	120	220	320	NaN	520	1.46719305682927	2	1	NaN	3897403.7888454	NaN	3897404.7722647	3897405.28881214
112	25	1	0	90	36.1581920903955	36.241610738255	7	0.233346932027489	2	8	5	NaN	2	5	0.671391698905087	0	1	NaN	298	5	46	2	120	220	320	NaN	520	0.259919167496264	2	1	NaN	3897407.5726173	NaN	3897408.5559646	3897409.07250953
112	25	1	0	90	36.1581920903955	36.241610738255	19	0.633370244074613	2	10	4	NaN	2	4	0.671391698905087	0	1	NaN	299	5	47	2	120	220	320	NaN	520	0.380573420319706	2	1	NaN	3897410.1393708	NaN	3897411.1228994	3897411.63943798
112	25	1	0	90	36.1581920903955	36.241610738255	7	0.233346932027489	2	11	4	NaN	2	3	0.671391698905087	0	1	NaN	300	5	48	2	120	220	320	NaN	520	0.25674996804446	2	1	NaN	3897412.8397599	NaN	3897413.8231548	3897414.33969973
112	25	1	0	90	36.1581920903955	36.241610738255	0	0	1	12	2	NaN	2	4	0.671391698905087	0	1	NaN	301	5	49	2	110	210	310	NaN	510	0.177452067378908	2	1	NaN	3897415.406591	NaN	3897416.3900942	3897416.90662663
112	25	1	0	90	36.1581920903955	36.241610738255	12	0.400023312047124	2	2	1	NaN	1	4	0.671391698905087	0	1	NaN	302	5	50	2	120	220	320	NaN	520	0.25426702061668	1	1	NaN	3897417.8902469	NaN	3897418.8737224	3897419.39020258
112	25	1	0	90	36.1581920903955	36.241610738255	11	0.366688036043197	2	7	5	NaN	2	3	0.671391698905087	0	1	NaN	303	5	51	2	120	220	320	NaN	520	0.311331725679338	1	0	NaN	3897420.4571624	NaN	3897421.4405924	3897421.95711717
112	25	1	0	90	36.1581920903955	36.241610738255	12	0.400023312047124	2	2	3	NaN	1	4	0.671391698905087	0	1	NaN	304	5	52	2	120	220	320	NaN	520	0.7011673678644	1	1	NaN	3897423.0907704	NaN	3897424.0741548	3897424.59071123
112	25	1	0	90	36.1581920903955	36.241610738255	23	0.766711348090321	2	7	3	NaN	2	4	0.671391698905087	0	1	NaN	305	5	53	2	120	220	320	NaN	520	0.228216767776757	1	0	NaN	3897426.1077231	NaN	3897427.0911241	3897427.60766913
112	25	1	0	90	36.1581920903955	36.241610738255	16	0.533364416062832	2	5	6	NaN	1	5	0.671391698905087	0	1	NaN	306	5	54	2	120	220	320	NaN	520	0.165998667944223	2	0	NaN	3897428.6579711	NaN	3897429.6413631	3897430.15791443
112	25	1	0	90	36.1581920903955	36.241610738255	10	0.33335276003927	2	10	2	NaN	2	5	0.671391698905087	0	1	NaN	307	5	55	2	120	220	320	NaN	520	0.25045876763761	1	0	NaN	3897431.1415603	NaN	3897432.1249644	3897432.64149593
112	25	1	0	90	36.1581920903955	36.241610738255	24	0.800046624094248	2	10	3	NaN	2	5	0.671391698905087	0	1	NaN	308	5	56	2	120	220	320	NaN	520	0.220093767624348	2	1	NaN	3897433.708478	NaN	3897434.6917596	3897435.20842513
112	25	1	0	90	36.1581920903955	36.241610738255	9	0.300017484035343	2	1	3	NaN	1	3	0.671391698905087	0	1	NaN	309	5	57	2	120	220	320	NaN	520	0.246477473061532	2	0	NaN	3897436.2420106	NaN	3897437.2254562	3897437.74200823
112	25	1	0	90	36.1581920903955	36.241610738255	20	0.66670552007854	2	11	5	NaN	2	4	0.671391698905087	0	1	NaN	310	5	58	2	120	220	320	NaN	520	0.199532120022923	2	1	NaN	3897438.8089799	NaN	3897439.792366	3897440.30891858
112	25	1	0	90	36.1581920903955	36.241610738255	11	0.366688036043197	2	12	6	NaN	2	5	0.671391698905087	0	1	NaN	311	5	59	2	120	220	320	NaN	520	0.786295520141721	1	0	NaN	3897441.3258655	NaN	3897442.3093012	3897442.82583098
112	25	1	0	90	36.1581920903955	36.241610738255	12	0.400023312047124	2	3	2	NaN	1	4	0.671391698905087	0	1	NaN	312	5	60	2	120	220	320	NaN	520	0.213925220072269	1	1	NaN	3897444.426196	NaN	3897445.4095844	3897445.92614058
112	25	1	0	90	36.1581920903955	36.241610738255	0	0	1	11	2	NaN	2	3	0.671391698905087	0	1	NaN	313	5	61	2	110	210	310	NaN	510	0.208692667540163	2	1	NaN	3897446.959833	NaN	3897447.9432061	3897448.45971483
112	25	1	0	90	36.1581920903955	36.241610738255	22	0.733376072086394	2	12	5	NaN	2	5	0.671391698905087	0	1	NaN	314	5	62	2	120	220	320	NaN	520	0.275308820419014	1	0	NaN	3897449.4766969	NaN	3897450.4600824	3897450.97663838
112	25	1	0	90	36.1581920903955	36.241610738255	16	0.533364416062832	2	1	6	NaN	1	4	0.671391698905087	0	1	NaN	315	5	63	2	120	220	320	NaN	520	0.0104068676009774	2	0	NaN	3897452.0602668	NaN	3897453.0436733	3897453.56021633
112	25	1	0	90	36.1581920903955	36.241610738255	20	0.66670552007854	2	8	1	NaN	2	5	0.671391698905087	0	1	NaN	316	6	1	2	120	220	320	NaN	520	0.467606620397419	2	1	NaN	3897501.3650929	NaN	3897502.3485166	3897502.86505908
112	25	1	0	90	36.1581920903955	36.241610738255	7	0.233346932027489	2	12	1	NaN	2	5	0.671391698905087	0	1	NaN	317	6	2	2	120	220	320	NaN	520	0.155424862634391	2	1	NaN	3897504.1487271	NaN	3897505.1321213	3897505.64866274
112	25	1	0	90	36.1581920903955	36.241610738255	14	0.466693864054978	2	5	4	NaN	1	4	0.671391698905087	0	1	NaN	318	6	3	2	120	220	320	NaN	520	0.0728550674393773	1	1	NaN	3897506.6156394	NaN	3897507.5990312	3897508.11558233
112	25	1	0	90	36.1581920903955	36.241610738255	15	0.500029140058905	2	1	6	NaN	1	4	0.671391698905087	0	1	NaN	319	6	4	2	120	220	320	NaN	520	0.0970689677633345	2	0	NaN	3897508.9991906	NaN	3897509.9825766	3897510.49914903
112	25	1	0	90	36.1581920903955	36.241610738255	18	0.600034968070686	2	6	2	NaN	1	5	0.671391698905087	0	1	NaN	320	6	5	2	120	220	320	NaN	520	1.13653786759824	1	1	NaN	3897511.4161054	NaN	3897512.3995012	3897512.91604963
112	25	1	0	90	36.1581920903955	36.241610738255	9	0.300017484035343	2	10	3	NaN	2	5	0.671391698905087	0	1	NaN	321	6	6	2	120	220	320	NaN	520	0.175591715145856	2	1	NaN	3897515.0329845	NaN	3897516.0165254	3897516.53307199
112	25	1	0	90	36.1581920903955	36.241610738255	22	0.733376072086394	2	7	3	NaN	2	3	0.671391698905087	0	1	NaN	322	6	7	2	120	220	320	NaN	520	0.611854067537934	2	1	NaN	3897517.5167378	NaN	3897518.5000942	3897519.01665093
112	25	1	0	90	36.1581920903955	36.241610738255	9	0.300017484035343	2	2	1	NaN	1	3	0.671391698905087	0	1	NaN	323	6	8	2	120	220	320	NaN	520	0.278338262345642	1	1	NaN	3897520.4502353	NaN	3897521.4337156	3897521.95027434
112	25	1	0	90	36.1581920903955	36.241610738255	17	0.566699692066759	2	3	1	NaN	1	3	0.671391698905087	0	1	NaN	324	6	9	2	120	220	320	NaN	520	0.190423167310655	1	1	NaN	3897523.0339072	NaN	3897524.0173106	3897524.53385773
112	25	1	0	90	36.1581920903955	36.241610738255	9	0.300017484035343	2	7	4	NaN	2	3	0.671391698905087	0	1	NaN	325	6	10	2	120	220	320	NaN	520	0.618455914780498	2	1	NaN	3897525.5341648	NaN	3897526.5175492	3897527.03409448
112	25	1	0	90	36.1581920903955	36.241610738255	10	0.33335276003927	2	1	4	NaN	1	5	0.671391698905087	0	1	NaN	326	6	11	2	120	220	320	NaN	520	0.245057641994208	2	0	NaN	3897528.6511017	NaN	3897529.6345405	3897530.15108336
112	25	1	0	90	36.1581920903955	36.241610738255	0	0	1	10	5	NaN	2	3	0.671391698905087	0	1	NaN	327	6	12	2	110	210	310	NaN	510	0.190091389231384	2	1	NaN	3897531.2180481	NaN	3897532.2014737	3897532.71802081
112	25	1	0	90	36.1581920903955	36.241610738255	20	0.66670552007854	2	3	3	NaN	1	5	0.671391698905087	0	1	NaN	328	6	13	2	120	220	320	NaN	520	0.201949762646109	1	1	NaN	3897533.7183864	NaN	3897534.7016987	3897535.21825744
112	25	1	0	90	36.1581920903955	36.241610738255	16	0.533364416062832	2	1	2	NaN	1	3	0.671391698905087	0	1	NaN	329	6	14	2	120	220	320	NaN	520	1.60532476752996	1	1	NaN	3897536.235085	NaN	3897537.218593	3897537.73514783
112	25	1	0	90	36.1581920903955	36.241610738255	11	0.366688036043197	2	5	6	NaN	1	3	0.671391698905087	0	1	NaN	330	6	15	2	120	220	320	NaN	520	0.505674867425114	1	1	NaN	3897540.3189292	NaN	3897541.3023434	3897541.81888823
112	25	1	0	90	36.1581920903955	36.241610738255	25	0.833381900098175	2	8	2	NaN	2	3	0.671391698905087	0	1	NaN	331	6	16	2	120	220	320	NaN	520	0.0103961201384664	2	1	NaN	3897543.1525313	NaN	3897544.1359438	3897544.65249628
112	25	1	0	90	36.1581920903955	36.241610738255	8	0.266682208031416	2	5	1	NaN	1	4	0.671391698905087	0	1	NaN	332	6	17	2	120	220	320	NaN	520	0.515023414976895	1	1	NaN	3897545.4692836	NaN	3897546.4528632	3897546.96939398
112	25	1	0	90	36.1581920903955	36.241610738255	15	0.500029140058905	2	12	1	NaN	2	5	0.671391698905087	0	1	NaN	333	6	18	2	120	220	320	NaN	520	0.0980042675510049	2	1	NaN	3897548.286413	NaN	3897549.2698386	3897549.78633733
112	25	1	0	90	36.1581920903955	36.241610738255	9	0.300017484035343	2	6	3	NaN	1	3	0.671391698905087	0	1	NaN	334	6	19	2	120	220	320	NaN	520	0.176991567481309	2	0	NaN	3897550.7033076	NaN	3897551.6866987	3897552.20324123
112	25	1	0	90	36.1581920903955	36.241610738255	8	0.266682208031416	2	10	4	NaN	2	3	0.671391698905087	0	1	NaN	335	6	20	2	120	220	320	NaN	520	0.15732606779784	2	1	NaN	3897553.1868004	NaN	3897554.1702598	3897554.68681313
112	25	1	0	90	36.1581920903955	36.241610738255	0	0	1	6	6	NaN	1	3	0.671391698905087	0	1	NaN	336	6	21	2	110	210	310	NaN	510	0.434563220012933	2	0	NaN	3897555.6537795	NaN	3897556.6371868	3897557.15373318
112	25	1	0	90	36.1581920903955	36.241610738255	14	0.466693864054978	2	12	6	NaN	2	3	0.671391698905087	0	1	NaN	337	6	22	2	120	220	320	NaN	520	0.196253267582506	2	1	NaN	3897558.404047	NaN	3897559.3874451	3897559.90400303
112	25	1	0	90	36.1581920903955	36.241610738255	17	0.566699692066759	2	11	3	NaN	2	4	0.671391698905087	0	1	NaN	338	6	23	2	120	220	320	NaN	520	0.151373067870736	2	1	NaN	3897560.9209756	NaN	3897561.904358	3897562.42090783
112	25	1	0	90	36.1581920903955	36.241610738255	17	0.566699692066759	2	7	1	NaN	2	5	0.671391698905087	0	1	NaN	339	6	24	2	120	220	320	NaN	520	0.172622767742723	1	0	NaN	3897563.3878776	NaN	3897564.37127	3897564.88781873
112	25	1	0	90	36.1581920903955	36.241610738255	16	0.533364416062832	2	6	1	NaN	1	3	0.671391698905087	0	1	NaN	340	6	25	2	120	220	320	NaN	520	0.145190931390971	1	1	NaN	3897565.8714356	NaN	3897566.8548458	3897567.37139817
112	25	1	0	90	36.1581920903955	36.241610738255	11	0.366688036043197	2	4	4	NaN	1	3	0.671391698905087	0	1	NaN	341	6	26	2	120	220	320	NaN	520	0.0104105677455664	1	1	NaN	3897568.3383587	NaN	3897569.3217688	3897569.83830303
112	25	1	0	90	36.1581920903955	36.241610738255	20	0.66670552007854	2	4	4	NaN	1	5	0.671391698905087	0	1	NaN	342	6	27	2	120	220	320	NaN	520	0.176416267640889	2	0	NaN	3897570.6719404	NaN	3897571.6553205	3897572.17186253
112	25	1	0	90	36.1581920903955	36.241610738255	9	0.300017484035343	2	3	6	NaN	1	5	0.671391698905087	0	1	NaN	343	6	28	2	120	220	320	NaN	520	0.397218720056117	1	1	NaN	3897573.1555317	NaN	3897574.1388965	3897574.65545218
112	25	1	0	90	36.1581920903955	36.241610738255	25	0.833381900098175	2	3	3	NaN	1	3	0.671391698905087	0	1	NaN	344	6	29	2	120	220	320	NaN	520	0.232383067719638	1	1	NaN	3897575.8724264	NaN	3897576.8558307	3897577.37238093
112	25	1	0	90	36.1581920903955	36.241610738255	22	0.733376072086394	2	10	4	NaN	2	3	0.671391698905087	0	1	NaN	345	6	30	2	120	220	320	NaN	520	0.24275162583217	2	1	NaN	3897578.4058858	NaN	3897579.3894085	3897579.90596097
112	25	1	0	90	36.1581920903955	36.241610738255	20	0.66670552007854	2	3	3	NaN	1	5	0.671391698905087	0	1	NaN	346	6	31	2	120	220	320	NaN	520	0.132145220413804	1	1	NaN	3897580.9562583	NaN	3897581.9396656	3897582.45621928
112	25	1	0	90	36.1581920903955	36.241610738255	9	0.300017484035343	2	8	1	NaN	2	3	0.671391698905087	0	1	NaN	347	6	32	2	120	220	320	NaN	520	0.122271520551294	1	0	NaN	3897583.4064937	NaN	3897584.3899054	3897584.90645868
112	25	1	0	90	36.1581920903955	36.241610738255	18	0.600034968070686	2	1	5	NaN	1	3	0.671391698905087	0	1	NaN	348	6	33	2	120	220	320	NaN	520	0.208153714891523	2	0	NaN	3897585.8400307	NaN	3897586.8234606	3897587.34004008
112	25	1	0	90	36.1581920903955	36.241610738255	17	0.566699692066759	2	7	5	NaN	2	4	0.671391698905087	0	1	NaN	349	6	34	2	120	220	320	NaN	520	0.163482067640871	2	1	NaN	3897588.3569883	NaN	3897589.3404334	3897589.85693653
112	25	1	0	90	36.1581920903955	36.241610738255	7	0.233346932027489	2	7	4	NaN	2	3	0.671391698905087	0	1	NaN	350	6	35	2	120	220	320	NaN	520	0.175740067381412	2	1	NaN	3897590.8405846	NaN	3897591.8239459	3897592.34050993
112	25	1	0	90	36.1581920903955	36.241610738255	0	0	1	11	1	NaN	2	5	0.671391698905087	0	1	NaN	351	6	36	2	110	210	310	NaN	510	0.331768867559731	1	0	NaN	3897593.3408206	NaN	3897594.324208	3897594.84075573
112	25	1	0	90	36.1581920903955	36.241610738255	15	0.500029140058905	2	6	3	NaN	1	4	0.671391698905087	0	1	NaN	352	6	37	2	120	220	320	NaN	520	0.489128967747092	2	0	NaN	3897595.9910799	NaN	3897596.9744732	3897597.49101573
112	25	1	0	90	36.1581920903955	36.241610738255	11	0.366688036043197	2	10	2	NaN	2	3	0.671391698905087	0	1	NaN	353	6	38	2	120	220	320	NaN	520	0.184917920269072	2	1	NaN	3897598.7913546	NaN	3897599.7747539	3897600.29129958
112	25	1	0	90	36.1581920903955	36.241610738255	21	0.700040796082467	2	12	4	NaN	2	5	0.671391698905087	0	1	NaN	354	6	39	2	120	220	320	NaN	520	0.212691767606884	2	1	NaN	3897601.2915872	NaN	3897602.2750014	3897602.79154373
112	25	1	0	90	36.1581920903955	36.241610738255	11	0.366688036043197	2	11	2	NaN	2	3	0.671391698905087	0	1	NaN	355	6	40	2	120	220	320	NaN	520	0.223213067743927	2	1	NaN	3897603.825176	NaN	3897604.8085574	3897605.32512453
112	25	1	0	90	36.1581920903955	36.241610738255	12	0.400023312047124	2	5	2	NaN	1	4	0.671391698905087	0	1	NaN	356	6	41	2	120	220	320	NaN	520	0.169651567470282	2	0	NaN	3897606.3587809	NaN	3897607.3421815	3897607.85870813
112	25	1	0	90	36.1581920903955	36.241610738255	13	0.433358588051051	2	2	3	NaN	1	4	0.671391698905087	0	1	NaN	357	6	42	2	120	220	320	NaN	520	0.0220582676120102	2	0	NaN	3897608.8423356	NaN	3897609.8257364	3897610.34229103
112	25	1	0	90	36.1581920903955	36.241610738255	18	0.600034968070686	2	4	5	NaN	1	5	0.671391698905087	0	1	NaN	358	6	43	2	120	220	320	NaN	520	0.184777367860079	1	1	NaN	3897611.1759535	NaN	3897612.1592995	3897612.67584193
112	25	1	0	90	36.1581920903955	36.241610738255	8	0.266682208031416	2	11	1	NaN	2	3	0.671391698905087	0	1	NaN	359	6	44	2	120	220	320	NaN	520	0.892199725378305	2	1	NaN	3897613.6760134	NaN	3897614.6595281	3897615.17608907
112	25	1	0	90	36.1581920903955	36.241610738255	14	0.466693864054978	2	2	4	NaN	1	4	0.671391698905087	0	1	NaN	360	6	45	2	120	220	320	NaN	520	1.90656352043152	2	0	NaN	3897617.3098126	NaN	3897618.2932174	3897618.80979018
112	25	1	0	90	36.1581920903955	36.241610738255	13	0.433358588051051	2	2	3	NaN	1	3	0.671391698905087	0	1	NaN	361	6	46	2	120	220	320	NaN	520	0.17793746246025	1	1	NaN	3897621.5270071	NaN	3897622.5103381	3897623.02686944
112	25	1	0	90	36.1581920903955	36.241610738255	20	0.66670552007854	2	2	4	NaN	1	3	0.671391698905087	0	1	NaN	362	6	47	2	120	220	320	NaN	520	0.565708567854017	2	0	NaN	3897624.0271495	NaN	3897625.0105645	3897625.52710603
112	25	1	0	90	36.1581920903955	36.241610738255	20	0.66670552007854	2	10	6	NaN	2	3	0.671391698905087	0	1	NaN	363	6	48	2	120	220	320	NaN	520	0.242061767727137	2	1	NaN	3897626.910797	NaN	3897627.8941745	3897628.41073233
112	25	1	0	90	36.1581920903955	36.241610738255	22	0.733376072086394	2	4	6	NaN	1	5	0.671391698905087	0	1	NaN	364	6	49	2	120	220	320	NaN	520	0.187529067508876	1	1	NaN	3897629.4610594	NaN	3897630.444433	3897630.96097223
112	25	1	0	90	36.1581920903955	36.241610738255	7	0.233346932027489	2	5	4	NaN	1	4	0.671391698905087	0	1	NaN	365	6	50	2	120	220	320	NaN	520	0.383609915152192	1	1	NaN	3897631.9611576	NaN	3897632.9446997	3897633.46121508
112	25	1	0	90	36.1581920903955	36.241610738255	21	0.700040796082467	2	7	5	NaN	2	3	0.671391698905087	0	1	NaN	366	6	51	2	120	220	320	NaN	520	0.276628420222551	2	1	NaN	3897634.8281949	NaN	3897635.8116237	3897636.32817498
112	25	1	0	90	36.1581920903955	36.241610738255	15	0.500029140058905	2	2	5	NaN	1	3	0.671391698905087	0	1	NaN	367	6	52	2	120	220	320	NaN	520	0.212933814618737	1	1	NaN	3897637.4118482	NaN	3897638.3952054	3897638.91175169
112	25	1	0	90	36.1581920903955	36.241610738255	8	0.266682208031416	2	1	1	NaN	1	3	0.671391698905087	0	1	NaN	368	6	53	2	120	220	320	NaN	520	0.215454767458141	2	0	NaN	3897639.9454046	NaN	3897640.9287917	3897641.44533773
112	25	1	0	90	36.1581920903955	36.241610738255	19	0.633370244074613	2	4	2	NaN	1	3	0.671391698905087	0	1	NaN	369	6	54	2	120	220	320	NaN	520	0.265525367576629	1	1	NaN	3897642.4789669	NaN	3897643.4623705	3897643.97892763
112	25	1	0	90	36.1581920903955	36.241610738255	21	0.700040796082467	2	8	5	NaN	2	5	0.671391698905087	0	1	NaN	370	6	55	2	120	220	320	NaN	520	0.265936667565256	1	0	NaN	3897645.0624307	NaN	3897646.0459665	3897646.56250993
112	25	1	0	90	36.1581920903955	36.241610738255	11	0.366688036043197	2	8	1	NaN	2	4	0.671391698905087	0	1	NaN	371	6	56	2	120	220	320	NaN	520	0.162197967525572	2	1	NaN	3897647.6461386	NaN	3897648.6295431	3897649.14609383
112	25	1	0	90	36.1581920903955	36.241610738255	18	0.600034968070686	2	11	1	NaN	2	5	0.671391698905087	0	1	NaN	372	6	57	2	120	220	320	NaN	520	0.239040220156312	2	1	NaN	3897650.1297122	NaN	3897651.1131375	3897651.62967628
112	25	1	0	90	36.1581920903955	36.241610738255	25	0.833381900098175	2	7	1	NaN	2	3	0.671391698905087	0	1	NaN	373	6	58	2	120	220	320	NaN	520	0.232526120264083	2	1	NaN	3897652.679971	NaN	3897653.6633745	3897654.17992278
112	25	1	0	90	36.1581920903955	36.241610738255	9	0.300017484035343	2	2	6	NaN	1	4	0.671391698905087	0	1	NaN	374	6	59	2	120	220	320	NaN	520	0.314104462508112	2	0	NaN	3897655.2302127	NaN	3897656.2136355	3897656.73017244
112	25	1	0	90	36.1581920903955	36.241610738255	0	0	1	9	2	NaN	2	4	0.671391698905087	0	1	NaN	375	6	60	2	110	210	310	NaN	510	0.217091367579997	2	1	NaN	3897657.8638231	NaN	3897658.8471925	3897659.36376523
112	25	1	0	90	36.1581920903955	36.241610738255	15	0.500029140058905	2	12	4	NaN	2	5	0.671391698905087	0	1	NaN	376	6	61	2	120	220	320	NaN	520	0.2914725150913	2	1	NaN	3897660.39739	NaN	3897661.3808444	3897661.89734139
112	25	1	0	90	36.1581920903955	36.241610738255	15	0.500029140058905	2	10	3	NaN	2	3	0.671391698905087	0	1	NaN	377	6	62	2	120	220	320	NaN	520	0.266721920110285	1	0	NaN	3897662.9976573	NaN	3897663.9810771	3897664.49761118
112	25	1	0	90	36.1581920903955	36.241610738255	8	0.266682208031416	2	12	6	NaN	2	4	0.671391698905087	0	1	NaN	378	6	63	2	120	220	320	NaN	520	0.19553672010079	1	0	NaN	3897665.5812407	NaN	3897666.5646381	3897667.08119748
112	25	1	0	90	36.1581920903955	36.241610738255	6	0.200011656023562	2	7	5	NaN	2	3	0.671391698905087	0	1	NaN	379	7	1	2	120	220	320	NaN	520	0.464175620116293	2	1	NaN	3897676.0322668	NaN	3897677.0156774	3897677.53221778
112	25	1	0	90	36.1581920903955	36.241610738255	12	0.400023312047124	2	4	4	NaN	1	3	0.671391698905087	0	1	NaN	380	7	2	2	120	220	320	NaN	520	0.209276473149657	1	1	NaN	3897678.7992133	NaN	3897679.7825972	3897680.29916083
112	25	1	0	90	36.1581920903955	36.241610738255	13	0.433358588051051	2	10	6	NaN	2	4	0.671391698905087	0	1	NaN	381	7	3	2	120	220	320	NaN	520	0.188309814780951	2	1	NaN	3897681.3161214	NaN	3897682.2995557	3897682.81606349
112	25	1	0	90	36.1581920903955	36.241610738255	19	0.633370244074613	2	3	4	NaN	1	3	0.671391698905087	0	1	NaN	382	7	4	2	120	220	320	NaN	520	0.168506767600775	1	1	NaN	3897683.8162437	NaN	3897684.7997524	3897685.31632033
112	25	1	0	90	36.1581920903955	36.241610738255	11	0.366688036043197	2	8	1	NaN	2	4	0.671391698905087	0	1	NaN	383	7	5	2	120	220	320	NaN	520	0.189071430824697	2	1	NaN	3897686.299931	NaN	3897687.2832372	3897687.79989697
112	25	1	0	90	36.1581920903955	36.241610738255	14	0.466693864054978	2	6	1	NaN	1	5	0.671391698905087	0	1	NaN	384	7	6	2	120	220	320	NaN	520	0.248722915071994	1	1	NaN	3897688.800194	NaN	3897689.7835771	3897690.30013108
112	25	1	0	90	36.1581920903955	36.241610738255	13	0.433358588051051	2	7	2	NaN	2	3	0.671391698905087	0	1	NaN	385	7	7	2	120	220	320	NaN	520	0.265469167847186	2	1	NaN	3897691.3670977	NaN	3897692.3505166	3897692.86705923
112	25	1	0	90	36.1581920903955	36.241610738255	19	0.633370244074613	2	6	5	NaN	1	3	0.671391698905087	0	1	NaN	386	7	8	2	120	220	320	NaN	520	0.258434873074293	1	1	NaN	3897693.9340213	NaN	3897694.9174234	3897695.43397033
112	25	1	0	90	36.1581920903955	36.241610738255	11	0.366688036043197	2	9	2	NaN	2	3	0.671391698905087	0	1	NaN	387	7	9	2	120	220	320	NaN	520	0.139577220194042	2	1	NaN	3897696.5009342	NaN	3897697.4843523	3897698.00090148
112	25	1	0	90	36.1581920903955	36.241610738255	15	0.500029140058905	2	5	2	NaN	1	3	0.671391698905087	0	1	NaN	388	7	10	2	120	220	320	NaN	520	0.241194409318268	1	1	NaN	3897698.9512653	NaN	3897699.9345842	3897700.45112839
112	25	1	0	90	36.1581920903955	36.241610738255	0	0	1	1	4	NaN	1	5	0.671391698905087	0	1	NaN	389	7	11	2	110	210	310	NaN	510	0.291077267378569	2	0	NaN	3897701.501443	NaN	3897702.4848478	3897703.00138893
112	25	1	0	90	36.1581920903955	36.241610738255	7	0.233346932027489	2	6	5	NaN	1	5	0.671391698905087	0	1	NaN	390	7	12	2	120	220	320	NaN	520	0.22720541479066	2	0	NaN	3897704.1015785	NaN	3897705.0850895	3897705.60163479
112	25	1	0	90	36.1581920903955	36.241610738255	10	0.33335276003927	2	12	6	NaN	2	5	0.671391698905087	0	1	NaN	391	7	13	2	120	220	320	NaN	520	0.213284067809582	2	1	NaN	3897706.6352716	NaN	3897707.6186849	3897708.13521893
112	25	1	0	90	36.1581920903955	36.241610738255	12	0.400023312047124	2	9	2	NaN	2	3	0.671391698905087	0	1	NaN	392	7	14	2	120	220	320	NaN	520	0.207605020143092	2	1	NaN	3897709.1687491	NaN	3897710.1522404	3897710.66880318
112	25	1	0	90	36.1581920903955	36.241610738255	16	0.533364416062832	2	4	6	NaN	1	5	0.671391698905087	0	1	NaN	393	7	15	2	120	220	320	NaN	520	0.275147120002657	1	1	NaN	3897711.6857783	NaN	3897712.6691971	3897713.18571798
112	25	1	0	90	36.1581920903955	36.241610738255	20	0.66670552007854	2	9	1	NaN	2	5	0.671391698905087	0	1	NaN	394	7	16	2	120	220	320	NaN	520	0.267118568066508	2	1	NaN	3897714.2693675	NaN	3897715.2527583	3897715.76931053
112	25	1	0	90	36.1581920903955	36.241610738255	23	0.766711348090321	2	7	5	NaN	2	3	0.671391698905087	0	1	NaN	395	7	17	2	120	220	320	NaN	520	0.259646667633206	2	1	NaN	3897716.8529633	NaN	3897717.8363492	3897718.35288693
112	25	1	0	90	36.1581920903955	36.241610738255	7	0.233346932027489	2	9	5	NaN	2	3	0.671391698905087	0	1	NaN	396	7	18	2	120	220	320	NaN	520	0.236511108931154	2	1	NaN	3897719.4197507	NaN	3897720.403296	3897720.91980629
112	25	1	0	90	36.1581920903955	36.241610738255	13	0.433358588051051	2	4	3	NaN	1	5	0.671391698905087	0	1	NaN	397	7	19	2	120	220	320	NaN	520	0.294811120256782	1	1	NaN	3897721.9700009	NaN	3897722.9535534	3897723.47006098
112	25	1	0	90	36.1581920903955	36.241610738255	24	0.800046624094248	2	2	5	NaN	1	5	0.671391698905087	0	1	NaN	398	7	20	2	120	220	320	NaN	520	0.261835468001664	1	1	NaN	3897724.5869108	NaN	3897725.5704361	3897726.08698593
112	25	1	0	90	36.1581920903955	36.241610738255	8	0.266682208031416	2	4	3	NaN	1	4	0.671391698905087	0	1	NaN	399	7	21	2	120	220	320	NaN	520	0.286915220320225	1	1	NaN	3897727.1539629	NaN	3897728.1373617	3897728.65390908
112	25	1	0	90	36.1581920903955	36.241610738255	8	0.266682208031416	2	9	6	NaN	2	5	0.671391698905087	0	1	NaN	400	7	22	2	120	220	320	NaN	520	2.26264762040228	2	1	NaN	3897729.7542184	NaN	3897730.7375983	3897731.25415958
112	25	1	0	90	36.1581920903955	36.241610738255	13	0.433358588051051	2	12	5	NaN	2	3	0.671391698905087	0	1	NaN	401	7	23	2	120	220	320	NaN	520	0.351180331315845	1	0	NaN	3897734.7212379	NaN	3897735.7047704	3897736.22132347
112	25	1	0	90	36.1581920903955	36.241610738255	7	0.233346932027489	2	6	3	NaN	1	3	0.671391698905087	0	1	NaN	402	7	24	2	120	220	320	NaN	520	1.04427622025833	1	1	NaN	3897737.3883145	NaN	3897738.3716719	3897738.88824618
112	25	1	0	90	36.1581920903955	36.241610738255	10	0.33335276003927	2	7	3	NaN	2	3	0.671391698905087	0	1	NaN	403	7	25	2	120	220	320	NaN	520	0.222261267714202	2	1	NaN	3897740.7386083	NaN	3897741.7220835	3897742.23856543
112	25	1	0	90	36.1581920903955	36.241610738255	17	0.566699692066759	2	11	5	NaN	2	3	0.671391698905087	0	1	NaN	404	7	26	2	120	220	320	NaN	520	0.920399809256196	2	1	NaN	3897743.2721986	NaN	3897744.2555817	3897744.77214989
112	25	1	0	90	36.1581920903955	36.241610738255	15	0.500029140058905	2	3	6	NaN	1	4	0.671391698905087	0	1	NaN	405	7	27	2	120	220	320	NaN	520	0.294561167713255	1	1	NaN	3897746.5058588	NaN	3897747.4892643	3897748.00580113
112	25	1	0	90	36.1581920903955	36.241610738255	6	0.200011656023562	2	6	6	NaN	1	4	0.671391698905087	0	1	NaN	406	7	28	2	120	220	320	NaN	520	0.238383967429399	1	1	NaN	3897749.1061297	NaN	3897750.0895184	3897750.60606863
112	25	1	0	90	36.1581920903955	36.241610738255	24	0.800046624094248	2	4	2	NaN	1	4	0.671391698905087	0	1	NaN	407	7	29	2	120	220	320	NaN	520	0.112231567967683	1	1	NaN	3897751.6563752	NaN	3897752.6397695	3897753.15631763
112	25	1	0	90	36.1581920903955	36.241610738255	24	0.800046624094248	2	11	6	NaN	2	3	0.671391698905087	0	1	NaN	408	7	30	2	120	220	320	NaN	520	0.271266920026392	2	1	NaN	3897754.0732742	NaN	3897755.0566591	3897755.57321548
112	25	1	0	90	36.1581920903955	36.241610738255	21	0.700040796082467	2	9	4	NaN	2	5	0.671391698905087	0	1	NaN	409	7	31	2	120	220	320	NaN	520	0.279905967414379	2	1	NaN	3897756.6567279	NaN	3897757.6402492	3897758.15679843
112	25	1	0	90	36.1581920903955	36.241610738255	0	0	1	1	6	NaN	1	5	0.671391698905087	0	1	NaN	410	7	32	2	110	210	310	NaN	510	0.143509867601097	2	0	NaN	3897759.2571184	NaN	3897760.2404939	3897760.75705963
112	25	1	0	90	36.1581920903955	36.241610738255	19	0.633370244074613	2	11	5	NaN	2	3	0.671391698905087	0	1	NaN	411	7	33	2	120	220	320	NaN	520	0.229248067364097	2	1	NaN	3897761.7073564	NaN	3897762.6907553	3897763.20730713
112	25	1	0	90	36.1581920903955	36.241610738255	17	0.566699692066759	2	5	1	NaN	1	4	0.671391698905087	0	1	NaN	412	7	34	2	120	220	320	NaN	520	0.327099767979234	2	0	NaN	3897764.2576085	NaN	3897765.2410023	3897765.75755193
112	25	1	0	90	36.1581920903955	36.241610738255	25	0.833381900098175	2	6	3	NaN	1	3	0.671391698905087	0	1	NaN	413	7	35	2	120	220	320	NaN	520	0.2777667674236	1	1	NaN	3897766.8911894	NaN	3897767.8745888	3897768.39113633
112	25	1	0	90	36.1581920903955	36.241610738255	19	0.633370244074613	2	8	3	NaN	2	4	0.671391698905087	0	1	NaN	414	7	36	2	120	220	320	NaN	520	0.52624796750024	1	0	NaN	3897769.4747946	NaN	3897770.4581734	3897770.97472123
112	25	1	0	90	36.1581920903955	36.241610738255	11	0.366688036043197	2	3	1	NaN	1	3	0.671391698905087	0	1	NaN	415	7	37	2	120	220	320	NaN	520	1.04354056250304	2	0	NaN	3897772.3250756	NaN	3897773.3084825	3897773.82500284
112	25	1	0	90	36.1581920903955	36.241610738255	7	0.233346932027489	2	9	5	NaN	2	3	0.671391698905087	0	1	NaN	416	7	38	2	120	220	320	NaN	520	0.213790320325643	2	1	NaN	3897775.8586707	NaN	3897776.8421484	3897777.35868858
112	25	1	0	90	36.1581920903955	36.241610738255	9	0.300017484035343	2	12	6	NaN	2	3	0.671391698905087	0	1	NaN	417	7	39	2	120	220	320	NaN	520	0.696213367860764	2	1	NaN	3897778.3923284	NaN	3897779.3757192	3897779.89226673
112	25	1	0	90	36.1581920903955	36.241610738255	11	0.366688036043197	2	2	6	NaN	1	4	0.671391698905087	0	1	NaN	418	7	40	2	120	220	320	NaN	520	0.247761320322752	1	1	NaN	3897781.4092941	NaN	3897782.3926772	3897782.90923298
112	25	1	0	90	36.1581920903955	36.241610738255	18	0.600034968070686	2	12	3	NaN	2	5	0.671391698905087	0	1	NaN	419	7	41	2	120	220	320	NaN	520	0.392858467530459	1	0	NaN	3897783.9762297	NaN	3897784.9596131	3897785.47614903
112	25	1	0	90	36.1581920903955	36.241610738255	24	0.800046624094248	2	1	2	NaN	1	4	0.671391698905087	0	1	NaN	420	7	42	2	120	220	320	NaN	520	0.276002867612988	1	1	NaN	3897786.6764827	NaN	3897787.6598675	3897788.17642393
112	25	1	0	90	36.1581920903955	36.241610738255	18	0.600034968070686	2	5	5	NaN	1	3	0.671391698905087	0	1	NaN	421	7	43	2	120	220	320	NaN	520	1.44442842015997	1	1	NaN	3897789.2599427	NaN	3897790.2434638	3897790.76000438
112	25	1	0	90	36.1581920903955	36.241610738255	9	0.300017484035343	2	3	4	NaN	1	3	0.671391698905087	0	1	NaN	422	7	44	2	120	220	320	NaN	520	0.118200467899442	1	1	NaN	3897793.0103264	NaN	3897793.9938253	3897794.51036983
112	25	1	0	90	36.1581920903955	36.241610738255	23	0.766711348090321	2	9	4	NaN	2	3	0.671391698905087	0	1	NaN	423	7	45	2	120	220	320	NaN	520	0.229034867603332	1	0	NaN	3897795.4439927	NaN	3897796.4274064	3897796.94394683
112	25	1	0	90	36.1581920903955	36.241610738255	24	0.800046624094248	2	7	2	NaN	2	5	0.671391698905087	0	1	NaN	424	7	46	2	120	220	320	NaN	520	0.222241867799312	2	1	NaN	3897797.9942585	NaN	3897798.9776467	3897799.49419263
112	25	1	0	90	36.1581920903955	36.241610738255	23	0.766711348090321	2	4	1	NaN	1	3	0.671391698905087	0	1	NaN	425	7	47	2	120	220	320	NaN	520	0.368799267802387	2	0	NaN	3897800.5277201	NaN	3897801.5112251	3897802.02777563
112	25	1	0	90	36.1581920903955	36.241610738255	14	0.466693864054978	2	11	3	NaN	2	5	0.671391698905087	0	1	NaN	426	7	48	2	120	220	320	NaN	520	0.229598420206457	2	1	NaN	3897803.2114105	NaN	3897804.1948262	3897804.71138318
112	25	1	0	90	36.1581920903955	36.241610738255	11	0.366688036043197	2	5	2	NaN	1	4	0.671391698905087	0	1	NaN	427	7	49	2	120	220	320	NaN	520	0.903099667746574	2	0	NaN	3897805.7616843	NaN	3897806.7450862	3897807.26162583
112	25	1	0	90	36.1581920903955	36.241610738255	13	0.433358588051051	2	6	3	NaN	1	3	0.671391698905087	0	1	NaN	428	7	50	2	120	220	320	NaN	520	0.358357415068895	1	1	NaN	3897808.9785828	NaN	3897809.96205	3897810.47860069
112	25	1	0	90	36.1581920903955	36.241610738255	22	0.733376072086394	2	9	4	NaN	2	5	0.671391698905087	0	1	NaN	429	7	51	2	120	220	320	NaN	520	0.387022320181131	2	1	NaN	3897811.6455537	NaN	3897812.628988	3897813.14554098
112	25	1	0	90	36.1581920903955	36.241610738255	24	0.800046624094248	2	11	4	NaN	2	5	0.671391698905087	0	1	NaN	430	7	52	2	120	220	320	NaN	520	0.310796472709626	2	1	NaN	3897814.3458609	NaN	3897815.329275	3897815.84580963
112	25	1	0	90	36.1581920903955	36.241610738255	9	0.300017484035343	2	4	3	NaN	1	3	0.671391698905087	0	1	NaN	431	7	53	2	120	220	320	NaN	520	0.733990167733282	2	0	NaN	3897816.9627579	NaN	3897817.9461741	3897818.46273063
112	25	1	0	90	36.1581920903955	36.241610738255	25	0.833381900098175	2	10	6	NaN	2	5	0.671391698905087	0	1	NaN	432	7	54	2	120	220	320	NaN	520	0.275651220232248	2	1	NaN	3897820.0130724	NaN	3897820.9965078	3897821.51303298
112	25	1	0	90	36.1581920903955	36.241610738255	16	0.533364416062832	2	9	6	NaN	2	4	0.671391698905087	0	1	NaN	433	7	55	2	120	220	320	NaN	520	0.644109920598567	2	1	NaN	3897822.5966644	NaN	3897823.5800608	3897824.09661208
112	25	1	0	90	36.1581920903955	36.241610738255	16	0.533364416062832	2	7	5	NaN	2	4	0.671391698905087	0	1	NaN	434	7	56	2	120	220	320	NaN	520	0.661061320453882	2	1	NaN	3897825.5636346	NaN	3897826.5470543	3897827.06357058
112	25	1	0	90	36.1581920903955	36.241610738255	18	0.600034968070686	2	8	2	NaN	2	5	0.671391698905087	0	1	NaN	435	7	57	2	120	220	320	NaN	520	0.197886567562819	2	1	NaN	3897828.5472626	NaN	3897829.5306445	3897830.04719953
112	25	1	0	90	36.1581920903955	36.241610738255	15	0.500029140058905	2	8	4	NaN	2	5	0.671391698905087	0	1	NaN	436	7	58	2	120	220	320	NaN	520	0.216657120268792	2	1	NaN	3897831.0641624	NaN	3897832.0475605	3897832.56411098
112	25	1	0	90	36.1581920903955	36.241610738255	14	0.466693864054978	2	7	2	NaN	2	5	0.671391698905087	0	1	NaN	437	7	59	2	120	220	320	NaN	520	0.0749503676779568	2	1	NaN	3897833.5976168	NaN	3897834.5811472	3897835.09769383
112	25	1	0	90	36.1581920903955	36.241610738255	10	0.33335276003927	2	7	1	NaN	2	3	0.671391698905087	0	1	NaN	438	7	60	2	120	220	320	NaN	520	0.1633908203803	2	1	NaN	3897835.9811963	NaN	3897836.9647472	3897837.48126118
112	25	1	0	90	36.1581920903955	36.241610738255	17	0.566699692066759	2	1	1	NaN	1	5	0.671391698905087	0	1	NaN	439	7	61	2	120	220	320	NaN	520	0.839938819874078	2	0	NaN	3897838.4648878	NaN	3897839.4482947	3897839.96484388
112	25	1	0	90	36.1581920903955	36.241610738255	19	0.633370244074613	2	12	4	NaN	2	5	0.671391698905087	0	1	NaN	440	7	62	2	120	220	320	NaN	520	0.577832467854023	2	1	NaN	3897841.6151957	NaN	3897842.5985981	3897843.11514293
112	25	1	0	90	36.1581920903955	36.241610738255	20	0.66670552007854	2	1	2	NaN	1	3	0.671391698905087	0	1	NaN	441	7	63	2	120	220	320	NaN	520	0.493077167775482	1	1	NaN	3897844.5154964	NaN	3897845.4988866	3897846.01543613
112	25	1	0	90	36.1581920903955	36.241610738255	0	0	1	6	5	NaN	1	5	0.671391698905087	0	1	NaN	442	8	1	2	110	210	310	NaN	510	0.373231120407581	2	0	NaN	3897920.7396251	NaN	3897921.7231574	3897922.23958238
112	25	1	0	90	36.1581920903955	36.241610738255	13	0.433358588051051	2	6	3	NaN	1	4	0.671391698905087	0	1	NaN	443	8	2	2	120	220	320	NaN	520	0.226138514932245	1	1	NaN	3897923.4232323	NaN	3897924.4066262	3897924.92317398
112	25	1	0	90	36.1581920903955	36.241610738255	24	0.800046624094248	2	9	3	NaN	2	4	0.671391698905087	0	1	NaN	444	8	3	2	120	220	320	NaN	520	1.79547226754948	1	0	NaN	3897925.9734893	NaN	3897926.9567606	3897927.47344203
112	25	1	0	90	36.1581920903955	36.241610738255	11	0.366688036043197	2	6	1	NaN	1	4	0.671391698905087	0	1	NaN	445	8	4	2	120	220	320	NaN	520	0.118954067584127	1	1	NaN	3897930.0738695	NaN	3897931.0572784	3897931.57382643
112	25	1	0	90	36.1581920903955	36.241610738255	0	0	1	8	4	NaN	2	5	0.671391698905087	0	1	NaN	446	8	5	2	110	210	310	NaN	510	1.05383606767282	1	0	NaN	3897932.5074519	NaN	3897933.4908594	3897934.00740473
112	25	1	0	90	36.1581920903955	36.241610738255	0	0	1	10	1	NaN	2	3	0.671391698905087	0	1	NaN	447	8	6	2	110	210	310	NaN	510	0.190772967878729	2	1	NaN	3897935.8744673	NaN	3897936.8578381	3897937.37440643
112	25	1	0	90	36.1581920903955	36.241610738255	6	0.200011656023562	2	9	1	NaN	2	5	0.671391698905087	0	1	NaN	448	8	7	2	120	220	320	NaN	520	0.162011620122939	2	1	NaN	3897938.3745935	NaN	3897939.3581595	3897939.87464818
112	25	1	0	90	36.1581920903955	36.241610738255	6	0.200011656023562	2	10	3	NaN	2	5	0.671391698905087	0	1	NaN	449	8	8	2	120	220	320	NaN	520	0.223078620154411	1	0	NaN	3897940.8414927	NaN	3897941.8249846	3897942.34156028
112	25	1	0	90	36.1581920903955	36.241610738255	19	0.633370244074613	2	4	1	NaN	1	5	0.671391698905087	0	1	NaN	450	8	9	2	120	220	320	NaN	520	0.16949376789853	1	1	NaN	3897943.3751806	NaN	3897944.3585742	3897944.87513483
112	25	1	0	90	36.1581920903955	36.241610738255	22	0.733376072086394	2	6	1	NaN	1	5	0.671391698905087	0	1	NaN	451	8	10	2	120	220	320	NaN	520	0.190242767333984	1	1	NaN	3897945.8587805	NaN	3897946.8421588	3897947.35872283
112	25	1	0	90	36.1581920903955	36.241610738255	6	0.200011656023562	2	9	2	NaN	2	5	0.671391698905087	0	1	NaN	452	8	11	2	120	220	320	NaN	520	0.241795820184052	2	1	NaN	3897948.3590064	NaN	3897949.3424523	3897949.85898178
112	25	1	0	90	36.1581920903955	36.241610738255	23	0.766711348090321	2	12	3	NaN	2	5	0.671391698905087	0	1	NaN	453	8	12	2	120	220	320	NaN	520	0.867504120338708	2	1	NaN	3897950.9091358	NaN	3897951.8926918	3897952.40922148
112	25	1	0	90	36.1581920903955	36.241610738255	21	0.700040796082467	2	10	6	NaN	2	5	0.671391698905087	0	1	NaN	454	8	13	2	120	220	320	NaN	520	0.155945767648518	2	1	NaN	3897954.0929222	NaN	3897955.0763225	3897955.59285353
112	25	1	0	90	36.1581920903955	36.241610738255	17	0.566699692066759	2	3	6	NaN	1	5	0.671391698905087	0	1	NaN	455	8	14	2	120	220	320	NaN	520	0.241226867306978	2	0	NaN	3897956.5599125	NaN	3897957.5432391	3897958.05977613
112	25	1	0	90	36.1581920903955	36.241610738255	10	0.33335276003927	2	4	4	NaN	1	4	0.671391698905087	0	1	NaN	456	8	15	2	120	220	320	NaN	520	0.322880920488387	1	1	NaN	3897959.1100769	NaN	3897960.0934769	3897960.61002278
112	25	1	0	90	36.1581920903955	36.241610738255	19	0.633370244074613	2	12	2	NaN	2	4	0.671391698905087	0	1	NaN	457	8	16	2	120	220	320	NaN	520	0.193189167417586	2	1	NaN	3897961.7435876	NaN	3897962.7269657	3897963.24361843
112	25	1	0	90	36.1581920903955	36.241610738255	15	0.500029140058905	2	11	4	NaN	2	4	0.671391698905087	0	1	NaN	458	8	17	2	120	220	320	NaN	520	0.255456067621708	2	1	NaN	3897964.5938139	NaN	3897965.5773497	3897966.09389053
