subjno	age	gender	isPractice	viewdist	CmToPixX	CmToPixY	SOA_frm	SOA_time	targNum	targID	targExample	targRace	targGender	firstTargPos	contrast	familiarity	curr_staircase	iStair	TrialNum	BlockNum	blktrl	sessionNum	TC_FIXATION	TC_RSVP_START	TC_RSVP_END	TC_BLANK	TC_RESPONSE_ONSET	RT2afc	resp_2afc	acc	RSVPOnsetVBL	RSVPOnsetTime	RSVPOffsetVBL	RSVPOffsetTime	startrt_2afc
4	19	1	0	90	36.1581920903955	36.241610738255	24	0.800099808052182	2	2	3	NaN	1	5	0.0498346531438693	1	1	NaN	1	1	1	1	121	221	321	NaN	521	0.636470283381641	1	1	NaN	1381871.1894119	NaN	1381872.1726355	1381872.70577252
4	19	1	0	90	36.1581920903955	36.241610738255	11	0.366712412023917	2	3	2	NaN	1	3	0.0498346531438693	1	1	NaN	2	1	2	1	121	221	321	NaN	521	5.02839963510633	1	1	NaN	1381874.189667	NaN	1381875.1729394	1381875.70607786
4	19	1	0	90	36.1581920903955	36.241610738255	20	0.666749840043485	2	2	1	NaN	1	3	0.0498346531438693	1	1	NaN	3	1	3	1	121	221	321	NaN	521	0.472771444823593	1	1	NaN	1381881.8734195	NaN	1381882.8570155	1381883.37349766
4	19	1	0	90	36.1581920903955	36.241610738255	11	0.366712412023917	2	9	1	NaN	2	4	0.0498346531438693	1	1	NaN	4	1	4	1	121	221	321	NaN	521	0.0105379282031208	2	1	NaN	1381884.6738261	NaN	1381885.6572449	1381886.17376787
4	19	1	0	90	36.1581920903955	36.241610738255	19	0.633412348041311	2	10	6	NaN	2	5	0.0498346531438693	1	1	NaN	5	1	5	1	121	221	321	NaN	521	0.0241622801404446	1	0	NaN	1381887.07402	NaN	1381888.0574424	1381888.57399872
4	19	1	0	90	36.1581920903955	36.241610738255	15	0.500062380032614	2	8	2	NaN	2	4	0.0498346531438693	1	1	NaN	6	1	6	1	121	221	321	NaN	521	0.0103944316506386	1	0	NaN	1381889.4242774	NaN	1381890.4076708	1381890.92424297
4	19	1	0	90	36.1581920903955	36.241610738255	17	0.566737364036962	2	10	3	NaN	2	3	0.0498346531438693	1	1	NaN	7	1	7	1	121	221	321	NaN	521	0.0102739450521767	2	1	NaN	1381891.8244951	NaN	1381892.8079229	1381893.32448376
4	19	1	0	90	36.1581920903955	36.241610738255	15	0.500062380032614	2	2	6	NaN	1	4	0.0498346531438693	1	1	NaN	8	1	8	1	121	221	321	NaN	521	0.316216279985383	1	1	NaN	1381894.1580938	NaN	1381895.1414794	1381895.65803632
4	19	1	0	90	36.1581920903955	36.241610738255	6	0.200024952013046	2	4	4	NaN	1	4	0.0498346531438693	1	1	NaN	9	1	9	1	121	221	321	NaN	521	0.218656369950622	1	1	NaN	1381896.7916686	NaN	1381897.775071	1381898.29162763
4	19	1	0	90	36.1581920903955	36.241610738255	20	0.666749840043485	2	1	2	NaN	1	3	0.0498346531438693	1	1	NaN	10	1	10	1	121	221	321	NaN	521	0.308822131715715	1	1	NaN	1381899.3252447	NaN	1381900.3086311	1381900.82521657
4	19	1	0	90	36.1581920903955	36.241610738255	18	0.600074856039137	2	11	6	NaN	2	3	0.0498346531438693	1	1	NaN	11	1	11	1	121	221	321	NaN	521	0.411429231520742	1	0	NaN	1381901.9588568	NaN	1381902.942326	1381903.45880967
4	19	1	0	90	36.1581920903955	36.241610738255	6	0.200024952013046	2	8	3	NaN	2	3	0.0498346531438693	1	1	NaN	12	1	12	1	121	221	321	NaN	521	0.0102719448041171	2	1	NaN	1381904.6924544	NaN	1381905.6758417	1381906.19241986
4	19	1	0	90	36.1581920903955	36.241610738255	11	0.366712412023917	2	8	4	NaN	2	4	0.0498346531438693	1	1	NaN	13	1	13	1	121	221	321	NaN	521	0.59191834134981	2	1	NaN	1381907.242686	NaN	1381908.2260956	1381908.74267426
4	19	1	0	90	36.1581920903955	36.241610738255	18	0.600074856039137	2	12	1	NaN	2	4	0.0498346531438693	1	1	NaN	14	1	14	1	121	221	321	NaN	521	0.923315280117095	1	0	NaN	1381910.1430323	NaN	1381911.1263889	1381911.64294062
4	19	1	0	90	36.1581920903955	36.241610738255	10	0.333374920021743	2	4	5	NaN	1	4	0.0498346531438693	1	1	NaN	15	1	15	1	121	221	321	NaN	521	0.54599173180759	1	1	NaN	1381913.3766458	NaN	1381914.3600441	1381914.87659927
4	19	1	0	90	36.1581920903955	36.241610738255	22	0.733424824047834	2	1	4	NaN	1	4	0.0498346531438693	1	1	NaN	16	1	16	1	121	221	321	NaN	521	0.119769231649116	1	1	NaN	1381916.41029	NaN	1381917.3936705	1381917.91023187
4	19	1	0	90	36.1581920903955	36.241610738255	14	0.46672488803044	2	7	6	NaN	2	5	0.0498346531438693	1	1	NaN	17	1	17	1	121	221	321	NaN	521	0.342555231647566	2	1	NaN	1381918.8437709	NaN	1381919.827249	1381920.34380997
4	19	1	0	90	36.1581920903955	36.241610738255	0	0	1	4	1	NaN	1	4	0.0498346531438693	1	1	NaN	18	1	18	1	111	211	311	NaN	511	0.363472779979929	1	1	NaN	1381921.5107819	NaN	1381922.4941862	1381923.01075702
4	19	1	0	90	36.1581920903955	36.241610738255	15	0.500062380032614	2	6	1	NaN	1	5	0.0498346531438693	1	1	NaN	19	1	19	1	121	221	321	NaN	521	0.535863031633198	1	1	NaN	1381924.1943766	NaN	1381925.1777904	1381925.69433267
4	19	1	0	90	36.1581920903955	36.241610738255	9	0.300037428019568	2	5	1	NaN	1	4	0.0498346531438693	1	1	NaN	20	1	20	1	121	221	321	NaN	521	1.3576451765839	1	1	NaN	1381927.0446019	NaN	1381928.0279568	1381928.54460822
4	19	1	0	90	36.1581920903955	36.241610738255	22	0.733424824047834	2	7	5	NaN	2	5	0.0498346531438693	1	1	NaN	21	1	21	1	121	221	321	NaN	521	0.962956079980358	1	0	NaN	1381930.7115858	NaN	1381931.6950811	1381932.21163402
4	19	1	0	90	36.1581920903955	36.241610738255	12	0.400049904026091	2	7	6	NaN	2	4	0.0498346531438693	1	1	NaN	22	1	22	1	121	221	321	NaN	521	0.439468531636521	2	1	NaN	1381933.9953442	NaN	1381934.9787393	1381935.49529737
4	19	1	0	90	36.1581920903955	36.241610738255	23	0.766762316050008	2	10	4	NaN	2	3	0.0498346531438693	1	1	NaN	23	1	23	1	121	221	321	NaN	521	0.444049931596965	1	0	NaN	1381937.062313	NaN	1381938.0456983	1381938.56226817
4	19	1	0	90	36.1581920903955	36.241610738255	21	0.700087332045659	2	11	5	NaN	2	3	0.0498346531438693	1	1	NaN	24	1	24	1	121	221	321	NaN	521	0.181441128253937	2	1	NaN	1381939.829245	NaN	1381940.8126677	1381941.32920677
4	19	1	0	90	36.1581920903955	36.241610738255	24	0.800099808052182	2	6	4	NaN	1	4	0.0498346531438693	1	1	NaN	25	1	25	1	121	221	321	NaN	521	0.392882231622934	1	1	NaN	1381942.3295153	NaN	1381943.3129607	1381943.82945847
4	19	1	0	90	36.1581920903955	36.241610738255	20	0.666749840043485	2	8	3	NaN	2	5	0.0498346531438693	1	1	NaN	26	1	26	1	121	221	321	NaN	521	0.0103929317556322	2	1	NaN	1381945.0297585	NaN	1381946.0131699	1381946.52972447
4	19	1	0	90	36.1581920903955	36.241610738255	21	0.700087332045659	2	11	2	NaN	2	5	0.0498346531438693	1	1	NaN	27	1	27	1	121	221	321	NaN	521	0.649164479924366	1	0	NaN	1381947.713392	NaN	1381948.6967521	1381949.21331732
4	19	1	0	90	36.1581920903955	36.241610738255	17	0.566737364036962	2	12	2	NaN	2	5	0.0498346531438693	1	1	NaN	28	1	28	1	121	221	321	NaN	521	0.322305179899558	1	0	NaN	1381950.6803258	NaN	1381951.6637202	1381952.18027112
4	19	1	0	90	36.1581920903955	36.241610738255	25	0.833437300054356	2	3	5	NaN	1	3	0.0498346531438693	1	1	NaN	29	1	29	1	121	221	321	NaN	521	1.11182253155857	1	1	NaN	1381953.3306047	NaN	1381954.3139579	1381954.83053997
4	19	1	0	90	36.1581920903955	36.241610738255	21	0.700087332045659	2	12	5	NaN	2	4	0.0498346531438693	1	1	NaN	30	1	30	1	121	221	321	NaN	521	0.49445782834664	1	0	NaN	1381956.7642506	NaN	1381957.7476615	1381958.26420147
4	19	1	0	90	36.1581920903955	36.241610738255	7	0.23336244401522	2	9	4	NaN	2	5	0.0498346531438693	1	1	NaN	31	1	31	1	121	221	321	NaN	521	0.0104846768081188	2	1	NaN	1381959.5811975	NaN	1381960.5645945	1381961.08115022
4	19	1	0	90	36.1581920903955	36.241610738255	11	0.366712412023917	2	4	4	NaN	1	5	0.0498346531438693	1	1	NaN	32	1	32	1	121	221	321	NaN	521	0.239502880023792	1	1	NaN	1381961.9147551	NaN	1381962.8982035	1381963.41471262
4	19	1	0	90	36.1581920903955	36.241610738255	16	0.533399872034788	2	3	2	NaN	1	4	0.0498346531438693	1	1	NaN	33	1	33	1	121	221	321	NaN	521	0.377058931626379	1	1	NaN	1381964.4817039	NaN	1381965.465071	1381965.98164187
4	19	1	0	90	36.1581920903955	36.241610738255	10	0.333374920021743	2	3	1	NaN	1	4	0.0498346531438693	1	1	NaN	34	1	34	1	121	221	321	NaN	521	0.396455980138853	1	1	NaN	1381967.1819495	NaN	1381968.1652531	1381968.68189582
4	19	1	0	90	36.1581920903955	36.241610738255	21	0.700087332045659	2	9	6	NaN	2	5	0.0498346531438693	1	1	NaN	35	1	35	1	121	221	321	NaN	521	0.29589403164573	1	0	NaN	1381969.8988616	NaN	1381970.8821833	1381971.39883807
4	19	1	0	90	36.1581920903955	36.241610738255	6	0.200024952013046	2	2	4	NaN	1	4	0.0498346531438693	1	1	NaN	36	1	36	1	121	221	321	NaN	521	0.0104616282042116	2	0	NaN	1381972.5158077	NaN	1381973.4991978	1381974.01575547
4	19	1	0	90	36.1581920903955	36.241610738255	23	0.766762316050008	2	2	6	NaN	1	3	0.0498346531438693	1	1	NaN	37	1	37	1	121	221	321	NaN	521	1.04945897986181	2	0	NaN	1381974.8493824	NaN	1381975.8327572	1381976.34931882
4	19	1	0	90	36.1581920903955	36.241610738255	16	0.533399872034788	2	10	3	NaN	2	5	0.0498346531438693	1	1	NaN	38	1	38	1	121	221	321	NaN	521	0.25599163165316	2	1	NaN	1381978.266318	NaN	1381979.2498063	1381979.76632997
4	19	1	0	90	36.1581920903955	36.241610738255	10	0.333374920021743	2	11	5	NaN	2	4	0.0498346531438693	1	1	NaN	39	1	39	1	121	221	321	NaN	521	0.241145379841328	2	1	NaN	1381980.8333013	NaN	1381981.8166841	1381982.33324062
4	19	1	0	90	36.1581920903955	36.241610738255	18	0.600074856039137	2	1	5	NaN	1	4	0.0498346531438693	1	1	NaN	40	1	40	1	121	221	321	NaN	521	1.34705377998762	1	1	NaN	1381983.3835485	NaN	1381984.3669653	1381984.88349742
4	19	1	0	90	36.1581920903955	36.241610738255	8	0.266699936017394	2	12	5	NaN	2	4	0.0498346531438693	1	1	NaN	41	1	41	1	121	221	321	NaN	521	0.26419453159906	2	1	NaN	1381987.0505802	NaN	1381988.0339621	1381988.55052327
4	19	1	0	90	36.1581920903955	36.241610738255	6	0.200024952013046	2	12	2	NaN	2	3	0.0498346531438693	1	1	NaN	42	1	42	1	121	221	321	NaN	521	0.305917328223586	2	1	NaN	1381990.0007537	NaN	1381990.9842838	1381991.50082317
4	19	1	0	90	36.1581920903955	36.241610738255	15	0.500062380032614	2	1	6	NaN	1	5	0.0498346531438693	1	1	NaN	43	1	43	1	121	221	321	NaN	521	0.504660428268835	1	1	NaN	1381992.6177983	NaN	1381993.6011861	1381994.11774617
4	19	1	0	90	36.1581920903955	36.241610738255	20	0.666749840043485	2	2	6	NaN	1	3	0.0498346531438693	1	1	NaN	44	1	44	1	121	221	321	NaN	521	0.263663831632584	2	0	NaN	1381995.4347353	NaN	1381996.4181745	1381996.93467927
4	19	1	0	90	36.1581920903955	36.241610738255	12	0.400049904026091	2	7	3	NaN	2	4	0.0498346531438693	1	1	NaN	45	1	45	1	121	221	321	NaN	521	0.89653154509142	2	1	NaN	1381998.0183144	NaN	1381999.0017139	1381999.51827335
4	19	1	0	90	36.1581920903955	36.241610738255	24	0.800099808052182	2	7	2	NaN	2	3	0.0498346531438693	1	1	NaN	46	1	46	1	121	221	321	NaN	521	0.318983079865575	2	1	NaN	1382001.2353345	NaN	1382002.2187539	1382002.73525252
4	19	1	0	90	36.1581920903955	36.241610738255	18	0.600074856039137	2	5	1	NaN	1	3	0.0498346531438693	1	1	NaN	47	1	47	1	121	221	321	NaN	521	0.325752331642434	2	0	NaN	1382003.8689087	NaN	1382004.8522847	1382005.36885057
4	19	1	0	90	36.1581920903955	36.241610738255	13	0.433387396028265	2	3	3	NaN	1	3	0.0498346531438693	1	1	NaN	48	1	48	1	121	221	321	NaN	521	0.243802979821339	1	1	NaN	1382006.502491	NaN	1382007.4858992	1382008.00244012
4	19	1	0	90	36.1581920903955	36.241610738255	13	0.433387396028265	2	9	5	NaN	2	4	0.0498346531438693	1	1	NaN	49	1	49	1	121	221	321	NaN	521	0.0370529799256474	1	0	NaN	1382009.0694361	NaN	1382010.0528132	1382010.56936222
4	19	1	0	90	36.1581920903955	36.241610738255	11	0.366712412023917	2	9	2	NaN	2	3	0.0498346531438693	1	1	NaN	50	1	50	1	121	221	321	NaN	521	0.010450231609866	2	1	NaN	1382011.419522	NaN	1382012.4030475	1382012.91959907
4	19	1	0	90	36.1581920903955	36.241610738255	18	0.600074856039137	2	3	6	NaN	1	4	0.0498346531438693	1	1	NaN	51	1	51	1	121	221	321	NaN	521	0.154117776546627	1	1	NaN	1382013.7365502	NaN	1382014.7199482	1382015.23649472
4	19	1	0	90	36.1581920903955	36.241610738255	6	0.200024952013046	2	3	3	NaN	1	3	0.0498346531438693	1	1	NaN	52	1	52	1	121	221	321	NaN	521	0.0104548800736666	1	1	NaN	1382016.2034538	NaN	1382017.1868505	1382017.70340102
4	19	1	0	90	36.1581920903955	36.241610738255	17	0.566737364036962	2	8	4	NaN	2	5	0.0498346531438693	1	1	NaN	53	1	53	1	121	221	321	NaN	521	0.130119676468894	1	0	NaN	1382018.5203435	NaN	1382019.5037453	1382020.02029302
4	19	1	0	90	36.1581920903955	36.241610738255	23	0.766762316050008	2	8	6	NaN	2	5	0.0498346531438693	1	1	NaN	54	1	54	1	121	221	321	NaN	521	0.21608893154189	2	1	NaN	1382020.9705835	NaN	1382021.9539737	1382022.47054027
4	19	1	0	90	36.1581920903955	36.241610738255	8	0.266699936017394	2	9	4	NaN	2	4	0.0498346531438693	1	1	NaN	55	1	55	1	121	221	321	NaN	521	0.0181130315177143	2	1	NaN	1382023.5041767	NaN	1382024.4875653	1382025.00412407
4	19	1	0	90	36.1581920903955	36.241610738255	12	0.400049904026091	2	8	3	NaN	2	4	0.0498346531438693	1	1	NaN	56	1	56	1	121	221	321	NaN	521	0.0103942316491157	2	1	NaN	1382026.187911	NaN	1382027.1711735	1382027.68771157
4	19	1	0	90	36.1581920903955	36.241610738255	7	0.23336244401522	2	4	2	NaN	1	5	0.0498346531438693	1	1	NaN	57	1	57	1	121	221	321	NaN	521	0.44152908003889	1	1	NaN	1382028.521332	NaN	1382029.5047164	1382030.02127822
4	19	1	0	90	36.1581920903955	36.241610738255	18	0.600074856039137	2	4	3	NaN	1	5	0.0498346531438693	1	1	NaN	58	1	58	1	121	221	321	NaN	521	0.522794479969889	1	1	NaN	1382031.2715956	NaN	1382032.2549873	1382032.77154372
4	19	1	0	90	36.1581920903955	36.241610738255	23	0.766762316050008	2	11	1	NaN	2	5	0.0498346531438693	1	1	NaN	59	1	59	1	121	221	321	NaN	521	0.177319976501167	2	1	NaN	1382034.1050905	NaN	1382035.0886188	1382035.60515812
4	19	1	0	90	36.1581920903955	36.241610738255	12	0.400049904026091	2	3	1	NaN	1	5	0.0498346531438693	1	1	NaN	60	1	60	1	121	221	321	NaN	521	0.277535931672901	1	1	NaN	1382036.5887882	NaN	1382037.5721968	1382038.08874667
4	19	1	0	90	36.1581920903955	36.241610738255	19	0.633412348041311	2	10	2	NaN	2	4	0.0498346531438693	1	1	NaN	61	1	61	1	121	221	321	NaN	521	0.350213580066338	2	1	NaN	1382039.1723826	NaN	1382040.1557775	1382040.67232682
4	19	1	0	90	36.1581920903955	36.241610738255	13	0.433387396028265	2	11	5	NaN	2	3	0.0498346531438693	1	1	NaN	62	1	62	1	121	221	321	NaN	521	0.435136489802971	1	0	NaN	1382041.8393097	NaN	1382042.822698	1382043.33926851
4	19	1	0	90	36.1581920903955	36.241610738255	25	0.833437300054356	2	5	5	NaN	1	4	0.0498346531438693	1	1	NaN	63	1	63	1	121	221	321	NaN	521	0.482314631575719	2	0	NaN	1382045.0562983	NaN	1382046.0396779	1382046.55624567
4	19	1	0	90	36.1581920903955	36.241610738255	14	0.46672488803044	2	5	5	NaN	1	3	0.0498346531438693	1	1	NaN	64	2	1	1	121	221	321	NaN	521	1.42777043161914	1	1	NaN	1382118.846864	NaN	1382119.8302885	1382120.34684547
4	19	1	0	90	36.1581920903955	36.241610738255	18	0.600074856039137	2	12	5	NaN	2	5	0.0498346531438693	1	1	NaN	65	2	2	1	121	221	321	NaN	521	0.253806079970673	2	1	NaN	1382122.5973841	NaN	1382123.5806517	1382124.09720992
4	19	1	0	90	36.1581920903955	36.241610738255	15	0.500062380032614	2	2	5	NaN	1	4	0.0498346531438693	1	1	NaN	66	2	3	1	121	221	321	NaN	521	0.318879131460562	2	0	NaN	1382125.1641713	NaN	1382126.1475882	1382126.66413587
4	19	1	0	90	36.1581920903955	36.241610738255	0	0	1	4	6	NaN	1	3	0.0498346531438693	1	1	NaN	67	2	4	1	111	211	311	NaN	511	0.010387183399871	1	1	NaN	1382127.7977697	NaN	1382128.7811709	1382129.29773212
4	19	1	0	90	36.1581920903955	36.241610738255	6	0.200024952013046	2	11	5	NaN	2	4	0.0498346531438693	1	1	NaN	68	2	5	1	121	221	321	NaN	521	6.45604564505629	1	0	NaN	1382130.114675	NaN	1382131.0980753	1382131.61462836
4	19	1	0	90	36.1581920903955	36.241610738255	8	0.266699936017394	2	5	1	NaN	1	4	0.0498346531438693	1	1	NaN	69	2	6	1	121	221	321	NaN	521	7.45684498012997	1	1	NaN	1382138.8821717	NaN	1382139.865594	1382140.38215002
4	19	1	0	90	36.1581920903955	36.241610738255	14	0.46672488803044	2	2	1	NaN	1	5	0.0498346531438693	1	1	NaN	70	2	7	1	121	221	321	NaN	521	0.0103944316506386	1	1	NaN	1382148.983192	NaN	1382149.9665993	1382150.48315077
4	19	1	0	90	36.1581920903955	36.241610738255	8	0.266699936017394	2	5	5	NaN	1	5	0.0498346531438693	1	1	NaN	71	2	8	1	121	221	321	NaN	521	0.214938928373158	1	1	NaN	1382151.3000903	NaN	1382152.2834848	1382152.80003947
4	19	1	0	90	36.1581920903955	36.241610738255	9	0.300037428019568	2	11	5	NaN	2	5	0.0498346531438693	1	1	NaN	72	2	9	1	121	221	321	NaN	521	0.0104294284246862	2	1	NaN	1382153.8336692	NaN	1382154.8170571	1382155.33361707
4	19	1	0	90	36.1581920903955	36.241610738255	13	0.433387396028265	2	7	4	NaN	2	5	0.0498346531438693	1	1	NaN	73	2	10	1	121	221	321	NaN	521	0.236115131760016	2	1	NaN	1382156.1504425	NaN	1382157.1339596	1382157.65052337
4	19	1	0	90	36.1581920903955	36.241610738255	24	0.800099808052182	2	10	1	NaN	2	3	0.0498346531438693	1	1	NaN	74	2	11	1	121	221	321	NaN	521	0.285869979998097	1	0	NaN	1382158.7008617	NaN	1382159.6842229	1382160.20076342
4	19	1	0	90	36.1581920903955	36.241610738255	7	0.23336244401522	2	2	2	NaN	1	5	0.0498346531438693	1	1	NaN	75	2	12	1	121	221	321	NaN	521	0.245527876541018	1	1	NaN	1382161.3010797	NaN	1382162.2844601	1382162.80101682
4	19	1	0	90	36.1581920903955	36.241610738255	14	0.46672488803044	2	6	5	NaN	1	3	0.0498346531438693	1	1	NaN	76	2	13	1	121	221	321	NaN	521	0.342866731574759	1	1	NaN	1382163.8680179	NaN	1382164.8513867	1382165.36794777
4	19	1	0	90	36.1581920903955	36.241610738255	6	0.200024952013046	2	5	2	NaN	1	3	0.0498346531438693	1	1	NaN	77	2	14	1	121	221	321	NaN	521	0.252826931653544	1	1	NaN	1382166.5182595	NaN	1382167.5016775	1382168.01821857
4	19	1	0	90	36.1581920903955	36.241610738255	17	0.566737364036962	2	5	1	NaN	1	3	0.0498346531438693	1	1	NaN	78	2	15	1	121	221	321	NaN	521	0.293527724919841	1	1	NaN	1382169.0851692	NaN	1382170.06858	1382170.58511658
4	19	1	0	90	36.1581920903955	36.241610738255	12	0.400049904026091	2	4	4	NaN	1	3	0.0498346531438693	1	1	NaN	79	2	16	1	121	221	321	NaN	521	0.301158880116418	1	1	NaN	1382171.6854432	NaN	1382172.6688162	1382173.18537092
4	19	1	0	90	36.1581920903955	36.241610738255	11	0.366712412023917	2	10	1	NaN	2	5	0.0498346531438693	1	1	NaN	80	2	17	1	121	221	321	NaN	521	0.292723231716082	2	1	NaN	1382174.3023419	NaN	1382175.2857215	1382175.80230817
4	19	1	0	90	36.1581920903955	36.241610738255	10	0.333374920021743	2	4	1	NaN	1	3	0.0498346531438693	1	1	NaN	81	2	18	1	121	221	321	NaN	521	0.22812617989257	1	1	NaN	1382176.9026213	NaN	1382177.8859942	1382178.40255142
4	19	1	0	90	36.1581920903955	36.241610738255	9	0.300037428019568	2	5	6	NaN	1	3	0.0498346531438693	1	1	NaN	82	2	19	1	121	221	321	NaN	521	0.189772631740198	1	1	NaN	1382179.4528641	NaN	1382180.4362494	1382180.95281717
4	19	1	0	90	36.1581920903955	36.241610738255	18	0.600074856039137	2	2	2	NaN	1	3	0.0498346531438693	1	1	NaN	83	2	20	1	121	221	321	NaN	521	0.62565258005634	2	0	NaN	1382181.9530992	NaN	1382182.9365025	1382183.45305162
4	19	1	0	90	36.1581920903955	36.241610738255	11	0.366712412023917	2	5	4	NaN	1	3	0.0498346531438693	1	1	NaN	84	2	21	1	121	221	321	NaN	521	0.220303731737658	1	1	NaN	1382184.8867347	NaN	1382185.8701021	1382186.38667907
4	19	1	0	90	36.1581920903955	36.241610738255	13	0.433387396028265	2	9	2	NaN	2	5	0.0498346531438693	1	1	NaN	85	2	22	1	121	221	321	NaN	521	0.342448931653053	1	0	NaN	1382187.4203139	NaN	1382188.4037091	1382188.92026647
4	19	1	0	90	36.1581920903955	36.241610738255	6	0.200024952013046	2	9	1	NaN	2	3	0.0498346531438693	1	1	NaN	86	2	23	1	121	221	321	NaN	521	0.325586183229461	1	0	NaN	1382192.0374578	NaN	1382193.0208377	1382193.53737872
4	19	1	0	90	36.1581920903955	36.241610738255	14	0.46672488803044	2	10	2	NaN	2	4	0.0498346531438693	1	1	NaN	87	2	24	1	121	221	321	NaN	521	0.0103964316658676	1	0	NaN	1382194.671019	NaN	1382195.6544123	1382196.17099007
4	19	1	0	90	36.1581920903955	36.241610738255	16	0.533399872034788	2	11	3	NaN	2	4	0.0498346531438693	1	1	NaN	88	2	25	1	121	221	321	NaN	521	0.358841779874638	2	1	NaN	1382196.9879592	NaN	1382197.9713211	1382198.48786342
4	19	1	0	90	36.1581920903955	36.241610738255	8	0.266699936017394	2	1	1	NaN	1	5	0.0498346531438693	1	1	NaN	89	2	26	1	121	221	321	NaN	521	0.010393631644547	1	1	NaN	1382200.0715609	NaN	1382201.0549443	1382201.57151317
4	19	1	0	90	36.1581920903955	36.241610738255	9	0.300037428019568	2	3	6	NaN	1	5	0.0498346531438693	1	1	NaN	90	2	27	1	121	221	321	NaN	521	0.158656376646832	1	1	NaN	1382202.3884412	NaN	1382203.371853	1382203.88839552
4	19	1	0	90	36.1581920903955	36.241610738255	22	0.733424824047834	2	10	5	NaN	2	3	0.0498346531438693	1	1	NaN	91	2	28	1	121	221	321	NaN	521	0.243885383242741	1	0	NaN	1382204.8553916	NaN	1382205.8387658	1382206.35531532
4	19	1	0	90	36.1581920903955	36.241610738255	14	0.46672488803044	2	12	1	NaN	2	5	0.0498346531438693	1	1	NaN	92	2	29	1	121	221	321	NaN	521	0.325012593064457	1	0	NaN	1382207.4056153	NaN	1382208.3890104	1382208.90556121
4	19	1	0	90	36.1581920903955	36.241610738255	9	0.300037428019568	2	3	4	NaN	1	3	0.0498346531438693	1	1	NaN	93	2	30	1	121	221	321	NaN	521	0.267763831652701	1	1	NaN	1382210.0390796	NaN	1382211.0226037	1382211.53917527
4	19	1	0	90	36.1581920903955	36.241610738255	24	0.800099808052182	2	3	6	NaN	1	5	0.0498346531438693	1	1	NaN	94	2	31	1	121	221	321	NaN	521	0.010391331743449	1	1	NaN	1382212.622803	NaN	1382213.6061882	1382214.12274927
4	19	1	0	90	36.1581920903955	36.241610738255	12	0.400049904026091	2	9	2	NaN	2	3	0.0498346531438693	1	1	NaN	95	2	32	1	121	221	321	NaN	521	0.0103977317921817	1	0	NaN	1382214.9397003	NaN	1382215.9231262	1382216.43963947
4	19	1	0	90	36.1581920903955	36.241610738255	17	0.566737364036962	2	1	6	NaN	1	5	0.0498346531438693	1	1	NaN	96	2	33	1	121	221	321	NaN	521	0.0103800832293928	1	1	NaN	1382217.2566185	NaN	1382218.2400007	1382218.75653562
4	19	1	0	90	36.1581920903955	36.241610738255	13	0.433387396028265	2	8	4	NaN	2	4	0.0498346531438693	1	1	NaN	97	2	34	1	121	221	321	NaN	521	0.0104071316309273	1	0	NaN	1382219.573362	NaN	1382220.5568731	1382221.07343207
4	19	1	0	90	36.1581920903955	36.241610738255	12	0.400049904026091	2	11	1	NaN	2	5	0.0498346531438693	1	1	NaN	98	2	35	1	121	221	321	NaN	521	0.440206931671128	2	1	NaN	1382221.8903583	NaN	1382222.8737778	1382223.39032817
4	19	1	0	90	36.1581920903955	36.241610738255	7	0.23336244401522	2	9	3	NaN	2	4	0.0498346531438693	1	1	NaN	99	2	36	1	121	221	321	NaN	521	0.250076128169894	2	1	NaN	1382224.6405641	NaN	1382225.6240271	1382226.14058357
4	19	1	0	90	36.1581920903955	36.241610738255	16	0.533399872034788	2	1	5	NaN	1	4	0.0498346531438693	1	1	NaN	100	2	37	1	121	221	321	NaN	521	0.0103932316415012	1	1	NaN	1382227.2075489	NaN	1382228.1909401	1382228.70752837
4	19	1	0	90	36.1581920903955	36.241610738255	23	0.766762316050008	2	9	1	NaN	2	3	0.0498346531438693	1	1	NaN	101	2	38	1	121	221	321	NaN	521	0.126468479866162	2	1	NaN	1382229.5244532	NaN	1382230.5078558	1382231.02440382
4	19	1	0	90	36.1581920903955	36.241610738255	8	0.266699936017394	2	3	1	NaN	1	5	0.0498346531438693	1	1	NaN	102	2	39	1	121	221	321	NaN	521	0.0447234113235027	1	1	NaN	1382231.9580344	NaN	1382232.9414181	1382233.45796599
4	19	1	0	90	36.1581920903955	36.241610738255	19	0.633412348041311	2	12	3	NaN	2	5	0.0498346531438693	1	1	NaN	103	2	40	1	121	221	321	NaN	521	0.278180731460452	2	1	NaN	1382234.3249229	NaN	1382235.308322	1382235.82488067
4	19	1	0	90	36.1581920903955	36.241610738255	23	0.766762316050008	2	4	3	NaN	1	5	0.0498346531438693	1	1	NaN	104	2	41	1	121	221	321	NaN	521	0.0104084799531847	1	1	NaN	1382236.9250642	NaN	1382237.908612	1382238.42512922
4	19	1	0	90	36.1581920903955	36.241610738255	23	0.766762316050008	2	5	4	NaN	1	3	0.0498346531438693	1	1	NaN	105	2	42	1	121	221	321	NaN	521	0.256643431726843	1	1	NaN	1382239.2419551	NaN	1382240.225475	1382240.74203487
4	19	1	0	90	36.1581920903955	36.241610738255	22	0.733424824047834	2	12	1	NaN	2	4	0.0498346531438693	1	1	NaN	106	2	43	1	121	221	321	NaN	521	0.434213431784883	1	0	NaN	1382241.8089895	NaN	1382242.7923856	1382243.30894797
4	19	1	0	90	36.1581920903955	36.241610738255	9	0.300037428019568	2	11	4	NaN	2	5	0.0498346531438693	1	1	NaN	107	2	44	1	121	221	321	NaN	521	0.0104063800536096	2	1	NaN	1382244.5592742	NaN	1382245.5426575	1382246.05921452
4	19	1	0	90	36.1581920903955	36.241610738255	8	0.266699936017394	2	6	3	NaN	1	4	0.0498346531438693	1	1	NaN	108	2	45	1	121	221	321	NaN	521	0.0104261799715459	1	1	NaN	1382246.8761554	NaN	1382247.8595512	1382248.37610792
4	19	1	0	90	36.1581920903955	36.241610738255	21	0.700087332045659	2	4	2	NaN	1	3	0.0498346531438693	1	1	NaN	109	2	46	1	121	221	321	NaN	521	0.0738337317015976	1	1	NaN	1382249.1930517	NaN	1382250.1764596	1382250.69301047
4	19	1	0	90	36.1581920903955	36.241610738255	25	0.833437300054356	2	12	2	NaN	2	4	0.0498346531438693	1	1	NaN	110	2	47	1	121	221	321	NaN	521	0.522101283306256	2	1	NaN	1382251.5766484	NaN	1382252.5600012	1382253.07657472
4	19	1	0	90	36.1581920903955	36.241610738255	20	0.666749840043485	2	4	5	NaN	1	4	0.0498346531438693	1	1	NaN	111	2	48	1	121	221	321	NaN	521	0.0103954316582531	1	1	NaN	1382254.4102249	NaN	1382255.3936731	1382255.91019437
4	19	1	0	90	36.1581920903955	36.241610738255	23	0.766762316050008	2	7	1	NaN	2	4	0.0498346531438693	1	1	NaN	112	2	49	1	121	221	321	NaN	521	0.010407879948616	1	0	NaN	1382256.8604783	NaN	1382257.8438567	1382258.36042402
4	19	1	0	90	36.1581920903955	36.241610738255	7	0.23336244401522	2	6	1	NaN	1	3	0.0498346531438693	1	1	NaN	113	2	50	1	121	221	321	NaN	521	0.225359679898247	1	1	NaN	1382259.177302	NaN	1382260.1607706	1382260.67731842
4	19	1	0	90	36.1581920903955	36.241610738255	19	0.633412348041311	2	3	5	NaN	1	3	0.0498346531438693	1	1	NaN	114	2	51	1	121	221	321	NaN	521	0.283803231548518	1	1	NaN	1382261.7109493	NaN	1382262.6943533	1382263.21091247
4	19	1	0	90	36.1581920903955	36.241610738255	13	0.433387396028265	2	2	6	NaN	1	3	0.0498346531438693	1	1	NaN	115	2	52	1	121	221	321	NaN	521	0.0104174800217152	1	1	NaN	1382264.3112066	NaN	1382265.2946038	1382265.81116082
4	19	1	0	90	36.1581920903955	36.241610738255	11	0.366712412023917	2	5	6	NaN	1	3	0.0498346531438693	1	1	NaN	116	2	53	1	121	221	321	NaN	521	0.398614689940587	1	1	NaN	1382266.6281008	NaN	1382267.6115673	1382268.12806501
4	19	1	0	90	36.1581920903955	36.241610738255	6	0.200024952013046	2	11	1	NaN	2	3	0.0498346531438693	1	1	NaN	117	2	54	1	121	221	321	NaN	521	0.0104151798877865	1	0	NaN	1382269.345068	NaN	1382270.3284724	1382270.84498732
4	19	1	0	90	36.1581920903955	36.241610738255	16	0.533399872034788	2	9	5	NaN	2	4	0.0498346531438693	1	1	NaN	118	2	55	1	121	221	321	NaN	521	0.0104094799607992	1	0	NaN	1382271.6619244	NaN	1382272.6453308	1382273.16188412
4	19	1	0	90	36.1581920903955	36.241610738255	19	0.633412348041311	2	11	2	NaN	2	5	0.0498346531438693	1	1	NaN	119	2	56	1	121	221	321	NaN	521	0.040065580047667	1	0	NaN	1382273.9788285	NaN	1382274.9622209	1382275.47877912
4	19	1	0	90	36.1581920903955	36.241610738255	11	0.366712412023917	2	2	5	NaN	1	4	0.0498346531438693	1	1	NaN	120	2	57	1	121	221	321	NaN	521	0.249729731818661	1	1	NaN	1382276.3290718	NaN	1382277.3124519	1382277.82901847
4	19	1	0	90	36.1581920903955	36.241610738255	19	0.633412348041311	2	5	6	NaN	1	5	0.0498346531438693	1	1	NaN	121	2	58	1	121	221	321	NaN	521	0.0104093798436224	1	1	NaN	1382278.8959875	NaN	1382279.8793879	1382280.39592542
4	19	1	0	90	36.1581920903955	36.241610738255	19	0.633412348041311	2	8	4	NaN	2	4	0.0498346531438693	1	1	NaN	122	2	59	1	121	221	321	NaN	521	0.278072331566364	1	0	NaN	1382281.2128712	NaN	1382282.1963141	1382282.71283267
4	19	1	0	90	36.1581920903955	36.241610738255	23	0.766762316050008	2	12	4	NaN	2	5	0.0498346531438693	1	1	NaN	123	2	60	1	121	221	321	NaN	521	0.269640380050987	2	1	NaN	1382283.8131313	NaN	1382284.7965425	1382285.31308142
4	19	1	0	90	36.1581920903955	36.241610738255	20	0.666749840043485	2	9	3	NaN	2	5	0.0498346531438693	1	1	NaN	124	2	61	1	121	221	321	NaN	521	0.34248354495503	2	1	NaN	1382286.3967062	NaN	1382287.380119	1382287.89667346
4	19	1	0	90	36.1581920903955	36.241610738255	24	0.800099808052182	2	10	3	NaN	2	4	0.0498346531438693	1	1	NaN	125	2	62	1	121	221	321	NaN	521	0.30835023173131	2	1	NaN	1382289.0470141	NaN	1382290.0303738	1382290.54693737
4	19	1	0	90	36.1581920903955	36.241610738255	11	0.366712412023917	2	7	3	NaN	2	3	0.0498346531438693	1	1	NaN	126	2	63	1	121	221	321	NaN	521	0.355017431546003	1	0	NaN	1382291.6639271	NaN	1382292.6473006	1382293.16386027
4	19	1	0	90	36.1581920903955	36.241610738255	8	0.266699936017394	2	2	3	NaN	1	3	0.0498346531438693	1	1	NaN	127	3	1	1	121	221	321	NaN	521	0.0844815766904503	1	1	NaN	1382386.4065306	NaN	1382387.3899855	1382387.90650662
4	19	1	0	90	36.1581920903955	36.241610738255	24	0.800099808052182	2	4	4	NaN	1	5	0.0498346531438693	1	1	NaN	128	3	2	1	121	221	321	NaN	521	0.0103885317221284	1	1	NaN	1382388.8066586	NaN	1382389.7902261	1382390.30675217
4	19	1	0	90	36.1581920903955	36.241610738255	19	0.633412348041311	2	3	1	NaN	1	4	0.0498346531438693	1	1	NaN	129	3	3	1	121	221	321	NaN	521	0.0104086317587644	1	1	NaN	1382391.1403653	NaN	1382392.1237366	1382392.64031297
4	19	1	0	90	36.1581920903955	36.241610738255	23	0.766762316050008	2	7	4	NaN	2	4	0.0498346531438693	1	1	NaN	130	3	4	1	121	221	321	NaN	521	0.0103923317510635	2	1	NaN	1382393.4572567	NaN	1382394.4406409	1382394.95721137
4	19	1	0	90	36.1581920903955	36.241610738255	21	0.700087332045659	2	9	2	NaN	2	4	0.0498346531438693	1	1	NaN	131	3	5	1	121	221	321	NaN	521	0.356539831729606	1	0	NaN	1382395.7741317	NaN	1382396.7575613	1382397.27410057
4	19	1	0	90	36.1581920903955	36.241610738255	25	0.833437300054356	2	4	3	NaN	1	4	0.0498346531438693	1	1	NaN	132	3	6	1	121	221	321	NaN	521	0.010393331758678	1	1	NaN	1382398.440951	NaN	1382399.4244622	1382399.94103357
4	19	1	0	90	36.1581920903955	36.241610738255	14	0.46672488803044	2	9	5	NaN	2	5	0.0498346531438693	1	1	NaN	133	3	7	1	121	221	321	NaN	521	0.0104058317374438	1	0	NaN	1382400.7579671	NaN	1382401.7413667	1382402.25792417
4	19	1	0	90	36.1581920903955	36.241610738255	8	0.266699936017394	2	11	4	NaN	2	3	0.0498346531438693	1	1	NaN	134	3	8	1	121	221	321	NaN	521	0.215958579909056	2	1	NaN	1382403.0748634	NaN	1382404.0582735	1382404.57481372
4	19	1	0	90	36.1581920903955	36.241610738255	6	0.200024952013046	2	2	3	NaN	1	4	0.0498346531438693	1	1	NaN	135	3	9	1	121	221	321	NaN	521	0.288956131786108	1	1	NaN	1382405.8583472	NaN	1382406.8418559	1382407.35842747
4	19	1	0	90	36.1581920903955	36.241610738255	15	0.500062380032614	2	4	5	NaN	1	3	0.0498346531438693	1	1	NaN	136	3	10	1	121	221	321	NaN	521	0.336558579932898	1	1	NaN	1382408.85875	NaN	1382409.8421856	1382410.35874362
4	19	1	0	90	36.1581920903955	36.241610738255	0	0	1	10	3	NaN	2	5	0.0498346531438693	1	1	NaN	137	3	11	1	111	211	311	NaN	511	0.0299688349477947	2	1	NaN	1382411.5090235	NaN	1382412.4924081	1382413.00898677
4	19	1	0	90	36.1581920903955	36.241610738255	25	0.833437300054356	2	7	4	NaN	2	3	0.0498346531438693	1	1	NaN	138	3	12	1	121	221	321	NaN	521	0.591515131527558	2	1	NaN	1382413.859259	NaN	1382414.842652	1382415.35921807
4	19	1	0	90	36.1581920903955	36.241610738255	23	0.766762316050008	2	1	6	NaN	1	5	0.0498346531438693	1	1	NaN	139	3	13	1	121	221	321	NaN	521	0.275818831752986	1	1	NaN	1382416.7595348	NaN	1382417.7429401	1382418.25949817
4	19	1	0	90	36.1581920903955	36.241610738255	18	0.600074856039137	2	8	6	NaN	2	3	0.0498346531438693	1	1	NaN	140	3	14	1	121	221	321	NaN	521	0.451903579989448	2	1	NaN	1382419.3431325	NaN	1382420.3265296	1382420.84308382
4	19	1	0	90	36.1581920903955	36.241610738255	12	0.400049904026091	2	6	1	NaN	1	4	0.0498346531438693	1	1	NaN	141	3	15	1	121	221	321	NaN	521	0.292934031691402	1	1	NaN	1382422.1100789	NaN	1382423.0934993	1382423.61003027
4	19	1	0	90	36.1581920903955	36.241610738255	20	0.666749840043485	2	3	6	NaN	1	4	0.0498346531438693	1	1	NaN	142	3	16	1	121	221	321	NaN	521	0.348785080015659	2	0	NaN	1382424.7103332	NaN	1382425.6937462	1382426.21027452
4	19	1	0	90	36.1581920903955	36.241610738255	0	0	1	9	3	NaN	2	4	0.0498346531438693	1	1	NaN	143	3	17	1	111	211	311	NaN	511	0.217762131709605	2	1	NaN	1382427.3772745	NaN	1382428.360694	1382428.87720887
4	19	1	0	90	36.1581920903955	36.241610738255	8	0.266699936017394	2	10	2	NaN	2	3	0.0498346531438693	1	1	NaN	144	3	18	1	121	221	321	NaN	521	0.308137331856415	2	1	NaN	1382429.9108312	NaN	1382430.8942471	1382431.41079557
4	19	1	0	90	36.1581920903955	36.241610738255	24	0.800099808052182	2	7	2	NaN	2	4	0.0498346531438693	1	1	NaN	145	3	19	1	121	221	321	NaN	521	0.227085831807926	1	0	NaN	1382432.5277831	NaN	1382433.5111463	1382434.02771677
4	19	1	0	90	36.1581920903955	36.241610738255	16	0.533399872034788	2	6	6	NaN	1	3	0.0498346531438693	1	1	NaN	146	3	20	1	121	221	321	NaN	521	0.181617579888552	1	1	NaN	1382435.0614402	NaN	1382436.0447195	1382436.56129812
4	19	1	0	90	36.1581920903955	36.241610738255	0	0	1	11	4	NaN	2	5	0.0498346531438693	1	1	NaN	147	3	21	1	111	211	311	NaN	511	0.4495284834411	2	1	NaN	1382437.5615921	NaN	1382438.5449647	1382439.06154112
4	19	1	0	90	36.1581920903955	36.241610738255	9	0.300037428019568	2	4	5	NaN	1	4	0.0498346531438693	1	1	NaN	148	3	22	1	121	221	321	NaN	521	0.474504731595516	1	1	NaN	1382440.3285628	NaN	1382441.3119251	1382441.82848247
4	19	1	0	90	36.1581920903955	36.241610738255	20	0.666749840043485	2	11	6	NaN	2	3	0.0498346531438693	1	1	NaN	149	3	23	1	121	221	321	NaN	521	0.37529979669489	1	0	NaN	1382443.2121282	NaN	1382444.1955274	1382444.7121081
4	19	1	0	90	36.1581920903955	36.241610738255	25	0.833437300054356	2	10	5	NaN	2	4	0.0498346531438693	1	1	NaN	150	3	24	1	121	221	321	NaN	521	0.267013631761074	1	0	NaN	1382445.9124312	NaN	1382446.8957998	1382447.41236547
4	19	1	0	90	36.1581920903955	36.241610738255	16	0.533399872034788	2	8	4	NaN	2	5	0.0498346531438693	1	1	NaN	151	3	25	1	121	221	321	NaN	521	0.306877531809732	1	0	NaN	1382448.4958798	NaN	1382449.4793928	1382449.99595257
4	19	1	0	90	36.1581920903955	36.241610738255	19	0.633412348041311	2	7	1	NaN	2	5	0.0498346531438693	1	1	NaN	152	3	26	1	121	221	321	NaN	521	0.0103958316612989	1	0	NaN	1382451.1129285	NaN	1382452.0963271	1382452.61287527
4	19	1	0	90	36.1581920903955	36.241610738255	20	0.666749840043485	2	7	5	NaN	2	5	0.0498346531438693	1	1	NaN	153	3	27	1	121	221	321	NaN	521	0.44527023169212	1	0	NaN	1382453.4297121	NaN	1382454.4132364	1382454.92976617
4	19	1	0	90	36.1581920903955	36.241610738255	9	0.300037428019568	2	2	5	NaN	1	5	0.0498346531438693	1	1	NaN	154	3	28	1	121	221	321	NaN	521	0.214285779977217	1	1	NaN	1382456.1967541	NaN	1382457.1801533	1382457.69672002
4	19	1	0	90	36.1581920903955	36.241610738255	13	0.433387396028265	2	11	2	NaN	2	4	0.0498346531438693	1	1	NaN	155	3	29	1	121	221	321	NaN	521	0.296571179991588	1	0	NaN	1382458.7303337	NaN	1382459.7137159	1382460.23028552
4	19	1	0	90	36.1581920903955	36.241610738255	17	0.566737364036962	2	9	6	NaN	2	3	0.0498346531438693	1	1	NaN	156	3	30	1	121	221	321	NaN	521	0.0965926798526198	1	0	NaN	1382461.3305964	NaN	1382462.3139945	1382462.83054242
4	19	1	0	90	36.1581920903955	36.241610738255	17	0.566737364036962	2	5	3	NaN	1	5	0.0498346531438693	1	1	NaN	157	3	31	1	121	221	321	NaN	521	0.0103924316354096	1	1	NaN	1382463.7308468	NaN	1382464.7142157	1382465.23078387
4	19	1	0	90	36.1581920903955	36.241610738255	25	0.833437300054356	2	6	5	NaN	1	4	0.0498346531438693	1	1	NaN	158	3	32	1	121	221	321	NaN	521	0.211834779940546	1	1	NaN	1382466.0477337	NaN	1382467.0311219	1382467.54767952
4	19	1	0	90	36.1581920903955	36.241610738255	18	0.600074856039137	2	10	6	NaN	2	3	0.0498346531438693	1	1	NaN	159	3	33	1	121	221	321	NaN	521	0.0103947315365076	1	0	NaN	1382468.5646494	NaN	1382469.5480421	1382470.06459987
4	19	1	0	90	36.1581920903955	36.241610738255	13	0.433387396028265	2	2	1	NaN	1	4	0.0498346531438693	1	1	NaN	160	3	34	1	121	221	321	NaN	521	0.0103911317419261	1	1	NaN	1382470.8815459	NaN	1382471.864937	1382472.38150297
4	19	1	0	90	36.1581920903955	36.241610738255	21	0.700087332045659	2	2	5	NaN	1	3	0.0498346531438693	1	1	NaN	161	3	35	1	121	221	321	NaN	521	0.0103914318606257	1	1	NaN	1382473.19845	NaN	1382474.1818103	1382474.69838967
4	19	1	0	90	36.1581920903955	36.241610738255	22	0.733424824047834	2	9	5	NaN	2	3	0.0498346531438693	1	1	NaN	162	3	36	1	121	221	321	NaN	521	0.0103781833313406	1	0	NaN	1382475.5153721	NaN	1382476.4987841	1382477.01527652
4	19	1	0	90	36.1581920903955	36.241610738255	13	0.433387396028265	2	10	6	NaN	2	4	0.0498346531438693	1	1	NaN	163	3	37	1	121	221	321	NaN	521	0.257211479824036	1	0	NaN	1382478.0821172	NaN	1382479.0656542	1382479.58220402
4	19	1	0	90	36.1581920903955	36.241610738255	22	0.733424824047834	2	3	3	NaN	1	5	0.0498346531438693	1	1	NaN	164	3	38	1	121	221	321	NaN	521	0.218282480025664	1	1	NaN	1382480.6492197	NaN	1382481.632554	1382482.14910772
4	19	1	0	90	36.1581920903955	36.241610738255	13	0.433387396028265	2	10	5	NaN	2	5	0.0498346531438693	1	1	NaN	165	3	39	1	121	221	321	NaN	521	0.0104896798729897	2	1	NaN	1382483.1826228	NaN	1382484.1661388	1382484.68270802
4	19	1	0	90	36.1581920903955	36.241610738255	17	0.566737364036962	2	11	4	NaN	2	5	0.0498346531438693	1	1	NaN	166	3	40	1	121	221	321	NaN	521	1.61550873168744	1	0	NaN	1382485.4996573	NaN	1382486.4830162	1382486.99959897
4	19	1	0	90	36.1581920903955	36.241610738255	19	0.633412348041311	2	11	6	NaN	2	5	0.0498346531438693	1	1	NaN	167	3	41	1	121	221	321	NaN	521	0.0103942316491157	2	1	NaN	1382489.4333654	NaN	1382490.4167532	1382490.93330907
4	19	1	0	90	36.1581920903955	36.241610738255	0	0	1	12	4	NaN	2	3	0.0498346531438693	1	1	NaN	168	3	42	1	111	211	311	NaN	511	0.0103816834744066	2	1	NaN	1382491.7502427	NaN	1382492.7337013	1382493.25020092
4	19	1	0	90	36.1581920903955	36.241610738255	20	0.666749840043485	2	12	4	NaN	2	5	0.0498346531438693	1	1	NaN	169	3	43	1	121	221	321	NaN	521	0.0103928316384554	2	1	NaN	1382494.0671731	NaN	1382495.0505391	1382495.56710127
4	19	1	0	90	36.1581920903955	36.241610738255	10	0.333374920021743	2	5	2	NaN	1	3	0.0498346531438693	1	1	NaN	170	3	44	1	121	221	321	NaN	521	0.274233031552285	1	1	NaN	1382496.400727	NaN	1382497.3841023	1382497.90067027
4	19	1	0	90	36.1581920903955	36.241610738255	16	0.533399872034788	2	6	3	NaN	1	5	0.0498346531438693	1	1	NaN	171	3	45	1	121	221	321	NaN	521	0.275243176613003	2	0	NaN	1382498.9843224	NaN	1382499.9676895	1382500.48425432
4	19	1	0	90	36.1581920903955	36.241610738255	15	0.500062380032614	2	11	3	NaN	2	3	0.0498346531438693	1	1	NaN	172	3	46	1	121	221	321	NaN	521	0.243229779880494	2	1	NaN	1382501.5677498	NaN	1382502.5513089	1382503.06783342
4	19	1	0	90	36.1581920903955	36.241610738255	16	0.533399872034788	2	5	5	NaN	1	3	0.0498346531438693	1	1	NaN	173	3	47	1	121	221	321	NaN	521	0.148400076664984	2	0	NaN	1382504.1348002	NaN	1382505.118207	1382505.63475222
4	19	1	0	90	36.1581920903955	36.241610738255	22	0.733424824047834	2	4	6	NaN	1	3	0.0498346531438693	1	1	NaN	174	3	48	1	121	221	321	NaN	521	0.417758980067447	1	1	NaN	1382506.6017905	NaN	1382507.5851213	1382508.10166722
4	19	1	0	90	36.1581920903955	36.241610738255	12	0.400049904026091	2	1	4	NaN	1	5	0.0498346531438693	1	1	NaN	175	3	49	1	121	221	321	NaN	521	0.299692331580445	1	1	NaN	1382509.3353399	NaN	1382510.3187498	1382510.83527547
4	19	1	0	90	36.1581920903955	36.241610738255	12	0.400049904026091	2	12	5	NaN	2	3	0.0498346531438693	1	1	NaN	176	3	50	1	121	221	321	NaN	521	0.0103943317662925	2	1	NaN	1382511.952286	NaN	1382512.9356326	1382513.45219637
4	19	1	0	90	36.1581920903955	36.241610738255	14	0.46672488803044	2	1	3	NaN	1	3	0.0498346531438693	1	1	NaN	177	3	51	1	121	221	321	NaN	521	0.118048431584612	1	1	NaN	1382514.2691437	NaN	1382515.2525399	1382515.76909447
4	19	1	0	90	36.1581920903955	36.241610738255	11	0.366712412023917	2	1	2	NaN	1	4	0.0498346531438693	1	1	NaN	178	3	52	1	121	221	321	NaN	521	0.420395280001685	1	1	NaN	1382516.7027166	NaN	1382517.6861157	1382518.20265442
4	19	1	0	90	36.1581920903955	36.241610738255	12	0.400049904026091	2	12	1	NaN	2	4	0.0498346531438693	1	1	NaN	179	3	53	1	121	221	321	NaN	521	0.0709428316913545	1	0	NaN	1382519.4363047	NaN	1382520.4197886	1382520.93626557
4	19	1	0	90	36.1581920903955	36.241610738255	7	0.23336244401522	2	11	1	NaN	2	4	0.0498346531438693	1	1	NaN	180	3	54	1	121	221	321	NaN	521	0.223520379979163	1	0	NaN	1382521.8199038	NaN	1382522.8033092	1382523.31982752
4	19	1	0	90	36.1581920903955	36.241610738255	6	0.200024952013046	2	10	4	NaN	2	3	0.0498346531438693	1	1	NaN	181	3	55	1	121	221	321	NaN	521	0.258051479933783	1	0	NaN	1382524.3534701	NaN	1382525.3368588	1382525.85341462
4	19	1	0	90	36.1581920903955	36.241610738255	17	0.566737364036962	2	2	4	NaN	1	4	0.0498346531438693	1	1	NaN	182	3	56	1	121	221	321	NaN	521	0.0831024833023548	1	1	NaN	1382526.9203865	NaN	1382527.9037922	1382528.42033902
4	19	1	0	90	36.1581920903955	36.241610738255	24	0.800099808052182	2	4	4	NaN	1	5	0.0498346531438693	1	1	NaN	183	3	57	1	121	221	321	NaN	521	0.260540431598201	1	1	NaN	1382529.4705105	NaN	1382530.4540555	1382530.97058337
4	19	1	0	90	36.1581920903955	36.241610738255	0	0	1	6	1	NaN	1	5	0.0498346531438693	1	1	NaN	184	3	58	1	111	211	311	NaN	511	0.010391931515187	1	1	NaN	1382532.0374892	NaN	1382533.0209501	1382533.53750827
4	19	1	0	90	36.1581920903955	36.241610738255	9	0.300037428019568	2	10	2	NaN	2	3	0.0498346531438693	1	1	NaN	185	3	59	1	121	221	321	NaN	521	0.0104207801632583	2	1	NaN	1382534.3544377	NaN	1382535.3378316	1382535.85439132
4	19	1	0	90	36.1581920903955	36.241610738255	7	0.23336244401522	2	1	4	NaN	1	3	0.0498346531438693	1	1	NaN	186	3	60	1	121	221	321	NaN	521	0.0104104799684137	1	1	NaN	1382536.6713449	NaN	1382537.6547231	1382538.17128582
4	19	1	0	90	36.1581920903955	36.241610738255	8	0.266699936017394	2	7	2	NaN	2	5	0.0498346531438693	1	1	NaN	187	3	61	1	121	221	321	NaN	521	0.527350231772289	1	0	NaN	1382538.9882439	NaN	1382539.9716581	1382540.48818817
4	19	1	0	90	36.1581920903955	36.241610738255	24	0.800099808052182	2	5	5	NaN	1	5	0.0498346531438693	1	1	NaN	188	3	62	1	121	221	321	NaN	521	0.282293131574988	1	1	NaN	1382542.3052053	NaN	1382543.2886711	1382543.80518547
4	19	1	0	90	36.1581920903955	36.241610738255	22	0.733424824047834	2	3	5	NaN	1	3	0.0498346531438693	1	1	NaN	189	3	63	1	121	221	321	NaN	521	0.0743817316833884	1	1	NaN	1382544.8888195	NaN	1382545.8722038	1382546.38877307
4	19	1	0	90	36.1581920903955	36.241610738255	19	0.633412348041311	2	6	2	NaN	1	4	0.0498346531438693	1	1	NaN	190	4	1	1	121	221	321	NaN	521	0.269931931747124	1	1	NaN	1382678.8853338	NaN	1382679.8687148	1382680.38527347
4	19	1	0	90	36.1581920903955	36.241610738255	17	0.566737364036962	2	3	6	NaN	1	5	0.0498346531438693	1	1	NaN	191	4	2	1	121	221	321	NaN	521	0.246459031477571	1	1	NaN	1382681.4689217	NaN	1382682.4523129	1382682.96887027
4	19	1	0	90	36.1581920903955	36.241610738255	25	0.833437300054356	2	8	2	NaN	2	3	0.0498346531438693	1	1	NaN	192	4	3	1	121	221	321	NaN	521	0.424317331518978	1	0	NaN	1382684.0191563	NaN	1382685.0025526	1382685.51911737
4	19	1	0	90	36.1581920903955	36.241610738255	7	0.23336244401522	2	2	2	NaN	1	5	0.0498346531438693	1	1	NaN	193	4	4	1	121	221	321	NaN	521	0.210593631723896	1	1	NaN	1382686.7527772	NaN	1382687.7361775	1382688.25272217
4	19	1	0	90	36.1581920903955	36.241610738255	9	0.300037428019568	2	12	6	NaN	2	5	0.0498346531438693	1	1	NaN	194	4	5	1	121	221	321	NaN	521	0.302071031648666	2	1	NaN	1382689.2696837	NaN	1382690.2530877	1382690.76963407
4	19	1	0	90	36.1581920903955	36.241610738255	21	0.700087332045659	2	6	2	NaN	1	5	0.0498346531438693	1	1	NaN	195	4	6	1	121	221	321	NaN	521	0.268996380036697	1	1	NaN	1382691.8866156	NaN	1382692.8700126	1382693.38657782
4	19	1	0	90	36.1581920903955	36.241610738255	8	0.266699936017394	2	2	6	NaN	1	4	0.0498346531438693	1	1	NaN	196	4	7	1	121	221	321	NaN	521	0.198285831604153	1	1	NaN	1382694.453531	NaN	1382695.436818	1382695.95347987
4	19	1	0	90	36.1581920903955	36.241610738255	13	0.433387396028265	2	12	1	NaN	2	5	0.0498346531438693	1	1	NaN	197	4	8	1	121	221	321	NaN	521	0.289703579852358	1	0	NaN	1382696.9538184	NaN	1382697.9371693	1382698.45371722
4	19	1	0	90	36.1581920903955	36.241610738255	23	0.766762316050008	2	4	1	NaN	1	5	0.0498346531438693	1	1	NaN	198	4	9	1	121	221	321	NaN	521	0.145458331564441	1	1	NaN	1382699.5540223	NaN	1382700.5374167	1382701.05398527
4	19	1	0	90	36.1581920903955	36.241610738255	17	0.566737364036962	2	4	6	NaN	1	3	0.0498346531438693	1	1	NaN	199	4	10	1	121	221	321	NaN	521	0.0103929315228015	1	1	NaN	1382702.0041414	NaN	1382702.987659	1382703.50422397
4	19	1	0	90	36.1581920903955	36.241610738255	14	0.46672488803044	2	8	5	NaN	2	4	0.0498346531438693	1	1	NaN	200	4	11	1	121	221	321	NaN	521	0.0104050314985216	1	0	NaN	1382704.3211512	NaN	1382705.3045468	1382705.82111707
4	19	1	0	90	36.1581920903955	36.241610738255	18	0.600074856039137	2	4	6	NaN	1	4	0.0498346531438693	1	1	NaN	201	4	12	1	121	221	321	NaN	521	0.0104052799288183	1	1	NaN	1382706.6380629	NaN	1382707.6213506	1382708.13800602
4	19	1	0	90	36.1581920903955	36.241610738255	11	0.366712412023917	2	10	6	NaN	2	3	0.0498346531438693	1	1	NaN	202	4	13	1	121	221	321	NaN	521	0.272383031668141	1	0	NaN	1382708.9548231	NaN	1382709.9383633	1382710.45490387
4	19	1	0	90	36.1581920903955	36.241610738255	7	0.23336244401522	2	7	6	NaN	2	5	0.0498346531438693	1	1	NaN	203	4	14	1	121	221	321	NaN	521	0.225229879841208	2	1	NaN	1382711.5384772	NaN	1382712.5219494	1382713.03848472
4	19	1	0	90	36.1581920903955	36.241610738255	12	0.400049904026091	2	10	4	NaN	2	4	0.0498346531438693	1	1	NaN	204	4	15	1	121	221	321	NaN	521	0.203254731604829	1	0	NaN	1382714.0719908	NaN	1382715.0555032	1382715.57207037
4	19	1	0	90	36.1581920903955	36.241610738255	18	0.600074856039137	2	6	2	NaN	1	3	0.0498346531438693	1	1	NaN	205	4	16	1	121	221	321	NaN	521	0.198522931663319	1	1	NaN	1382716.5890353	NaN	1382717.5724334	1382718.08899257
4	19	1	0	90	36.1581920903955	36.241610738255	9	0.300037428019568	2	6	5	NaN	1	5	0.0498346531438693	1	1	NaN	206	4	17	1	121	221	321	NaN	521	0.298204831779003	1	1	NaN	1382719.0892894	NaN	1382720.0726587	1382720.58924007
4	19	1	0	90	36.1581920903955	36.241610738255	17	0.566737364036962	2	7	5	NaN	2	4	0.0498346531438693	1	1	NaN	207	4	18	1	121	221	321	NaN	521	0.201287931529805	2	1	NaN	1382721.7062038	NaN	1382722.6896354	1382723.20616337
4	19	1	0	90	36.1581920903955	36.241610738255	17	0.566737364036962	2	1	4	NaN	1	4	0.0498346531438693	1	1	NaN	208	4	19	1	121	221	321	NaN	521	0.148736380040646	1	1	NaN	1382724.2231224	NaN	1382725.2065187	1382725.72306382
4	19	1	0	90	36.1581920903955	36.241610738255	10	0.333374920021743	2	7	1	NaN	2	4	0.0498346531438693	1	1	NaN	209	4	20	1	121	221	321	NaN	521	0.265346831642091	2	1	NaN	1382726.6900081	NaN	1382727.6734157	1382728.18998227
4	19	1	0	90	36.1581920903955	36.241610738255	24	0.800099808052182	2	11	6	NaN	2	3	0.0498346531438693	1	1	NaN	210	4	21	1	121	221	321	NaN	521	0.217931931838393	2	1	NaN	1382729.273623	NaN	1382730.2570204	1382730.77357507
4	19	1	0	90	36.1581920903955	36.241610738255	11	0.366712412023917	2	3	3	NaN	1	3	0.0498346531438693	1	1	NaN	211	4	22	1	121	221	321	NaN	521	1.17793898005038	1	1	NaN	1382731.8738671	NaN	1382732.857268	1382733.37381872
4	19	1	0	90	36.1581920903955	36.241610738255	11	0.366712412023917	2	6	4	NaN	1	3	0.0498346531438693	1	1	NaN	212	4	23	1	121	221	321	NaN	521	0.4451807315927	1	1	NaN	1382735.5742046	NaN	1382736.5576115	1382737.07418997
4	19	1	0	90	36.1581920903955	36.241610738255	19	0.633412348041311	2	8	3	NaN	2	3	0.0498346531438693	1	1	NaN	213	4	24	1	121	221	321	NaN	521	1.999351444887	1	0	NaN	1382738.3245549	NaN	1382739.3079019	1382739.82446936
4	19	1	0	90	36.1581920903955	36.241610738255	14	0.46672488803044	2	11	6	NaN	2	3	0.0498346531438693	1	1	NaN	214	4	25	1	121	221	321	NaN	521	0.297645283397287	2	1	NaN	1382742.6414463	NaN	1382743.6249978	1382744.14155062
4	19	1	0	90	36.1581920903955	36.241610738255	9	0.300037428019568	2	8	1	NaN	2	5	0.0498346531438693	1	1	NaN	215	4	26	1	121	221	321	NaN	521	0.240909883519635	2	1	NaN	1382745.2585072	NaN	1382746.2419184	1382746.75847042
4	19	1	0	90	36.1581920903955	36.241610738255	25	0.833437300054356	2	9	5	NaN	2	3	0.0498346531438693	1	1	NaN	216	4	27	1	121	221	321	NaN	521	0.194758131634444	2	1	NaN	1382747.8087771	NaN	1382748.792179	1382749.30872807
4	19	1	0	90	36.1581920903955	36.241610738255	8	0.266699936017394	2	10	5	NaN	2	4	0.0498346531438693	1	1	NaN	217	4	28	1	121	221	321	NaN	521	0.010300841415301	2	1	NaN	1382750.3090088	NaN	1382751.2924374	1382751.80897436
4	19	1	0	90	36.1581920903955	36.241610738255	25	0.833437300054356	2	1	6	NaN	1	3	0.0498346531438693	1	1	NaN	218	4	29	1	121	221	321	NaN	521	0.0104331765323877	1	1	NaN	1382752.6259083	NaN	1382753.6093169	1382754.12585832
4	19	1	0	90	36.1581920903955	36.241610738255	24	0.800099808052182	2	12	5	NaN	2	3	0.0498346531438693	1	1	NaN	219	4	30	1	121	221	321	NaN	521	0.0104105798527598	2	1	NaN	1382754.9428111	NaN	1382755.9261985	1382756.44275712
4	19	1	0	90	36.1581920903955	36.241610738255	25	0.833437300054356	2	6	2	NaN	1	3	0.0498346531438693	1	1	NaN	220	4	31	1	121	221	321	NaN	521	0.991782931610942	1	1	NaN	1382757.2596291	NaN	1382758.2430893	1382758.75965817
4	19	1	0	90	36.1581920903955	36.241610738255	22	0.733424824047834	2	1	1	NaN	1	5	0.0498346531438693	1	1	NaN	221	4	32	1	121	221	321	NaN	521	0.243466331623495	1	1	NaN	1382760.5600131	NaN	1382761.5434227	1382762.05998517
4	19	1	0	90	36.1581920903955	36.241610738255	22	0.733424824047834	2	8	5	NaN	2	3	0.0498346531438693	1	1	NaN	222	4	33	1	121	221	321	NaN	521	0.332665380090475	1	0	NaN	1382763.1269507	NaN	1382764.1103264	1382764.62690012
4	19	1	0	90	36.1581920903955	36.241610738255	13	0.433387396028265	2	4	5	NaN	1	4	0.0498346531438693	1	1	NaN	223	4	34	1	121	221	321	NaN	521	0.290323531487957	1	1	NaN	1382765.7772053	NaN	1382766.7606016	1382767.27716537
4	19	1	0	90	36.1581920903955	36.241610738255	25	0.833437300054356	2	8	1	NaN	2	5	0.0498346531438693	1	1	NaN	224	4	35	1	121	221	321	NaN	521	0.265958976466209	2	1	NaN	1382768.3774493	NaN	1382769.3608485	1382769.87740902
4	19	1	0	90	36.1581920903955	36.241610738255	22	0.733424824047834	2	11	3	NaN	2	3	0.0498346531438693	1	1	NaN	225	4	36	1	121	221	321	NaN	521	0.386435880092904	1	0	NaN	1382770.9610804	NaN	1382771.9444457	1382772.46099512
4	19	1	0	90	36.1581920903955	36.241610738255	19	0.633412348041311	2	5	2	NaN	1	3	0.0498346531438693	1	1	NaN	226	4	37	1	121	221	321	NaN	521	0.574291583383456	1	1	NaN	1382773.6613025	NaN	1382774.6447135	1382775.16127132
4	19	1	0	90	36.1581920903955	36.241610738255	8	0.266699936017394	2	4	4	NaN	1	3	0.0498346531438693	1	1	NaN	227	4	38	1	121	221	321	NaN	521	0.664314379915595	1	1	NaN	1382778.7951283	NaN	1382779.7785548	1382780.29510972
4	19	1	0	90	36.1581920903955	36.241610738255	12	0.400049904026091	2	5	2	NaN	1	5	0.0498346531438693	1	1	NaN	228	4	39	1	121	221	321	NaN	521	0.161159831564873	1	1	NaN	1382781.7787875	NaN	1382782.7621732	1382783.27873787
4	19	1	0	90	36.1581920903955	36.241610738255	7	0.23336244401522	2	12	4	NaN	2	5	0.0498346531438693	1	1	NaN	229	4	40	1	121	221	321	NaN	521	0.0104051316156983	2	1	NaN	1382784.2623568	NaN	1382785.2458282	1382785.76231667
4	19	1	0	90	36.1581920903955	36.241610738255	19	0.633412348041311	2	9	3	NaN	2	5	0.0498346531438693	1	1	NaN	230	4	41	1	121	221	321	NaN	521	1.37595153157599	1	0	NaN	1382786.5958663	NaN	1382787.5792991	1382788.09587487
4	19	1	0	90	36.1581920903955	36.241610738255	24	0.800099808052182	2	6	2	NaN	1	4	0.0498346531438693	1	1	NaN	231	4	42	1	121	221	321	NaN	521	0.243999880040064	1	1	NaN	1382790.2796153	NaN	1382791.2630108	1382791.77956742
4	19	1	0	90	36.1581920903955	36.241610738255	20	0.666749840043485	2	10	1	NaN	2	3	0.0498346531438693	1	1	NaN	232	4	43	1	121	221	321	NaN	521	0.0215870765969157	1	0	NaN	1382792.8298623	NaN	1382793.8132503	1382794.32982852
4	19	1	0	90	36.1581920903955	36.241610738255	22	0.733424824047834	2	8	5	NaN	2	4	0.0498346531438693	1	1	NaN	233	4	44	1	121	221	321	NaN	521	0.010339338099584	1	0	NaN	1382795.1634403	NaN	1382796.1468594	1382796.66338856
4	19	1	0	90	36.1581920903955	36.241610738255	22	0.733424824047834	2	6	1	NaN	1	3	0.0498346531438693	1	1	NaN	234	4	45	1	121	221	321	NaN	521	0.0104047318454832	1	1	NaN	1382797.4969992	NaN	1382798.4803957	1382798.99694747
4	19	1	0	90	36.1581920903955	36.241610738255	19	0.633412348041311	2	1	1	NaN	1	3	0.0498346531438693	1	1	NaN	235	4	46	1	121	221	321	NaN	521	0.197505480144173	1	1	NaN	1382799.8138817	NaN	1382800.7972922	1382801.31383662
4	19	1	0	90	36.1581920903955	36.241610738255	16	0.533399872034788	2	9	3	NaN	2	5	0.0498346531438693	1	1	NaN	236	4	47	1	121	221	321	NaN	521	0.010433980030939	1	0	NaN	1382802.3307216	NaN	1382803.3142027	1382803.83077622
4	19	1	0	90	36.1581920903955	36.241610738255	20	0.666749840043485	2	8	1	NaN	2	5	0.0498346531438693	1	1	NaN	237	4	48	1	121	221	321	NaN	521	0.203760331496596	1	0	NaN	1382804.6476927	NaN	1382805.6310882	1382806.14765247
4	19	1	0	90	36.1581920903955	36.241610738255	0	0	1	8	5	NaN	2	5	0.0498346531438693	1	1	NaN	238	4	49	1	111	211	311	NaN	511	0.0469149316195399	1	0	NaN	1382807.1646431	NaN	1382808.1480079	1382808.66456877
4	19	1	0	90	36.1581920903955	36.241610738255	14	0.46672488803044	2	5	6	NaN	1	5	0.0498346531438693	1	1	NaN	239	4	50	1	121	221	321	NaN	521	0.010391931515187	1	1	NaN	1382809.5315159	NaN	1382810.5149134	1382811.03146087
4	19	1	0	90	36.1581920903955	36.241610738255	15	0.500062380032614	2	7	4	NaN	2	3	0.0498346531438693	1	1	NaN	240	4	51	1	121	221	321	NaN	521	0.0102720449212939	2	1	NaN	1382811.8483968	NaN	1382812.8317961	1382813.34836606
4	19	1	0	90	36.1581920903955	36.241610738255	18	0.600074856039137	2	7	2	NaN	2	3	0.0498346531438693	1	1	NaN	241	4	52	1	121	221	321	NaN	521	0.278624079888687	1	0	NaN	1382814.1653001	NaN	1382815.1486818	1382815.66524762
4	19	1	0	90	36.1581920903955	36.241610738255	0	0	1	3	2	NaN	1	5	0.0498346531438693	1	1	NaN	242	4	53	1	111	211	311	NaN	511	0.0103757833130658	1	1	NaN	1382819.5991435	NaN	1382820.5825582	1382821.09911722
4	19	1	0	90	36.1581920903955	36.241610738255	21	0.700087332045659	2	7	1	NaN	2	4	0.0498346531438693	1	1	NaN	243	4	54	1	121	221	321	NaN	521	0.010444076731801	2	1	NaN	1382821.9160675	NaN	1382822.8994971	1382823.41600762
4	19	1	0	90	36.1581920903955	36.241610738255	24	0.800099808052182	2	8	5	NaN	2	5	0.0498346531438693	1	1	NaN	244	4	55	1	121	221	321	NaN	521	0.106691183522344	2	1	NaN	1382824.2329756	NaN	1382825.2163338	1382825.73290902
4	19	1	0	90	36.1581920903955	36.241610738255	18	0.600074856039137	2	9	4	NaN	2	5	0.0498346531438693	1	1	NaN	245	4	56	1	121	221	321	NaN	521	0.465891279978678	2	1	NaN	1382826.6498572	NaN	1382827.6332469	1382828.14980592
4	19	1	0	90	36.1581920903955	36.241610738255	18	0.600074856039137	2	10	4	NaN	2	3	0.0498346531438693	1	1	NaN	246	4	57	1	121	221	321	NaN	521	0.0103882316034287	1	0	NaN	1382829.4333253	NaN	1382830.4168657	1382830.93341967
4	19	1	0	90	36.1581920903955	36.241610738255	7	0.23336244401522	2	7	6	NaN	2	5	0.0498346531438693	1	1	NaN	247	4	58	1	121	221	321	NaN	521	0.18922808021307	2	1	NaN	1382831.7503694	NaN	1382832.7337676	1382833.25030512
4	19	1	0	90	36.1581920903955	36.241610738255	25	0.833437300054356	2	12	2	NaN	2	5	0.0498346531438693	1	1	NaN	248	4	59	1	121	221	321	NaN	521	0.188664145069197	2	1	NaN	1382834.3673019	NaN	1382835.3506874	1382835.86724486
4	19	1	0	90	36.1581920903955	36.241610738255	17	0.566737364036962	2	6	6	NaN	1	4	0.0498346531438693	1	1	NaN	249	4	60	1	121	221	321	NaN	521	0.447987379971892	2	0	NaN	1382836.8675616	NaN	1382837.8509379	1382838.36747582
4	19	1	0	90	36.1581920903955	36.241610738255	16	0.533399872034788	2	8	2	NaN	2	3	0.0498346531438693	1	1	NaN	250	4	61	1	121	221	321	NaN	521	0.281114589888602	2	1	NaN	1382839.6343779	NaN	1382840.6178512	1382841.13442791
4	19	1	0	90	36.1581920903955	36.241610738255	25	0.833437300054356	2	2	3	NaN	1	5	0.0498346531438693	1	1	NaN	251	4	62	1	121	221	321	NaN	521	0.0103919317480177	1	1	NaN	1382842.2347301	NaN	1382843.2181505	1382843.73468367
4	19	1	0	90	36.1581920903955	36.241610738255	0	0	1	8	6	NaN	2	3	0.0498346531438693	1	1	NaN	252	4	63	1	111	211	311	NaN	511	0.147958676796407	2	1	NaN	1382844.5515898	NaN	1382845.5350105	1382846.05157112
4	19	1	0	90	36.1581920903955	36.241610738255	22	0.733424824047834	2	5	3	NaN	1	3	0.0498346531438693	1	1	NaN	253	5	1	1	121	221	321	NaN	521	0.862812331644818	1	1	NaN	1382965.9968694	NaN	1382966.9803036	1382967.49684657
4	19	1	0	90	36.1581920903955	36.241610738255	21	0.700087332045659	2	10	5	NaN	2	5	0.0498346531438693	1	1	NaN	254	5	2	1	121	221	321	NaN	521	0.255805331747979	1	0	NaN	1382969.1638774	NaN	1382970.1472732	1382970.66382857
4	19	1	0	90	36.1581920903955	36.241610738255	15	0.500062380032614	2	3	2	NaN	1	4	0.0498346531438693	1	1	NaN	255	5	3	1	121	221	321	NaN	521	0.176975231617689	1	1	NaN	1382971.7308181	NaN	1382972.7141995	1382973.23074307
4	19	1	0	90	36.1581920903955	36.241610738255	8	0.266699936017394	2	6	1	NaN	1	5	0.0498346531438693	1	1	NaN	256	5	4	1	121	221	321	NaN	521	0.253458831692114	1	1	NaN	1382974.2142383	NaN	1382975.1977621	1382975.71432237
4	19	1	0	90	36.1581920903955	36.241610738255	13	0.433387396028265	2	8	2	NaN	2	5	0.0498346531438693	1	1	NaN	257	5	5	1	121	221	321	NaN	521	0.894505876582116	2	1	NaN	1382976.7813065	NaN	1382977.7646695	1382978.28123212
4	19	1	0	90	36.1581920903955	36.241610738255	17	0.566737364036962	2	9	2	NaN	2	5	0.0498346531438693	1	1	NaN	258	5	6	1	121	221	321	NaN	521	0.190129028400406	2	1	NaN	1382979.981589	NaN	1382980.9650003	1382981.48154987
4	19	1	0	90	36.1581920903955	36.241610738255	20	0.666749840043485	2	12	6	NaN	2	4	0.0498346531438693	1	1	NaN	259	5	7	1	121	221	321	NaN	521	0.345792683307081	1	0	NaN	1382982.4818542	NaN	1382983.4652077	1382983.98180312
4	19	1	0	90	36.1581920903955	36.241610738255	0	0	1	3	4	NaN	1	5	0.0498346531438693	1	1	NaN	260	5	8	1	111	211	311	NaN	511	0.263487531803548	1	1	NaN	1382985.1321223	NaN	1382986.1155294	1382986.63206667
4	19	1	0	90	36.1581920903955	36.241610738255	7	0.23336244401522	2	8	6	NaN	2	4	0.0498346531438693	1	1	NaN	261	5	9	1	121	221	321	NaN	521	0.256697680102661	2	1	NaN	1382987.6989464	NaN	1382988.6824184	1382989.19897252
4	19	1	0	90	36.1581920903955	36.241610738255	24	0.800099808052182	2	3	1	NaN	1	3	0.0498346531438693	1	1	NaN	262	5	10	1	121	221	321	NaN	521	0.370185931678861	1	1	NaN	1382990.2659454	NaN	1382991.2493473	1382991.76589917
4	19	1	0	90	36.1581920903955	36.241610738255	9	0.300037428019568	2	7	2	NaN	2	3	0.0498346531438693	1	1	NaN	263	5	11	1	121	221	321	NaN	521	0.134151931619272	2	1	NaN	1382992.9494272	NaN	1382993.9329322	1382994.44949137
4	19	1	0	90	36.1581920903955	36.241610738255	23	0.766762316050008	2	10	5	NaN	2	5	0.0498346531438693	1	1	NaN	264	5	12	1	121	221	321	NaN	521	0.187896880088374	1	0	NaN	1382995.3998264	NaN	1382996.3831874	1382996.89973322
4	19	1	0	90	36.1581920903955	36.241610738255	14	0.46672488803044	2	10	1	NaN	2	4	0.0498346531438693	1	1	NaN	265	5	13	1	121	221	321	NaN	521	0.224185924977064	2	1	NaN	1382997.9000243	NaN	1382998.8834236	1382999.39997578
4	19	1	0	90	36.1581920903955	36.241610738255	22	0.733424824047834	2	10	6	NaN	2	4	0.0498346531438693	1	1	NaN	266	5	14	1	121	221	321	NaN	521	0.226227044826373	1	0	NaN	1383000.4336107	NaN	1383001.4170086	1383001.93358386
4	19	1	0	90	36.1581920903955	36.241610738255	9	0.300037428019568	2	7	3	NaN	2	5	0.0498346531438693	1	1	NaN	267	5	15	1	121	221	321	NaN	521	0.404594279825687	2	1	NaN	1383002.9672114	NaN	1383003.9505843	1383004.46715432
4	19	1	0	90	36.1581920903955	36.241610738255	12	0.400049904026091	2	11	5	NaN	2	4	0.0498346531438693	1	1	NaN	268	5	16	1	121	221	321	NaN	521	0.215657580178231	2	1	NaN	1383005.6841267	NaN	1383006.6675374	1383007.18407632
4	19	1	0	90	36.1581920903955	36.241610738255	20	0.666749840043485	2	10	4	NaN	2	5	0.0498346531438693	1	1	NaN	269	5	17	1	121	221	321	NaN	521	0.18628513161093	2	1	NaN	1383008.2177016	NaN	1383009.2011026	1383009.71766707
4	19	1	0	90	36.1581920903955	36.241610738255	6	0.200024952013046	2	4	2	NaN	1	5	0.0498346531438693	1	1	NaN	270	5	18	1	121	221	321	NaN	521	0.229925479972735	1	1	NaN	1383010.7179429	NaN	1383011.7013436	1383012.21790202
4	19	1	0	90	36.1581920903955	36.241610738255	23	0.766762316050008	2	3	4	NaN	1	5	0.0498346531438693	1	1	NaN	271	5	19	1	121	221	321	NaN	521	0.183613331755623	1	1	NaN	1383013.2680861	NaN	1383014.2515936	1383014.76816597
4	19	1	0	90	36.1581920903955	36.241610738255	12	0.400049904026091	2	3	6	NaN	1	3	0.0498346531438693	1	1	NaN	272	5	20	1	121	221	321	NaN	521	0.57983433175832	1	1	NaN	1383015.7684665	NaN	1383016.751863	1383017.26840397
4	19	1	0	90	36.1581920903955	36.241610738255	10	0.333374920021743	2	6	5	NaN	1	5	0.0498346531438693	1	1	NaN	273	5	21	1	121	221	321	NaN	521	0.255074796732515	2	0	NaN	1383018.6687443	NaN	1383019.652128	1383020.1686992
4	19	1	0	90	36.1581920903955	36.241610738255	15	0.500062380032614	2	4	3	NaN	1	4	0.0498346531438693	1	1	NaN	274	5	22	1	121	221	321	NaN	521	0.0103950316552073	1	1	NaN	1383021.2355478	NaN	1383022.2190551	1383022.73560637
4	19	1	0	90	36.1581920903955	36.241610738255	12	0.400049904026091	2	10	1	NaN	2	4	0.0498346531438693	1	1	NaN	275	5	23	1	121	221	321	NaN	521	0.010373383294791	1	0	NaN	1383023.5525426	NaN	1383024.535948	1383025.05252482
4	19	1	0	90	36.1581920903955	36.241610738255	11	0.366712412023917	2	4	4	NaN	1	4	0.0498346531438693	1	1	NaN	276	5	24	1	121	221	321	NaN	521	0.0104100317694247	1	1	NaN	1383026.9691731	NaN	1383027.9529489	1383028.46950837
4	19	1	0	90	36.1581920903955	36.241610738255	23	0.766762316050008	2	12	3	NaN	2	3	0.0498346531438693	1	1	NaN	277	5	25	1	121	221	321	NaN	521	0.0135337316896766	1	0	NaN	1383029.2864614	NaN	1383030.2698383	1383030.78640747
4	19	1	0	90	36.1581920903955	36.241610738255	19	0.633412348041311	2	2	5	NaN	1	4	0.0498346531438693	1	1	NaN	278	5	26	1	121	221	321	NaN	521	0.378373631741852	1	1	NaN	1383033.5534152	NaN	1383034.5369325	1383035.05349437
4	19	1	0	90	36.1581920903955	36.241610738255	20	0.666749840043485	2	11	1	NaN	2	3	0.0498346531438693	1	1	NaN	279	5	27	1	121	221	321	NaN	521	0.206860586768016	2	1	NaN	1383036.2371281	NaN	1383037.2205297	1383037.73708811
4	19	1	0	90	36.1581920903955	36.241610738255	21	0.700087332045659	2	1	3	NaN	1	3	0.0498346531438693	1	1	NaN	280	5	28	1	121	221	321	NaN	521	0.27390737994574	1	1	NaN	1383038.7540451	NaN	1383039.7374422	1383040.25399482
4	19	1	0	90	36.1581920903955	36.241610738255	15	0.500062380032614	2	7	5	NaN	2	3	0.0498346531438693	1	1	NaN	281	5	29	1	121	221	321	NaN	521	0.394367479952052	2	1	NaN	1383041.337612	NaN	1383042.3210279	1383042.83758392
4	19	1	0	90	36.1581920903955	36.241610738255	15	0.500062380032614	2	12	6	NaN	2	5	0.0498346531438693	1	1	NaN	282	5	30	1	121	221	321	NaN	521	0.742043731734157	1	0	NaN	1383044.0377884	NaN	1383045.0212967	1383045.53785617
4	19	1	0	90	36.1581920903955	36.241610738255	0	0	1	7	4	NaN	2	4	0.0498346531438693	1	1	NaN	283	5	31	1	111	211	311	NaN	511	0.284086131723598	1	0	NaN	1383047.0882431	NaN	1383048.0715967	1383048.58815587
4	19	1	0	90	36.1581920903955	36.241610738255	17	0.566737364036962	2	11	3	NaN	2	5	0.0498346531438693	1	1	NaN	284	5	32	1	121	221	321	NaN	521	0.419347180053592	1	0	NaN	1383049.6884147	NaN	1383050.6718529	1383051.18840822
4	19	1	0	90	36.1581920903955	36.241610738255	7	0.23336244401522	2	11	2	NaN	2	3	0.0498346531438693	1	1	NaN	285	5	33	1	121	221	321	NaN	521	0.0103472867049277	2	1	NaN	1383052.4220804	NaN	1383053.4054535	1383053.92201371
4	19	1	0	90	36.1581920903955	36.241610738255	15	0.500062380032614	2	5	4	NaN	1	4	0.0498346531438693	1	1	NaN	286	5	34	1	121	221	321	NaN	521	0.392778779845685	1	1	NaN	1383054.7388128	NaN	1383055.7223579	1383056.23889592
4	19	1	0	90	36.1581920903955	36.241610738255	10	0.333374920021743	2	7	5	NaN	2	3	0.0498346531438693	1	1	NaN	287	5	35	1	121	221	321	NaN	521	0.236704396549612	2	1	NaN	1383057.4392207	NaN	1383058.4226161	1383058.9391815
4	19	1	0	90	36.1581920903955	36.241610738255	25	0.833437300054356	2	11	6	NaN	2	4	0.0498346531438693	1	1	NaN	288	5	36	1	121	221	321	NaN	521	0.24672703165561	2	1	NaN	1383059.9894858	NaN	1383060.9728771	1383061.48942587
4	19	1	0	90	36.1581920903955	36.241610738255	23	0.766762316050008	2	8	1	NaN	2	5	0.0498346531438693	1	1	NaN	289	5	37	1	121	221	321	NaN	521	0.0103922318667173	1	0	NaN	1383062.5397232	NaN	1383063.5230937	1383064.03967357
4	19	1	0	90	36.1581920903955	36.241610738255	19	0.633412348041311	2	1	1	NaN	1	5	0.0498346531438693	1	1	NaN	290	5	38	1	121	221	321	NaN	521	0.179132983321324	1	1	NaN	1383064.8567197	NaN	1383065.8400409	1383066.35656032
4	19	1	0	90	36.1581920903955	36.241610738255	0	0	1	7	2	NaN	2	3	0.0498346531438693	1	1	NaN	291	5	39	1	111	211	311	NaN	511	0.167682431638241	1	0	NaN	1383067.3400891	NaN	1383068.3235778	1383068.84014927
4	19	1	0	90	36.1581920903955	36.241610738255	6	0.200024952013046	2	1	6	NaN	1	4	0.0498346531438693	1	1	NaN	292	5	40	1	121	221	321	NaN	521	0.131963541731238	2	0	NaN	1383069.8237588	NaN	1383070.8072038	1383071.32373846
4	19	1	0	90	36.1581920903955	36.241610738255	12	0.400049904026091	2	6	2	NaN	1	3	0.0498346531438693	1	1	NaN	293	5	41	1	121	221	321	NaN	521	0.0104197799228132	1	1	NaN	1383072.2573535	NaN	1383073.2407293	1383073.75729062
4	19	1	0	90	36.1581920903955	36.241610738255	20	0.666749840043485	2	1	5	NaN	1	4	0.0498346531438693	1	1	NaN	294	5	42	1	121	221	321	NaN	521	0.541130080120638	1	1	NaN	1383074.5909124	NaN	1383075.5742932	1383076.09086142
4	19	1	0	90	36.1581920903955	36.241610738255	19	0.633412348041311	2	4	1	NaN	1	5	0.0498346531438693	1	1	NaN	295	5	43	1	121	221	321	NaN	521	0.227135431719944	2	0	NaN	1383077.4411868	NaN	1383078.4245625	1383078.94113677
4	19	1	0	90	36.1581920903955	36.241610738255	13	0.433387396028265	2	5	6	NaN	1	3	0.0498346531438693	1	1	NaN	296	5	44	1	121	221	321	NaN	521	0.0104077800642699	1	1	NaN	1383079.9747604	NaN	1383080.958182	1383081.47471222
4	19	1	0	90	36.1581920903955	36.241610738255	10	0.333374920021743	2	10	1	NaN	2	5	0.0498346531438693	1	1	NaN	297	5	45	1	121	221	321	NaN	521	0.0103930316399783	2	1	NaN	1383082.3083322	NaN	1383083.2917215	1383083.80828357
4	19	1	0	90	36.1581920903955	36.241610738255	18	0.600074856039137	2	5	6	NaN	1	5	0.0498346531438693	1	1	NaN	298	5	46	1	121	221	321	NaN	521	0.114806831581518	1	1	NaN	1383084.6252199	NaN	1383085.6086028	1383086.12517807
4	19	1	0	90	36.1581920903955	36.241610738255	14	0.46672488803044	2	2	6	NaN	1	4	0.0498346531438693	1	1	NaN	299	5	47	1	121	221	321	NaN	521	0.010397931560874	1	1	NaN	1383087.0586718	NaN	1383088.0422208	1383088.55875117
4	19	1	0	90	36.1581920903955	36.241610738255	11	0.366712412023917	2	6	6	NaN	1	5	0.0498346531438693	1	1	NaN	300	5	48	1	121	221	321	NaN	521	0.172614680137485	2	0	NaN	1383089.375683	NaN	1383090.3590875	1383090.87564352
4	19	1	0	90	36.1581920903955	36.241610738255	8	0.266699936017394	2	1	1	NaN	1	4	0.0498346531438693	1	1	NaN	301	5	49	1	121	221	321	NaN	521	0.168547731591389	1	1	NaN	1383091.8592734	NaN	1383092.842668	1383093.35926257
4	19	1	0	90	36.1581920903955	36.241610738255	11	0.366712412023917	2	1	2	NaN	1	4	0.0498346531438693	1	1	NaN	302	5	50	1	121	221	321	NaN	521	0.0102810934185982	1	1	NaN	1383094.3428404	NaN	1383095.3262402	1383095.84279461
4	19	1	0	90	36.1581920903955	36.241610738255	21	0.700087332045659	2	2	2	NaN	1	3	0.0498346531438693	1	1	NaN	303	5	51	1	121	221	321	NaN	521	0.0103873834013939	1	1	NaN	1383096.6764115	NaN	1383097.659809	1383098.17636262
4	19	1	0	90	36.1581920903955	36.241610738255	20	0.666749840043485	2	6	4	NaN	1	3	0.0498346531438693	1	1	NaN	304	5	52	1	121	221	321	NaN	521	0.115223835222423	1	1	NaN	1383099.3766662	NaN	1383100.3600792	1383100.87661916
4	19	1	0	90	36.1581920903955	36.241610738255	10	0.333374920021743	2	12	4	NaN	2	3	0.0498346531438693	1	1	NaN	305	5	53	1	121	221	321	NaN	521	0.177674635080621	1	0	NaN	1383101.8102525	NaN	1383102.7936343	1383103.31020037
4	19	1	0	90	36.1581920903955	36.241610738255	25	0.833437300054356	2	2	1	NaN	1	3	0.0498346531438693	1	1	NaN	306	5	54	1	121	221	321	NaN	521	0.0103911317419261	2	0	NaN	1383104.2938477	NaN	1383105.2772144	1383105.79377697
4	19	1	0	90	36.1581920903955	36.241610738255	18	0.600074856039137	2	11	4	NaN	2	4	0.0498346531438693	1	1	NaN	307	5	55	1	121	221	321	NaN	521	0.145135531900451	2	1	NaN	1383106.610727	NaN	1383107.5941006	1383108.11067397
4	19	1	0	90	36.1581920903955	36.241610738255	24	0.800099808052182	2	1	6	NaN	1	5	0.0498346531438693	1	1	NaN	308	5	56	1	121	221	321	NaN	521	0.159399680094793	1	1	NaN	1383109.0610493	NaN	1383110.0443643	1383110.56091012
4	19	1	0	90	36.1581920903955	36.241610738255	14	0.46672488803044	2	6	1	NaN	1	5	0.0498346531438693	1	1	NaN	309	5	57	1	121	221	321	NaN	521	0.0360427317209542	1	1	NaN	1383111.5278933	NaN	1383112.5112456	1383113.02782647
4	19	1	0	90	36.1581920903955	36.241610738255	18	0.600074856039137	2	7	1	NaN	2	5	0.0498346531438693	1	1	NaN	310	5	58	1	121	221	321	NaN	521	0.010423680068925	2	1	NaN	1383113.8779707	NaN	1383114.8614798	1383115.37804922
4	19	1	0	90	36.1581920903955	36.241610738255	7	0.23336244401522	2	8	5	NaN	2	4	0.0498346531438693	1	1	NaN	311	5	59	1	121	221	321	NaN	521	0.0489558316767216	1	0	NaN	1383116.1950015	NaN	1383117.1783883	1383117.69494237
4	19	1	0	90	36.1581920903955	36.241610738255	12	0.400049904026091	2	2	2	NaN	1	4	0.0498346531438693	1	1	NaN	312	5	60	1	121	221	321	NaN	521	0.0104092799592763	2	0	NaN	1383118.5619052	NaN	1383119.5453282	1383120.06184992
4	19	1	0	90	36.1581920903955	36.241610738255	15	0.500062380032614	2	3	3	NaN	1	3	0.0498346531438693	1	1	NaN	313	5	61	1	121	221	321	NaN	521	0.0104264281690121	1	1	NaN	1383121.3121323	NaN	1383122.2955707	1383122.81211087
4	19	1	0	90	36.1581920903955	36.241610738255	8	0.266699936017394	2	9	2	NaN	2	3	0.0498346531438693	1	1	NaN	314	5	62	1	121	221	321	NaN	521	0.0104190800338984	2	1	NaN	1383123.6457312	NaN	1383124.629115	1383125.14567602
4	19	1	0	90	36.1581920903955	36.241610738255	15	0.500062380032614	2	11	2	NaN	2	3	0.0498346531438693	1	1	NaN	315	5	63	1	121	221	321	NaN	521	0.0893923316616565	2	1	NaN	1383125.9626243	NaN	1383126.9460032	1383127.46257507
4	19	1	0	90	36.1581920903955	36.241610738255	22	0.733424824047834	2	12	6	NaN	2	4	0.0498346531438693	1	1	NaN	316	6	1	1	121	221	321	NaN	521	0.86398263159208	2	1	NaN	1383192.4524694	NaN	1383193.4358773	1383193.95244287
4	19	1	0	90	36.1581920903955	36.241610738255	6	0.200024952013046	2	7	3	NaN	2	4	0.0498346531438693	1	1	NaN	317	6	2	1	121	221	321	NaN	521	0.464294780045748	2	1	NaN	1383195.6361509	NaN	1383196.6195527	1383197.13608242
4	19	1	0	90	36.1581920903955	36.241610738255	15	0.500062380032614	2	10	3	NaN	2	5	0.0498346531438693	1	1	NaN	318	6	3	1	121	221	321	NaN	521	0.408455031458288	2	1	NaN	1383198.419744	NaN	1383199.4031342	1383199.91970167
4	19	1	0	90	36.1581920903955	36.241610738255	6	0.200024952013046	2	6	6	NaN	1	3	0.0498346531438693	1	1	NaN	319	6	4	1	121	221	321	NaN	521	0.235202680109069	1	1	NaN	1383201.1366756	NaN	1383202.1200577	1383202.63662452
4	19	1	0	90	36.1581920903955	36.241610738255	9	0.300037428019568	2	1	6	NaN	1	4	0.0498346531438693	1	1	NaN	320	6	5	1	121	221	321	NaN	521	0.237487280042842	1	1	NaN	1383203.6869225	NaN	1383204.6703458	1383205.18687192
4	19	1	0	90	36.1581920903955	36.241610738255	10	0.333374920021743	2	8	1	NaN	2	5	0.0498346531438693	1	1	NaN	321	6	6	1	121	221	321	NaN	521	0.694928983459249	2	1	NaN	1383206.237169	NaN	1383207.2205673	1383207.73712312
4	19	1	0	90	36.1581920903955	36.241610738255	22	0.733424824047834	2	6	4	NaN	1	4	0.0498346531438693	1	1	NaN	322	6	7	1	121	221	321	NaN	521	0.325696931686252	1	1	NaN	1383209.2541741	NaN	1383210.2375393	1383210.75409807
4	19	1	0	90	36.1581920903955	36.241610738255	15	0.500062380032614	2	1	2	NaN	1	4	0.0498346531438693	1	1	NaN	323	6	8	1	121	221	321	NaN	521	0.300376079976559	1	1	NaN	1383211.8877383	NaN	1383212.8711266	1383213.38768272
4	19	1	0	90	36.1581920903955	36.241610738255	13	0.433387396028265	2	6	6	NaN	1	3	0.0498346531438693	1	1	NaN	324	6	9	1	121	221	321	NaN	521	0.355336531763896	1	1	NaN	1383214.5046591	NaN	1383215.4880436	1383216.00461297
4	19	1	0	90	36.1581920903955	36.241610738255	22	0.733424824047834	2	11	3	NaN	2	5	0.0498346531438693	1	1	NaN	325	6	10	1	121	221	321	NaN	521	0.2885798800271	2	1	NaN	1383217.1714861	NaN	1383218.154983	1383218.67153042
4	19	1	0	90	36.1581920903955	36.241610738255	10	0.333374920021743	2	2	3	NaN	1	3	0.0498346531438693	1	1	NaN	326	6	11	1	121	221	321	NaN	521	0.440412879921496	1	1	NaN	1383219.7716964	NaN	1383220.7552332	1383221.27178672
4	19	1	0	90	36.1581920903955	36.241610738255	0	0	1	1	2	NaN	1	3	0.0498346531438693	1	1	NaN	327	6	12	1	111	211	311	NaN	511	0.306269928347319	1	1	NaN	1383222.5221041	NaN	1383223.5055128	1383224.02206967
4	19	1	0	90	36.1581920903955	36.241610738255	0	0	1	6	3	NaN	1	4	0.0498346531438693	1	1	NaN	328	6	13	1	111	211	311	NaN	511	0.29752918984741	1	1	NaN	1383225.1390303	NaN	1383226.122425	1383226.63900771
4	19	1	0	90	36.1581920903955	36.241610738255	9	0.300037428019568	2	9	1	NaN	2	3	0.0498346531438693	1	1	NaN	329	6	14	1	121	221	321	NaN	521	2.61680487985723	2	1	NaN	1383227.7392898	NaN	1383228.7226991	1383229.23923742
4	19	1	0	90	36.1581920903955	36.241610738255	9	0.300037428019568	2	4	6	NaN	1	5	0.0498346531438693	1	1	NaN	330	6	15	1	121	221	321	NaN	521	0.499091131845489	1	1	NaN	1383232.6731106	NaN	1383233.6564921	1383234.17306627
4	19	1	0	90	36.1581920903955	36.241610738255	21	0.700087332045659	2	4	3	NaN	1	4	0.0498346531438693	1	1	NaN	331	6	16	1	121	221	321	NaN	521	0.0103928316384554	1	1	NaN	1383235.4900688	NaN	1383236.4734664	1383236.99002657
4	19	1	0	90	36.1581920903955	36.241610738255	8	0.266699936017394	2	4	3	NaN	1	4	0.0498346531438693	1	1	NaN	332	6	17	1	121	221	321	NaN	521	0.277165631530806	1	1	NaN	1383237.8069528	NaN	1383238.7903424	1383239.30690677
4	19	1	0	90	36.1581920903955	36.241610738255	11	0.366712412023917	2	2	1	NaN	1	5	0.0498346531438693	1	1	NaN	333	6	18	1	121	221	321	NaN	521	0.381870880024508	1	1	NaN	1383240.3905486	NaN	1383241.3739537	1383241.89047962
4	19	1	0	90	36.1581920903955	36.241610738255	10	0.333374920021743	2	10	4	NaN	2	3	0.0498346531438693	1	1	NaN	334	6	19	1	121	221	321	NaN	521	0.497880831593648	2	1	NaN	1383243.0908045	NaN	1383244.0742083	1383244.59075577
4	19	1	0	90	36.1581920903955	36.241610738255	21	0.700087332045659	2	1	3	NaN	1	3	0.0498346531438693	1	1	NaN	335	6	20	1	121	221	321	NaN	521	0.680391479982063	1	1	NaN	1383245.9078587	NaN	1383246.8911388	1383247.40769262
4	19	1	0	90	36.1581920903955	36.241610738255	25	0.833437300054356	2	3	4	NaN	1	5	0.0498346531438693	1	1	NaN	336	6	21	1	121	221	321	NaN	521	0.304069238016382	1	1	NaN	1383248.9079728	NaN	1383249.8914326	1383250.40799026
4	19	1	0	90	36.1581920903955	36.241610738255	9	0.300037428019568	2	2	5	NaN	1	5	0.0498346531438693	1	1	NaN	337	6	22	1	121	221	321	NaN	521	0.495320628397167	1	1	NaN	1383251.5249634	NaN	1383252.5083562	1383253.02491447
4	19	1	0	90	36.1581920903955	36.241610738255	9	0.300037428019568	2	9	6	NaN	2	3	0.0498346531438693	1	1	NaN	338	6	23	1	121	221	321	NaN	521	0.446721876505762	2	1	NaN	1383254.3419054	NaN	1383255.3252988	1383255.84185992
4	19	1	0	90	36.1581920903955	36.241610738255	10	0.333374920021743	2	2	5	NaN	1	5	0.0498346531438693	1	1	NaN	339	6	24	1	121	221	321	NaN	521	0.375265779905021	2	0	NaN	1383257.1088417	NaN	1383258.0922384	1383258.60879622
4	19	1	0	90	36.1581920903955	36.241610738255	17	0.566737364036962	2	4	3	NaN	1	5	0.0498346531438693	1	1	NaN	340	6	25	1	121	221	321	NaN	521	0.361749779898673	1	1	NaN	1383259.8424504	NaN	1383260.8258413	1383261.34239872
4	19	1	0	90	36.1581920903955	36.241610738255	21	0.700087332045659	2	5	4	NaN	1	5	0.0498346531438693	1	1	NaN	341	6	26	1	121	221	321	NaN	521	0.390168528305367	1	1	NaN	1383262.5260412	NaN	1383263.5094739	1383264.02598887
4	19	1	0	90	36.1581920903955	36.241610738255	15	0.500062380032614	2	8	4	NaN	2	5	0.0498346531438693	1	1	NaN	342	6	27	1	121	221	321	NaN	521	0.889737776713446	2	1	NaN	1383265.2262996	NaN	1383266.2097006	1383266.72625632
4	19	1	0	90	36.1581920903955	36.241610738255	13	0.433387396028265	2	5	5	NaN	1	3	0.0498346531438693	1	1	NaN	343	6	28	1	121	221	321	NaN	521	0.52965697995387	2	0	NaN	1383268.4266191	NaN	1383269.4100065	1383269.92656832
4	19	1	0	90	36.1581920903955	36.241610738255	15	0.500062380032614	2	10	1	NaN	2	5	0.0498346531438693	1	1	NaN	344	6	29	1	121	221	321	NaN	521	0.287919431691989	2	1	NaN	1383271.2603112	NaN	1383272.2436375	1383272.76019117
4	19	1	0	90	36.1581920903955	36.241610738255	17	0.566737364036962	2	12	6	NaN	2	3	0.0498346531438693	1	1	NaN	345	6	30	1	121	221	321	NaN	521	0.711750731570646	2	1	NaN	1383273.8605001	NaN	1383274.8438896	1383275.36045057
4	19	1	0	90	36.1581920903955	36.241610738255	13	0.433387396028265	2	1	5	NaN	1	4	0.0498346531438693	1	1	NaN	346	6	31	1	121	221	321	NaN	521	0.350077731767669	1	1	NaN	1383276.8941398	NaN	1383277.8775165	1383278.39407537
4	19	1	0	90	36.1581920903955	36.241610738255	17	0.566737364036962	2	7	1	NaN	2	3	0.0498346531438693	1	1	NaN	347	6	32	1	121	221	321	NaN	521	0.291257331846282	2	1	NaN	1383279.5610453	NaN	1383280.5444877	1383281.06100327
4	19	1	0	90	36.1581920903955	36.241610738255	13	0.433387396028265	2	4	1	NaN	1	5	0.0498346531438693	1	1	NaN	348	6	33	1	121	221	321	NaN	521	0.362852080026641	1	1	NaN	1383282.1612088	NaN	1383283.1446936	1383283.66125152
4	19	1	0	90	36.1581920903955	36.241610738255	0	0	1	9	6	NaN	2	4	0.0498346531438693	1	1	NaN	349	6	34	1	111	211	311	NaN	511	0.503305631689727	1	0	NaN	1383284.8449101	NaN	1383285.8283304	1383286.34486037
4	19	1	0	90	36.1581920903955	36.241610738255	7	0.23336244401522	2	6	4	NaN	1	3	0.0498346531438693	1	1	NaN	350	6	35	1	121	221	321	NaN	521	2.70250003156252	1	1	NaN	1383287.6617399	NaN	1383288.6452443	1383289.16180147
4	19	1	0	90	36.1581920903955	36.241610738255	23	0.766762316050008	2	6	4	NaN	1	5	0.0498346531438693	1	1	NaN	351	6	36	1	121	221	321	NaN	521	0.3253926448524	1	1	NaN	1383292.6788626	NaN	1383293.6623964	1383294.17896266
4	19	1	0	90	36.1581920903955	36.241610738255	24	0.800099808052182	2	12	6	NaN	2	3	0.0498346531438693	1	1	NaN	352	6	37	1	121	221	321	NaN	521	0.259799331659451	2	1	NaN	1383295.3126243	NaN	1383296.2960015	1383296.81255757
4	19	1	0	90	36.1581920903955	36.241610738255	25	0.833437300054356	2	7	4	NaN	2	5	0.0498346531438693	1	1	NaN	353	6	38	1	121	221	321	NaN	521	0.164792931638658	2	1	NaN	1383297.8795178	NaN	1383298.8628859	1383299.37947617
4	19	1	0	90	36.1581920903955	36.241610738255	10	0.333374920021743	2	9	3	NaN	2	5	0.0498346531438693	1	1	NaN	354	6	39	1	121	221	321	NaN	521	0.601141531718895	2	1	NaN	1383300.3631049	NaN	1383301.3464754	1383301.86305127
4	19	1	0	90	36.1581920903955	36.241610738255	11	0.366712412023917	2	12	4	NaN	2	5	0.0498346531438693	1	1	NaN	355	6	40	1	121	221	321	NaN	521	0.204021479934454	2	1	NaN	1383303.2800526	NaN	1383304.2634389	1383304.77999442
4	19	1	0	90	36.1581920903955	36.241610738255	20	0.666749840043485	2	5	3	NaN	1	3	0.0498346531438693	1	1	NaN	356	6	41	1	121	221	321	NaN	521	0.271687131840736	1	1	NaN	1383305.796962	NaN	1383306.7803601	1383307.29692157
4	19	1	0	90	36.1581920903955	36.241610738255	17	0.566737364036962	2	6	3	NaN	1	5	0.0498346531438693	1	1	NaN	357	6	42	1	121	221	321	NaN	521	0.311437831725925	1	1	NaN	1383308.380553	NaN	1383309.3639433	1383309.88051027
4	19	1	0	90	36.1581920903955	36.241610738255	16	0.533399872034788	2	11	3	NaN	2	5	0.0498346531438693	1	1	NaN	358	6	43	1	121	221	321	NaN	521	0.259730731602758	1	0	NaN	1383311.080804	NaN	1383312.0641997	1383312.58076647
4	19	1	0	90	36.1581920903955	36.241610738255	9	0.300037428019568	2	12	2	NaN	2	5	0.0498346531438693	1	1	NaN	359	6	44	1	121	221	321	NaN	521	0.0104066317435354	2	1	NaN	1383313.6477414	NaN	1383314.6311305	1383315.14769277
4	19	1	0	90	36.1581920903955	36.241610738255	6	0.200024952013046	2	5	1	NaN	1	4	0.0498346531438693	1	1	NaN	360	6	45	1	121	221	321	NaN	521	0.223417631583288	1	1	NaN	1383315.9646512	NaN	1383316.948009	1383317.46458717
4	19	1	0	90	36.1581920903955	36.241610738255	13	0.433387396028265	2	6	3	NaN	1	5	0.0498346531438693	1	1	NaN	361	6	46	1	121	221	321	NaN	521	0.281927980016917	1	1	NaN	1383318.4980999	NaN	1383319.4816189	1383319.99815832
4	19	1	0	90	36.1581920903955	36.241610738255	22	0.733424824047834	2	2	1	NaN	1	4	0.0498346531438693	1	1	NaN	362	6	47	1	121	221	321	NaN	521	0.400429931702092	2	0	NaN	1383321.3316976	NaN	1383322.3152114	1383322.83177807
4	19	1	0	90	36.1581920903955	36.241610738255	13	0.433387396028265	2	3	3	NaN	1	5	0.0498346531438693	1	1	NaN	363	6	48	1	121	221	321	NaN	521	0.275566444965079	1	1	NaN	1383324.0487677	NaN	1383325.0321659	1383325.54871336
4	19	1	0	90	36.1581920903955	36.241610738255	14	0.46672488803044	2	4	1	NaN	1	3	0.0498346531438693	1	1	NaN	364	6	49	1	121	221	321	NaN	521	0.315986579982564	1	1	NaN	1383326.6323421	NaN	1383327.6157421	1383328.13228982
4	19	1	0	90	36.1581920903955	36.241610738255	21	0.700087332045659	2	5	4	NaN	1	4	0.0498346531438693	1	1	NaN	365	6	50	1	121	221	321	NaN	521	0.114182396559045	1	1	NaN	1383329.2659827	NaN	1383330.2493445	1383330.7658981
4	19	1	0	90	36.1581920903955	36.241610738255	21	0.700087332045659	2	12	1	NaN	2	3	0.0498346531438693	1	1	NaN	366	6	51	1	121	221	321	NaN	521	0.18460503173992	1	0	NaN	1383331.6995173	NaN	1383332.6829217	1383333.19946627
4	19	1	0	90	36.1581920903955	36.241610738255	15	0.500062380032614	2	6	5	NaN	1	5	0.0498346531438693	1	1	NaN	367	6	52	1	121	221	321	NaN	521	0.228969431715086	1	1	NaN	1383334.1997599	NaN	1383335.1831536	1383335.69971287
4	19	1	0	90	36.1581920903955	36.241610738255	22	0.733424824047834	2	2	4	NaN	1	4	0.0498346531438693	1	1	NaN	368	6	53	1	121	221	321	NaN	521	0.335301531711593	2	0	NaN	1383336.7333446	NaN	1383337.7167144	1383338.23328927
4	19	1	0	90	36.1581920903955	36.241610738255	6	0.200024952013046	2	8	1	NaN	2	3	0.0498346531438693	1	1	NaN	369	6	54	1	121	221	321	NaN	521	0.244646131526679	1	0	NaN	1383339.3834717	NaN	1383340.3670207	1383340.88355727
4	19	1	0	90	36.1581920903955	36.241610738255	8	0.266699936017394	2	11	4	NaN	2	4	0.0498346531438693	1	1	NaN	370	6	55	1	121	221	321	NaN	521	0.126178631559014	1	0	NaN	1383341.9505462	NaN	1383342.9340018	1383343.45047257
4	19	1	0	90	36.1581920903955	36.241610738255	12	0.400049904026091	2	1	5	NaN	1	3	0.0498346531438693	1	1	NaN	371	6	56	1	121	221	321	NaN	521	0.21265604486689	1	1	NaN	1383344.3840889	NaN	1383345.3674892	1383345.88405316
4	19	1	0	90	36.1581920903955	36.241610738255	22	0.733424824047834	2	5	3	NaN	1	4	0.0498346531438693	1	1	NaN	372	6	57	1	121	221	321	NaN	521	0.207417831756175	1	1	NaN	1383346.9011017	NaN	1383347.8843843	1383348.40096027
4	19	1	0	90	36.1581920903955	36.241610738255	22	0.733424824047834	2	7	6	NaN	2	3	0.0498346531438693	1	1	NaN	373	6	58	1	121	221	321	NaN	521	0.13062233151868	2	1	NaN	1383349.4179242	NaN	1383350.4013393	1383350.91787697
4	19	1	0	90	36.1581920903955	36.241610738255	22	0.733424824047834	2	9	1	NaN	2	5	0.0498346531438693	1	1	NaN	374	6	59	1	121	221	321	NaN	521	0.152307631680742	2	1	NaN	1383351.8681758	NaN	1383352.8515868	1383353.36810957
4	19	1	0	90	36.1581920903955	36.241610738255	10	0.333374920021743	2	3	4	NaN	1	3	0.0498346531438693	1	1	NaN	375	6	60	1	121	221	321	NaN	521	0.357500231824815	2	0	NaN	1383354.3350611	NaN	1383355.3184649	1383355.83501877
4	19	1	0	90	36.1581920903955	36.241610738255	20	0.666749840043485	2	6	5	NaN	1	3	0.0498346531438693	1	1	NaN	376	6	61	1	121	221	321	NaN	521	0.330633531790227	1	1	NaN	1383357.0019899	NaN	1383357.9853935	1383358.50195057
4	19	1	0	90	36.1581920903955	36.241610738255	6	0.200024952013046	2	6	3	NaN	1	4	0.0498346531438693	1	1	NaN	377	6	62	1	121	221	321	NaN	521	0.752417880110443	1	1	NaN	1383359.6522652	NaN	1383360.6356534	1383361.15220262
4	19	1	0	90	36.1581920903955	36.241610738255	24	0.800099808052182	2	1	2	NaN	1	3	0.0498346531438693	1	1	NaN	378	6	63	1	121	221	321	NaN	521	0.221235576551408	1	1	NaN	1383362.7191969	NaN	1383363.7026121	1383364.21917052
4	19	1	0	90	36.1581920903955	36.241610738255	7	0.23336244401522	2	1	1	NaN	1	5	0.0498346531438693	1	1	NaN	379	7	1	1	121	221	321	NaN	521	0.369873131625354	2	0	NaN	1383434.2429265	NaN	1383435.2263172	1383435.74286837
4	19	1	0	90	36.1581920903955	36.241610738255	22	0.733424824047834	2	4	2	NaN	1	5	0.0498346531438693	1	1	NaN	380	7	2	1	121	221	321	NaN	521	0.549790131626651	1	1	NaN	1383436.9265148	NaN	1383437.9099164	1383438.42647687
4	19	1	0	90	36.1581920903955	36.241610738255	10	0.333374920021743	2	6	3	NaN	1	5	0.0498346531438693	1	1	NaN	381	7	3	1	121	221	321	NaN	521	0.219321731710806	1	1	NaN	1383439.7934642	NaN	1383440.7768594	1383441.29341977
4	19	1	0	90	36.1581920903955	36.241610738255	24	0.800099808052182	2	9	5	NaN	2	5	0.0498346531438693	1	1	NaN	382	7	4	1	121	221	321	NaN	521	0.399971631588414	1	0	NaN	1383442.460323	NaN	1383443.4437974	1383443.96035447
4	19	1	0	90	36.1581920903955	36.241610738255	8	0.266699936017394	2	12	3	NaN	2	4	0.0498346531438693	1	1	NaN	383	7	5	1	121	221	321	NaN	521	0.243266031844541	1	0	NaN	1383445.1773316	NaN	1383446.1607248	1383446.67728867
4	19	1	0	90	36.1581920903955	36.241610738255	10	0.333374920021743	2	5	1	NaN	1	3	0.0498346531438693	1	1	NaN	384	7	6	1	121	221	321	NaN	521	0.58024893165566	2	0	NaN	1383447.7442558	NaN	1383448.7276408	1383449.24420747
4	19	1	0	90	36.1581920903955	36.241610738255	16	0.533399872034788	2	1	4	NaN	1	3	0.0498346531438693	1	1	NaN	385	7	7	1	121	221	321	NaN	521	0.393003680044785	1	1	NaN	1383450.6278575	NaN	1383451.6112937	1383452.12781432
4	19	1	0	90	36.1581920903955	36.241610738255	23	0.766762316050008	2	9	6	NaN	2	3	0.0498346531438693	1	1	NaN	386	7	8	1	121	221	321	NaN	521	0.323826131643727	2	1	NaN	1383453.3448027	NaN	1383454.3281763	1383454.84474857
4	19	1	0	90	36.1581920903955	36.241610738255	10	0.333374920021743	2	9	1	NaN	2	4	0.0498346531438693	1	1	NaN	387	7	9	1	121	221	321	NaN	521	0.386158731533214	1	0	NaN	1383455.9783714	NaN	1383456.9618288	1383457.47834747
4	19	1	0	90	36.1581920903955	36.241610738255	20	0.666749840043485	2	4	5	NaN	1	4	0.0498346531438693	1	1	NaN	388	7	10	1	121	221	321	NaN	521	0.197958628414199	1	1	NaN	1383458.6786689	NaN	1383459.6619555	1383460.17860477
4	19	1	0	90	36.1581920903955	36.241610738255	23	0.766762316050008	2	5	3	NaN	1	3	0.0498346531438693	1	1	NaN	389	7	11	1	121	221	321	NaN	521	0.281325383577496	1	1	NaN	1383461.1955758	NaN	1383462.1788681	1383462.69552732
4	19	1	0	90	36.1581920903955	36.241610738255	7	0.23336244401522	2	12	1	NaN	2	3	0.0498346531438693	1	1	NaN	390	7	12	1	121	221	321	NaN	521	0.289269731612876	1	0	NaN	1383463.7791651	NaN	1383464.7625748	1383465.27911657
4	19	1	0	90	36.1581920903955	36.241610738255	23	0.766762316050008	2	11	5	NaN	2	3	0.0498346531438693	1	1	NaN	391	7	13	1	121	221	321	NaN	521	1.28113444172777	1	0	NaN	1383466.3794166	NaN	1383467.3628394	1383467.87937396
4	19	1	0	90	36.1581920903955	36.241610738255	8	0.266699936017394	2	8	5	NaN	2	5	0.0498346531438693	1	1	NaN	392	7	14	1	121	221	321	NaN	521	0.222752431873232	2	1	NaN	1383470.4298033	NaN	1383471.4132157	1383471.92976587
4	19	1	0	90	36.1581920903955	36.241610738255	17	0.566737364036962	2	2	4	NaN	1	3	0.0498346531438693	1	1	NaN	393	7	15	1	121	221	321	NaN	521	0.279131589690223	2	0	NaN	1383473.2134292	NaN	1383474.1968037	1383474.71337711
4	19	1	0	90	36.1581920903955	36.241610738255	10	0.333374920021743	2	12	5	NaN	2	3	0.0498346531438693	1	1	NaN	394	7	16	1	121	221	321	NaN	521	0.398941179970279	1	0	NaN	1383475.813679	NaN	1383476.7970927	1383477.31362822
4	19	1	0	90	36.1581920903955	36.241610738255	10	0.333374920021743	2	1	2	NaN	1	3	0.0498346531438693	1	1	NaN	395	7	17	1	121	221	321	NaN	521	0.234564631711692	1	1	NaN	1383478.5139699	NaN	1383479.4973281	1383480.01388807
4	19	1	0	90	36.1581920903955	36.241610738255	12	0.400049904026091	2	4	2	NaN	1	5	0.0498346531438693	1	1	NaN	396	7	18	1	121	221	321	NaN	521	0.148360931547359	2	0	NaN	1383481.0641847	NaN	1383482.0476335	1383482.56414827
4	19	1	0	90	36.1581920903955	36.241610738255	18	0.600074856039137	2	9	3	NaN	2	4	0.0498346531438693	1	1	NaN	397	7	19	1	121	221	321	NaN	521	0.273306631715968	2	1	NaN	1383483.5310008	NaN	1383484.5144916	1383485.03105517
4	19	1	0	90	36.1581920903955	36.241610738255	16	0.533399872034788	2	4	6	NaN	1	4	0.0498346531438693	1	1	NaN	398	7	20	1	121	221	321	NaN	521	0.265710331732407	2	0	NaN	1383486.1146881	NaN	1383487.0980757	1383487.61463437
4	19	1	0	90	36.1581920903955	36.241610738255	21	0.700087332045659	2	3	6	NaN	1	5	0.0498346531438693	1	1	NaN	399	7	21	1	121	221	321	NaN	521	0.346096531720832	2	0	NaN	1383488.698292	NaN	1383489.6816647	1383490.19822437
4	19	1	0	90	36.1581920903955	36.241610738255	12	0.400049904026091	2	8	2	NaN	2	3	0.0498346531438693	1	1	NaN	400	7	22	1	121	221	321	NaN	521	0.160342069808394	1	0	NaN	1383491.3485746	NaN	1383492.3319409	1383492.84847783
4	19	1	0	90	36.1581920903955	36.241610738255	24	0.800099808052182	2	11	6	NaN	2	5	0.0498346531438693	1	1	NaN	401	7	23	1	121	221	321	NaN	521	0.124914331594482	1	0	NaN	1383493.815441	NaN	1383494.798853	1383495.31539807
4	19	1	0	90	36.1581920903955	36.241610738255	21	0.700087332045659	2	7	6	NaN	2	4	0.0498346531438693	1	1	NaN	402	7	24	1	121	221	321	NaN	521	0.187712831655517	1	0	NaN	1383496.6490602	NaN	1383497.6324359	1383498.14901497
4	19	1	0	90	36.1581920903955	36.241610738255	7	0.23336244401522	2	5	4	NaN	1	5	0.0498346531438693	1	1	NaN	403	7	25	1	121	221	321	NaN	521	0.143129131756723	1	1	NaN	1383499.1493031	NaN	1383500.1326901	1383500.64925547
4	19	1	0	90	36.1581920903955	36.241610738255	0	0	1	5	2	NaN	1	4	0.0498346531438693	1	1	NaN	404	7	26	1	111	211	311	NaN	511	0.237397383200005	1	1	NaN	1383501.5995655	NaN	1383502.5829324	1383503.09949562
4	19	1	0	90	36.1581920903955	36.241610738255	0	0	1	11	1	NaN	2	5	0.0498346531438693	1	1	NaN	405	7	27	1	111	211	311	NaN	511	0.255055631510913	2	1	NaN	1383504.1497873	NaN	1383505.1331705	1383505.64974357
4	19	1	0	90	36.1581920903955	36.241610738255	24	0.800099808052182	2	8	3	NaN	2	5	0.0498346531438693	1	1	NaN	406	7	28	1	121	221	321	NaN	521	0.0158892318140715	2	1	NaN	1383506.7167082	NaN	1383507.7001117	1383508.21667007
4	19	1	0	90	36.1581920903955	36.241610738255	12	0.400049904026091	2	2	6	NaN	1	4	0.0498346531438693	1	1	NaN	407	7	29	1	121	221	321	NaN	521	0.114689831621945	1	1	NaN	1383509.0502834	NaN	1383510.0336561	1383510.55022897
4	19	1	0	90	36.1581920903955	36.241610738255	18	0.600074856039137	2	3	4	NaN	1	4	0.0498346531438693	1	1	NaN	408	7	30	1	121	221	321	NaN	521	0.0103907315060496	1	1	NaN	1383511.4838469	NaN	1383512.4672835	1383512.98380657
4	19	1	0	90	36.1581920903955	36.241610738255	15	0.500062380032614	2	9	2	NaN	2	4	0.0498346531438693	1	1	NaN	409	7	31	1	121	221	321	NaN	521	0.132024831604213	1	0	NaN	1383513.8007395	NaN	1383514.7841325	1383515.30069917
4	19	1	0	90	36.1581920903955	36.241610738255	14	0.46672488803044	2	12	5	NaN	2	5	0.0498346531438693	1	1	NaN	410	7	32	1	121	221	321	NaN	521	0.16145603149198	1	0	NaN	1383516.2509801	NaN	1383517.234386	1383517.75094127
4	19	1	0	90	36.1581920903955	36.241610738255	25	0.833437300054356	2	5	3	NaN	1	4	0.0498346531438693	1	1	NaN	411	7	33	1	121	221	321	NaN	521	0.158174379961565	1	1	NaN	1383518.7345694	NaN	1383519.717935	1383520.23451802
4	19	1	0	90	36.1581920903955	36.241610738255	14	0.46672488803044	2	9	1	NaN	2	4	0.0498346531438693	1	1	NaN	412	7	34	1	121	221	321	NaN	521	0.0989123799372464	2	1	NaN	1383521.2014738	NaN	1383522.1848741	1383522.70141342
4	19	1	0	90	36.1581920903955	36.241610738255	24	0.800099808052182	2	2	3	NaN	1	5	0.0498346531438693	1	1	NaN	413	7	35	1	121	221	321	NaN	521	0.226114031625912	1	1	NaN	1383523.6183664	NaN	1383524.6017629	1383525.11834677
4	19	1	0	90	36.1581920903955	36.241610738255	17	0.566737364036962	2	10	2	NaN	2	5	0.0498346531438693	1	1	NaN	414	7	36	1	121	221	321	NaN	521	0.124463631771505	2	1	NaN	1383526.1519521	NaN	1383527.1353645	1383527.65191507
4	19	1	0	90	36.1581920903955	36.241610738255	16	0.533399872034788	2	12	2	NaN	2	4	0.0498346531438693	1	1	NaN	415	7	37	1	121	221	321	NaN	521	0.218847096664831	2	1	NaN	1383528.5855328	NaN	1383529.5689301	1383530.0854921
4	19	1	0	90	36.1581920903955	36.241610738255	18	0.600074856039137	2	2	4	NaN	1	5	0.0498346531438693	1	1	NaN	416	7	38	1	121	221	321	NaN	521	0.0455751833505929	1	1	NaN	1383531.1191275	NaN	1383532.1024996	1383532.61907042
4	19	1	0	90	36.1581920903955	36.241610738255	14	0.46672488803044	2	3	3	NaN	1	3	0.0498346531438693	1	1	NaN	417	7	39	1	121	221	321	NaN	521	0.127609631512314	1	1	NaN	1383533.4693566	NaN	1383534.4527525	1383534.96929687
4	19	1	0	90	36.1581920903955	36.241610738255	0	0	1	2	3	NaN	1	3	0.0498346531438693	1	1	NaN	418	7	40	1	111	211	311	NaN	511	0.141622231574729	1	1	NaN	1383535.9029092	NaN	1383536.8863245	1383537.40286517
4	19	1	0	90	36.1581920903955	36.241610738255	13	0.433387396028265	2	12	6	NaN	2	4	0.0498346531438693	1	1	NaN	419	7	41	1	121	221	321	NaN	521	0.323484331602231	2	1	NaN	1383538.3531539	NaN	1383539.336552	1383539.85312147
4	19	1	0	90	36.1581920903955	36.241610738255	25	0.833437300054356	2	4	2	NaN	1	5	0.0498346531438693	1	1	NaN	420	7	42	1	121	221	321	NaN	521	0.233618380036205	1	1	NaN	1383540.9867453	NaN	1383541.9701405	1383542.48669382
4	19	1	0	90	36.1581920903955	36.241610738255	16	0.533399872034788	2	3	5	NaN	1	3	0.0498346531438693	1	1	NaN	421	7	43	1	121	221	321	NaN	521	0.155493383528665	1	1	NaN	1383543.5370135	NaN	1383544.5203848	1383545.03694462
4	19	1	0	90	36.1581920903955	36.241610738255	11	0.366712412023917	2	12	2	NaN	2	3	0.0498346531438693	1	1	NaN	422	7	44	1	121	221	321	NaN	521	0.032567931804806	2	1	NaN	1383546.0039111	NaN	1383546.9873208	1383547.50386427
4	19	1	0	90	36.1581920903955	36.241610738255	7	0.23336244401522	2	3	2	NaN	1	4	0.0498346531438693	1	1	NaN	423	7	45	1	121	221	321	NaN	521	0.578859331551939	1	1	NaN	1383548.3541307	NaN	1383549.3375365	1383549.85408997
4	19	1	0	90	36.1581920903955	36.241610738255	14	0.46672488803044	2	11	4	NaN	2	3	0.0498346531438693	1	1	NaN	424	7	46	1	121	221	321	NaN	521	0.214729983359575	2	1	NaN	1383551.2377441	NaN	1383552.2211614	1383552.73770062
4	19	1	0	90	36.1581920903955	36.241610738255	18	0.600074856039137	2	6	5	NaN	1	4	0.0498346531438693	1	1	NaN	425	7	47	1	121	221	321	NaN	521	0.201661131577566	1	1	NaN	1383553.7712093	NaN	1383554.7547199	1383555.27129137
4	19	1	0	90	36.1581920903955	36.241610738255	15	0.500062380032614	2	5	2	NaN	1	4	0.0498346531438693	1	1	NaN	426	7	48	1	121	221	321	NaN	521	0.156292380066589	1	1	NaN	1383556.2882538	NaN	1383557.2716467	1383557.78819952
4	19	1	0	90	36.1581920903955	36.241610738255	20	0.666749840043485	2	7	6	NaN	2	3	0.0498346531438693	1	1	NaN	427	7	49	1	121	221	321	NaN	521	0.12142014154233	2	1	NaN	1383558.7551661	NaN	1383559.7385346	1383560.25510886
4	19	1	0	90	36.1581920903955	36.241610738255	13	0.433387396028265	2	7	5	NaN	2	4	0.0498346531438693	1	1	NaN	428	7	50	1	121	221	321	NaN	521	0.0479776416905224	2	1	NaN	1383561.1887713	NaN	1383562.172131	1383562.68868886
4	19	1	0	90	36.1581920903955	36.241610738255	23	0.766762316050008	2	1	4	NaN	1	3	0.0498346531438693	1	1	NaN	429	7	51	1	121	221	321	NaN	521	0.241002431605011	2	0	NaN	1383563.5556329	NaN	1383564.5390117	1383565.05559057
4	19	1	0	90	36.1581920903955	36.241610738255	7	0.23336244401522	2	10	6	NaN	2	3	0.0498346531438693	1	1	NaN	430	7	52	1	121	221	321	NaN	521	0.179114141734317	2	1	NaN	1383566.1058798	NaN	1383567.0892804	1383567.60584306
4	19	1	0	90	36.1581920903955	36.241610738255	19	0.633412348041311	2	2	4	NaN	1	3	0.0498346531438693	1	1	NaN	431	7	53	1	121	221	321	NaN	521	0.0103894316125661	1	1	NaN	1383568.6061388	NaN	1383569.5895215	1383570.10608147
4	19	1	0	90	36.1581920903955	36.241610738255	9	0.300037428019568	2	1	4	NaN	1	4	0.0498346531438693	1	1	NaN	432	7	54	1	121	221	321	NaN	521	0.161044231615961	1	1	NaN	1383570.9397011	NaN	1383571.9230947	1383572.43964777
4	19	1	0	90	36.1581920903955	36.241610738255	19	0.633412348041311	2	9	5	NaN	2	3	0.0498346531438693	1	1	NaN	433	7	55	1	121	221	321	NaN	521	0.101303328527138	2	1	NaN	1383573.4232783	NaN	1383574.4066511	1383574.92321877
4	19	1	0	90	36.1581920903955	36.241610738255	16	0.533399872034788	2	2	1	NaN	1	4	0.0498346531438693	1	1	NaN	434	7	56	1	121	221	321	NaN	521	0.156437680125237	1	1	NaN	1383575.8401627	NaN	1383576.8235755	1383577.34012032
4	19	1	0	90	36.1581920903955	36.241610738255	7	0.23336244401522	2	5	2	NaN	1	4	0.0498346531438693	1	1	NaN	435	7	57	1	121	221	321	NaN	521	0.0255055318120867	1	1	NaN	1383578.3070789	NaN	1383579.2904762	1383579.80703427
4	19	1	0	90	36.1581920903955	36.241610738255	12	0.400049904026091	2	5	3	NaN	1	4	0.0498346531438693	1	1	NaN	436	7	58	1	121	221	321	NaN	521	0.163832131773233	1	1	NaN	1383580.6406419	NaN	1383581.6240471	1383582.14060107
4	19	1	0	90	36.1581920903955	36.241610738255	20	0.666749840043485	2	3	5	NaN	1	3	0.0498346531438693	1	1	NaN	437	7	59	1	121	221	321	NaN	521	0.232486231718212	2	0	NaN	1383583.1242582	NaN	1383584.1076199	1383584.62417447
4	19	1	0	90	36.1581920903955	36.241610738255	24	0.800099808052182	2	5	1	NaN	1	5	0.0498346531438693	1	1	NaN	438	7	60	1	121	221	321	NaN	521	0.114633279852569	1	1	NaN	1383585.6744719	NaN	1383586.6578667	1383587.17441842
4	19	1	0	90	36.1581920903955	36.241610738255	6	0.200024952013046	2	9	4	NaN	2	4	0.0498346531438693	1	1	NaN	439	7	61	1	121	221	321	NaN	521	0.010410179849714	1	0	NaN	1383588.0914046	NaN	1383589.0747717	1383589.59132332
4	19	1	0	90	36.1581920903955	36.241610738255	6	0.200024952013046	2	7	3	NaN	2	5	0.0498346531438693	1	1	NaN	440	7	62	1	121	221	321	NaN	521	0.147693380014971	2	1	NaN	1383590.4249491	NaN	1383591.4083401	1383591.92488502
4	19	1	0	90	36.1581920903955	36.241610738255	16	0.533399872034788	2	5	6	NaN	1	5	0.0498346531438693	1	1	NaN	441	7	63	1	121	221	321	NaN	521	0.304721631808206	2	0	NaN	1383592.891853	NaN	1383593.8752396	1383594.39179767
4	19	1	0	90	36.1581920903955	36.241610738255	19	0.633412348041311	2	12	3	NaN	2	4	0.0498346531438693	1	1	NaN	442	8	1	1	121	221	321	NaN	521	0.298435231670737	2	1	NaN	1383630.5621888	NaN	1383631.5456186	1383632.06216867
4	19	1	0	90	36.1581920903955	36.241610738255	14	0.46672488803044	2	8	4	NaN	2	4	0.0498346531438693	1	1	NaN	443	8	2	1	121	221	321	NaN	521	0.258657483384013	2	1	NaN	1383633.162454	NaN	1383634.1458848	1383634.66242432
4	19	1	0	90	36.1581920903955	36.241610738255	6	0.200024952013046	2	3	1	NaN	1	4	0.0498346531438693	1	1	NaN	444	8	3	1	121	221	321	NaN	521	0.218791131628677	1	1	NaN	1383635.7460576	NaN	1383636.7294684	1383637.24601787
4	19	1	0	90	36.1581920903955	36.241610738255	15	0.500062380032614	2	12	3	NaN	2	4	0.0498346531438693	1	1	NaN	445	8	4	1	121	221	321	NaN	521	0.293255931697786	1	0	NaN	1383638.2796381	NaN	1383639.2630459	1383639.77960007
4	19	1	0	90	36.1581920903955	36.241610738255	0	0	1	12	3	NaN	2	5	0.0498346531438693	1	1	NaN	446	8	5	1	111	211	311	NaN	511	0.276718931738287	1	0	NaN	1383640.879902	NaN	1383641.8633032	1383642.37985477
4	19	1	0	90	36.1581920903955	36.241610738255	14	0.46672488803044	2	3	2	NaN	1	3	0.0498346531438693	1	1	NaN	447	8	6	1	121	221	321	NaN	521	0.310969979967922	1	1	NaN	1383643.8135474	NaN	1383644.7969147	1383645.31346292
4	19	1	0	90	36.1581920903955	36.241610738255	9	0.300037428019568	2	6	2	NaN	1	4	0.0498346531438693	1	1	NaN	448	8	7	1	121	221	321	NaN	521	0.142266231589019	1	1	NaN	1383646.4304544	NaN	1383647.4138499	1383647.93039947
4	19	1	0	90	36.1581920903955	36.241610738255	7	0.23336244401522	2	3	5	NaN	1	4	0.0498346531438693	1	1	NaN	449	8	8	1	121	221	321	NaN	521	0.228195579955354	1	1	NaN	1383648.8807136	NaN	1383649.864072	1383650.38063732
4	19	1	0	90	36.1581920903955	36.241610738255	23	0.766762316050008	2	3	5	NaN	1	3	0.0498346531438693	1	1	NaN	450	8	9	1	121	221	321	NaN	521	0.286851076642051	1	1	NaN	1383651.4142509	NaN	1383652.397638	1383652.91421392
4	19	1	0	90	36.1581920903955	36.241610738255	10	0.333374920021743	2	1	1	NaN	1	5	0.0498346531438693	1	1	NaN	451	8	10	1	121	221	321	NaN	521	0.190487931715325	1	1	NaN	1383654.014539	NaN	1383654.9979139	1383655.51448017
4	19	1	0	90	36.1581920903955	36.241610738255	19	0.633412348041311	2	7	4	NaN	2	3	0.0498346531438693	1	1	NaN	452	8	11	1	121	221	321	NaN	521	0.249952876707539	2	1	NaN	1383656.5146408	NaN	1383657.4981504	1383658.01471622
4	19	1	0	90	36.1581920903955	36.241610738255	16	0.533399872034788	2	4	6	NaN	1	3	0.0498346531438693	1	1	NaN	453	8	12	1	121	221	321	NaN	521	0.227362731704488	1	1	NaN	1383659.0816887	NaN	1383660.0650775	1383660.58164217
4	19	1	0	90	36.1581920903955	36.241610738255	11	0.366712412023917	2	8	6	NaN	2	5	0.0498346531438693	1	1	NaN	454	8	13	1	121	221	321	NaN	521	0.285841676639393	2	1	NaN	1383661.6152721	NaN	1383662.5986819	1383663.11521462
4	19	1	0	90	36.1581920903955	36.241610738255	9	0.300037428019568	2	8	1	NaN	2	4	0.0498346531438693	1	1	NaN	455	8	14	1	121	221	321	NaN	521	0.229265689849854	2	1	NaN	1383664.2155184	NaN	1383665.19892	1383665.71547991
4	19	1	0	90	36.1581920903955	36.241610738255	25	0.833437300054356	2	11	3	NaN	2	4	0.0498346531438693	1	1	NaN	456	8	15	1	121	221	321	NaN	521	0.351099679945037	2	1	NaN	1383666.7657677	NaN	1383667.7491568	1383668.26572512
4	19	1	0	90	36.1581920903955	36.241610738255	16	0.533399872034788	2	12	3	NaN	2	3	0.0498346531438693	1	1	NaN	457	8	16	1	121	221	321	NaN	521	0.268440969986841	2	1	NaN	1383669.432698	NaN	1383670.4161372	1383670.93265043
4	19	1	0	90	36.1581920903955	36.241610738255	6	0.200024952013046	2	10	3	NaN	2	4	0.0498346531438693	1	1	NaN	458	8	17	1	121	221	321	NaN	521	0.220735631650314	2	1	NaN	1383672.0162896	NaN	1383672.9996701	1383673.51624687
4	19	1	0	90	36.1581920903955	36.241610738255	8	0.266699936017394	2	3	2	NaN	1	3	0.0498346531438693	1	1	NaN	459	8	18	1	121	221	321	NaN	521	0.158889231737703	1	1	NaN	1383674.5498681	NaN	1383675.5332703	1383676.04983157
